trial_nr	onset	event_type	phase	response	nr_frames	movie_index	movie_duration	movie_file	blank	onset_abs	duration
0	0.15781903266906738	stim	0		109					27.674015998840332	0.9088039398193359
0	1.0585410594940186	response	0	space						28.574738025665283	
1	1.0666229724884033	stim	0		3724					28.582819938659668	31.033075094223022
1	32.0959849357605	pulse	0	t						59.61218190193176	
1	32.099698066711426	stim	1		1717					59.61589503288269	14.308218955993652
1	33.69159007072449	pulse	1	t						61.20778703689575	
1	35.29153299331665	pulse	1	t						62.807729959487915	
1	36.89159297943115	pulse	1	t						64.40778994560242	
1	38.49159002304077	pulse	1	t						66.00778698921204	
1	40.09151911735535	pulse	1	t						67.60771608352661	
1	41.69146800041199	pulse	1	t						69.20766496658325	
1	43.291505098342896	pulse	1	t						70.80770206451416	
1	44.89143991470337	pulse	1	t						72.40763688087463	
2	46.40791702270508	fix_pre	0		11	0.0	2.5	/experiments/AOT/AOT_stimuli/rescaled_final/2000_rv.mp4	0.0	73.92411398887634	0.09177494049072266
2	46.49144196510315	pulse	0	t		0.0	2.5	/experiments/AOT/AOT_stimuli/rescaled_final/2000_rv.mp4	0.0	74.00763893127441	
2	46.4996919631958	movie	1		244	0.0	2.5	/experiments/AOT/AOT_stimuli/rescaled_final/2000_rv.mp4	0.0	74.01588892936707	2.5078699588775635
2	48.091076135635376	pulse	1	t		0.0	2.5	/experiments/AOT/AOT_stimuli/rescaled_final/2000_rv.mp4	0.0	75.60727310180664	
2	49.007561922073364	fix_post	2		12	0.0	2.5	/experiments/AOT/AOT_stimuli/rescaled_final/2000_rv.mp4	0.0	76.52375888824463	0.10044503211975098
3	49.108006954193115	fix_pre	0		120	1.0	2.5	/experiments/AOT/AOT_stimuli/rescaled_final/0763_fw.mp4	0.0	76.62420392036438	1.0000879764556885
3	49.6915180683136	pulse	0	t		1.0	2.5	/experiments/AOT/AOT_stimuli/rescaled_final/0763_fw.mp4	0.0	77.20771503448486	
3	50.108094930648804	movie	1		245	1.0	2.5	/experiments/AOT/AOT_stimuli/rescaled_final/0763_fw.mp4	0.0	77.62429189682007	2.499908208847046
3	51.2915461063385	pulse	1	t		1.0	2.5	/experiments/AOT/AOT_stimuli/rescaled_final/0763_fw.mp4	0.0	78.80774307250977	
3	52.60800313949585	fix_post	2		12	1.0	2.5	/experiments/AOT/AOT_stimuli/rescaled_final/0763_fw.mp4	0.0	80.12420010566711	0.09994196891784668
4	52.707945108413696	fix_pre	0		120	2.0	2.5	/experiments/AOT/AOT_stimuli/rescaled_final/1756_fw.mp4	0.0	80.22414207458496	1.000067949295044
4	52.891453981399536	pulse	0	t		2.0	2.5	/experiments/AOT/AOT_stimuli/rescaled_final/1756_fw.mp4	0.0	80.4076509475708	
4	53.70801305770874	movie	1		242	2.0	2.5	/experiments/AOT/AOT_stimuli/rescaled_final/1756_fw.mp4	0.0	81.22421002388	2.499484062194824
4	54.49147295951843	pulse	1	t		2.0	2.5	/experiments/AOT/AOT_stimuli/rescaled_final/1756_fw.mp4	0.0	82.0076699256897	
4	56.090028047561646	pulse	1	t		2.0	2.5	/experiments/AOT/AOT_stimuli/rescaled_final/1756_fw.mp4	0.0	83.60622501373291	
4	56.207497119903564	fix_post	2		12	2.0	2.5	/experiments/AOT/AOT_stimuli/rescaled_final/1756_fw.mp4	0.0	83.72369408607483	0.10051393508911133
5	56.308011054992676	fix_pre	0		120	3.0	2.5	/experiments/AOT/AOT_stimuli/rescaled_final/1829_fw.mp4	0.0	83.82420802116394	0.999845027923584
5	57.30785608291626	movie	1		244	3.0	2.5	/experiments/AOT/AOT_stimuli/rescaled_final/1829_fw.mp4	0.0	84.82405304908752	2.500005006790161
5	57.69101905822754	pulse	1	t		3.0	2.5	/experiments/AOT/AOT_stimuli/rescaled_final/1829_fw.mp4	0.0	85.2072160243988	
5	59.29142212867737	pulse	1	t		3.0	2.5	/experiments/AOT/AOT_stimuli/rescaled_final/1829_fw.mp4	0.0	86.80761909484863	
5	59.80786108970642	fix_post	2		12	3.0	2.5	/experiments/AOT/AOT_stimuli/rescaled_final/1829_fw.mp4	0.0	87.32405805587769	0.10000205039978027
6	59.9078631401062	fix_pre	0		119	4.0	2.5	/experiments/AOT/AOT_stimuli/rescaled_final/2160_rv.mp4	0.0	87.42406010627747	0.991689920425415
6	60.89143109321594	pulse	0	t		4.0	2.5	/experiments/AOT/AOT_stimuli/rescaled_final/2160_rv.mp4	0.0	88.4076280593872	
6	60.899553060531616	movie	1		245	4.0	2.5	/experiments/AOT/AOT_stimuli/rescaled_final/2160_rv.mp4	0.0	88.41575002670288	2.5084469318389893
6	62.49116110801697	pulse	1	t		4.0	2.5	/experiments/AOT/AOT_stimuli/rescaled_final/2160_rv.mp4	0.0	90.00735807418823	
6	63.407999992370605	fix_post	2		12	4.0	2.5	/experiments/AOT/AOT_stimuli/rescaled_final/2160_rv.mp4	0.0	90.92419695854187	0.09997391700744629
7	63.50797390937805	fix_pre	0		120	5.0	2.5	/experiments/AOT/AOT_stimuli/rescaled_final/1317_rv.mp4	0.0	91.02417087554932	1.0000081062316895
7	64.09143400192261	pulse	0	t		5.0	2.5	/experiments/AOT/AOT_stimuli/rescaled_final/1317_rv.mp4	0.0	91.60763096809387	
7	64.50798201560974	movie	1		244	5.0	2.5	/experiments/AOT/AOT_stimuli/rescaled_final/1317_rv.mp4	0.0	92.024178981781	2.499994993209839
7	65.6914119720459	pulse	1	t		5.0	2.5	/experiments/AOT/AOT_stimuli/rescaled_final/1317_rv.mp4	0.0	93.20760893821716	
7	67.00797700881958	fix_post	2		12	5.0	2.5	/experiments/AOT/AOT_stimuli/rescaled_final/1317_rv.mp4	0.0	94.52417397499084	0.09990501403808594
8	67.10788202285767	fix_pre	0		120	6.0	2.5	blank	1.0	94.62407898902893	0.9996590614318848
8	67.29140996932983	pulse	0	t		6.0	2.5	blank	1.0	94.8076069355011	
8	68.10754108428955	movie	1		300	6.0	2.5	blank	1.0	95.62373805046082	2.5006179809570312
8	68.89103198051453	pulse	1	t		6.0	2.5	blank	1.0	96.40722894668579	
8	70.49162101745605	pulse	1	t		6.0	2.5	blank	1.0	98.00781798362732	
8	70.60815906524658	fix_post	2		12	6.0	2.5	blank	1.0	98.12435603141785	0.10006189346313477
9	70.70822095870972	fix_pre	0		120	7.0	2.5	/experiments/AOT/AOT_stimuli/rescaled_final/0309_fw.mp4	0.0	98.22441792488098	0.9996600151062012
9	71.70788097381592	movie	1		245	7.0	2.5	/experiments/AOT/AOT_stimuli/rescaled_final/0309_fw.mp4	0.0	99.22407793998718	2.4995641708374023
9	72.09151291847229	pulse	1	t		7.0	2.5	/experiments/AOT/AOT_stimuli/rescaled_final/0309_fw.mp4	0.0	99.60770988464355	
9	73.69135403633118	pulse	1	t		7.0	2.5	/experiments/AOT/AOT_stimuli/rescaled_final/0309_fw.mp4	0.0	101.20755100250244	
9	74.20744514465332	fix_post	2		12	7.0	2.5	/experiments/AOT/AOT_stimuli/rescaled_final/0309_fw.mp4	0.0	101.72364211082458	0.10037589073181152
10	74.30782103538513	fix_pre	0		119	8.0	2.5	/experiments/AOT/AOT_stimuli/rescaled_final/1838_fw.mp4	0.0	101.8240180015564	0.9917619228363037
10	75.2913191318512	pulse	0	t		8.0	2.5	/experiments/AOT/AOT_stimuli/rescaled_final/1838_fw.mp4	0.0	102.80751609802246	
10	75.29958295822144	movie	1		244	8.0	2.5	/experiments/AOT/AOT_stimuli/rescaled_final/1838_fw.mp4	0.0	102.8157799243927	2.5078251361846924
10	76.89093708992004	pulse	1	t		8.0	2.5	/experiments/AOT/AOT_stimuli/rescaled_final/1838_fw.mp4	0.0	104.40713405609131	
10	77.80740809440613	fix_post	2		12	8.0	2.5	/experiments/AOT/AOT_stimuli/rescaled_final/1838_fw.mp4	0.0	105.32360506057739	0.10050296783447266
11	77.9079110622406	fix_pre	0		120	9.0	2.5	/experiments/AOT/AOT_stimuli/rescaled_final/0240_rv.mp4	0.0	105.42410802841187	0.9999110698699951
11	78.49143505096436	pulse	0	t		9.0	2.5	/experiments/AOT/AOT_stimuli/rescaled_final/0240_rv.mp4	0.0	106.00763201713562	
11	78.9078221321106	movie	1		244	9.0	2.5	/experiments/AOT/AOT_stimuli/rescaled_final/0240_rv.mp4	0.0	106.42401909828186	2.4999938011169434
11	80.09134793281555	pulse	1	t		9.0	2.5	/experiments/AOT/AOT_stimuli/rescaled_final/0240_rv.mp4	0.0	107.60754489898682	
11	81.40781593322754	fix_post	2		12	9.0	2.5	/experiments/AOT/AOT_stimuli/rescaled_final/0240_rv.mp4	0.0	108.9240128993988	0.09999203681945801
12	81.507807970047	fix_pre	0		120	10.0	2.5	/experiments/AOT/AOT_stimuli/rescaled_final/0151_rv.mp4	0.0	109.02400493621826	1.0001649856567383
12	81.69122314453125	pulse	0	t		10.0	2.5	/experiments/AOT/AOT_stimuli/rescaled_final/0151_rv.mp4	0.0	109.20742011070251	
12	82.50797295570374	movie	1		242	10.0	2.5	/experiments/AOT/AOT_stimuli/rescaled_final/0151_rv.mp4	0.0	110.024169921875	2.4994280338287354
12	83.29131698608398	pulse	1	t		10.0	2.5	/experiments/AOT/AOT_stimuli/rescaled_final/0151_rv.mp4	0.0	110.80751395225525	
12	84.88954305648804	pulse	1	t		10.0	2.5	/experiments/AOT/AOT_stimuli/rescaled_final/0151_rv.mp4	0.0	112.4057400226593	
12	85.00740098953247	fix_post	2		12	10.0	2.5	/experiments/AOT/AOT_stimuli/rescaled_final/0151_rv.mp4	0.0	112.52359795570374	0.10034608840942383
13	85.1077470779419	fix_pre	0		120	11.0	2.5	/experiments/AOT/AOT_stimuli/rescaled_final/1839_rv.mp4	0.0	112.62394404411316	1.0000278949737549
13	86.10777497291565	movie	1		243	11.0	2.5	/experiments/AOT/AOT_stimuli/rescaled_final/1839_rv.mp4	0.0	113.62397193908691	2.499561071395874
13	86.4909279346466	pulse	1	t		11.0	2.5	/experiments/AOT/AOT_stimuli/rescaled_final/1839_rv.mp4	0.0	114.00712490081787	
13	88.0912389755249	pulse	1	t		11.0	2.5	/experiments/AOT/AOT_stimuli/rescaled_final/1839_rv.mp4	0.0	115.60743594169617	
13	88.60733604431152	fix_post	2		12	11.0	2.5	/experiments/AOT/AOT_stimuli/rescaled_final/1839_rv.mp4	0.0	116.12353301048279	0.10048794746398926
14	88.70782399177551	fix_pre	0		119	12.0	2.5	/experiments/AOT/AOT_stimuli/rescaled_final/0936_fw.mp4	0.0	116.22402095794678	0.9916040897369385
14	89.69133496284485	pulse	0	t		12.0	2.5	/experiments/AOT/AOT_stimuli/rescaled_final/0936_fw.mp4	0.0	117.20753192901611	
14	89.69942808151245	movie	1		246	12.0	2.5	/experiments/AOT/AOT_stimuli/rescaled_final/0936_fw.mp4	0.0	117.21562504768372	2.5083959102630615
14	91.29121613502502	pulse	1	t		12.0	2.5	/experiments/AOT/AOT_stimuli/rescaled_final/0936_fw.mp4	0.0	118.80741310119629	
14	92.20782399177551	fix_post	2		12	12.0	2.5	/experiments/AOT/AOT_stimuli/rescaled_final/0936_fw.mp4	0.0	119.72402095794678	0.0999600887298584
15	92.30778408050537	fix_pre	0		120	13.0	2.5	blank	1.0	119.82398104667664	0.9999878406524658
15	92.89125299453735	pulse	0	t		13.0	2.5	blank	1.0	120.40744996070862	
15	93.30777192115784	movie	1		300	13.0	2.5	blank	1.0	120.8239688873291	2.499603033065796
15	94.49123692512512	pulse	1	t		13.0	2.5	blank	1.0	122.00743389129639	
15	95.80737495422363	fix_post	2		12	13.0	2.5	blank	1.0	123.3235719203949	0.10047602653503418
16	95.90785098075867	fix_pre	0		120	14.0	2.5	/experiments/AOT/AOT_stimuli/rescaled_final/0878_rv.mp4	0.0	123.42404794692993	0.999906063079834
16	96.09126806259155	pulse	0	t		14.0	2.5	/experiments/AOT/AOT_stimuli/rescaled_final/0878_rv.mp4	0.0	123.60746502876282	
16	96.9077570438385	movie	1		244	14.0	2.5	/experiments/AOT/AOT_stimuli/rescaled_final/0878_rv.mp4	0.0	124.42395401000977	2.4998669624328613
16	97.69122004508972	pulse	1	t		14.0	2.5	/experiments/AOT/AOT_stimuli/rescaled_final/0878_rv.mp4	0.0	125.20741701126099	
16	99.28973197937012	pulse	1	t		14.0	2.5	/experiments/AOT/AOT_stimuli/rescaled_final/0878_rv.mp4	0.0	126.80592894554138	
16	99.40762400627136	fix_post	2		12	14.0	2.5	/experiments/AOT/AOT_stimuli/rescaled_final/0878_rv.mp4	0.0	126.92382097244263	0.10013413429260254
17	99.50775814056396	fix_pre	0		120	15.0	2.5	/experiments/AOT/AOT_stimuli/rescaled_final/1047_fw.mp4	0.0	127.02395510673523	0.9998857975006104
17	100.50764393806458	movie	1		243	15.0	2.5	/experiments/AOT/AOT_stimuli/rescaled_final/1047_fw.mp4	0.0	128.02384090423584	2.5000131130218506
17	100.89140796661377	pulse	1	t		15.0	2.5	/experiments/AOT/AOT_stimuli/rescaled_final/1047_fw.mp4	0.0	128.40760493278503	
17	102.49113702774048	pulse	1	t		15.0	2.5	/experiments/AOT/AOT_stimuli/rescaled_final/1047_fw.mp4	0.0	130.00733399391174	
17	103.00765705108643	fix_post	2		12	15.0	2.5	/experiments/AOT/AOT_stimuli/rescaled_final/1047_fw.mp4	0.0	130.5238540172577	0.10007786750793457
18	103.10773491859436	fix_pre	0		119	16.0	2.5	/experiments/AOT/AOT_stimuli/rescaled_final/2000_fw.mp4	0.0	130.62393188476562	0.9916391372680664
18	104.09127807617188	pulse	0	t		16.0	2.5	/experiments/AOT/AOT_stimuli/rescaled_final/2000_fw.mp4	0.0	131.60747504234314	
18	104.09937405586243	movie	1		244	16.0	2.5	/experiments/AOT/AOT_stimuli/rescaled_final/2000_fw.mp4	0.0	131.6155710220337	2.5083060264587402
18	105.69077610969543	pulse	1	t		16.0	2.5	/experiments/AOT/AOT_stimuli/rescaled_final/2000_fw.mp4	0.0	133.2069730758667	
18	106.60768008232117	fix_post	2		12	16.0	2.5	/experiments/AOT/AOT_stimuli/rescaled_final/2000_fw.mp4	0.0	134.12387704849243	0.10006499290466309
19	106.70774507522583	fix_pre	0		120	17.0	2.5	/experiments/AOT/AOT_stimuli/rescaled_final/0392_fw.mp4	0.0	134.2239420413971	0.9999680519104004
19	107.29122400283813	pulse	0	t		17.0	2.5	/experiments/AOT/AOT_stimuli/rescaled_final/0392_fw.mp4	0.0	134.8074209690094	
19	107.70771312713623	movie	1		243	17.0	2.5	/experiments/AOT/AOT_stimuli/rescaled_final/0392_fw.mp4	0.0	135.2239100933075	2.5000228881835938
19	108.89125800132751	pulse	1	t		17.0	2.5	/experiments/AOT/AOT_stimuli/rescaled_final/0392_fw.mp4	0.0	136.40745496749878	
19	110.20773601531982	fix_post	2		12	17.0	2.5	/experiments/AOT/AOT_stimuli/rescaled_final/0392_fw.mp4	0.0	137.7239329814911	0.09994912147521973
20	110.30768513679504	fix_pre	0		120	18.0	2.5	/experiments/AOT/AOT_stimuli/rescaled_final/1217_fw.mp4	0.0	137.8238821029663	1.0000159740447998
20	110.49112296104431	pulse	0	t		18.0	2.5	/experiments/AOT/AOT_stimuli/rescaled_final/1217_fw.mp4	0.0	138.00731992721558	
20	111.30770111083984	movie	1		243	18.0	2.5	/experiments/AOT/AOT_stimuli/rescaled_final/1217_fw.mp4	0.0	138.8238980770111	2.4999828338623047
20	112.09121799468994	pulse	1	t		18.0	2.5	/experiments/AOT/AOT_stimuli/rescaled_final/1217_fw.mp4	0.0	139.6074149608612	
20	113.6894679069519	pulse	1	t		18.0	2.5	/experiments/AOT/AOT_stimuli/rescaled_final/1217_fw.mp4	0.0	141.20566487312317	
20	113.80768394470215	fix_post	2		12	18.0	2.5	/experiments/AOT/AOT_stimuli/rescaled_final/1217_fw.mp4	0.0	141.3238809108734	0.10004496574401855
21	113.90772891044617	fix_pre	0		120	19.0	2.5	/experiments/AOT/AOT_stimuli/rescaled_final/1819_fw.mp4	0.0	141.42392587661743	0.9999091625213623
21	114.90763807296753	movie	1		244	19.0	2.5	/experiments/AOT/AOT_stimuli/rescaled_final/1819_fw.mp4	0.0	142.4238350391388	2.50002384185791
21	115.29050302505493	pulse	1	t		19.0	2.5	/experiments/AOT/AOT_stimuli/rescaled_final/1819_fw.mp4	0.0	142.8066999912262	
21	116.89121603965759	pulse	1	t		19.0	2.5	/experiments/AOT/AOT_stimuli/rescaled_final/1819_fw.mp4	0.0	144.40741300582886	
21	117.40766191482544	fix_post	2		12	19.0	2.5	/experiments/AOT/AOT_stimuli/rescaled_final/1819_fw.mp4	0.0	144.9238588809967	0.09999608993530273
22	117.50765800476074	fix_pre	0		119	20.0	2.5	blank	1.0	145.023854970932	0.9915900230407715
22	118.49111795425415	pulse	0	t		20.0	2.5	blank	1.0	146.00731492042542	
22	118.49924802780151	movie	1		301	20.0	2.5	blank	1.0	146.01544499397278	2.5080299377441406
22	120.09116506576538	pulse	1	t		20.0	2.5	blank	1.0	147.60736203193665	
22	121.00727796554565	fix_post	2		12	20.0	2.5	blank	1.0	148.52347493171692	0.10034608840942383
23	121.10762405395508	fix_pre	0		120	21.0	2.5	/experiments/AOT/AOT_stimuli/rescaled_final/1344_fw.mp4	0.0	148.62382102012634	1.0000200271606445
23	121.69115900993347	pulse	0	t		21.0	2.5	/experiments/AOT/AOT_stimuli/rescaled_final/1344_fw.mp4	0.0	149.20735597610474	
23	122.10764408111572	movie	1		245	21.0	2.5	/experiments/AOT/AOT_stimuli/rescaled_final/1344_fw.mp4	0.0	149.623841047287	2.499605894088745
23	123.29116702079773	pulse	1	t		21.0	2.5	/experiments/AOT/AOT_stimuli/rescaled_final/1344_fw.mp4	0.0	150.807363986969	
23	124.60724997520447	fix_post	2		12	21.0	2.5	/experiments/AOT/AOT_stimuli/rescaled_final/1344_fw.mp4	0.0	152.12344694137573	0.10041594505310059
24	124.70766592025757	fix_pre	0		120	22.0	2.5	/experiments/AOT/AOT_stimuli/rescaled_final/2110_rv.mp4	0.0	152.22386288642883	0.999744176864624
24	124.89122009277344	pulse	0	t		22.0	2.5	/experiments/AOT/AOT_stimuli/rescaled_final/2110_rv.mp4	0.0	152.4074170589447	
24	125.70741009712219	movie	1		245	22.0	2.5	/experiments/AOT/AOT_stimuli/rescaled_final/2110_rv.mp4	0.0	153.22360706329346	2.5002329349517822
24	126.49087905883789	pulse	1	t		22.0	2.5	/experiments/AOT/AOT_stimuli/rescaled_final/2110_rv.mp4	0.0	154.00707602500916	
24	128.08710098266602	pulse	1	t		22.0	2.5	/experiments/AOT/AOT_stimuli/rescaled_final/2110_rv.mp4	0.0	155.60329794883728	
24	128.20764303207397	fix_post	2		12	22.0	2.5	/experiments/AOT/AOT_stimuli/rescaled_final/2110_rv.mp4	0.0	155.72383999824524	0.100006103515625
25	128.3076491355896	fix_pre	0		120	23.0	2.5	/experiments/AOT/AOT_stimuli/rescaled_final/0746_rv.mp4	0.0	155.82384610176086	1.0000059604644775
25	129.30765509605408	movie	1		244	23.0	2.5	/experiments/AOT/AOT_stimuli/rescaled_final/0746_rv.mp4	0.0	156.82385206222534	2.49947190284729
25	129.6920130252838	pulse	1	t		23.0	2.5	/experiments/AOT/AOT_stimuli/rescaled_final/0746_rv.mp4	0.0	157.20820999145508	
25	131.29099893569946	pulse	1	t		23.0	2.5	/experiments/AOT/AOT_stimuli/rescaled_final/0746_rv.mp4	0.0	158.80719590187073	
25	131.80712699890137	fix_post	2		12	23.0	2.5	/experiments/AOT/AOT_stimuli/rescaled_final/0746_rv.mp4	0.0	159.32332396507263	0.10044503211975098
26	131.90757203102112	fix_pre	0		119	24.0	2.5	/experiments/AOT/AOT_stimuli/rescaled_final/1676_fw.mp4	0.0	159.42376899719238	0.991602897644043
26	132.8910529613495	pulse	0	t		24.0	2.5	/experiments/AOT/AOT_stimuli/rescaled_final/1676_fw.mp4	0.0	160.40724992752075	
26	132.89917492866516	movie	1		245	24.0	2.5	/experiments/AOT/AOT_stimuli/rescaled_final/1676_fw.mp4	0.0	160.41537189483643	2.5083401203155518
26	134.49087691307068	pulse	1	t		24.0	2.5	/experiments/AOT/AOT_stimuli/rescaled_final/1676_fw.mp4	0.0	162.00707387924194	
26	135.4075150489807	fix_post	2		12	24.0	2.5	/experiments/AOT/AOT_stimuli/rescaled_final/1676_fw.mp4	0.0	162.92371201515198	0.10006308555603027
27	135.50757813453674	fix_pre	0		120	25.0	2.5	/experiments/AOT/AOT_stimuli/rescaled_final/1544_rv.mp4	0.0	163.023775100708	1.0000009536743164
27	136.09104013442993	pulse	0	t		25.0	2.5	/experiments/AOT/AOT_stimuli/rescaled_final/1544_rv.mp4	0.0	163.6072371006012	
27	136.50757908821106	movie	1		246	25.0	2.5	/experiments/AOT/AOT_stimuli/rescaled_final/1544_rv.mp4	0.0	164.02377605438232	2.5000648498535156
27	137.69118809700012	pulse	1	t		25.0	2.5	/experiments/AOT/AOT_stimuli/rescaled_final/1544_rv.mp4	0.0	165.2073850631714	
27	139.00764393806458	fix_post	2		12	25.0	2.5	/experiments/AOT/AOT_stimuli/rescaled_final/1544_rv.mp4	0.0	166.52384090423584	0.09990215301513672
28	139.1075460910797	fix_pre	0		120	26.0	2.5	/experiments/AOT/AOT_stimuli/rescaled_final/0513_rv.mp4	0.0	166.62374305725098	1.000044822692871
28	139.2910599708557	pulse	0	t		26.0	2.5	/experiments/AOT/AOT_stimuli/rescaled_final/0513_rv.mp4	0.0	166.80725693702698	
28	140.10759091377258	movie	1		246	26.0	2.5	/experiments/AOT/AOT_stimuli/rescaled_final/0513_rv.mp4	0.0	167.62378787994385	2.4995181560516357
28	140.89099407196045	pulse	1	t		26.0	2.5	/experiments/AOT/AOT_stimuli/rescaled_final/0513_rv.mp4	0.0	168.4071910381317	
28	142.48946595191956	pulse	1	t		26.0	2.5	/experiments/AOT/AOT_stimuli/rescaled_final/0513_rv.mp4	0.0	170.00566291809082	
28	142.60710906982422	fix_post	2		12	26.0	2.5	/experiments/AOT/AOT_stimuli/rescaled_final/0513_rv.mp4	0.0	170.12330603599548	0.10034990310668945
29	142.7074589729309	fix_pre	0		120	27.0	2.5	/experiments/AOT/AOT_stimuli/rescaled_final/0922_rv.mp4	0.0	170.22365593910217	1.0001020431518555
29	143.70756101608276	movie	1		246	27.0	2.5	/experiments/AOT/AOT_stimuli/rescaled_final/0922_rv.mp4	0.0	171.22375798225403	2.499882936477661
29	144.09075713157654	pulse	1	t		27.0	2.5	/experiments/AOT/AOT_stimuli/rescaled_final/0922_rv.mp4	0.0	171.6069540977478	
29	145.69101095199585	pulse	1	t		27.0	2.5	/experiments/AOT/AOT_stimuli/rescaled_final/0922_rv.mp4	0.0	173.20720791816711	
29	146.20744395256042	fix_post	2		12	27.0	2.5	/experiments/AOT/AOT_stimuli/rescaled_final/0922_rv.mp4	0.0	173.7236409187317	0.10009217262268066
30	146.3075361251831	fix_pre	0		119	28.0	2.5	blank	1.0	173.82373309135437	0.9916079044342041
30	147.29102396965027	pulse	0	t		28.0	2.5	blank	1.0	174.80722093582153	
30	147.2991440296173	movie	1		301	28.0	2.5	blank	1.0	174.81534099578857	2.5083060264587402
30	148.8909730911255	pulse	1	t		28.0	2.5	blank	1.0	176.40717005729675	
30	149.80745005607605	fix_post	2		12	28.0	2.5	blank	1.0	177.32364702224731	0.09998297691345215
31	149.9074330329895	fix_pre	0		120	29.0	2.5	/experiments/AOT/AOT_stimuli/rescaled_final/1085_fw.mp4	0.0	177.42362999916077	0.999614953994751
31	150.49096202850342	pulse	0	t		29.0	2.5	/experiments/AOT/AOT_stimuli/rescaled_final/1085_fw.mp4	0.0	178.00715899467468	
31	150.90704798698425	movie	1		243	29.0	2.5	/experiments/AOT/AOT_stimuli/rescaled_final/1085_fw.mp4	0.0	178.42324495315552	2.5000340938568115
31	152.09104299545288	pulse	1	t		29.0	2.5	/experiments/AOT/AOT_stimuli/rescaled_final/1085_fw.mp4	0.0	179.60723996162415	
31	153.40708208084106	fix_post	2		12	29.0	2.5	/experiments/AOT/AOT_stimuli/rescaled_final/1085_fw.mp4	0.0	180.92327904701233	0.10037088394165039
32	153.50745296478271	fix_pre	0		120	30.0	2.5	/experiments/AOT/AOT_stimuli/rescaled_final/1713_fw.mp4	0.0	181.02364993095398	1.0000989437103271
32	153.69094395637512	pulse	0	t		30.0	2.5	/experiments/AOT/AOT_stimuli/rescaled_final/1713_fw.mp4	0.0	181.2071409225464	
32	154.50755190849304	movie	1		244	30.0	2.5	/experiments/AOT/AOT_stimuli/rescaled_final/1713_fw.mp4	0.0	182.0237488746643	2.49944806098938
32	155.29093599319458	pulse	1	t		30.0	2.5	/experiments/AOT/AOT_stimuli/rescaled_final/1713_fw.mp4	0.0	182.80713295936584	
32	156.88919305801392	pulse	1	t		30.0	2.5	/experiments/AOT/AOT_stimuli/rescaled_final/1713_fw.mp4	0.0	184.40539002418518	
32	157.00699996948242	fix_post	2		12	30.0	2.5	/experiments/AOT/AOT_stimuli/rescaled_final/1713_fw.mp4	0.0	184.5231969356537	0.10000014305114746
33	157.10700011253357	fix_pre	0		120	31.0	2.5	/experiments/AOT/AOT_stimuli/rescaled_final/0228_rv.mp4	0.0	184.62319707870483	1.0004098415374756
33	158.10740995407104	movie	1		244	31.0	2.5	/experiments/AOT/AOT_stimuli/rescaled_final/0228_rv.mp4	0.0	185.6236069202423	2.4999961853027344
33	158.49102997779846	pulse	1	t		31.0	2.5	/experiments/AOT/AOT_stimuli/rescaled_final/0228_rv.mp4	0.0	186.00722694396973	
33	160.09095096588135	pulse	1	t		31.0	2.5	/experiments/AOT/AOT_stimuli/rescaled_final/0228_rv.mp4	0.0	187.6071479320526	
33	160.60740613937378	fix_post	2		12	31.0	2.5	/experiments/AOT/AOT_stimuli/rescaled_final/0228_rv.mp4	0.0	188.12360310554504	0.10013294219970703
34	160.7075390815735	fix_pre	0		119	32.0	2.5	/experiments/AOT/AOT_stimuli/rescaled_final/0518_fw.mp4	0.0	188.22373604774475	0.9915318489074707
34	161.69094491004944	pulse	0	t		32.0	2.5	/experiments/AOT/AOT_stimuli/rescaled_final/0518_fw.mp4	0.0	189.2071418762207	
34	161.69907093048096	movie	1		247	32.0	2.5	/experiments/AOT/AOT_stimuli/rescaled_final/0518_fw.mp4	0.0	189.21526789665222	2.508334159851074
34	163.29051303863525	pulse	1	t		32.0	2.5	/experiments/AOT/AOT_stimuli/rescaled_final/0518_fw.mp4	0.0	190.80671000480652	
34	164.20740509033203	fix_post	2		12	32.0	2.5	/experiments/AOT/AOT_stimuli/rescaled_final/0518_fw.mp4	0.0	191.7236020565033	0.09996604919433594
35	164.30737113952637	fix_pre	0		120	33.0	2.5	/experiments/AOT/AOT_stimuli/rescaled_final/0240_rv.mp4	0.0	191.82356810569763	1.0001029968261719
35	164.89095997810364	pulse	0	t		33.0	2.5	/experiments/AOT/AOT_stimuli/rescaled_final/0240_rv.mp4	0.0	192.4071569442749	
35	165.30747413635254	movie	1		244	33.0	2.5	/experiments/AOT/AOT_stimuli/rescaled_final/0240_rv.mp4	0.0	192.8236711025238	2.4995458126068115
35	166.49106693267822	pulse	1	t		33.0	2.5	/experiments/AOT/AOT_stimuli/rescaled_final/0240_rv.mp4	0.0	194.0072638988495	
35	167.80701994895935	fix_post	2		12	33.0	2.5	/experiments/AOT/AOT_stimuli/rescaled_final/0240_rv.mp4	0.0	195.32321691513062	0.10031604766845703
36	167.9073359966278	fix_pre	0		120	34.0	2.5	/experiments/AOT/AOT_stimuli/rescaled_final/1061_rv.mp4	0.0	195.42353296279907	1.000072956085205
36	168.09093499183655	pulse	0	t		34.0	2.5	/experiments/AOT/AOT_stimuli/rescaled_final/1061_rv.mp4	0.0	195.6071319580078	
36	168.907408952713	movie	1		245	34.0	2.5	/experiments/AOT/AOT_stimuli/rescaled_final/1061_rv.mp4	0.0	196.42360591888428	2.4999141693115234
36	169.6910479068756	pulse	1	t		34.0	2.5	/experiments/AOT/AOT_stimuli/rescaled_final/1061_rv.mp4	0.0	197.20724487304688	
36	171.28943395614624	pulse	1	t		34.0	2.5	/experiments/AOT/AOT_stimuli/rescaled_final/1061_rv.mp4	0.0	198.8056309223175	
36	171.40732312202454	fix_post	2		12	34.0	2.5	/experiments/AOT/AOT_stimuli/rescaled_final/1061_rv.mp4	0.0	198.9235200881958	0.10006093978881836
37	171.50738406181335	fix_pre	0		120	35.0	2.5	blank	1.0	199.02358102798462	1.000014066696167
37	172.50739812850952	movie	1		300	35.0	2.5	blank	1.0	200.0235950946808	2.4999959468841553
37	172.89085006713867	pulse	1	t		35.0	2.5	blank	1.0	200.40704703330994	
37	174.49086594581604	pulse	1	t		35.0	2.5	blank	1.0	202.0070629119873	
37	175.00739407539368	fix_post	2		12	35.0	2.5	blank	1.0	202.52359104156494	0.09999489784240723
38	175.10738897323608	fix_pre	0		119	36.0	2.5	/experiments/AOT/AOT_stimuli/rescaled_final/0379_fw.mp4	0.0	202.62358593940735	0.9915800094604492
38	176.09088802337646	pulse	0	t		36.0	2.5	/experiments/AOT/AOT_stimuli/rescaled_final/0379_fw.mp4	0.0	203.60708498954773	
38	176.09896898269653	movie	1		244	36.0	2.5	/experiments/AOT/AOT_stimuli/rescaled_final/0379_fw.mp4	0.0	203.6151659488678	2.5084099769592285
38	177.69088411331177	pulse	1	t		36.0	2.5	/experiments/AOT/AOT_stimuli/rescaled_final/0379_fw.mp4	0.0	205.20708107948303	
38	178.60737895965576	fix_post	2		12	36.0	2.5	/experiments/AOT/AOT_stimuli/rescaled_final/0379_fw.mp4	0.0	206.12357592582703	0.09996509552001953
39	178.70734405517578	fix_pre	0		120	37.0	2.5	/experiments/AOT/AOT_stimuli/rescaled_final/0868_rv.mp4	0.0	206.22354102134705	0.9999940395355225
39	179.29042196273804	pulse	0	t		37.0	2.5	/experiments/AOT/AOT_stimuli/rescaled_final/0868_rv.mp4	0.0	206.8066189289093	
39	179.7073380947113	movie	1		245	37.0	2.5	/experiments/AOT/AOT_stimuli/rescaled_final/0868_rv.mp4	0.0	207.22353506088257	2.500239849090576
39	180.8905200958252	pulse	1	t		37.0	2.5	/experiments/AOT/AOT_stimuli/rescaled_final/0868_rv.mp4	0.0	208.40671706199646	
39	182.20757794380188	fix_post	2		12	37.0	2.5	/experiments/AOT/AOT_stimuli/rescaled_final/0868_rv.mp4	0.0	209.72377490997314	0.09961104393005371
40	182.30718898773193	fix_pre	0		120	38.0	2.5	/experiments/AOT/AOT_stimuli/rescaled_final/1706_rv.mp4	0.0	209.8233859539032	1.0001239776611328
40	182.490709066391	pulse	0	t		38.0	2.5	/experiments/AOT/AOT_stimuli/rescaled_final/1706_rv.mp4	0.0	210.00690603256226	
40	183.30731296539307	movie	1		244	38.0	2.5	/experiments/AOT/AOT_stimuli/rescaled_final/1706_rv.mp4	0.0	210.82350993156433	2.5000641345977783
40	184.09074091911316	pulse	1	t		38.0	2.5	/experiments/AOT/AOT_stimuli/rescaled_final/1706_rv.mp4	0.0	211.60693788528442	
40	185.6893949508667	pulse	1	t		38.0	2.5	/experiments/AOT/AOT_stimuli/rescaled_final/1706_rv.mp4	0.0	213.20559191703796	
40	185.80737709999084	fix_post	2		12	38.0	2.5	/experiments/AOT/AOT_stimuli/rescaled_final/1706_rv.mp4	0.0	213.3235740661621	0.0999448299407959
41	185.90732192993164	fix_pre	0		120	39.0	2.5	/experiments/AOT/AOT_stimuli/rescaled_final/0406_fw.mp4	0.0	213.4235188961029	0.9999401569366455
41	186.9072620868683	movie	1		245	39.0	2.5	/experiments/AOT/AOT_stimuli/rescaled_final/0406_fw.mp4	0.0	214.42345905303955	2.4996209144592285
41	187.2904031276703	pulse	1	t		39.0	2.5	/experiments/AOT/AOT_stimuli/rescaled_final/0406_fw.mp4	0.0	214.80660009384155	
41	188.89075708389282	pulse	1	t		39.0	2.5	/experiments/AOT/AOT_stimuli/rescaled_final/0406_fw.mp4	0.0	216.4069540500641	
41	189.40688300132751	fix_post	2		12	39.0	2.5	/experiments/AOT/AOT_stimuli/rescaled_final/0406_fw.mp4	0.0	216.92307996749878	0.10038399696350098
42	189.50726699829102	fix_pre	0		119	40.0	2.5	blank	1.0	217.02346396446228	0.9916930198669434
42	190.49079513549805	pulse	0	t		40.0	2.5	blank	1.0	218.0069921016693	
42	190.49896001815796	movie	1		301	40.0	2.5	blank	1.0	218.01515698432922	2.507863998413086
42	192.09069514274597	pulse	1	t		40.0	2.5	blank	1.0	219.60689210891724	
42	193.00682401657104	fix_post	2		12	40.0	2.5	blank	1.0	220.5230209827423	0.10041689872741699
43	193.10724091529846	fix_pre	0		120	41.0	2.5	/experiments/AOT/AOT_stimuli/rescaled_final/1170_fw.mp4	0.0	220.62343788146973	0.9999971389770508
43	193.69074296951294	pulse	0	t		41.0	2.5	/experiments/AOT/AOT_stimuli/rescaled_final/1170_fw.mp4	0.0	221.2069399356842	
43	194.1072380542755	movie	1		243	41.0	2.5	/experiments/AOT/AOT_stimuli/rescaled_final/1170_fw.mp4	0.0	221.62343502044678	2.4996070861816406
43	195.2908170223236	pulse	1	t		41.0	2.5	/experiments/AOT/AOT_stimuli/rescaled_final/1170_fw.mp4	0.0	222.80701398849487	
43	196.60684514045715	fix_post	2		12	41.0	2.5	/experiments/AOT/AOT_stimuli/rescaled_final/1170_fw.mp4	0.0	224.12304210662842	0.10036683082580566
44	196.70721197128296	fix_pre	0		120	42.0	2.5	/experiments/AOT/AOT_stimuli/rescaled_final/0195_rv.mp4	0.0	224.22340893745422	1.0000050067901611
44	196.89081406593323	pulse	0	t		42.0	2.5	/experiments/AOT/AOT_stimuli/rescaled_final/0195_rv.mp4	0.0	224.4070110321045	
44	197.70721697807312	movie	1		245	42.0	2.5	/experiments/AOT/AOT_stimuli/rescaled_final/0195_rv.mp4	0.0	225.22341394424438	2.4995369911193848
44	198.49082112312317	pulse	1	t		42.0	2.5	/experiments/AOT/AOT_stimuli/rescaled_final/0195_rv.mp4	0.0	226.00701808929443	
44	200.0890760421753	pulse	1	t		42.0	2.5	/experiments/AOT/AOT_stimuli/rescaled_final/0195_rv.mp4	0.0	227.60527300834656	
44	200.2067539691925	fix_post	2		12	42.0	2.5	/experiments/AOT/AOT_stimuli/rescaled_final/0195_rv.mp4	0.0	227.72295093536377	0.1004331111907959
45	200.3071870803833	fix_pre	0		120	43.0	2.5	/experiments/AOT/AOT_stimuli/rescaled_final/1798_fw.mp4	0.0	227.82338404655457	0.9995808601379395
45	201.30676794052124	movie	1		244	43.0	2.5	/experiments/AOT/AOT_stimuli/rescaled_final/1798_fw.mp4	0.0	228.8229649066925	2.500434160232544
45	201.6917679309845	pulse	1	t		43.0	2.5	/experiments/AOT/AOT_stimuli/rescaled_final/1798_fw.mp4	0.0	229.20796489715576	
45	203.29073405265808	pulse	1	t		43.0	2.5	/experiments/AOT/AOT_stimuli/rescaled_final/1798_fw.mp4	0.0	230.80693101882935	
45	203.80720210075378	fix_post	2		12	43.0	2.5	/experiments/AOT/AOT_stimuli/rescaled_final/1798_fw.mp4	0.0	231.32339906692505	0.09998583793640137
46	203.90718793869019	fix_pre	0		119	44.0	2.5	/experiments/AOT/AOT_stimuli/rescaled_final/0151_fw.mp4	0.0	231.42338490486145	0.9916360378265381
46	204.89076209068298	pulse	0	t		44.0	2.5	/experiments/AOT/AOT_stimuli/rescaled_final/0151_fw.mp4	0.0	232.40695905685425	
46	204.89882397651672	movie	1		245	44.0	2.5	/experiments/AOT/AOT_stimuli/rescaled_final/0151_fw.mp4	0.0	232.415020942688	2.5084969997406006
46	206.4903540611267	pulse	1	t		44.0	2.5	/experiments/AOT/AOT_stimuli/rescaled_final/0151_fw.mp4	0.0	234.00655102729797	
46	207.40732097625732	fix_post	2		12	44.0	2.5	/experiments/AOT/AOT_stimuli/rescaled_final/0151_fw.mp4	0.0	234.9235179424286	0.0998680591583252
47	207.50718903541565	fix_pre	0		120	45.0	2.5	/experiments/AOT/AOT_stimuli/rescaled_final/0981_fw.mp4	0.0	235.0233860015869	0.999945878982544
47	208.0907530784607	pulse	0	t		45.0	2.5	/experiments/AOT/AOT_stimuli/rescaled_final/0981_fw.mp4	0.0	235.60695004463196	
47	208.5071349143982	movie	1		245	45.0	2.5	/experiments/AOT/AOT_stimuli/rescaled_final/0981_fw.mp4	0.0	236.02333188056946	2.5000720024108887
47	209.6907639503479	pulse	1	t		45.0	2.5	/experiments/AOT/AOT_stimuli/rescaled_final/0981_fw.mp4	0.0	237.20696091651917	
47	211.00720691680908	fix_post	2		12	45.0	2.5	/experiments/AOT/AOT_stimuli/rescaled_final/0981_fw.mp4	0.0	238.52340388298035	0.10012412071228027
48	211.10733103752136	fix_pre	0		120	46.0	2.5	/experiments/AOT/AOT_stimuli/rescaled_final/1345_rv.mp4	0.0	238.62352800369263	0.9998350143432617
48	211.29064011573792	pulse	0	t		46.0	2.5	/experiments/AOT/AOT_stimuli/rescaled_final/1345_rv.mp4	0.0	238.80683708190918	
48	212.10716605186462	movie	1		243	46.0	2.5	/experiments/AOT/AOT_stimuli/rescaled_final/1345_rv.mp4	0.0	239.6233630180359	2.50004506111145
48	212.89061093330383	pulse	1	t		46.0	2.5	/experiments/AOT/AOT_stimuli/rescaled_final/1345_rv.mp4	0.0	240.4068078994751	
48	214.48920893669128	pulse	1	t		46.0	2.5	/experiments/AOT/AOT_stimuli/rescaled_final/1345_rv.mp4	0.0	242.00540590286255	
48	214.60721111297607	fix_post	2		12	46.0	2.5	/experiments/AOT/AOT_stimuli/rescaled_final/1345_rv.mp4	0.0	242.12340807914734	0.09990286827087402
49	214.70711398124695	fix_pre	0		120	47.0	2.5	/experiments/AOT/AOT_stimuli/rescaled_final/0748_fw.mp4	0.0	242.2233109474182	1.0000851154327393
49	215.7071990966797	movie	1		245	47.0	2.5	/experiments/AOT/AOT_stimuli/rescaled_final/0748_fw.mp4	0.0	243.22339606285095	2.4995498657226562
49	216.09078097343445	pulse	1	t		47.0	2.5	/experiments/AOT/AOT_stimuli/rescaled_final/0748_fw.mp4	0.0	243.6069779396057	
49	217.690819978714	pulse	1	t		47.0	2.5	/experiments/AOT/AOT_stimuli/rescaled_final/0748_fw.mp4	0.0	245.20701694488525	
49	218.20674896240234	fix_post	2		12	47.0	2.5	/experiments/AOT/AOT_stimuli/rescaled_final/0748_fw.mp4	0.0	245.7229459285736	0.10039401054382324
50	218.30714297294617	fix_pre	0		119	48.0	2.5	blank	1.0	245.82333993911743	0.9916801452636719
50	219.29069709777832	pulse	0	t		48.0	2.5	blank	1.0	246.80689406394958	
50	219.29882311820984	movie	1		301	48.0	2.5	blank	1.0	246.8150200843811	2.5082969665527344
50	220.89069199562073	pulse	1	t		48.0	2.5	blank	1.0	248.406888961792	
50	221.80712008476257	fix_post	2		12	48.0	2.5	blank	1.0	249.32331705093384	0.10001802444458008
51	221.90713810920715	fix_pre	0		120	49.0	2.5	/experiments/AOT/AOT_stimuli/rescaled_final/1627_fw.mp4	0.0	249.42333507537842	1.0000410079956055
51	222.49061393737793	pulse	0	t		49.0	2.5	/experiments/AOT/AOT_stimuli/rescaled_final/1627_fw.mp4	0.0	250.0068109035492	
51	222.90717911720276	movie	1		242	49.0	2.5	/experiments/AOT/AOT_stimuli/rescaled_final/1627_fw.mp4	0.0	250.42337608337402	2.50014591217041
51	224.09064602851868	pulse	1	t		49.0	2.5	/experiments/AOT/AOT_stimuli/rescaled_final/1627_fw.mp4	0.0	251.60684299468994	
51	225.40732502937317	fix_post	2		12	49.0	2.5	/experiments/AOT/AOT_stimuli/rescaled_final/1627_fw.mp4	0.0	252.92352199554443	0.09977197647094727
52	225.50709700584412	fix_pre	0		120	50.0	2.5	/experiments/AOT/AOT_stimuli/rescaled_final/0579_fw.mp4	0.0	253.02329397201538	1.0000529289245605
52	225.69063591957092	pulse	0	t		50.0	2.5	/experiments/AOT/AOT_stimuli/rescaled_final/0579_fw.mp4	0.0	253.2068328857422	
52	226.50714993476868	movie	1		242	50.0	2.5	/experiments/AOT/AOT_stimuli/rescaled_final/0579_fw.mp4	0.0	254.02334690093994	2.4999630451202393
52	227.29060912132263	pulse	1	t		50.0	2.5	/experiments/AOT/AOT_stimuli/rescaled_final/0579_fw.mp4	0.0	254.8068060874939	
52	228.8892159461975	pulse	1	t		50.0	2.5	/experiments/AOT/AOT_stimuli/rescaled_final/0579_fw.mp4	0.0	256.4054129123688	
52	229.00711297988892	fix_post	2		12	50.0	2.5	/experiments/AOT/AOT_stimuli/rescaled_final/0579_fw.mp4	0.0	256.5233099460602	0.09996414184570312
53	229.10707712173462	fix_pre	0		120	51.0	2.5	/experiments/AOT/AOT_stimuli/rescaled_final/0710_fw.mp4	0.0	256.6232740879059	1.000006914138794
53	230.1070840358734	movie	1		245	51.0	2.5	/experiments/AOT/AOT_stimuli/rescaled_final/0710_fw.mp4	0.0	257.6232810020447	2.5000360012054443
53	230.49048399925232	pulse	1	t		51.0	2.5	/experiments/AOT/AOT_stimuli/rescaled_final/0710_fw.mp4	0.0	258.0066809654236	
53	232.09065914154053	pulse	1	t		51.0	2.5	/experiments/AOT/AOT_stimuli/rescaled_final/0710_fw.mp4	0.0	259.6068561077118	
53	232.60712003707886	fix_post	2		12	51.0	2.5	/experiments/AOT/AOT_stimuli/rescaled_final/0710_fw.mp4	0.0	260.1233170032501	0.0999300479888916
54	232.70705008506775	fix_pre	0		119	52.0	2.5	/experiments/AOT/AOT_stimuli/rescaled_final/0736_fw.mp4	0.0	260.223247051239	0.9916698932647705
54	233.6906659603119	pulse	0	t		52.0	2.5	/experiments/AOT/AOT_stimuli/rescaled_final/0736_fw.mp4	0.0	261.20686292648315	
54	233.69871997833252	movie	1		246	52.0	2.5	/experiments/AOT/AOT_stimuli/rescaled_final/0736_fw.mp4	0.0	261.2149169445038	2.5086381435394287
54	235.2896909713745	pulse	1	t		52.0	2.5	/experiments/AOT/AOT_stimuli/rescaled_final/0736_fw.mp4	0.0	262.8058879375458	
54	236.20735812187195	fix_post	2		12	52.0	2.5	/experiments/AOT/AOT_stimuli/rescaled_final/0736_fw.mp4	0.0	263.7235550880432	0.09943985939025879
55	236.3067979812622	fix_pre	0		120	53.0	2.5	/experiments/AOT/AOT_stimuli/rescaled_final/1808_fw.mp4	0.0	263.8229949474335	1.000420093536377
55	236.89029908180237	pulse	0	t		53.0	2.5	/experiments/AOT/AOT_stimuli/rescaled_final/1808_fw.mp4	0.0	264.40649604797363	
55	237.30721807479858	movie	1		241	53.0	2.5	/experiments/AOT/AOT_stimuli/rescaled_final/1808_fw.mp4	0.0	264.82341504096985	2.499384880065918
55	238.49050211906433	pulse	1	t		53.0	2.5	/experiments/AOT/AOT_stimuli/rescaled_final/1808_fw.mp4	0.0	266.0066990852356	
55	239.8066029548645	fix_post	2		12	53.0	2.5	/experiments/AOT/AOT_stimuli/rescaled_final/1808_fw.mp4	0.0	267.32279992103577	0.10048413276672363
56	239.90708708763123	fix_pre	0		120	54.0	2.5	/experiments/AOT/AOT_stimuli/rescaled_final/0640_fw.mp4	0.0	267.4232840538025	1.0000169277191162
56	240.09056997299194	pulse	0	t		54.0	2.5	/experiments/AOT/AOT_stimuli/rescaled_final/0640_fw.mp4	0.0	267.6067669391632	
56	240.90710401535034	movie	1		243	54.0	2.5	/experiments/AOT/AOT_stimuli/rescaled_final/0640_fw.mp4	0.0	268.4233009815216	2.4998619556427
56	241.69059896469116	pulse	1	t		54.0	2.5	/experiments/AOT/AOT_stimuli/rescaled_final/0640_fw.mp4	0.0	269.2067959308624	
56	243.28884196281433	pulse	1	t		54.0	2.5	/experiments/AOT/AOT_stimuli/rescaled_final/0640_fw.mp4	0.0	270.8050389289856	
56	243.40696597099304	fix_post	2		12	54.0	2.5	/experiments/AOT/AOT_stimuli/rescaled_final/0640_fw.mp4	0.0	270.9231629371643	0.10018396377563477
57	243.50714993476868	fix_pre	0		120	55.0	2.5	/experiments/AOT/AOT_stimuli/rescaled_final/0700_rv.mp4	0.0	271.02334690093994	0.9998171329498291
57	244.5069670677185	movie	1		244	55.0	2.5	/experiments/AOT/AOT_stimuli/rescaled_final/0700_rv.mp4	0.0	272.02316403388977	2.4999630451202393
57	244.89006996154785	pulse	1	t		55.0	2.5	/experiments/AOT/AOT_stimuli/rescaled_final/0700_rv.mp4	0.0	272.4062669277191	
57	246.490464925766	pulse	1	t		55.0	2.5	/experiments/AOT/AOT_stimuli/rescaled_final/0700_rv.mp4	0.0	274.00666189193726	
57	247.00693011283875	fix_post	2		12	55.0	2.5	/experiments/AOT/AOT_stimuli/rescaled_final/0700_rv.mp4	0.0	274.52312707901	0.09969186782836914
58	247.10662198066711	fix_pre	0		119	56.0	2.5	blank	1.0	274.6228189468384	0.9920361042022705
58	248.09045505523682	pulse	0	t		56.0	2.5	blank	1.0	275.6066520214081	
58	248.09865808486938	movie	1		301	56.0	2.5	blank	1.0	275.61485505104065	2.5083189010620117
58	249.69046092033386	pulse	1	t		56.0	2.5	blank	1.0	277.2066578865051	
58	250.6069769859314	fix_post	2		12	56.0	2.5	blank	1.0	278.12317395210266	0.09962010383605957
59	250.70659708976746	fix_pre	0		120	57.0	2.5	/experiments/AOT/AOT_stimuli/rescaled_final/0701_fw.mp4	0.0	278.2227940559387	1.0004448890686035
59	251.29052805900574	pulse	0	t		57.0	2.5	/experiments/AOT/AOT_stimuli/rescaled_final/0701_fw.mp4	0.0	278.806725025177	
59	251.70704197883606	movie	1		245	57.0	2.5	/experiments/AOT/AOT_stimuli/rescaled_final/0701_fw.mp4	0.0	279.2232389450073	2.49993896484375
59	252.890545129776	pulse	1	t		57.0	2.5	/experiments/AOT/AOT_stimuli/rescaled_final/0701_fw.mp4	0.0	280.40674209594727	
59	254.2069809436798	fix_post	2		12	57.0	2.5	/experiments/AOT/AOT_stimuli/rescaled_final/0701_fw.mp4	0.0	281.7231779098511	0.09994196891784668
60	254.30692291259766	fix_pre	0		120	58.0	2.5	/experiments/AOT/AOT_stimuli/rescaled_final/0185_fw.mp4	0.0	281.8231198787689	0.9999630451202393
60	254.49047899246216	pulse	0	t		58.0	2.5	/experiments/AOT/AOT_stimuli/rescaled_final/0185_fw.mp4	0.0	282.0066759586334	
60	255.3068859577179	movie	1		244	58.0	2.5	/experiments/AOT/AOT_stimuli/rescaled_final/0185_fw.mp4	0.0	282.82308292388916	2.499906063079834
60	256.0907211303711	pulse	1	t		58.0	2.5	/experiments/AOT/AOT_stimuli/rescaled_final/0185_fw.mp4	0.0	283.60691809654236	
60	257.6889410018921	pulse	1	t		58.0	2.5	/experiments/AOT/AOT_stimuli/rescaled_final/0185_fw.mp4	0.0	285.20513796806335	
60	257.80679202079773	fix_post	2		12	58.0	2.5	/experiments/AOT/AOT_stimuli/rescaled_final/0185_fw.mp4	0.0	285.322988986969	0.10013794898986816
61	257.9069299697876	fix_pre	0		120	59.0	2.5	/experiments/AOT/AOT_stimuli/rescaled_final/0578_fw.mp4	0.0	285.42312693595886	1.0000700950622559
61	258.90700006484985	movie	1		242	59.0	2.5	/experiments/AOT/AOT_stimuli/rescaled_final/0578_fw.mp4	0.0	286.4231970310211	2.500419855117798
61	259.2900319099426	pulse	1	t		59.0	2.5	/experiments/AOT/AOT_stimuli/rescaled_final/0578_fw.mp4	0.0	286.8062288761139	
61	260.8905041217804	pulse	1	t		59.0	2.5	/experiments/AOT/AOT_stimuli/rescaled_final/0578_fw.mp4	0.0	288.40670108795166	
61	261.40741991996765	fix_post	2		12	59.0	2.5	/experiments/AOT/AOT_stimuli/rescaled_final/0578_fw.mp4	0.0	288.9236168861389	0.09944915771484375
62	261.5068690776825	fix_pre	0		119	60.0	2.5	/experiments/AOT/AOT_stimuli/rescaled_final/1728_rv.mp4	0.0	289.02306604385376	0.9917349815368652
62	262.4905140399933	pulse	0	t		60.0	2.5	/experiments/AOT/AOT_stimuli/rescaled_final/1728_rv.mp4	0.0	290.00671100616455	
62	262.49860405921936	movie	1		245	60.0	2.5	/experiments/AOT/AOT_stimuli/rescaled_final/1728_rv.mp4	0.0	290.0148010253906	2.5083630084991455
62	264.09151792526245	pulse	1	t		60.0	2.5	/experiments/AOT/AOT_stimuli/rescaled_final/1728_rv.mp4	0.0	291.6077148914337	
62	265.0069670677185	fix_post	2		12	60.0	2.5	/experiments/AOT/AOT_stimuli/rescaled_final/1728_rv.mp4	0.0	292.52316403388977	0.09995102882385254
63	265.10691809654236	fix_pre	0		120	61.0	2.5	/experiments/AOT/AOT_stimuli/rescaled_final/1649_fw.mp4	0.0	292.6231150627136	0.9999940395355225
63	265.69042801856995	pulse	0	t		61.0	2.5	/experiments/AOT/AOT_stimuli/rescaled_final/1649_fw.mp4	0.0	293.2066249847412	
63	266.1069121360779	movie	1		244	61.0	2.5	/experiments/AOT/AOT_stimuli/rescaled_final/1649_fw.mp4	0.0	293.62310910224915	2.4999608993530273
63	267.29051303863525	pulse	1	t		61.0	2.5	/experiments/AOT/AOT_stimuli/rescaled_final/1649_fw.mp4	0.0	294.8067100048065	
63	268.6068730354309	fix_post	2		12	61.0	2.5	/experiments/AOT/AOT_stimuli/rescaled_final/1649_fw.mp4	0.0	296.1230700016022	0.09993195533752441
64	268.70680499076843	fix_pre	0		120	62.0	2.5	/experiments/AOT/AOT_stimuli/rescaled_final/0835_rv.mp4	0.0	296.2230019569397	1.0000650882720947
64	268.89038491249084	pulse	0	t		62.0	2.5	/experiments/AOT/AOT_stimuli/rescaled_final/0835_rv.mp4	0.0	296.4065818786621	
64	269.7068700790405	movie	1		245	62.0	2.5	/experiments/AOT/AOT_stimuli/rescaled_final/0835_rv.mp4	0.0	297.2230670452118	2.499906063079834
64	270.4904029369354	pulse	1	t		62.0	2.5	/experiments/AOT/AOT_stimuli/rescaled_final/0835_rv.mp4	0.0	298.0065999031067	
64	272.0887689590454	pulse	1	t		62.0	2.5	/experiments/AOT/AOT_stimuli/rescaled_final/0835_rv.mp4	0.0	299.6049659252167	
64	272.20677614212036	fix_post	2		12	62.0	2.5	/experiments/AOT/AOT_stimuli/rescaled_final/0835_rv.mp4	0.0	299.7229731082916	0.1001129150390625
65	272.3068890571594	fix_pre	0		120	63.0	2.5	blank	1.0	299.8230860233307	1.0000169277191162
65	273.30690598487854	movie	1		300	63.0	2.5	blank	1.0	300.8231029510498	2.499985933303833
65	273.690397977829	pulse	1	t		63.0	2.5	blank	1.0	301.20659494400024	
65	275.29033493995667	pulse	1	t		63.0	2.5	blank	1.0	302.80653190612793	
65	275.8068919181824	fix_post	2		12	63.0	2.5	blank	1.0	303.32308888435364	0.10000205039978027
66	275.90689396858215	fix_pre	0		119	64.0	2.5	/experiments/AOT/AOT_stimuli/rescaled_final/2044_fw.mp4	0.0	303.4230909347534	0.9915940761566162
66	276.8903739452362	pulse	0	t		64.0	2.5	/experiments/AOT/AOT_stimuli/rescaled_final/2044_fw.mp4	0.0	304.40657091140747	
66	276.89848804473877	movie	1		246	64.0	2.5	/experiments/AOT/AOT_stimuli/rescaled_final/2044_fw.mp4	0.0	304.41468501091003	2.5079710483551025
66	278.4899821281433	pulse	1	t		64.0	2.5	/experiments/AOT/AOT_stimuli/rescaled_final/2044_fw.mp4	0.0	306.0061790943146	
66	279.4064590930939	fix_post	2		12	64.0	2.5	/experiments/AOT/AOT_stimuli/rescaled_final/2044_fw.mp4	0.0	306.92265605926514	0.10035490989685059
67	279.5068140029907	fix_pre	0		120	65.0	2.5	/experiments/AOT/AOT_stimuli/rescaled_final/1507_fw.mp4	0.0	307.023010969162	1.0001649856567383
67	280.09034514427185	pulse	0	t		65.0	2.5	/experiments/AOT/AOT_stimuli/rescaled_final/1507_fw.mp4	0.0	307.6065421104431	
67	280.50697898864746	movie	1		245	65.0	2.5	/experiments/AOT/AOT_stimuli/rescaled_final/1507_fw.mp4	0.0	308.0231759548187	2.4994001388549805
67	281.6904079914093	pulse	1	t		65.0	2.5	/experiments/AOT/AOT_stimuli/rescaled_final/1507_fw.mp4	0.0	309.20660495758057	
67	283.00637912750244	fix_post	2		12	65.0	2.5	/experiments/AOT/AOT_stimuli/rescaled_final/1507_fw.mp4	0.0	310.5225760936737	0.10050487518310547
68	283.10688400268555	fix_pre	0		120	66.0	2.5	/experiments/AOT/AOT_stimuli/rescaled_final/0163_fw.mp4	0.0	310.6230809688568	1.0000090599060059
68	283.29034304618835	pulse	0	t		66.0	2.5	/experiments/AOT/AOT_stimuli/rescaled_final/0163_fw.mp4	0.0	310.8065400123596	
68	284.10689306259155	movie	1		242	66.0	2.5	/experiments/AOT/AOT_stimuli/rescaled_final/0163_fw.mp4	0.0	311.6230900287628	2.4995360374450684
68	284.8903169631958	pulse	1	t		66.0	2.5	/experiments/AOT/AOT_stimuli/rescaled_final/0163_fw.mp4	0.0	312.40651392936707	
68	286.4886140823364	pulse	1	t		66.0	2.5	/experiments/AOT/AOT_stimuli/rescaled_final/0163_fw.mp4	0.0	314.0048110485077	
68	286.6064291000366	fix_post	2		12	66.0	2.5	/experiments/AOT/AOT_stimuli/rescaled_final/0163_fw.mp4	0.0	314.1226260662079	0.10030484199523926
69	286.70673394203186	fix_pre	0		120	67.0	2.5	/experiments/AOT/AOT_stimuli/rescaled_final/0618_fw.mp4	0.0	314.2229309082031	1.0002100467681885
69	287.70694398880005	movie	1		246	67.0	2.5	/experiments/AOT/AOT_stimuli/rescaled_final/0618_fw.mp4	0.0	315.2231409549713	2.4998719692230225
69	288.0900089740753	pulse	1	t		67.0	2.5	/experiments/AOT/AOT_stimuli/rescaled_final/0618_fw.mp4	0.0	315.6062059402466	
69	289.6902151107788	pulse	1	t		67.0	2.5	/experiments/AOT/AOT_stimuli/rescaled_final/0618_fw.mp4	0.0	317.2064120769501	
69	290.20681595802307	fix_post	2		12	67.0	2.5	/experiments/AOT/AOT_stimuli/rescaled_final/0618_fw.mp4	0.0	317.72301292419434	0.10004401206970215
70	290.3068599700928	fix_pre	0		119	68.0	2.5	/experiments/AOT/AOT_stimuli/rescaled_final/1781_rv.mp4	0.0	317.82305693626404	0.9916050434112549
70	291.2899401187897	pulse	0	t		68.0	2.5	/experiments/AOT/AOT_stimuli/rescaled_final/1781_rv.mp4	0.0	318.80613708496094	
70	291.298465013504	movie	1		248	68.0	2.5	/experiments/AOT/AOT_stimuli/rescaled_final/1781_rv.mp4	0.0	318.8146619796753	2.5086259841918945
70	292.88982009887695	pulse	1	t		68.0	2.5	/experiments/AOT/AOT_stimuli/rescaled_final/1781_rv.mp4	0.0	320.4060170650482	
70	293.8070909976959	fix_post	2		12	68.0	2.5	/experiments/AOT/AOT_stimuli/rescaled_final/1781_rv.mp4	0.0	321.3232879638672	0.0999600887298584
71	293.9070510864258	fix_pre	0		120	69.0	2.5	blank	1.0	321.42324805259705	0.9993829727172852
71	294.49028396606445	pulse	0	t		69.0	2.5	blank	1.0	322.0064809322357	
71	294.90643405914307	movie	1		300	69.0	2.5	blank	1.0	322.42263102531433	2.500325918197632
71	296.09037804603577	pulse	1	t		69.0	2.5	blank	1.0	323.60657501220703	
71	297.4067599773407	fix_post	2		12	69.0	2.5	blank	1.0	324.92295694351196	0.10001993179321289
72	297.5067799091339	fix_pre	0		120	70.0	2.5	/experiments/AOT/AOT_stimuli/rescaled_final/0439_fw.mp4	0.0	325.0229768753052	1.0000221729278564
72	297.69034910202026	pulse	0	t		70.0	2.5	/experiments/AOT/AOT_stimuli/rescaled_final/0439_fw.mp4	0.0	325.2065460681915	
72	298.50680208206177	movie	1		245	70.0	2.5	/experiments/AOT/AOT_stimuli/rescaled_final/0439_fw.mp4	0.0	326.02299904823303	2.499922037124634
72	299.290167093277	pulse	1	t		70.0	2.5	/experiments/AOT/AOT_stimuli/rescaled_final/0439_fw.mp4	0.0	326.80636405944824	
72	300.88898491859436	pulse	1	t		70.0	2.5	/experiments/AOT/AOT_stimuli/rescaled_final/0439_fw.mp4	0.0	328.4051818847656	
72	301.0067241191864	fix_post	2		12	70.0	2.5	/experiments/AOT/AOT_stimuli/rescaled_final/0439_fw.mp4	0.0	328.52292108535767	0.09959197044372559
73	301.1063160896301	fix_pre	0		120	71.0	2.5	/experiments/AOT/AOT_stimuli/rescaled_final/1774_fw.mp4	0.0	328.6225130558014	1.0000479221343994
73	302.1063640117645	movie	1		245	71.0	2.5	/experiments/AOT/AOT_stimuli/rescaled_final/1774_fw.mp4	0.0	329.6225609779358	2.500303030014038
73	302.48994493484497	pulse	1	t		71.0	2.5	/experiments/AOT/AOT_stimuli/rescaled_final/1774_fw.mp4	0.0	330.00614190101624	
73	304.0901291370392	pulse	1	t		71.0	2.5	/experiments/AOT/AOT_stimuli/rescaled_final/1774_fw.mp4	0.0	331.60632610321045	
73	304.60666704177856	fix_post	2		12	71.0	2.5	/experiments/AOT/AOT_stimuli/rescaled_final/1774_fw.mp4	0.0	332.12286400794983	0.1000680923461914
74	304.70673513412476	fix_pre	0		119	72.0	2.5	/experiments/AOT/AOT_stimuli/rescaled_final/1332_rv.mp4	0.0	332.222932100296	0.9915709495544434
74	305.69017601013184	pulse	0	t		72.0	2.5	/experiments/AOT/AOT_stimuli/rescaled_final/1332_rv.mp4	0.0	333.2063729763031	
74	305.6983060836792	movie	1		244	72.0	2.5	/experiments/AOT/AOT_stimuli/rescaled_final/1332_rv.mp4	0.0	333.21450304985046	2.5080740451812744
74	307.2898349761963	pulse	1	t		72.0	2.5	/experiments/AOT/AOT_stimuli/rescaled_final/1332_rv.mp4	0.0	334.80603194236755	
74	308.2063801288605	fix_post	2		12	72.0	2.5	/experiments/AOT/AOT_stimuli/rescaled_final/1332_rv.mp4	0.0	335.72257709503174	0.10030293464660645
75	308.3066830635071	fix_pre	0		120	73.0	2.5	/experiments/AOT/AOT_stimuli/rescaled_final/0922_rv.mp4	0.0	335.82288002967834	0.9999880790710449
75	308.8901860713959	pulse	0	t		73.0	2.5	/experiments/AOT/AOT_stimuli/rescaled_final/0922_rv.mp4	0.0	336.40638303756714	
75	309.3066711425781	movie	1		244	73.0	2.5	/experiments/AOT/AOT_stimuli/rescaled_final/0922_rv.mp4	0.0	336.8228681087494	2.4999899864196777
75	310.4902489185333	pulse	1	t		73.0	2.5	/experiments/AOT/AOT_stimuli/rescaled_final/0922_rv.mp4	0.0	338.0064458847046	
75	311.8066611289978	fix_post	2		12	73.0	2.5	/experiments/AOT/AOT_stimuli/rescaled_final/0922_rv.mp4	0.0	339.32285809516907	0.10000300407409668
76	311.9066641330719	fix_pre	0		120	74.0	2.5	/experiments/AOT/AOT_stimuli/rescaled_final/1744_fw.mp4	0.0	339.42286109924316	1.0000557899475098
76	312.09021401405334	pulse	0	t		74.0	2.5	/experiments/AOT/AOT_stimuli/rescaled_final/1744_fw.mp4	0.0	339.6064109802246	
76	312.9067199230194	movie	1		244	74.0	2.5	/experiments/AOT/AOT_stimuli/rescaled_final/1744_fw.mp4	0.0	340.4229168891907	2.5000030994415283
76	313.69016695022583	pulse	1	t		74.0	2.5	/experiments/AOT/AOT_stimuli/rescaled_final/1744_fw.mp4	0.0	341.2063639163971	
76	315.2885899543762	pulse	1	t		74.0	2.5	/experiments/AOT/AOT_stimuli/rescaled_final/1744_fw.mp4	0.0	342.8047869205475	
76	315.40672302246094	fix_post	2		12	74.0	2.5	/experiments/AOT/AOT_stimuli/rescaled_final/1744_fw.mp4	0.0	342.9229199886322	0.09992694854736328
77	315.5066499710083	fix_pre	0		120	75.0	2.5	blank	1.0	343.02284693717957	1.0000109672546387
77	316.50666093826294	movie	1		300	75.0	2.5	blank	1.0	344.0228579044342	2.499953031539917
77	316.8901789188385	pulse	1	t		75.0	2.5	blank	1.0	344.40637588500977	
77	318.49017691612244	pulse	1	t		75.0	2.5	blank	1.0	346.0063738822937	
77	319.00661396980286	fix_post	2		12	75.0	2.5	blank	1.0	346.5228109359741	0.10006999969482422
78	319.1066839694977	fix_pre	0		119	76.0	2.5	/experiments/AOT/AOT_stimuli/rescaled_final/1544_rv.mp4	0.0	346.62288093566895	0.9915950298309326
78	320.09007501602173	pulse	0	t		76.0	2.5	/experiments/AOT/AOT_stimuli/rescaled_final/1544_rv.mp4	0.0	347.606271982193	
78	320.0982789993286	movie	1		244	76.0	2.5	/experiments/AOT/AOT_stimuli/rescaled_final/1544_rv.mp4	0.0	347.6144759654999	2.508316993713379
78	321.691447019577	pulse	1	t		76.0	2.5	/experiments/AOT/AOT_stimuli/rescaled_final/1544_rv.mp4	0.0	349.2076439857483	
78	322.606595993042	fix_post	2		12	76.0	2.5	/experiments/AOT/AOT_stimuli/rescaled_final/1544_rv.mp4	0.0	350.12279295921326	0.10010004043579102
79	322.7066960334778	fix_pre	0		120	77.0	2.5	/experiments/AOT/AOT_stimuli/rescaled_final/1829_rv.mp4	0.0	350.22289299964905	0.9995169639587402
79	323.29012513160706	pulse	0	t		77.0	2.5	/experiments/AOT/AOT_stimuli/rescaled_final/1829_rv.mp4	0.0	350.8063220977783	
79	323.7062129974365	movie	1		245	77.0	2.5	/experiments/AOT/AOT_stimuli/rescaled_final/1829_rv.mp4	0.0	351.2224099636078	2.5004141330718994
79	324.89019298553467	pulse	1	t		77.0	2.5	/experiments/AOT/AOT_stimuli/rescaled_final/1829_rv.mp4	0.0	352.40638995170593	
79	326.2066271305084	fix_post	2		12	77.0	2.5	/experiments/AOT/AOT_stimuli/rescaled_final/1829_rv.mp4	0.0	353.7228240966797	0.09995388984680176
80	326.3065810203552	fix_pre	0		120	78.0	2.5	/experiments/AOT/AOT_stimuli/rescaled_final/0925_fw.mp4	0.0	353.8227779865265	0.9999909400939941
80	326.4900999069214	pulse	0	t		78.0	2.5	/experiments/AOT/AOT_stimuli/rescaled_final/0925_fw.mp4	0.0	354.00629687309265	
80	327.3065719604492	movie	1		243	78.0	2.5	/experiments/AOT/AOT_stimuli/rescaled_final/0925_fw.mp4	0.0	354.8227689266205	2.499544143676758
80	328.09015703201294	pulse	1	t		78.0	2.5	/experiments/AOT/AOT_stimuli/rescaled_final/0925_fw.mp4	0.0	355.6063539981842	
80	329.68887400627136	pulse	1	t		78.0	2.5	/experiments/AOT/AOT_stimuli/rescaled_final/0925_fw.mp4	0.0	357.2050709724426	
80	329.806116104126	fix_post	2		12	78.0	2.5	/experiments/AOT/AOT_stimuli/rescaled_final/0925_fw.mp4	0.0	357.32231307029724	0.10045385360717773
81	329.90656995773315	fix_pre	0		120	79.0	2.5	/experiments/AOT/AOT_stimuli/rescaled_final/0061_rv.mp4	0.0	357.4227669239044	1.0000050067901611
81	330.9065749645233	movie	1		242	79.0	2.5	/experiments/AOT/AOT_stimuli/rescaled_final/0061_rv.mp4	0.0	358.4227719306946	2.499962091445923
81	331.29012393951416	pulse	1	t		79.0	2.5	/experiments/AOT/AOT_stimuli/rescaled_final/0061_rv.mp4	0.0	358.8063209056854	
81	332.8901300430298	pulse	1	t		79.0	2.5	/experiments/AOT/AOT_stimuli/rescaled_final/0061_rv.mp4	0.0	360.40632700920105	
81	333.40653705596924	fix_post	2		12	79.0	2.5	/experiments/AOT/AOT_stimuli/rescaled_final/0061_rv.mp4	0.0	360.9227340221405	0.09956789016723633
82	333.5061049461365	fix_pre	0		119	80.0	2.5	/experiments/AOT/AOT_stimuli/rescaled_final/1590_rv.mp4	0.0	361.02230191230774	0.9920740127563477
82	334.49004101753235	pulse	0	t		80.0	2.5	/experiments/AOT/AOT_stimuli/rescaled_final/1590_rv.mp4	0.0	362.0062379837036	
82	334.4981789588928	movie	1		245	80.0	2.5	/experiments/AOT/AOT_stimuli/rescaled_final/1590_rv.mp4	0.0	362.0143759250641	2.5084331035614014
82	336.0898699760437	pulse	1	t		80.0	2.5	/experiments/AOT/AOT_stimuli/rescaled_final/1590_rv.mp4	0.0	363.60606694221497	
82	337.0066120624542	fix_post	2		12	80.0	2.5	/experiments/AOT/AOT_stimuli/rescaled_final/1590_rv.mp4	0.0	364.5228090286255	0.09996604919433594
83	337.10657811164856	fix_pre	0		120	81.0	2.5	/experiments/AOT/AOT_stimuli/rescaled_final/1043_rv.mp4	0.0	364.6227750778198	0.9999589920043945
83	337.6901259422302	pulse	0	t		81.0	2.5	/experiments/AOT/AOT_stimuli/rescaled_final/1043_rv.mp4	0.0	365.2063229084015	
83	338.10653710365295	movie	1		246	81.0	2.5	/experiments/AOT/AOT_stimuli/rescaled_final/1043_rv.mp4	0.0	365.6227340698242	2.4995980262756348
83	339.2900969982147	pulse	1	t		81.0	2.5	/experiments/AOT/AOT_stimuli/rescaled_final/1043_rv.mp4	0.0	366.806293964386	
83	340.6061351299286	fix_post	2		12	81.0	2.5	/experiments/AOT/AOT_stimuli/rescaled_final/1043_rv.mp4	0.0	368.12233209609985	0.10036396980285645
84	340.70649909973145	fix_pre	0		120	82.0	2.5	blank	1.0	368.2226960659027	0.9996178150177002
84	340.8900499343872	pulse	0	t		82.0	2.5	blank	1.0	368.4062469005585	
84	341.70611691474915	movie	1		300	82.0	2.5	blank	1.0	369.2223138809204	2.500439167022705
84	342.4900360107422	pulse	1	t		82.0	2.5	blank	1.0	370.00623297691345	
84	344.0900490283966	pulse	1	t		82.0	2.5	blank	1.0	371.60624599456787	
84	344.20655608177185	fix_post	2		12	82.0	2.5	blank	1.0	371.7227530479431	0.09992694854736328
85	344.3064830303192	fix_pre	0		120	83.0	2.5	/experiments/AOT/AOT_stimuli/rescaled_final/1839_fw.mp4	0.0	371.8226799964905	1.0000970363616943
85	345.3065800666809	movie	1		244	83.0	2.5	/experiments/AOT/AOT_stimuli/rescaled_final/1839_fw.mp4	0.0	372.8227770328522	2.4997169971466064
85	345.6901581287384	pulse	1	t		83.0	2.5	/experiments/AOT/AOT_stimuli/rescaled_final/1839_fw.mp4	0.0	373.20635509490967	
85	347.28958010673523	pulse	1	t		83.0	2.5	/experiments/AOT/AOT_stimuli/rescaled_final/1839_fw.mp4	0.0	374.8057770729065	
85	347.8062970638275	fix_post	2		12	83.0	2.5	/experiments/AOT/AOT_stimuli/rescaled_final/1839_fw.mp4	0.0	375.3224940299988	0.09985589981079102
87	347.9061529636383	stim	0		1716					375.42234992980957	14.300409078598022
87	348.8897271156311	pulse	0	t						376.40592408180237	
87	350.4899730682373	pulse	0	t						378.00617003440857	
87	352.0899739265442	pulse	0	t						379.60617089271545	
87	353.6900329589844	pulse	0	t						381.20622992515564	
87	355.2899580001831	pulse	0	t						382.80615496635437	
87	356.88990807533264	pulse	0	t						384.4061050415039	
87	358.48990297317505	pulse	0	t						386.0060999393463	
87	360.08999609947205	pulse	0	t						387.6061930656433	
87	361.6899080276489	pulse	0	t						389.2061049938202	
