trial_nr	onset	event_type	phase	response	nr_frames	movie_index	movie_duration	movie_file	blank	onset_abs	duration
0	0.20841288566589355	stim	0		139					41.71981596946716	1.1583971977233887
0	1.3586459159851074	response	0	space						42.87004899978638	
1	1.3668100833892822	stim	0		4924					42.87821316719055	41.04993796348572
1	42.407121896743774	pulse	0	t						83.91852498054504	
1	42.416748046875	stim	1		1715					83.92815113067627	14.29999303817749
1	43.99845290184021	pulse	1	t						85.50985598564148	
1	45.5987229347229	pulse	1	t						87.11012601852417	
1	47.19144105911255	pulse	1	t						88.70284414291382	
1	48.791682958602905	pulse	1	t						90.30308604240417	
1	50.391863107681274	pulse	1	t						91.90326619148254	
1	51.99211406707764	pulse	1	t						93.5035171508789	
1	53.59229588508606	pulse	1	t						95.10369896888733	
1	55.19168400764465	pulse	1	t						96.70308709144592	
2	56.71674108505249	fix_pre	0		10	0.0	2.5	/experiments/knapen_AOT/AOT_stimuli/rescaled_final/0055_fw.mp4	0.0	98.22814416885376	0.08338689804077148
2	56.79186296463013	pulse	0	t		0.0	2.5	/experiments/knapen_AOT/AOT_stimuli/rescaled_final/0055_fw.mp4	0.0	98.3032660484314	
2	56.80012798309326	movie	1		242	0.0	2.5	/experiments/knapen_AOT/AOT_stimuli/rescaled_final/0055_fw.mp4	0.0	98.31153106689453	2.508700132369995
2	58.396976947784424	pulse	1	t		0.0	2.5	/experiments/knapen_AOT/AOT_stimuli/rescaled_final/0055_fw.mp4	0.0	99.9083800315857	
2	59.30882811546326	fix_post	2		12	0.0	2.5	/experiments/knapen_AOT/AOT_stimuli/rescaled_final/0055_fw.mp4	0.0	100.82023119926453	0.09996581077575684
3	59.408793926239014	fix_pre	0		120	1.0	2.5	/experiments/knapen_AOT/AOT_stimuli/rescaled_final/0678_rv.mp4	0.0	100.92019701004028	1.0001840591430664
3	59.99246907234192	pulse	0	t		1.0	2.5	/experiments/knapen_AOT/AOT_stimuli/rescaled_final/0678_rv.mp4	0.0	101.50387215614319	
3	60.40897798538208	movie	1		243	1.0	2.5	/experiments/knapen_AOT/AOT_stimuli/rescaled_final/0678_rv.mp4	0.0	101.92038106918335	2.5004260540008545
3	61.59286594390869	pulse	1	t		1.0	2.5	/experiments/knapen_AOT/AOT_stimuli/rescaled_final/0678_rv.mp4	0.0	103.10426902770996	
3	62.909404039382935	fix_post	2		12	1.0	2.5	/experiments/knapen_AOT/AOT_stimuli/rescaled_final/0678_rv.mp4	0.0	104.4208071231842	0.10003900527954102
4	63.009443044662476	fix_pre	0		120	2.0	2.5	/experiments/knapen_AOT/AOT_stimuli/rescaled_final/2172_rv.mp4	0.0	104.52084612846375	1.0000889301300049
4	63.19291710853577	pulse	0	t		2.0	2.5	/experiments/knapen_AOT/AOT_stimuli/rescaled_final/2172_rv.mp4	0.0	104.70432019233704	
4	64.00953197479248	movie	1		243	2.0	2.5	/experiments/knapen_AOT/AOT_stimuli/rescaled_final/2172_rv.mp4	0.0	105.52093505859375	2.5004141330718994
4	64.7931649684906	pulse	1	t		2.0	2.5	/experiments/knapen_AOT/AOT_stimuli/rescaled_final/2172_rv.mp4	0.0	106.30456805229187	
4	66.39321708679199	pulse	1	t		2.0	2.5	/experiments/knapen_AOT/AOT_stimuli/rescaled_final/2172_rv.mp4	0.0	107.90462017059326	
4	66.50994610786438	fix_post	2		12	2.0	2.5	/experiments/knapen_AOT/AOT_stimuli/rescaled_final/2172_rv.mp4	0.0	108.02134919166565	0.09992694854736328
5	66.60987305641174	fix_pre	0		120	3.0	2.5	/experiments/knapen_AOT/AOT_stimuli/rescaled_final/0129_rv.mp4	0.0	108.12127614021301	1.0002529621124268
5	67.61012601852417	movie	1		241	3.0	2.5	/experiments/knapen_AOT/AOT_stimuli/rescaled_final/0129_rv.mp4	0.0	109.12152910232544	2.492034912109375
5	67.99430894851685	pulse	1	t		3.0	2.5	/experiments/knapen_AOT/AOT_stimuli/rescaled_final/0129_rv.mp4	0.0	109.50571203231812	
5	69.59388208389282	pulse	1	t		3.0	2.5	/experiments/knapen_AOT/AOT_stimuli/rescaled_final/0129_rv.mp4	0.0	111.10528516769409	
5	70.10216093063354	fix_post	2		12	3.0	2.5	/experiments/knapen_AOT/AOT_stimuli/rescaled_final/0129_rv.mp4	0.0	111.61356401443481	0.09997415542602539
6	70.20213508605957	fix_pre	0		120	4.0	2.5	/experiments/knapen_AOT/AOT_stimuli/rescaled_final/0474_rv.mp4	0.0	111.71353816986084	1.000105857849121
6	71.1941499710083	pulse	0	t		4.0	2.5	/experiments/knapen_AOT/AOT_stimuli/rescaled_final/0474_rv.mp4	0.0	112.70555305480957	
6	71.20224094390869	movie	1		244	4.0	2.5	/experiments/knapen_AOT/AOT_stimuli/rescaled_final/0474_rv.mp4	0.0	112.71364402770996	2.5087740421295166
6	72.79515099525452	pulse	1	t		4.0	2.5	/experiments/knapen_AOT/AOT_stimuli/rescaled_final/0474_rv.mp4	0.0	114.30655407905579	
6	73.71101498603821	fix_post	2		12	4.0	2.5	/experiments/knapen_AOT/AOT_stimuli/rescaled_final/0474_rv.mp4	0.0	115.22241806983948	0.09999799728393555
7	73.81101298332214	fix_pre	0		120	5.0	2.5	/experiments/knapen_AOT/AOT_stimuli/rescaled_final/0608_rv.mp4	0.0	115.32241606712341	1.0001940727233887
7	74.39460110664368	pulse	0	t		5.0	2.5	/experiments/knapen_AOT/AOT_stimuli/rescaled_final/0608_rv.mp4	0.0	115.90600419044495	
7	74.81120705604553	movie	1		242	5.0	2.5	/experiments/knapen_AOT/AOT_stimuli/rescaled_final/0608_rv.mp4	0.0	116.3226101398468	2.500427007675171
7	75.9949119091034	pulse	1	t		5.0	2.5	/experiments/knapen_AOT/AOT_stimuli/rescaled_final/0608_rv.mp4	0.0	117.50631499290466	
7	77.3116340637207	fix_post	2		12	5.0	2.5	/experiments/knapen_AOT/AOT_stimuli/rescaled_final/0608_rv.mp4	0.0	118.82303714752197	0.09992098808288574
8	77.41155505180359	fix_pre	0		120	6.0	2.5	blank	1.0	118.92295813560486	1.0001459121704102
8	77.59507298469543	pulse	0	t		6.0	2.5	blank	1.0	119.1064760684967	
8	78.411700963974	movie	1		300	6.0	2.5	blank	1.0	119.92310404777527	2.5003550052642822
8	79.19531989097595	pulse	1	t		6.0	2.5	blank	1.0	120.70672297477722	
8	80.79551196098328	pulse	1	t		6.0	2.5	blank	1.0	122.30691504478455	
8	80.91205596923828	fix_post	2		12	6.0	2.5	blank	1.0	122.42345905303955	0.1000361442565918
9	81.01209211349487	fix_pre	0		120	7.0	2.5	/experiments/knapen_AOT/AOT_stimuli/rescaled_final/1873_fw.mp4	0.0	122.52349519729614	1.000173807144165
9	82.01226592063904	movie	1		242	7.0	2.5	/experiments/knapen_AOT/AOT_stimuli/rescaled_final/1873_fw.mp4	0.0	123.52366900444031	2.4921391010284424
9	82.39632391929626	pulse	1	t		7.0	2.5	/experiments/knapen_AOT/AOT_stimuli/rescaled_final/1873_fw.mp4	0.0	123.90772700309753	
9	83.99597811698914	pulse	1	t		7.0	2.5	/experiments/knapen_AOT/AOT_stimuli/rescaled_final/1873_fw.mp4	0.0	125.5073812007904	
9	84.50440502166748	fix_post	2		12	7.0	2.5	/experiments/knapen_AOT/AOT_stimuli/rescaled_final/1873_fw.mp4	0.0	126.01580810546875	0.09984803199768066
10	84.60425305366516	fix_pre	0		120	8.0	2.5	/experiments/knapen_AOT/AOT_stimuli/rescaled_final/0276_fw.mp4	0.0	126.11565613746643	1.0002038478851318
10	85.5963339805603	pulse	0	t		8.0	2.5	/experiments/knapen_AOT/AOT_stimuli/rescaled_final/0276_fw.mp4	0.0	127.10773706436157	
10	85.6044569015503	movie	1		243	8.0	2.5	/experiments/knapen_AOT/AOT_stimuli/rescaled_final/0276_fw.mp4	0.0	127.11585998535156	2.508772134780884
10	87.19718599319458	pulse	1	t		8.0	2.5	/experiments/knapen_AOT/AOT_stimuli/rescaled_final/0276_fw.mp4	0.0	128.70858907699585	
10	88.11322903633118	fix_post	2		12	8.0	2.5	/experiments/knapen_AOT/AOT_stimuli/rescaled_final/0276_fw.mp4	0.0	129.62463212013245	0.09995794296264648
11	88.21318697929382	fix_pre	0		120	9.0	2.5	/experiments/knapen_AOT/AOT_stimuli/rescaled_final/1641_rv.mp4	0.0	129.7245900630951	1.0000770092010498
11	88.79669189453125	pulse	0	t		9.0	2.5	/experiments/knapen_AOT/AOT_stimuli/rescaled_final/1641_rv.mp4	0.0	130.30809497833252	
11	89.21326398849487	movie	1		242	9.0	2.5	/experiments/knapen_AOT/AOT_stimuli/rescaled_final/1641_rv.mp4	0.0	130.72466707229614	2.5005359649658203
11	90.39705395698547	pulse	1	t		9.0	2.5	/experiments/knapen_AOT/AOT_stimuli/rescaled_final/1641_rv.mp4	0.0	131.90845704078674	
11	91.7137999534607	fix_post	2		12	9.0	2.5	/experiments/knapen_AOT/AOT_stimuli/rescaled_final/1641_rv.mp4	0.0	133.22520303726196	0.09989404678344727
12	91.81369400024414	fix_pre	0		120	10.0	2.5	/experiments/knapen_AOT/AOT_stimuli/rescaled_final/2030_fw.mp4	0.0	133.3250970840454	1.0000810623168945
12	91.9972710609436	pulse	0	t		10.0	2.5	/experiments/knapen_AOT/AOT_stimuli/rescaled_final/2030_fw.mp4	0.0	133.50867414474487	
12	92.81377506256104	movie	1		242	10.0	2.5	/experiments/knapen_AOT/AOT_stimuli/rescaled_final/2030_fw.mp4	0.0	134.3251781463623	2.500516891479492
12	93.59752297401428	pulse	1	t		10.0	2.5	/experiments/knapen_AOT/AOT_stimuli/rescaled_final/2030_fw.mp4	0.0	135.10892605781555	
12	95.19761610031128	pulse	1	t		10.0	2.5	/experiments/knapen_AOT/AOT_stimuli/rescaled_final/2030_fw.mp4	0.0	136.70901918411255	
12	95.31429195404053	fix_post	2		12	10.0	2.5	/experiments/knapen_AOT/AOT_stimuli/rescaled_final/2030_fw.mp4	0.0	136.8256950378418	0.09996795654296875
13	95.4142599105835	fix_pre	0		120	11.0	2.5	/experiments/knapen_AOT/AOT_stimuli/rescaled_final/1982_fw.mp4	0.0	136.92566299438477	1.0001561641693115
13	96.41441607475281	movie	1		241	11.0	2.5	/experiments/knapen_AOT/AOT_stimuli/rescaled_final/1982_fw.mp4	0.0	137.92581915855408	2.4920618534088135
13	96.79921197891235	pulse	1	t		11.0	2.5	/experiments/knapen_AOT/AOT_stimuli/rescaled_final/1982_fw.mp4	0.0	138.31061506271362	
13	98.39812397956848	pulse	1	t		11.0	2.5	/experiments/knapen_AOT/AOT_stimuli/rescaled_final/1982_fw.mp4	0.0	139.90952706336975	
13	98.90647792816162	fix_post	2		12	11.0	2.5	/experiments/knapen_AOT/AOT_stimuli/rescaled_final/1982_fw.mp4	0.0	140.4178810119629	0.09995698928833008
14	99.00643491744995	fix_pre	0		120	12.0	2.5	/experiments/knapen_AOT/AOT_stimuli/rescaled_final/1565_fw.mp4	0.0	140.51783800125122	1.0000550746917725
14	99.99852299690247	pulse	0	t		12.0	2.5	/experiments/knapen_AOT/AOT_stimuli/rescaled_final/1565_fw.mp4	0.0	141.50992608070374	
14	100.00648999214172	movie	1		244	12.0	2.5	/experiments/knapen_AOT/AOT_stimuli/rescaled_final/1565_fw.mp4	0.0	141.517893075943	2.5088601112365723
14	101.60314702987671	pulse	1	t		12.0	2.5	/experiments/knapen_AOT/AOT_stimuli/rescaled_final/1565_fw.mp4	0.0	143.11455011367798	
14	102.5153501033783	fix_post	2		12	12.0	2.5	/experiments/knapen_AOT/AOT_stimuli/rescaled_final/1565_fw.mp4	0.0	144.02675318717957	0.09995698928833008
15	102.61530709266663	fix_pre	0		120	13.0	2.5	/experiments/knapen_AOT/AOT_stimuli/rescaled_final/0569_rv.mp4	0.0	144.1267101764679	1.000168800354004
15	103.19142293930054	pulse	0	t		13.0	2.5	/experiments/knapen_AOT/AOT_stimuli/rescaled_final/0569_rv.mp4	0.0	144.7028260231018	
15	103.61547589302063	movie	1		241	13.0	2.5	/experiments/knapen_AOT/AOT_stimuli/rescaled_final/0569_rv.mp4	0.0	145.1268789768219	2.500307083129883
15	104.79218292236328	pulse	1	t		13.0	2.5	/experiments/knapen_AOT/AOT_stimuli/rescaled_final/0569_rv.mp4	0.0	146.30358600616455	
15	106.11578297615051	fix_post	2		12	13.0	2.5	/experiments/knapen_AOT/AOT_stimuli/rescaled_final/0569_rv.mp4	0.0	147.62718605995178	0.10000801086425781
16	106.21579098701477	fix_pre	0		120	14.0	2.5	blank	1.0	147.72719407081604	1.000175952911377
16	106.3918969631195	pulse	0	t		14.0	2.5	blank	1.0	147.90330004692078	
16	107.21596693992615	movie	1		300	14.0	2.5	blank	1.0	148.72737002372742	2.5004169940948486
16	107.9913580417633	pulse	1	t		14.0	2.5	blank	1.0	149.50276112556458	
16	109.59142589569092	pulse	1	t		14.0	2.5	blank	1.0	151.1028289794922	
16	109.716383934021	fix_post	2		12	14.0	2.5	blank	1.0	151.22778701782227	0.09999299049377441
17	109.81637692451477	fix_pre	0		120	15.0	2.5	/experiments/knapen_AOT/AOT_stimuli/rescaled_final/2044_fw.mp4	0.0	151.32778000831604	1.0001261234283447
17	110.81650304794312	movie	1		242	15.0	2.5	/experiments/knapen_AOT/AOT_stimuli/rescaled_final/2044_fw.mp4	0.0	152.32790613174438	2.492187023162842
17	111.19167494773865	pulse	1	t		15.0	2.5	/experiments/knapen_AOT/AOT_stimuli/rescaled_final/2044_fw.mp4	0.0	152.70307803153992	
17	112.79197096824646	pulse	1	t		15.0	2.5	/experiments/knapen_AOT/AOT_stimuli/rescaled_final/2044_fw.mp4	0.0	154.30337405204773	
17	113.30869007110596	fix_post	2		12	15.0	2.5	/experiments/knapen_AOT/AOT_stimuli/rescaled_final/2044_fw.mp4	0.0	154.82009315490723	0.09990382194519043
18	113.40859389305115	fix_pre	0		119	16.0	2.5	/experiments/knapen_AOT/AOT_stimuli/rescaled_final/1665_rv.mp4	0.0	154.91999697685242	0.9917340278625488
18	114.39233803749084	pulse	0	t		16.0	2.5	/experiments/knapen_AOT/AOT_stimuli/rescaled_final/1665_rv.mp4	0.0	155.90374112129211	
18	114.4003279209137	movie	1		243	16.0	2.5	/experiments/knapen_AOT/AOT_stimuli/rescaled_final/1665_rv.mp4	0.0	155.91173100471497	2.508803129196167
18	115.99364805221558	pulse	1	t		16.0	2.5	/experiments/knapen_AOT/AOT_stimuli/rescaled_final/1665_rv.mp4	0.0	157.50505113601685	
18	116.90913105010986	fix_post	2		12	16.0	2.5	/experiments/knapen_AOT/AOT_stimuli/rescaled_final/1665_rv.mp4	0.0	158.42053413391113	0.09999799728393555
19	117.0091290473938	fix_pre	0		120	17.0	2.5	/experiments/knapen_AOT/AOT_stimuli/rescaled_final/1823_rv.mp4	0.0	158.52053213119507	1.0001180171966553
19	117.59276604652405	pulse	0	t		17.0	2.5	/experiments/knapen_AOT/AOT_stimuli/rescaled_final/1823_rv.mp4	0.0	159.10416913032532	
19	118.00924706459045	movie	1		243	17.0	2.5	/experiments/knapen_AOT/AOT_stimuli/rescaled_final/1823_rv.mp4	0.0	159.52065014839172	2.5005300045013428
19	119.19299101829529	pulse	1	t		17.0	2.5	/experiments/knapen_AOT/AOT_stimuli/rescaled_final/1823_rv.mp4	0.0	160.70439410209656	
19	120.5097770690918	fix_post	2		12	17.0	2.5	/experiments/knapen_AOT/AOT_stimuli/rescaled_final/1823_rv.mp4	0.0	162.02118015289307	0.09990286827087402
20	120.60967993736267	fix_pre	0		120	18.0	2.5	/experiments/knapen_AOT/AOT_stimuli/rescaled_final/0665_fw.mp4	0.0	162.12108302116394	1.0001139640808105
20	120.79315900802612	pulse	0	t		18.0	2.5	/experiments/knapen_AOT/AOT_stimuli/rescaled_final/0665_fw.mp4	0.0	162.3045620918274	
20	121.60979390144348	movie	1		242	18.0	2.5	/experiments/knapen_AOT/AOT_stimuli/rescaled_final/0665_fw.mp4	0.0	163.12119698524475	2.500545024871826
20	122.39347290992737	pulse	1	t		18.0	2.5	/experiments/knapen_AOT/AOT_stimuli/rescaled_final/0665_fw.mp4	0.0	163.90487599372864	
20	123.99345993995667	pulse	1	t		18.0	2.5	/experiments/knapen_AOT/AOT_stimuli/rescaled_final/0665_fw.mp4	0.0	165.50486302375793	
20	124.11033892631531	fix_post	2		12	18.0	2.5	/experiments/knapen_AOT/AOT_stimuli/rescaled_final/0665_fw.mp4	0.0	165.62174201011658	0.09983015060424805
21	124.21016907691956	fix_pre	0		120	19.0	2.5	/experiments/knapen_AOT/AOT_stimuli/rescaled_final/0053_fw.mp4	0.0	165.72157216072083	1.000126838684082
21	125.21029591560364	movie	1		242	19.0	2.5	/experiments/knapen_AOT/AOT_stimuli/rescaled_final/0053_fw.mp4	0.0	166.7216989994049	2.4920971393585205
21	125.5945611000061	pulse	1	t		19.0	2.5	/experiments/knapen_AOT/AOT_stimuli/rescaled_final/0053_fw.mp4	0.0	167.10596418380737	
21	127.19406795501709	pulse	1	t		19.0	2.5	/experiments/knapen_AOT/AOT_stimuli/rescaled_final/0053_fw.mp4	0.0	168.70547103881836	
21	127.70239305496216	fix_post	2		12	19.0	2.5	/experiments/knapen_AOT/AOT_stimuli/rescaled_final/0053_fw.mp4	0.0	169.21379613876343	0.09998202323913574
22	127.8023750782013	fix_pre	0		120	20.0	2.5	/experiments/knapen_AOT/AOT_stimuli/rescaled_final/1213_fw.mp4	0.0	169.31377816200256	1.0001800060272217
22	128.7943639755249	pulse	0	t		20.0	2.5	/experiments/knapen_AOT/AOT_stimuli/rescaled_final/1213_fw.mp4	0.0	170.30576705932617	
22	128.80255508422852	movie	1		245	20.0	2.5	/experiments/knapen_AOT/AOT_stimuli/rescaled_final/1213_fw.mp4	0.0	170.31395816802979	2.508692979812622
22	130.39522004127502	pulse	1	t		20.0	2.5	/experiments/knapen_AOT/AOT_stimuli/rescaled_final/1213_fw.mp4	0.0	171.9066231250763	
22	131.31124806404114	fix_post	2		12	20.0	2.5	/experiments/knapen_AOT/AOT_stimuli/rescaled_final/1213_fw.mp4	0.0	172.8226511478424	0.10004401206970215
23	131.41129207611084	fix_pre	0		120	21.0	2.5	blank	1.0	172.9226951599121	1.0001118183135986
23	131.9948799610138	pulse	0	t		21.0	2.5	blank	1.0	173.50628304481506	
23	132.41140389442444	movie	1		300	21.0	2.5	blank	1.0	173.9228069782257	2.5003621578216553
23	133.5950949192047	pulse	1	t		21.0	2.5	blank	1.0	175.10649800300598	
23	134.9117660522461	fix_post	2		12	21.0	2.5	blank	1.0	176.42316913604736	0.10001397132873535
24	135.01178002357483	fix_pre	0		120	22.0	2.5	/experiments/knapen_AOT/AOT_stimuli/rescaled_final/1135_fw.mp4	0.0	176.5231831073761	1.0002100467681885
24	135.1954050064087	pulse	0	t		22.0	2.5	/experiments/knapen_AOT/AOT_stimuli/rescaled_final/1135_fw.mp4	0.0	176.70680809020996	
24	136.01199007034302	movie	1		244	22.0	2.5	/experiments/knapen_AOT/AOT_stimuli/rescaled_final/1135_fw.mp4	0.0	177.5233931541443	2.5003318786621094
24	136.79568099975586	pulse	1	t		22.0	2.5	/experiments/knapen_AOT/AOT_stimuli/rescaled_final/1135_fw.mp4	0.0	178.30708408355713	
24	138.39592695236206	pulse	1	t		22.0	2.5	/experiments/knapen_AOT/AOT_stimuli/rescaled_final/1135_fw.mp4	0.0	179.90733003616333	
24	138.51232194900513	fix_post	2		12	22.0	2.5	/experiments/knapen_AOT/AOT_stimuli/rescaled_final/1135_fw.mp4	0.0	180.0237250328064	0.10003495216369629
25	138.61235690116882	fix_pre	0		120	23.0	2.5	/experiments/knapen_AOT/AOT_stimuli/rescaled_final/0649_fw.mp4	0.0	180.1237599849701	1.0001521110534668
25	139.6125090122223	movie	1		242	23.0	2.5	/experiments/knapen_AOT/AOT_stimuli/rescaled_final/0649_fw.mp4	0.0	181.12391209602356	2.4921600818634033
25	139.99664092063904	pulse	1	t		23.0	2.5	/experiments/knapen_AOT/AOT_stimuli/rescaled_final/0649_fw.mp4	0.0	181.5080440044403	
25	141.59626507759094	pulse	1	t		23.0	2.5	/experiments/knapen_AOT/AOT_stimuli/rescaled_final/0649_fw.mp4	0.0	183.1076681613922	
25	142.1046690940857	fix_post	2		12	23.0	2.5	/experiments/knapen_AOT/AOT_stimuli/rescaled_final/0649_fw.mp4	0.0	183.61607217788696	0.09986090660095215
26	142.20453000068665	fix_pre	0		120	24.0	2.5	/experiments/knapen_AOT/AOT_stimuli/rescaled_final/0307_fw.mp4	0.0	183.71593308448792	1.0001111030578613
26	143.19663310050964	pulse	0	t		24.0	2.5	/experiments/knapen_AOT/AOT_stimuli/rescaled_final/0307_fw.mp4	0.0	184.7080361843109	
26	143.2046411037445	movie	1		243	24.0	2.5	/experiments/knapen_AOT/AOT_stimuli/rescaled_final/0307_fw.mp4	0.0	184.71604418754578	2.508847951889038
26	144.80115604400635	pulse	1	t		24.0	2.5	/experiments/knapen_AOT/AOT_stimuli/rescaled_final/0307_fw.mp4	0.0	186.31255912780762	
26	145.71348905563354	fix_post	2		12	24.0	2.5	/experiments/knapen_AOT/AOT_stimuli/rescaled_final/0307_fw.mp4	0.0	187.22489213943481	0.0999610424041748
27	145.81345009803772	fix_pre	0		120	25.0	2.5	/experiments/knapen_AOT/AOT_stimuli/rescaled_final/0410_rv.mp4	0.0	187.324853181839	1.0001659393310547
27	146.39701390266418	pulse	0	t		25.0	2.5	/experiments/knapen_AOT/AOT_stimuli/rescaled_final/0410_rv.mp4	0.0	187.90841698646545	
27	146.81361603736877	movie	1		244	25.0	2.5	/experiments/knapen_AOT/AOT_stimuli/rescaled_final/0410_rv.mp4	0.0	188.32501912117004	2.500311851501465
27	147.9931468963623	pulse	1	t		25.0	2.5	/experiments/knapen_AOT/AOT_stimuli/rescaled_final/0410_rv.mp4	0.0	189.50454998016357	
27	149.31392788887024	fix_post	2		12	25.0	2.5	/experiments/knapen_AOT/AOT_stimuli/rescaled_final/0410_rv.mp4	0.0	190.8253309726715	0.09997105598449707
28	149.41389894485474	fix_pre	0		120	26.0	2.5	blank	1.0	190.925302028656	1.0001959800720215
28	149.59754490852356	pulse	0	t		26.0	2.5	blank	1.0	191.10894799232483	
28	150.41409492492676	movie	1		300	26.0	2.5	blank	1.0	191.92549800872803	2.50039005279541
28	151.19782900810242	pulse	1	t		26.0	2.5	blank	1.0	192.7092320919037	
28	152.79787802696228	pulse	1	t		26.0	2.5	blank	1.0	194.30928111076355	
28	152.91448497772217	fix_post	2		12	26.0	2.5	blank	1.0	194.42588806152344	0.09998798370361328
29	153.01447296142578	fix_pre	0		120	27.0	2.5	/experiments/knapen_AOT/AOT_stimuli/rescaled_final/1266_rv.mp4	0.0	194.52587604522705	1.0001599788665771
29	154.01463294029236	movie	1		243	27.0	2.5	/experiments/knapen_AOT/AOT_stimuli/rescaled_final/1266_rv.mp4	0.0	195.52603602409363	2.4920430183410645
29	154.40259790420532	pulse	1	t		27.0	2.5	/experiments/knapen_AOT/AOT_stimuli/rescaled_final/1266_rv.mp4	0.0	195.9140009880066	
29	155.99840688705444	pulse	1	t		27.0	2.5	/experiments/knapen_AOT/AOT_stimuli/rescaled_final/1266_rv.mp4	0.0	197.5098099708557	
29	156.50667595863342	fix_post	2		12	27.0	2.5	/experiments/knapen_AOT/AOT_stimuli/rescaled_final/1266_rv.mp4	0.0	198.0180790424347	0.09995913505554199
30	156.60663509368896	fix_pre	0		120	28.0	2.5	/experiments/knapen_AOT/AOT_stimuli/rescaled_final/1060_rv.mp4	0.0	198.11803817749023	1.000135898590088
30	157.59876608848572	pulse	0	t		28.0	2.5	/experiments/knapen_AOT/AOT_stimuli/rescaled_final/1060_rv.mp4	0.0	199.110169172287	
30	157.60677099227905	movie	1		244	28.0	2.5	/experiments/knapen_AOT/AOT_stimuli/rescaled_final/1060_rv.mp4	0.0	199.11817407608032	2.5088589191436768
30	159.2001600265503	pulse	1	t		28.0	2.5	/experiments/knapen_AOT/AOT_stimuli/rescaled_final/1060_rv.mp4	0.0	200.71156311035156	
30	160.11562991142273	fix_post	2		8	28.0	2.5	/experiments/knapen_AOT/AOT_stimuli/rescaled_final/1060_rv.mp4	0.0	201.627032995224	0.09993100166320801
31	160.21556091308594	fix_pre	0		120	29.0	2.5	/experiments/knapen_AOT/AOT_stimuli/rescaled_final/1260_fw.mp4	0.0	201.7269639968872	1.0001301765441895
31	160.79914808273315	pulse	0	t		29.0	2.5	/experiments/knapen_AOT/AOT_stimuli/rescaled_final/1260_fw.mp4	0.0	202.31055116653442	
31	161.21569108963013	movie	1		244	29.0	2.5	/experiments/knapen_AOT/AOT_stimuli/rescaled_final/1260_fw.mp4	0.0	202.7270941734314	2.5003809928894043
31	162.39241290092468	pulse	1	t		29.0	2.5	/experiments/knapen_AOT/AOT_stimuli/rescaled_final/1260_fw.mp4	0.0	203.90381598472595	
31	163.71607208251953	fix_post	2		12	29.0	2.5	/experiments/knapen_AOT/AOT_stimuli/rescaled_final/1260_fw.mp4	0.0	205.2274751663208	0.10000300407409668
32	163.81607508659363	fix_pre	0		120	30.0	2.5	/experiments/knapen_AOT/AOT_stimuli/rescaled_final/1999_fw.mp4	0.0	205.3274781703949	1.0001928806304932
32	163.99205994606018	pulse	0	t		30.0	2.5	/experiments/knapen_AOT/AOT_stimuli/rescaled_final/1999_fw.mp4	0.0	205.50346302986145	
32	164.81626796722412	movie	1		242	30.0	2.5	/experiments/knapen_AOT/AOT_stimuli/rescaled_final/1999_fw.mp4	0.0	206.3276710510254	2.500473976135254
32	165.59239888191223	pulse	1	t		30.0	2.5	/experiments/knapen_AOT/AOT_stimuli/rescaled_final/1999_fw.mp4	0.0	207.1038019657135	
32	167.20011496543884	pulse	1	t		30.0	2.5	/experiments/knapen_AOT/AOT_stimuli/rescaled_final/1999_fw.mp4	0.0	208.7115180492401	
32	167.31674194335938	fix_post	2		12	30.0	2.5	/experiments/knapen_AOT/AOT_stimuli/rescaled_final/1999_fw.mp4	0.0	208.82814502716064	0.09987902641296387
33	167.41662096977234	fix_pre	0		120	31.0	2.5	/experiments/knapen_AOT/AOT_stimuli/rescaled_final/0380_fw.mp4	0.0	208.9280240535736	1.0001220703125
33	168.41674304008484	movie	1		241	31.0	2.5	/experiments/knapen_AOT/AOT_stimuli/rescaled_final/0380_fw.mp4	0.0	209.9281461238861	2.492121934890747
33	168.79208087921143	pulse	1	t		31.0	2.5	/experiments/knapen_AOT/AOT_stimuli/rescaled_final/0380_fw.mp4	0.0	210.3034839630127	
33	170.39234709739685	pulse	1	t		31.0	2.5	/experiments/knapen_AOT/AOT_stimuli/rescaled_final/0380_fw.mp4	0.0	211.90375018119812	
33	170.9088649749756	fix_post	2		12	31.0	2.5	/experiments/knapen_AOT/AOT_stimuli/rescaled_final/0380_fw.mp4	0.0	212.42026805877686	0.09995102882385254
34	171.00881600379944	fix_pre	0		119	32.0	2.5	/experiments/knapen_AOT/AOT_stimuli/rescaled_final/1531_fw.mp4	0.0	212.5202190876007	0.9918439388275146
34	171.99249505996704	pulse	0	t		32.0	2.5	/experiments/knapen_AOT/AOT_stimuli/rescaled_final/1531_fw.mp4	0.0	213.5038981437683	
34	172.00065994262695	movie	1		244	32.0	2.5	/experiments/knapen_AOT/AOT_stimuli/rescaled_final/1531_fw.mp4	0.0	213.51206302642822	2.5087640285491943
34	173.5935618877411	pulse	1	t		32.0	2.5	/experiments/knapen_AOT/AOT_stimuli/rescaled_final/1531_fw.mp4	0.0	215.10496497154236	
34	174.50942397117615	fix_post	2		12	32.0	2.5	/experiments/knapen_AOT/AOT_stimuli/rescaled_final/1531_fw.mp4	0.0	216.02082705497742	0.09991693496704102
35	174.6093409061432	fix_pre	0		120	33.0	2.5	blank	1.0	216.12074398994446	1.0001749992370605
35	175.192950963974	pulse	0	t		33.0	2.5	blank	1.0	216.70435404777527	
35	175.60951590538025	movie	1		300	33.0	2.5	blank	1.0	217.12091898918152	2.5003621578216553
35	176.79321908950806	pulse	1	t		33.0	2.5	blank	1.0	218.30462217330933	
35	178.1098780632019	fix_post	2		12	33.0	2.5	blank	1.0	219.62128114700317	0.10003304481506348
36	178.20991110801697	fix_pre	0		120	34.0	2.5	/experiments/knapen_AOT/AOT_stimuli/rescaled_final/0262_rv.mp4	0.0	219.72131419181824	1.0001709461212158
36	178.39343309402466	pulse	0	t		34.0	2.5	/experiments/knapen_AOT/AOT_stimuli/rescaled_final/0262_rv.mp4	0.0	219.90483617782593	
36	179.21008205413818	movie	1		246	34.0	2.5	/experiments/knapen_AOT/AOT_stimuli/rescaled_final/0262_rv.mp4	0.0	220.72148513793945	2.500339984893799
36	179.9936408996582	pulse	1	t		34.0	2.5	/experiments/knapen_AOT/AOT_stimuli/rescaled_final/0262_rv.mp4	0.0	221.50504398345947	
36	181.59391808509827	pulse	1	t		34.0	2.5	/experiments/knapen_AOT/AOT_stimuli/rescaled_final/0262_rv.mp4	0.0	223.10532116889954	
36	181.71042203903198	fix_post	2		12	34.0	2.5	/experiments/knapen_AOT/AOT_stimuli/rescaled_final/0262_rv.mp4	0.0	223.22182512283325	0.10002899169921875
37	181.8104510307312	fix_pre	0		120	35.0	2.5	/experiments/knapen_AOT/AOT_stimuli/rescaled_final/1664_rv.mp4	0.0	223.32185411453247	1.000128984451294
37	182.8105800151825	movie	1		242	35.0	2.5	/experiments/knapen_AOT/AOT_stimuli/rescaled_final/1664_rv.mp4	0.0	224.32198309898376	2.4920899868011475
37	183.19531393051147	pulse	1	t		35.0	2.5	/experiments/knapen_AOT/AOT_stimuli/rescaled_final/1664_rv.mp4	0.0	224.70671701431274	
37	184.79456305503845	pulse	1	t		35.0	2.5	/experiments/knapen_AOT/AOT_stimuli/rescaled_final/1664_rv.mp4	0.0	226.30596613883972	
37	185.30267000198364	fix_post	2		12	35.0	2.5	/experiments/knapen_AOT/AOT_stimuli/rescaled_final/1664_rv.mp4	0.0	226.8140730857849	0.09996509552001953
38	185.40263509750366	fix_pre	0		120	36.0	2.5	/experiments/knapen_AOT/AOT_stimuli/rescaled_final/0423_rv.mp4	0.0	226.91403818130493	1.000119924545288
38	186.39471411705017	pulse	0	t		36.0	2.5	/experiments/knapen_AOT/AOT_stimuli/rescaled_final/0423_rv.mp4	0.0	227.90611720085144	
38	186.40275502204895	movie	1		244	36.0	2.5	/experiments/knapen_AOT/AOT_stimuli/rescaled_final/0423_rv.mp4	0.0	227.91415810585022	2.5087740421295166
38	187.99542808532715	pulse	1	t		36.0	2.5	/experiments/knapen_AOT/AOT_stimuli/rescaled_final/0423_rv.mp4	0.0	229.50683116912842	
38	188.91152906417847	fix_post	2		12	36.0	2.5	/experiments/knapen_AOT/AOT_stimuli/rescaled_final/0423_rv.mp4	0.0	230.42293214797974	0.09997797012329102
39	189.01150703430176	fix_pre	0		120	37.0	2.5	/experiments/knapen_AOT/AOT_stimuli/rescaled_final/2064_fw.mp4	0.0	230.52291011810303	1.0001239776611328
39	189.59509897232056	pulse	0	t		37.0	2.5	/experiments/knapen_AOT/AOT_stimuli/rescaled_final/2064_fw.mp4	0.0	231.10650205612183	
39	190.0116310119629	movie	1		243	37.0	2.5	/experiments/knapen_AOT/AOT_stimuli/rescaled_final/2064_fw.mp4	0.0	231.52303409576416	2.500580072402954
39	191.19554901123047	pulse	1	t		37.0	2.5	/experiments/knapen_AOT/AOT_stimuli/rescaled_final/2064_fw.mp4	0.0	232.70695209503174	
39	192.51221108436584	fix_post	2		12	37.0	2.5	/experiments/knapen_AOT/AOT_stimuli/rescaled_final/2064_fw.mp4	0.0	234.02361416816711	0.09987092018127441
40	192.61208200454712	fix_pre	0		120	38.0	2.5	/experiments/knapen_AOT/AOT_stimuli/rescaled_final/1309_rv.mp4	0.0	234.1234850883484	1.000195026397705
40	192.7955720424652	pulse	0	t		38.0	2.5	/experiments/knapen_AOT/AOT_stimuli/rescaled_final/1309_rv.mp4	0.0	234.30697512626648	
40	193.61227703094482	movie	1		243	38.0	2.5	/experiments/knapen_AOT/AOT_stimuli/rescaled_final/1309_rv.mp4	0.0	235.1236801147461	2.5004169940948486
40	194.39586997032166	pulse	1	t		38.0	2.5	/experiments/knapen_AOT/AOT_stimuli/rescaled_final/1309_rv.mp4	0.0	235.90727305412292	
40	195.99594402313232	pulse	1	t		38.0	2.5	/experiments/knapen_AOT/AOT_stimuli/rescaled_final/1309_rv.mp4	0.0	237.5073471069336	
40	196.11269402503967	fix_post	2		12	38.0	2.5	/experiments/knapen_AOT/AOT_stimuli/rescaled_final/1309_rv.mp4	0.0	237.62409710884094	0.0998830795288086
41	196.21257710456848	fix_pre	0		120	39.0	2.5	/experiments/knapen_AOT/AOT_stimuli/rescaled_final/0496_rv.mp4	0.0	237.72398018836975	1.0001318454742432
41	197.21270895004272	movie	1		242	39.0	2.5	/experiments/knapen_AOT/AOT_stimuli/rescaled_final/0496_rv.mp4	0.0	238.724112033844	2.492141008377075
41	197.60056710243225	pulse	1	t		39.0	2.5	/experiments/knapen_AOT/AOT_stimuli/rescaled_final/0496_rv.mp4	0.0	239.11197018623352	
41	199.1967089176178	pulse	1	t		39.0	2.5	/experiments/knapen_AOT/AOT_stimuli/rescaled_final/0496_rv.mp4	0.0	240.70811200141907	
41	199.7048499584198	fix_post	2		12	39.0	2.5	/experiments/knapen_AOT/AOT_stimuli/rescaled_final/0496_rv.mp4	0.0	241.21625304222107	0.09989714622497559
42	199.80474710464478	fix_pre	0		120	40.0	2.5	blank	1.0	241.31615018844604	1.000152826309204
42	200.7968430519104	pulse	0	t		40.0	2.5	blank	1.0	242.30824613571167	
42	200.80489993095398	movie	1		301	40.0	2.5	blank	1.0	242.31630301475525	2.5087671279907227
42	202.3969690799713	pulse	1	t		40.0	2.5	blank	1.0	243.90837216377258	
42	203.3136670589447	fix_post	2		12	40.0	2.5	blank	1.0	244.82507014274597	0.10001587867736816
43	203.41368293762207	fix_pre	0		120	41.0	2.5	/experiments/knapen_AOT/AOT_stimuli/rescaled_final/0129_rv.mp4	0.0	244.92508602142334	1.0001001358032227
43	203.9972779750824	pulse	0	t		41.0	2.5	/experiments/knapen_AOT/AOT_stimuli/rescaled_final/0129_rv.mp4	0.0	245.50868105888367	
43	204.4137830734253	movie	1		242	41.0	2.5	/experiments/knapen_AOT/AOT_stimuli/rescaled_final/0129_rv.mp4	0.0	245.92518615722656	2.5004329681396484
43	205.59760904312134	pulse	1	t		41.0	2.5	/experiments/knapen_AOT/AOT_stimuli/rescaled_final/0129_rv.mp4	0.0	247.1090121269226	
43	206.91421604156494	fix_post	2		12	41.0	2.5	/experiments/knapen_AOT/AOT_stimuli/rescaled_final/0129_rv.mp4	0.0	248.4256191253662	0.10004091262817383
44	207.01425695419312	fix_pre	0		120	42.0	2.5	/experiments/knapen_AOT/AOT_stimuli/rescaled_final/1188_fw.mp4	0.0	248.52566003799438	1.0001389980316162
44	207.1978108882904	pulse	0	t		42.0	2.5	/experiments/knapen_AOT/AOT_stimuli/rescaled_final/1188_fw.mp4	0.0	248.70921397209167	
44	208.01439595222473	movie	1		243	42.0	2.5	/experiments/knapen_AOT/AOT_stimuli/rescaled_final/1188_fw.mp4	0.0	249.525799036026	2.500476121902466
44	208.79794311523438	pulse	1	t		42.0	2.5	/experiments/knapen_AOT/AOT_stimuli/rescaled_final/1188_fw.mp4	0.0	250.30934619903564	
44	210.39807605743408	pulse	1	t		42.0	2.5	/experiments/knapen_AOT/AOT_stimuli/rescaled_final/1188_fw.mp4	0.0	251.90947914123535	
44	210.5148720741272	fix_post	2		12	42.0	2.5	/experiments/knapen_AOT/AOT_stimuli/rescaled_final/1188_fw.mp4	0.0	252.02627515792847	0.09984302520751953
45	210.61471509933472	fix_pre	0		120	43.0	2.5	/experiments/knapen_AOT/AOT_stimuli/rescaled_final/1595_fw.mp4	0.0	252.126118183136	1.0001509189605713
45	211.6148660182953	movie	1		242	43.0	2.5	/experiments/knapen_AOT/AOT_stimuli/rescaled_final/1595_fw.mp4	0.0	253.12626910209656	2.49214506149292
45	211.9988660812378	pulse	1	t		43.0	2.5	/experiments/knapen_AOT/AOT_stimuli/rescaled_final/1595_fw.mp4	0.0	253.51026916503906	
45	213.59878993034363	pulse	1	t		43.0	2.5	/experiments/knapen_AOT/AOT_stimuli/rescaled_final/1595_fw.mp4	0.0	255.1101930141449	
45	214.1070110797882	fix_post	2		12	43.0	2.5	/experiments/knapen_AOT/AOT_stimuli/rescaled_final/1595_fw.mp4	0.0	255.61841416358948	0.09988689422607422
46	214.20689797401428	fix_pre	0		120	44.0	2.5	/experiments/knapen_AOT/AOT_stimuli/rescaled_final/0383_rv.mp4	0.0	255.71830105781555	1.0002150535583496
46	215.19146299362183	pulse	0	t		44.0	2.5	/experiments/knapen_AOT/AOT_stimuli/rescaled_final/0383_rv.mp4	0.0	256.7028660774231	
46	215.20711302757263	movie	1		244	44.0	2.5	/experiments/knapen_AOT/AOT_stimuli/rescaled_final/0383_rv.mp4	0.0	256.7185161113739	2.508746862411499
46	216.80035400390625	pulse	1	t		44.0	2.5	/experiments/knapen_AOT/AOT_stimuli/rescaled_final/0383_rv.mp4	0.0	258.3117570877075	
46	217.71585988998413	fix_post	2		12	44.0	2.5	/experiments/knapen_AOT/AOT_stimuli/rescaled_final/0383_rv.mp4	0.0	259.2272629737854	0.0999290943145752
47	217.8157889842987	fix_pre	0		120	45.0	2.5	/experiments/knapen_AOT/AOT_stimuli/rescaled_final/0346_fw.mp4	0.0	259.3271920681	1.0001380443572998
47	218.3919439315796	pulse	0	t		45.0	2.5	/experiments/knapen_AOT/AOT_stimuli/rescaled_final/0346_fw.mp4	0.0	259.90334701538086	
47	218.815927028656	movie	1		243	45.0	2.5	/experiments/knapen_AOT/AOT_stimuli/rescaled_final/0346_fw.mp4	0.0	260.3273301124573	2.500602960586548
47	219.99185299873352	pulse	1	t		45.0	2.5	/experiments/knapen_AOT/AOT_stimuli/rescaled_final/0346_fw.mp4	0.0	261.5032560825348	
47	221.31652998924255	fix_post	2		10	45.0	2.5	/experiments/knapen_AOT/AOT_stimuli/rescaled_final/0346_fw.mp4	0.0	262.8279330730438	0.09986090660095215
48	221.4163908958435	fix_pre	0		120	46.0	2.5	/experiments/knapen_AOT/AOT_stimuli/rescaled_final/0045_rv.mp4	0.0	262.9277939796448	1.0001649856567383
48	221.59170007705688	pulse	0	t		46.0	2.5	/experiments/knapen_AOT/AOT_stimuli/rescaled_final/0045_rv.mp4	0.0	263.10310316085815	
48	222.41655588150024	movie	1		242	46.0	2.5	/experiments/knapen_AOT/AOT_stimuli/rescaled_final/0045_rv.mp4	0.0	263.9279589653015	2.500495195388794
48	223.19186305999756	pulse	1	t		46.0	2.5	/experiments/knapen_AOT/AOT_stimuli/rescaled_final/0045_rv.mp4	0.0	264.7032661437988	
48	224.79200410842896	pulse	1	t		46.0	2.5	/experiments/knapen_AOT/AOT_stimuli/rescaled_final/0045_rv.mp4	0.0	266.3034071922302	
48	224.91705107688904	fix_post	2		12	46.0	2.5	/experiments/knapen_AOT/AOT_stimuli/rescaled_final/0045_rv.mp4	0.0	266.4284541606903	0.09985780715942383
49	225.01690888404846	fix_pre	0		119	47.0	2.5	/experiments/knapen_AOT/AOT_stimuli/rescaled_final/0679_rv.mp4	0.0	266.52831196784973	0.9917840957641602
49	226.00869297981262	movie	1		243	47.0	2.5	/experiments/knapen_AOT/AOT_stimuli/rescaled_final/0679_rv.mp4	0.0	267.5200960636139	2.500554084777832
49	226.3928279876709	pulse	1	t		47.0	2.5	/experiments/knapen_AOT/AOT_stimuli/rescaled_final/0679_rv.mp4	0.0	267.90423107147217	
49	227.99264192581177	pulse	1	t		47.0	2.5	/experiments/knapen_AOT/AOT_stimuli/rescaled_final/0679_rv.mp4	0.0	269.50404500961304	
49	228.50924706459045	fix_post	2		12	47.0	2.5	/experiments/knapen_AOT/AOT_stimuli/rescaled_final/0679_rv.mp4	0.0	270.0206501483917	0.09983682632446289
50	228.60908389091492	fix_pre	0		119	48.0	2.5	/experiments/knapen_AOT/AOT_stimuli/rescaled_final/2096_fw.mp4	0.0	270.1204869747162	0.9918651580810547
50	229.5928339958191	pulse	0	t		48.0	2.5	/experiments/knapen_AOT/AOT_stimuli/rescaled_final/2096_fw.mp4	0.0	271.10423707962036	
50	229.60094904899597	movie	1		245	48.0	2.5	/experiments/knapen_AOT/AOT_stimuli/rescaled_final/2096_fw.mp4	0.0	271.11235213279724	2.50871205329895
50	231.19410610198975	pulse	1	t		48.0	2.5	/experiments/knapen_AOT/AOT_stimuli/rescaled_final/2096_fw.mp4	0.0	272.705509185791	
50	232.10966110229492	fix_post	2		12	48.0	2.5	/experiments/knapen_AOT/AOT_stimuli/rescaled_final/2096_fw.mp4	0.0	273.6210641860962	0.09995293617248535
51	232.2096140384674	fix_pre	0		120	49.0	2.5	blank	1.0	273.7210171222687	1.0001308917999268
51	232.79317092895508	pulse	0	t		49.0	2.5	blank	1.0	274.30457401275635	
51	233.20974493026733	movie	1		300	49.0	2.5	blank	1.0	274.7211480140686	2.500380039215088
51	234.3934600353241	pulse	1	t		49.0	2.5	blank	1.0	275.90486311912537	
51	235.71012496948242	fix_post	2		12	49.0	2.5	blank	1.0	277.2215280532837	0.10006213188171387
52	235.81018710136414	fix_pre	0		120	50.0	2.5	/experiments/knapen_AOT/AOT_stimuli/rescaled_final/1025_fw.mp4	0.0	277.3215901851654	1.0001628398895264
52	235.99380707740784	pulse	0	t		50.0	2.5	/experiments/knapen_AOT/AOT_stimuli/rescaled_final/1025_fw.mp4	0.0	277.5052101612091	
52	236.81034994125366	movie	1		242	50.0	2.5	/experiments/knapen_AOT/AOT_stimuli/rescaled_final/1025_fw.mp4	0.0	278.32175302505493	2.500549077987671
52	237.59390497207642	pulse	1	t		50.0	2.5	/experiments/knapen_AOT/AOT_stimuli/rescaled_final/1025_fw.mp4	0.0	279.1053080558777	
52	239.19413709640503	pulse	1	t		50.0	2.5	/experiments/knapen_AOT/AOT_stimuli/rescaled_final/1025_fw.mp4	0.0	280.7055401802063	
52	239.31089901924133	fix_post	2		12	50.0	2.5	/experiments/knapen_AOT/AOT_stimuli/rescaled_final/1025_fw.mp4	0.0	280.8223021030426	0.09981799125671387
53	239.41071701049805	fix_pre	0		120	51.0	2.5	/experiments/knapen_AOT/AOT_stimuli/rescaled_final/0128_fw.mp4	0.0	280.9221200942993	1.0001239776611328
53	240.41084098815918	movie	1		241	51.0	2.5	/experiments/knapen_AOT/AOT_stimuli/rescaled_final/0128_fw.mp4	0.0	281.92224407196045	2.492079973220825
53	240.79503798484802	pulse	1	t		51.0	2.5	/experiments/knapen_AOT/AOT_stimuli/rescaled_final/0128_fw.mp4	0.0	282.3064410686493	
53	242.3947238922119	pulse	1	t		51.0	2.5	/experiments/knapen_AOT/AOT_stimuli/rescaled_final/0128_fw.mp4	0.0	283.9061269760132	
53	242.90292096138	fix_post	2		12	51.0	2.5	/experiments/knapen_AOT/AOT_stimuli/rescaled_final/0128_fw.mp4	0.0	284.4143240451813	0.09998202323913574
54	243.00290298461914	fix_pre	0		120	52.0	2.5	/experiments/knapen_AOT/AOT_stimuli/rescaled_final/1203_fw.mp4	0.0	284.5143060684204	1.0001330375671387
54	243.99491000175476	pulse	0	t		52.0	2.5	/experiments/knapen_AOT/AOT_stimuli/rescaled_final/1203_fw.mp4	0.0	285.50631308555603	
54	244.00303602218628	movie	1		244	52.0	2.5	/experiments/knapen_AOT/AOT_stimuli/rescaled_final/1203_fw.mp4	0.0	285.51443910598755	2.5087878704071045
54	245.59584593772888	pulse	1	t		52.0	2.5	/experiments/knapen_AOT/AOT_stimuli/rescaled_final/1203_fw.mp4	0.0	287.10724902153015	
54	246.51182389259338	fix_post	2		12	52.0	2.5	/experiments/knapen_AOT/AOT_stimuli/rescaled_final/1203_fw.mp4	0.0	288.02322697639465	0.09993600845336914
55	246.61175990104675	fix_pre	0		120	53.0	2.5	/experiments/knapen_AOT/AOT_stimuli/rescaled_final/1697_fw.mp4	0.0	288.123162984848	1.0001780986785889
55	247.19541311264038	pulse	0	t		53.0	2.5	/experiments/knapen_AOT/AOT_stimuli/rescaled_final/1697_fw.mp4	0.0	288.70681619644165	
55	247.61193799972534	movie	1		242	53.0	2.5	/experiments/knapen_AOT/AOT_stimuli/rescaled_final/1697_fw.mp4	0.0	289.1233410835266	2.5004889965057373
55	248.79575610160828	pulse	1	t		53.0	2.5	/experiments/knapen_AOT/AOT_stimuli/rescaled_final/1697_fw.mp4	0.0	290.30715918540955	
55	250.11242699623108	fix_post	2		12	53.0	2.5	/experiments/knapen_AOT/AOT_stimuli/rescaled_final/1697_fw.mp4	0.0	291.62383008003235	0.0998830795288086
56	250.2123100757599	fix_pre	0		120	54.0	2.5	/experiments/knapen_AOT/AOT_stimuli/rescaled_final/0740_fw.mp4	0.0	291.72371315956116	1.0001709461212158
56	250.39594292640686	pulse	0	t		54.0	2.5	/experiments/knapen_AOT/AOT_stimuli/rescaled_final/0740_fw.mp4	0.0	291.90734601020813	
56	251.2124810218811	movie	1		244	54.0	2.5	/experiments/knapen_AOT/AOT_stimuli/rescaled_final/0740_fw.mp4	0.0	292.7238841056824	2.5003280639648438
56	251.99605202674866	pulse	1	t		54.0	2.5	/experiments/knapen_AOT/AOT_stimuli/rescaled_final/0740_fw.mp4	0.0	293.5074551105499	
56	253.59651494026184	pulse	1	t		54.0	2.5	/experiments/knapen_AOT/AOT_stimuli/rescaled_final/0740_fw.mp4	0.0	295.1079180240631	
56	253.71280908584595	fix_post	2		12	54.0	2.5	/experiments/knapen_AOT/AOT_stimuli/rescaled_final/0740_fw.mp4	0.0	295.2242121696472	0.10002899169921875
57	253.81283807754517	fix_pre	0		120	55.0	2.5	blank	1.0	295.32424116134644	1.0002458095550537
57	254.81308388710022	movie	1		299	55.0	2.5	blank	1.0	296.3244869709015	2.4919490814208984
57	255.19659304618835	pulse	1	t		55.0	2.5	blank	1.0	296.7079961299896	
57	256.7968440055847	pulse	1	t		55.0	2.5	blank	1.0	298.308247089386	
57	257.3050329685211	fix_post	2		12	55.0	2.5	blank	1.0	298.8164360523224	0.10005807876586914
58	257.405091047287	fix_pre	0		120	56.0	2.5	/experiments/knapen_AOT/AOT_stimuli/rescaled_final/0299_rv.mp4	0.0	298.91649413108826	1.0000648498535156
58	258.3969769477844	pulse	0	t		56.0	2.5	/experiments/knapen_AOT/AOT_stimuli/rescaled_final/0299_rv.mp4	0.0	299.9083800315857	
58	258.4051558971405	movie	1		244	56.0	2.5	/experiments/knapen_AOT/AOT_stimuli/rescaled_final/0299_rv.mp4	0.0	299.9165589809418	2.508815050125122
58	259.9979259967804	pulse	1	t		56.0	2.5	/experiments/knapen_AOT/AOT_stimuli/rescaled_final/0299_rv.mp4	0.0	301.50932908058167	
58	260.9139709472656	fix_post	2		12	56.0	2.5	/experiments/knapen_AOT/AOT_stimuli/rescaled_final/0299_rv.mp4	0.0	302.4253740310669	0.09994316101074219
59	261.01391410827637	fix_pre	0		120	57.0	2.5	/experiments/knapen_AOT/AOT_stimuli/rescaled_final/0161_fw.mp4	0.0	302.52531719207764	1.000187873840332
59	261.5975739955902	pulse	0	t		57.0	2.5	/experiments/knapen_AOT/AOT_stimuli/rescaled_final/0161_fw.mp4	0.0	303.1089770793915	
59	262.0141019821167	movie	1		242	57.0	2.5	/experiments/knapen_AOT/AOT_stimuli/rescaled_final/0161_fw.mp4	0.0	303.52550506591797	2.5005578994750977
59	263.19787406921387	pulse	1	t		57.0	2.5	/experiments/knapen_AOT/AOT_stimuli/rescaled_final/0161_fw.mp4	0.0	304.70927715301514	
59	264.5146598815918	fix_post	2		12	57.0	2.5	/experiments/knapen_AOT/AOT_stimuli/rescaled_final/0161_fw.mp4	0.0	306.02606296539307	0.09979915618896484
60	264.61445903778076	fix_pre	0		120	58.0	2.5	/experiments/knapen_AOT/AOT_stimuli/rescaled_final/0380_rv.mp4	0.0	306.12586212158203	1.0001840591430664
60	264.797945022583	pulse	0	t		58.0	2.5	/experiments/knapen_AOT/AOT_stimuli/rescaled_final/0380_rv.mp4	0.0	306.3093481063843	
60	265.6146430969238	movie	1		242	58.0	2.5	/experiments/knapen_AOT/AOT_stimuli/rescaled_final/0380_rv.mp4	0.0	307.1260461807251	2.500548839569092
60	266.3982388973236	pulse	1	t		58.0	2.5	/experiments/knapen_AOT/AOT_stimuli/rescaled_final/0380_rv.mp4	0.0	307.9096419811249	
60	267.9982750415802	pulse	1	t		58.0	2.5	/experiments/knapen_AOT/AOT_stimuli/rescaled_final/0380_rv.mp4	0.0	309.50967812538147	
60	268.1151919364929	fix_post	2		12	58.0	2.5	/experiments/knapen_AOT/AOT_stimuli/rescaled_final/0380_rv.mp4	0.0	309.6265950202942	0.09987211227416992
61	268.2150640487671	fix_pre	0		120	59.0	2.5	/experiments/knapen_AOT/AOT_stimuli/rescaled_final/1060_rv.mp4	0.0	309.72646713256836	1.000166893005371
61	269.21523094177246	movie	1		242	59.0	2.5	/experiments/knapen_AOT/AOT_stimuli/rescaled_final/1060_rv.mp4	0.0	310.72663402557373	2.491995096206665
61	269.59941601753235	pulse	1	t		59.0	2.5	/experiments/knapen_AOT/AOT_stimuli/rescaled_final/1060_rv.mp4	0.0	311.1108191013336	
61	271.1989130973816	pulse	1	t		59.0	2.5	/experiments/knapen_AOT/AOT_stimuli/rescaled_final/1060_rv.mp4	0.0	312.71031618118286	
61	271.7072260379791	fix_post	2		12	59.0	2.5	/experiments/knapen_AOT/AOT_stimuli/rescaled_final/1060_rv.mp4	0.0	313.2186291217804	0.10000205039978027
62	271.8072280883789	fix_pre	0		120	60.0	2.5	/experiments/knapen_AOT/AOT_stimuli/rescaled_final/0276_fw.mp4	0.0	313.3186311721802	1.0001540184020996
62	272.7916030883789	pulse	0	t		60.0	2.5	/experiments/knapen_AOT/AOT_stimuli/rescaled_final/0276_fw.mp4	0.0	314.3030061721802	
62	272.807382106781	movie	1		243	60.0	2.5	/experiments/knapen_AOT/AOT_stimuli/rescaled_final/0276_fw.mp4	0.0	314.3187851905823	2.5087227821350098
62	274.399924993515	pulse	1	t		60.0	2.5	/experiments/knapen_AOT/AOT_stimuli/rescaled_final/0276_fw.mp4	0.0	315.9113280773163	
62	275.316104888916	fix_post	2		12	60.0	2.5	/experiments/knapen_AOT/AOT_stimuli/rescaled_final/0276_fw.mp4	0.0	316.8275079727173	0.09999299049377441
63	275.4160978794098	fix_pre	0		120	61.0	2.5	blank	1.0	316.92750096321106	1.0001471042633057
63	275.99131894111633	pulse	0	t		61.0	2.5	blank	1.0	317.5027220249176	
63	276.4162449836731	movie	1		300	61.0	2.5	blank	1.0	317.92764806747437	2.500385046005249
63	277.59157705307007	pulse	1	t		61.0	2.5	blank	1.0	319.10298013687134	
63	278.91663002967834	fix_post	2		12	61.0	2.5	blank	1.0	320.4280331134796	0.10000896453857422
64	279.0166389942169	fix_pre	0		120	62.0	2.5	/experiments/knapen_AOT/AOT_stimuli/rescaled_final/0061_rv.mp4	0.0	320.5280420780182	1.0001239776611328
64	279.1918270587921	pulse	0	t		62.0	2.5	/experiments/knapen_AOT/AOT_stimuli/rescaled_final/0061_rv.mp4	0.0	320.7032301425934	
64	280.01676297187805	movie	1		243	62.0	2.5	/experiments/knapen_AOT/AOT_stimuli/rescaled_final/0061_rv.mp4	0.0	321.5281660556793	2.5004191398620605
64	280.79205989837646	pulse	1	t		62.0	2.5	/experiments/knapen_AOT/AOT_stimuli/rescaled_final/0061_rv.mp4	0.0	322.30346298217773	
64	282.3924009799957	pulse	1	t		62.0	2.5	/experiments/knapen_AOT/AOT_stimuli/rescaled_final/0061_rv.mp4	0.0	323.903804063797	
64	282.5171821117401	fix_post	2		12	62.0	2.5	/experiments/knapen_AOT/AOT_stimuli/rescaled_final/0061_rv.mp4	0.0	324.0285851955414	0.10002779960632324
65	282.61720991134644	fix_pre	0		119	63.0	2.5	/experiments/knapen_AOT/AOT_stimuli/rescaled_final/0557_fw.mp4	0.0	324.1286129951477	0.9917590618133545
65	283.6089689731598	movie	1		240	63.0	2.5	/experiments/knapen_AOT/AOT_stimuli/rescaled_final/0557_fw.mp4	0.0	325.12037205696106	2.5004889965057373
65	283.99649810791016	pulse	1	t		63.0	2.5	/experiments/knapen_AOT/AOT_stimuli/rescaled_final/0557_fw.mp4	0.0	325.5079011917114	
65	285.5928020477295	pulse	1	t		63.0	2.5	/experiments/knapen_AOT/AOT_stimuli/rescaled_final/0557_fw.mp4	0.0	327.10420513153076	
65	286.1094579696655	fix_post	2		12	63.0	2.5	/experiments/knapen_AOT/AOT_stimuli/rescaled_final/0557_fw.mp4	0.0	327.6208610534668	0.09989809989929199
66	286.2093560695648	fix_pre	0		119	64.0	2.5	/experiments/knapen_AOT/AOT_stimuli/rescaled_final/0633_rv.mp4	0.0	327.7207591533661	0.9918968677520752
66	287.19294810295105	pulse	0	t		64.0	2.5	/experiments/knapen_AOT/AOT_stimuli/rescaled_final/0633_rv.mp4	0.0	328.7043511867523	
66	287.2012529373169	movie	1		243	64.0	2.5	/experiments/knapen_AOT/AOT_stimuli/rescaled_final/0633_rv.mp4	0.0	328.71265602111816	2.508650064468384
66	288.7937750816345	pulse	1	t		64.0	2.5	/experiments/knapen_AOT/AOT_stimuli/rescaled_final/0633_rv.mp4	0.0	330.3051781654358	
66	289.7099030017853	fix_post	2		12	64.0	2.5	/experiments/knapen_AOT/AOT_stimuli/rescaled_final/0633_rv.mp4	0.0	331.22130608558655	0.09998607635498047
67	289.80988907814026	fix_pre	0		120	65.0	2.5	/experiments/knapen_AOT/AOT_stimuli/rescaled_final/1139_fw.mp4	0.0	331.3212921619415	1.0001578330993652
67	290.39361095428467	pulse	0	t		65.0	2.5	/experiments/knapen_AOT/AOT_stimuli/rescaled_final/1139_fw.mp4	0.0	331.90501403808594	
67	290.8100469112396	movie	1		243	65.0	2.5	/experiments/knapen_AOT/AOT_stimuli/rescaled_final/1139_fw.mp4	0.0	332.3214499950409	2.5005290508270264
67	291.9938280582428	pulse	1	t		65.0	2.5	/experiments/knapen_AOT/AOT_stimuli/rescaled_final/1139_fw.mp4	0.0	333.50523114204407	
67	293.31057596206665	fix_post	2		12	65.0	2.5	/experiments/knapen_AOT/AOT_stimuli/rescaled_final/1139_fw.mp4	0.0	334.8219790458679	0.09991312026977539
68	293.4104890823364	fix_pre	0		120	66.0	2.5	/experiments/knapen_AOT/AOT_stimuli/rescaled_final/0818_fw.mp4	0.0	334.9218921661377	1.0000698566436768
68	293.5939350128174	pulse	0	t		66.0	2.5	/experiments/knapen_AOT/AOT_stimuli/rescaled_final/0818_fw.mp4	0.0	335.10533809661865	
68	294.4105589389801	movie	1		242	66.0	2.5	/experiments/knapen_AOT/AOT_stimuli/rescaled_final/0818_fw.mp4	0.0	335.9219620227814	2.5005741119384766
68	295.1943199634552	pulse	1	t		66.0	2.5	/experiments/knapen_AOT/AOT_stimuli/rescaled_final/0818_fw.mp4	0.0	336.70572304725647	
68	296.79439902305603	pulse	1	t		66.0	2.5	/experiments/knapen_AOT/AOT_stimuli/rescaled_final/0818_fw.mp4	0.0	338.3058021068573	
68	296.9111330509186	fix_post	2		12	66.0	2.5	/experiments/knapen_AOT/AOT_stimuli/rescaled_final/0818_fw.mp4	0.0	338.42253613471985	0.09984302520751953
69	297.0109760761261	fix_pre	0		119	67.0	2.5	/experiments/knapen_AOT/AOT_stimuli/rescaled_final/0020_rv.mp4	0.0	338.52237915992737	0.9917688369750977
69	298.0027449131012	movie	1		243	67.0	2.5	/experiments/knapen_AOT/AOT_stimuli/rescaled_final/0020_rv.mp4	0.0	339.51414799690247	2.5004420280456543
69	298.39489102363586	pulse	1	t		67.0	2.5	/experiments/knapen_AOT/AOT_stimuli/rescaled_final/0020_rv.mp4	0.0	339.90629410743713	
69	299.99493193626404	pulse	1	t		67.0	2.5	/experiments/knapen_AOT/AOT_stimuli/rescaled_final/0020_rv.mp4	0.0	341.5063350200653	
69	300.50318694114685	fix_post	2		12	67.0	2.5	/experiments/knapen_AOT/AOT_stimuli/rescaled_final/0020_rv.mp4	0.0	342.0145900249481	0.10003113746643066
70	300.6032180786133	fix_pre	0		120	68.0	2.5	/experiments/knapen_AOT/AOT_stimuli/rescaled_final/0346_rv.mp4	0.0	342.11462116241455	1.000074863433838
70	301.5951418876648	pulse	0	t		68.0	2.5	/experiments/knapen_AOT/AOT_stimuli/rescaled_final/0346_rv.mp4	0.0	343.10654497146606	
70	301.6032929420471	movie	1		244	68.0	2.5	/experiments/knapen_AOT/AOT_stimuli/rescaled_final/0346_rv.mp4	0.0	343.1146960258484	2.5088069438934326
70	303.1967029571533	pulse	1	t		68.0	2.5	/experiments/knapen_AOT/AOT_stimuli/rescaled_final/0346_rv.mp4	0.0	344.7081060409546	
70	304.11209988594055	fix_post	2		12	68.0	2.5	/experiments/knapen_AOT/AOT_stimuli/rescaled_final/0346_rv.mp4	0.0	345.6235029697418	0.09996318817138672
71	304.21206307411194	fix_pre	0		120	69.0	2.5	blank	1.0	345.7234661579132	1.000166893005371
71	304.79575300216675	pulse	0	t		69.0	2.5	blank	1.0	346.307156085968	
71	305.2122299671173	movie	1		300	69.0	2.5	blank	1.0	346.7236330509186	2.5003700256347656
71	306.3958899974823	pulse	1	t		69.0	2.5	blank	1.0	347.90729308128357	
71	307.7125999927521	fix_post	2		12	69.0	2.5	blank	1.0	349.22400307655334	0.10004591941833496
72	307.8126459121704	fix_pre	0		120	70.0	2.5	/experiments/knapen_AOT/AOT_stimuli/rescaled_final/1325_fw.mp4	0.0	349.3240489959717	1.0000829696655273
72	307.99608302116394	pulse	0	t		70.0	2.5	/experiments/knapen_AOT/AOT_stimuli/rescaled_final/1325_fw.mp4	0.0	349.5074861049652	
72	308.81272888183594	movie	1		242	70.0	2.5	/experiments/knapen_AOT/AOT_stimuli/rescaled_final/1325_fw.mp4	0.0	350.3241319656372	2.500549077987671
72	309.59640407562256	pulse	1	t		70.0	2.5	/experiments/knapen_AOT/AOT_stimuli/rescaled_final/1325_fw.mp4	0.0	351.1078071594238	
72	311.1972780227661	pulse	1	t		70.0	2.5	/experiments/knapen_AOT/AOT_stimuli/rescaled_final/1325_fw.mp4	0.0	352.7086811065674	
72	311.3132779598236	fix_post	2		12	70.0	2.5	/experiments/knapen_AOT/AOT_stimuli/rescaled_final/1325_fw.mp4	0.0	352.8246810436249	0.09990215301513672
73	311.41318011283875	fix_pre	0		119	71.0	2.5	/experiments/knapen_AOT/AOT_stimuli/rescaled_final/0096_rv.mp4	0.0	352.92458319664	0.9917538166046143
73	312.40493392944336	movie	1		242	71.0	2.5	/experiments/knapen_AOT/AOT_stimuli/rescaled_final/0096_rv.mp4	0.0	353.91633701324463	2.5005781650543213
73	312.79688811302185	pulse	1	t		71.0	2.5	/experiments/knapen_AOT/AOT_stimuli/rescaled_final/0096_rv.mp4	0.0	354.3082911968231	
73	314.3970699310303	pulse	1	t		71.0	2.5	/experiments/knapen_AOT/AOT_stimuli/rescaled_final/0096_rv.mp4	0.0	355.90847301483154	
73	314.9055120944977	fix_post	2		12	71.0	2.5	/experiments/knapen_AOT/AOT_stimuli/rescaled_final/0096_rv.mp4	0.0	356.41691517829895	0.0998837947845459
74	315.0053958892822	fix_pre	0		120	72.0	2.5	/experiments/knapen_AOT/AOT_stimuli/rescaled_final/2027_fw.mp4	0.0	356.5167989730835	1.0001561641693115
74	315.99731397628784	pulse	0	t		72.0	2.5	/experiments/knapen_AOT/AOT_stimuli/rescaled_final/2027_fw.mp4	0.0	357.5087170600891	
74	316.00555205345154	movie	1		244	72.0	2.5	/experiments/knapen_AOT/AOT_stimuli/rescaled_final/2027_fw.mp4	0.0	357.5169551372528	2.508744955062866
74	317.59810304641724	pulse	1	t		72.0	2.5	/experiments/knapen_AOT/AOT_stimuli/rescaled_final/2027_fw.mp4	0.0	359.1095061302185	
74	318.5142970085144	fix_post	2		12	72.0	2.5	/experiments/knapen_AOT/AOT_stimuli/rescaled_final/2027_fw.mp4	0.0	360.0257000923157	0.09990787506103516
75	318.61420488357544	fix_pre	0		120	73.0	2.5	/experiments/knapen_AOT/AOT_stimuli/rescaled_final/0445_rv.mp4	0.0	360.1256079673767	1.0001721382141113
75	319.1977961063385	pulse	0	t		73.0	2.5	/experiments/knapen_AOT/AOT_stimuli/rescaled_final/0445_rv.mp4	0.0	360.70919919013977	
75	319.61437702178955	movie	1		242	73.0	2.5	/experiments/knapen_AOT/AOT_stimuli/rescaled_final/0445_rv.mp4	0.0	361.1257801055908	2.5005040168762207
75	320.7980999946594	pulse	1	t		73.0	2.5	/experiments/knapen_AOT/AOT_stimuli/rescaled_final/0445_rv.mp4	0.0	362.3095030784607	
75	322.11488103866577	fix_post	2		12	73.0	2.5	/experiments/knapen_AOT/AOT_stimuli/rescaled_final/0445_rv.mp4	0.0	363.62628412246704	0.09984588623046875
76	322.21472692489624	fix_pre	0		120	74.0	2.5	/experiments/knapen_AOT/AOT_stimuli/rescaled_final/2096_rv.mp4	0.0	363.7261300086975	1.0001449584960938
76	322.398295879364	pulse	0	t		74.0	2.5	/experiments/knapen_AOT/AOT_stimuli/rescaled_final/2096_rv.mp4	0.0	363.9096989631653	
76	323.21487188339233	movie	1		244	74.0	2.5	/experiments/knapen_AOT/AOT_stimuli/rescaled_final/2096_rv.mp4	0.0	364.7262749671936	2.5004730224609375
76	323.99860191345215	pulse	1	t		74.0	2.5	/experiments/knapen_AOT/AOT_stimuli/rescaled_final/2096_rv.mp4	0.0	365.5100049972534	
76	325.59884810447693	pulse	1	t		74.0	2.5	/experiments/knapen_AOT/AOT_stimuli/rescaled_final/2096_rv.mp4	0.0	367.1102511882782	
76	325.71534490585327	fix_post	2		12	74.0	2.5	/experiments/knapen_AOT/AOT_stimuli/rescaled_final/2096_rv.mp4	0.0	367.22674798965454	0.09999418258666992
77	325.81533908843994	fix_pre	0		120	75.0	2.5	blank	1.0	367.3267421722412	1.0001130104064941
77	326.81545209884644	movie	1		299	75.0	2.5	blank	1.0	368.3268551826477	2.492050886154175
77	327.1989369392395	pulse	1	t		75.0	2.5	blank	1.0	368.71034002304077	
77	328.79922103881836	pulse	1	t		75.0	2.5	blank	1.0	370.31062412261963	
77	329.3075029850006	fix_post	2		12	75.0	2.5	blank	1.0	370.8189060688019	0.09997296333312988
78	329.40747594833374	fix_pre	0		120	76.0	2.5	/experiments/knapen_AOT/AOT_stimuli/rescaled_final/0157_rv.mp4	0.0	370.918879032135	1.000143051147461
78	330.3921010494232	pulse	0	t		76.0	2.5	/experiments/knapen_AOT/AOT_stimuli/rescaled_final/0157_rv.mp4	0.0	371.9035041332245	
78	330.4076189994812	movie	1		243	76.0	2.5	/experiments/knapen_AOT/AOT_stimuli/rescaled_final/0157_rv.mp4	0.0	371.91902208328247	2.508739948272705
78	332.0003728866577	pulse	1	t		76.0	2.5	/experiments/knapen_AOT/AOT_stimuli/rescaled_final/0157_rv.mp4	0.0	373.511775970459	
78	332.9163589477539	fix_post	2		12	76.0	2.5	/experiments/knapen_AOT/AOT_stimuli/rescaled_final/0157_rv.mp4	0.0	374.4277620315552	0.09999394416809082
79	333.016352891922	fix_pre	0		120	77.0	2.5	/experiments/knapen_AOT/AOT_stimuli/rescaled_final/1201_rv.mp4	0.0	374.52775597572327	1.000171184539795
79	333.5923581123352	pulse	0	t		77.0	2.5	/experiments/knapen_AOT/AOT_stimuli/rescaled_final/1201_rv.mp4	0.0	375.1037611961365	
79	334.0165240764618	movie	1		243	77.0	2.5	/experiments/knapen_AOT/AOT_stimuli/rescaled_final/1201_rv.mp4	0.0	375.52792716026306	2.5004119873046875
79	335.1922950744629	pulse	1	t		77.0	2.5	/experiments/knapen_AOT/AOT_stimuli/rescaled_final/1201_rv.mp4	0.0	376.70369815826416	
79	336.5169360637665	fix_post	2		12	77.0	2.5	/experiments/knapen_AOT/AOT_stimuli/rescaled_final/1201_rv.mp4	0.0	378.02833914756775	0.09993791580200195
80	336.6168739795685	fix_pre	0		120	78.0	2.5	/experiments/knapen_AOT/AOT_stimuli/rescaled_final/0281_rv.mp4	0.0	378.12827706336975	1.0002219676971436
80	336.7922160625458	pulse	0	t		78.0	2.5	/experiments/knapen_AOT/AOT_stimuli/rescaled_final/0281_rv.mp4	0.0	378.30361914634705	
80	337.6170959472656	movie	1		243	78.0	2.5	/experiments/knapen_AOT/AOT_stimuli/rescaled_final/0281_rv.mp4	0.0	379.1284990310669	2.5004191398620605
80	338.3922460079193	pulse	1	t		78.0	2.5	/experiments/knapen_AOT/AOT_stimuli/rescaled_final/0281_rv.mp4	0.0	379.9036490917206	
80	339.9925630092621	pulse	1	t		78.0	2.5	/experiments/knapen_AOT/AOT_stimuli/rescaled_final/0281_rv.mp4	0.0	381.50396609306335	
80	340.1175150871277	fix_post	2		12	78.0	2.5	/experiments/knapen_AOT/AOT_stimuli/rescaled_final/0281_rv.mp4	0.0	381.62891817092896	0.10001301765441895
81	340.2175281047821	fix_pre	0		120	79.0	2.5	/experiments/knapen_AOT/AOT_stimuli/rescaled_final/1135_rv.mp4	0.0	381.7289311885834	1.000093936920166
81	341.21762204170227	movie	1		243	79.0	2.5	/experiments/knapen_AOT/AOT_stimuli/rescaled_final/1135_rv.mp4	0.0	382.72902512550354	2.4920480251312256
81	341.5928339958191	pulse	1	t		79.0	2.5	/experiments/knapen_AOT/AOT_stimuli/rescaled_final/1135_rv.mp4	0.0	383.10423707962036	
81	343.1930820941925	pulse	1	t		79.0	2.5	/experiments/knapen_AOT/AOT_stimuli/rescaled_final/1135_rv.mp4	0.0	384.7044851779938	
81	343.7096700668335	fix_post	2		12	79.0	2.5	/experiments/knapen_AOT/AOT_stimuli/rescaled_final/1135_rv.mp4	0.0	385.22107315063477	0.09993982315063477
82	343.80960988998413	fix_pre	0		119	80.0	2.5	/experiments/knapen_AOT/AOT_stimuli/rescaled_final/0836_fw.mp4	0.0	385.3210129737854	0.9918510913848877
82	344.7933859825134	pulse	0	t		80.0	2.5	/experiments/knapen_AOT/AOT_stimuli/rescaled_final/0836_fw.mp4	0.0	386.3047890663147	
82	344.801460981369	movie	1		244	80.0	2.5	/experiments/knapen_AOT/AOT_stimuli/rescaled_final/0836_fw.mp4	0.0	386.3128640651703	2.5087010860443115
82	346.3942561149597	pulse	1	t		80.0	2.5	/experiments/knapen_AOT/AOT_stimuli/rescaled_final/0836_fw.mp4	0.0	387.905659198761	
82	347.31016206741333	fix_post	2		10	80.0	2.5	/experiments/knapen_AOT/AOT_stimuli/rescaled_final/0836_fw.mp4	0.0	388.8215651512146	0.10002303123474121
83	347.41018509864807	fix_pre	0		120	81.0	2.5	/experiments/knapen_AOT/AOT_stimuli/rescaled_final/0750_fw.mp4	0.0	388.92158818244934	1.0001349449157715
83	347.99373507499695	pulse	0	t		81.0	2.5	/experiments/knapen_AOT/AOT_stimuli/rescaled_final/0750_fw.mp4	0.0	389.5051381587982	
83	348.41032004356384	movie	1		243	81.0	2.5	/experiments/knapen_AOT/AOT_stimuli/rescaled_final/0750_fw.mp4	0.0	389.9217231273651	2.5003859996795654
83	349.5940659046173	pulse	1	t		81.0	2.5	/experiments/knapen_AOT/AOT_stimuli/rescaled_final/0750_fw.mp4	0.0	391.1054689884186	
83	350.9107060432434	fix_post	2		12	81.0	2.5	/experiments/knapen_AOT/AOT_stimuli/rescaled_final/0750_fw.mp4	0.0	392.4221091270447	0.10001301765441895
84	351.0107190608978	fix_pre	0		120	82.0	2.5	/experiments/knapen_AOT/AOT_stimuli/rescaled_final/0797_rv.mp4	0.0	392.5221221446991	1.0000839233398438
84	351.1943440437317	pulse	0	t		82.0	2.5	/experiments/knapen_AOT/AOT_stimuli/rescaled_final/0797_rv.mp4	0.0	392.70574712753296	
84	352.01080298423767	movie	1		243	82.0	2.5	/experiments/knapen_AOT/AOT_stimuli/rescaled_final/0797_rv.mp4	0.0	393.52220606803894	2.5006349086761475
84	352.7944459915161	pulse	1	t		82.0	2.5	/experiments/knapen_AOT/AOT_stimuli/rescaled_final/0797_rv.mp4	0.0	394.3058490753174	
84	354.39479303359985	pulse	1	t		82.0	2.5	/experiments/knapen_AOT/AOT_stimuli/rescaled_final/0797_rv.mp4	0.0	395.9061961174011	
84	354.5114378929138	fix_post	2		12	82.0	2.5	/experiments/knapen_AOT/AOT_stimuli/rescaled_final/0797_rv.mp4	0.0	396.0228409767151	0.09991621971130371
85	354.6113541126251	fix_pre	0		120	83.0	2.5	blank	1.0	396.1227571964264	0.9999969005584717
85	355.6113510131836	movie	1		299	83.0	2.5	blank	1.0	397.12275409698486	2.4920620918273926
85	355.995001077652	pulse	1	t		83.0	2.5	blank	1.0	397.50640416145325	
85	357.59524488449097	pulse	1	t		83.0	2.5	blank	1.0	399.10664796829224	
85	358.103413105011	fix_post	2		12	83.0	2.5	blank	1.0	399.61481618881226	0.10001683235168457
87	358.20342993736267	stim	0		1716					399.71483302116394	14.302215099334717
87	359.19549202919006	pulse	0	t						400.70689511299133	
87	360.7956359386444	pulse	0	t						402.3070390224457	
87	362.39589190483093	pulse	0	t						403.9072949886322	
87	363.99618697166443	pulse	0	t						405.5075900554657	
87	365.5963909626007	pulse	0	t						407.107794046402	
87	367.1966540813446	pulse	0	t						408.7080571651459	
87	368.7968420982361	pulse	0	t						410.30824518203735	
87	370.3970808982849	pulse	0	t						411.9084839820862	
87	371.99732089042664	pulse	0	t						413.5087239742279	
