trial_nr	onset	event_type	phase	response	nr_frames	movie_index	movie_duration	movie_file	blank	onset_abs	duration
0	0.1499159336090088	stim	0		78					19.658220052719116	0.6668660640716553
0	0.791956901550293	response	0	space						20.3002610206604	
1	0.8167819976806641	stim	0		4467					20.32508611679077	37.22464990615845
1	38.030492067337036	pulse	0	t						57.538796186447144	
1	38.04143190383911	stim	1		1717					57.54973602294922	14.308243036270142
1	39.62567090988159	pulse	1	t						59.1339750289917	
1	41.233412981033325	pulse	1	t						60.74171710014343	
1	42.833112955093384	pulse	1	t						62.34141707420349	
1	44.43324089050293	pulse	1	t						63.94154500961304	
1	46.02560591697693	pulse	1	t						65.53391003608704	
1	47.62559700012207	pulse	1	t						67.13390111923218	
1	49.22569298744202	pulse	1	t						68.73399710655212	
1	50.825583934783936	pulse	1	t						70.33388805389404	
2	52.34967494010925	fix_pre	0		11	0.0	2.5	/experiments/aot/R_S_ILSVRC2015_train_00415007.mp4	0.0	71.85797905921936	0.09169197082519531
2	52.4256010055542	pulse	0	t		0.0	2.5	/experiments/aot/R_S_ILSVRC2015_train_00415007.mp4	0.0	71.9339051246643	
2	52.44136691093445	movie	1		299	0.0	2.5	/experiments/aot/R_S_ILSVRC2015_train_00415007.mp4	0.0	71.94967103004456	2.5082881450653076
2	54.02912998199463	pulse	1	t		0.0	2.5	/experiments/aot/R_S_ILSVRC2015_train_00415007.mp4	0.0	73.53743410110474	
2	54.949655055999756	fix_post	2		12	0.0	2.5	/experiments/aot/R_S_ILSVRC2015_train_00415007.mp4	0.0	74.45795917510986	0.09956884384155273
3	55.04922389984131	fix_pre	0		120	1.0	2.5	/experiments/aot/R_S_pexels-mikhail-nilov-8410084.mp4	0.0	74.55752801895142	1.0004310607910156
3	55.625648975372314	pulse	0	t		1.0	2.5	/experiments/aot/R_S_pexels-mikhail-nilov-8410084.mp4	0.0	75.13395309448242	
3	56.049654960632324	movie	1		160	1.0	2.5	/experiments/aot/R_S_pexels-mikhail-nilov-8410084.mp4	0.0	75.55795907974243	2.4997169971466064
3	57.233224868774414	pulse	1	t		1.0	2.5	/experiments/aot/R_S_pexels-mikhail-nilov-8410084.mp4	0.0	76.74152898788452	
3	58.54937195777893	fix_post	2		12	1.0	2.5	/experiments/aot/R_S_pexels-mikhail-nilov-8410084.mp4	0.0	78.05767607688904	0.09986400604248047
4	58.64923596382141	fix_pre	0		120	2.0	2.5	/experiments/aot/S_b5-3.mp4	0.0	78.15754008293152	1.0006129741668701
4	58.83270192146301	pulse	0	t		2.0	2.5	/experiments/aot/S_b5-3.mp4	0.0	78.34100604057312	
4	59.64984893798828	movie	1		161	2.0	2.5	/experiments/aot/S_b5-3.mp4	0.0	79.15815305709839	2.499803066253662
4	60.43300986289978	pulse	1	t		2.0	2.5	/experiments/aot/S_b5-3.mp4	0.0	79.94131398200989	
4	62.032734870910645	pulse	1	t		2.0	2.5	/experiments/aot/S_b5-3.mp4	0.0	81.54103899002075	
4	62.14965200424194	fix_post	2		12	2.0	2.5	/experiments/aot/S_b5-3.mp4	0.0	81.65795612335205	0.09999299049377441
5	62.24964499473572	fix_pre	0		120	3.0	2.5	/experiments/aot/S_bing-www_msn_com_en-us_video_news_tommy-lasorda-salutes-national-league-champs_vp-AAtLThQ_4.mp4	0.0	81.75794911384583	1.0000979900360107
5	63.24974298477173	movie	1		160	3.0	2.5	/experiments/aot/S_bing-www_msn_com_en-us_video_news_tommy-lasorda-salutes-national-league-champs_vp-AAtLThQ_4.mp4	0.0	82.75804710388184	2.4994089603424072
5	63.63308596611023	pulse	1	t		3.0	2.5	/experiments/aot/S_bing-www_msn_com_en-us_video_news_tommy-lasorda-salutes-national-league-champs_vp-AAtLThQ_4.mp4	0.0	83.14139008522034	
5	65.22611498832703	pulse	1	t		3.0	2.5	/experiments/aot/S_bing-www_msn_com_en-us_video_news_tommy-lasorda-salutes-national-league-champs_vp-AAtLThQ_4.mp4	0.0	84.73441910743713	
5	65.74915194511414	fix_post	2		12	3.0	2.5	/experiments/aot/S_bing-www_msn_com_en-us_video_news_tommy-lasorda-salutes-national-league-champs_vp-AAtLThQ_4.mp4	0.0	85.25745606422424	0.1004800796508789
6	65.84963202476501	fix_pre	0		119	4.0	2.5	/experiments/aot/R_S_yt-uWeU2s6JYyk_10.mp4	0.0	85.35793614387512	0.9915518760681152
6	66.82542705535889	pulse	0	t		4.0	2.5	/experiments/aot/R_S_yt-uWeU2s6JYyk_10.mp4	0.0	86.333731174469	
6	66.84118390083313	movie	1		301	4.0	2.5	/experiments/aot/R_S_yt-uWeU2s6JYyk_10.mp4	0.0	86.34948801994324	2.5083510875701904
6	68.42932391166687	pulse	1	t		4.0	2.5	/experiments/aot/R_S_yt-uWeU2s6JYyk_10.mp4	0.0	87.93762803077698	
6	69.34953498840332	fix_post	2		12	4.0	2.5	/experiments/aot/R_S_yt-uWeU2s6JYyk_10.mp4	0.0	88.85783910751343	0.10005593299865723
7	69.44959092140198	fix_pre	0		120	5.0	2.5	/experiments/aot/R_S_yt-Ub5Xx5BqIOk_74.mp4	0.0	88.95789504051208	0.9999229907989502
7	70.02567195892334	pulse	0	t		5.0	2.5	/experiments/aot/R_S_yt-Ub5Xx5BqIOk_74.mp4	0.0	89.53397607803345	
7	70.44951391220093	movie	1		300	5.0	2.5	/experiments/aot/R_S_yt-Ub5Xx5BqIOk_74.mp4	0.0	89.95781803131104	2.5000200271606445
7	71.62561202049255	pulse	1	t		5.0	2.5	/experiments/aot/R_S_yt-Ub5Xx5BqIOk_74.mp4	0.0	91.13391613960266	
7	72.94953393936157	fix_post	2		12	5.0	2.5	/experiments/aot/R_S_yt-Ub5Xx5BqIOk_74.mp4	0.0	92.45783805847168	0.09955596923828125
8	73.04908990859985	fix_pre	0		120	6.0	2.5	blank	1.0	92.55739402770996	1.0004611015319824
8	73.23299789428711	pulse	0	t		6.0	2.5	blank	1.0	92.74130201339722	
8	74.04955101013184	movie	1		300	6.0	2.5	blank	1.0	93.55785512924194	2.4999918937683105
8	74.83301305770874	pulse	1	t		6.0	2.5	blank	1.0	94.34131717681885	
8	76.43315005302429	pulse	1	t		6.0	2.5	blank	1.0	95.9414541721344	
8	76.54954290390015	fix_post	2		12	6.0	2.5	blank	1.0	96.05784702301025	0.09998798370361328
9	76.64953088760376	fix_pre	0		120	7.0	2.5	/experiments/aot/S_yt-_6j2NXrB-zE_28.mp4	0.0	96.15783500671387	0.9999861717224121
9	77.64951705932617	movie	1		299	7.0	2.5	/experiments/aot/S_yt-_6j2NXrB-zE_28.mp4	0.0	97.15782117843628	2.49960994720459
9	78.03296399116516	pulse	1	t		7.0	2.5	/experiments/aot/S_yt-_6j2NXrB-zE_28.mp4	0.0	97.54126811027527	
9	79.63298106193542	pulse	1	t		7.0	2.5	/experiments/aot/S_yt-_6j2NXrB-zE_28.mp4	0.0	99.14128518104553	
9	80.14912700653076	fix_post	2		12	7.0	2.5	/experiments/aot/S_yt-_6j2NXrB-zE_28.mp4	0.0	99.65743112564087	0.10040497779846191
10	80.24953198432922	fix_pre	0		119	8.0	2.5	/experiments/aot/S_yt-ejSzwn8tY8g_49.mp4	0.0	99.75783610343933	0.9916329383850098
10	81.23307991027832	pulse	0	t		8.0	2.5	/experiments/aot/S_yt-ejSzwn8tY8g_49.mp4	0.0	100.74138402938843	
10	81.24116492271423	movie	1		301	8.0	2.5	/experiments/aot/S_yt-ejSzwn8tY8g_49.mp4	0.0	100.74946904182434	2.50785493850708
10	82.82876586914062	pulse	1	t		8.0	2.5	/experiments/aot/S_yt-ejSzwn8tY8g_49.mp4	0.0	102.33706998825073	
10	83.74901986122131	fix_post	2		12	8.0	2.5	/experiments/aot/S_yt-ejSzwn8tY8g_49.mp4	0.0	103.25732398033142	0.1000661849975586
11	83.84908604621887	fix_pre	0		120	9.0	2.5	/experiments/aot/R_S_yt-K_gHa2x2OQA_319.mp4	0.0	103.35739016532898	1.0003738403320312
11	84.42558407783508	pulse	0	t		9.0	2.5	/experiments/aot/R_S_yt-K_gHa2x2OQA_319.mp4	0.0	103.93388819694519	
11	84.8494598865509	movie	1		300	9.0	2.5	/experiments/aot/R_S_yt-K_gHa2x2OQA_319.mp4	0.0	104.35776400566101	2.4996330738067627
11	86.02556204795837	pulse	1	t		9.0	2.5	/experiments/aot/R_S_yt-K_gHa2x2OQA_319.mp4	0.0	105.53386616706848	
11	87.34909296035767	fix_post	2		12	9.0	2.5	/experiments/aot/R_S_yt-K_gHa2x2OQA_319.mp4	0.0	106.85739707946777	0.10047602653503418
12	87.4495689868927	fix_pre	0		120	10.0	2.5	/experiments/aot/R_S_yt-XF0fyyFEgWo_280.mp4	0.0	106.95787310600281	0.9999699592590332
12	87.62549686431885	pulse	0	t		10.0	2.5	/experiments/aot/R_S_yt-XF0fyyFEgWo_280.mp4	0.0	107.13380098342896	
12	88.44953894615173	movie	1		299	10.0	2.5	/experiments/aot/R_S_yt-XF0fyyFEgWo_280.mp4	0.0	107.95784306526184	2.4999659061431885
12	89.2328519821167	pulse	1	t		10.0	2.5	/experiments/aot/R_S_yt-XF0fyyFEgWo_280.mp4	0.0	108.7411561012268	
12	90.8329210281372	pulse	1	t		10.0	2.5	/experiments/aot/R_S_yt-XF0fyyFEgWo_280.mp4	0.0	110.34122514724731	
12	90.94950485229492	fix_post	2		12	10.0	2.5	/experiments/aot/R_S_yt-XF0fyyFEgWo_280.mp4	0.0	110.45780897140503	0.09963822364807129
13	91.049143075943	fix_pre	0		120	11.0	2.5	/experiments/aot/S_IrGYVLkWeQs_9.mp4	0.0	110.5574471950531	0.9998669624328613
13	92.04901003837585	movie	1		300	11.0	2.5	/experiments/aot/S_IrGYVLkWeQs_9.mp4	0.0	111.55731415748596	2.5004889965057373
13	92.43297290802002	pulse	1	t		11.0	2.5	/experiments/aot/S_IrGYVLkWeQs_9.mp4	0.0	111.94127702713013	
13	94.03296685218811	pulse	1	t		11.0	2.5	/experiments/aot/S_IrGYVLkWeQs_9.mp4	0.0	113.54127097129822	
13	94.54949903488159	fix_post	2		12	11.0	2.5	/experiments/aot/S_IrGYVLkWeQs_9.mp4	0.0	114.0578031539917	0.09994292259216309
14	94.64944195747375	fix_pre	0		119	12.0	2.5	blank	1.0	114.15774607658386	0.9915931224822998
14	95.63288497924805	pulse	0	t		12.0	2.5	blank	1.0	115.14118909835815	
14	95.64103507995605	movie	1		301	12.0	2.5	blank	1.0	115.14933919906616	2.507985830307007
14	97.23292088508606	pulse	1	t		12.0	2.5	blank	1.0	116.74122500419617	
14	98.14902091026306	fix_post	2		12	12.0	2.5	blank	1.0	117.65732502937317	0.10002303123474121
15	98.2490439414978	fix_pre	0		120	13.0	2.5	/experiments/aot/S_yt-ejSzwn8tY8g_49.mp4	0.0	117.75734806060791	1.0004220008850098
15	98.82540893554688	pulse	0	t		13.0	2.5	/experiments/aot/S_yt-ejSzwn8tY8g_49.mp4	0.0	118.33371305465698	
15	99.24946594238281	movie	1		299	13.0	2.5	/experiments/aot/S_yt-ejSzwn8tY8g_49.mp4	0.0	118.75777006149292	2.500016927719116
15	100.42549204826355	pulse	1	t		13.0	2.5	/experiments/aot/S_yt-ejSzwn8tY8g_49.mp4	0.0	119.93379616737366	
15	101.74948287010193	fix_post	2		12	13.0	2.5	/experiments/aot/S_yt-ejSzwn8tY8g_49.mp4	0.0	121.25778698921204	0.0999910831451416
16	101.84947395324707	fix_pre	0		120	14.0	2.5	/experiments/aot/S_yt-WhQMF3WM0Ig_29.mp4	0.0	121.35777807235718	0.9995100498199463
16	102.02548503875732	pulse	0	t		14.0	2.5	/experiments/aot/S_yt-WhQMF3WM0Ig_29.mp4	0.0	121.53378915786743	
16	102.84898400306702	movie	1		300	14.0	2.5	/experiments/aot/S_yt-WhQMF3WM0Ig_29.mp4	0.0	122.35728812217712	2.5004379749298096
16	103.62552285194397	pulse	1	t		14.0	2.5	/experiments/aot/S_yt-WhQMF3WM0Ig_29.mp4	0.0	123.13382697105408	
16	105.2329170703888	pulse	1	t		14.0	2.5	/experiments/aot/S_yt-WhQMF3WM0Ig_29.mp4	0.0	124.7412211894989	
16	105.34942197799683	fix_post	2		12	14.0	2.5	/experiments/aot/S_yt-WhQMF3WM0Ig_29.mp4	0.0	124.85772609710693	0.09995293617248535
17	105.44937491416931	fix_pre	0		120	15.0	2.5	/experiments/aot/R_S_yt-F2x6e7e7cAE_70.mp4	0.0	124.95767903327942	1.0000629425048828
17	106.4494378566742	movie	1		300	15.0	2.5	/experiments/aot/R_S_yt-F2x6e7e7cAE_70.mp4	0.0	125.9577419757843	2.4994771480560303
17	106.82600402832031	pulse	1	t		15.0	2.5	/experiments/aot/R_S_yt-F2x6e7e7cAE_70.mp4	0.0	126.33430814743042	
17	108.43289685249329	pulse	1	t		15.0	2.5	/experiments/aot/R_S_yt-F2x6e7e7cAE_70.mp4	0.0	127.9412009716034	
17	108.94891500473022	fix_post	2		12	15.0	2.5	/experiments/aot/R_S_yt-F2x6e7e7cAE_70.mp4	0.0	128.45721912384033	0.1000828742980957
18	109.04899787902832	fix_pre	0		119	16.0	2.5	/experiments/aot/S_ILSVRC2015_train_00473000.mp4	0.0	128.55730199813843	0.9920229911804199
18	110.0328950881958	pulse	0	t		16.0	2.5	/experiments/aot/S_ILSVRC2015_train_00473000.mp4	0.0	129.5411992073059	
18	110.04102087020874	movie	1		301	16.0	2.5	/experiments/aot/S_ILSVRC2015_train_00473000.mp4	0.0	129.54932498931885	2.5079360008239746
18	111.62867903709412	pulse	1	t		16.0	2.5	/experiments/aot/S_ILSVRC2015_train_00473000.mp4	0.0	131.13698315620422	
18	112.54895687103271	fix_post	2		12	16.0	2.5	/experiments/aot/S_ILSVRC2015_train_00473000.mp4	0.0	132.05726099014282	0.09996700286865234
19	112.64892387390137	fix_pre	0		120	17.0	2.5	/experiments/aot/R_S_ILSVRC2015_train_00569006.mp4	0.0	132.15722799301147	1.0004382133483887
19	113.23300290107727	pulse	0	t		17.0	2.5	/experiments/aot/R_S_ILSVRC2015_train_00569006.mp4	0.0	132.74130702018738	
19	113.64936208724976	movie	1		300	17.0	2.5	/experiments/aot/R_S_ILSVRC2015_train_00569006.mp4	0.0	133.15766620635986	2.5001797676086426
19	114.83249306678772	pulse	1	t		17.0	2.5	/experiments/aot/R_S_ILSVRC2015_train_00569006.mp4	0.0	134.34079718589783	
19	116.1495418548584	fix_post	2		12	17.0	2.5	/experiments/aot/R_S_ILSVRC2015_train_00569006.mp4	0.0	135.6578459739685	0.1001582145690918
20	116.24970006942749	fix_pre	0		120	18.0	2.5	/experiments/aot/S_yt-lfDIg8kaXhA_169.mp4	0.0	135.7580041885376	0.9996728897094727
20	116.43267703056335	pulse	0	t		18.0	2.5	/experiments/aot/S_yt-lfDIg8kaXhA_169.mp4	0.0	135.94098114967346	
20	117.24937295913696	movie	1		300	18.0	2.5	/experiments/aot/S_yt-lfDIg8kaXhA_169.mp4	0.0	136.75767707824707	2.500032901763916
20	118.02549505233765	pulse	1	t		18.0	2.5	/experiments/aot/S_yt-lfDIg8kaXhA_169.mp4	0.0	137.53379917144775	
20	119.62537908554077	pulse	1	t		18.0	2.5	/experiments/aot/S_yt-lfDIg8kaXhA_169.mp4	0.0	139.13368320465088	
20	119.74940586090088	fix_post	2		12	18.0	2.5	/experiments/aot/S_yt-lfDIg8kaXhA_169.mp4	0.0	139.257709980011	0.1000051498413086
21	119.84941101074219	fix_pre	0		120	19.0	2.5	/experiments/aot/R_S_yt-Ev39pXXfr1Y_152.mp4	0.0	139.3577151298523	1.000014066696167
21	120.84942507743835	movie	1		300	19.0	2.5	/experiments/aot/R_S_yt-Ev39pXXfr1Y_152.mp4	0.0	140.35772919654846	2.499889850616455
21	121.2328679561615	pulse	1	t		19.0	2.5	/experiments/aot/R_S_yt-Ev39pXXfr1Y_152.mp4	0.0	140.7411720752716	
21	122.83273386955261	pulse	1	t		19.0	2.5	/experiments/aot/R_S_yt-Ev39pXXfr1Y_152.mp4	0.0	142.34103798866272	
21	123.34931492805481	fix_post	2		12	19.0	2.5	/experiments/aot/R_S_yt-Ev39pXXfr1Y_152.mp4	0.0	142.85761904716492	0.10010814666748047
22	123.44942307472229	fix_pre	0		119	20.0	2.5	/experiments/aot/R_S_yt-EAMpitsjbbA_153.mp4	0.0	142.9577271938324	0.9914958477020264
22	124.43278193473816	pulse	0	t		20.0	2.5	/experiments/aot/R_S_yt-EAMpitsjbbA_153.mp4	0.0	143.94108605384827	
22	124.44091892242432	movie	1		301	20.0	2.5	/experiments/aot/R_S_yt-EAMpitsjbbA_153.mp4	0.0	143.94922304153442	2.5083091259002686
22	126.02886700630188	pulse	1	t		20.0	2.5	/experiments/aot/R_S_yt-EAMpitsjbbA_153.mp4	0.0	145.537171125412	
22	126.94922804832458	fix_post	2		12	20.0	2.5	/experiments/aot/R_S_yt-EAMpitsjbbA_153.mp4	0.0	146.4575321674347	0.10003900527954102
23	127.04926705360413	fix_pre	0		120	21.0	2.5	blank	1.0	146.55757117271423	0.9999868869781494
23	127.63279294967651	pulse	0	t		21.0	2.5	blank	1.0	147.14109706878662	
23	128.04925394058228	movie	1		300	21.0	2.5	blank	1.0	147.55755805969238	2.4996590614318848
23	129.23288202285767	pulse	1	t		21.0	2.5	blank	1.0	148.74118614196777	
23	130.54891300201416	fix_post	2		12	21.0	2.5	blank	1.0	150.05721712112427	0.10031795501708984
24	130.64923095703125	fix_pre	0		120	22.0	2.5	/experiments/aot/R_S_yt-_7HJhRPVmHw_255.mp4	0.0	150.15753507614136	1.000075101852417
24	130.82552099227905	pulse	0	t		22.0	2.5	/experiments/aot/R_S_yt-_7HJhRPVmHw_255.mp4	0.0	150.33382511138916	
24	131.64930605888367	movie	1		300	22.0	2.5	/experiments/aot/R_S_yt-_7HJhRPVmHw_255.mp4	0.0	151.15761017799377	2.4995980262756348
24	132.43280601501465	pulse	1	t		22.0	2.5	/experiments/aot/R_S_yt-_7HJhRPVmHw_255.mp4	0.0	151.94111013412476	
24	134.02530002593994	pulse	1	t		22.0	2.5	/experiments/aot/R_S_yt-_7HJhRPVmHw_255.mp4	0.0	153.53360414505005	
24	134.1489040851593	fix_post	2		12	22.0	2.5	/experiments/aot/R_S_yt-_7HJhRPVmHw_255.mp4	0.0	153.6572082042694	0.10033082962036133
25	134.24923491477966	fix_pre	0		120	23.0	2.5	/experiments/aot/S_production_ID_5139371.mp4	0.0	153.75753903388977	1.0000319480895996
25	135.24926686286926	movie	1		159	23.0	2.5	/experiments/aot/S_production_ID_5139371.mp4	0.0	154.75757098197937	2.4999821186065674
25	135.62563586235046	pulse	1	t		23.0	2.5	/experiments/aot/S_production_ID_5139371.mp4	0.0	155.13393998146057	
25	137.2328178882599	pulse	1	t		23.0	2.5	/experiments/aot/S_production_ID_5139371.mp4	0.0	156.74112200737	
25	137.74924898147583	fix_post	2		12	23.0	2.5	/experiments/aot/S_production_ID_5139371.mp4	0.0	157.25755310058594	0.09997105598449707
26	137.84922003746033	fix_pre	0		119	24.0	2.5	/experiments/aot/R_S_yt-KpOAdMtPGFs_17.mp4	0.0	157.35752415657043	0.99167799949646
26	138.83279085159302	pulse	0	t		24.0	2.5	/experiments/aot/R_S_yt-KpOAdMtPGFs_17.mp4	0.0	158.34109497070312	
26	138.8408980369568	movie	1		301	24.0	2.5	/experiments/aot/R_S_yt-KpOAdMtPGFs_17.mp4	0.0	158.3492021560669	2.508312940597534
26	140.42855191230774	pulse	1	t		24.0	2.5	/experiments/aot/R_S_yt-KpOAdMtPGFs_17.mp4	0.0	159.93685603141785	
26	141.34921097755432	fix_post	2		12	24.0	2.5	/experiments/aot/R_S_yt-KpOAdMtPGFs_17.mp4	0.0	160.85751509666443	0.10000205039978027
27	141.4492130279541	fix_pre	0		120	25.0	2.5	/experiments/aot/R_S_yt-22c5eZ1UNME_76.mp4	0.0	160.9575171470642	0.9999990463256836
27	142.03280305862427	pulse	0	t		25.0	2.5	/experiments/aot/R_S_yt-22c5eZ1UNME_76.mp4	0.0	161.54110717773438	
27	142.44921207427979	movie	1		300	25.0	2.5	/experiments/aot/R_S_yt-22c5eZ1UNME_76.mp4	0.0	161.9575161933899	2.499562978744507
27	143.63269186019897	pulse	1	t		25.0	2.5	/experiments/aot/R_S_yt-22c5eZ1UNME_76.mp4	0.0	163.14099597930908	
27	144.9487750530243	fix_post	2		12	25.0	2.5	/experiments/aot/R_S_yt-22c5eZ1UNME_76.mp4	0.0	164.4570791721344	0.1003580093383789
28	145.04913306236267	fix_pre	0		120	26.0	2.5	/experiments/aot/R_S_ILSVRC2015_train_00405000.mp4	0.0	164.55743718147278	0.9996788501739502
28	145.23265886306763	pulse	0	t		26.0	2.5	/experiments/aot/R_S_ILSVRC2015_train_00405000.mp4	0.0	164.74096298217773	
28	146.04881191253662	movie	1		300	26.0	2.5	/experiments/aot/R_S_ILSVRC2015_train_00405000.mp4	0.0	165.55711603164673	2.4998950958251953
28	146.832701921463	pulse	1	t		26.0	2.5	/experiments/aot/R_S_ILSVRC2015_train_00405000.mp4	0.0	166.34100604057312	
28	148.43269395828247	pulse	1	t		26.0	2.5	/experiments/aot/R_S_ILSVRC2015_train_00405000.mp4	0.0	167.94099807739258	
28	148.54870700836182	fix_post	2		12	26.0	2.5	/experiments/aot/R_S_ILSVRC2015_train_00405000.mp4	0.0	168.05701112747192	0.10002899169921875
29	148.64873600006104	fix_pre	0		120	27.0	2.5	blank	1.0	168.15704011917114	1.000396966934204
29	149.64913296699524	movie	1		300	27.0	2.5	blank	1.0	169.15743708610535	2.499648094177246
29	150.03267788887024	pulse	1	t		27.0	2.5	blank	1.0	169.54098200798035	
29	151.63260507583618	pulse	1	t		27.0	2.5	blank	1.0	171.1409091949463	
29	152.14878106117249	fix_post	2		12	27.0	2.5	blank	1.0	171.6570851802826	0.10037088394165039
30	152.24915194511414	fix_pre	0		119	28.0	2.5	/experiments/aot/R_S_yt-GVaF4tmJBZE_253.mp4	0.0	171.75745606422424	0.9916081428527832
30	153.2327208518982	pulse	0	t		28.0	2.5	/experiments/aot/R_S_yt-GVaF4tmJBZE_253.mp4	0.0	172.7410249710083	
30	153.24076008796692	movie	1		301	28.0	2.5	/experiments/aot/R_S_yt-GVaF4tmJBZE_253.mp4	0.0	172.74906420707703	2.5079808235168457
30	154.8285210132599	pulse	1	t		28.0	2.5	/experiments/aot/R_S_yt-GVaF4tmJBZE_253.mp4	0.0	174.33682513237	
30	155.74874091148376	fix_post	2		12	28.0	2.5	/experiments/aot/R_S_yt-GVaF4tmJBZE_253.mp4	0.0	175.25704503059387	0.10037803649902344
31	155.8491189479828	fix_pre	0		120	29.0	2.5	/experiments/aot/R_S_SE_A016_C009_SDR_20190717_SDR_2K_AVC.mp4	0.0	175.3574230670929	1.0001120567321777
31	156.43263292312622	pulse	0	t		29.0	2.5	/experiments/aot/R_S_SE_A016_C009_SDR_20190717_SDR_2K_AVC.mp4	0.0	175.94093704223633	
31	156.84923100471497	movie	1		161	29.0	2.5	/experiments/aot/R_S_SE_A016_C009_SDR_20190717_SDR_2K_AVC.mp4	0.0	176.35753512382507	2.4998490810394287
31	158.03275895118713	pulse	1	t		29.0	2.5	/experiments/aot/R_S_SE_A016_C009_SDR_20190717_SDR_2K_AVC.mp4	0.0	177.54106307029724	
31	159.3490800857544	fix_post	2		12	29.0	2.5	/experiments/aot/R_S_SE_A016_C009_SDR_20190717_SDR_2K_AVC.mp4	0.0	178.8573842048645	0.09968996047973633
32	159.44877004623413	fix_pre	0		120	30.0	2.5	/experiments/aot/S_yt-cjndulbUtRc_51.mp4	0.0	178.95707416534424	1.0003600120544434
32	159.63261008262634	pulse	0	t		30.0	2.5	/experiments/aot/S_yt-cjndulbUtRc_51.mp4	0.0	179.14091420173645	
32	160.44913005828857	movie	1		300	30.0	2.5	/experiments/aot/S_yt-cjndulbUtRc_51.mp4	0.0	179.95743417739868	2.499950885772705
32	161.22588205337524	pulse	1	t		30.0	2.5	/experiments/aot/S_yt-cjndulbUtRc_51.mp4	0.0	180.73418617248535	
32	162.83266305923462	pulse	1	t		30.0	2.5	/experiments/aot/S_yt-cjndulbUtRc_51.mp4	0.0	182.34096717834473	
32	162.94908094406128	fix_post	2		12	30.0	2.5	/experiments/aot/S_yt-cjndulbUtRc_51.mp4	0.0	182.4573850631714	0.09999704360961914
33	163.0490779876709	fix_pre	0		120	31.0	2.5	/experiments/aot/R_S_comp_DB_D001_C001_PSNK_v06_SDR_PS_20180824_SDR_2K_AVC.mp4	0.0	182.557382106781	0.9996349811553955
33	164.0487129688263	movie	1		167	31.0	2.5	/experiments/aot/R_S_comp_DB_D001_C001_PSNK_v06_SDR_PS_20180824_SDR_2K_AVC.mp4	0.0	183.5570170879364	2.499979019165039
33	164.43262386322021	pulse	1	t		31.0	2.5	/experiments/aot/R_S_comp_DB_D001_C001_PSNK_v06_SDR_PS_20180824_SDR_2K_AVC.mp4	0.0	183.94092798233032	
33	166.03262400627136	pulse	1	t		31.0	2.5	/experiments/aot/R_S_comp_DB_D001_C001_PSNK_v06_SDR_PS_20180824_SDR_2K_AVC.mp4	0.0	185.54092812538147	
33	166.54869198799133	fix_post	2		12	31.0	2.5	/experiments/aot/R_S_comp_DB_D001_C001_PSNK_v06_SDR_PS_20180824_SDR_2K_AVC.mp4	0.0	186.05699610710144	0.10046601295471191
34	166.64915800094604	fix_pre	0		119	32.0	2.5	/experiments/aot/S_yt-RO4mhuXBVrY_67.mp4	0.0	186.15746212005615	0.9915759563446045
34	167.63258290290833	pulse	0	t		32.0	2.5	/experiments/aot/S_yt-RO4mhuXBVrY_67.mp4	0.0	187.14088702201843	
34	167.64073395729065	movie	1		301	32.0	2.5	/experiments/aot/S_yt-RO4mhuXBVrY_67.mp4	0.0	187.14903807640076	2.508431911468506
34	169.22847199440002	pulse	1	t		32.0	2.5	/experiments/aot/S_yt-RO4mhuXBVrY_67.mp4	0.0	188.73677611351013	
34	170.14916586875916	fix_post	2		12	32.0	2.5	/experiments/aot/S_yt-RO4mhuXBVrY_67.mp4	0.0	189.65746998786926	0.09998011589050293
35	170.24914598464966	fix_pre	0		120	33.0	2.5	/experiments/aot/R_S_video-11.mp4	0.0	189.75745010375977	0.9996979236602783
35	170.83226990699768	pulse	0	t		33.0	2.5	/experiments/aot/R_S_video-11.mp4	0.0	190.3405740261078	
35	171.24884390830994	movie	1		162	33.0	2.5	/experiments/aot/R_S_video-11.mp4	0.0	190.75714802742004	2.500326156616211
35	172.4262170791626	pulse	1	t		33.0	2.5	/experiments/aot/R_S_video-11.mp4	0.0	191.9345211982727	
35	173.74917006492615	fix_post	2		12	33.0	2.5	/experiments/aot/R_S_video-11.mp4	0.0	193.25747418403625	0.09992384910583496
36	173.84909391403198	fix_pre	0		120	34.0	2.5	/experiments/aot/S_video.mp4	0.0	193.3573980331421	1.0000181198120117
36	174.03258204460144	pulse	0	t		34.0	2.5	/experiments/aot/S_video.mp4	0.0	193.54088616371155	
36	174.849112033844	movie	1		163	34.0	2.5	/experiments/aot/S_video.mp4	0.0	194.3574161529541	2.4999568462371826
36	175.62610602378845	pulse	1	t		34.0	2.5	/experiments/aot/S_video.mp4	0.0	195.13441014289856	
36	177.23263907432556	pulse	1	t		34.0	2.5	/experiments/aot/S_video.mp4	0.0	196.74094319343567	
36	177.34906888008118	fix_post	2		12	34.0	2.5	/experiments/aot/S_video.mp4	0.0	196.85737299919128	0.0999910831451416
37	177.44905996322632	fix_pre	0		120	35.0	2.5	blank	1.0	196.95736408233643	0.9999809265136719
37	178.44904088974	movie	1		300	35.0	2.5	blank	1.0	197.9573450088501	2.5000030994415283
37	178.83253407478333	pulse	1	t		35.0	2.5	blank	1.0	198.34083819389343	
37	180.43254685401917	pulse	1	t		35.0	2.5	blank	1.0	199.94085097312927	
37	180.94904398918152	fix_post	2		12	35.0	2.5	blank	1.0	200.45734810829163	0.09996390342712402
38	181.04900789260864	fix_pre	0		119	36.0	2.5	/experiments/aot/R_S_Pexels_Videos_278654_1.mp4	0.0	200.55731201171875	0.9916520118713379
38	182.0324890613556	pulse	0	t		36.0	2.5	/experiments/aot/R_S_Pexels_Videos_278654_1.mp4	0.0	201.5407931804657	
38	182.04065990447998	movie	1		163	36.0	2.5	/experiments/aot/R_S_Pexels_Videos_278654_1.mp4	0.0	201.5489640235901	2.5083019733428955
38	183.6322250366211	pulse	1	t		36.0	2.5	/experiments/aot/R_S_Pexels_Videos_278654_1.mp4	0.0	203.1405291557312	
38	184.54896187782288	fix_post	2		12	36.0	2.5	/experiments/aot/R_S_Pexels_Videos_278654_1.mp4	0.0	204.05726599693298	0.10001206398010254
39	184.64897394180298	fix_pre	0		120	37.0	2.5	/experiments/aot/S_yt-zgimmOcW5Mc_127.mp4	0.0	204.1572780609131	0.9996569156646729
39	185.23256492614746	pulse	0	t		37.0	2.5	/experiments/aot/S_yt-zgimmOcW5Mc_127.mp4	0.0	204.74086904525757	
39	185.64863085746765	movie	1		300	37.0	2.5	/experiments/aot/S_yt-zgimmOcW5Mc_127.mp4	0.0	205.15693497657776	2.4999701976776123
39	186.8324840068817	pulse	1	t		37.0	2.5	/experiments/aot/S_yt-zgimmOcW5Mc_127.mp4	0.0	206.34078812599182	
39	188.14860105514526	fix_post	2		12	37.0	2.5	/experiments/aot/S_yt-zgimmOcW5Mc_127.mp4	0.0	207.65690517425537	0.10039186477661133
40	188.24899291992188	fix_pre	0		120	38.0	2.5	/experiments/aot/S_ILSVRC2015_train_00572001.mp4	0.0	207.75729703903198	0.9995911121368408
40	188.43253993988037	pulse	0	t		38.0	2.5	/experiments/aot/S_ILSVRC2015_train_00572001.mp4	0.0	207.94084405899048	
40	189.24858403205872	movie	1		300	38.0	2.5	/experiments/aot/S_ILSVRC2015_train_00572001.mp4	0.0	208.75688815116882	2.5
40	190.03254199028015	pulse	1	t		38.0	2.5	/experiments/aot/S_ILSVRC2015_train_00572001.mp4	0.0	209.54084610939026	
40	191.63253092765808	pulse	1	t		38.0	2.5	/experiments/aot/S_ILSVRC2015_train_00572001.mp4	0.0	211.1408350467682	
40	191.74858403205872	fix_post	2		12	38.0	2.5	/experiments/aot/S_ILSVRC2015_train_00572001.mp4	0.0	211.25688815116882	0.10001492500305176
41	191.84859895706177	fix_pre	0		120	39.0	2.5	/experiments/aot/S_yt-sPhtPyQM00c_106.mp4	0.0	211.35690307617188	1.0003669261932373
41	192.848965883255	movie	1		300	39.0	2.5	/experiments/aot/S_yt-sPhtPyQM00c_106.mp4	0.0	212.3572700023651	2.499967098236084
41	193.23243403434753	pulse	1	t		39.0	2.5	/experiments/aot/S_yt-sPhtPyQM00c_106.mp4	0.0	212.74073815345764	
41	194.83246493339539	pulse	1	t		39.0	2.5	/experiments/aot/S_yt-sPhtPyQM00c_106.mp4	0.0	214.3407690525055	
41	195.3489329814911	fix_post	2		12	39.0	2.5	/experiments/aot/S_yt-sPhtPyQM00c_106.mp4	0.0	214.8572371006012	0.09997200965881348
42	195.4489049911499	fix_pre	0		119	40.0	2.5	/experiments/aot/S_yt-VQtbKGzI9SE_431.mp4	0.0	214.95720911026	0.9916989803314209
42	196.43247604370117	pulse	0	t		40.0	2.5	/experiments/aot/S_yt-VQtbKGzI9SE_431.mp4	0.0	215.94078016281128	
42	196.44060397148132	movie	1		301	40.0	2.5	/experiments/aot/S_yt-VQtbKGzI9SE_431.mp4	0.0	215.94890809059143	2.507939100265503
42	198.02817296981812	pulse	1	t		40.0	2.5	/experiments/aot/S_yt-VQtbKGzI9SE_431.mp4	0.0	217.53647708892822	
42	198.94854307174683	fix_post	2		12	40.0	2.5	/experiments/aot/S_yt-VQtbKGzI9SE_431.mp4	0.0	218.45684719085693	0.10038399696350098
43	199.04892706871033	fix_pre	0		120	41.0	2.5	/experiments/aot/R_S_PA_A004_C003_SDR_20190719_SDR_2K_AVC.mp4	0.0	218.55723118782043	0.999985933303833
43	199.6324200630188	pulse	0	t		41.0	2.5	/experiments/aot/R_S_PA_A004_C003_SDR_20190719_SDR_2K_AVC.mp4	0.0	219.1407241821289	
43	200.04891300201416	movie	1		166	41.0	2.5	/experiments/aot/R_S_PA_A004_C003_SDR_20190719_SDR_2K_AVC.mp4	0.0	219.55721712112427	2.4996159076690674
43	201.2321720123291	pulse	1	t		41.0	2.5	/experiments/aot/R_S_PA_A004_C003_SDR_20190719_SDR_2K_AVC.mp4	0.0	220.7404761314392	
43	202.54852890968323	fix_post	2		12	41.0	2.5	/experiments/aot/R_S_PA_A004_C003_SDR_20190719_SDR_2K_AVC.mp4	0.0	222.05683302879333	0.10034704208374023
44	202.64887595176697	fix_pre	0		120	42.0	2.5	blank	1.0	222.15718007087708	1.0000429153442383
44	202.83246088027954	pulse	0	t		42.0	2.5	blank	1.0	222.34076499938965	
44	203.6489188671112	movie	1		300	42.0	2.5	blank	1.0	223.1572229862213	2.5000112056732178
44	204.43248987197876	pulse	1	t		42.0	2.5	blank	1.0	223.94079399108887	
44	206.0323669910431	pulse	1	t		42.0	2.5	blank	1.0	225.5406711101532	
44	206.14893007278442	fix_post	2		12	42.0	2.5	blank	1.0	225.65723419189453	0.09994888305664062
45	206.24887895584106	fix_pre	0		120	43.0	2.5	/experiments/aot/S_yt-hZxbKZ1WCVg_24.mp4	0.0	225.75718307495117	0.9999959468841553
45	207.24887490272522	movie	1		298	43.0	2.5	/experiments/aot/S_yt-hZxbKZ1WCVg_24.mp4	0.0	226.75717902183533	2.500012159347534
45	207.63239407539368	pulse	1	t		43.0	2.5	/experiments/aot/S_yt-hZxbKZ1WCVg_24.mp4	0.0	227.14069819450378	
45	209.23247385025024	pulse	1	t		43.0	2.5	/experiments/aot/S_yt-hZxbKZ1WCVg_24.mp4	0.0	228.74077796936035	
45	209.74888706207275	fix_post	2		12	43.0	2.5	/experiments/aot/S_yt-hZxbKZ1WCVg_24.mp4	0.0	229.25719118118286	0.09995698928833008
46	209.84884405136108	fix_pre	0		119	44.0	2.5	/experiments/aot/S_ILSVRC2015_train_00743006.mp4	0.0	229.3571481704712	0.9917459487915039
46	210.83237600326538	pulse	0	t		44.0	2.5	/experiments/aot/S_ILSVRC2015_train_00743006.mp4	0.0	230.3406801223755	
46	210.8405900001526	movie	1		301	44.0	2.5	/experiments/aot/S_ILSVRC2015_train_00743006.mp4	0.0	230.3488941192627	2.508342981338501
46	212.42820692062378	pulse	1	t		44.0	2.5	/experiments/aot/S_ILSVRC2015_train_00743006.mp4	0.0	231.9365110397339	
46	213.3489329814911	fix_post	2		12	44.0	2.5	/experiments/aot/S_ILSVRC2015_train_00743006.mp4	0.0	232.8572371006012	0.09989404678344727
47	213.44882702827454	fix_pre	0		120	45.0	2.5	/experiments/aot/R_S_yt-WhQMF3WM0Ig_29.mp4	0.0	232.95713114738464	1.0000629425048828
47	214.03240585327148	pulse	0	t		45.0	2.5	/experiments/aot/R_S_yt-WhQMF3WM0Ig_29.mp4	0.0	233.5407099723816	
47	214.44888997077942	movie	1		300	45.0	2.5	/experiments/aot/R_S_yt-WhQMF3WM0Ig_29.mp4	0.0	233.95719408988953	2.4999520778656006
47	215.63237190246582	pulse	1	t		45.0	2.5	/experiments/aot/R_S_yt-WhQMF3WM0Ig_29.mp4	0.0	235.14067602157593	
47	216.94884204864502	fix_post	2		12	45.0	2.5	/experiments/aot/R_S_yt-WhQMF3WM0Ig_29.mp4	0.0	236.45714616775513	0.09993290901184082
48	217.04877495765686	fix_pre	0		120	46.0	2.5	/experiments/aot/S_yt-VQtbKGzI9SE_431.mp4	0.0	236.55707907676697	1.000190019607544
48	217.23231601715088	pulse	0	t		46.0	2.5	/experiments/aot/S_yt-VQtbKGzI9SE_431.mp4	0.0	236.740620136261	
48	218.0489649772644	movie	1		300	46.0	2.5	/experiments/aot/S_yt-VQtbKGzI9SE_431.mp4	0.0	237.5572690963745	2.499866008758545
48	218.83237099647522	pulse	1	t		46.0	2.5	/experiments/aot/S_yt-VQtbKGzI9SE_431.mp4	0.0	238.34067511558533	
48	220.43232703208923	pulse	1	t		46.0	2.5	/experiments/aot/S_yt-VQtbKGzI9SE_431.mp4	0.0	239.94063115119934	
48	220.54883098602295	fix_post	2		12	46.0	2.5	/experiments/aot/S_yt-VQtbKGzI9SE_431.mp4	0.0	240.05713510513306	0.09999608993530273
49	220.64882707595825	fix_pre	0		120	47.0	2.5	/experiments/aot/S_yt-ThT8utBaywI_68.mp4	0.0	240.15713119506836	1.000011920928955
49	221.6488389968872	movie	1		299	47.0	2.5	/experiments/aot/S_yt-ThT8utBaywI_68.mp4	0.0	241.15714311599731	2.499558925628662
49	222.03233695030212	pulse	1	t		47.0	2.5	/experiments/aot/S_yt-ThT8utBaywI_68.mp4	0.0	241.54064106941223	
49	223.63229894638062	pulse	1	t		47.0	2.5	/experiments/aot/S_yt-ThT8utBaywI_68.mp4	0.0	243.14060306549072	
49	224.14839792251587	fix_post	2		12	47.0	2.5	/experiments/aot/S_yt-ThT8utBaywI_68.mp4	0.0	243.65670204162598	0.10048294067382812
50	224.2488808631897	fix_pre	0		119	48.0	2.5	blank	1.0	243.7571849822998	0.9916460514068604
50	225.2322759628296	pulse	0	t		48.0	2.5	blank	1.0	244.7405800819397	
50	225.24052691459656	movie	1		301	48.0	2.5	blank	1.0	244.74883103370667	2.5085079669952393
50	226.83245086669922	pulse	1	t		48.0	2.5	blank	1.0	246.34075498580933	
50	227.7490348815918	fix_post	2		12	48.0	2.5	blank	1.0	247.2573390007019	0.09972715377807617
51	227.84876203536987	fix_pre	0		120	49.0	2.5	/experiments/aot/R_S_yt-XF0fyyFEgWo_280.mp4	0.0	247.35706615447998	0.9999768733978271
51	228.43219089508057	pulse	0	t		49.0	2.5	/experiments/aot/R_S_yt-XF0fyyFEgWo_280.mp4	0.0	247.94049501419067	
51	228.8487389087677	movie	1		300	49.0	2.5	/experiments/aot/R_S_yt-XF0fyyFEgWo_280.mp4	0.0	248.3570430278778	2.500170946121216
51	230.03225803375244	pulse	1	t		49.0	2.5	/experiments/aot/R_S_yt-XF0fyyFEgWo_280.mp4	0.0	249.54056215286255	
51	231.34890985488892	fix_post	2		12	49.0	2.5	/experiments/aot/R_S_yt-XF0fyyFEgWo_280.mp4	0.0	250.85721397399902	0.09946417808532715
52	231.44837403297424	fix_pre	0		120	50.0	2.5	/experiments/aot/S_yt-RlHmMGUjT9E_130.mp4	0.0	250.95667815208435	1.0003998279571533
52	231.6322648525238	pulse	0	t		50.0	2.5	/experiments/aot/S_yt-RlHmMGUjT9E_130.mp4	0.0	251.1405689716339	
52	232.4487738609314	movie	1		300	50.0	2.5	/experiments/aot/S_yt-RlHmMGUjT9E_130.mp4	0.0	251.9570779800415	2.499997138977051
52	233.23224401474	pulse	1	t		50.0	2.5	/experiments/aot/S_yt-RlHmMGUjT9E_130.mp4	0.0	252.7405481338501	
52	234.83213996887207	pulse	1	t		50.0	2.5	/experiments/aot/S_yt-RlHmMGUjT9E_130.mp4	0.0	254.34044408798218	
52	234.94877099990845	fix_post	2		12	50.0	2.5	/experiments/aot/S_yt-RlHmMGUjT9E_130.mp4	0.0	254.45707511901855	0.09993195533752441
53	235.04870295524597	fix_pre	0		120	51.0	2.5	/experiments/aot/R_S_yt-EBuE7GbFw7U_180.mp4	0.0	254.55700707435608	1.0000290870666504
53	236.04873204231262	movie	1		299	51.0	2.5	/experiments/aot/R_S_yt-EBuE7GbFw7U_180.mp4	0.0	255.55703616142273	2.499577045440674
53	236.4322030544281	pulse	1	t		51.0	2.5	/experiments/aot/R_S_yt-EBuE7GbFw7U_180.mp4	0.0	255.9405071735382	
53	238.0322289466858	pulse	1	t		51.0	2.5	/experiments/aot/R_S_yt-EBuE7GbFw7U_180.mp4	0.0	257.5405330657959	
53	238.5483090877533	fix_post	2		12	51.0	2.5	/experiments/aot/R_S_yt-EBuE7GbFw7U_180.mp4	0.0	258.0566132068634	0.10039877891540527
54	238.6487078666687	fix_pre	0		119	52.0	2.5	/experiments/aot/R_S_pexels-rodnae-productions-5993671.mp4	0.0	258.1570119857788	0.9916970729827881
54	239.63222408294678	pulse	0	t		52.0	2.5	/experiments/aot/R_S_pexels-rodnae-productions-5993671.mp4	0.0	259.1405282020569	
54	239.6404049396515	movie	1		162	52.0	2.5	/experiments/aot/R_S_pexels-rodnae-productions-5993671.mp4	0.0	259.1487090587616	2.5083839893341064
54	241.23220086097717	pulse	1	t		52.0	2.5	/experiments/aot/R_S_pexels-rodnae-productions-5993671.mp4	0.0	260.7405049800873	
54	242.1487889289856	fix_post	2		12	52.0	2.5	/experiments/aot/R_S_pexels-rodnae-productions-5993671.mp4	0.0	261.6570930480957	0.0999600887298584
55	242.24874901771545	fix_pre	0		120	53.0	2.5	/experiments/aot/R_S_yt-YeT4acsbqok_210.mp4	0.0	261.75705313682556	0.999971866607666
55	242.83348107337952	pulse	0	t		53.0	2.5	/experiments/aot/R_S_yt-YeT4acsbqok_210.mp4	0.0	262.3417851924896	
55	243.24872088432312	movie	1		299	53.0	2.5	/experiments/aot/R_S_yt-YeT4acsbqok_210.mp4	0.0	262.7570250034332	2.4995579719543457
55	244.43220591545105	pulse	1	t		53.0	2.5	/experiments/aot/R_S_yt-YeT4acsbqok_210.mp4	0.0	263.94051003456116	
55	245.74827885627747	fix_post	2		12	53.0	2.5	/experiments/aot/R_S_yt-YeT4acsbqok_210.mp4	0.0	265.2565829753876	0.1003730297088623
56	245.84865188598633	fix_pre	0		120	54.0	2.5	/experiments/aot/S_yt-nMWqezngycw_10.mp4	0.0	265.35695600509644	1.0000591278076172
56	246.03217005729675	pulse	0	t		54.0	2.5	/experiments/aot/S_yt-nMWqezngycw_10.mp4	0.0	265.54047417640686	
56	246.84871101379395	movie	1		300	54.0	2.5	/experiments/aot/S_yt-nMWqezngycw_10.mp4	0.0	266.35701513290405	2.499933958053589
56	247.6321840286255	pulse	1	t		54.0	2.5	/experiments/aot/S_yt-nMWqezngycw_10.mp4	0.0	267.1404881477356	
56	249.2321150302887	pulse	1	t		54.0	2.5	/experiments/aot/S_yt-nMWqezngycw_10.mp4	0.0	268.7404191493988	
56	249.34864497184753	fix_post	2		12	54.0	2.5	/experiments/aot/S_yt-nMWqezngycw_10.mp4	0.0	268.85694909095764	0.10006499290466309
57	249.4487099647522	fix_pre	0		120	55.0	2.5	blank	1.0	268.9570140838623	1.0000710487365723
57	250.44878101348877	movie	1		300	55.0	2.5	blank	1.0	269.9570851325989	2.4998719692230225
57	250.83217096328735	pulse	1	t		55.0	2.5	blank	1.0	270.34047508239746	
57	252.4321858882904	pulse	1	t		55.0	2.5	blank	1.0	271.9404900074005	
57	252.9486529827118	fix_post	2		12	55.0	2.5	blank	1.0	272.4569571018219	0.09997797012329102
58	253.04863095283508	fix_pre	0		119	56.0	2.5	/experiments/aot/R_S_wc-ujHd_fPVcSlX_10.mp4	0.0	272.5569350719452	0.9916760921478271
58	254.03217792510986	pulse	0	t		56.0	2.5	/experiments/aot/R_S_wc-ujHd_fPVcSlX_10.mp4	0.0	273.54048204421997	
58	254.0403070449829	movie	1		161	56.0	2.5	/experiments/aot/R_S_wc-ujHd_fPVcSlX_10.mp4	0.0	273.548611164093	2.5079538822174072
58	255.63304805755615	pulse	1	t		56.0	2.5	/experiments/aot/R_S_wc-ujHd_fPVcSlX_10.mp4	0.0	275.14135217666626	
58	256.5482609272003	fix_post	2		12	56.0	2.5	/experiments/aot/R_S_wc-ujHd_fPVcSlX_10.mp4	0.0	276.0565650463104	0.1003561019897461
59	256.64861702919006	fix_pre	0		120	57.0	2.5	/experiments/aot/S_yt-EvKV7iY1_HM_193.mp4	0.0	276.15692114830017	0.9999699592590332
59	257.23220705986023	pulse	0	t		57.0	2.5	/experiments/aot/S_yt-EvKV7iY1_HM_193.mp4	0.0	276.74051117897034	
59	257.6485869884491	movie	1		299	57.0	2.5	/experiments/aot/S_yt-EvKV7iY1_HM_193.mp4	0.0	277.1568911075592	2.4996609687805176
59	258.8323369026184	pulse	1	t		57.0	2.5	/experiments/aot/S_yt-EvKV7iY1_HM_193.mp4	0.0	278.3406410217285	
59	260.1482479572296	fix_post	2		12	57.0	2.5	/experiments/aot/S_yt-EvKV7iY1_HM_193.mp4	0.0	279.6565520763397	0.10031890869140625
60	260.248566865921	fix_pre	0		120	58.0	2.5	/experiments/aot/S_video.mp4	0.0	279.7568709850311	0.9996521472930908
60	260.4321389198303	pulse	0	t		58.0	2.5	/experiments/aot/S_video.mp4	0.0	279.94044303894043	
60	261.2482190132141	movie	1		164	58.0	2.5	/experiments/aot/S_video.mp4	0.0	280.7565231323242	2.5005428791046143
60	262.0321879386902	pulse	1	t		58.0	2.5	/experiments/aot/S_video.mp4	0.0	281.5404920578003	
60	263.63219690322876	pulse	1	t		58.0	2.5	/experiments/aot/S_video.mp4	0.0	283.14050102233887	
60	263.7487618923187	fix_post	2		12	58.0	2.5	/experiments/aot/S_video.mp4	0.0	283.25706601142883	0.09952807426452637
61	263.84828996658325	fix_pre	0		120	59.0	2.5	/experiments/aot/S_yt-XF0fyyFEgWo_280.mp4	0.0	283.35659408569336	1.0003631114959717
61	264.8486530780792	movie	1		299	59.0	2.5	/experiments/aot/S_yt-XF0fyyFEgWo_280.mp4	0.0	284.35695719718933	2.499616861343384
61	265.2321310043335	pulse	1	t		59.0	2.5	/experiments/aot/S_yt-XF0fyyFEgWo_280.mp4	0.0	284.7404351234436	
61	266.83214592933655	pulse	1	t		59.0	2.5	/experiments/aot/S_yt-XF0fyyFEgWo_280.mp4	0.0	286.34045004844666	
61	267.3482699394226	fix_post	2		12	59.0	2.5	/experiments/aot/S_yt-XF0fyyFEgWo_280.mp4	0.0	286.8565740585327	0.10029411315917969
62	267.4485640525818	fix_pre	0		119	60.0	2.5	/experiments/aot/S_yt-06XMUn9DTKc_35.mp4	0.0	286.9568681716919	0.9916880130767822
62	268.4320158958435	pulse	0	t		60.0	2.5	/experiments/aot/S_yt-06XMUn9DTKc_35.mp4	0.0	287.9403200149536	
62	268.44025206565857	movie	1		301	60.0	2.5	/experiments/aot/S_yt-06XMUn9DTKc_35.mp4	0.0	287.9485561847687	2.508347988128662
62	270.0281939506531	pulse	1	t		60.0	2.5	/experiments/aot/S_yt-06XMUn9DTKc_35.mp4	0.0	289.5364980697632	
62	270.94860005378723	fix_post	2		12	60.0	2.5	/experiments/aot/S_yt-06XMUn9DTKc_35.mp4	0.0	290.45690417289734	0.09993886947631836
63	271.04853892326355	fix_pre	0		120	61.0	2.5	blank	1.0	290.55684304237366	1.0000691413879395
63	271.6321470737457	pulse	0	t		61.0	2.5	blank	1.0	291.14045119285583	
63	272.0486080646515	movie	1		300	61.0	2.5	blank	1.0	291.5569121837616	2.5000059604644775
63	273.23212790489197	pulse	1	t		61.0	2.5	blank	1.0	292.7404320240021	
63	274.54861402511597	fix_post	2		12	61.0	2.5	blank	1.0	294.0569181442261	0.09996795654296875
64	274.64858198165894	fix_pre	0		120	62.0	2.5	/experiments/aot/R_S_production_ID_4707837.mp4	0.0	294.15688610076904	1.0000250339508057
64	274.832172870636	pulse	0	t		62.0	2.5	/experiments/aot/R_S_production_ID_4707837.mp4	0.0	294.3404769897461	
64	275.64860701560974	movie	1		162	62.0	2.5	/experiments/aot/R_S_production_ID_4707837.mp4	0.0	295.15691113471985	2.4995388984680176
64	276.4320979118347	pulse	1	t		62.0	2.5	/experiments/aot/R_S_production_ID_4707837.mp4	0.0	295.9404020309448	
64	278.03162598609924	pulse	1	t		62.0	2.5	/experiments/aot/R_S_production_ID_4707837.mp4	0.0	297.53993010520935	
64	278.14814591407776	fix_post	2		12	62.0	2.5	/experiments/aot/R_S_production_ID_4707837.mp4	0.0	297.65645003318787	0.10037493705749512
65	278.24852085113525	fix_pre	0		120	63.0	2.5	/experiments/aot/S_pexels-kindel-media-8165572.mp4	0.0	297.75682497024536	1.0000290870666504
65	279.2485499382019	movie	1		164	63.0	2.5	/experiments/aot/S_pexels-kindel-media-8165572.mp4	0.0	298.756854057312	2.4995839595794678
65	279.63214898109436	pulse	1	t		63.0	2.5	/experiments/aot/S_pexels-kindel-media-8165572.mp4	0.0	299.14045310020447	
65	281.2320580482483	pulse	1	t		63.0	2.5	/experiments/aot/S_pexels-kindel-media-8165572.mp4	0.0	300.7403621673584	
65	281.7481338977814	fix_post	2		12	63.0	2.5	/experiments/aot/S_pexels-kindel-media-8165572.mp4	0.0	301.2564380168915	0.10001611709594727
66	281.8481500148773	fix_pre	0		119	64.0	2.5	/experiments/aot/S_Pexels_Videos_2795737.mp4	0.0	301.3564541339874	0.992156982421875
66	282.83175587654114	pulse	0	t		64.0	2.5	/experiments/aot/S_Pexels_Videos_2795737.mp4	0.0	302.34005999565125	
66	282.8403069972992	movie	1		162	64.0	2.5	/experiments/aot/S_Pexels_Videos_2795737.mp4	0.0	302.3486111164093	2.508194923400879
66	284.43152689933777	pulse	1	t		64.0	2.5	/experiments/aot/S_Pexels_Videos_2795737.mp4	0.0	303.9398310184479	
66	285.3485019207001	fix_post	2		12	64.0	2.5	/experiments/aot/S_Pexels_Videos_2795737.mp4	0.0	304.8568060398102	0.10000801086425781
67	285.44850993156433	fix_pre	0		120	65.0	2.5	/experiments/aot/R_S_yt-KpOAdMtPGFs_17.mp4	0.0	304.95681405067444	1.0
67	286.0319950580597	pulse	0	t		65.0	2.5	/experiments/aot/R_S_yt-KpOAdMtPGFs_17.mp4	0.0	305.5402991771698	
67	286.44850993156433	movie	1		300	65.0	2.5	/experiments/aot/R_S_yt-KpOAdMtPGFs_17.mp4	0.0	305.95681405067444	2.4995880126953125
67	287.6319179534912	pulse	1	t		65.0	2.5	/experiments/aot/R_S_yt-KpOAdMtPGFs_17.mp4	0.0	307.1402220726013	
67	288.94809794425964	fix_post	2		12	65.0	2.5	/experiments/aot/R_S_yt-KpOAdMtPGFs_17.mp4	0.0	308.45640206336975	0.10040593147277832
68	289.0485038757324	fix_pre	0		120	66.0	2.5	/experiments/aot/S_ILSVRC2015_train_00473000.mp4	0.0	308.55680799484253	0.9995770454406738
68	289.2319209575653	pulse	0	t		66.0	2.5	/experiments/aot/S_ILSVRC2015_train_00473000.mp4	0.0	308.7402250766754	
68	290.0480809211731	movie	1		300	66.0	2.5	/experiments/aot/S_ILSVRC2015_train_00473000.mp4	0.0	309.5563850402832	2.5004160404205322
68	290.83189702033997	pulse	1	t		66.0	2.5	/experiments/aot/S_ILSVRC2015_train_00473000.mp4	0.0	310.3402011394501	
68	292.4318790435791	pulse	1	t		66.0	2.5	/experiments/aot/S_ILSVRC2015_train_00473000.mp4	0.0	311.9401831626892	
68	292.5484969615936	fix_post	2		12	66.0	2.5	/experiments/aot/S_ILSVRC2015_train_00473000.mp4	0.0	312.05680108070374	0.10007810592651367
69	292.64857506752014	fix_pre	0		120	67.0	2.5	/experiments/aot/S_yt--I4Ggi6-QOE_23.mp4	0.0	312.15687918663025	0.9994668960571289
69	293.64804196357727	movie	1		300	67.0	2.5	/experiments/aot/S_yt--I4Ggi6-QOE_23.mp4	0.0	313.1563460826874	2.5003910064697266
69	294.0318720340729	pulse	1	t		67.0	2.5	/experiments/aot/S_yt--I4Ggi6-QOE_23.mp4	0.0	313.540176153183	
69	295.6319029331207	pulse	1	t		67.0	2.5	/experiments/aot/S_yt--I4Ggi6-QOE_23.mp4	0.0	315.14020705223083	
69	296.148432970047	fix_post	2		12	67.0	2.5	/experiments/aot/S_yt--I4Ggi6-QOE_23.mp4	0.0	315.6567370891571	0.10002589225769043
70	296.2484588623047	fix_pre	0		119	68.0	2.5	/experiments/aot/R_S_yt-VQtbKGzI9SE_431.mp4	0.0	315.7567629814148	0.9916419982910156
70	297.231910943985	pulse	0	t		68.0	2.5	/experiments/aot/R_S_yt-VQtbKGzI9SE_431.mp4	0.0	316.7402150630951	
70	297.2401008605957	movie	1		301	68.0	2.5	/experiments/aot/R_S_yt-VQtbKGzI9SE_431.mp4	0.0	316.7484049797058	2.5081710815429688
70	298.82887291908264	pulse	1	t		68.0	2.5	/experiments/aot/R_S_yt-VQtbKGzI9SE_431.mp4	0.0	318.33717703819275	
70	299.7482719421387	fix_post	2		12	68.0	2.5	/experiments/aot/R_S_yt-VQtbKGzI9SE_431.mp4	0.0	319.2565760612488	0.10011506080627441
71	299.84838700294495	fix_pre	0		120	69.0	2.5	blank	1.0	319.35669112205505	1.0000479221343994
71	300.431853055954	pulse	0	t		69.0	2.5	blank	1.0	319.9401571750641	
71	300.84843492507935	movie	1		300	69.0	2.5	blank	1.0	320.35673904418945	2.4999539852142334
71	302.03190302848816	pulse	1	t		69.0	2.5	blank	1.0	321.54020714759827	
71	303.3483889102936	fix_post	2		12	69.0	2.5	blank	1.0	322.8566930294037	0.1000821590423584
72	303.44847106933594	fix_pre	0		120	70.0	2.5	/experiments/aot/S_yt-IDpUZ2NWBUY_60.mp4	0.0	322.95677518844604	0.9999988079071045
72	303.6319558620453	pulse	0	t		70.0	2.5	/experiments/aot/S_yt-IDpUZ2NWBUY_60.mp4	0.0	323.1402599811554	
72	304.44846987724304	movie	1		300	70.0	2.5	/experiments/aot/S_yt-IDpUZ2NWBUY_60.mp4	0.0	323.95677399635315	2.500080108642578
72	305.23194098472595	pulse	1	t		70.0	2.5	/experiments/aot/S_yt-IDpUZ2NWBUY_60.mp4	0.0	324.74024510383606	
72	306.8319180011749	pulse	1	t		70.0	2.5	/experiments/aot/S_yt-IDpUZ2NWBUY_60.mp4	0.0	326.34022212028503	
72	306.9485499858856	fix_post	2		12	70.0	2.5	/experiments/aot/S_yt-IDpUZ2NWBUY_60.mp4	0.0	326.4568541049957	0.09978008270263672
73	307.04833006858826	fix_pre	0		120	71.0	2.5	/experiments/aot/S_yt-UzWRbs9Syf4_7.mp4	0.0	326.55663418769836	1.0001959800720215
73	308.0485260486603	movie	1		299	71.0	2.5	/experiments/aot/S_yt-UzWRbs9Syf4_7.mp4	0.0	327.5568301677704	2.4994540214538574
73	308.4319598674774	pulse	1	t		71.0	2.5	/experiments/aot/S_yt-UzWRbs9Syf4_7.mp4	0.0	327.9402639865875	
73	310.03186798095703	pulse	1	t		71.0	2.5	/experiments/aot/S_yt-UzWRbs9Syf4_7.mp4	0.0	329.54017210006714	
73	310.54798007011414	fix_post	2		12	71.0	2.5	/experiments/aot/S_yt-UzWRbs9Syf4_7.mp4	0.0	330.05628418922424	0.10045289993286133
74	310.648432970047	fix_pre	0		119	72.0	2.5	/experiments/aot/S_yt-4wjGeLyvfjY_223.mp4	0.0	330.1567370891571	0.9916059970855713
74	311.63193106651306	pulse	0	t		72.0	2.5	/experiments/aot/S_yt-4wjGeLyvfjY_223.mp4	0.0	331.14023518562317	
74	311.64003896713257	movie	1		301	72.0	2.5	/experiments/aot/S_yt-4wjGeLyvfjY_223.mp4	0.0	331.1483430862427	2.507996082305908
74	313.22788405418396	pulse	1	t		72.0	2.5	/experiments/aot/S_yt-4wjGeLyvfjY_223.mp4	0.0	332.73618817329407	
74	314.1480350494385	fix_post	2		12	72.0	2.5	/experiments/aot/S_yt-4wjGeLyvfjY_223.mp4	0.0	333.6563391685486	0.10034584999084473
75	314.2483808994293	fix_pre	0		120	73.0	2.5	/experiments/aot/R_S_yt-4wYTkhggZNM_90.mp4	0.0	333.75668501853943	1.0000090599060059
75	314.83191204071045	pulse	0	t		73.0	2.5	/experiments/aot/R_S_yt-4wYTkhggZNM_90.mp4	0.0	334.34021615982056	
75	315.2483899593353	movie	1		300	73.0	2.5	/experiments/aot/R_S_yt-4wYTkhggZNM_90.mp4	0.0	334.75669407844543	2.499516010284424
75	316.43187499046326	pulse	1	t		73.0	2.5	/experiments/aot/R_S_yt-4wYTkhggZNM_90.mp4	0.0	335.94017910957336	
75	317.74790596961975	fix_post	2		12	73.0	2.5	/experiments/aot/R_S_yt-4wYTkhggZNM_90.mp4	0.0	337.25621008872986	0.10045599937438965
76	317.84836196899414	fix_pre	0		120	74.0	2.5	/experiments/aot/R_S_yt-OdTWn1U1mO4_68.mp4	0.0	337.35666608810425	0.999946117401123
76	318.0318760871887	pulse	0	t		74.0	2.5	/experiments/aot/R_S_yt-OdTWn1U1mO4_68.mp4	0.0	337.5401802062988	
76	318.84830808639526	movie	1		299	74.0	2.5	/experiments/aot/R_S_yt-OdTWn1U1mO4_68.mp4	0.0	338.35661220550537	2.499656915664673
76	319.6319019794464	pulse	1	t		74.0	2.5	/experiments/aot/R_S_yt-OdTWn1U1mO4_68.mp4	0.0	339.1402060985565	
76	321.2263069152832	pulse	1	t		74.0	2.5	/experiments/aot/R_S_yt-OdTWn1U1mO4_68.mp4	0.0	340.7346110343933	
76	321.34796500205994	fix_post	2		12	74.0	2.5	/experiments/aot/R_S_yt-OdTWn1U1mO4_68.mp4	0.0	340.85626912117004	0.10045385360717773
77	321.4484188556671	fix_pre	0		120	75.0	2.5	blank	1.0	340.9567229747772	0.9999661445617676
77	322.4483850002289	movie	1		300	75.0	2.5	blank	1.0	341.956689119339	2.500011920928955
77	322.8318750858307	pulse	1	t		75.0	2.5	blank	1.0	342.3401792049408	
77	324.43188285827637	pulse	1	t		75.0	2.5	blank	1.0	343.9401869773865	
77	324.94839692115784	fix_post	2		12	75.0	2.5	blank	1.0	344.45670104026794	0.09999203681945801
78	325.0483889579773	fix_pre	0		119	76.0	2.5	/experiments/aot/S_comp_GMT308_139K_142NC_CARIBBEAN_DAY_v09_SDR_FINAL_22062018_SDR_2K_AVC.mp4	0.0	344.5566930770874	0.9916479587554932
78	326.0318410396576	pulse	0	t		76.0	2.5	/experiments/aot/S_comp_GMT308_139K_142NC_CARIBBEAN_DAY_v09_SDR_FINAL_22062018_SDR_2K_AVC.mp4	0.0	345.5401451587677	
78	326.0400369167328	movie	1		165	76.0	2.5	/experiments/aot/S_comp_GMT308_139K_142NC_CARIBBEAN_DAY_v09_SDR_FINAL_22062018_SDR_2K_AVC.mp4	0.0	345.5483410358429	2.5078670978546143
78	327.63167905807495	pulse	1	t		76.0	2.5	/experiments/aot/S_comp_GMT308_139K_142NC_CARIBBEAN_DAY_v09_SDR_FINAL_22062018_SDR_2K_AVC.mp4	0.0	347.13998317718506	
78	328.5479040145874	fix_post	2		12	76.0	2.5	/experiments/aot/S_comp_GMT308_139K_142NC_CARIBBEAN_DAY_v09_SDR_FINAL_22062018_SDR_2K_AVC.mp4	0.0	348.0562081336975	0.10045289993286133
79	328.64835691452026	fix_pre	0		120	77.0	2.5	/experiments/aot/R_S_yt-7W50lcw5FCo_37.mp4	0.0	348.15666103363037	0.9999630451202393
79	329.2318398952484	pulse	0	t		77.0	2.5	/experiments/aot/R_S_yt-7W50lcw5FCo_37.mp4	0.0	348.7401440143585	
79	329.6483199596405	movie	1		300	77.0	2.5	/experiments/aot/R_S_yt-7W50lcw5FCo_37.mp4	0.0	349.1566240787506	2.500056028366089
79	330.83177304267883	pulse	1	t		77.0	2.5	/experiments/aot/R_S_yt-7W50lcw5FCo_37.mp4	0.0	350.34007716178894	
79	332.1483759880066	fix_post	2		12	77.0	2.5	/experiments/aot/R_S_yt-7W50lcw5FCo_37.mp4	0.0	351.6566801071167	0.09991002082824707
80	332.24828600883484	fix_pre	0		120	78.0	2.5	/experiments/aot/R_S_yt-3ohvpS42xug_184.mp4	0.0	351.75659012794495	0.9999780654907227
80	332.4318459033966	pulse	0	t		78.0	2.5	/experiments/aot/R_S_yt-3ohvpS42xug_184.mp4	0.0	351.9401500225067	
80	333.24826407432556	movie	1		300	78.0	2.5	/experiments/aot/R_S_yt-3ohvpS42xug_184.mp4	0.0	352.75656819343567	2.500077962875366
80	334.0318419933319	pulse	1	t		78.0	2.5	/experiments/aot/R_S_yt-3ohvpS42xug_184.mp4	0.0	353.540146112442	
80	335.63181495666504	pulse	1	t		78.0	2.5	/experiments/aot/R_S_yt-3ohvpS42xug_184.mp4	0.0	355.14011907577515	
80	335.7483420372009	fix_post	2		12	78.0	2.5	/experiments/aot/R_S_yt-3ohvpS42xug_184.mp4	0.0	355.25664615631104	0.09992098808288574
81	335.8482630252838	fix_pre	0		120	79.0	2.5	/experiments/aot/S_ILSVRC2015_train_00762000.mp4	0.0	355.3565671443939	1.0000360012054443
81	336.84829902648926	movie	1		299	79.0	2.5	/experiments/aot/S_ILSVRC2015_train_00762000.mp4	0.0	356.35660314559937	2.4997668266296387
81	337.23133397102356	pulse	1	t		79.0	2.5	/experiments/aot/S_ILSVRC2015_train_00762000.mp4	0.0	356.73963809013367	
81	338.8318750858307	pulse	1	t		79.0	2.5	/experiments/aot/S_ILSVRC2015_train_00762000.mp4	0.0	358.3401792049408	
81	339.3480658531189	fix_post	2		12	79.0	2.5	/experiments/aot/S_ILSVRC2015_train_00762000.mp4	0.0	358.856369972229	0.10045814514160156
82	339.4485239982605	fix_pre	0		119	80.0	2.5	/experiments/aot/S_yt-Fm97IY0Z2LU_110.mp4	0.0	358.9568281173706	0.9915599822998047
82	340.43172693252563	pulse	0	t		80.0	2.5	/experiments/aot/S_yt-Fm97IY0Z2LU_110.mp4	0.0	359.94003105163574	
82	340.4400839805603	movie	1		301	80.0	2.5	/experiments/aot/S_yt-Fm97IY0Z2LU_110.mp4	0.0	359.9483880996704	2.507857084274292
82	342.02794790267944	pulse	1	t		80.0	2.5	/experiments/aot/S_yt-Fm97IY0Z2LU_110.mp4	0.0	361.53625202178955	
82	342.9479410648346	fix_post	2		12	80.0	2.5	/experiments/aot/S_yt-Fm97IY0Z2LU_110.mp4	0.0	362.4562451839447	0.1002960205078125
83	343.0482370853424	fix_pre	0		120	81.0	2.5	/experiments/aot/S_yt-KM_SJx8CMGc_10.mp4	0.0	362.5565412044525	1.0000128746032715
83	343.6317858695984	pulse	0	t		81.0	2.5	/experiments/aot/S_yt-KM_SJx8CMGc_10.mp4	0.0	363.1400899887085	
83	344.0482499599457	movie	1		299	81.0	2.5	/experiments/aot/S_yt-KM_SJx8CMGc_10.mp4	0.0	363.5565540790558	2.500020980834961
83	345.2318079471588	pulse	1	t		81.0	2.5	/experiments/aot/S_yt-KM_SJx8CMGc_10.mp4	0.0	364.7401120662689	
83	346.54827094078064	fix_post	2		12	81.0	2.5	/experiments/aot/S_yt-KM_SJx8CMGc_10.mp4	0.0	366.05657505989075	0.09954595565795898
84	346.6478168964386	fix_pre	0		120	82.0	2.5	/experiments/aot/R_S_pexels-roman-odintsov-8232443_1.mp4	0.0	366.1561210155487	1.0004820823669434
84	346.83161997795105	pulse	0	t		82.0	2.5	/experiments/aot/R_S_pexels-roman-odintsov-8232443_1.mp4	0.0	366.33992409706116	
84	347.64829897880554	movie	1		163	82.0	2.5	/experiments/aot/R_S_pexels-roman-odintsov-8232443_1.mp4	0.0	367.15660309791565	2.4999380111694336
84	348.4317319393158	pulse	1	t		82.0	2.5	/experiments/aot/R_S_pexels-roman-odintsov-8232443_1.mp4	0.0	367.9400360584259	
84	350.03139901161194	pulse	1	t		82.0	2.5	/experiments/aot/R_S_pexels-roman-odintsov-8232443_1.mp4	0.0	369.53970313072205	
84	350.148236989975	fix_post	2		12	82.0	2.5	/experiments/aot/R_S_pexels-roman-odintsov-8232443_1.mp4	0.0	369.6565411090851	0.09992289543151855
85	350.2481598854065	fix_pre	0		120	83.0	2.5	blank	1.0	369.7564640045166	0.9999911785125732
85	351.24815106391907	movie	1		300	83.0	2.5	blank	1.0	370.7564551830292	2.499661922454834
85	351.6316659450531	pulse	1	t		83.0	2.5	blank	1.0	371.1399700641632	
85	353.23157000541687	pulse	1	t		83.0	2.5	blank	1.0	372.739874124527	
85	353.7478129863739	fix_post	2		12	83.0	2.5	blank	1.0	373.256117105484	0.10033488273620605
87	353.8481478691101	stim	0		1716					373.3564519882202	14.300002098083496
87	354.83165192604065	pulse	0	t						374.33995604515076	
87	356.431578874588	pulse	0	t						375.9398829936981	
87	358.03160190582275	pulse	0	t						377.53990602493286	
87	359.63166308403015	pulse	0	t						379.13996720314026	
87	361.2315089702606	pulse	0	t						380.7398130893707	
87	362.831659078598	pulse	0	t						382.33996319770813	
87	364.43155694007874	pulse	0	t						383.93986105918884	
87	366.031574010849	pulse	0	t						385.5398781299591	
87	367.6315710544586	pulse	0	t						387.1398751735687	
