trial_nr	onset	event_type	phase	response	nr_frames	movie_index	movie_duration	movie_file	blank	onset_abs	duration
0	0.20830416679382324	stim	0		141					26.425862312316895	1.1750710010528564
0	1.375204086303711	response	0	space						27.592762231826782	
1	1.3833751678466797	stim	0		4168					27.60093331336975	34.7502658367157
1	36.118704080581665	pulse	0	t						62.336262226104736	
1	36.13364100456238	stim	1		1715					62.35119915008545	14.298781156539917
1	37.714022159576416	pulse	1	t						63.93158030509949	
1	39.31436514854431	pulse	1	t						65.53192329406738	
1	40.91458296775818	pulse	1	t						67.13214111328125	
1	42.51477313041687	pulse	1	t						68.73233127593994	
1	44.114925146102905	pulse	1	t						70.33248329162598	
1	45.70759105682373	pulse	1	t						71.9251492023468	
1	47.308003187179565	pulse	1	t						73.52556133270264	
1	48.90824007987976	pulse	1	t						75.12579822540283	
2	50.432422161102295	fix_pre	0		11	0.0	2.5	/experiments/knapen_AOT/AOT_stimuli/rescaled_final/0197_rv.mp4	0.0	76.64998030662537	0.10020184516906738
2	50.50851011276245	pulse	0	t		0.0	2.5	/experiments/knapen_AOT/AOT_stimuli/rescaled_final/0197_rv.mp4	0.0	76.72606825828552	
2	50.53262400627136	movie	1		244	0.0	2.5	/experiments/knapen_AOT/AOT_stimuli/rescaled_final/0197_rv.mp4	0.0	76.75018215179443	2.5001320838928223
2	52.10792899131775	pulse	1	t		0.0	2.5	/experiments/knapen_AOT/AOT_stimuli/rescaled_final/0197_rv.mp4	0.0	78.32548713684082	
2	53.032756090164185	fix_post	2		12	0.0	2.5	/experiments/knapen_AOT/AOT_stimuli/rescaled_final/0197_rv.mp4	0.0	79.25031423568726	0.10003304481506348
3	53.13278913497925	fix_pre	0		120	1.0	2.5	/experiments/knapen_AOT/AOT_stimuli/rescaled_final/1255_fw.mp4	0.0	79.35034728050232	1.000135898590088
3	53.70805501937866	pulse	0	t		1.0	2.5	/experiments/knapen_AOT/AOT_stimuli/rescaled_final/1255_fw.mp4	0.0	79.92561316490173	
3	54.132925033569336	movie	1		244	1.0	2.5	/experiments/knapen_AOT/AOT_stimuli/rescaled_final/1255_fw.mp4	0.0	80.35048317909241	2.500383138656616
3	55.31255316734314	pulse	1	t		1.0	2.5	/experiments/knapen_AOT/AOT_stimuli/rescaled_final/1255_fw.mp4	0.0	81.53011131286621	
3	56.63330817222595	fix_post	2		12	1.0	2.5	/experiments/knapen_AOT/AOT_stimuli/rescaled_final/1255_fw.mp4	0.0	82.85086631774902	0.10004687309265137
4	56.7333550453186	fix_pre	0		120	2.0	2.5	/experiments/knapen_AOT/AOT_stimuli/rescaled_final/0786_rv.mp4	0.0	82.95091319084167	1.0001311302185059
4	56.90862703323364	pulse	0	t		2.0	2.5	/experiments/knapen_AOT/AOT_stimuli/rescaled_final/0786_rv.mp4	0.0	83.12618517875671	
4	57.73348617553711	movie	1		245	2.0	2.5	/experiments/knapen_AOT/AOT_stimuli/rescaled_final/0786_rv.mp4	0.0	83.95104432106018	2.500361919403076
4	58.508782148361206	pulse	1	t		2.0	2.5	/experiments/knapen_AOT/AOT_stimuli/rescaled_final/0786_rv.mp4	0.0	84.72634029388428	
4	60.10899114608765	pulse	1	t		2.0	2.5	/experiments/knapen_AOT/AOT_stimuli/rescaled_final/0786_rv.mp4	0.0	86.32654929161072	
4	60.233848094940186	fix_post	2		9	2.0	2.5	/experiments/knapen_AOT/AOT_stimuli/rescaled_final/0786_rv.mp4	0.0	86.45140624046326	0.10008907318115234
5	60.33393716812134	fix_pre	0		119	3.0	2.5	/experiments/knapen_AOT/AOT_stimuli/rescaled_final/0051_rv.mp4	0.0	86.55149531364441	0.9917678833007812
5	61.32570505142212	movie	1		244	3.0	2.5	/experiments/knapen_AOT/AOT_stimuli/rescaled_final/0051_rv.mp4	0.0	87.54326319694519	2.500370979309082
5	61.70983910560608	pulse	1	t		3.0	2.5	/experiments/knapen_AOT/AOT_stimuli/rescaled_final/0051_rv.mp4	0.0	87.92739725112915	
5	63.30948495864868	pulse	1	t		3.0	2.5	/experiments/knapen_AOT/AOT_stimuli/rescaled_final/0051_rv.mp4	0.0	89.52704310417175	
5	63.8260760307312	fix_post	2		12	3.0	2.5	/experiments/knapen_AOT/AOT_stimuli/rescaled_final/0051_rv.mp4	0.0	90.04363417625427	0.09998297691345215
6	63.92605900764465	fix_pre	0		119	4.0	2.5	/experiments/knapen_AOT/AOT_stimuli/rescaled_final/0134_rv.mp4	0.0	90.14361715316772	0.9918451309204102
6	64.90979409217834	pulse	0	t		4.0	2.5	/experiments/knapen_AOT/AOT_stimuli/rescaled_final/0134_rv.mp4	0.0	91.12735223770142	
6	64.91790413856506	movie	1		245	4.0	2.5	/experiments/knapen_AOT/AOT_stimuli/rescaled_final/0134_rv.mp4	0.0	91.13546228408813	2.508678913116455
6	66.51112413406372	pulse	1	t		4.0	2.5	/experiments/knapen_AOT/AOT_stimuli/rescaled_final/0134_rv.mp4	0.0	92.72868227958679	
6	67.42658305168152	fix_post	2		12	4.0	2.5	/experiments/knapen_AOT/AOT_stimuli/rescaled_final/0134_rv.mp4	0.0	93.64414119720459	0.10008597373962402
7	67.52666902542114	fix_pre	0		120	5.0	2.5	/experiments/knapen_AOT/AOT_stimuli/rescaled_final/0283_fw.mp4	0.0	93.74422717094421	1.000087022781372
7	68.1102659702301	pulse	0	t		5.0	2.5	/experiments/knapen_AOT/AOT_stimuli/rescaled_final/0283_fw.mp4	0.0	94.32782411575317	
7	68.52675604820251	movie	1		244	5.0	2.5	/experiments/knapen_AOT/AOT_stimuli/rescaled_final/0283_fw.mp4	0.0	94.74431419372559	2.500369071960449
7	69.71054410934448	pulse	1	t		5.0	2.5	/experiments/knapen_AOT/AOT_stimuli/rescaled_final/0283_fw.mp4	0.0	95.92810225486755	
7	71.02712512016296	fix_post	2		12	5.0	2.5	/experiments/knapen_AOT/AOT_stimuli/rescaled_final/0283_fw.mp4	0.0	97.24468326568604	0.10004401206970215
8	71.12716913223267	fix_pre	0		120	6.0	2.5	/experiments/knapen_AOT/AOT_stimuli/rescaled_final/1507_fw.mp4	0.0	97.34472727775574	1.0001509189605713
8	71.31080198287964	pulse	0	t		6.0	2.5	/experiments/knapen_AOT/AOT_stimuli/rescaled_final/1507_fw.mp4	0.0	97.52836012840271	
8	72.12732005119324	movie	1		245	6.0	2.5	/experiments/knapen_AOT/AOT_stimuli/rescaled_final/1507_fw.mp4	0.0	98.34487819671631	2.5003371238708496
8	72.91091299057007	pulse	1	t		6.0	2.5	/experiments/knapen_AOT/AOT_stimuli/rescaled_final/1507_fw.mp4	0.0	99.12847113609314	
8	74.5087239742279	pulse	1	t		6.0	2.5	/experiments/knapen_AOT/AOT_stimuli/rescaled_final/1507_fw.mp4	0.0	100.72628211975098	
8	74.62765717506409	fix_post	2		12	6.0	2.5	/experiments/knapen_AOT/AOT_stimuli/rescaled_final/1507_fw.mp4	0.0	100.84521532058716	0.10003995895385742
9	74.72769713401794	fix_pre	0		120	7.0	2.5	blank	1.0	100.94525527954102	1.000154972076416
9	75.72785210609436	movie	1		299	7.0	2.5	blank	1.0	101.94541025161743	2.4920239448547363
9	76.11142301559448	pulse	1	t		7.0	2.5	blank	1.0	102.32898116111755	
9	77.71170496940613	pulse	1	t		7.0	2.5	blank	1.0	103.9292631149292	
9	78.2198760509491	fix_post	2		12	7.0	2.5	blank	1.0	104.43743419647217	0.10000300407409668
10	78.3198790550232	fix_pre	0		120	8.0	2.5	/experiments/knapen_AOT/AOT_stimuli/rescaled_final/0677_fw.mp4	0.0	104.53743720054626	1.0001521110534668
10	79.31190013885498	pulse	0	t		8.0	2.5	/experiments/knapen_AOT/AOT_stimuli/rescaled_final/0677_fw.mp4	0.0	105.52945828437805	
10	79.32003116607666	movie	1		245	8.0	2.5	/experiments/knapen_AOT/AOT_stimuli/rescaled_final/0677_fw.mp4	0.0	105.53758931159973	2.508741855621338
10	80.91288709640503	pulse	1	t		8.0	2.5	/experiments/knapen_AOT/AOT_stimuli/rescaled_final/0677_fw.mp4	0.0	107.1304452419281	
10	81.828773021698	fix_post	2		12	8.0	2.5	/experiments/knapen_AOT/AOT_stimuli/rescaled_final/0677_fw.mp4	0.0	108.04633116722107	0.10005497932434082
11	81.92882800102234	fix_pre	0		120	9.0	2.5	/experiments/knapen_AOT/AOT_stimuli/rescaled_final/1069_rv.mp4	0.0	108.14638614654541	1.0000991821289062
11	82.51237797737122	pulse	0	t		9.0	2.5	/experiments/knapen_AOT/AOT_stimuli/rescaled_final/1069_rv.mp4	0.0	108.72993612289429	
11	82.92892718315125	movie	1		244	9.0	2.5	/experiments/knapen_AOT/AOT_stimuli/rescaled_final/1069_rv.mp4	0.0	109.14648532867432	2.5004048347473145
11	84.11270308494568	pulse	1	t		9.0	2.5	/experiments/knapen_AOT/AOT_stimuli/rescaled_final/1069_rv.mp4	0.0	110.33026123046875	
11	85.42933201789856	fix_post	2		12	9.0	2.5	/experiments/knapen_AOT/AOT_stimuli/rescaled_final/1069_rv.mp4	0.0	111.64689016342163	0.09997797012329102
12	85.52930998802185	fix_pre	0		120	10.0	2.5	/experiments/knapen_AOT/AOT_stimuli/rescaled_final/1190_rv.mp4	0.0	111.74686813354492	1.0001401901245117
12	85.71287107467651	pulse	0	t		10.0	2.5	/experiments/knapen_AOT/AOT_stimuli/rescaled_final/1190_rv.mp4	0.0	111.93042922019958	
12	86.52945017814636	movie	1		244	10.0	2.5	/experiments/knapen_AOT/AOT_stimuli/rescaled_final/1190_rv.mp4	0.0	112.74700832366943	2.5003628730773926
12	87.31332802772522	pulse	1	t		10.0	2.5	/experiments/knapen_AOT/AOT_stimuli/rescaled_final/1190_rv.mp4	0.0	113.53088617324829	
12	88.91328501701355	pulse	1	t		10.0	2.5	/experiments/knapen_AOT/AOT_stimuli/rescaled_final/1190_rv.mp4	0.0	115.13084316253662	
12	89.02981305122375	fix_post	2		12	10.0	2.5	/experiments/knapen_AOT/AOT_stimuli/rescaled_final/1190_rv.mp4	0.0	115.24737119674683	0.10004496574401855
13	89.12985801696777	fix_pre	0		120	11.0	2.5	/experiments/knapen_AOT/AOT_stimuli/rescaled_final/0195_fw.mp4	0.0	115.34741616249084	1.0001599788665771
13	90.13001799583435	movie	1		243	11.0	2.5	/experiments/knapen_AOT/AOT_stimuli/rescaled_final/0195_fw.mp4	0.0	116.34757614135742	2.492011070251465
13	90.51422595977783	pulse	1	t		11.0	2.5	/experiments/knapen_AOT/AOT_stimuli/rescaled_final/0195_fw.mp4	0.0	116.7317841053009	
13	92.11375308036804	pulse	1	t		11.0	2.5	/experiments/knapen_AOT/AOT_stimuli/rescaled_final/0195_fw.mp4	0.0	118.33131122589111	
13	92.62202906608582	fix_post	2		12	11.0	2.5	/experiments/knapen_AOT/AOT_stimuli/rescaled_final/0195_fw.mp4	0.0	118.83958721160889	0.10002398490905762
14	92.72205305099487	fix_pre	0		120	12.0	2.5	/experiments/knapen_AOT/AOT_stimuli/rescaled_final/0824_rv.mp4	0.0	118.93961119651794	1.0001180171966553
14	93.71411108970642	pulse	0	t		12.0	2.5	/experiments/knapen_AOT/AOT_stimuli/rescaled_final/0824_rv.mp4	0.0	119.93166923522949	
14	93.72217106819153	movie	1		246	12.0	2.5	/experiments/knapen_AOT/AOT_stimuli/rescaled_final/0824_rv.mp4	0.0	119.9397292137146	2.5087270736694336
14	95.31483697891235	pulse	1	t		12.0	2.5	/experiments/knapen_AOT/AOT_stimuli/rescaled_final/0824_rv.mp4	0.0	121.53239512443542	
14	96.23089814186096	fix_post	2		12	12.0	2.5	/experiments/knapen_AOT/AOT_stimuli/rescaled_final/0824_rv.mp4	0.0	122.44845628738403	0.10004186630249023
15	96.33094000816345	fix_pre	0		120	13.0	2.5	blank	1.0	122.54849815368652	1.0001399517059326
15	96.91461300849915	pulse	0	t		13.0	2.5	blank	1.0	123.13217115402222	
15	97.33107995986938	movie	1		300	13.0	2.5	blank	1.0	123.54863810539246	2.5003721714019775
15	98.51473712921143	pulse	1	t		13.0	2.5	blank	1.0	124.7322952747345	
15	99.83145213127136	fix_post	2		12	13.0	2.5	blank	1.0	126.04901027679443	0.09997987747192383
16	99.93143200874329	fix_pre	0		120	14.0	2.5	/experiments/knapen_AOT/AOT_stimuli/rescaled_final/1371_fw.mp4	0.0	126.14899015426636	1.0001530647277832
16	100.11500906944275	pulse	0	t		14.0	2.5	/experiments/knapen_AOT/AOT_stimuli/rescaled_final/1371_fw.mp4	0.0	126.33256721496582	
16	100.93158507347107	movie	1		244	14.0	2.5	/experiments/knapen_AOT/AOT_stimuli/rescaled_final/1371_fw.mp4	0.0	127.14914321899414	2.5003790855407715
16	101.71534609794617	pulse	1	t		14.0	2.5	/experiments/knapen_AOT/AOT_stimuli/rescaled_final/1371_fw.mp4	0.0	127.93290424346924	
16	103.31559705734253	pulse	1	t		14.0	2.5	/experiments/knapen_AOT/AOT_stimuli/rescaled_final/1371_fw.mp4	0.0	129.5331552028656	
16	103.43196415901184	fix_post	2		12	14.0	2.5	/experiments/knapen_AOT/AOT_stimuli/rescaled_final/1371_fw.mp4	0.0	129.6495223045349	0.10002899169921875
17	103.53199315071106	fix_pre	0		120	15.0	2.5	/experiments/knapen_AOT/AOT_stimuli/rescaled_final/1634_rv.mp4	0.0	129.74955129623413	1.000108003616333
17	104.53210115432739	movie	1		245	15.0	2.5	/experiments/knapen_AOT/AOT_stimuli/rescaled_final/1634_rv.mp4	0.0	130.74965929985046	2.49208402633667
17	104.91699409484863	pulse	1	t		15.0	2.5	/experiments/knapen_AOT/AOT_stimuli/rescaled_final/1634_rv.mp4	0.0	131.1345522403717	
17	106.50861597061157	pulse	1	t		15.0	2.5	/experiments/knapen_AOT/AOT_stimuli/rescaled_final/1634_rv.mp4	0.0	132.72617411613464	
17	107.02418518066406	fix_post	2		12	15.0	2.5	/experiments/knapen_AOT/AOT_stimuli/rescaled_final/1634_rv.mp4	0.0	133.24174332618713	0.10015296936035156
18	107.12433815002441	fix_pre	0		120	16.0	2.5	/experiments/knapen_AOT/AOT_stimuli/rescaled_final/0195_rv.mp4	0.0	133.34189629554749	1.000044822692871
18	108.10862517356873	pulse	0	t		16.0	2.5	/experiments/knapen_AOT/AOT_stimuli/rescaled_final/0195_rv.mp4	0.0	134.3261833190918	
18	108.12438297271729	movie	1		245	16.0	2.5	/experiments/knapen_AOT/AOT_stimuli/rescaled_final/0195_rv.mp4	0.0	134.34194111824036	2.5086731910705566
18	109.70819902420044	pulse	1	t		16.0	2.5	/experiments/knapen_AOT/AOT_stimuli/rescaled_final/0195_rv.mp4	0.0	135.9257571697235	
18	110.63305616378784	fix_post	2		12	16.0	2.5	/experiments/knapen_AOT/AOT_stimuli/rescaled_final/0195_rv.mp4	0.0	136.8506143093109	0.10001897811889648
19	110.73307514190674	fix_pre	0		120	17.0	2.5	/experiments/knapen_AOT/AOT_stimuli/rescaled_final/0242_fw.mp4	0.0	136.9506332874298	1.0001859664916992
19	111.30845808982849	pulse	0	t		17.0	2.5	/experiments/knapen_AOT/AOT_stimuli/rescaled_final/0242_fw.mp4	0.0	137.52601623535156	
19	111.73326110839844	movie	1		245	17.0	2.5	/experiments/knapen_AOT/AOT_stimuli/rescaled_final/0242_fw.mp4	0.0	137.9508192539215	2.500307083129883
19	112.90921306610107	pulse	1	t		17.0	2.5	/experiments/knapen_AOT/AOT_stimuli/rescaled_final/0242_fw.mp4	0.0	139.12677121162415	
19	114.23356819152832	fix_post	2		12	17.0	2.5	/experiments/knapen_AOT/AOT_stimuli/rescaled_final/0242_fw.mp4	0.0	140.4511263370514	0.10003399848937988
20	114.3336021900177	fix_pre	0		120	18.0	2.5	/experiments/knapen_AOT/AOT_stimuli/rescaled_final/1710_fw.mp4	0.0	140.55116033554077	1.0001709461212158
20	114.50879096984863	pulse	0	t		18.0	2.5	/experiments/knapen_AOT/AOT_stimuli/rescaled_final/1710_fw.mp4	0.0	140.7263491153717	
20	115.33377313613892	movie	1		246	18.0	2.5	/experiments/knapen_AOT/AOT_stimuli/rescaled_final/1710_fw.mp4	0.0	141.551331281662	2.5003600120544434
20	116.10903906822205	pulse	1	t		18.0	2.5	/experiments/knapen_AOT/AOT_stimuli/rescaled_final/1710_fw.mp4	0.0	142.32659721374512	
20	117.70938014984131	pulse	1	t		18.0	2.5	/experiments/knapen_AOT/AOT_stimuli/rescaled_final/1710_fw.mp4	0.0	143.92693829536438	
20	117.83413314819336	fix_post	2		12	18.0	2.5	/experiments/knapen_AOT/AOT_stimuli/rescaled_final/1710_fw.mp4	0.0	144.05169129371643	0.10002303123474121
21	117.9341561794281	fix_pre	0		120	19.0	2.5	/experiments/knapen_AOT/AOT_stimuli/rescaled_final/1485_rv.mp4	0.0	144.15171432495117	1.0001378059387207
21	118.93429398536682	movie	1		241	19.0	2.5	/experiments/knapen_AOT/AOT_stimuli/rescaled_final/1485_rv.mp4	0.0	145.1518521308899	2.4920201301574707
21	119.30964207649231	pulse	1	t		19.0	2.5	/experiments/knapen_AOT/AOT_stimuli/rescaled_final/1485_rv.mp4	0.0	145.52720022201538	
21	120.9098870754242	pulse	1	t		19.0	2.5	/experiments/knapen_AOT/AOT_stimuli/rescaled_final/1485_rv.mp4	0.0	147.12744522094727	
21	121.42631411552429	fix_post	2		12	19.0	2.5	/experiments/knapen_AOT/AOT_stimuli/rescaled_final/1485_rv.mp4	0.0	147.64387226104736	0.10005593299865723
22	121.52637004852295	fix_pre	0		119	20.0	2.5	blank	1.0	147.74392819404602	0.9918479919433594
22	122.51005506515503	pulse	0	t		20.0	2.5	blank	1.0	148.7276132106781	
22	122.51821804046631	movie	1		301	20.0	2.5	blank	1.0	148.73577618598938	2.508700132369995
22	124.11037611961365	pulse	1	t		20.0	2.5	blank	1.0	150.32793426513672	
22	125.0269181728363	fix_post	2		12	20.0	2.5	blank	1.0	151.24447631835938	0.09998297691345215
23	125.12690114974976	fix_pre	0		120	21.0	2.5	/experiments/knapen_AOT/AOT_stimuli/rescaled_final/0353_rv.mp4	0.0	151.34445929527283	1.0001180171966553
23	125.7105941772461	pulse	0	t		21.0	2.5	/experiments/knapen_AOT/AOT_stimuli/rescaled_final/0353_rv.mp4	0.0	151.92815232276917	
23	126.12701916694641	movie	1		245	21.0	2.5	/experiments/knapen_AOT/AOT_stimuli/rescaled_final/0353_rv.mp4	0.0	152.34457731246948	2.5004429817199707
23	127.31082201004028	pulse	1	t		21.0	2.5	/experiments/knapen_AOT/AOT_stimuli/rescaled_final/0353_rv.mp4	0.0	153.52838015556335	
23	128.62746214866638	fix_post	2		12	21.0	2.5	/experiments/knapen_AOT/AOT_stimuli/rescaled_final/0353_rv.mp4	0.0	154.84502029418945	0.0999748706817627
24	128.72743701934814	fix_pre	0		120	22.0	2.5	/experiments/knapen_AOT/AOT_stimuli/rescaled_final/2172_fw.mp4	0.0	154.94499516487122	1.0001189708709717
24	128.91093111038208	pulse	0	t		22.0	2.5	/experiments/knapen_AOT/AOT_stimuli/rescaled_final/2172_fw.mp4	0.0	155.12848925590515	
24	129.72755599021912	movie	1		245	22.0	2.5	/experiments/knapen_AOT/AOT_stimuli/rescaled_final/2172_fw.mp4	0.0	155.9451141357422	2.500370979309082
24	130.51124596595764	pulse	1	t		22.0	2.5	/experiments/knapen_AOT/AOT_stimuli/rescaled_final/2172_fw.mp4	0.0	156.7288041114807	
24	132.10895109176636	pulse	1	t		22.0	2.5	/experiments/knapen_AOT/AOT_stimuli/rescaled_final/2172_fw.mp4	0.0	158.32650923728943	
24	132.2279269695282	fix_post	2		12	22.0	2.5	/experiments/knapen_AOT/AOT_stimuli/rescaled_final/2172_fw.mp4	0.0	158.44548511505127	0.10006117820739746
25	132.3279881477356	fix_pre	0		120	23.0	2.5	/experiments/knapen_AOT/AOT_stimuli/rescaled_final/1531_fw.mp4	0.0	158.54554629325867	1.0001118183135986
25	133.3280999660492	movie	1		244	23.0	2.5	/experiments/knapen_AOT/AOT_stimuli/rescaled_final/1531_fw.mp4	0.0	159.54565811157227	2.492032051086426
25	133.712238073349	pulse	1	t		23.0	2.5	/experiments/knapen_AOT/AOT_stimuli/rescaled_final/1531_fw.mp4	0.0	159.92979621887207	
25	135.31201004981995	pulse	1	t		23.0	2.5	/experiments/knapen_AOT/AOT_stimuli/rescaled_final/1531_fw.mp4	0.0	161.52956819534302	
25	135.82013201713562	fix_post	2		12	23.0	2.5	/experiments/knapen_AOT/AOT_stimuli/rescaled_final/1531_fw.mp4	0.0	162.0376901626587	0.10003113746643066
26	135.92016315460205	fix_pre	0		120	24.0	2.5	/experiments/knapen_AOT/AOT_stimuli/rescaled_final/1067_fw.mp4	0.0	162.13772130012512	1.000119924545288
26	136.912171125412	pulse	0	t		24.0	2.5	/experiments/knapen_AOT/AOT_stimuli/rescaled_final/1067_fw.mp4	0.0	163.12972927093506	
26	136.92028307914734	movie	1		246	24.0	2.5	/experiments/knapen_AOT/AOT_stimuli/rescaled_final/1067_fw.mp4	0.0	163.1378412246704	2.508711099624634
26	138.5134801864624	pulse	1	t		24.0	2.5	/experiments/knapen_AOT/AOT_stimuli/rescaled_final/1067_fw.mp4	0.0	164.73103833198547	
26	139.42899417877197	fix_post	2		12	24.0	2.5	/experiments/knapen_AOT/AOT_stimuli/rescaled_final/1067_fw.mp4	0.0	165.64655232429504	0.10005378723144531
27	139.52904796600342	fix_pre	0		120	25.0	2.5	/experiments/knapen_AOT/AOT_stimuli/rescaled_final/0308_fw.mp4	0.0	165.7466061115265	1.0001351833343506
27	140.1127631664276	pulse	0	t		25.0	2.5	/experiments/knapen_AOT/AOT_stimuli/rescaled_final/0308_fw.mp4	0.0	166.33032131195068	
27	140.52918314933777	movie	1		245	25.0	2.5	/experiments/knapen_AOT/AOT_stimuli/rescaled_final/0308_fw.mp4	0.0	166.74674129486084	2.500398874282837
27	141.7130630016327	pulse	1	t		25.0	2.5	/experiments/knapen_AOT/AOT_stimuli/rescaled_final/0308_fw.mp4	0.0	167.93062114715576	
27	143.0295820236206	fix_post	2		12	25.0	2.5	/experiments/knapen_AOT/AOT_stimuli/rescaled_final/0308_fw.mp4	0.0	169.24714016914368	0.10001993179321289
28	143.12960195541382	fix_pre	0		120	26.0	2.5	/experiments/knapen_AOT/AOT_stimuli/rescaled_final/0523_rv.mp4	0.0	169.3471601009369	1.0001192092895508
28	143.31316900253296	pulse	0	t		26.0	2.5	/experiments/knapen_AOT/AOT_stimuli/rescaled_final/0523_rv.mp4	0.0	169.53072714805603	
28	144.12972116470337	movie	1		245	26.0	2.5	/experiments/knapen_AOT/AOT_stimuli/rescaled_final/0523_rv.mp4	0.0	170.34727931022644	2.5003769397735596
28	144.91340112686157	pulse	1	t		26.0	2.5	/experiments/knapen_AOT/AOT_stimuli/rescaled_final/0523_rv.mp4	0.0	171.13095927238464	
28	146.51365208625793	pulse	1	t		26.0	2.5	/experiments/knapen_AOT/AOT_stimuli/rescaled_final/0523_rv.mp4	0.0	172.731210231781	
28	146.63009810447693	fix_post	2		12	26.0	2.5	/experiments/knapen_AOT/AOT_stimuli/rescaled_final/0523_rv.mp4	0.0	172.84765625	0.09997200965881348
29	146.73007011413574	fix_pre	0		120	27.0	2.5	/experiments/knapen_AOT/AOT_stimuli/rescaled_final/1558_rv.mp4	0.0	172.9476282596588	1.0001819133758545
29	147.7302520275116	movie	1		244	27.0	2.5	/experiments/knapen_AOT/AOT_stimuli/rescaled_final/1558_rv.mp4	0.0	173.94781017303467	2.4920451641082764
29	148.11453413963318	pulse	1	t		27.0	2.5	/experiments/knapen_AOT/AOT_stimuli/rescaled_final/1558_rv.mp4	0.0	174.33209228515625	
29	149.71413016319275	pulse	1	t		27.0	2.5	/experiments/knapen_AOT/AOT_stimuli/rescaled_final/1558_rv.mp4	0.0	175.93168830871582	
29	150.22229719161987	fix_post	2		12	27.0	2.5	/experiments/knapen_AOT/AOT_stimuli/rescaled_final/1558_rv.mp4	0.0	176.43985533714294	0.1000218391418457
30	150.32231903076172	fix_pre	0		120	28.0	2.5	blank	1.0	176.5398771762848	1.0001349449157715
30	151.31435918807983	pulse	0	t		28.0	2.5	blank	1.0	177.5319173336029	
30	151.3224539756775	movie	1		301	28.0	2.5	blank	1.0	177.54001212120056	2.5087201595306396
30	152.91465210914612	pulse	1	t		28.0	2.5	blank	1.0	179.1322102546692	
30	153.83117413520813	fix_post	2		12	28.0	2.5	blank	1.0	180.0487322807312	0.10001802444458008
31	153.9311921596527	fix_pre	0		120	29.0	2.5	/experiments/knapen_AOT/AOT_stimuli/rescaled_final/0891_rv.mp4	0.0	180.14875030517578	1.000154972076416
31	154.51494097709656	pulse	0	t		29.0	2.5	/experiments/knapen_AOT/AOT_stimuli/rescaled_final/0891_rv.mp4	0.0	180.73249912261963	
31	154.93134713172913	movie	1		243	29.0	2.5	/experiments/knapen_AOT/AOT_stimuli/rescaled_final/0891_rv.mp4	0.0	181.1489052772522	2.500380039215088
31	156.11516118049622	pulse	1	t		29.0	2.5	/experiments/knapen_AOT/AOT_stimuli/rescaled_final/0891_rv.mp4	0.0	182.3327193260193	
31	157.4317271709442	fix_post	2		12	29.0	2.5	/experiments/knapen_AOT/AOT_stimuli/rescaled_final/0891_rv.mp4	0.0	183.64928531646729	0.10002589225769043
32	157.5317530632019	fix_pre	0		120	30.0	2.5	/experiments/knapen_AOT/AOT_stimuli/rescaled_final/0720_rv.mp4	0.0	183.74931120872498	1.0001261234283447
32	157.71523904800415	pulse	0	t		30.0	2.5	/experiments/knapen_AOT/AOT_stimuli/rescaled_final/0720_rv.mp4	0.0	183.93279719352722	
32	158.53187918663025	movie	1		245	30.0	2.5	/experiments/knapen_AOT/AOT_stimuli/rescaled_final/0720_rv.mp4	0.0	184.74943733215332	2.5003299713134766
32	159.3081350326538	pulse	1	t		30.0	2.5	/experiments/knapen_AOT/AOT_stimuli/rescaled_final/0720_rv.mp4	0.0	185.52569317817688	
32	160.90846610069275	pulse	1	t		30.0	2.5	/experiments/knapen_AOT/AOT_stimuli/rescaled_final/0720_rv.mp4	0.0	187.12602424621582	
32	161.03220915794373	fix_post	2		12	30.0	2.5	/experiments/knapen_AOT/AOT_stimuli/rescaled_final/0720_rv.mp4	0.0	187.2497673034668	0.10006093978881836
33	161.13227009773254	fix_pre	0		120	31.0	2.5	/experiments/knapen_AOT/AOT_stimuli/rescaled_final/0631_fw.mp4	0.0	187.34982824325562	1.0001490116119385
33	162.13241910934448	movie	1		244	31.0	2.5	/experiments/knapen_AOT/AOT_stimuli/rescaled_final/0631_fw.mp4	0.0	188.34997725486755	2.492032051086426
33	162.51649403572083	pulse	1	t		31.0	2.5	/experiments/knapen_AOT/AOT_stimuli/rescaled_final/0631_fw.mp4	0.0	188.7340521812439	
33	164.1088080406189	pulse	1	t		31.0	2.5	/experiments/knapen_AOT/AOT_stimuli/rescaled_final/0631_fw.mp4	0.0	190.32636618614197	
33	164.6244511604309	fix_post	2		12	31.0	2.5	/experiments/knapen_AOT/AOT_stimuli/rescaled_final/0631_fw.mp4	0.0	190.84200930595398	0.10001182556152344
34	164.72446298599243	fix_pre	0		119	32.0	2.5	/experiments/knapen_AOT/AOT_stimuli/rescaled_final/0301_rv.mp4	0.0	190.9420211315155	0.9918110370635986
34	165.7082121372223	pulse	0	t		32.0	2.5	/experiments/knapen_AOT/AOT_stimuli/rescaled_final/0301_rv.mp4	0.0	191.92577028274536	
34	165.71627402305603	movie	1		245	32.0	2.5	/experiments/knapen_AOT/AOT_stimuli/rescaled_final/0301_rv.mp4	0.0	191.9338321685791	2.5086939334869385
34	167.3090009689331	pulse	1	t		32.0	2.5	/experiments/knapen_AOT/AOT_stimuli/rescaled_final/0301_rv.mp4	0.0	193.52655911445618	
34	168.22496795654297	fix_post	2		12	32.0	2.5	/experiments/knapen_AOT/AOT_stimuli/rescaled_final/0301_rv.mp4	0.0	194.44252610206604	0.10000300407409668
35	168.32497096061707	fix_pre	0		120	33.0	2.5	/experiments/knapen_AOT/AOT_stimuli/rescaled_final/0243_fw.mp4	0.0	194.54252910614014	1.000162124633789
35	168.9086730480194	pulse	0	t		33.0	2.5	/experiments/knapen_AOT/AOT_stimuli/rescaled_final/0243_fw.mp4	0.0	195.12623119354248	
35	169.32513308525085	movie	1		245	33.0	2.5	/experiments/knapen_AOT/AOT_stimuli/rescaled_final/0243_fw.mp4	0.0	195.54269123077393	2.50039005279541
35	170.5088620185852	pulse	1	t		33.0	2.5	/experiments/knapen_AOT/AOT_stimuli/rescaled_final/0243_fw.mp4	0.0	196.72642016410828	
35	171.82552313804626	fix_post	2		12	33.0	2.5	/experiments/knapen_AOT/AOT_stimuli/rescaled_final/0243_fw.mp4	0.0	198.04308128356934	0.09999299049377441
36	171.92551612854004	fix_pre	0		120	34.0	2.5	/experiments/knapen_AOT/AOT_stimuli/rescaled_final/1135_rv.mp4	0.0	198.1430742740631	1.0001850128173828
36	172.10920000076294	pulse	0	t		34.0	2.5	/experiments/knapen_AOT/AOT_stimuli/rescaled_final/1135_rv.mp4	0.0	198.326758146286	
36	172.92570114135742	movie	1		246	34.0	2.5	/experiments/knapen_AOT/AOT_stimuli/rescaled_final/1135_rv.mp4	0.0	199.1432592868805	2.5024638175964355
36	173.70937705039978	pulse	1	t		34.0	2.5	/experiments/knapen_AOT/AOT_stimuli/rescaled_final/1135_rv.mp4	0.0	199.92693519592285	
36	175.30958008766174	pulse	1	t		34.0	2.5	/experiments/knapen_AOT/AOT_stimuli/rescaled_final/1135_rv.mp4	0.0	201.52713823318481	
36	175.42816495895386	fix_post	2		10	34.0	2.5	/experiments/knapen_AOT/AOT_stimuli/rescaled_final/1135_rv.mp4	0.0	201.64572310447693	0.09792709350585938
37	175.52609205245972	fix_pre	0		120	35.0	2.5	blank	1.0	201.7436501979828	1.0001370906829834
37	176.5262291431427	movie	1		299	35.0	2.5	blank	1.0	202.74378728866577	2.492048978805542
37	176.9098720550537	pulse	1	t		35.0	2.5	blank	1.0	203.12743020057678	
37	178.51020407676697	pulse	1	t		35.0	2.5	blank	1.0	204.72776222229004	
37	179.01827812194824	fix_post	2		12	35.0	2.5	blank	1.0	205.2358362674713	0.09997892379760742
38	179.11825704574585	fix_pre	0		120	36.0	2.5	/experiments/knapen_AOT/AOT_stimuli/rescaled_final/1326_fw.mp4	0.0	205.33581519126892	1.0001559257507324
38	180.11040711402893	pulse	0	t		36.0	2.5	/experiments/knapen_AOT/AOT_stimuli/rescaled_final/1326_fw.mp4	0.0	206.327965259552	
38	180.11841297149658	movie	1		245	36.0	2.5	/experiments/knapen_AOT/AOT_stimuli/rescaled_final/1326_fw.mp4	0.0	206.33597111701965	2.50871205329895
38	181.7119481563568	pulse	1	t		36.0	2.5	/experiments/knapen_AOT/AOT_stimuli/rescaled_final/1326_fw.mp4	0.0	207.92950630187988	
38	182.62712502479553	fix_post	2		12	36.0	2.5	/experiments/knapen_AOT/AOT_stimuli/rescaled_final/1326_fw.mp4	0.0	208.8446831703186	0.10010814666748047
39	182.727233171463	fix_pre	0		120	37.0	2.5	/experiments/knapen_AOT/AOT_stimuli/rescaled_final/1103_fw.mp4	0.0	208.94479131698608	1.0001029968261719
39	183.31069707870483	pulse	0	t		37.0	2.5	/experiments/knapen_AOT/AOT_stimuli/rescaled_final/1103_fw.mp4	0.0	209.5282552242279	
39	183.72733616828918	movie	1		244	37.0	2.5	/experiments/knapen_AOT/AOT_stimuli/rescaled_final/1103_fw.mp4	0.0	209.94489431381226	2.5003278255462646
39	184.9111361503601	pulse	1	t		37.0	2.5	/experiments/knapen_AOT/AOT_stimuli/rescaled_final/1103_fw.mp4	0.0	211.12869429588318	
39	186.22766399383545	fix_post	2		12	37.0	2.5	/experiments/knapen_AOT/AOT_stimuli/rescaled_final/1103_fw.mp4	0.0	212.44522213935852	0.100006103515625
40	186.32767009735107	fix_pre	0		120	38.0	2.5	/experiments/knapen_AOT/AOT_stimuli/rescaled_final/1245_fw.mp4	0.0	212.54522824287415	1.0001928806304932
40	186.51120018959045	pulse	0	t		38.0	2.5	/experiments/knapen_AOT/AOT_stimuli/rescaled_final/1245_fw.mp4	0.0	212.72875833511353	
40	187.32786297798157	movie	1		244	38.0	2.5	/experiments/knapen_AOT/AOT_stimuli/rescaled_final/1245_fw.mp4	0.0	213.54542112350464	2.500364065170288
40	188.11149311065674	pulse	1	t		38.0	2.5	/experiments/knapen_AOT/AOT_stimuli/rescaled_final/1245_fw.mp4	0.0	214.3290512561798	
40	189.71515107154846	pulse	1	t		38.0	2.5	/experiments/knapen_AOT/AOT_stimuli/rescaled_final/1245_fw.mp4	0.0	215.93270921707153	
40	189.82822704315186	fix_post	2		12	38.0	2.5	/experiments/knapen_AOT/AOT_stimuli/rescaled_final/1245_fw.mp4	0.0	216.04578518867493	0.10004997253417969
41	189.92827701568604	fix_pre	0		120	39.0	2.5	/experiments/knapen_AOT/AOT_stimuli/rescaled_final/1974_fw.mp4	0.0	216.1458351612091	1.0000720024108887
41	190.92834901809692	movie	1		243	39.0	2.5	/experiments/knapen_AOT/AOT_stimuli/rescaled_final/1974_fw.mp4	0.0	217.14590716362	2.4920589923858643
41	191.31250500679016	pulse	1	t		39.0	2.5	/experiments/knapen_AOT/AOT_stimuli/rescaled_final/1974_fw.mp4	0.0	217.53006315231323	
41	192.91232204437256	pulse	1	t		39.0	2.5	/experiments/knapen_AOT/AOT_stimuli/rescaled_final/1974_fw.mp4	0.0	219.12988018989563	
41	193.4204080104828	fix_post	2		12	39.0	2.5	/experiments/knapen_AOT/AOT_stimuli/rescaled_final/1974_fw.mp4	0.0	219.63796615600586	0.10004115104675293
42	193.52044916152954	fix_pre	0		120	40.0	2.5	/experiments/knapen_AOT/AOT_stimuli/rescaled_final/1017_rv.mp4	0.0	219.7380073070526	1.0001049041748047
42	194.51247715950012	pulse	0	t		40.0	2.5	/experiments/knapen_AOT/AOT_stimuli/rescaled_final/1017_rv.mp4	0.0	220.7300353050232	
42	194.52055406570435	movie	1		246	40.0	2.5	/experiments/knapen_AOT/AOT_stimuli/rescaled_final/1017_rv.mp4	0.0	220.73811221122742	2.508737087249756
42	196.1133110523224	pulse	1	t		40.0	2.5	/experiments/knapen_AOT/AOT_stimuli/rescaled_final/1017_rv.mp4	0.0	222.33086919784546	
42	197.0292911529541	fix_post	2		12	40.0	2.5	/experiments/knapen_AOT/AOT_stimuli/rescaled_final/1017_rv.mp4	0.0	223.24684929847717	0.10004186630249023
43	197.1293330192566	fix_pre	0		120	41.0	2.5	blank	1.0	223.34689116477966	1.000175952911377
43	197.71293711662292	pulse	0	t		41.0	2.5	blank	1.0	223.930495262146	
43	198.12950897216797	movie	1		300	41.0	2.5	blank	1.0	224.34706711769104	2.5003089904785156
43	199.31328797340393	pulse	1	t		41.0	2.5	blank	1.0	225.530846118927	
43	200.62981796264648	fix_post	2		12	41.0	2.5	blank	1.0	226.84737610816956	0.10003399848937988
44	200.72985196113586	fix_pre	0		120	42.0	2.5	/experiments/knapen_AOT/AOT_stimuli/rescaled_final/1521_fw.mp4	0.0	226.94741010665894	1.0001461505889893
44	200.91348600387573	pulse	0	t		42.0	2.5	/experiments/knapen_AOT/AOT_stimuli/rescaled_final/1521_fw.mp4	0.0	227.1310441493988	
44	201.72999811172485	movie	1		246	42.0	2.5	/experiments/knapen_AOT/AOT_stimuli/rescaled_final/1521_fw.mp4	0.0	227.94755625724792	2.5003669261932373
44	202.5137071609497	pulse	1	t		42.0	2.5	/experiments/knapen_AOT/AOT_stimuli/rescaled_final/1521_fw.mp4	0.0	228.73126530647278	
44	204.11388897895813	pulse	1	t		42.0	2.5	/experiments/knapen_AOT/AOT_stimuli/rescaled_final/1521_fw.mp4	0.0	230.3314471244812	
44	204.2303650379181	fix_post	2		12	42.0	2.5	/experiments/knapen_AOT/AOT_stimuli/rescaled_final/1521_fw.mp4	0.0	230.44792318344116	0.1000831127166748
45	204.33044815063477	fix_pre	0		120	43.0	2.5	/experiments/knapen_AOT/AOT_stimuli/rescaled_final/0677_rv.mp4	0.0	230.54800629615784	1.0000789165496826
45	205.33052706718445	movie	1		243	43.0	2.5	/experiments/knapen_AOT/AOT_stimuli/rescaled_final/0677_rv.mp4	0.0	231.54808521270752	2.492042064666748
45	205.7145299911499	pulse	1	t		43.0	2.5	/experiments/knapen_AOT/AOT_stimuli/rescaled_final/0677_rv.mp4	0.0	231.93208813667297	
45	207.31441402435303	pulse	1	t		43.0	2.5	/experiments/knapen_AOT/AOT_stimuli/rescaled_final/0677_rv.mp4	0.0	233.5319721698761	
45	207.8225691318512	fix_post	2		12	43.0	2.5	/experiments/knapen_AOT/AOT_stimuli/rescaled_final/0677_rv.mp4	0.0	234.04012727737427	0.10001492500305176
46	207.92258405685425	fix_pre	0		120	44.0	2.5	/experiments/knapen_AOT/AOT_stimuli/rescaled_final/1028_fw.mp4	0.0	234.14014220237732	1.0001630783081055
46	208.9146761894226	pulse	0	t		44.0	2.5	/experiments/knapen_AOT/AOT_stimuli/rescaled_final/1028_fw.mp4	0.0	235.13223433494568	
46	208.92274713516235	movie	1		249	44.0	2.5	/experiments/knapen_AOT/AOT_stimuli/rescaled_final/1028_fw.mp4	0.0	235.14030528068542	2.5087199211120605
46	210.51532912254333	pulse	1	t		44.0	2.5	/experiments/knapen_AOT/AOT_stimuli/rescaled_final/1028_fw.mp4	0.0	236.7328872680664	
46	211.4314670562744	fix_post	2		12	44.0	2.5	/experiments/knapen_AOT/AOT_stimuli/rescaled_final/1028_fw.mp4	0.0	237.64902520179749	0.10002994537353516
47	211.53149700164795	fix_pre	0		120	45.0	2.5	/experiments/knapen_AOT/AOT_stimuli/rescaled_final/0365_fw.mp4	0.0	237.74905514717102	1.0001139640808105
47	212.115168094635	pulse	0	t		45.0	2.5	/experiments/knapen_AOT/AOT_stimuli/rescaled_final/0365_fw.mp4	0.0	238.33272624015808	
47	212.53161096572876	movie	1		246	45.0	2.5	/experiments/knapen_AOT/AOT_stimuli/rescaled_final/0365_fw.mp4	0.0	238.74916911125183	2.5003771781921387
47	213.71537709236145	pulse	1	t		45.0	2.5	/experiments/knapen_AOT/AOT_stimuli/rescaled_final/0365_fw.mp4	0.0	239.93293523788452	
47	215.0319881439209	fix_post	2		12	45.0	2.5	/experiments/knapen_AOT/AOT_stimuli/rescaled_final/0365_fw.mp4	0.0	241.24954628944397	0.10001087188720703
48	215.1319990158081	fix_pre	0		120	46.0	2.5	/experiments/knapen_AOT/AOT_stimuli/rescaled_final/1758_rv.mp4	0.0	241.34955716133118	1.0001411437988281
48	215.3082230091095	pulse	0	t		46.0	2.5	/experiments/knapen_AOT/AOT_stimuli/rescaled_final/1758_rv.mp4	0.0	241.52578115463257	
48	216.13214015960693	movie	1		245	46.0	2.5	/experiments/knapen_AOT/AOT_stimuli/rescaled_final/1758_rv.mp4	0.0	242.34969830513	2.5003678798675537
48	216.90855407714844	pulse	1	t		46.0	2.5	/experiments/knapen_AOT/AOT_stimuli/rescaled_final/1758_rv.mp4	0.0	243.1261122226715	
48	218.5086591243744	pulse	1	t		46.0	2.5	/experiments/knapen_AOT/AOT_stimuli/rescaled_final/1758_rv.mp4	0.0	244.72621726989746	
48	218.6325080394745	fix_post	2		12	46.0	2.5	/experiments/knapen_AOT/AOT_stimuli/rescaled_final/1758_rv.mp4	0.0	244.85006618499756	0.10004591941833496
49	218.73255395889282	fix_pre	0		119	47.0	2.5	blank	1.0	244.9501121044159	0.9917750358581543
49	219.72432899475098	movie	1		300	47.0	2.5	blank	1.0	245.94188714027405	2.500399112701416
49	220.10791516304016	pulse	1	t		47.0	2.5	blank	1.0	246.32547330856323	
49	221.70812606811523	pulse	1	t		47.0	2.5	blank	1.0	247.9256842136383	
49	222.2247281074524	fix_post	2		12	47.0	2.5	blank	1.0	248.44228625297546	0.09999394416809082
50	222.32472205162048	fix_pre	0		119	48.0	2.5	/experiments/knapen_AOT/AOT_stimuli/rescaled_final/0470_rv.mp4	0.0	248.54228019714355	0.9918160438537598
50	223.3083851337433	pulse	0	t		48.0	2.5	/experiments/knapen_AOT/AOT_stimuli/rescaled_final/0470_rv.mp4	0.0	249.52594327926636	
50	223.31653809547424	movie	1		247	48.0	2.5	/experiments/knapen_AOT/AOT_stimuli/rescaled_final/0470_rv.mp4	0.0	249.53409624099731	2.5087108612060547
50	224.90911102294922	pulse	1	t		48.0	2.5	/experiments/knapen_AOT/AOT_stimuli/rescaled_final/0470_rv.mp4	0.0	251.1266691684723	
50	225.8252489566803	fix_post	2		12	48.0	2.5	/experiments/knapen_AOT/AOT_stimuli/rescaled_final/0470_rv.mp4	0.0	252.04280710220337	0.09999704360961914
51	225.92524600028992	fix_pre	0		120	49.0	2.5	/experiments/knapen_AOT/AOT_stimuli/rescaled_final/0051_fw.mp4	0.0	252.142804145813	1.0001699924468994
51	226.50882196426392	pulse	0	t		49.0	2.5	/experiments/knapen_AOT/AOT_stimuli/rescaled_final/0051_fw.mp4	0.0	252.726380109787	
51	226.92541599273682	movie	1		245	49.0	2.5	/experiments/knapen_AOT/AOT_stimuli/rescaled_final/0051_fw.mp4	0.0	253.1429741382599	2.5003490447998047
51	228.10925197601318	pulse	1	t		49.0	2.5	/experiments/knapen_AOT/AOT_stimuli/rescaled_final/0051_fw.mp4	0.0	254.32681012153625	
51	229.42576503753662	fix_post	2		12	49.0	2.5	/experiments/knapen_AOT/AOT_stimuli/rescaled_final/0051_fw.mp4	0.0	255.6433231830597	0.10002708435058594
52	229.5257921218872	fix_pre	0		120	50.0	2.5	/experiments/knapen_AOT/AOT_stimuli/rescaled_final/1069_rv.mp4	0.0	255.74335026741028	1.0001399517059326
52	229.70943307876587	pulse	0	t		50.0	2.5	/experiments/knapen_AOT/AOT_stimuli/rescaled_final/1069_rv.mp4	0.0	255.92699122428894	
52	230.52593207359314	movie	1		244	50.0	2.5	/experiments/knapen_AOT/AOT_stimuli/rescaled_final/1069_rv.mp4	0.0	256.7434902191162	2.5004260540008545
52	231.30959701538086	pulse	1	t		50.0	2.5	/experiments/knapen_AOT/AOT_stimuli/rescaled_final/1069_rv.mp4	0.0	257.52715516090393	
52	232.90996718406677	pulse	1	t		50.0	2.5	/experiments/knapen_AOT/AOT_stimuli/rescaled_final/1069_rv.mp4	0.0	259.12752532958984	
52	233.026358127594	fix_post	2		12	50.0	2.5	/experiments/knapen_AOT/AOT_stimuli/rescaled_final/1069_rv.mp4	0.0	259.24391627311707	0.10000991821289062
53	233.12636804580688	fix_pre	0		120	51.0	2.5	/experiments/knapen_AOT/AOT_stimuli/rescaled_final/1566_rv.mp4	0.0	259.34392619132996	1.0001261234283447
53	234.12649416923523	movie	1		244	51.0	2.5	/experiments/knapen_AOT/AOT_stimuli/rescaled_final/1566_rv.mp4	0.0	260.3440523147583	2.4920248985290527
53	234.5106270313263	pulse	1	t		51.0	2.5	/experiments/knapen_AOT/AOT_stimuli/rescaled_final/1566_rv.mp4	0.0	260.72818517684937	
53	236.11037802696228	pulse	1	t		51.0	2.5	/experiments/knapen_AOT/AOT_stimuli/rescaled_final/1566_rv.mp4	0.0	262.32793617248535	
53	236.61851906776428	fix_post	2		10	51.0	2.5	/experiments/knapen_AOT/AOT_stimuli/rescaled_final/1566_rv.mp4	0.0	262.83607721328735	0.10004496574401855
54	236.7185640335083	fix_pre	0		120	52.0	2.5	/experiments/knapen_AOT/AOT_stimuli/rescaled_final/1372_fw.mp4	0.0	262.9361221790314	1.000136137008667
54	237.71054196357727	pulse	0	t		52.0	2.5	/experiments/knapen_AOT/AOT_stimuli/rescaled_final/1372_fw.mp4	0.0	263.92810010910034	
54	237.71870017051697	movie	1		245	52.0	2.5	/experiments/knapen_AOT/AOT_stimuli/rescaled_final/1372_fw.mp4	0.0	263.93625831604004	2.508774995803833
54	239.31153416633606	pulse	1	t		52.0	2.5	/experiments/knapen_AOT/AOT_stimuli/rescaled_final/1372_fw.mp4	0.0	265.52909231185913	
54	240.2274751663208	fix_post	2		12	52.0	2.5	/experiments/knapen_AOT/AOT_stimuli/rescaled_final/1372_fw.mp4	0.0	266.4450333118439	0.09997701644897461
55	240.32745218276978	fix_pre	0		120	53.0	2.5	/experiments/knapen_AOT/AOT_stimuli/rescaled_final/1039_rv.mp4	0.0	266.54501032829285	1.0001118183135986
55	240.91098809242249	pulse	0	t		53.0	2.5	/experiments/knapen_AOT/AOT_stimuli/rescaled_final/1039_rv.mp4	0.0	267.12854623794556	
55	241.32756400108337	movie	1		244	53.0	2.5	/experiments/knapen_AOT/AOT_stimuli/rescaled_final/1039_rv.mp4	0.0	267.54512214660645	2.5004260540008545
55	242.51131415367126	pulse	1	t		53.0	2.5	/experiments/knapen_AOT/AOT_stimuli/rescaled_final/1039_rv.mp4	0.0	268.72887229919434	
55	243.82799005508423	fix_post	2		12	53.0	2.5	/experiments/knapen_AOT/AOT_stimuli/rescaled_final/1039_rv.mp4	0.0	270.0455482006073	0.09996891021728516
56	243.9279589653015	fix_pre	0		120	54.0	2.5	blank	1.0	270.1455171108246	1.0001311302185059
56	244.11165308952332	pulse	0	t		54.0	2.5	blank	1.0	270.3292112350464	
56	244.92809009552002	movie	1		300	54.0	2.5	blank	1.0	271.1456482410431	2.500408887863159
56	245.7117841243744	pulse	1	t		54.0	2.5	blank	1.0	271.92934226989746	
56	247.3119809627533	pulse	1	t		54.0	2.5	blank	1.0	273.52953910827637	
56	247.42849898338318	fix_post	2		12	54.0	2.5	blank	1.0	273.64605712890625	0.10005497932434082
57	247.52855396270752	fix_pre	0		120	55.0	2.5	/experiments/knapen_AOT/AOT_stimuli/rescaled_final/1028_rv.mp4	0.0	273.7461121082306	1.0000782012939453
57	248.52863216400146	movie	1		246	55.0	2.5	/experiments/knapen_AOT/AOT_stimuli/rescaled_final/1028_rv.mp4	0.0	274.74619030952454	2.492039918899536
57	248.91356706619263	pulse	1	t		55.0	2.5	/experiments/knapen_AOT/AOT_stimuli/rescaled_final/1028_rv.mp4	0.0	275.1311252117157	
57	250.5125651359558	pulse	1	t		55.0	2.5	/experiments/knapen_AOT/AOT_stimuli/rescaled_final/1028_rv.mp4	0.0	276.7301232814789	
57	251.020672082901	fix_post	2		12	55.0	2.5	/experiments/knapen_AOT/AOT_stimuli/rescaled_final/1028_rv.mp4	0.0	277.2382302284241	0.10002303123474121
58	251.12069511413574	fix_pre	0		120	56.0	2.5	/experiments/knapen_AOT/AOT_stimuli/rescaled_final/2076_fw.mp4	0.0	277.3382532596588	1.000135898590088
58	252.1127450466156	pulse	0	t		56.0	2.5	/experiments/knapen_AOT/AOT_stimuli/rescaled_final/2076_fw.mp4	0.0	278.3303031921387	
58	252.12083101272583	movie	1		247	56.0	2.5	/experiments/knapen_AOT/AOT_stimuli/rescaled_final/2076_fw.mp4	0.0	278.3383891582489	2.5087051391601562
58	253.71372318267822	pulse	1	t		56.0	2.5	/experiments/knapen_AOT/AOT_stimuli/rescaled_final/2076_fw.mp4	0.0	279.9312813282013	
58	254.629536151886	fix_post	2		12	56.0	2.5	/experiments/knapen_AOT/AOT_stimuli/rescaled_final/2076_fw.mp4	0.0	280.84709429740906	0.10002684593200684
59	254.729562997818	fix_pre	0		120	57.0	2.5	/experiments/knapen_AOT/AOT_stimuli/rescaled_final/1067_fw.mp4	0.0	280.94712114334106	1.0001590251922607
59	255.31320714950562	pulse	0	t		57.0	2.5	/experiments/knapen_AOT/AOT_stimuli/rescaled_final/1067_fw.mp4	0.0	281.5307652950287	
59	255.72972202301025	movie	1		245	57.0	2.5	/experiments/knapen_AOT/AOT_stimuli/rescaled_final/1067_fw.mp4	0.0	281.9472801685333	2.5003981590270996
59	256.91348218917847	pulse	1	t		57.0	2.5	/experiments/knapen_AOT/AOT_stimuli/rescaled_final/1067_fw.mp4	0.0	283.13104033470154	
59	258.23012018203735	fix_post	2		12	57.0	2.5	/experiments/knapen_AOT/AOT_stimuli/rescaled_final/1067_fw.mp4	0.0	284.4476783275604	0.10011696815490723
60	258.33023715019226	fix_pre	0		120	58.0	2.5	/experiments/knapen_AOT/AOT_stimuli/rescaled_final/0603_rv.mp4	0.0	284.54779529571533	1.000032901763916
60	258.51372504234314	pulse	0	t		58.0	2.5	/experiments/knapen_AOT/AOT_stimuli/rescaled_final/0603_rv.mp4	0.0	284.7312831878662	
60	259.3302700519562	movie	1		244	58.0	2.5	/experiments/knapen_AOT/AOT_stimuli/rescaled_final/0603_rv.mp4	0.0	285.54782819747925	2.500338077545166
60	260.1138319969177	pulse	1	t		58.0	2.5	/experiments/knapen_AOT/AOT_stimuli/rescaled_final/0603_rv.mp4	0.0	286.3313901424408	
60	261.71419405937195	pulse	1	t		58.0	2.5	/experiments/knapen_AOT/AOT_stimuli/rescaled_final/0603_rv.mp4	0.0	287.931752204895	
60	261.83060812950134	fix_post	2		12	58.0	2.5	/experiments/knapen_AOT/AOT_stimuli/rescaled_final/0603_rv.mp4	0.0	288.0481662750244	0.1000218391418457
61	261.9306299686432	fix_pre	0		120	59.0	2.5	/experiments/knapen_AOT/AOT_stimuli/rescaled_final/1598_rv.mp4	0.0	288.14818811416626	1.0001699924468994
61	262.9307999610901	movie	1		243	59.0	2.5	/experiments/knapen_AOT/AOT_stimuli/rescaled_final/1598_rv.mp4	0.0	289.14835810661316	2.492025136947632
61	263.31505608558655	pulse	1	t		59.0	2.5	/experiments/knapen_AOT/AOT_stimuli/rescaled_final/1598_rv.mp4	0.0	289.5326142311096	
61	264.9146730899811	pulse	1	t		59.0	2.5	/experiments/knapen_AOT/AOT_stimuli/rescaled_final/1598_rv.mp4	0.0	291.13223123550415	
61	265.4228250980377	fix_post	2		12	59.0	2.5	/experiments/knapen_AOT/AOT_stimuli/rescaled_final/1598_rv.mp4	0.0	291.6403832435608	0.10004687309265137
62	265.52287197113037	fix_pre	0		120	60.0	2.5	/experiments/knapen_AOT/AOT_stimuli/rescaled_final/0775_rv.mp4	0.0	291.74043011665344	1.0001401901245117
62	266.5148091316223	pulse	0	t		60.0	2.5	/experiments/knapen_AOT/AOT_stimuli/rescaled_final/0775_rv.mp4	0.0	292.7323672771454	
62	266.5230121612549	movie	1		247	60.0	2.5	/experiments/knapen_AOT/AOT_stimuli/rescaled_final/0775_rv.mp4	0.0	292.74057030677795	2.508668899536133
62	268.11673617362976	pulse	1	t		60.0	2.5	/experiments/knapen_AOT/AOT_stimuli/rescaled_final/0775_rv.mp4	0.0	294.33429431915283	
62	269.031681060791	fix_post	2		12	60.0	2.5	/experiments/knapen_AOT/AOT_stimuli/rescaled_final/0775_rv.mp4	0.0	295.2492392063141	0.10004210472106934
63	269.1317231655121	fix_pre	0		120	61.0	2.5	blank	1.0	295.34928131103516	1.0001449584960938
63	269.7153470516205	pulse	0	t		61.0	2.5	blank	1.0	295.93290519714355	
63	270.1318681240082	movie	1		300	61.0	2.5	blank	1.0	296.34942626953125	2.5004448890686035
63	271.31554913520813	pulse	1	t		61.0	2.5	blank	1.0	297.5331072807312	
63	272.6323130130768	fix_post	2		12	61.0	2.5	blank	1.0	298.84987115859985	0.09998416900634766
64	272.73229718208313	fix_pre	0		120	62.0	2.5	/experiments/knapen_AOT/AOT_stimuli/rescaled_final/1173_fw.mp4	0.0	298.9498553276062	1.0000948905944824
64	272.9083080291748	pulse	0	t		62.0	2.5	/experiments/knapen_AOT/AOT_stimuli/rescaled_final/1173_fw.mp4	0.0	299.1258661746979	
64	273.7323920726776	movie	1		244	62.0	2.5	/experiments/knapen_AOT/AOT_stimuli/rescaled_final/1173_fw.mp4	0.0	299.9499502182007	2.492053985595703
64	274.508807182312	pulse	1	t		62.0	2.5	/experiments/knapen_AOT/AOT_stimuli/rescaled_final/1173_fw.mp4	0.0	300.7263653278351	
64	276.1139349937439	pulse	1	t		62.0	2.5	/experiments/knapen_AOT/AOT_stimuli/rescaled_final/1173_fw.mp4	0.0	302.33149313926697	
64	276.2244460582733	fix_post	2		13	62.0	2.5	/experiments/knapen_AOT/AOT_stimuli/rescaled_final/1173_fw.mp4	0.0	302.4420042037964	0.10835790634155273
65	276.33280396461487	fix_pre	0		120	63.0	2.5	/experiments/knapen_AOT/AOT_stimuli/rescaled_final/2080_rv.mp4	0.0	302.55036211013794	1.0001981258392334
65	277.3330020904541	movie	1		244	63.0	2.5	/experiments/knapen_AOT/AOT_stimuli/rescaled_final/2080_rv.mp4	0.0	303.5505602359772	2.4919700622558594
65	277.7173399925232	pulse	1	t		63.0	2.5	/experiments/knapen_AOT/AOT_stimuli/rescaled_final/2080_rv.mp4	0.0	303.93489813804626	
65	279.3094000816345	pulse	1	t		63.0	2.5	/experiments/knapen_AOT/AOT_stimuli/rescaled_final/2080_rv.mp4	0.0	305.5269582271576	
65	279.82497215270996	fix_post	2		12	63.0	2.5	/experiments/knapen_AOT/AOT_stimuli/rescaled_final/2080_rv.mp4	0.0	306.04253029823303	0.10001182556152344
66	279.9249839782715	fix_pre	0		119	64.0	2.5	/experiments/knapen_AOT/AOT_stimuli/rescaled_final/0953_fw.mp4	0.0	306.14254212379456	0.9918150901794434
66	280.90869307518005	pulse	0	t		64.0	2.5	/experiments/knapen_AOT/AOT_stimuli/rescaled_final/0953_fw.mp4	0.0	307.1262512207031	
66	280.9167990684509	movie	1		245	64.0	2.5	/experiments/knapen_AOT/AOT_stimuli/rescaled_final/0953_fw.mp4	0.0	307.134357213974	2.5087339878082275
66	282.5101330280304	pulse	1	t		64.0	2.5	/experiments/knapen_AOT/AOT_stimuli/rescaled_final/0953_fw.mp4	0.0	308.72769117355347	
66	283.42553305625916	fix_post	2		12	64.0	2.5	/experiments/knapen_AOT/AOT_stimuli/rescaled_final/0953_fw.mp4	0.0	309.6430912017822	0.10001707077026367
67	283.5255501270294	fix_pre	0		120	65.0	2.5	/experiments/knapen_AOT/AOT_stimuli/rescaled_final/0097_rv.mp4	0.0	309.7431082725525	1.0001318454742432
67	284.10927510261536	pulse	0	t		65.0	2.5	/experiments/knapen_AOT/AOT_stimuli/rescaled_final/0097_rv.mp4	0.0	310.3268332481384	
67	284.52568197250366	movie	1		246	65.0	2.5	/experiments/knapen_AOT/AOT_stimuli/rescaled_final/0097_rv.mp4	0.0	310.74324011802673	2.5003671646118164
67	285.70957112312317	pulse	1	t		65.0	2.5	/experiments/knapen_AOT/AOT_stimuli/rescaled_final/0097_rv.mp4	0.0	311.92712926864624	
67	287.0260491371155	fix_post	2		12	65.0	2.5	/experiments/knapen_AOT/AOT_stimuli/rescaled_final/0097_rv.mp4	0.0	313.24360728263855	0.10006499290466309
68	287.12611413002014	fix_pre	0		120	66.0	2.5	/experiments/knapen_AOT/AOT_stimuli/rescaled_final/1326_fw.mp4	0.0	313.3436722755432	1.0001380443572998
68	287.30966806411743	pulse	0	t		66.0	2.5	/experiments/knapen_AOT/AOT_stimuli/rescaled_final/1326_fw.mp4	0.0	313.5272262096405	
68	288.12625217437744	movie	1		244	66.0	2.5	/experiments/knapen_AOT/AOT_stimuli/rescaled_final/1326_fw.mp4	0.0	314.3438103199005	2.5003509521484375
68	288.9098069667816	pulse	1	t		66.0	2.5	/experiments/knapen_AOT/AOT_stimuli/rescaled_final/1326_fw.mp4	0.0	315.1273651123047	
68	290.50991010665894	pulse	1	t		66.0	2.5	/experiments/knapen_AOT/AOT_stimuli/rescaled_final/1326_fw.mp4	0.0	316.727468252182	
68	290.6266031265259	fix_post	2		12	66.0	2.5	/experiments/knapen_AOT/AOT_stimuli/rescaled_final/1326_fw.mp4	0.0	316.84416127204895	0.10001397132873535
69	290.7266170978546	fix_pre	0		120	67.0	2.5	/experiments/knapen_AOT/AOT_stimuli/rescaled_final/0503_rv.mp4	0.0	316.9441752433777	1.00016188621521
69	291.7267789840698	movie	1		244	67.0	2.5	/experiments/knapen_AOT/AOT_stimuli/rescaled_final/0503_rv.mp4	0.0	317.9443371295929	2.4919991493225098
69	292.1146149635315	pulse	1	t		67.0	2.5	/experiments/knapen_AOT/AOT_stimuli/rescaled_final/0503_rv.mp4	0.0	318.33217310905457	
69	293.71062302589417	pulse	1	t		67.0	2.5	/experiments/knapen_AOT/AOT_stimuli/rescaled_final/0503_rv.mp4	0.0	319.92818117141724	
69	294.21877813339233	fix_post	2		12	67.0	2.5	/experiments/knapen_AOT/AOT_stimuli/rescaled_final/0503_rv.mp4	0.0	320.4363362789154	0.10001397132873535
70	294.31879210472107	fix_pre	0		120	68.0	2.5	blank	1.0	320.53635025024414	1.0001890659332275
70	295.31076407432556	pulse	0	t		68.0	2.5	blank	1.0	321.52832221984863	
70	295.3189811706543	movie	1		301	68.0	2.5	blank	1.0	321.53653931617737	2.508699893951416
70	296.9110951423645	pulse	1	t		68.0	2.5	blank	1.0	323.1286532878876	
70	297.8276810646057	fix_post	2		9	68.0	2.5	blank	1.0	324.0452392101288	0.10001707077026367
71	297.927698135376	fix_pre	0		120	69.0	2.5	/experiments/knapen_AOT/AOT_stimuli/rescaled_final/1617_fw.mp4	0.0	324.14525628089905	1.000128984451294
71	298.51129698753357	pulse	0	t		69.0	2.5	/experiments/knapen_AOT/AOT_stimuli/rescaled_final/1617_fw.mp4	0.0	324.72885513305664	
71	298.92782711982727	movie	1		244	69.0	2.5	/experiments/knapen_AOT/AOT_stimuli/rescaled_final/1617_fw.mp4	0.0	325.14538526535034	2.500412940979004
71	300.1116871833801	pulse	1	t		69.0	2.5	/experiments/knapen_AOT/AOT_stimuli/rescaled_final/1617_fw.mp4	0.0	326.3292453289032	
71	301.4282400608063	fix_post	2		12	69.0	2.5	/experiments/knapen_AOT/AOT_stimuli/rescaled_final/1617_fw.mp4	0.0	327.64579820632935	0.09999895095825195
72	301.5282390117645	fix_pre	0		120	70.0	2.5	/experiments/knapen_AOT/AOT_stimuli/rescaled_final/0910_fw.mp4	0.0	327.7457971572876	1.0001180171966553
72	301.7117781639099	pulse	0	t		70.0	2.5	/experiments/knapen_AOT/AOT_stimuli/rescaled_final/0910_fw.mp4	0.0	327.929336309433	
72	302.5283570289612	movie	1		244	70.0	2.5	/experiments/knapen_AOT/AOT_stimuli/rescaled_final/0910_fw.mp4	0.0	328.74591517448425	2.50039005279541
72	303.3120529651642	pulse	1	t		70.0	2.5	/experiments/knapen_AOT/AOT_stimuli/rescaled_final/0910_fw.mp4	0.0	329.52961111068726	
72	304.9120969772339	pulse	1	t		70.0	2.5	/experiments/knapen_AOT/AOT_stimuli/rescaled_final/0910_fw.mp4	0.0	331.12965512275696	
72	305.0287470817566	fix_post	2		12	70.0	2.5	/experiments/knapen_AOT/AOT_stimuli/rescaled_final/0910_fw.mp4	0.0	331.24630522727966	0.10004091262817383
73	305.12878799438477	fix_pre	0		120	71.0	2.5	/experiments/knapen_AOT/AOT_stimuli/rescaled_final/0542_rv.mp4	0.0	331.34634613990784	1.0001041889190674
73	306.12889218330383	movie	1		247	71.0	2.5	/experiments/knapen_AOT/AOT_stimuli/rescaled_final/0542_rv.mp4	0.0	332.3464503288269	2.492067813873291
73	306.5162160396576	pulse	1	t		71.0	2.5	/experiments/knapen_AOT/AOT_stimuli/rescaled_final/0542_rv.mp4	0.0	332.73377418518066	
73	308.1127791404724	pulse	1	t		71.0	2.5	/experiments/knapen_AOT/AOT_stimuli/rescaled_final/0542_rv.mp4	0.0	334.3303372859955	
73	308.6209599971771	fix_post	2		12	71.0	2.5	/experiments/knapen_AOT/AOT_stimuli/rescaled_final/0542_rv.mp4	0.0	334.8385181427002	0.10000014305114746
74	308.72096014022827	fix_pre	0		120	72.0	2.5	/experiments/knapen_AOT/AOT_stimuli/rescaled_final/1050_rv.mp4	0.0	334.93851828575134	1.0001559257507324
74	309.7129361629486	pulse	0	t		72.0	2.5	/experiments/knapen_AOT/AOT_stimuli/rescaled_final/1050_rv.mp4	0.0	335.9304943084717	
74	309.721116065979	movie	1		245	72.0	2.5	/experiments/knapen_AOT/AOT_stimuli/rescaled_final/1050_rv.mp4	0.0	335.9386742115021	2.5086939334869385
74	311.31368613243103	pulse	1	t		72.0	2.5	/experiments/knapen_AOT/AOT_stimuli/rescaled_final/1050_rv.mp4	0.0	337.5312442779541	
74	312.22980999946594	fix_post	2		12	72.0	2.5	/experiments/knapen_AOT/AOT_stimuli/rescaled_final/1050_rv.mp4	0.0	338.447368144989	0.10004210472106934
75	312.329852104187	fix_pre	0		120	73.0	2.5	/experiments/knapen_AOT/AOT_stimuli/rescaled_final/1252_rv.mp4	0.0	338.5474102497101	1.0001320838928223
75	312.9135661125183	pulse	0	t		73.0	2.5	/experiments/knapen_AOT/AOT_stimuli/rescaled_final/1252_rv.mp4	0.0	339.1311242580414	
75	313.32998418807983	movie	1		245	73.0	2.5	/experiments/knapen_AOT/AOT_stimuli/rescaled_final/1252_rv.mp4	0.0	339.5475423336029	2.5003747940063477
75	314.5138211250305	pulse	1	t		73.0	2.5	/experiments/knapen_AOT/AOT_stimuli/rescaled_final/1252_rv.mp4	0.0	340.7313792705536	
75	315.8303589820862	fix_post	2		12	73.0	2.5	/experiments/knapen_AOT/AOT_stimuli/rescaled_final/1252_rv.mp4	0.0	342.04791712760925	0.10003900527954102
76	315.9303979873657	fix_pre	0		120	74.0	2.5	/experiments/knapen_AOT/AOT_stimuli/rescaled_final/1716_fw.mp4	0.0	342.1479561328888	1.0001461505889893
76	316.113893032074	pulse	0	t		74.0	2.5	/experiments/knapen_AOT/AOT_stimuli/rescaled_final/1716_fw.mp4	0.0	342.33145117759705	
76	316.9305441379547	movie	1		244	74.0	2.5	/experiments/knapen_AOT/AOT_stimuli/rescaled_final/1716_fw.mp4	0.0	343.1481022834778	2.500332832336426
76	317.71420216560364	pulse	1	t		74.0	2.5	/experiments/knapen_AOT/AOT_stimuli/rescaled_final/1716_fw.mp4	0.0	343.9317603111267	
76	319.3143320083618	pulse	1	t		74.0	2.5	/experiments/knapen_AOT/AOT_stimuli/rescaled_final/1716_fw.mp4	0.0	345.5318901538849	
76	319.43087697029114	fix_post	2		12	74.0	2.5	/experiments/knapen_AOT/AOT_stimuli/rescaled_final/1716_fw.mp4	0.0	345.6484351158142	0.10001611709594727
77	319.5308930873871	fix_pre	0		119	75.0	2.5	/experiments/knapen_AOT/AOT_stimuli/rescaled_final/0216_rv.mp4	0.0	345.74845123291016	0.9918270111083984
77	320.5227200984955	movie	1		245	75.0	2.5	/experiments/knapen_AOT/AOT_stimuli/rescaled_final/0216_rv.mp4	0.0	346.74027824401855	2.5003769397735596
77	320.914724111557	pulse	1	t		75.0	2.5	/experiments/knapen_AOT/AOT_stimuli/rescaled_final/0216_rv.mp4	0.0	347.1322822570801	
77	322.5149099826813	pulse	1	t		75.0	2.5	/experiments/knapen_AOT/AOT_stimuli/rescaled_final/0216_rv.mp4	0.0	348.73246812820435	
77	323.02309703826904	fix_post	2		12	75.0	2.5	/experiments/knapen_AOT/AOT_stimuli/rescaled_final/0216_rv.mp4	0.0	349.2406551837921	0.1000211238861084
78	323.12311816215515	fix_pre	0		120	76.0	2.5	blank	1.0	349.3406763076782	1.0001499652862549
78	324.11515498161316	pulse	0	t		76.0	2.5	blank	1.0	350.33271312713623	
78	324.1232681274414	movie	1		301	76.0	2.5	blank	1.0	350.3408262729645	2.508708953857422
78	325.7153470516205	pulse	1	t		76.0	2.5	blank	1.0	351.93290519714355	
78	326.6319770812988	fix_post	2		12	76.0	2.5	blank	1.0	352.8495352268219	0.10001897811889648
79	326.7319960594177	fix_pre	0		120	77.0	2.5	/experiments/knapen_AOT/AOT_stimuli/rescaled_final/0420_fw.mp4	0.0	352.9495542049408	1.0001940727233887
79	327.3081841468811	pulse	0	t		77.0	2.5	/experiments/knapen_AOT/AOT_stimuli/rescaled_final/0420_fw.mp4	0.0	353.5257422924042	
79	327.7321901321411	movie	1		245	77.0	2.5	/experiments/knapen_AOT/AOT_stimuli/rescaled_final/0420_fw.mp4	0.0	353.9497482776642	2.500354051589966
79	328.91595005989075	pulse	1	t		77.0	2.5	/experiments/knapen_AOT/AOT_stimuli/rescaled_final/0420_fw.mp4	0.0	355.1335082054138	
79	330.2325441837311	fix_post	2		12	77.0	2.5	/experiments/knapen_AOT/AOT_stimuli/rescaled_final/0420_fw.mp4	0.0	356.45010232925415	0.10001993179321289
80	330.3325641155243	fix_pre	0		120	78.0	2.5	/experiments/knapen_AOT/AOT_stimuli/rescaled_final/1949_rv.mp4	0.0	356.55012226104736	1.0001249313354492
80	330.508584022522	pulse	0	t		78.0	2.5	/experiments/knapen_AOT/AOT_stimuli/rescaled_final/1949_rv.mp4	0.0	356.72614216804504	
80	331.33268904685974	movie	1		246	78.0	2.5	/experiments/knapen_AOT/AOT_stimuli/rescaled_final/1949_rv.mp4	0.0	357.5502471923828	2.5003910064697266
80	332.10886096954346	pulse	1	t		78.0	2.5	/experiments/knapen_AOT/AOT_stimuli/rescaled_final/1949_rv.mp4	0.0	358.3264191150665	
80	333.7083640098572	pulse	1	t		78.0	2.5	/experiments/knapen_AOT/AOT_stimuli/rescaled_final/1949_rv.mp4	0.0	359.92592215538025	
80	333.83308005332947	fix_post	2		12	78.0	2.5	/experiments/knapen_AOT/AOT_stimuli/rescaled_final/1949_rv.mp4	0.0	360.05063819885254	0.09999394416809082
81	333.93307399749756	fix_pre	0		120	79.0	2.5	/experiments/knapen_AOT/AOT_stimuli/rescaled_final/1856_fw.mp4	0.0	360.15063214302063	1.000143051147461
81	334.933217048645	movie	1		243	79.0	2.5	/experiments/knapen_AOT/AOT_stimuli/rescaled_final/1856_fw.mp4	0.0	361.1507751941681	2.4920339584350586
81	335.30839705467224	pulse	1	t		79.0	2.5	/experiments/knapen_AOT/AOT_stimuli/rescaled_final/1856_fw.mp4	0.0	361.5259552001953	
81	336.90874218940735	pulse	1	t		79.0	2.5	/experiments/knapen_AOT/AOT_stimuli/rescaled_final/1856_fw.mp4	0.0	363.1263003349304	
81	337.4252510070801	fix_post	2		12	79.0	2.5	/experiments/knapen_AOT/AOT_stimuli/rescaled_final/1856_fw.mp4	0.0	363.64280915260315	0.10006403923034668
82	337.5253150463104	fix_pre	0		119	80.0	2.5	/experiments/knapen_AOT/AOT_stimuli/rescaled_final/0353_fw.mp4	0.0	363.7428731918335	0.9917659759521484
82	338.5089190006256	pulse	0	t		80.0	2.5	/experiments/knapen_AOT/AOT_stimuli/rescaled_final/0353_fw.mp4	0.0	364.7264771461487	
82	338.5170810222626	movie	1		247	80.0	2.5	/experiments/knapen_AOT/AOT_stimuli/rescaled_final/0353_fw.mp4	0.0	364.73463916778564	2.508729934692383
82	340.10978412628174	pulse	1	t		80.0	2.5	/experiments/knapen_AOT/AOT_stimuli/rescaled_final/0353_fw.mp4	0.0	366.3273422718048	
82	341.02581095695496	fix_post	2		12	80.0	2.5	/experiments/knapen_AOT/AOT_stimuli/rescaled_final/0353_fw.mp4	0.0	367.243369102478	0.09998011589050293
83	341.12579107284546	fix_pre	0		120	81.0	2.5	/experiments/knapen_AOT/AOT_stimuli/rescaled_final/0216_rv.mp4	0.0	367.34334921836853	1.0002150535583496
83	341.70943307876587	pulse	0	t		81.0	2.5	/experiments/knapen_AOT/AOT_stimuli/rescaled_final/0216_rv.mp4	0.0	367.92699122428894	
83	342.1260061264038	movie	1		245	81.0	2.5	/experiments/knapen_AOT/AOT_stimuli/rescaled_final/0216_rv.mp4	0.0	368.3435642719269	2.500349998474121
83	343.3097860813141	pulse	1	t		81.0	2.5	/experiments/knapen_AOT/AOT_stimuli/rescaled_final/0216_rv.mp4	0.0	369.52734422683716	
83	344.62635612487793	fix_post	2		12	81.0	2.5	/experiments/knapen_AOT/AOT_stimuli/rescaled_final/0216_rv.mp4	0.0	370.843914270401	0.10006499290466309
84	344.7264211177826	fix_pre	0		120	82.0	2.5	/experiments/knapen_AOT/AOT_stimuli/rescaled_final/1750_rv.mp4	0.0	370.94397926330566	1.0001020431518555
84	344.90985202789307	pulse	0	t		82.0	2.5	/experiments/knapen_AOT/AOT_stimuli/rescaled_final/1750_rv.mp4	0.0	371.12741017341614	
84	345.72652316093445	movie	1		246	82.0	2.5	/experiments/knapen_AOT/AOT_stimuli/rescaled_final/1750_rv.mp4	0.0	371.9440813064575	2.500332832336426
84	346.51013803482056	pulse	1	t		82.0	2.5	/experiments/knapen_AOT/AOT_stimuli/rescaled_final/1750_rv.mp4	0.0	372.7276961803436	
84	348.1103620529175	pulse	1	t		82.0	2.5	/experiments/knapen_AOT/AOT_stimuli/rescaled_final/1750_rv.mp4	0.0	374.32792019844055	
84	348.2268559932709	fix_post	2		12	82.0	2.5	/experiments/knapen_AOT/AOT_stimuli/rescaled_final/1750_rv.mp4	0.0	374.44441413879395	0.10008001327514648
85	348.326936006546	fix_pre	0		120	83.0	2.5	blank	1.0	374.5444941520691	1.0001420974731445
85	349.32707810401917	movie	1		299	83.0	2.5	blank	1.0	375.54463624954224	2.491973876953125
85	349.7105960845947	pulse	1	t		83.0	2.5	blank	1.0	375.9281542301178	
85	351.3107831478119	pulse	1	t		83.0	2.5	blank	1.0	377.52834129333496	
85	351.8190519809723	fix_post	2		12	83.0	2.5	blank	1.0	378.03661012649536	0.10013008117675781
87	351.91918206214905	stim	0		1716					378.1367402076721	14.302149057388306
87	352.911110162735	pulse	0	t						379.12866830825806	
87	354.51144313812256	pulse	0	t						380.72900128364563	
87	356.11158514022827	pulse	0	t						382.32914328575134	
87	357.71181201934814	pulse	0	t						383.9293701648712	
87	359.3120551109314	pulse	0	t						385.52961325645447	
87	360.91226410865784	pulse	0	t						387.1298222541809	
87	362.5125629901886	pulse	0	t						388.73012113571167	
87	364.11274814605713	pulse	0	t						390.3303062915802	
87	365.7129690647125	pulse	0	t						391.9305272102356	
