trial_nr	onset	event_type	phase	response	nr_frames	movie_index	movie_duration	movie_file	blank	onset_abs	duration
0	0.16620802879333496	stim	0		103					27.153457164764404	0.8587090969085693
0	1.0169761180877686	response	0	space						28.004225254058838	
1	1.0249171257019043	stim	0		4175					28.012166261672974	34.79156994819641
1	35.81080508232117	pulse	0	t						62.798054218292236	
1	35.816487073898315	stim	1		1717					62.803736209869385	14.30818486213684
1	37.40789794921875	pulse	1	t						64.39514708518982	
1	39.00804090499878	pulse	1	t						65.99529004096985	
1	40.6082661151886	pulse	1	t						67.59551525115967	
1	42.20829892158508	pulse	1	t						69.19554805755615	
1	43.80825591087341	pulse	1	t						70.79550504684448	
1	45.4083468914032	pulse	1	t						72.39559602737427	
1	47.00821590423584	pulse	1	t						73.99546504020691	
1	48.608150005340576	pulse	1	t						75.59539914131165	
2	50.124671936035156	fix_pre	0		11	0.0	2.5	/experiments/AOT/AOT_stimuli/rescaled_final/0970_fw.mp4	0.0	77.11192107200623	0.09166812896728516
2	50.20816898345947	pulse	0	t		0.0	2.5	/experiments/AOT/AOT_stimuli/rescaled_final/0970_fw.mp4	0.0	77.19541811943054	
2	50.21634006500244	movie	1		244	0.0	2.5	/experiments/AOT/AOT_stimuli/rescaled_final/0970_fw.mp4	0.0	77.20358920097351	2.507938861846924
2	51.80951189994812	pulse	1	t		0.0	2.5	/experiments/AOT/AOT_stimuli/rescaled_final/0970_fw.mp4	0.0	78.79676103591919	
2	52.724278926849365	fix_post	2		12	0.0	2.5	/experiments/AOT/AOT_stimuli/rescaled_final/0970_fw.mp4	0.0	79.71152806282043	0.10051703453063965
3	52.824795961380005	fix_pre	0		120	1.0	2.5	/experiments/AOT/AOT_stimuli/rescaled_final/1005_fw.mp4	0.0	79.81204509735107	0.9998970031738281
3	53.408183097839355	pulse	0	t		1.0	2.5	/experiments/AOT/AOT_stimuli/rescaled_final/1005_fw.mp4	0.0	80.39543223381042	
3	53.82469296455383	movie	1		245	1.0	2.5	/experiments/AOT/AOT_stimuli/rescaled_final/1005_fw.mp4	0.0	80.8119421005249	2.499613046646118
3	55.00827693939209	pulse	1	t		1.0	2.5	/experiments/AOT/AOT_stimuli/rescaled_final/1005_fw.mp4	0.0	81.99552607536316	
3	56.32430601119995	fix_post	2		12	1.0	2.5	/experiments/AOT/AOT_stimuli/rescaled_final/1005_fw.mp4	0.0	83.31155514717102	0.10037899017333984
4	56.42468500137329	fix_pre	0		120	2.0	2.5	/experiments/AOT/AOT_stimuli/rescaled_final/0090_rv.mp4	0.0	83.41193413734436	1.000006914138794
4	56.60813093185425	pulse	0	t		2.0	2.5	/experiments/AOT/AOT_stimuli/rescaled_final/0090_rv.mp4	0.0	83.59538006782532	
4	57.424691915512085	movie	1		245	2.0	2.5	/experiments/AOT/AOT_stimuli/rescaled_final/0090_rv.mp4	0.0	84.41194105148315	2.4999191761016846
4	58.20811104774475	pulse	1	t		2.0	2.5	/experiments/AOT/AOT_stimuli/rescaled_final/0090_rv.mp4	0.0	85.19536018371582	
4	59.80781412124634	pulse	1	t		2.0	2.5	/experiments/AOT/AOT_stimuli/rescaled_final/0090_rv.mp4	0.0	86.79506325721741	
4	59.92461109161377	fix_post	2		12	2.0	2.5	/experiments/AOT/AOT_stimuli/rescaled_final/0090_rv.mp4	0.0	86.91186022758484	0.10001993179321289
5	60.02463102340698	fix_pre	0		120	3.0	2.5	/experiments/AOT/AOT_stimuli/rescaled_final/1588_fw.mp4	0.0	87.01188015937805	0.9999899864196777
5	61.02462100982666	movie	1		246	3.0	2.5	/experiments/AOT/AOT_stimuli/rescaled_final/1588_fw.mp4	0.0	88.01187014579773	2.4999659061431885
5	61.40778708457947	pulse	1	t		3.0	2.5	/experiments/AOT/AOT_stimuli/rescaled_final/1588_fw.mp4	0.0	88.39503622055054	
5	63.00821900367737	pulse	1	t		3.0	2.5	/experiments/AOT/AOT_stimuli/rescaled_final/1588_fw.mp4	0.0	89.99546813964844	
5	63.52458691596985	fix_post	2		12	3.0	2.5	/experiments/AOT/AOT_stimuli/rescaled_final/1588_fw.mp4	0.0	90.51183605194092	0.10000014305114746
6	63.624587059020996	fix_pre	0		119	4.0	2.5	/experiments/AOT/AOT_stimuli/rescaled_final/1339_fw.mp4	0.0	90.61183619499207	0.9917328357696533
6	64.60811305046082	pulse	0	t		4.0	2.5	/experiments/AOT/AOT_stimuli/rescaled_final/1339_fw.mp4	0.0	91.59536218643188	
6	64.61631989479065	movie	1		247	4.0	2.5	/experiments/AOT/AOT_stimuli/rescaled_final/1339_fw.mp4	0.0	91.60356903076172	2.507855176925659
6	66.20801997184753	pulse	1	t		4.0	2.5	/experiments/AOT/AOT_stimuli/rescaled_final/1339_fw.mp4	0.0	93.1952691078186	
6	67.12417507171631	fix_post	2		12	4.0	2.5	/experiments/AOT/AOT_stimuli/rescaled_final/1339_fw.mp4	0.0	94.11142420768738	0.10051584243774414
7	67.22469091415405	fix_pre	0		120	5.0	2.5	blank	1.0	94.21194005012512	0.9999611377716064
7	67.80821490287781	pulse	0	t		5.0	2.5	blank	1.0	94.79546403884888	
7	68.22465205192566	movie	1		300	5.0	2.5	blank	1.0	95.21190118789673	2.4999029636383057
7	69.40826892852783	pulse	1	t		5.0	2.5	blank	1.0	96.3955180644989	
7	70.72455501556396	fix_post	2		12	5.0	2.5	blank	1.0	97.71180415153503	0.09998106956481934
8	70.82453608512878	fix_pre	0		120	6.0	2.5	/experiments/AOT/AOT_stimuli/rescaled_final/1789_rv.mp4	0.0	97.81178522109985	1.000053882598877
8	71.00802707672119	pulse	0	t		6.0	2.5	/experiments/AOT/AOT_stimuli/rescaled_final/1789_rv.mp4	0.0	97.99527621269226	
8	71.82458996772766	movie	1		245	6.0	2.5	/experiments/AOT/AOT_stimuli/rescaled_final/1789_rv.mp4	0.0	98.81183910369873	2.4999589920043945
8	72.6081600189209	pulse	1	t		6.0	2.5	/experiments/AOT/AOT_stimuli/rescaled_final/1789_rv.mp4	0.0	99.59540915489197	
8	74.20762991905212	pulse	1	t		6.0	2.5	/experiments/AOT/AOT_stimuli/rescaled_final/1789_rv.mp4	0.0	101.1948790550232	
8	74.32454895973206	fix_post	2		12	6.0	2.5	/experiments/AOT/AOT_stimuli/rescaled_final/1789_rv.mp4	0.0	101.31179809570312	0.10010504722595215
9	74.42465400695801	fix_pre	0		120	7.0	2.5	/experiments/AOT/AOT_stimuli/rescaled_final/0408_fw.mp4	0.0	101.41190314292908	0.999967098236084
9	75.42462110519409	movie	1		245	7.0	2.5	/experiments/AOT/AOT_stimuli/rescaled_final/0408_fw.mp4	0.0	102.41187024116516	2.499945878982544
9	75.80842804908752	pulse	1	t		7.0	2.5	/experiments/AOT/AOT_stimuli/rescaled_final/0408_fw.mp4	0.0	102.7956771850586	
9	77.40819001197815	pulse	1	t		7.0	2.5	/experiments/AOT/AOT_stimuli/rescaled_final/0408_fw.mp4	0.0	104.39543914794922	
9	77.92456698417664	fix_post	2		12	7.0	2.5	/experiments/AOT/AOT_stimuli/rescaled_final/0408_fw.mp4	0.0	104.9118161201477	0.09998893737792969
10	78.02455592155457	fix_pre	0		119	8.0	2.5	/experiments/AOT/AOT_stimuli/rescaled_final/2081_fw.mp4	0.0	105.01180505752563	0.9916601181030273
10	79.0081570148468	pulse	0	t		8.0	2.5	/experiments/AOT/AOT_stimuli/rescaled_final/2081_fw.mp4	0.0	105.99540615081787	
10	79.01621603965759	movie	1		246	8.0	2.5	/experiments/AOT/AOT_stimuli/rescaled_final/2081_fw.mp4	0.0	106.00346517562866	2.5082919597625732
10	80.60787391662598	pulse	1	t		8.0	2.5	/experiments/AOT/AOT_stimuli/rescaled_final/2081_fw.mp4	0.0	107.59512305259705	
10	81.52450799942017	fix_post	2		12	8.0	2.5	/experiments/AOT/AOT_stimuli/rescaled_final/2081_fw.mp4	0.0	108.51175713539124	0.10005307197570801
11	81.62456107139587	fix_pre	0		120	9.0	2.5	/experiments/AOT/AOT_stimuli/rescaled_final/0737_fw.mp4	0.0	108.61181020736694	0.9995310306549072
11	82.20810508728027	pulse	0	t		9.0	2.5	/experiments/AOT/AOT_stimuli/rescaled_final/0737_fw.mp4	0.0	109.19535422325134	
11	82.62409210205078	movie	1		245	9.0	2.5	/experiments/AOT/AOT_stimuli/rescaled_final/0737_fw.mp4	0.0	109.61134123802185	2.500469923019409
11	83.80809807777405	pulse	1	t		9.0	2.5	/experiments/AOT/AOT_stimuli/rescaled_final/0737_fw.mp4	0.0	110.79534721374512	
11	85.12456202507019	fix_post	2		12	9.0	2.5	/experiments/AOT/AOT_stimuli/rescaled_final/0737_fw.mp4	0.0	112.11181116104126	0.10006999969482422
12	85.22463202476501	fix_pre	0		120	10.0	2.5	/experiments/AOT/AOT_stimuli/rescaled_final/0076_rv.mp4	0.0	112.21188116073608	0.9998500347137451
12	85.40802502632141	pulse	0	t		10.0	2.5	/experiments/AOT/AOT_stimuli/rescaled_final/0076_rv.mp4	0.0	112.39527416229248	
12	86.22448205947876	movie	1		244	10.0	2.5	/experiments/AOT/AOT_stimuli/rescaled_final/0076_rv.mp4	0.0	113.21173119544983	2.50004506111145
12	87.00808000564575	pulse	1	t		10.0	2.5	/experiments/AOT/AOT_stimuli/rescaled_final/0076_rv.mp4	0.0	113.99532914161682	
12	88.60700511932373	pulse	1	t		10.0	2.5	/experiments/AOT/AOT_stimuli/rescaled_final/0076_rv.mp4	0.0	115.5942542552948	
12	88.72452712059021	fix_post	2		12	10.0	2.5	/experiments/AOT/AOT_stimuli/rescaled_final/0076_rv.mp4	0.0	115.71177625656128	0.10006880760192871
13	88.82459592819214	fix_pre	0		120	11.0	2.5	/experiments/AOT/AOT_stimuli/rescaled_final/0084_fw.mp4	0.0	115.81184506416321	0.9998869895935059
13	89.82448291778564	movie	1		244	11.0	2.5	/experiments/AOT/AOT_stimuli/rescaled_final/0084_fw.mp4	0.0	116.81173205375671	2.4995851516723633
13	90.20749592781067	pulse	1	t		11.0	2.5	/experiments/AOT/AOT_stimuli/rescaled_final/0084_fw.mp4	0.0	117.19474506378174	
13	91.80798411369324	pulse	1	t		11.0	2.5	/experiments/AOT/AOT_stimuli/rescaled_final/0084_fw.mp4	0.0	118.7952332496643	
13	92.32406806945801	fix_post	2		12	11.0	2.5	/experiments/AOT/AOT_stimuli/rescaled_final/0084_fw.mp4	0.0	119.31131720542908	0.10054683685302734
14	92.42461490631104	fix_pre	0		119	12.0	2.5	/experiments/AOT/AOT_stimuli/rescaled_final/1463_fw.mp4	0.0	119.4118640422821	0.9918131828308105
14	93.4075870513916	pulse	0	t		12.0	2.5	/experiments/AOT/AOT_stimuli/rescaled_final/1463_fw.mp4	0.0	120.39483618736267	
14	93.41642808914185	movie	1		246	12.0	2.5	/experiments/AOT/AOT_stimuli/rescaled_final/1463_fw.mp4	0.0	120.40367722511292	2.5080459117889404
14	95.00768089294434	pulse	1	t		12.0	2.5	/experiments/AOT/AOT_stimuli/rescaled_final/1463_fw.mp4	0.0	121.9949300289154	
14	95.92447400093079	fix_post	2		12	12.0	2.5	/experiments/AOT/AOT_stimuli/rescaled_final/1463_fw.mp4	0.0	122.91172313690186	0.1000521183013916
15	96.02452611923218	fix_pre	0		120	13.0	2.5	/experiments/AOT/AOT_stimuli/rescaled_final/0225_fw.mp4	0.0	123.01177525520325	1.0000147819519043
15	96.60799312591553	pulse	0	t		13.0	2.5	/experiments/AOT/AOT_stimuli/rescaled_final/0225_fw.mp4	0.0	123.5952422618866	
15	97.02454090118408	movie	1		245	13.0	2.5	/experiments/AOT/AOT_stimuli/rescaled_final/0225_fw.mp4	0.0	124.01179003715515	2.499948024749756
15	98.2080910205841	pulse	1	t		13.0	2.5	/experiments/AOT/AOT_stimuli/rescaled_final/0225_fw.mp4	0.0	125.19534015655518	
15	99.52448892593384	fix_post	2		12	13.0	2.5	/experiments/AOT/AOT_stimuli/rescaled_final/0225_fw.mp4	0.0	126.51173806190491	0.10004115104675293
16	99.62453007698059	fix_pre	0		120	14.0	2.5	blank	1.0	126.61177921295166	0.9999380111694336
16	99.8080370426178	pulse	0	t		14.0	2.5	blank	1.0	126.79528617858887	
16	100.62446808815002	movie	1		300	14.0	2.5	blank	1.0	127.6117172241211	2.500135898590088
16	101.40789198875427	pulse	1	t		14.0	2.5	blank	1.0	128.39514112472534	
16	103.00794100761414	pulse	1	t		14.0	2.5	blank	1.0	129.9951901435852	
16	103.12460398674011	fix_post	2		12	14.0	2.5	blank	1.0	130.11185312271118	0.0994260311126709
17	103.22403001785278	fix_pre	0		120	15.0	2.5	/experiments/AOT/AOT_stimuli/rescaled_final/0817_rv.mp4	0.0	130.21127915382385	1.0003690719604492
17	104.22439908981323	movie	1		244	15.0	2.5	/experiments/AOT/AOT_stimuli/rescaled_final/0817_rv.mp4	0.0	131.2116482257843	2.500088930130005
17	104.60765194892883	pulse	1	t		15.0	2.5	/experiments/AOT/AOT_stimuli/rescaled_final/0817_rv.mp4	0.0	131.5949010848999	
17	106.2078549861908	pulse	1	t		15.0	2.5	/experiments/AOT/AOT_stimuli/rescaled_final/0817_rv.mp4	0.0	133.19510412216187	
17	106.72448801994324	fix_post	2		12	15.0	2.5	/experiments/AOT/AOT_stimuli/rescaled_final/0817_rv.mp4	0.0	133.7117371559143	0.09991097450256348
18	106.8243989944458	fix_pre	0		119	16.0	2.5	/experiments/AOT/AOT_stimuli/rescaled_final/0345_fw.mp4	0.0	133.81164813041687	0.9916820526123047
18	107.80799007415771	pulse	0	t		16.0	2.5	/experiments/AOT/AOT_stimuli/rescaled_final/0345_fw.mp4	0.0	134.79523921012878	
18	107.8160810470581	movie	1		247	16.0	2.5	/experiments/AOT/AOT_stimuli/rescaled_final/0345_fw.mp4	0.0	134.80333018302917	2.50832200050354
18	109.40758109092712	pulse	1	t		16.0	2.5	/experiments/AOT/AOT_stimuli/rescaled_final/0345_fw.mp4	0.0	136.3948302268982	
18	110.32440304756165	fix_post	2		12	16.0	2.5	/experiments/AOT/AOT_stimuli/rescaled_final/0345_fw.mp4	0.0	137.31165218353271	0.10002303123474121
19	110.42442607879639	fix_pre	0		120	17.0	2.5	/experiments/AOT/AOT_stimuli/rescaled_final/0581_rv.mp4	0.0	137.41167521476746	0.9999639987945557
19	111.0079231262207	pulse	0	t		17.0	2.5	/experiments/AOT/AOT_stimuli/rescaled_final/0581_rv.mp4	0.0	137.99517226219177	
19	111.42439007759094	movie	1		247	17.0	2.5	/experiments/AOT/AOT_stimuli/rescaled_final/0581_rv.mp4	0.0	138.411639213562	2.4999849796295166
19	112.60793900489807	pulse	1	t		17.0	2.5	/experiments/AOT/AOT_stimuli/rescaled_final/0581_rv.mp4	0.0	139.59518814086914	
19	113.92437505722046	fix_post	2		12	17.0	2.5	/experiments/AOT/AOT_stimuli/rescaled_final/0581_rv.mp4	0.0	140.91162419319153	0.09997797012329102
20	114.02435302734375	fix_pre	0		120	18.0	2.5	/experiments/AOT/AOT_stimuli/rescaled_final/0280_fw.mp4	0.0	141.01160216331482	1.0000879764556885
20	114.20791006088257	pulse	0	t		18.0	2.5	/experiments/AOT/AOT_stimuli/rescaled_final/0280_fw.mp4	0.0	141.19515919685364	
20	115.02444100379944	movie	1		246	18.0	2.5	/experiments/AOT/AOT_stimuli/rescaled_final/0280_fw.mp4	0.0	142.0116901397705	2.4999051094055176
20	115.80791592597961	pulse	1	t		18.0	2.5	/experiments/AOT/AOT_stimuli/rescaled_final/0280_fw.mp4	0.0	142.79516506195068	
20	117.40644001960754	pulse	1	t		18.0	2.5	/experiments/AOT/AOT_stimuli/rescaled_final/0280_fw.mp4	0.0	144.3936891555786	
20	117.52434611320496	fix_post	2		12	18.0	2.5	/experiments/AOT/AOT_stimuli/rescaled_final/0280_fw.mp4	0.0	144.51159524917603	0.09998393058776855
21	117.62433004379272	fix_pre	0		120	19.0	2.5	/experiments/AOT/AOT_stimuli/rescaled_final/0123_rv.mp4	0.0	144.6115791797638	0.9999840259552002
21	118.62431406974792	movie	1		244	19.0	2.5	/experiments/AOT/AOT_stimuli/rescaled_final/0123_rv.mp4	0.0	145.611563205719	2.5000739097595215
21	119.0075011253357	pulse	1	t		19.0	2.5	/experiments/AOT/AOT_stimuli/rescaled_final/0123_rv.mp4	0.0	145.99475026130676	
21	120.60787510871887	pulse	1	t		19.0	2.5	/experiments/AOT/AOT_stimuli/rescaled_final/0123_rv.mp4	0.0	147.59512424468994	
21	121.12438797950745	fix_post	2		12	19.0	2.5	/experiments/AOT/AOT_stimuli/rescaled_final/0123_rv.mp4	0.0	148.11163711547852	0.09993314743041992
22	121.22432112693787	fix_pre	0		119	20.0	2.5	blank	1.0	148.21157026290894	0.9916949272155762
22	122.20787310600281	pulse	0	t		20.0	2.5	blank	1.0	149.19512224197388	
22	122.21601605415344	movie	1		301	20.0	2.5	blank	1.0	149.2032651901245	2.508349895477295
22	123.80786800384521	pulse	1	t		20.0	2.5	blank	1.0	150.79511713981628	
22	124.72436594963074	fix_post	2		12	20.0	2.5	blank	1.0	151.7116150856018	0.09998011589050293
23	124.82434606552124	fix_pre	0		120	21.0	2.5	/experiments/AOT/AOT_stimuli/rescaled_final/0914_fw.mp4	0.0	151.8115952014923	1.0000660419464111
23	125.40786695480347	pulse	0	t		21.0	2.5	/experiments/AOT/AOT_stimuli/rescaled_final/0914_fw.mp4	0.0	152.39511609077454	
23	125.82441210746765	movie	1		247	21.0	2.5	/experiments/AOT/AOT_stimuli/rescaled_final/0914_fw.mp4	0.0	152.81166124343872	2.4999020099639893
23	127.00785899162292	pulse	1	t		21.0	2.5	/experiments/AOT/AOT_stimuli/rescaled_final/0914_fw.mp4	0.0	153.995108127594	
23	128.32431411743164	fix_post	2		12	21.0	2.5	/experiments/AOT/AOT_stimuli/rescaled_final/0914_fw.mp4	0.0	155.3115632534027	0.10004997253417969
24	128.42436408996582	fix_pre	0		120	22.0	2.5	/experiments/AOT/AOT_stimuli/rescaled_final/1864_fw.mp4	0.0	155.4116132259369	0.9999678134918213
24	128.60790300369263	pulse	0	t		22.0	2.5	/experiments/AOT/AOT_stimuli/rescaled_final/1864_fw.mp4	0.0	155.5951521396637	
24	129.42433190345764	movie	1		246	22.0	2.5	/experiments/AOT/AOT_stimuli/rescaled_final/1864_fw.mp4	0.0	156.4115810394287	2.499545097351074
24	130.2078161239624	pulse	1	t		22.0	2.5	/experiments/AOT/AOT_stimuli/rescaled_final/1864_fw.mp4	0.0	157.19506525993347	
24	131.80632996559143	pulse	1	t		22.0	2.5	/experiments/AOT/AOT_stimuli/rescaled_final/1864_fw.mp4	0.0	158.7935791015625	
24	131.92387700080872	fix_post	2		12	22.0	2.5	/experiments/AOT/AOT_stimuli/rescaled_final/1864_fw.mp4	0.0	158.91112613677979	0.10040402412414551
25	132.02428102493286	fix_pre	0		120	23.0	2.5	/experiments/AOT/AOT_stimuli/rescaled_final/0140_fw.mp4	0.0	159.01153016090393	1.0000078678131104
25	133.02428889274597	movie	1		247	23.0	2.5	/experiments/AOT/AOT_stimuli/rescaled_final/0140_fw.mp4	0.0	160.01153802871704	2.500002145767212
25	133.40728092193604	pulse	1	t		23.0	2.5	/experiments/AOT/AOT_stimuli/rescaled_final/0140_fw.mp4	0.0	160.3945300579071	
25	135.007896900177	pulse	1	t		23.0	2.5	/experiments/AOT/AOT_stimuli/rescaled_final/0140_fw.mp4	0.0	161.99514603614807	
25	135.52429103851318	fix_post	2		12	23.0	2.5	/experiments/AOT/AOT_stimuli/rescaled_final/0140_fw.mp4	0.0	162.51154017448425	0.0999760627746582
26	135.62426710128784	fix_pre	0		119	24.0	2.5	/experiments/AOT/AOT_stimuli/rescaled_final/0846_rv.mp4	0.0	162.6115162372589	0.9917378425598145
26	136.60781812667847	pulse	0	t		24.0	2.5	/experiments/AOT/AOT_stimuli/rescaled_final/0846_rv.mp4	0.0	163.59506726264954	
26	136.61600494384766	movie	1		246	24.0	2.5	/experiments/AOT/AOT_stimuli/rescaled_final/0846_rv.mp4	0.0	163.60325407981873	2.5083601474761963
26	138.2074739933014	pulse	1	t		24.0	2.5	/experiments/AOT/AOT_stimuli/rescaled_final/0846_rv.mp4	0.0	165.19472312927246	
26	139.12436509132385	fix_post	2		12	24.0	2.5	/experiments/AOT/AOT_stimuli/rescaled_final/0846_rv.mp4	0.0	166.11161422729492	0.0999288558959961
27	139.22429394721985	fix_pre	0		120	25.0	2.5	/experiments/AOT/AOT_stimuli/rescaled_final/0475_fw.mp4	0.0	166.21154308319092	0.9999840259552002
27	139.80784106254578	pulse	0	t		25.0	2.5	/experiments/AOT/AOT_stimuli/rescaled_final/0475_fw.mp4	0.0	166.79509019851685	
27	140.22427797317505	movie	1		244	25.0	2.5	/experiments/AOT/AOT_stimuli/rescaled_final/0475_fw.mp4	0.0	167.21152710914612	2.5000109672546387
27	141.40787506103516	pulse	1	t		25.0	2.5	/experiments/AOT/AOT_stimuli/rescaled_final/0475_fw.mp4	0.0	168.39512419700623	
27	142.7242889404297	fix_post	2		12	25.0	2.5	/experiments/AOT/AOT_stimuli/rescaled_final/0475_fw.mp4	0.0	169.71153807640076	0.09999799728393555
28	142.82428693771362	fix_pre	0		120	26.0	2.5	blank	1.0	169.8115360736847	1.0
28	143.00775790214539	pulse	0	t		26.0	2.5	blank	1.0	169.99500703811646	
28	143.82428693771362	movie	1		300	26.0	2.5	blank	1.0	170.8115360736847	2.500005006790161
28	144.60775303840637	pulse	1	t		26.0	2.5	blank	1.0	171.59500217437744	
28	146.2077350616455	pulse	1	t		26.0	2.5	blank	1.0	173.19498419761658	
28	146.32429194450378	fix_post	2		12	26.0	2.5	blank	1.0	173.31154108047485	0.10005307197570801
29	146.4243450164795	fix_pre	0		120	27.0	2.5	/experiments/AOT/AOT_stimuli/rescaled_final/0011_rv.mp4	0.0	173.41159415245056	1.0000278949737549
29	147.42437291145325	movie	1		245	27.0	2.5	/experiments/AOT/AOT_stimuli/rescaled_final/0011_rv.mp4	0.0	174.41162204742432	2.5000100135803223
29	147.80732607841492	pulse	1	t		27.0	2.5	/experiments/AOT/AOT_stimuli/rescaled_final/0011_rv.mp4	0.0	174.794575214386	
29	149.407329082489	pulse	1	t		27.0	2.5	/experiments/AOT/AOT_stimuli/rescaled_final/0011_rv.mp4	0.0	176.39457821846008	
29	149.92438292503357	fix_post	2		12	27.0	2.5	/experiments/AOT/AOT_stimuli/rescaled_final/0011_rv.mp4	0.0	176.91163206100464	0.09961509704589844
30	150.02399802207947	fix_pre	0		119	28.0	2.5	/experiments/AOT/AOT_stimuli/rescaled_final/0262_rv.mp4	0.0	177.01124715805054	0.9917840957641602
30	151.00756096839905	pulse	0	t		28.0	2.5	/experiments/AOT/AOT_stimuli/rescaled_final/0262_rv.mp4	0.0	177.99481010437012	
30	151.01578211784363	movie	1		251	28.0	2.5	/experiments/AOT/AOT_stimuli/rescaled_final/0262_rv.mp4	0.0	178.0030312538147	2.5084829330444336
30	152.60719299316406	pulse	1	t		28.0	2.5	/experiments/AOT/AOT_stimuli/rescaled_final/0262_rv.mp4	0.0	179.59444212913513	
30	153.52426505088806	fix_post	2		12	28.0	2.5	/experiments/AOT/AOT_stimuli/rescaled_final/0262_rv.mp4	0.0	180.51151418685913	0.09964203834533691
31	153.6239070892334	fix_pre	0		120	29.0	2.5	/experiments/AOT/AOT_stimuli/rescaled_final/0552_rv.mp4	0.0	180.61115622520447	1.00034499168396
31	154.20781302452087	pulse	0	t		29.0	2.5	/experiments/AOT/AOT_stimuli/rescaled_final/0552_rv.mp4	0.0	181.19506216049194	
31	154.62425208091736	movie	1		247	29.0	2.5	/experiments/AOT/AOT_stimuli/rescaled_final/0552_rv.mp4	0.0	181.61150121688843	2.499941825866699
31	155.80776000022888	pulse	1	t		29.0	2.5	/experiments/AOT/AOT_stimuli/rescaled_final/0552_rv.mp4	0.0	182.79500913619995	
31	157.12419390678406	fix_post	2		12	29.0	2.5	/experiments/AOT/AOT_stimuli/rescaled_final/0552_rv.mp4	0.0	184.11144304275513	0.10002803802490234
32	157.22422194480896	fix_pre	0		120	30.0	2.5	/experiments/AOT/AOT_stimuli/rescaled_final/2090_rv.mp4	0.0	184.21147108078003	0.9998910427093506
32	157.407644033432	pulse	0	t		30.0	2.5	/experiments/AOT/AOT_stimuli/rescaled_final/2090_rv.mp4	0.0	184.39489316940308	
32	158.2241129875183	movie	1		246	30.0	2.5	/experiments/AOT/AOT_stimuli/rescaled_final/2090_rv.mp4	0.0	185.21136212348938	2.500044107437134
32	159.00765991210938	pulse	1	t		30.0	2.5	/experiments/AOT/AOT_stimuli/rescaled_final/2090_rv.mp4	0.0	185.99490904808044	
32	160.60764408111572	pulse	1	t		30.0	2.5	/experiments/AOT/AOT_stimuli/rescaled_final/2090_rv.mp4	0.0	187.5948932170868	
32	160.72415709495544	fix_post	2		12	30.0	2.5	/experiments/AOT/AOT_stimuli/rescaled_final/2090_rv.mp4	0.0	187.7114062309265	0.0999917984008789
33	160.82414889335632	fix_pre	0		120	31.0	2.5	/experiments/AOT/AOT_stimuli/rescaled_final/1235_fw.mp4	0.0	187.8113980293274	1.0000500679016113
33	161.82419896125793	movie	1		246	31.0	2.5	/experiments/AOT/AOT_stimuli/rescaled_final/1235_fw.mp4	0.0	188.811448097229	2.49993896484375
33	162.20742297172546	pulse	1	t		31.0	2.5	/experiments/AOT/AOT_stimuli/rescaled_final/1235_fw.mp4	0.0	189.19467210769653	
33	163.80758595466614	pulse	1	t		31.0	2.5	/experiments/AOT/AOT_stimuli/rescaled_final/1235_fw.mp4	0.0	190.7948350906372	
33	164.32413792610168	fix_post	2		12	31.0	2.5	/experiments/AOT/AOT_stimuli/rescaled_final/1235_fw.mp4	0.0	191.31138706207275	0.10000300407409668
34	164.42414093017578	fix_pre	0		119	32.0	2.5	/experiments/AOT/AOT_stimuli/rescaled_final/1835_rv.mp4	0.0	191.41139006614685	0.991631031036377
34	165.40768599510193	pulse	0	t		32.0	2.5	/experiments/AOT/AOT_stimuli/rescaled_final/1835_rv.mp4	0.0	192.394935131073	
34	165.41577196121216	movie	1		245	32.0	2.5	/experiments/AOT/AOT_stimuli/rescaled_final/1835_rv.mp4	0.0	192.40302109718323	2.508410930633545
34	167.00747895240784	pulse	1	t		32.0	2.5	/experiments/AOT/AOT_stimuli/rescaled_final/1835_rv.mp4	0.0	193.9947280883789	
34	167.9241828918457	fix_post	2		12	32.0	2.5	/experiments/AOT/AOT_stimuli/rescaled_final/1835_rv.mp4	0.0	194.91143202781677	0.09997415542602539
35	168.02415704727173	fix_pre	0		120	33.0	2.5	/experiments/AOT/AOT_stimuli/rescaled_final/1255_rv.mp4	0.0	195.0114061832428	1.0000660419464111
35	168.60773706436157	pulse	0	t		33.0	2.5	/experiments/AOT/AOT_stimuli/rescaled_final/1255_rv.mp4	0.0	195.59498620033264	
35	169.02422308921814	movie	1		242	33.0	2.5	/experiments/AOT/AOT_stimuli/rescaled_final/1255_rv.mp4	0.0	196.0114722251892	2.4998579025268555
35	170.20765900611877	pulse	1	t		33.0	2.5	/experiments/AOT/AOT_stimuli/rescaled_final/1255_rv.mp4	0.0	197.19490814208984	
35	171.524080991745	fix_post	2		12	33.0	2.5	/experiments/AOT/AOT_stimuli/rescaled_final/1255_rv.mp4	0.0	198.51133012771606	0.10001301765441895
36	171.6240940093994	fix_pre	0		120	34.0	2.5	/experiments/AOT/AOT_stimuli/rescaled_final/1954_fw.mp4	0.0	198.61134314537048	0.9999680519104004
36	171.8076400756836	pulse	0	t		34.0	2.5	/experiments/AOT/AOT_stimuli/rescaled_final/1954_fw.mp4	0.0	198.79488921165466	
36	172.62406206130981	movie	1		243	34.0	2.5	/experiments/AOT/AOT_stimuli/rescaled_final/1954_fw.mp4	0.0	199.61131119728088	2.5000598430633545
36	173.40763401985168	pulse	1	t		34.0	2.5	/experiments/AOT/AOT_stimuli/rescaled_final/1954_fw.mp4	0.0	200.39488315582275	
36	175.0063180923462	pulse	1	t		34.0	2.5	/experiments/AOT/AOT_stimuli/rescaled_final/1954_fw.mp4	0.0	201.99356722831726	
36	175.12412190437317	fix_post	2		12	34.0	2.5	/experiments/AOT/AOT_stimuli/rescaled_final/1954_fw.mp4	0.0	202.11137104034424	0.10002017021179199
37	175.22414207458496	fix_pre	0		120	35.0	2.5	blank	1.0	202.21139121055603	0.999992847442627
37	176.2241349220276	movie	1		300	35.0	2.5	blank	1.0	203.21138405799866	2.500046968460083
37	176.60761904716492	pulse	1	t		35.0	2.5	blank	1.0	203.594868183136	
37	178.2075901031494	pulse	1	t		35.0	2.5	blank	1.0	205.19483923912048	
37	178.72418189048767	fix_post	2		12	35.0	2.5	blank	1.0	205.71143102645874	0.09990119934082031
38	178.8240830898285	fix_pre	0		119	36.0	2.5	/experiments/AOT/AOT_stimuli/rescaled_final/1273_rv.mp4	0.0	205.81133222579956	0.991703987121582
38	179.8075270652771	pulse	0	t		36.0	2.5	/experiments/AOT/AOT_stimuli/rescaled_final/1273_rv.mp4	0.0	206.79477620124817	
38	179.81578707695007	movie	1		250	36.0	2.5	/experiments/AOT/AOT_stimuli/rescaled_final/1273_rv.mp4	0.0	206.80303621292114	2.5083699226379395
38	181.40723991394043	pulse	1	t		36.0	2.5	/experiments/AOT/AOT_stimuli/rescaled_final/1273_rv.mp4	0.0	208.3944890499115	
38	182.324156999588	fix_post	2		12	36.0	2.5	/experiments/AOT/AOT_stimuli/rescaled_final/1273_rv.mp4	0.0	209.31140613555908	0.0999300479888916
39	182.4240870475769	fix_pre	0		120	37.0	2.5	/experiments/AOT/AOT_stimuli/rescaled_final/1463_rv.mp4	0.0	209.41133618354797	1.0000579357147217
39	183.0075569152832	pulse	0	t		37.0	2.5	/experiments/AOT/AOT_stimuli/rescaled_final/1463_rv.mp4	0.0	209.99480605125427	
39	183.42414498329163	movie	1		245	37.0	2.5	/experiments/AOT/AOT_stimuli/rescaled_final/1463_rv.mp4	0.0	210.4113941192627	2.49993896484375
39	184.60764408111572	pulse	1	t		37.0	2.5	/experiments/AOT/AOT_stimuli/rescaled_final/1463_rv.mp4	0.0	211.5948932170868	
39	185.92408394813538	fix_post	2		12	37.0	2.5	/experiments/AOT/AOT_stimuli/rescaled_final/1463_rv.mp4	0.0	212.91133308410645	0.0999751091003418
40	186.02405905723572	fix_pre	0		120	38.0	2.5	/experiments/AOT/AOT_stimuli/rescaled_final/1363_rv.mp4	0.0	213.0113081932068	0.9999439716339111
40	186.20750904083252	pulse	0	t		38.0	2.5	/experiments/AOT/AOT_stimuli/rescaled_final/1363_rv.mp4	0.0	213.1947581768036	
40	187.02400302886963	movie	1		243	38.0	2.5	/experiments/AOT/AOT_stimuli/rescaled_final/1363_rv.mp4	0.0	214.0112521648407	2.5000178813934326
40	187.8076159954071	pulse	1	t		38.0	2.5	/experiments/AOT/AOT_stimuli/rescaled_final/1363_rv.mp4	0.0	214.79486513137817	
40	189.40658807754517	pulse	1	t		38.0	2.5	/experiments/AOT/AOT_stimuli/rescaled_final/1363_rv.mp4	0.0	216.39383721351624	
40	189.52402091026306	fix_post	2		12	38.0	2.5	/experiments/AOT/AOT_stimuli/rescaled_final/1363_rv.mp4	0.0	216.51127004623413	0.09999918937683105
41	189.6240200996399	fix_pre	0		120	39.0	2.5	/experiments/AOT/AOT_stimuli/rescaled_final/0461_rv.mp4	0.0	216.61126923561096	0.9995429515838623
41	190.62356305122375	movie	1		245	39.0	2.5	/experiments/AOT/AOT_stimuli/rescaled_final/0461_rv.mp4	0.0	217.61081218719482	2.500339984893799
41	191.00739789009094	pulse	1	t		39.0	2.5	/experiments/AOT/AOT_stimuli/rescaled_final/0461_rv.mp4	0.0	217.994647026062	
41	192.60754299163818	pulse	1	t		39.0	2.5	/experiments/AOT/AOT_stimuli/rescaled_final/0461_rv.mp4	0.0	219.59479212760925	
41	193.12390303611755	fix_post	2		12	39.0	2.5	/experiments/AOT/AOT_stimuli/rescaled_final/0461_rv.mp4	0.0	220.11115217208862	0.10007095336914062
42	193.2239739894867	fix_pre	0		119	40.0	2.5	blank	1.0	220.21122312545776	0.9917371273040771
42	194.2075378894806	pulse	0	t		40.0	2.5	blank	1.0	221.19478702545166	
42	194.21571111679077	movie	1		301	40.0	2.5	blank	1.0	221.20296025276184	2.5083699226379395
42	195.8074929714203	pulse	1	t		40.0	2.5	blank	1.0	222.79474210739136	
42	196.7240810394287	fix_post	2		12	40.0	2.5	blank	1.0	223.71133017539978	0.09954500198364258
43	196.82362604141235	fix_pre	0		120	41.0	2.5	/experiments/AOT/AOT_stimuli/rescaled_final/2081_fw.mp4	0.0	223.81087517738342	1.0003740787506104
43	197.40755891799927	pulse	0	t		41.0	2.5	/experiments/AOT/AOT_stimuli/rescaled_final/2081_fw.mp4	0.0	224.39480805397034	
43	197.82400012016296	movie	1		245	41.0	2.5	/experiments/AOT/AOT_stimuli/rescaled_final/2081_fw.mp4	0.0	224.81124925613403	2.499990940093994
43	199.0075180530548	pulse	1	t		41.0	2.5	/experiments/AOT/AOT_stimuli/rescaled_final/2081_fw.mp4	0.0	225.99476718902588	
43	200.32399106025696	fix_post	2		12	41.0	2.5	/experiments/AOT/AOT_stimuli/rescaled_final/2081_fw.mp4	0.0	227.31124019622803	0.0999760627746582
44	200.42396712303162	fix_pre	0		120	42.0	2.5	/experiments/AOT/AOT_stimuli/rescaled_final/1434_rv.mp4	0.0	227.41121625900269	1.0000197887420654
44	200.60752511024475	pulse	0	t		42.0	2.5	/experiments/AOT/AOT_stimuli/rescaled_final/1434_rv.mp4	0.0	227.59477424621582	
44	201.42398691177368	movie	1		246	42.0	2.5	/experiments/AOT/AOT_stimuli/rescaled_final/1434_rv.mp4	0.0	228.41123604774475	2.5001001358032227
44	202.20746111869812	pulse	1	t		42.0	2.5	/experiments/AOT/AOT_stimuli/rescaled_final/1434_rv.mp4	0.0	229.1947102546692	
44	203.80705499649048	pulse	1	t		42.0	2.5	/experiments/AOT/AOT_stimuli/rescaled_final/1434_rv.mp4	0.0	230.79430413246155	
44	203.9240870475769	fix_post	2		12	42.0	2.5	/experiments/AOT/AOT_stimuli/rescaled_final/1434_rv.mp4	0.0	230.91133618354797	0.09946298599243164
45	204.02355003356934	fix_pre	0		120	43.0	2.5	/experiments/AOT/AOT_stimuli/rescaled_final/1083_rv.mp4	0.0	231.0107991695404	1.0000889301300049
45	205.02363896369934	movie	1		245	43.0	2.5	/experiments/AOT/AOT_stimuli/rescaled_final/1083_rv.mp4	0.0	232.0108880996704	2.50026798248291
45	205.40661692619324	pulse	1	t		43.0	2.5	/experiments/AOT/AOT_stimuli/rescaled_final/1083_rv.mp4	0.0	232.3938660621643	
45	207.0078980922699	pulse	1	t		43.0	2.5	/experiments/AOT/AOT_stimuli/rescaled_final/1083_rv.mp4	0.0	233.99514722824097	
45	207.52390694618225	fix_post	2		12	43.0	2.5	/experiments/AOT/AOT_stimuli/rescaled_final/1083_rv.mp4	0.0	234.51115608215332	0.10006117820739746
46	207.62396812438965	fix_pre	0		119	44.0	2.5	/experiments/AOT/AOT_stimuli/rescaled_final/0051_fw.mp4	0.0	234.61121726036072	0.9916799068450928
46	208.6074070930481	pulse	0	t		44.0	2.5	/experiments/AOT/AOT_stimuli/rescaled_final/0051_fw.mp4	0.0	235.59465622901917	
46	208.61564803123474	movie	1		246	44.0	2.5	/experiments/AOT/AOT_stimuli/rescaled_final/0051_fw.mp4	0.0	235.6028971672058	2.50793194770813
46	210.20769000053406	pulse	1	t		44.0	2.5	/experiments/AOT/AOT_stimuli/rescaled_final/0051_fw.mp4	0.0	237.19493913650513	
46	211.12357997894287	fix_post	2		12	44.0	2.5	/experiments/AOT/AOT_stimuli/rescaled_final/0051_fw.mp4	0.0	238.11082911491394	0.10034394264221191
47	211.22392392158508	fix_pre	0		120	45.0	2.5	/experiments/AOT/AOT_stimuli/rescaled_final/1109_fw.mp4	0.0	238.21117305755615	1.0000941753387451
47	211.8086109161377	pulse	0	t		45.0	2.5	/experiments/AOT/AOT_stimuli/rescaled_final/1109_fw.mp4	0.0	238.79586005210876	
47	212.22401809692383	movie	1		244	45.0	2.5	/experiments/AOT/AOT_stimuli/rescaled_final/1109_fw.mp4	0.0	239.2112672328949	2.4999070167541504
47	213.40754508972168	pulse	1	t		45.0	2.5	/experiments/AOT/AOT_stimuli/rescaled_final/1109_fw.mp4	0.0	240.39479422569275	
47	214.72392511367798	fix_post	2		12	45.0	2.5	/experiments/AOT/AOT_stimuli/rescaled_final/1109_fw.mp4	0.0	241.71117424964905	0.09998893737792969
48	214.8239140510559	fix_pre	0		120	46.0	2.5	/experiments/AOT/AOT_stimuli/rescaled_final/1049_rv.mp4	0.0	241.81116318702698	0.9999630451202393
48	215.0074028968811	pulse	0	t		46.0	2.5	/experiments/AOT/AOT_stimuli/rescaled_final/1049_rv.mp4	0.0	241.99465203285217	
48	215.82387709617615	movie	1		244	46.0	2.5	/experiments/AOT/AOT_stimuli/rescaled_final/1049_rv.mp4	0.0	242.81112623214722	2.5001258850097656
48	216.60728907585144	pulse	1	t		46.0	2.5	/experiments/AOT/AOT_stimuli/rescaled_final/1049_rv.mp4	0.0	243.5945382118225	
48	218.20587396621704	pulse	1	t		46.0	2.5	/experiments/AOT/AOT_stimuli/rescaled_final/1049_rv.mp4	0.0	245.1931231021881	
48	218.3240029811859	fix_post	2		12	46.0	2.5	/experiments/AOT/AOT_stimuli/rescaled_final/1049_rv.mp4	0.0	245.31125211715698	0.09985899925231934
49	218.42386198043823	fix_pre	0		120	47.0	2.5	/experiments/AOT/AOT_stimuli/rescaled_final/0259_fw.mp4	0.0	245.4111111164093	1.0001609325408936
49	219.42402291297913	movie	1		243	47.0	2.5	/experiments/AOT/AOT_stimuli/rescaled_final/0259_fw.mp4	0.0	246.4112720489502	2.499885082244873
49	219.80699110031128	pulse	1	t		47.0	2.5	/experiments/AOT/AOT_stimuli/rescaled_final/0259_fw.mp4	0.0	246.79424023628235	
49	221.40731406211853	pulse	1	t		47.0	2.5	/experiments/AOT/AOT_stimuli/rescaled_final/0259_fw.mp4	0.0	248.3945631980896	
49	221.923907995224	fix_post	2		12	47.0	2.5	/experiments/AOT/AOT_stimuli/rescaled_final/0259_fw.mp4	0.0	248.91115713119507	0.09999299049377441
50	222.02390098571777	fix_pre	0		119	48.0	2.5	blank	1.0	249.01115012168884	0.9916849136352539
50	223.00736594200134	pulse	0	t		48.0	2.5	blank	1.0	249.9946150779724	
50	223.01558589935303	movie	1		301	48.0	2.5	blank	1.0	250.0028350353241	2.5083680152893066
50	224.60732889175415	pulse	1	t		48.0	2.5	blank	1.0	251.59457802772522	
50	225.52395391464233	fix_post	2		12	48.0	2.5	blank	1.0	252.5112030506134	0.09989619255065918
51	225.623850107193	fix_pre	0		120	49.0	2.5	/experiments/AOT/AOT_stimuli/rescaled_final/1060_rv.mp4	0.0	252.61109924316406	1.0000197887420654
51	226.20728993415833	pulse	0	t		49.0	2.5	/experiments/AOT/AOT_stimuli/rescaled_final/1060_rv.mp4	0.0	253.1945390701294	
51	226.62386989593506	movie	1		246	49.0	2.5	/experiments/AOT/AOT_stimuli/rescaled_final/1060_rv.mp4	0.0	253.61111903190613	2.500016212463379
51	227.80740189552307	pulse	1	t		49.0	2.5	/experiments/AOT/AOT_stimuli/rescaled_final/1060_rv.mp4	0.0	254.79465103149414	
51	229.12388610839844	fix_post	2		12	49.0	2.5	/experiments/AOT/AOT_stimuli/rescaled_final/1060_rv.mp4	0.0	256.1111352443695	0.09996986389160156
52	229.22385597229004	fix_pre	0		120	50.0	2.5	/experiments/AOT/AOT_stimuli/rescaled_final/0814_fw.mp4	0.0	256.2111051082611	0.9999599456787109
52	229.40732312202454	pulse	0	t		50.0	2.5	/experiments/AOT/AOT_stimuli/rescaled_final/0814_fw.mp4	0.0	256.3945722579956	
52	230.22381591796875	movie	1		247	50.0	2.5	/experiments/AOT/AOT_stimuli/rescaled_final/0814_fw.mp4	0.0	257.2110650539398	2.49957013130188
52	231.00740098953247	pulse	1	t		50.0	2.5	/experiments/AOT/AOT_stimuli/rescaled_final/0814_fw.mp4	0.0	257.99465012550354	
52	232.60703992843628	pulse	1	t		50.0	2.5	/experiments/AOT/AOT_stimuli/rescaled_final/0814_fw.mp4	0.0	259.59428906440735	
52	232.72338604927063	fix_post	2		12	50.0	2.5	/experiments/AOT/AOT_stimuli/rescaled_final/0814_fw.mp4	0.0	259.7106351852417	0.10012698173522949
53	232.82351303100586	fix_pre	0		120	51.0	2.5	/experiments/AOT/AOT_stimuli/rescaled_final/0345_rv.mp4	0.0	259.81076216697693	1.0003769397735596
53	233.82388997077942	movie	1		244	51.0	2.5	/experiments/AOT/AOT_stimuli/rescaled_final/0345_rv.mp4	0.0	260.8111391067505	2.4999239444732666
53	234.20710611343384	pulse	1	t		51.0	2.5	/experiments/AOT/AOT_stimuli/rescaled_final/0345_rv.mp4	0.0	261.1943552494049	
53	235.8072669506073	pulse	1	t		51.0	2.5	/experiments/AOT/AOT_stimuli/rescaled_final/0345_rv.mp4	0.0	262.79451608657837	
53	236.32381391525269	fix_post	2		12	51.0	2.5	/experiments/AOT/AOT_stimuli/rescaled_final/0345_rv.mp4	0.0	263.31106305122375	0.10003900527954102
54	236.42385292053223	fix_pre	0		119	52.0	2.5	/experiments/AOT/AOT_stimuli/rescaled_final/0360_rv.mp4	0.0	263.4111020565033	0.9916210174560547
54	237.40730810165405	pulse	0	t		52.0	2.5	/experiments/AOT/AOT_stimuli/rescaled_final/0360_rv.mp4	0.0	264.3945572376251	
54	237.41547393798828	movie	1		247	52.0	2.5	/experiments/AOT/AOT_stimuli/rescaled_final/0360_rv.mp4	0.0	264.40272307395935	2.5078811645507812
54	239.00709009170532	pulse	1	t		52.0	2.5	/experiments/AOT/AOT_stimuli/rescaled_final/0360_rv.mp4	0.0	265.9943392276764	
54	239.92335510253906	fix_post	2		12	52.0	2.5	/experiments/AOT/AOT_stimuli/rescaled_final/0360_rv.mp4	0.0	266.91060423851013	0.10039997100830078
55	240.02375507354736	fix_pre	0		120	53.0	2.5	/experiments/AOT/AOT_stimuli/rescaled_final/1857_fw.mp4	0.0	267.01100420951843	1.0000638961791992
55	240.60730695724487	pulse	0	t		53.0	2.5	/experiments/AOT/AOT_stimuli/rescaled_final/1857_fw.mp4	0.0	267.59455609321594	
55	241.02381896972656	movie	1		244	53.0	2.5	/experiments/AOT/AOT_stimuli/rescaled_final/1857_fw.mp4	0.0	268.01106810569763	2.4999759197235107
55	242.20747995376587	pulse	1	t		53.0	2.5	/experiments/AOT/AOT_stimuli/rescaled_final/1857_fw.mp4	0.0	269.19472908973694	
55	243.52379488945007	fix_post	2		12	53.0	2.5	/experiments/AOT/AOT_stimuli/rescaled_final/1857_fw.mp4	0.0	270.51104402542114	0.09994101524353027
56	243.6237359046936	fix_pre	0		120	54.0	2.5	/experiments/AOT/AOT_stimuli/rescaled_final/1558_fw.mp4	0.0	270.6109850406647	1.0000951290130615
56	243.80727410316467	pulse	0	t		54.0	2.5	/experiments/AOT/AOT_stimuli/rescaled_final/1558_fw.mp4	0.0	270.79452323913574	
56	244.62383103370667	movie	1		246	54.0	2.5	/experiments/AOT/AOT_stimuli/rescaled_final/1558_fw.mp4	0.0	271.61108016967773	2.4999520778656006
56	245.4072699546814	pulse	1	t		54.0	2.5	/experiments/AOT/AOT_stimuli/rescaled_final/1558_fw.mp4	0.0	272.39451909065247	
56	247.00735592842102	pulse	1	t		54.0	2.5	/experiments/AOT/AOT_stimuli/rescaled_final/1558_fw.mp4	0.0	273.9946050643921	
56	247.12378311157227	fix_post	2		12	54.0	2.5	/experiments/AOT/AOT_stimuli/rescaled_final/1558_fw.mp4	0.0	274.11103224754333	0.10000896453857422
57	247.22379207611084	fix_pre	0		120	55.0	2.5	/experiments/AOT/AOT_stimuli/rescaled_final/1684_fw.mp4	0.0	274.2110412120819	1.0000078678131104
57	248.22379994392395	movie	1		245	55.0	2.5	/experiments/AOT/AOT_stimuli/rescaled_final/1684_fw.mp4	0.0	275.211049079895	2.4995710849761963
57	248.6069679260254	pulse	1	t		55.0	2.5	/experiments/AOT/AOT_stimuli/rescaled_final/1684_fw.mp4	0.0	275.59421706199646	
57	250.20725893974304	pulse	1	t		55.0	2.5	/experiments/AOT/AOT_stimuli/rescaled_final/1684_fw.mp4	0.0	277.1945080757141	
57	250.72337102890015	fix_post	2		12	55.0	2.5	/experiments/AOT/AOT_stimuli/rescaled_final/1684_fw.mp4	0.0	277.7106201648712	0.1003870964050293
58	250.82375812530518	fix_pre	0		119	56.0	2.5	blank	1.0	277.81100726127625	0.9916048049926758
58	251.8072350025177	pulse	0	t		56.0	2.5	blank	1.0	278.79448413848877	
58	251.81536293029785	movie	1		301	56.0	2.5	blank	1.0	278.8026120662689	2.508357048034668
58	253.40720295906067	pulse	1	t		56.0	2.5	blank	1.0	280.39445209503174	
58	254.32371997833252	fix_post	2		12	56.0	2.5	blank	1.0	281.3109691143036	0.10003495216369629
59	254.42375493049622	fix_pre	0		120	57.0	2.5	/experiments/AOT/AOT_stimuli/rescaled_final/1953_fw.mp4	0.0	281.4110040664673	0.9996130466461182
59	255.00717210769653	pulse	0	t		57.0	2.5	/experiments/AOT/AOT_stimuli/rescaled_final/1953_fw.mp4	0.0	281.9944212436676	
59	255.42336797714233	movie	1		244	57.0	2.5	/experiments/AOT/AOT_stimuli/rescaled_final/1953_fw.mp4	0.0	282.4106171131134	2.5003840923309326
59	256.60727190971375	pulse	1	t		57.0	2.5	/experiments/AOT/AOT_stimuli/rescaled_final/1953_fw.mp4	0.0	283.5945210456848	
59	257.92375206947327	fix_post	2		12	57.0	2.5	/experiments/AOT/AOT_stimuli/rescaled_final/1953_fw.mp4	0.0	284.91100120544434	0.09999895095825195
60	258.0237510204315	fix_pre	0		120	58.0	2.5	/experiments/AOT/AOT_stimuli/rescaled_final/0051_rv.mp4	0.0	285.0110001564026	0.9995999336242676
60	258.20724296569824	pulse	0	t		58.0	2.5	/experiments/AOT/AOT_stimuli/rescaled_final/0051_rv.mp4	0.0	285.1944921016693	
60	259.0233509540558	movie	1		246	58.0	2.5	/experiments/AOT/AOT_stimuli/rescaled_final/0051_rv.mp4	0.0	286.01060009002686	2.5000481605529785
60	259.80724692344666	pulse	1	t		58.0	2.5	/experiments/AOT/AOT_stimuli/rescaled_final/0051_rv.mp4	0.0	286.7944960594177	
60	261.40565395355225	pulse	1	t		58.0	2.5	/experiments/AOT/AOT_stimuli/rescaled_final/0051_rv.mp4	0.0	288.3929030895233	
60	261.52339911460876	fix_post	2		12	58.0	2.5	/experiments/AOT/AOT_stimuli/rescaled_final/0051_rv.mp4	0.0	288.51064825057983	0.10003280639648438
61	261.62343192100525	fix_pre	0		120	59.0	2.5	/experiments/AOT/AOT_stimuli/rescaled_final/1972_fw.mp4	0.0	288.6106810569763	1.000568151473999
61	262.62400007247925	movie	1		246	59.0	2.5	/experiments/AOT/AOT_stimuli/rescaled_final/1972_fw.mp4	0.0	289.6112492084503	2.499685049057007
61	263.00651693344116	pulse	1	t		59.0	2.5	/experiments/AOT/AOT_stimuli/rescaled_final/1972_fw.mp4	0.0	289.99376606941223	
61	264.6071469783783	pulse	1	t		59.0	2.5	/experiments/AOT/AOT_stimuli/rescaled_final/1972_fw.mp4	0.0	291.59439611434937	
61	265.12368512153625	fix_post	2		12	59.0	2.5	/experiments/AOT/AOT_stimuli/rescaled_final/1972_fw.mp4	0.0	292.1109342575073	0.09998488426208496
62	265.22367000579834	fix_pre	0		119	60.0	2.5	/experiments/AOT/AOT_stimuli/rescaled_final/1434_fw.mp4	0.0	292.2109191417694	0.991703987121582
62	266.20717000961304	pulse	0	t		60.0	2.5	/experiments/AOT/AOT_stimuli/rescaled_final/1434_fw.mp4	0.0	293.1944191455841	
62	266.2153739929199	movie	1		248	60.0	2.5	/experiments/AOT/AOT_stimuli/rescaled_final/1434_fw.mp4	0.0	293.202623128891	2.5082719326019287
62	267.80698108673096	pulse	1	t		60.0	2.5	/experiments/AOT/AOT_stimuli/rescaled_final/1434_fw.mp4	0.0	294.794230222702	
62	268.72364592552185	fix_post	2		12	60.0	2.5	/experiments/AOT/AOT_stimuli/rescaled_final/1434_fw.mp4	0.0	295.7108950614929	0.0999600887298584
63	268.8236060142517	fix_pre	0		120	61.0	2.5	blank	1.0	295.8108551502228	1.0000500679016113
63	269.407133102417	pulse	0	t		61.0	2.5	blank	1.0	296.39438223838806	
63	269.8236560821533	movie	1		300	61.0	2.5	blank	1.0	296.8109052181244	2.500056028366089
63	271.0070791244507	pulse	1	t		61.0	2.5	blank	1.0	297.99432826042175	
63	272.3237121105194	fix_post	2		12	61.0	2.5	blank	1.0	299.3109612464905	0.0999298095703125
64	272.4236419200897	fix_pre	0		120	62.0	2.5	/experiments/AOT/AOT_stimuli/rescaled_final/1824_rv.mp4	0.0	299.4108910560608	1.0000121593475342
64	272.6070580482483	pulse	0	t		62.0	2.5	/experiments/AOT/AOT_stimuli/rescaled_final/1824_rv.mp4	0.0	299.59430718421936	
64	273.42365407943726	movie	1		246	62.0	2.5	/experiments/AOT/AOT_stimuli/rescaled_final/1824_rv.mp4	0.0	300.4109032154083	2.4999070167541504
64	274.20712399482727	pulse	1	t		62.0	2.5	/experiments/AOT/AOT_stimuli/rescaled_final/1824_rv.mp4	0.0	301.19437313079834	
64	275.80673003196716	pulse	1	t		62.0	2.5	/experiments/AOT/AOT_stimuli/rescaled_final/1824_rv.mp4	0.0	302.79397916793823	
64	275.9235610961914	fix_post	2		12	62.0	2.5	/experiments/AOT/AOT_stimuli/rescaled_final/1824_rv.mp4	0.0	302.9108102321625	0.10006880760192871
65	276.02362990379333	fix_pre	0		120	63.0	2.5	/experiments/AOT/AOT_stimuli/rescaled_final/1083_fw.mp4	0.0	303.0108790397644	0.9999890327453613
65	277.0236189365387	movie	1		245	63.0	2.5	/experiments/AOT/AOT_stimuli/rescaled_final/1083_fw.mp4	0.0	304.01086807250977	2.4996111392974854
65	277.4065639972687	pulse	1	t		63.0	2.5	/experiments/AOT/AOT_stimuli/rescaled_final/1083_fw.mp4	0.0	304.39381313323975	
65	279.00698590278625	pulse	1	t		63.0	2.5	/experiments/AOT/AOT_stimuli/rescaled_final/1083_fw.mp4	0.0	305.9942350387573	
65	279.5232300758362	fix_post	2		12	63.0	2.5	/experiments/AOT/AOT_stimuli/rescaled_final/1083_fw.mp4	0.0	306.51047921180725	0.10036683082580566
66	279.623596906662	fix_pre	0		119	64.0	2.5	/experiments/AOT/AOT_stimuli/rescaled_final/1273_fw.mp4	0.0	306.61084604263306	0.991685152053833
66	280.60705494880676	pulse	0	t		64.0	2.5	/experiments/AOT/AOT_stimuli/rescaled_final/1273_fw.mp4	0.0	307.59430408477783	
66	280.6152820587158	movie	1		247	64.0	2.5	/experiments/AOT/AOT_stimuli/rescaled_final/1273_fw.mp4	0.0	307.6025311946869	2.5084218978881836
66	282.2072730064392	pulse	1	t		64.0	2.5	/experiments/AOT/AOT_stimuli/rescaled_final/1273_fw.mp4	0.0	309.1945221424103	
66	283.123703956604	fix_post	2		12	64.0	2.5	/experiments/AOT/AOT_stimuli/rescaled_final/1273_fw.mp4	0.0	310.1109530925751	0.0998830795288086
67	283.2235870361328	fix_pre	0		120	65.0	2.5	/experiments/AOT/AOT_stimuli/rescaled_final/1206_fw.mp4	0.0	310.2108361721039	0.9996130466461182
67	283.80832695961	pulse	0	t		65.0	2.5	/experiments/AOT/AOT_stimuli/rescaled_final/1206_fw.mp4	0.0	310.79557609558105	
67	284.22320008277893	movie	1		245	65.0	2.5	/experiments/AOT/AOT_stimuli/rescaled_final/1206_fw.mp4	0.0	311.21044921875	2.5003278255462646
67	285.4071021080017	pulse	1	t		65.0	2.5	/experiments/AOT/AOT_stimuli/rescaled_final/1206_fw.mp4	0.0	312.3943512439728	
67	286.7235279083252	fix_post	2		12	65.0	2.5	/experiments/AOT/AOT_stimuli/rescaled_final/1206_fw.mp4	0.0	313.71077704429626	0.10003519058227539
68	286.82356309890747	fix_pre	0		120	66.0	2.5	/experiments/AOT/AOT_stimuli/rescaled_final/0258_rv.mp4	0.0	313.81081223487854	1.0000247955322266
68	287.0071930885315	pulse	0	t		66.0	2.5	/experiments/AOT/AOT_stimuli/rescaled_final/0258_rv.mp4	0.0	313.99444222450256	
68	287.8235878944397	movie	1		245	66.0	2.5	/experiments/AOT/AOT_stimuli/rescaled_final/0258_rv.mp4	0.0	314.81083703041077	2.500063180923462
68	288.60704493522644	pulse	1	t		66.0	2.5	/experiments/AOT/AOT_stimuli/rescaled_final/0258_rv.mp4	0.0	315.5942940711975	
68	290.20712304115295	pulse	1	t		66.0	2.5	/experiments/AOT/AOT_stimuli/rescaled_final/0258_rv.mp4	0.0	317.194372177124	
68	290.32365107536316	fix_post	2		12	66.0	2.5	/experiments/AOT/AOT_stimuli/rescaled_final/0258_rv.mp4	0.0	317.31090021133423	0.09992384910583496
69	290.423574924469	fix_pre	0		120	67.0	2.5	/experiments/AOT/AOT_stimuli/rescaled_final/1684_rv.mp4	0.0	317.41082406044006	1.000108003616333
69	291.4236829280853	movie	1		246	67.0	2.5	/experiments/AOT/AOT_stimuli/rescaled_final/1684_rv.mp4	0.0	318.4109320640564	2.499819040298462
69	291.80804991722107	pulse	1	t		67.0	2.5	/experiments/AOT/AOT_stimuli/rescaled_final/1684_rv.mp4	0.0	318.79529905319214	
69	293.40703105926514	pulse	1	t		67.0	2.5	/experiments/AOT/AOT_stimuli/rescaled_final/1684_rv.mp4	0.0	320.3942801952362	
69	293.9235019683838	fix_post	2		12	67.0	2.5	/experiments/AOT/AOT_stimuli/rescaled_final/1684_rv.mp4	0.0	320.91075110435486	0.10019111633300781
70	294.0236930847168	fix_pre	0		119	68.0	2.5	/experiments/AOT/AOT_stimuli/rescaled_final/0528_fw.mp4	0.0	321.01094222068787	0.9915449619293213
70	295.0070569515228	pulse	0	t		68.0	2.5	/experiments/AOT/AOT_stimuli/rescaled_final/0528_fw.mp4	0.0	321.9943060874939	
70	295.0152380466461	movie	1		249	68.0	2.5	/experiments/AOT/AOT_stimuli/rescaled_final/0528_fw.mp4	0.0	322.0024871826172	2.508312940597534
70	296.60702204704285	pulse	1	t		68.0	2.5	/experiments/AOT/AOT_stimuli/rescaled_final/0528_fw.mp4	0.0	323.5942711830139	
70	297.52355098724365	fix_post	2		12	68.0	2.5	/experiments/AOT/AOT_stimuli/rescaled_final/0528_fw.mp4	0.0	324.5108001232147	0.09996199607849121
71	297.62351298332214	fix_pre	0		120	69.0	2.5	/experiments/AOT/AOT_stimuli/rescaled_final/0804_rv.mp4	0.0	324.6107621192932	1.0000951290130615
71	298.2070059776306	pulse	0	t		69.0	2.5	/experiments/AOT/AOT_stimuli/rescaled_final/0804_rv.mp4	0.0	325.1942551136017	
71	298.6236081123352	movie	1		245	69.0	2.5	/experiments/AOT/AOT_stimuli/rescaled_final/0804_rv.mp4	0.0	325.6108572483063	2.499811887741089
71	299.8070709705353	pulse	1	t		69.0	2.5	/experiments/AOT/AOT_stimuli/rescaled_final/0804_rv.mp4	0.0	326.79432010650635	
71	301.1234200000763	fix_post	2		12	69.0	2.5	/experiments/AOT/AOT_stimuli/rescaled_final/0804_rv.mp4	0.0	328.11066913604736	0.10008502006530762
72	301.2235050201416	fix_pre	0		120	70.0	2.5	blank	1.0	328.21075415611267	0.9999220371246338
72	301.40700507164	pulse	0	t		70.0	2.5	blank	1.0	328.3942542076111	
72	302.22342705726624	movie	1		300	70.0	2.5	blank	1.0	329.2106761932373	2.500153064727783
72	303.0069830417633	pulse	1	t		70.0	2.5	blank	1.0	329.9942321777344	
72	304.6069390773773	pulse	1	t		70.0	2.5	blank	1.0	331.5941882133484	
72	304.723580121994	fix_post	2		12	70.0	2.5	blank	1.0	331.7108292579651	0.09987497329711914
73	304.82345509529114	fix_pre	0		120	71.0	2.5	/experiments/AOT/AOT_stimuli/rescaled_final/1767_rv.mp4	0.0	331.8107042312622	1.0000028610229492
73	305.8234579563141	movie	1		245	71.0	2.5	/experiments/AOT/AOT_stimuli/rescaled_final/1767_rv.mp4	0.0	332.81070709228516	2.500009059906006
73	306.2066080570221	pulse	1	t		71.0	2.5	/experiments/AOT/AOT_stimuli/rescaled_final/1767_rv.mp4	0.0	333.19385719299316	
73	307.80696511268616	pulse	1	t		71.0	2.5	/experiments/AOT/AOT_stimuli/rescaled_final/1767_rv.mp4	0.0	334.7942142486572	
73	308.3234670162201	fix_post	2		12	71.0	2.5	/experiments/AOT/AOT_stimuli/rescaled_final/1767_rv.mp4	0.0	335.31071615219116	0.0999751091003418
74	308.42344212532043	fix_pre	0		119	72.0	2.5	/experiments/AOT/AOT_stimuli/rescaled_final/0528_rv.mp4	0.0	335.4106912612915	0.9916439056396484
74	309.4069709777832	pulse	0	t		72.0	2.5	/experiments/AOT/AOT_stimuli/rescaled_final/0528_rv.mp4	0.0	336.3942201137543	
74	309.4150860309601	movie	1		247	72.0	2.5	/experiments/AOT/AOT_stimuli/rescaled_final/0528_rv.mp4	0.0	336.40233516693115	2.5079479217529297
74	311.00822591781616	pulse	1	t		72.0	2.5	/experiments/AOT/AOT_stimuli/rescaled_final/0528_rv.mp4	0.0	337.99547505378723	
74	311.923033952713	fix_post	2		12	72.0	2.5	/experiments/AOT/AOT_stimuli/rescaled_final/0528_rv.mp4	0.0	338.9102830886841	0.10048198699951172
75	312.0235159397125	fix_pre	0		120	73.0	2.5	/experiments/AOT/AOT_stimuli/rescaled_final/0108_rv.mp4	0.0	339.0107650756836	1.000046968460083
75	312.6070261001587	pulse	0	t		73.0	2.5	/experiments/AOT/AOT_stimuli/rescaled_final/0108_rv.mp4	0.0	339.59427523612976	
75	313.0235629081726	movie	1		248	73.0	2.5	/experiments/AOT/AOT_stimuli/rescaled_final/0108_rv.mp4	0.0	340.0108120441437	2.499873161315918
75	314.2070460319519	pulse	1	t		73.0	2.5	/experiments/AOT/AOT_stimuli/rescaled_final/0108_rv.mp4	0.0	341.194295167923	
75	315.5234360694885	fix_post	2		12	73.0	2.5	/experiments/AOT/AOT_stimuli/rescaled_final/0108_rv.mp4	0.0	342.5106852054596	0.09969782829284668
76	315.6231338977814	fix_pre	0		120	74.0	2.5	/experiments/AOT/AOT_stimuli/rescaled_final/0846_fw.mp4	0.0	342.61038303375244	1.000312089920044
76	315.80647706985474	pulse	0	t		74.0	2.5	/experiments/AOT/AOT_stimuli/rescaled_final/0846_fw.mp4	0.0	342.7937262058258	
76	316.6234459877014	movie	1		248	74.0	2.5	/experiments/AOT/AOT_stimuli/rescaled_final/0846_fw.mp4	0.0	343.6106951236725	2.4999239444732666
76	317.40657210350037	pulse	1	t		74.0	2.5	/experiments/AOT/AOT_stimuli/rescaled_final/0846_fw.mp4	0.0	344.39382123947144	
76	319.0068099498749	pulse	1	t		74.0	2.5	/experiments/AOT/AOT_stimuli/rescaled_final/0846_fw.mp4	0.0	345.99405908584595	
76	319.1233699321747	fix_post	2		12	74.0	2.5	/experiments/AOT/AOT_stimuli/rescaled_final/0846_fw.mp4	0.0	346.11061906814575	0.09999203681945801
77	319.22336196899414	fix_pre	0		120	75.0	2.5	/experiments/AOT/AOT_stimuli/rescaled_final/0140_rv.mp4	0.0	346.2106111049652	1.0001189708709717
77	320.2234809398651	movie	1		246	75.0	2.5	/experiments/AOT/AOT_stimuli/rescaled_final/0140_rv.mp4	0.0	347.2107300758362	2.4994871616363525
77	320.6065709590912	pulse	1	t		75.0	2.5	/experiments/AOT/AOT_stimuli/rescaled_final/0140_rv.mp4	0.0	347.59382009506226	
77	322.20699095726013	pulse	1	t		75.0	2.5	/experiments/AOT/AOT_stimuli/rescaled_final/0140_rv.mp4	0.0	349.1942400932312	
77	322.72296810150146	fix_post	2		12	75.0	2.5	/experiments/AOT/AOT_stimuli/rescaled_final/0140_rv.mp4	0.0	349.71021723747253	0.10042095184326172
78	322.8233890533447	fix_pre	0		119	76.0	2.5	/experiments/AOT/AOT_stimuli/rescaled_final/0954_fw.mp4	0.0	349.8106381893158	0.991657018661499
78	323.80675196647644	pulse	0	t		76.0	2.5	/experiments/AOT/AOT_stimuli/rescaled_final/0954_fw.mp4	0.0	350.7940011024475	
78	323.8150460720062	movie	1		248	76.0	2.5	/experiments/AOT/AOT_stimuli/rescaled_final/0954_fw.mp4	0.0	350.8022952079773	2.5082859992980957
78	325.40666699409485	pulse	1	t		76.0	2.5	/experiments/AOT/AOT_stimuli/rescaled_final/0954_fw.mp4	0.0	352.3939161300659	
78	326.3233320713043	fix_post	2		12	76.0	2.5	/experiments/AOT/AOT_stimuli/rescaled_final/0954_fw.mp4	0.0	353.3105812072754	0.10004091262817383
79	326.4233729839325	fix_pre	0		120	77.0	2.5	blank	1.0	353.41062211990356	0.9995920658111572
79	327.0069351196289	pulse	0	t		77.0	2.5	blank	1.0	353.9941842556	
79	327.42296504974365	movie	1		300	77.0	2.5	blank	1.0	354.4102141857147	2.5003609657287598
79	328.6068871021271	pulse	1	t		77.0	2.5	blank	1.0	355.59413623809814	
79	329.9233260154724	fix_post	2		12	77.0	2.5	blank	1.0	356.9105751514435	0.10000896453857422
80	330.023334980011	fix_pre	0		120	78.0	2.5	/experiments/AOT/AOT_stimuli/rescaled_final/1273_rv.mp4	0.0	357.01058411598206	1.0000181198120117
80	330.20696091651917	pulse	0	t		78.0	2.5	/experiments/AOT/AOT_stimuli/rescaled_final/1273_rv.mp4	0.0	357.19421005249023	
80	331.023353099823	movie	1		249	78.0	2.5	/experiments/AOT/AOT_stimuli/rescaled_final/1273_rv.mp4	0.0	358.01060223579407	2.5000598430633545
80	331.80686497688293	pulse	1	t		78.0	2.5	/experiments/AOT/AOT_stimuli/rescaled_final/1273_rv.mp4	0.0	358.794114112854	
80	333.40684509277344	pulse	1	t		78.0	2.5	/experiments/AOT/AOT_stimuli/rescaled_final/1273_rv.mp4	0.0	360.3940942287445	
80	333.52341294288635	fix_post	2		12	78.0	2.5	/experiments/AOT/AOT_stimuli/rescaled_final/1273_rv.mp4	0.0	360.5106620788574	0.09949111938476562
81	333.6229040622711	fix_pre	0		120	79.0	2.5	/experiments/AOT/AOT_stimuli/rescaled_final/1342_rv.mp4	0.0	360.6101531982422	1.0000388622283936
81	334.6229429244995	movie	1		245	79.0	2.5	/experiments/AOT/AOT_stimuli/rescaled_final/1342_rv.mp4	0.0	361.6101920604706	2.5003631114959717
81	335.0065131187439	pulse	1	t		79.0	2.5	/experiments/AOT/AOT_stimuli/rescaled_final/1342_rv.mp4	0.0	361.99376225471497	
81	336.6067509651184	pulse	1	t		79.0	2.5	/experiments/AOT/AOT_stimuli/rescaled_final/1342_rv.mp4	0.0	363.5940001010895	
81	337.1233060359955	fix_post	2		12	79.0	2.5	/experiments/AOT/AOT_stimuli/rescaled_final/1342_rv.mp4	0.0	364.11055517196655	0.1001138687133789
82	337.22341990470886	fix_pre	0		119	80.0	2.5	/experiments/AOT/AOT_stimuli/rescaled_final/1346_rv.mp4	0.0	364.21066904067993	0.9915871620178223
82	338.2068009376526	pulse	0	t		80.0	2.5	/experiments/AOT/AOT_stimuli/rescaled_final/1346_rv.mp4	0.0	365.19405007362366	
82	338.2150070667267	movie	1		247	80.0	2.5	/experiments/AOT/AOT_stimuli/rescaled_final/1346_rv.mp4	0.0	365.20225620269775	2.5083279609680176
82	339.8064479827881	pulse	1	t		80.0	2.5	/experiments/AOT/AOT_stimuli/rescaled_final/1346_rv.mp4	0.0	366.79369711875916	
82	340.7233350276947	fix_post	2		12	80.0	2.5	/experiments/AOT/AOT_stimuli/rescaled_final/1346_rv.mp4	0.0	367.71058416366577	0.09998798370361328
83	340.8233230113983	fix_pre	0		120	81.0	2.5	/experiments/AOT/AOT_stimuli/rescaled_final/0484_fw.mp4	0.0	367.8105721473694	0.9999790191650391
83	341.406690120697	pulse	0	t		81.0	2.5	/experiments/AOT/AOT_stimuli/rescaled_final/0484_fw.mp4	0.0	368.3939392566681	
83	341.82330203056335	movie	1		246	81.0	2.5	/experiments/AOT/AOT_stimuli/rescaled_final/0484_fw.mp4	0.0	368.8105511665344	2.499912977218628
83	343.00685691833496	pulse	1	t		81.0	2.5	/experiments/AOT/AOT_stimuli/rescaled_final/0484_fw.mp4	0.0	369.99410605430603	
83	344.323215007782	fix_post	2		12	81.0	2.5	/experiments/AOT/AOT_stimuli/rescaled_final/0484_fw.mp4	0.0	371.31046414375305	0.09964704513549805
84	344.4228620529175	fix_pre	0		120	82.0	2.5	/experiments/AOT/AOT_stimuli/rescaled_final/0362_rv.mp4	0.0	371.41011118888855	1.0004470348358154
84	344.60680198669434	pulse	0	t		82.0	2.5	/experiments/AOT/AOT_stimuli/rescaled_final/0362_rv.mp4	0.0	371.5940511226654	
84	345.4233090877533	movie	1		246	82.0	2.5	/experiments/AOT/AOT_stimuli/rescaled_final/0362_rv.mp4	0.0	372.41055822372437	2.4995479583740234
84	346.2068200111389	pulse	1	t		82.0	2.5	/experiments/AOT/AOT_stimuli/rescaled_final/0362_rv.mp4	0.0	373.19406914711	
84	347.80674600601196	pulse	1	t		82.0	2.5	/experiments/AOT/AOT_stimuli/rescaled_final/0362_rv.mp4	0.0	374.79399514198303	
84	347.9228570461273	fix_post	2		12	82.0	2.5	/experiments/AOT/AOT_stimuli/rescaled_final/0362_rv.mp4	0.0	374.9101061820984	0.09998106956481934
85	348.02283811569214	fix_pre	0		120	83.0	2.5	blank	1.0	375.0100872516632	1.0000488758087158
85	349.02288699150085	movie	1		300	83.0	2.5	blank	1.0	376.0101361274719	2.5003409385681152
85	349.40671706199646	pulse	1	t		83.0	2.5	blank	1.0	376.39396619796753	
85	351.00670099258423	pulse	1	t		83.0	2.5	blank	1.0	377.9939501285553	
85	351.52322793006897	fix_post	2		12	83.0	2.5	blank	1.0	378.51047706604004	0.10000109672546387
87	351.62322902679443	stim	0		1716					378.6104781627655	14.300067901611328
87	352.6068661212921	pulse	0	t						379.5941152572632	
87	354.20667695999146	pulse	0	t						381.1939260959625	
87	355.8066658973694	pulse	0	t						382.79391503334045	
87	357.4066119194031	pulse	0	t						384.39386105537415	
87	359.00666904449463	pulse	0	t						385.9939181804657	
87	360.6066780090332	pulse	0	t						387.5939271450043	
87	362.20665097236633	pulse	0	t						389.1939001083374	
87	363.8066909313202	pulse	0	t						390.79394006729126	
87	365.4066729545593	pulse	0	t						392.3939220905304	
