trial_nr	onset	event_type	phase	response	nr_frames	movie_index	movie_duration	movie_file	blank	onset_abs	duration
0	0.14146900177001953	stim	0		3					19.380375385284424	0.02487492561340332
0	0.1585686206817627	response	0	space						19.397475004196167	
1	0.16634392738342285	stim	0		4725					19.405250310897827	39.393879652023315
1	39.54524636268616	pulse	0	t						58.78415274620056	
1	39.56022357940674	stim	1		1715					58.79912996292114	14.297648668289185
1	41.13946342468262	pulse	1	t						60.37836980819702	
1	42.73964738845825	pulse	1	t						61.978553771972656	
1	44.33990955352783	pulse	1	t						63.578815937042236	
1	45.940391540527344	pulse	1	t						65.17929792404175	
1	47.5404372215271	pulse	1	t						66.7793436050415	
1	49.14057636260986	pulse	1	t						68.37948274612427	
1	50.741058111190796	pulse	1	t						69.9799644947052	
1	52.34113359451294	pulse	1	t						71.58003997802734	
2	53.85787224769592	fix_pre	0		11	0.0	2.5	/experiments/Knapen_AOT/AOT_stimuli/rescaled_final/1177_rv.mp4	0.0	73.09677863121033	0.10840535163879395
2	53.94166278839111	pulse	0	t		0.0	2.5	/experiments/Knapen_AOT/AOT_stimuli/rescaled_final/1177_rv.mp4	0.0	73.18056917190552	
2	53.96627759933472	movie	1		286	0.0	2.5	/experiments/Knapen_AOT/AOT_stimuli/rescaled_final/1177_rv.mp4	0.0	73.20518398284912	2.4919281005859375
2	55.53998637199402	pulse	1	t		0.0	2.5	/experiments/Knapen_AOT/AOT_stimuli/rescaled_final/1177_rv.mp4	0.0	74.77889275550842	
2	56.458205699920654	fix_post	2		12	0.0	2.5	/experiments/Knapen_AOT/AOT_stimuli/rescaled_final/1177_rv.mp4	0.0	75.69711208343506	0.1000514030456543
3	56.55825710296631	fix_pre	0		120	1.0	2.5	/experiments/Knapen_AOT/AOT_stimuli/rescaled_final/1296_rv.mp4	0.0	75.79716348648071	1.0084593296051025
3	57.13455677032471	pulse	0	t		1.0	2.5	/experiments/Knapen_AOT/AOT_stimuli/rescaled_final/1296_rv.mp4	0.0	76.37346315383911	
3	57.56671643257141	movie	1		285	1.0	2.5	/experiments/Knapen_AOT/AOT_stimuli/rescaled_final/1296_rv.mp4	0.0	76.80562281608582	2.4920129776000977
3	58.74006462097168	pulse	1	t		1.0	2.5	/experiments/Knapen_AOT/AOT_stimuli/rescaled_final/1296_rv.mp4	0.0	77.97897100448608	
3	60.05872941017151	fix_post	2		12	1.0	2.5	/experiments/Knapen_AOT/AOT_stimuli/rescaled_final/1296_rv.mp4	0.0	79.29763579368591	0.10006356239318848
4	60.1587929725647	fix_pre	0		120	2.0	2.5	/experiments/Knapen_AOT/AOT_stimuli/rescaled_final/1934_fw.mp4	0.0	79.3976993560791	1.008483648300171
4	60.33461904525757	pulse	0	t		2.0	2.5	/experiments/Knapen_AOT/AOT_stimuli/rescaled_final/1934_fw.mp4	0.0	79.57352542877197	
4	61.16727662086487	movie	1		287	2.0	2.5	/experiments/Knapen_AOT/AOT_stimuli/rescaled_final/1934_fw.mp4	0.0	80.40618300437927	2.4919931888580322
4	61.94071698188782	pulse	1	t		2.0	2.5	/experiments/Knapen_AOT/AOT_stimuli/rescaled_final/1934_fw.mp4	0.0	81.17962336540222	
4	63.534759283065796	pulse	1	t		2.0	2.5	/experiments/Knapen_AOT/AOT_stimuli/rescaled_final/1934_fw.mp4	0.0	82.7736656665802	
4	63.6592698097229	fix_post	2		12	2.0	2.5	/experiments/Knapen_AOT/AOT_stimuli/rescaled_final/1934_fw.mp4	0.0	82.8981761932373	0.10002517700195312
5	63.75929498672485	fix_pre	0		120	3.0	2.5	/experiments/Knapen_AOT/AOT_stimuli/rescaled_final/0660_fw.mp4	0.0	82.99820137023926	1.008666753768921
5	64.76796174049377	movie	1		280	3.0	2.5	/experiments/Knapen_AOT/AOT_stimuli/rescaled_final/0660_fw.mp4	0.0	84.00686812400818	2.491877794265747
5	65.13499999046326	pulse	1	t		3.0	2.5	/experiments/Knapen_AOT/AOT_stimuli/rescaled_final/0660_fw.mp4	0.0	84.37390637397766	
5	66.73496460914612	pulse	1	t		3.0	2.5	/experiments/Knapen_AOT/AOT_stimuli/rescaled_final/0660_fw.mp4	0.0	85.97387099266052	
5	67.25983953475952	fix_post	2		12	3.0	2.5	/experiments/Knapen_AOT/AOT_stimuli/rescaled_final/0660_fw.mp4	0.0	86.49874591827393	0.10007619857788086
6	67.3599157333374	fix_pre	0		118	4.0	2.5	/experiments/Knapen_AOT/AOT_stimuli/rescaled_final/1020_rv.mp4	0.0	86.5988221168518	0.9917559623718262
6	68.33522701263428	pulse	0	t		4.0	2.5	/experiments/Knapen_AOT/AOT_stimuli/rescaled_final/1020_rv.mp4	0.0	87.57413339614868	
6	68.35167169570923	movie	1		295	4.0	2.5	/experiments/Knapen_AOT/AOT_stimuli/rescaled_final/1020_rv.mp4	0.0	87.59057807922363	2.5004029273986816
6	69.93547677993774	pulse	1	t		4.0	2.5	/experiments/Knapen_AOT/AOT_stimuli/rescaled_final/1020_rv.mp4	0.0	89.17438316345215	
6	70.85207462310791	fix_post	2		12	4.0	2.5	/experiments/Knapen_AOT/AOT_stimuli/rescaled_final/1020_rv.mp4	0.0	90.09098100662231	0.10010385513305664
7	70.95217847824097	fix_pre	0		120	5.0	2.5	/experiments/Knapen_AOT/AOT_stimuli/rescaled_final/0082_fw.mp4	0.0	90.19108486175537	1.0084095001220703
7	71.53574705123901	pulse	0	t		5.0	2.5	/experiments/Knapen_AOT/AOT_stimuli/rescaled_final/0082_fw.mp4	0.0	90.77465343475342	
7	71.96058797836304	movie	1		283	5.0	2.5	/experiments/Knapen_AOT/AOT_stimuli/rescaled_final/0082_fw.mp4	0.0	91.19949436187744	2.491992950439453
7	73.13602805137634	pulse	1	t		5.0	2.5	/experiments/Knapen_AOT/AOT_stimuli/rescaled_final/0082_fw.mp4	0.0	92.37493443489075	
7	74.45258092880249	fix_post	2		12	5.0	2.5	/experiments/Knapen_AOT/AOT_stimuli/rescaled_final/0082_fw.mp4	0.0	93.6914873123169	0.10001134872436523
8	74.55259227752686	fix_pre	0		120	6.0	2.5	/experiments/Knapen_AOT/AOT_stimuli/rescaled_final/1081_rv.mp4	0.0	93.79149866104126	1.0085136890411377
8	74.73615169525146	pulse	0	t		6.0	2.5	/experiments/Knapen_AOT/AOT_stimuli/rescaled_final/1081_rv.mp4	0.0	93.97505807876587	
8	75.561105966568	movie	1		281	6.0	2.5	/experiments/Knapen_AOT/AOT_stimuli/rescaled_final/1081_rv.mp4	0.0	94.8000123500824	2.4920246601104736
8	76.33650732040405	pulse	1	t		6.0	2.5	/experiments/Knapen_AOT/AOT_stimuli/rescaled_final/1081_rv.mp4	0.0	95.57541370391846	
8	77.93667244911194	pulse	1	t		6.0	2.5	/experiments/Knapen_AOT/AOT_stimuli/rescaled_final/1081_rv.mp4	0.0	97.17557883262634	
8	78.05313062667847	fix_post	2		12	6.0	2.5	/experiments/Knapen_AOT/AOT_stimuli/rescaled_final/1081_rv.mp4	0.0	97.29203701019287	0.09999918937683105
9	78.1531298160553	fix_pre	0		120	7.0	2.5	blank	1.0	97.3920361995697	1.0001697540283203
9	79.15329957008362	movie	1		300	7.0	2.5	blank	1.0	98.39220595359802	2.5003750324249268
9	79.53687047958374	pulse	1	t		7.0	2.5	blank	1.0	98.77577686309814	
9	81.13710761070251	pulse	1	t		7.0	2.5	blank	1.0	100.37601399421692	
9	81.65367460250854	fix_post	2		12	7.0	2.5	blank	1.0	100.89258098602295	0.09999942779541016
10	81.75367403030396	fix_pre	0		119	8.0	2.5	/experiments/Knapen_AOT/AOT_stimuli/rescaled_final/0899_fw.mp4	0.0	100.99258041381836	1.0002834796905518
10	82.73738098144531	pulse	0	t		8.0	2.5	/experiments/Knapen_AOT/AOT_stimuli/rescaled_final/0899_fw.mp4	0.0	101.97628736495972	
10	82.7539575099945	movie	1		291	8.0	2.5	/experiments/Knapen_AOT/AOT_stimuli/rescaled_final/0899_fw.mp4	0.0	101.99286389350891	2.5002732276916504
10	84.33665251731873	pulse	1	t		8.0	2.5	/experiments/Knapen_AOT/AOT_stimuli/rescaled_final/0899_fw.mp4	0.0	103.57555890083313	
10	85.25423073768616	fix_post	2		12	8.0	2.5	/experiments/Knapen_AOT/AOT_stimuli/rescaled_final/0899_fw.mp4	0.0	104.49313712120056	0.09998869895935059
11	85.35421943664551	fix_pre	0		120	9.0	2.5	/experiments/Knapen_AOT/AOT_stimuli/rescaled_final/0899_rv.mp4	0.0	104.59312582015991	1.0085539817810059
11	85.93791651725769	pulse	0	t		9.0	2.5	/experiments/Knapen_AOT/AOT_stimuli/rescaled_final/0899_rv.mp4	0.0	105.1768229007721	
11	86.36277341842651	movie	1		282	9.0	2.5	/experiments/Knapen_AOT/AOT_stimuli/rescaled_final/0899_rv.mp4	0.0	105.60167980194092	2.491978883743286
11	87.537761926651	pulse	1	t		9.0	2.5	/experiments/Knapen_AOT/AOT_stimuli/rescaled_final/0899_rv.mp4	0.0	106.7766683101654	
11	88.8547523021698	fix_post	2		12	9.0	2.5	/experiments/Knapen_AOT/AOT_stimuli/rescaled_final/0899_rv.mp4	0.0	108.0936586856842	0.10001850128173828
12	88.95477080345154	fix_pre	0		120	10.0	2.5	/experiments/Knapen_AOT/AOT_stimuli/rescaled_final/1277_rv.mp4	0.0	108.19367718696594	1.0084929466247559
12	89.13837265968323	pulse	0	t		10.0	2.5	/experiments/Knapen_AOT/AOT_stimuli/rescaled_final/1277_rv.mp4	0.0	108.37727904319763	
12	89.9632637500763	movie	1		282	10.0	2.5	/experiments/Knapen_AOT/AOT_stimuli/rescaled_final/1277_rv.mp4	0.0	109.2021701335907	2.492027997970581
12	90.739417552948	pulse	1	t		10.0	2.5	/experiments/Knapen_AOT/AOT_stimuli/rescaled_final/1277_rv.mp4	0.0	109.9783239364624	
12	92.33684945106506	pulse	1	t		10.0	2.5	/experiments/Knapen_AOT/AOT_stimuli/rescaled_final/1277_rv.mp4	0.0	111.57575583457947	
12	92.45529174804688	fix_post	2		12	10.0	2.5	/experiments/Knapen_AOT/AOT_stimuli/rescaled_final/1277_rv.mp4	0.0	111.69419813156128	0.1000213623046875
13	92.55531311035156	fix_pre	0		120	11.0	2.5	/experiments/Knapen_AOT/AOT_stimuli/rescaled_final/0424_rv.mp4	0.0	111.79421949386597	1.0084986686706543
13	93.56381177902222	movie	1		279	11.0	2.5	/experiments/Knapen_AOT/AOT_stimuli/rescaled_final/0424_rv.mp4	0.0	112.80271816253662	2.492008686065674
13	93.93761205673218	pulse	1	t		11.0	2.5	/experiments/Knapen_AOT/AOT_stimuli/rescaled_final/0424_rv.mp4	0.0	113.17651844024658	
13	95.53712892532349	pulse	1	t		11.0	2.5	/experiments/Knapen_AOT/AOT_stimuli/rescaled_final/0424_rv.mp4	0.0	114.77603530883789	
13	96.05582046508789	fix_post	2		12	11.0	2.5	/experiments/Knapen_AOT/AOT_stimuli/rescaled_final/0424_rv.mp4	0.0	115.2947268486023	0.10004520416259766
14	96.15586566925049	fix_pre	0		119	12.0	2.5	blank	1.0	115.39477205276489	0.9918479919433594
14	97.13979649543762	pulse	0	t		12.0	2.5	blank	1.0	116.37870287895203	
14	97.14771366119385	movie	1		301	12.0	2.5	blank	1.0	116.38662004470825	2.5086543560028076
14	98.7398374080658	pulse	1	t		12.0	2.5	blank	1.0	117.9787437915802	
14	99.65636801719666	fix_post	2		12	12.0	2.5	blank	1.0	118.89527440071106	0.10003995895385742
15	99.75640797615051	fix_pre	0		120	13.0	2.5	/experiments/Knapen_AOT/AOT_stimuli/rescaled_final/1612_rv.mp4	0.0	118.99531435966492	1.0085394382476807
15	100.340017080307	pulse	0	t		13.0	2.5	/experiments/Knapen_AOT/AOT_stimuli/rescaled_final/1612_rv.mp4	0.0	119.57892346382141	
15	100.7649474143982	movie	1		292	13.0	2.5	/experiments/Knapen_AOT/AOT_stimuli/rescaled_final/1612_rv.mp4	0.0	120.0038537979126	2.4919397830963135
15	101.9382598400116	pulse	1	t		13.0	2.5	/experiments/Knapen_AOT/AOT_stimuli/rescaled_final/1612_rv.mp4	0.0	121.177166223526	
15	103.2568871974945	fix_post	2		12	13.0	2.5	/experiments/Knapen_AOT/AOT_stimuli/rescaled_final/1612_rv.mp4	0.0	122.49579358100891	0.1000208854675293
16	103.35690808296204	fix_pre	0		120	14.0	2.5	/experiments/Knapen_AOT/AOT_stimuli/rescaled_final/1227_rv.mp4	0.0	122.59581446647644	1.0001351833343506
16	103.54041409492493	pulse	0	t		14.0	2.5	/experiments/Knapen_AOT/AOT_stimuli/rescaled_final/1227_rv.mp4	0.0	122.77932047843933	
16	104.35704326629639	movie	1		297	14.0	2.5	/experiments/Knapen_AOT/AOT_stimuli/rescaled_final/1227_rv.mp4	0.0	123.59594964981079	2.5004045963287354
16	105.13826107978821	pulse	1	t		14.0	2.5	/experiments/Knapen_AOT/AOT_stimuli/rescaled_final/1227_rv.mp4	0.0	124.37716746330261	
16	106.73650860786438	pulse	1	t		14.0	2.5	/experiments/Knapen_AOT/AOT_stimuli/rescaled_final/1227_rv.mp4	0.0	125.97541499137878	
16	106.85744786262512	fix_post	2		12	14.0	2.5	/experiments/Knapen_AOT/AOT_stimuli/rescaled_final/1227_rv.mp4	0.0	126.09635424613953	0.10000085830688477
17	106.957448720932	fix_pre	0		120	15.0	2.5	/experiments/Knapen_AOT/AOT_stimuli/rescaled_final/1693_fw.mp4	0.0	126.19635510444641	1.0085163116455078
17	107.96596503257751	movie	1		287	15.0	2.5	/experiments/Knapen_AOT/AOT_stimuli/rescaled_final/1693_fw.mp4	0.0	127.20487141609192	2.492021322250366
17	108.34069991111755	pulse	1	t		15.0	2.5	/experiments/Knapen_AOT/AOT_stimuli/rescaled_final/1693_fw.mp4	0.0	127.57960629463196	
17	109.93871903419495	pulse	1	t		15.0	2.5	/experiments/Knapen_AOT/AOT_stimuli/rescaled_final/1693_fw.mp4	0.0	129.17762541770935	
17	110.45798635482788	fix_post	2		12	15.0	2.5	/experiments/Knapen_AOT/AOT_stimuli/rescaled_final/1693_fw.mp4	0.0	129.69689273834229	0.09999227523803711
18	110.55797863006592	fix_pre	0		119	16.0	2.5	/experiments/Knapen_AOT/AOT_stimuli/rescaled_final/1878_fw.mp4	0.0	129.79688501358032	1.0001890659332275
18	111.54169034957886	pulse	0	t		16.0	2.5	/experiments/Knapen_AOT/AOT_stimuli/rescaled_final/1878_fw.mp4	0.0	130.78059673309326	
18	111.55816769599915	movie	1		295	16.0	2.5	/experiments/Knapen_AOT/AOT_stimuli/rescaled_final/1878_fw.mp4	0.0	130.79707407951355	2.500354051589966
18	113.1397123336792	pulse	1	t		16.0	2.5	/experiments/Knapen_AOT/AOT_stimuli/rescaled_final/1878_fw.mp4	0.0	132.3786187171936	
18	114.05852174758911	fix_post	2		12	16.0	2.5	/experiments/Knapen_AOT/AOT_stimuli/rescaled_final/1878_fw.mp4	0.0	133.29742813110352	0.10002279281616211
19	114.15854454040527	fix_pre	0		120	17.0	2.5	/experiments/Knapen_AOT/AOT_stimuli/rescaled_final/1380_rv.mp4	0.0	133.39745092391968	1.0001182556152344
19	114.74216318130493	pulse	0	t		17.0	2.5	/experiments/Knapen_AOT/AOT_stimuli/rescaled_final/1380_rv.mp4	0.0	133.98106956481934	
19	115.15866279602051	movie	1		296	17.0	2.5	/experiments/Knapen_AOT/AOT_stimuli/rescaled_final/1380_rv.mp4	0.0	134.3975691795349	2.5003764629364014
19	116.33799004554749	pulse	1	t		17.0	2.5	/experiments/Knapen_AOT/AOT_stimuli/rescaled_final/1380_rv.mp4	0.0	135.5768964290619	
19	117.65903925895691	fix_post	2		12	17.0	2.5	/experiments/Knapen_AOT/AOT_stimuli/rescaled_final/1380_rv.mp4	0.0	136.8979456424713	0.10003376007080078
20	117.75907301902771	fix_pre	0		120	18.0	2.5	/experiments/Knapen_AOT/AOT_stimuli/rescaled_final/1764_rv.mp4	0.0	136.99797940254211	1.0086727142333984
20	117.94265460968018	pulse	0	t		18.0	2.5	/experiments/Knapen_AOT/AOT_stimuli/rescaled_final/1764_rv.mp4	0.0	137.18156099319458	
20	118.76774573326111	movie	1		291	18.0	2.5	/experiments/Knapen_AOT/AOT_stimuli/rescaled_final/1764_rv.mp4	0.0	138.0066521167755	2.4918689727783203
20	119.54014658927917	pulse	1	t		18.0	2.5	/experiments/Knapen_AOT/AOT_stimuli/rescaled_final/1764_rv.mp4	0.0	138.77905297279358	
20	121.13507556915283	pulse	1	t		18.0	2.5	/experiments/Knapen_AOT/AOT_stimuli/rescaled_final/1764_rv.mp4	0.0	140.37398195266724	
20	121.25961470603943	fix_post	2		12	18.0	2.5	/experiments/Knapen_AOT/AOT_stimuli/rescaled_final/1764_rv.mp4	0.0	140.49852108955383	0.10005998611450195
21	121.35967469215393	fix_pre	0		120	19.0	2.5	/experiments/Knapen_AOT/AOT_stimuli/rescaled_final/1823_rv.mp4	0.0	140.59858107566833	1.0084943771362305
21	122.36816906929016	movie	1		281	19.0	2.5	/experiments/Knapen_AOT/AOT_stimuli/rescaled_final/1823_rv.mp4	0.0	141.60707545280457	2.4921040534973145
21	122.73535418510437	pulse	1	t		19.0	2.5	/experiments/Knapen_AOT/AOT_stimuli/rescaled_final/1823_rv.mp4	0.0	141.97426056861877	
21	124.33536696434021	pulse	1	t		19.0	2.5	/experiments/Knapen_AOT/AOT_stimuli/rescaled_final/1823_rv.mp4	0.0	143.57427334785461	
21	124.86027312278748	fix_post	2		12	19.0	2.5	/experiments/Knapen_AOT/AOT_stimuli/rescaled_final/1823_rv.mp4	0.0	144.09917950630188	0.09989070892333984
22	124.96016383171082	fix_pre	0		118	20.0	2.5	/experiments/Knapen_AOT/AOT_stimuli/rescaled_final/1941_rv.mp4	0.0	144.19907021522522	0.9918568134307861
22	125.93557715415955	pulse	0	t		20.0	2.5	/experiments/Knapen_AOT/AOT_stimuli/rescaled_final/1941_rv.mp4	0.0	145.17448353767395	
22	125.9520206451416	movie	1		289	20.0	2.5	/experiments/Knapen_AOT/AOT_stimuli/rescaled_final/1941_rv.mp4	0.0	145.190927028656	2.500352144241333
22	127.53586530685425	pulse	1	t		20.0	2.5	/experiments/Knapen_AOT/AOT_stimuli/rescaled_final/1941_rv.mp4	0.0	146.77477169036865	
22	128.45237278938293	fix_post	2		12	20.0	2.5	/experiments/Knapen_AOT/AOT_stimuli/rescaled_final/1941_rv.mp4	0.0	147.69127917289734	0.10001325607299805
23	128.55238604545593	fix_pre	0		120	21.0	2.5	blank	1.0	147.79129242897034	1.0001497268676758
23	129.1361391544342	pulse	0	t		21.0	2.5	blank	1.0	148.3750455379486	
23	129.5525357723236	movie	1		300	21.0	2.5	blank	1.0	148.791442155838	2.5003714561462402
23	130.73637056350708	pulse	1	t		21.0	2.5	blank	1.0	149.97527694702148	
23	132.05290722846985	fix_post	2		12	21.0	2.5	blank	1.0	151.29181361198425	0.1000828742980957
24	132.15299010276794	fix_pre	0		120	22.0	2.5	/experiments/Knapen_AOT/AOT_stimuli/rescaled_final/0742_fw.mp4	0.0	151.39189648628235	1.0084340572357178
24	132.33650469779968	pulse	0	t		22.0	2.5	/experiments/Knapen_AOT/AOT_stimuli/rescaled_final/0742_fw.mp4	0.0	151.5754110813141	
24	133.16142416000366	movie	1		282	22.0	2.5	/experiments/Knapen_AOT/AOT_stimuli/rescaled_final/0742_fw.mp4	0.0	152.40033054351807	2.492013692855835
24	133.9368360042572	pulse	1	t		22.0	2.5	/experiments/Knapen_AOT/AOT_stimuli/rescaled_final/0742_fw.mp4	0.0	153.1757423877716	
24	135.53600549697876	pulse	1	t		22.0	2.5	/experiments/Knapen_AOT/AOT_stimuli/rescaled_final/0742_fw.mp4	0.0	154.77491188049316	
24	135.6534378528595	fix_post	2		12	22.0	2.5	/experiments/Knapen_AOT/AOT_stimuli/rescaled_final/0742_fw.mp4	0.0	154.8923442363739	0.1000375747680664
25	135.75347542762756	fix_pre	0		120	23.0	2.5	/experiments/Knapen_AOT/AOT_stimuli/rescaled_final/0640_fw.mp4	0.0	154.99238181114197	1.008495807647705
25	136.76197123527527	movie	1		277	23.0	2.5	/experiments/Knapen_AOT/AOT_stimuli/rescaled_final/0640_fw.mp4	0.0	156.00087761878967	2.4920601844787598
25	137.13745856285095	pulse	1	t		23.0	2.5	/experiments/Knapen_AOT/AOT_stimuli/rescaled_final/0640_fw.mp4	0.0	156.37636494636536	
25	138.73527884483337	pulse	1	t		23.0	2.5	/experiments/Knapen_AOT/AOT_stimuli/rescaled_final/0640_fw.mp4	0.0	157.97418522834778	
25	139.25403141975403	fix_post	2		12	23.0	2.5	/experiments/Knapen_AOT/AOT_stimuli/rescaled_final/0640_fw.mp4	0.0	158.49293780326843	0.09998607635498047
26	139.354017496109	fix_pre	0		119	24.0	2.5	/experiments/Knapen_AOT/AOT_stimuli/rescaled_final/0833_rv.mp4	0.0	158.5929238796234	1.0001635551452637
26	140.33770513534546	pulse	0	t		24.0	2.5	/experiments/Knapen_AOT/AOT_stimuli/rescaled_final/0833_rv.mp4	0.0	159.57661151885986	
26	140.35418105125427	movie	1		283	24.0	2.5	/experiments/Knapen_AOT/AOT_stimuli/rescaled_final/0833_rv.mp4	0.0	159.59308743476868	2.5003767013549805
26	141.9364528656006	pulse	1	t		24.0	2.5	/experiments/Knapen_AOT/AOT_stimuli/rescaled_final/0833_rv.mp4	0.0	161.175359249115	
26	142.85455775260925	fix_post	2		12	24.0	2.5	/experiments/Knapen_AOT/AOT_stimuli/rescaled_final/0833_rv.mp4	0.0	162.09346413612366	0.09999799728393555
27	142.9545557498932	fix_pre	0		120	25.0	2.5	/experiments/Knapen_AOT/AOT_stimuli/rescaled_final/1792_fw.mp4	0.0	162.1934621334076	1.0085508823394775
27	143.53825783729553	pulse	0	t		25.0	2.5	/experiments/Knapen_AOT/AOT_stimuli/rescaled_final/1792_fw.mp4	0.0	162.77716422080994	
27	143.96310663223267	movie	1		280	25.0	2.5	/experiments/Knapen_AOT/AOT_stimuli/rescaled_final/1792_fw.mp4	0.0	163.20201301574707	2.4920079708099365
27	145.13763785362244	pulse	1	t		25.0	2.5	/experiments/Knapen_AOT/AOT_stimuli/rescaled_final/1792_fw.mp4	0.0	164.37654423713684	
27	146.4551146030426	fix_post	2		12	25.0	2.5	/experiments/Knapen_AOT/AOT_stimuli/rescaled_final/1792_fw.mp4	0.0	165.694020986557	0.0999908447265625
28	146.55510544776917	fix_pre	0		120	26.0	2.5	/experiments/Knapen_AOT/AOT_stimuli/rescaled_final/1798_rv.mp4	0.0	165.79401183128357	1.0084974765777588
28	146.7387180328369	pulse	0	t		26.0	2.5	/experiments/Knapen_AOT/AOT_stimuli/rescaled_final/1798_rv.mp4	0.0	165.97762441635132	
28	147.56360292434692	movie	1		284	26.0	2.5	/experiments/Knapen_AOT/AOT_stimuli/rescaled_final/1798_rv.mp4	0.0	166.80250930786133	2.4920239448547363
28	148.33679294586182	pulse	1	t		26.0	2.5	/experiments/Knapen_AOT/AOT_stimuli/rescaled_final/1798_rv.mp4	0.0	167.57569932937622	
28	149.9373323917389	pulse	1	t		26.0	2.5	/experiments/Knapen_AOT/AOT_stimuli/rescaled_final/1798_rv.mp4	0.0	169.1762387752533	
28	150.05562686920166	fix_post	2		12	26.0	2.5	/experiments/Knapen_AOT/AOT_stimuli/rescaled_final/1798_rv.mp4	0.0	169.29453325271606	0.10001444816589355
29	150.15564131736755	fix_pre	0		120	27.0	2.5	/experiments/Knapen_AOT/AOT_stimuli/rescaled_final/0999_rv.mp4	0.0	169.39454770088196	1.0084877014160156
29	151.16412901878357	movie	1		286	27.0	2.5	/experiments/Knapen_AOT/AOT_stimuli/rescaled_final/0999_rv.mp4	0.0	170.40303540229797	2.4920804500579834
29	151.53782629966736	pulse	1	t		27.0	2.5	/experiments/Knapen_AOT/AOT_stimuli/rescaled_final/0999_rv.mp4	0.0	170.77673268318176	
29	153.13806533813477	pulse	1	t		27.0	2.5	/experiments/Knapen_AOT/AOT_stimuli/rescaled_final/0999_rv.mp4	0.0	172.37697172164917	
29	153.65620946884155	fix_post	2		12	27.0	2.5	/experiments/Knapen_AOT/AOT_stimuli/rescaled_final/0999_rv.mp4	0.0	172.89511585235596	0.10003829002380371
30	153.75624775886536	fix_pre	0		119	28.0	2.5	blank	1.0	172.99515414237976	0.9918670654296875
30	154.73990893363953	pulse	0	t		28.0	2.5	blank	1.0	173.97881531715393	
30	154.74811482429504	movie	1		301	28.0	2.5	blank	1.0	173.98702120780945	2.5086631774902344
30	156.34010863304138	pulse	1	t		28.0	2.5	blank	1.0	175.5790150165558	
30	157.25677800178528	fix_post	2		12	28.0	2.5	blank	1.0	176.49568438529968	0.10001754760742188
31	157.3567955493927	fix_pre	0		120	29.0	2.5	/experiments/Knapen_AOT/AOT_stimuli/rescaled_final/1312_rv.mp4	0.0	176.5957019329071	1.0084950923919678
31	157.94056677818298	pulse	0	t		29.0	2.5	/experiments/Knapen_AOT/AOT_stimuli/rescaled_final/1312_rv.mp4	0.0	177.1794731616974	
31	158.36529064178467	movie	1		293	29.0	2.5	/experiments/Knapen_AOT/AOT_stimuli/rescaled_final/1312_rv.mp4	0.0	177.60419702529907	2.4919629096984863
31	159.53882694244385	pulse	1	t		29.0	2.5	/experiments/Knapen_AOT/AOT_stimuli/rescaled_final/1312_rv.mp4	0.0	178.77773332595825	
31	160.85725355148315	fix_post	2		12	29.0	2.5	/experiments/Knapen_AOT/AOT_stimuli/rescaled_final/1312_rv.mp4	0.0	180.09615993499756	0.10007262229919434
32	160.95732617378235	fix_pre	0		120	30.0	2.5	/experiments/Knapen_AOT/AOT_stimuli/rescaled_final/0255_fw.mp4	0.0	180.19623255729675	1.0084028244018555
32	161.1408383846283	pulse	0	t		30.0	2.5	/experiments/Knapen_AOT/AOT_stimuli/rescaled_final/0255_fw.mp4	0.0	180.3797447681427	
32	161.9657289981842	movie	1		284	30.0	2.5	/experiments/Knapen_AOT/AOT_stimuli/rescaled_final/0255_fw.mp4	0.0	181.2046353816986	2.4920966625213623
32	162.74000644683838	pulse	1	t		30.0	2.5	/experiments/Knapen_AOT/AOT_stimuli/rescaled_final/0255_fw.mp4	0.0	181.97891283035278	
32	164.33940243721008	pulse	1	t		30.0	2.5	/experiments/Knapen_AOT/AOT_stimuli/rescaled_final/0255_fw.mp4	0.0	183.5783088207245	
32	164.45782566070557	fix_post	2		12	30.0	2.5	/experiments/Knapen_AOT/AOT_stimuli/rescaled_final/0255_fw.mp4	0.0	183.69673204421997	0.10008430480957031
33	164.55790996551514	fix_pre	0		120	31.0	2.5	/experiments/Knapen_AOT/AOT_stimuli/rescaled_final/1618_rv.mp4	0.0	183.79681634902954	1.008460283279419
33	165.56637024879456	movie	1		291	31.0	2.5	/experiments/Knapen_AOT/AOT_stimuli/rescaled_final/1618_rv.mp4	0.0	184.80527663230896	2.491973400115967
33	165.94030451774597	pulse	1	t		31.0	2.5	/experiments/Knapen_AOT/AOT_stimuli/rescaled_final/1618_rv.mp4	0.0	185.17921090126038	
33	167.53981471061707	pulse	1	t		31.0	2.5	/experiments/Knapen_AOT/AOT_stimuli/rescaled_final/1618_rv.mp4	0.0	186.77872109413147	
33	168.05834364891052	fix_post	2		12	31.0	2.5	/experiments/Knapen_AOT/AOT_stimuli/rescaled_final/1618_rv.mp4	0.0	187.29725003242493	0.10001945495605469
34	168.15836310386658	fix_pre	0		119	32.0	2.5	/experiments/Knapen_AOT/AOT_stimuli/rescaled_final/0021_fw.mp4	0.0	187.39726948738098	1.0001628398895264
34	169.14205741882324	pulse	0	t		32.0	2.5	/experiments/Knapen_AOT/AOT_stimuli/rescaled_final/0021_fw.mp4	0.0	188.38096380233765	
34	169.1585259437561	movie	1		283	32.0	2.5	/experiments/Knapen_AOT/AOT_stimuli/rescaled_final/0021_fw.mp4	0.0	188.3974323272705	2.5003557205200195
34	170.7405698299408	pulse	1	t		32.0	2.5	/experiments/Knapen_AOT/AOT_stimuli/rescaled_final/0021_fw.mp4	0.0	189.9794762134552	
34	171.65888166427612	fix_post	2		12	32.0	2.5	/experiments/Knapen_AOT/AOT_stimuli/rescaled_final/0021_fw.mp4	0.0	190.89778804779053	0.10002374649047852
35	171.7589054107666	fix_pre	0		120	33.0	2.5	/experiments/Knapen_AOT/AOT_stimuli/rescaled_final/1068_fw.mp4	0.0	190.997811794281	1.0086119174957275
35	172.33458638191223	pulse	0	t		33.0	2.5	/experiments/Knapen_AOT/AOT_stimuli/rescaled_final/1068_fw.mp4	0.0	191.57349276542664	
35	172.76751732826233	movie	1		286	33.0	2.5	/experiments/Knapen_AOT/AOT_stimuli/rescaled_final/1068_fw.mp4	0.0	192.00642371177673	2.4919192790985107
35	173.93455481529236	pulse	1	t		33.0	2.5	/experiments/Knapen_AOT/AOT_stimuli/rescaled_final/1068_fw.mp4	0.0	193.17346119880676	
35	175.25943660736084	fix_post	2		12	33.0	2.5	/experiments/Knapen_AOT/AOT_stimuli/rescaled_final/1068_fw.mp4	0.0	194.49834299087524	0.10000777244567871
36	175.35944437980652	fix_pre	0		120	34.0	2.5	blank	1.0	194.59835076332092	1.0001378059387207
36	175.53474926948547	pulse	0	t		34.0	2.5	blank	1.0	194.77365565299988	
36	176.35958218574524	movie	1		300	34.0	2.5	blank	1.0	195.59848856925964	2.500375986099243
36	177.13497805595398	pulse	1	t		34.0	2.5	blank	1.0	196.37388443946838	
36	178.73526763916016	pulse	1	t		34.0	2.5	blank	1.0	197.97417402267456	
36	178.85995817184448	fix_post	2		12	34.0	2.5	blank	1.0	198.0988645553589	0.10002279281616211
37	178.95998096466064	fix_pre	0		120	35.0	2.5	/experiments/Knapen_AOT/AOT_stimuli/rescaled_final/0883_rv.mp4	0.0	198.19888734817505	1.0084850788116455
37	179.9684660434723	movie	1		282	35.0	2.5	/experiments/Knapen_AOT/AOT_stimuli/rescaled_final/0883_rv.mp4	0.0	199.2073724269867	2.4920568466186523
37	180.3351366519928	pulse	1	t		35.0	2.5	/experiments/Knapen_AOT/AOT_stimuli/rescaled_final/0883_rv.mp4	0.0	199.5740430355072	
37	181.93583464622498	pulse	1	t		35.0	2.5	/experiments/Knapen_AOT/AOT_stimuli/rescaled_final/0883_rv.mp4	0.0	201.17474102973938	
37	182.46052289009094	fix_post	2		12	35.0	2.5	/experiments/Knapen_AOT/AOT_stimuli/rescaled_final/0883_rv.mp4	0.0	201.69942927360535	0.10000753402709961
38	182.56053042411804	fix_pre	0		118	36.0	2.5	/experiments/Knapen_AOT/AOT_stimuli/rescaled_final/0431_rv.mp4	0.0	201.79943680763245	0.9918968677520752
38	183.53588438034058	pulse	0	t		36.0	2.5	/experiments/Knapen_AOT/AOT_stimuli/rescaled_final/0431_rv.mp4	0.0	202.77479076385498	
38	183.55242729187012	movie	1		293	36.0	2.5	/experiments/Knapen_AOT/AOT_stimuli/rescaled_final/0431_rv.mp4	0.0	202.79133367538452	2.500325918197632
38	185.1345500946045	pulse	1	t		36.0	2.5	/experiments/Knapen_AOT/AOT_stimuli/rescaled_final/0431_rv.mp4	0.0	204.3734564781189	
38	186.05275321006775	fix_post	2		12	36.0	2.5	/experiments/Knapen_AOT/AOT_stimuli/rescaled_final/0431_rv.mp4	0.0	205.29165959358215	0.09999585151672363
39	186.15274906158447	fix_pre	0		120	37.0	2.5	/experiments/Knapen_AOT/AOT_stimuli/rescaled_final/1404_rv.mp4	0.0	205.39165544509888	1.0084855556488037
39	186.73672223091125	pulse	0	t		37.0	2.5	/experiments/Knapen_AOT/AOT_stimuli/rescaled_final/1404_rv.mp4	0.0	205.97562861442566	
39	187.16123461723328	movie	1		285	37.0	2.5	/experiments/Knapen_AOT/AOT_stimuli/rescaled_final/1404_rv.mp4	0.0	206.40014100074768	2.4920272827148438
39	188.33469152450562	pulse	1	t		37.0	2.5	/experiments/Knapen_AOT/AOT_stimuli/rescaled_final/1404_rv.mp4	0.0	207.57359790802002	
39	189.65326189994812	fix_post	2		12	37.0	2.5	/experiments/Knapen_AOT/AOT_stimuli/rescaled_final/1404_rv.mp4	0.0	208.89216828346252	0.10000991821289062
40	189.753271818161	fix_pre	0		120	38.0	2.5	/experiments/Knapen_AOT/AOT_stimuli/rescaled_final/1514_fw.mp4	0.0	208.99217820167542	1.0084595680236816
40	189.9368908405304	pulse	0	t		38.0	2.5	/experiments/Knapen_AOT/AOT_stimuli/rescaled_final/1514_fw.mp4	0.0	209.1757972240448	
40	190.7617313861847	movie	1		280	38.0	2.5	/experiments/Knapen_AOT/AOT_stimuli/rescaled_final/1514_fw.mp4	0.0	210.0006377696991	2.4920780658721924
40	191.53607439994812	pulse	1	t		38.0	2.5	/experiments/Knapen_AOT/AOT_stimuli/rescaled_final/1514_fw.mp4	0.0	210.77498078346252	
40	193.13544130325317	pulse	1	t		38.0	2.5	/experiments/Knapen_AOT/AOT_stimuli/rescaled_final/1514_fw.mp4	0.0	212.37434768676758	
40	193.25380945205688	fix_post	2		12	38.0	2.5	/experiments/Knapen_AOT/AOT_stimuli/rescaled_final/1514_fw.mp4	0.0	212.4927158355713	0.10001540184020996
41	193.3538248538971	fix_pre	0		120	39.0	2.5	/experiments/Knapen_AOT/AOT_stimuli/rescaled_final/0320_fw.mp4	0.0	212.5927312374115	1.008493185043335
41	194.36231803894043	movie	1		281	39.0	2.5	/experiments/Knapen_AOT/AOT_stimuli/rescaled_final/0320_fw.mp4	0.0	213.60122442245483	2.4920504093170166
41	194.73612809181213	pulse	1	t		39.0	2.5	/experiments/Knapen_AOT/AOT_stimuli/rescaled_final/0320_fw.mp4	0.0	213.97503447532654	
41	196.33653736114502	pulse	1	t		39.0	2.5	/experiments/Knapen_AOT/AOT_stimuli/rescaled_final/0320_fw.mp4	0.0	215.57544374465942	
41	196.85436844825745	fix_post	2		12	39.0	2.5	/experiments/Knapen_AOT/AOT_stimuli/rescaled_final/0320_fw.mp4	0.0	216.09327483177185	0.09999799728393555
42	196.95436644554138	fix_pre	0		119	40.0	2.5	/experiments/Knapen_AOT/AOT_stimuli/rescaled_final/1324_rv.mp4	0.0	216.1932728290558	1.0001795291900635
42	197.93819880485535	pulse	0	t		40.0	2.5	/experiments/Knapen_AOT/AOT_stimuli/rescaled_final/1324_rv.mp4	0.0	217.17710518836975	
42	197.95454597473145	movie	1		293	40.0	2.5	/experiments/Knapen_AOT/AOT_stimuli/rescaled_final/1324_rv.mp4	0.0	217.19345235824585	2.5003457069396973
42	199.53687810897827	pulse	1	t		40.0	2.5	/experiments/Knapen_AOT/AOT_stimuli/rescaled_final/1324_rv.mp4	0.0	218.77578449249268	
42	200.45489168167114	fix_post	2		12	40.0	2.5	/experiments/Knapen_AOT/AOT_stimuli/rescaled_final/1324_rv.mp4	0.0	219.69379806518555	0.10004639625549316
43	200.55493807792664	fix_pre	0		120	41.0	2.5	blank	1.0	219.79384446144104	1.0001168251037598
43	201.13850927352905	pulse	0	t		41.0	2.5	blank	1.0	220.37741565704346	
43	201.5550549030304	movie	1		300	41.0	2.5	blank	1.0	220.7939612865448	2.5004258155822754
43	202.73880124092102	pulse	1	t		41.0	2.5	blank	1.0	221.97770762443542	
43	204.05548071861267	fix_post	2		12	41.0	2.5	blank	1.0	223.29438710212708	0.09995532035827637
44	204.15543603897095	fix_pre	0		120	42.0	2.5	/experiments/Knapen_AOT/AOT_stimuli/rescaled_final/0640_fw.mp4	0.0	223.39434242248535	1.0084991455078125
44	204.33901596069336	pulse	0	t		42.0	2.5	/experiments/Knapen_AOT/AOT_stimuli/rescaled_final/0640_fw.mp4	0.0	223.57792234420776	
44	205.16393518447876	movie	1		276	42.0	2.5	/experiments/Knapen_AOT/AOT_stimuli/rescaled_final/0640_fw.mp4	0.0	224.40284156799316	2.4920716285705566
44	205.939621925354	pulse	1	t		42.0	2.5	/experiments/Knapen_AOT/AOT_stimuli/rescaled_final/0640_fw.mp4	0.0	225.1785283088684	
44	207.53793954849243	pulse	1	t		42.0	2.5	/experiments/Knapen_AOT/AOT_stimuli/rescaled_final/0640_fw.mp4	0.0	226.77684593200684	
44	207.65600681304932	fix_post	2		12	42.0	2.5	/experiments/Knapen_AOT/AOT_stimuli/rescaled_final/0640_fw.mp4	0.0	226.89491319656372	0.10003876686096191
45	207.75604557991028	fix_pre	0		120	43.0	2.5	/experiments/Knapen_AOT/AOT_stimuli/rescaled_final/1824_rv.mp4	0.0	226.99495196342468	1.008488655090332
45	208.7645342350006	movie	1		278	43.0	2.5	/experiments/Knapen_AOT/AOT_stimuli/rescaled_final/1824_rv.mp4	0.0	228.00344061851501	2.492032766342163
45	209.13867783546448	pulse	1	t		43.0	2.5	/experiments/Knapen_AOT/AOT_stimuli/rescaled_final/1824_rv.mp4	0.0	228.37758421897888	
45	210.74013996124268	pulse	1	t		43.0	2.5	/experiments/Knapen_AOT/AOT_stimuli/rescaled_final/1824_rv.mp4	0.0	229.97904634475708	
45	211.25656700134277	fix_post	2		12	43.0	2.5	/experiments/Knapen_AOT/AOT_stimuli/rescaled_final/1824_rv.mp4	0.0	230.49547338485718	0.0999903678894043
46	211.35655736923218	fix_pre	0		119	44.0	2.5	/experiments/Knapen_AOT/AOT_stimuli/rescaled_final/0439_fw.mp4	0.0	230.59546375274658	1.0002014636993408
46	212.3403549194336	pulse	0	t		44.0	2.5	/experiments/Knapen_AOT/AOT_stimuli/rescaled_final/0439_fw.mp4	0.0	231.579261302948	
46	212.35675883293152	movie	1		277	44.0	2.5	/experiments/Knapen_AOT/AOT_stimuli/rescaled_final/0439_fw.mp4	0.0	231.59566521644592	2.5002923011779785
46	213.93909764289856	pulse	1	t		44.0	2.5	/experiments/Knapen_AOT/AOT_stimuli/rescaled_final/0439_fw.mp4	0.0	233.17800402641296	
46	214.8570511341095	fix_post	2		12	44.0	2.5	/experiments/Knapen_AOT/AOT_stimuli/rescaled_final/0439_fw.mp4	0.0	234.0959575176239	0.10010194778442383
47	214.95715308189392	fix_pre	0		120	45.0	2.5	/experiments/Knapen_AOT/AOT_stimuli/rescaled_final/0377_fw.mp4	0.0	234.19605946540833	1.008439064025879
47	215.54077219963074	pulse	0	t		45.0	2.5	/experiments/Knapen_AOT/AOT_stimuli/rescaled_final/0377_fw.mp4	0.0	234.77967858314514	
47	215.9655921459198	movie	1		258	45.0	2.5	/experiments/Knapen_AOT/AOT_stimuli/rescaled_final/0377_fw.mp4	0.0	235.2044985294342	2.4920167922973633
47	217.24507021903992	pulse	1	t		45.0	2.5	/experiments/Knapen_AOT/AOT_stimuli/rescaled_final/0377_fw.mp4	0.0	236.48397660255432	
47	218.45760893821716	fix_post	2		12	45.0	2.5	/experiments/Knapen_AOT/AOT_stimuli/rescaled_final/0377_fw.mp4	0.0	237.69651532173157	0.10020732879638672
48	218.55781626701355	fix_pre	0		120	46.0	2.5	/experiments/Knapen_AOT/AOT_stimuli/rescaled_final/1324_rv.mp4	0.0	237.79672265052795	1.008298397064209
48	218.74120140075684	pulse	0	t		46.0	2.5	/experiments/Knapen_AOT/AOT_stimuli/rescaled_final/1324_rv.mp4	0.0	237.98010778427124	
48	219.56611466407776	movie	1		292	46.0	2.5	/experiments/Knapen_AOT/AOT_stimuli/rescaled_final/1324_rv.mp4	0.0	238.80502104759216	2.4920239448547363
48	220.33911800384521	pulse	1	t		46.0	2.5	/experiments/Knapen_AOT/AOT_stimuli/rescaled_final/1324_rv.mp4	0.0	239.57802438735962	
48	221.93951678276062	pulse	1	t		46.0	2.5	/experiments/Knapen_AOT/AOT_stimuli/rescaled_final/1324_rv.mp4	0.0	241.17842316627502	
48	222.0581386089325	fix_post	2		12	46.0	2.5	/experiments/Knapen_AOT/AOT_stimuli/rescaled_final/1324_rv.mp4	0.0	241.2970449924469	0.10001683235168457
49	222.15815544128418	fix_pre	0		120	47.0	2.5	blank	1.0	241.39706182479858	1.0001881122589111
49	223.1583435535431	movie	1		300	47.0	2.5	blank	1.0	242.3972499370575	2.500333547592163
49	223.54191708564758	pulse	1	t		47.0	2.5	blank	1.0	242.780823469162	
49	225.14225816726685	pulse	1	t		47.0	2.5	blank	1.0	244.38116455078125	
49	225.65867710113525	fix_post	2		12	47.0	2.5	blank	1.0	244.89758348464966	0.1000220775604248
50	225.75869917869568	fix_pre	0		119	48.0	2.5	/experiments/Knapen_AOT/AOT_stimuli/rescaled_final/0778_rv.mp4	0.0	244.99760556221008	1.0086054801940918
50	226.74240827560425	pulse	0	t		48.0	2.5	/experiments/Knapen_AOT/AOT_stimuli/rescaled_final/0778_rv.mp4	0.0	245.98131465911865	
50	226.76730465888977	movie	1		276	48.0	2.5	/experiments/Knapen_AOT/AOT_stimuli/rescaled_final/0778_rv.mp4	0.0	246.00621104240417	2.4919118881225586
50	228.34102940559387	pulse	1	t		48.0	2.5	/experiments/Knapen_AOT/AOT_stimuli/rescaled_final/0778_rv.mp4	0.0	247.57993578910828	
50	229.25921654701233	fix_post	2		12	48.0	2.5	/experiments/Knapen_AOT/AOT_stimuli/rescaled_final/0778_rv.mp4	0.0	248.49812293052673	0.10003829002380371
51	229.35925483703613	fix_pre	0		120	49.0	2.5	/experiments/Knapen_AOT/AOT_stimuli/rescaled_final/1941_fw.mp4	0.0	248.59816122055054	1.0084753036499023
51	229.9352765083313	pulse	0	t		49.0	2.5	/experiments/Knapen_AOT/AOT_stimuli/rescaled_final/1941_fw.mp4	0.0	249.1741828918457	
51	230.36773014068604	movie	1		278	49.0	2.5	/experiments/Knapen_AOT/AOT_stimuli/rescaled_final/1941_fw.mp4	0.0	249.60663652420044	2.4920449256896973
51	231.53499341011047	pulse	1	t		49.0	2.5	/experiments/Knapen_AOT/AOT_stimuli/rescaled_final/1941_fw.mp4	0.0	250.77389979362488	
51	232.85977506637573	fix_post	2		12	49.0	2.5	/experiments/Knapen_AOT/AOT_stimuli/rescaled_final/1941_fw.mp4	0.0	252.09868144989014	0.10005354881286621
52	232.9598286151886	fix_pre	0		120	50.0	2.5	/experiments/Knapen_AOT/AOT_stimuli/rescaled_final/0016_rv.mp4	0.0	252.198734998703	1.008467674255371
52	233.13511633872986	pulse	0	t		50.0	2.5	/experiments/Knapen_AOT/AOT_stimuli/rescaled_final/0016_rv.mp4	0.0	252.37402272224426	
52	233.96829628944397	movie	1		290	50.0	2.5	/experiments/Knapen_AOT/AOT_stimuli/rescaled_final/0016_rv.mp4	0.0	253.20720267295837	2.4920120239257812
52	234.73526310920715	pulse	1	t		50.0	2.5	/experiments/Knapen_AOT/AOT_stimuli/rescaled_final/0016_rv.mp4	0.0	253.97416949272156	
52	236.33555006980896	pulse	1	t		50.0	2.5	/experiments/Knapen_AOT/AOT_stimuli/rescaled_final/0016_rv.mp4	0.0	255.57445645332336	
52	236.46030831336975	fix_post	2		12	50.0	2.5	/experiments/Knapen_AOT/AOT_stimuli/rescaled_final/0016_rv.mp4	0.0	255.69921469688416	0.10001707077026367
53	236.56032538414001	fix_pre	0		120	51.0	2.5	/experiments/Knapen_AOT/AOT_stimuli/rescaled_final/0065_fw.mp4	0.0	255.79923176765442	1.0085077285766602
53	237.56883311271667	movie	1		274	51.0	2.5	/experiments/Knapen_AOT/AOT_stimuli/rescaled_final/0065_fw.mp4	0.0	256.8077394962311	2.4920735359191895
53	237.9359109401703	pulse	1	t		51.0	2.5	/experiments/Knapen_AOT/AOT_stimuli/rescaled_final/0065_fw.mp4	0.0	257.1748173236847	
53	239.53627824783325	pulse	1	t		51.0	2.5	/experiments/Knapen_AOT/AOT_stimuli/rescaled_final/0065_fw.mp4	0.0	258.77518463134766	
53	240.06090664863586	fix_post	2		12	51.0	2.5	/experiments/Knapen_AOT/AOT_stimuli/rescaled_final/0065_fw.mp4	0.0	259.29981303215027	0.09996795654296875
54	240.16087460517883	fix_pre	0		118	52.0	2.5	/experiments/Knapen_AOT/AOT_stimuli/rescaled_final/1120_fw.mp4	0.0	259.39978098869324	0.9918489456176758
54	241.13631510734558	pulse	0	t		52.0	2.5	/experiments/Knapen_AOT/AOT_stimuli/rescaled_final/1120_fw.mp4	0.0	260.37522149086	
54	241.1527235507965	movie	1		274	52.0	2.5	/experiments/Knapen_AOT/AOT_stimuli/rescaled_final/1120_fw.mp4	0.0	260.3916299343109	2.500345230102539
54	242.73506236076355	pulse	1	t		52.0	2.5	/experiments/Knapen_AOT/AOT_stimuli/rescaled_final/1120_fw.mp4	0.0	261.97396874427795	
54	243.65306878089905	fix_post	2		12	52.0	2.5	/experiments/Knapen_AOT/AOT_stimuli/rescaled_final/1120_fw.mp4	0.0	262.89197516441345	0.10002374649047852
55	243.75309252738953	fix_pre	0		120	53.0	2.5	/experiments/Knapen_AOT/AOT_stimuli/rescaled_final/0103_rv.mp4	0.0	262.99199891090393	1.0084855556488037
55	244.33675456047058	pulse	0	t		53.0	2.5	/experiments/Knapen_AOT/AOT_stimuli/rescaled_final/0103_rv.mp4	0.0	263.575660943985	
55	244.76157808303833	movie	1		273	53.0	2.5	/experiments/Knapen_AOT/AOT_stimuli/rescaled_final/0103_rv.mp4	0.0	264.00048446655273	2.492025852203369
55	245.93714785575867	pulse	1	t		53.0	2.5	/experiments/Knapen_AOT/AOT_stimuli/rescaled_final/0103_rv.mp4	0.0	265.17605423927307	
55	247.2536039352417	fix_post	2		12	53.0	2.5	/experiments/Knapen_AOT/AOT_stimuli/rescaled_final/0103_rv.mp4	0.0	266.4925103187561	0.10004734992980957
56	247.3536512851715	fix_pre	0		120	54.0	2.5	/experiments/Knapen_AOT/AOT_stimuli/rescaled_final/1941_fw.mp4	0.0	266.5925576686859	1.0084776878356934
56	247.537371635437	pulse	0	t		54.0	2.5	/experiments/Knapen_AOT/AOT_stimuli/rescaled_final/1941_fw.mp4	0.0	266.7762780189514	
56	248.3621289730072	movie	1		277	54.0	2.5	/experiments/Knapen_AOT/AOT_stimuli/rescaled_final/1941_fw.mp4	0.0	267.6010353565216	2.4920217990875244
56	249.13793110847473	pulse	1	t		54.0	2.5	/experiments/Knapen_AOT/AOT_stimuli/rescaled_final/1941_fw.mp4	0.0	268.37683749198914	
56	250.73650908470154	pulse	1	t		54.0	2.5	/experiments/Knapen_AOT/AOT_stimuli/rescaled_final/1941_fw.mp4	0.0	269.97541546821594	
56	250.85415077209473	fix_post	2		12	54.0	2.5	/experiments/Knapen_AOT/AOT_stimuli/rescaled_final/1941_fw.mp4	0.0	270.09305715560913	0.1000070571899414
57	250.95415782928467	fix_pre	0		120	55.0	2.5	/experiments/Knapen_AOT/AOT_stimuli/rescaled_final/0727_fw.mp4	0.0	270.1930642127991	1.008500576019287
57	251.96265840530396	movie	1		287	55.0	2.5	/experiments/Knapen_AOT/AOT_stimuli/rescaled_final/0727_fw.mp4	0.0	271.20156478881836	2.4920425415039062
57	252.33655190467834	pulse	1	t		55.0	2.5	/experiments/Knapen_AOT/AOT_stimuli/rescaled_final/0727_fw.mp4	0.0	271.57545828819275	
57	253.9366581439972	pulse	1	t		55.0	2.5	/experiments/Knapen_AOT/AOT_stimuli/rescaled_final/0727_fw.mp4	0.0	273.1755645275116	
57	254.45470094680786	fix_post	2		12	55.0	2.5	/experiments/Knapen_AOT/AOT_stimuli/rescaled_final/0727_fw.mp4	0.0	273.69360733032227	0.1000058650970459
58	254.5547068119049	fix_pre	0		119	56.0	2.5	blank	1.0	273.7936131954193	0.9917833805084229
58	255.53838729858398	pulse	0	t		56.0	2.5	blank	1.0	274.7772936820984	
58	255.54649019241333	movie	1		301	56.0	2.5	blank	1.0	274.78539657592773	2.5087575912475586
58	257.13862228393555	pulse	1	t		56.0	2.5	blank	1.0	276.37752866744995	
58	258.0552477836609	fix_post	2		12	56.0	2.5	blank	1.0	277.2941541671753	0.10002613067626953
59	258.15527391433716	fix_pre	0		120	57.0	2.5	/experiments/Knapen_AOT/AOT_stimuli/rescaled_final/1954_rv.mp4	0.0	277.39418029785156	1.008495569229126
59	258.7389349937439	pulse	0	t		57.0	2.5	/experiments/Knapen_AOT/AOT_stimuli/rescaled_final/1954_rv.mp4	0.0	277.9778413772583	
59	259.1637694835663	movie	1		277	57.0	2.5	/experiments/Knapen_AOT/AOT_stimuli/rescaled_final/1954_rv.mp4	0.0	278.4026758670807	2.4920027256011963
59	260.33702969551086	pulse	1	t		57.0	2.5	/experiments/Knapen_AOT/AOT_stimuli/rescaled_final/1954_rv.mp4	0.0	279.57593607902527	
59	261.6557722091675	fix_post	2		12	57.0	2.5	/experiments/Knapen_AOT/AOT_stimuli/rescaled_final/1954_rv.mp4	0.0	280.8946785926819	0.10002398490905762
60	261.75579619407654	fix_pre	0		120	58.0	2.5	/experiments/Knapen_AOT/AOT_stimuli/rescaled_final/0253_fw.mp4	0.0	280.99470257759094	1.008559226989746
60	261.9394574165344	pulse	0	t		58.0	2.5	/experiments/Knapen_AOT/AOT_stimuli/rescaled_final/0253_fw.mp4	0.0	281.1783638000488	
60	262.7643554210663	movie	1		277	58.0	2.5	/experiments/Knapen_AOT/AOT_stimuli/rescaled_final/0253_fw.mp4	0.0	282.0032618045807	2.491999626159668
60	263.53753209114075	pulse	1	t		58.0	2.5	/experiments/Knapen_AOT/AOT_stimuli/rescaled_final/0253_fw.mp4	0.0	282.77643847465515	
60	265.1378848552704	pulse	1	t		58.0	2.5	/experiments/Knapen_AOT/AOT_stimuli/rescaled_final/0253_fw.mp4	0.0	284.3767912387848	
60	265.25635504722595	fix_post	2		12	58.0	2.5	/experiments/Knapen_AOT/AOT_stimuli/rescaled_final/0253_fw.mp4	0.0	284.49526143074036	0.10000753402709961
61	265.35636258125305	fix_pre	0		120	59.0	2.5	/experiments/Knapen_AOT/AOT_stimuli/rescaled_final/0021_rv.mp4	0.0	284.59526896476746	1.0084826946258545
61	266.3648452758789	movie	1		275	59.0	2.5	/experiments/Knapen_AOT/AOT_stimuli/rescaled_final/0021_rv.mp4	0.0	285.6037516593933	2.492015838623047
61	266.7396020889282	pulse	1	t		59.0	2.5	/experiments/Knapen_AOT/AOT_stimuli/rescaled_final/0021_rv.mp4	0.0	285.9785084724426	
61	268.3411591053009	pulse	1	t		59.0	2.5	/experiments/Knapen_AOT/AOT_stimuli/rescaled_final/0021_rv.mp4	0.0	287.5800654888153	
61	268.85686111450195	fix_post	2		12	59.0	2.5	/experiments/Knapen_AOT/AOT_stimuli/rescaled_final/0021_rv.mp4	0.0	288.09576749801636	0.10004305839538574
62	268.95690417289734	fix_pre	0		119	60.0	2.5	/experiments/Knapen_AOT/AOT_stimuli/rescaled_final/1330_fw.mp4	0.0	288.19581055641174	1.0001282691955566
62	269.94128942489624	pulse	0	t		60.0	2.5	/experiments/Knapen_AOT/AOT_stimuli/rescaled_final/1330_fw.mp4	0.0	289.18019580841064	
62	269.9570324420929	movie	1		287	60.0	2.5	/experiments/Knapen_AOT/AOT_stimuli/rescaled_final/1330_fw.mp4	0.0	289.1959388256073	2.5003654956817627
62	271.53956151008606	pulse	1	t		60.0	2.5	/experiments/Knapen_AOT/AOT_stimuli/rescaled_final/1330_fw.mp4	0.0	290.77846789360046	
62	272.45739793777466	fix_post	2		12	60.0	2.5	/experiments/Knapen_AOT/AOT_stimuli/rescaled_final/1330_fw.mp4	0.0	291.69630432128906	0.10001039505004883
63	272.5574083328247	fix_pre	0		120	61.0	2.5	/experiments/Knapen_AOT/AOT_stimuli/rescaled_final/0248_rv.mp4	0.0	291.7963147163391	1.0085225105285645
63	273.1411557197571	pulse	0	t		61.0	2.5	/experiments/Knapen_AOT/AOT_stimuli/rescaled_final/0248_rv.mp4	0.0	292.3800621032715	
63	273.56593084335327	movie	1		278	61.0	2.5	/experiments/Knapen_AOT/AOT_stimuli/rescaled_final/0248_rv.mp4	0.0	292.8048372268677	2.4920077323913574
63	274.74141669273376	pulse	1	t		61.0	2.5	/experiments/Knapen_AOT/AOT_stimuli/rescaled_final/0248_rv.mp4	0.0	293.98032307624817	
63	276.05793857574463	fix_post	2		12	61.0	2.5	/experiments/Knapen_AOT/AOT_stimuli/rescaled_final/0248_rv.mp4	0.0	295.29684495925903	0.10003113746643066
64	276.15796971321106	fix_pre	0		120	62.0	2.5	/experiments/Knapen_AOT/AOT_stimuli/rescaled_final/0341_fw.mp4	0.0	295.39687609672546	1.0084776878356934
64	276.34152483940125	pulse	0	t		62.0	2.5	/experiments/Knapen_AOT/AOT_stimuli/rescaled_final/0341_fw.mp4	0.0	295.58043122291565	
64	277.16644740104675	movie	1		277	62.0	2.5	/experiments/Knapen_AOT/AOT_stimuli/rescaled_final/0341_fw.mp4	0.0	296.40535378456116	2.4920387268066406
64	277.939670085907	pulse	1	t		62.0	2.5	/experiments/Knapen_AOT/AOT_stimuli/rescaled_final/0341_fw.mp4	0.0	297.1785764694214	
64	279.5403745174408	pulse	1	t		62.0	2.5	/experiments/Knapen_AOT/AOT_stimuli/rescaled_final/0341_fw.mp4	0.0	298.7792809009552	
64	279.6584861278534	fix_post	2		12	62.0	2.5	/experiments/Knapen_AOT/AOT_stimuli/rescaled_final/0341_fw.mp4	0.0	298.8973925113678	0.09999442100524902
65	279.75848054885864	fix_pre	0		120	63.0	2.5	blank	1.0	298.99738693237305	1.0002727508544922
65	280.75875329971313	movie	1		300	63.0	2.5	blank	1.0	299.99765968322754	2.500333309173584
65	281.1422641277313	pulse	1	t		63.0	2.5	blank	1.0	300.3811705112457	
65	282.7425284385681	pulse	1	t		63.0	2.5	blank	1.0	301.9814348220825	
65	283.2590866088867	fix_post	2		12	63.0	2.5	blank	1.0	302.4979929924011	0.09996795654296875
66	283.3590545654297	fix_pre	0		119	64.0	2.5	/experiments/Knapen_AOT/AOT_stimuli/rescaled_final/2039_rv.mp4	0.0	302.5979609489441	1.0085444450378418
66	284.3428964614868	pulse	0	t		64.0	2.5	/experiments/Knapen_AOT/AOT_stimuli/rescaled_final/2039_rv.mp4	0.0	303.5818028450012	
66	284.36759901046753	movie	1		281	64.0	2.5	/experiments/Knapen_AOT/AOT_stimuli/rescaled_final/2039_rv.mp4	0.0	303.60650539398193	2.4919795989990234
66	285.94188261032104	pulse	1	t		64.0	2.5	/experiments/Knapen_AOT/AOT_stimuli/rescaled_final/2039_rv.mp4	0.0	305.18078899383545	
66	286.85957860946655	fix_post	2		12	64.0	2.5	/experiments/Knapen_AOT/AOT_stimuli/rescaled_final/2039_rv.mp4	0.0	306.09848499298096	0.10000824928283691
67	286.9595868587494	fix_pre	0		120	65.0	2.5	/experiments/Knapen_AOT/AOT_stimuli/rescaled_final/0804_fw.mp4	0.0	306.1984932422638	1.0085022449493408
67	287.5354244709015	pulse	0	t		65.0	2.5	/experiments/Knapen_AOT/AOT_stimuli/rescaled_final/0804_fw.mp4	0.0	306.7743308544159	
67	287.96808910369873	movie	1		282	65.0	2.5	/experiments/Knapen_AOT/AOT_stimuli/rescaled_final/0804_fw.mp4	0.0	307.20699548721313	2.492011785507202
67	289.13540506362915	pulse	1	t		65.0	2.5	/experiments/Knapen_AOT/AOT_stimuli/rescaled_final/0804_fw.mp4	0.0	308.37431144714355	
67	290.46010088920593	fix_post	2		12	65.0	2.5	/experiments/Knapen_AOT/AOT_stimuli/rescaled_final/0804_fw.mp4	0.0	309.69900727272034	0.10006833076477051
68	290.5601692199707	fix_pre	0		120	66.0	2.5	/experiments/Knapen_AOT/AOT_stimuli/rescaled_final/1279_fw.mp4	0.0	309.7990756034851	1.0084784030914307
68	290.73538637161255	pulse	0	t		66.0	2.5	/experiments/Knapen_AOT/AOT_stimuli/rescaled_final/1279_fw.mp4	0.0	309.97429275512695	
68	291.56864762306213	movie	1		282	66.0	2.5	/experiments/Knapen_AOT/AOT_stimuli/rescaled_final/1279_fw.mp4	0.0	310.80755400657654	2.4920413494110107
68	292.33559226989746	pulse	1	t		66.0	2.5	/experiments/Knapen_AOT/AOT_stimuli/rescaled_final/1279_fw.mp4	0.0	311.57449865341187	
68	293.93587493896484	pulse	1	t		66.0	2.5	/experiments/Knapen_AOT/AOT_stimuli/rescaled_final/1279_fw.mp4	0.0	313.17478132247925	
68	294.06068897247314	fix_post	2		12	66.0	2.5	/experiments/Knapen_AOT/AOT_stimuli/rescaled_final/1279_fw.mp4	0.0	313.29959535598755	0.09999251365661621
69	294.16068148612976	fix_pre	0		120	67.0	2.5	/experiments/Knapen_AOT/AOT_stimuli/rescaled_final/0848_fw.mp4	0.0	313.39958786964417	1.0084865093231201
69	295.1691679954529	movie	1		274	67.0	2.5	/experiments/Knapen_AOT/AOT_stimuli/rescaled_final/0848_fw.mp4	0.0	314.4080743789673	2.4920430183410645
69	295.5363154411316	pulse	1	t		67.0	2.5	/experiments/Knapen_AOT/AOT_stimuli/rescaled_final/0848_fw.mp4	0.0	314.775221824646	
69	297.1363296508789	pulse	1	t		67.0	2.5	/experiments/Knapen_AOT/AOT_stimuli/rescaled_final/0848_fw.mp4	0.0	316.3752360343933	
69	297.66121101379395	fix_post	2		12	67.0	2.5	/experiments/Knapen_AOT/AOT_stimuli/rescaled_final/0848_fw.mp4	0.0	316.90011739730835	0.09999966621398926
70	297.76121068000793	fix_pre	0		118	68.0	2.5	/experiments/Knapen_AOT/AOT_stimuli/rescaled_final/0648_rv.mp4	0.0	317.00011706352234	0.9918301105499268
70	298.7365725040436	pulse	0	t		68.0	2.5	/experiments/Knapen_AOT/AOT_stimuli/rescaled_final/0648_rv.mp4	0.0	317.975478887558	
70	298.75304079055786	movie	1		274	68.0	2.5	/experiments/Knapen_AOT/AOT_stimuli/rescaled_final/0648_rv.mp4	0.0	317.99194717407227	2.500359058380127
70	300.33551120758057	pulse	1	t		68.0	2.5	/experiments/Knapen_AOT/AOT_stimuli/rescaled_final/0648_rv.mp4	0.0	319.57441759109497	
70	301.253399848938	fix_post	2		12	68.0	2.5	/experiments/Knapen_AOT/AOT_stimuli/rescaled_final/0648_rv.mp4	0.0	320.4923062324524	0.10005354881286621
71	301.35345339775085	fix_pre	0		120	69.0	2.5	blank	1.0	320.59235978126526	1.0000991821289062
71	301.93719029426575	pulse	0	t		69.0	2.5	blank	1.0	321.17609667778015	
71	302.35355257987976	movie	1		300	69.0	2.5	blank	1.0	321.59245896339417	2.500455379486084
71	303.5373845100403	pulse	1	t		69.0	2.5	blank	1.0	322.7762908935547	
71	304.85400795936584	fix_post	2		12	69.0	2.5	blank	1.0	324.09291434288025	0.10006093978881836
72	304.95406889915466	fix_pre	0		119	70.0	2.5	/experiments/Knapen_AOT/AOT_stimuli/rescaled_final/1623_fw.mp4	0.0	324.19297528266907	1.0084872245788574
72	305.13756132125854	pulse	0	t		70.0	2.5	/experiments/Knapen_AOT/AOT_stimuli/rescaled_final/1623_fw.mp4	0.0	324.37646770477295	
72	305.9625561237335	movie	1		284	70.0	2.5	/experiments/Knapen_AOT/AOT_stimuli/rescaled_final/1623_fw.mp4	0.0	325.2014625072479	2.4919140338897705
72	306.7358250617981	pulse	1	t		70.0	2.5	/experiments/Knapen_AOT/AOT_stimuli/rescaled_final/1623_fw.mp4	0.0	325.9747314453125	
72	308.33612036705017	pulse	1	t		70.0	2.5	/experiments/Knapen_AOT/AOT_stimuli/rescaled_final/1623_fw.mp4	0.0	327.5750267505646	
72	308.4544701576233	fix_post	2		12	70.0	2.5	/experiments/Knapen_AOT/AOT_stimuli/rescaled_final/1623_fw.mp4	0.0	327.6933765411377	0.10001945495605469
73	308.55448961257935	fix_pre	0		120	71.0	2.5	/experiments/Knapen_AOT/AOT_stimuli/rescaled_final/1389_fw.mp4	0.0	327.79339599609375	1.0085656642913818
73	309.5630552768707	movie	1		278	71.0	2.5	/experiments/Knapen_AOT/AOT_stimuli/rescaled_final/1389_fw.mp4	0.0	328.80196166038513	2.4921908378601074
73	309.93661642074585	pulse	1	t		71.0	2.5	/experiments/Knapen_AOT/AOT_stimuli/rescaled_final/1389_fw.mp4	0.0	329.17552280426025	
73	311.53712224960327	pulse	1	t		71.0	2.5	/experiments/Knapen_AOT/AOT_stimuli/rescaled_final/1389_fw.mp4	0.0	330.7760286331177	
73	312.05524611473083	fix_post	2		12	71.0	2.5	/experiments/Knapen_AOT/AOT_stimuli/rescaled_final/1389_fw.mp4	0.0	331.29415249824524	0.09985733032226562
74	312.1551034450531	fix_pre	0		119	72.0	2.5	/experiments/Knapen_AOT/AOT_stimuli/rescaled_final/0377_rv.mp4	0.0	331.3940098285675	1.0086002349853516
74	313.13890314102173	pulse	0	t		72.0	2.5	/experiments/Knapen_AOT/AOT_stimuli/rescaled_final/0377_rv.mp4	0.0	332.37780952453613	
74	313.16370368003845	movie	1		289	72.0	2.5	/experiments/Knapen_AOT/AOT_stimuli/rescaled_final/0377_rv.mp4	0.0	332.40261006355286	2.491861343383789
74	314.73722195625305	pulse	1	t		72.0	2.5	/experiments/Knapen_AOT/AOT_stimuli/rescaled_final/0377_rv.mp4	0.0	333.97612833976746	
74	315.65556502342224	fix_post	2		12	72.0	2.5	/experiments/Knapen_AOT/AOT_stimuli/rescaled_final/0377_rv.mp4	0.0	334.89447140693665	0.09999275207519531
75	315.75555777549744	fix_pre	0		120	73.0	2.5	/experiments/Knapen_AOT/AOT_stimuli/rescaled_final/1277_rv.mp4	0.0	334.99446415901184	1.0085906982421875
75	316.3394591808319	pulse	0	t		73.0	2.5	/experiments/Knapen_AOT/AOT_stimuli/rescaled_final/1277_rv.mp4	0.0	335.5783655643463	
75	316.7641484737396	movie	1		278	73.0	2.5	/experiments/Knapen_AOT/AOT_stimuli/rescaled_final/1277_rv.mp4	0.0	336.003054857254	2.492016315460205
75	317.93749046325684	pulse	1	t		73.0	2.5	/experiments/Knapen_AOT/AOT_stimuli/rescaled_final/1277_rv.mp4	0.0	337.17639684677124	
75	319.25616478919983	fix_post	2		11	73.0	2.5	/experiments/Knapen_AOT/AOT_stimuli/rescaled_final/1277_rv.mp4	0.0	338.49507117271423	0.1000051498413086
76	319.35616993904114	fix_pre	0		120	74.0	2.5	/experiments/Knapen_AOT/AOT_stimuli/rescaled_final/1357_rv.mp4	0.0	338.59507632255554	1.0084447860717773
76	319.53968477249146	pulse	0	t		74.0	2.5	/experiments/Knapen_AOT/AOT_stimuli/rescaled_final/1357_rv.mp4	0.0	338.77859115600586	
76	320.3646147251129	movie	1		283	74.0	2.5	/experiments/Knapen_AOT/AOT_stimuli/rescaled_final/1357_rv.mp4	0.0	339.6035211086273	2.4920570850372314
76	321.1384952068329	pulse	1	t		74.0	2.5	/experiments/Knapen_AOT/AOT_stimuli/rescaled_final/1357_rv.mp4	0.0	340.3774015903473	
76	322.7382376194	pulse	1	t		74.0	2.5	/experiments/Knapen_AOT/AOT_stimuli/rescaled_final/1357_rv.mp4	0.0	341.97714400291443	
76	322.85667181015015	fix_post	2		12	74.0	2.5	/experiments/Knapen_AOT/AOT_stimuli/rescaled_final/1357_rv.mp4	0.0	342.09557819366455	0.10000467300415039
77	322.9566764831543	fix_pre	0		120	75.0	2.5	/experiments/Knapen_AOT/AOT_stimuli/rescaled_final/0267_fw.mp4	0.0	342.1955828666687	1.0084893703460693
77	323.96516585350037	movie	1		285	75.0	2.5	/experiments/Knapen_AOT/AOT_stimuli/rescaled_final/0267_fw.mp4	0.0	343.20407223701477	2.4920997619628906
77	324.3394606113434	pulse	1	t		75.0	2.5	/experiments/Knapen_AOT/AOT_stimuli/rescaled_final/0267_fw.mp4	0.0	343.5783669948578	
77	325.93888115882874	pulse	1	t		75.0	2.5	/experiments/Knapen_AOT/AOT_stimuli/rescaled_final/0267_fw.mp4	0.0	345.17778754234314	
77	326.45726561546326	fix_post	2		12	75.0	2.5	/experiments/Knapen_AOT/AOT_stimuli/rescaled_final/0267_fw.mp4	0.0	345.69617199897766	0.10000967979431152
78	326.55727529525757	fix_pre	0		119	76.0	2.5	blank	1.0	345.796181678772	0.991703987121582
78	327.54089879989624	pulse	0	t		76.0	2.5	blank	1.0	346.77980518341064	
78	327.54897928237915	movie	1		301	76.0	2.5	blank	1.0	346.78788566589355	2.5087640285491943
78	329.14120531082153	pulse	1	t		76.0	2.5	blank	1.0	348.38011169433594	
78	330.05774331092834	fix_post	2		12	76.0	2.5	blank	1.0	349.29664969444275	0.10005903244018555
79	330.15780234336853	fix_pre	0		120	77.0	2.5	/experiments/Knapen_AOT/AOT_stimuli/rescaled_final/0295_fw.mp4	0.0	349.39670872688293	1.008500576019287
79	330.74142479896545	pulse	0	t		77.0	2.5	/experiments/Knapen_AOT/AOT_stimuli/rescaled_final/0295_fw.mp4	0.0	349.98033118247986	
79	331.1663029193878	movie	1		276	77.0	2.5	/experiments/Knapen_AOT/AOT_stimuli/rescaled_final/0295_fw.mp4	0.0	350.4052093029022	2.492079734802246
79	332.34016251564026	pulse	1	t		77.0	2.5	/experiments/Knapen_AOT/AOT_stimuli/rescaled_final/0295_fw.mp4	0.0	351.57906889915466	
79	333.65838265419006	fix_post	2		12	77.0	2.5	/experiments/Knapen_AOT/AOT_stimuli/rescaled_final/0295_fw.mp4	0.0	352.89728903770447	0.09995913505554199
80	333.7583417892456	fix_pre	0		120	78.0	2.5	/experiments/Knapen_AOT/AOT_stimuli/rescaled_final/1612_fw.mp4	0.0	352.99724817276	1.0084638595581055
80	333.94192123413086	pulse	0	t		78.0	2.5	/experiments/Knapen_AOT/AOT_stimuli/rescaled_final/1612_fw.mp4	0.0	353.18082761764526	
80	334.7668056488037	movie	1		286	78.0	2.5	/experiments/Knapen_AOT/AOT_stimuli/rescaled_final/1612_fw.mp4	0.0	354.0057120323181	2.492022752761841
80	335.54019260406494	pulse	1	t		78.0	2.5	/experiments/Knapen_AOT/AOT_stimuli/rescaled_final/1612_fw.mp4	0.0	354.77909898757935	
80	337.1406092643738	pulse	1	t		78.0	2.5	/experiments/Knapen_AOT/AOT_stimuli/rescaled_final/1612_fw.mp4	0.0	356.3795156478882	
80	337.25882840156555	fix_post	2		12	78.0	2.5	/experiments/Knapen_AOT/AOT_stimuli/rescaled_final/1612_fw.mp4	0.0	356.49773478507996	0.10001826286315918
81	337.3588466644287	fix_pre	0		120	79.0	2.5	/experiments/Knapen_AOT/AOT_stimuli/rescaled_final/1968_fw.mp4	0.0	356.5977530479431	1.008502721786499
81	338.3673493862152	movie	1		265	79.0	2.5	/experiments/Knapen_AOT/AOT_stimuli/rescaled_final/1968_fw.mp4	0.0	357.6062557697296	2.492107391357422
81	338.7433121204376	pulse	1	t		79.0	2.5	/experiments/Knapen_AOT/AOT_stimuli/rescaled_final/1968_fw.mp4	0.0	357.982218503952	
81	340.33489894866943	pulse	1	t		79.0	2.5	/experiments/Knapen_AOT/AOT_stimuli/rescaled_final/1968_fw.mp4	0.0	359.57380533218384	
81	340.85945677757263	fix_post	2		12	79.0	2.5	/experiments/Knapen_AOT/AOT_stimuli/rescaled_final/1968_fw.mp4	0.0	360.09836316108704	0.10001897811889648
82	340.9594757556915	fix_pre	0		118	80.0	2.5	/experiments/Knapen_AOT/AOT_stimuli/rescaled_final/2151_fw.mp4	0.0	360.19838213920593	0.9918341636657715
82	341.9352307319641	pulse	0	t		80.0	2.5	/experiments/Knapen_AOT/AOT_stimuli/rescaled_final/2151_fw.mp4	0.0	361.1741371154785	
82	341.9513099193573	movie	1		267	80.0	2.5	/experiments/Knapen_AOT/AOT_stimuli/rescaled_final/2151_fw.mp4	0.0	361.1902163028717	2.5002660751342773
82	343.53514647483826	pulse	1	t		80.0	2.5	/experiments/Knapen_AOT/AOT_stimuli/rescaled_final/2151_fw.mp4	0.0	362.77405285835266	
82	344.4515759944916	fix_post	2		12	80.0	2.5	/experiments/Knapen_AOT/AOT_stimuli/rescaled_final/2151_fw.mp4	0.0	363.690482378006	0.10001230239868164
83	344.55158829689026	fix_pre	0		120	81.0	2.5	/experiments/Knapen_AOT/AOT_stimuli/rescaled_final/0727_fw.mp4	0.0	363.79049468040466	1.0085222721099854
83	345.1355152130127	pulse	0	t		81.0	2.5	/experiments/Knapen_AOT/AOT_stimuli/rescaled_final/0727_fw.mp4	0.0	364.3744215965271	
83	345.56011056900024	movie	1		274	81.0	2.5	/experiments/Knapen_AOT/AOT_stimuli/rescaled_final/0727_fw.mp4	0.0	364.79901695251465	2.492003917694092
83	346.7355456352234	pulse	1	t		81.0	2.5	/experiments/Knapen_AOT/AOT_stimuli/rescaled_final/0727_fw.mp4	0.0	365.9744520187378	
83	348.05211448669434	fix_post	2		12	81.0	2.5	/experiments/Knapen_AOT/AOT_stimuli/rescaled_final/0727_fw.mp4	0.0	367.29102087020874	0.10004258155822754
84	348.15215706825256	fix_pre	0		120	82.0	2.5	/experiments/Knapen_AOT/AOT_stimuli/rescaled_final/0715_rv.mp4	0.0	367.39106345176697	1.0085220336914062
84	348.3359076976776	pulse	0	t		82.0	2.5	/experiments/Knapen_AOT/AOT_stimuli/rescaled_final/0715_rv.mp4	0.0	367.574814081192	
84	349.16067910194397	movie	1		267	82.0	2.5	/experiments/Knapen_AOT/AOT_stimuli/rescaled_final/0715_rv.mp4	0.0	368.3995854854584	2.492013692855835
84	349.93517327308655	pulse	1	t		82.0	2.5	/experiments/Knapen_AOT/AOT_stimuli/rescaled_final/0715_rv.mp4	0.0	369.17407965660095	
84	351.5362868309021	pulse	1	t		82.0	2.5	/experiments/Knapen_AOT/AOT_stimuli/rescaled_final/0715_rv.mp4	0.0	370.7751932144165	
84	351.6526927947998	fix_post	2		12	82.0	2.5	/experiments/Knapen_AOT/AOT_stimuli/rescaled_final/0715_rv.mp4	0.0	370.8915991783142	0.09997296333312988
85	351.75266575813293	fix_pre	0		120	83.0	2.5	blank	1.0	370.99157214164734	1.0001986026763916
85	352.7528643608093	movie	1		300	83.0	2.5	blank	1.0	371.99177074432373	2.5003490447998047
85	353.1364483833313	pulse	1	t		83.0	2.5	blank	1.0	372.3753547668457	
85	354.7367625236511	pulse	1	t		83.0	2.5	blank	1.0	373.9756689071655	
85	355.25321340560913	fix_post	2		12	83.0	2.5	blank	1.0	374.49211978912354	0.12502837181091309
87	355.37824177742004	stim	0		1713					374.61714816093445	14.277125358581543
87	356.33723735809326	pulse	0	t						375.57614374160767	
87	357.93715739250183	pulse	0	t						377.17606377601624	
87	359.5373549461365	pulse	0	t						378.7762613296509	
87	361.1376407146454	pulse	0	t						380.3765470981598	
87	362.73798298835754	pulse	0	t						381.97688937187195	
87	364.33812952041626	pulse	0	t						383.57703590393066	
87	365.93843698501587	pulse	0	t						385.1773433685303	
87	367.53862380981445	pulse	0	t						386.77753019332886	
87	369.13883924484253	pulse	0	t						388.37774562835693	
