trial_nr	onset	event_type	phase	response	nr_frames	movie_index	movie_duration	movie_file	blank	onset_abs	duration
0	0.2084050178527832	stim	0		85					22.453271865844727	0.7083480358123779
0	0.9085681438446045	response	0	space						23.153434991836548	
1	0.9167530536651611	stim	0		9787					23.161619901657104	81.58155608177185
1	82.4881579875946	pulse	0	t						104.73302483558655	
1	82.49830913543701	stim	1		1715					104.74317598342896	14.299386978149414
1	84.0793719291687	pulse	1	t						106.32423877716064	
1	85.67952513694763	pulse	1	t						107.92439198493958	
1	87.27988195419312	pulse	1	t						109.52474880218506	
1	88.88020014762878	pulse	1	t						111.12506699562073	
1	90.48033094406128	pulse	1	t						112.72519779205322	
1	92.08046698570251	pulse	1	t						114.32533383369446	
1	93.68072509765625	pulse	1	t						115.9255919456482	
1	95.28105306625366	pulse	1	t						117.5259199142456	
2	96.79769611358643	fix_pre	0		11	0.0	2.5	/experiments/knapen_AOT/AOT_stimuli/rescaled_final/1923_fw.mp4	0.0	119.04256296157837	0.09167194366455078
2	96.88138914108276	pulse	0	t		0.0	2.5	/experiments/knapen_AOT/AOT_stimuli/rescaled_final/1923_fw.mp4	0.0	119.1262559890747	
2	96.88936805725098	movie	1		245	0.0	2.5	/experiments/knapen_AOT/AOT_stimuli/rescaled_final/1923_fw.mp4	0.0	119.13423490524292	2.508723020553589
2	98.48198103904724	pulse	1	t		0.0	2.5	/experiments/knapen_AOT/AOT_stimuli/rescaled_final/1923_fw.mp4	0.0	120.72684788703918	
2	99.39809107780457	fix_post	2		12	0.0	2.5	/experiments/knapen_AOT/AOT_stimuli/rescaled_final/1923_fw.mp4	0.0	121.64295792579651	0.10001587867736816
3	99.49810695648193	fix_pre	0		120	1.0	2.5	/experiments/knapen_AOT/AOT_stimuli/rescaled_final/1582_fw.mp4	0.0	121.74297380447388	1.000171184539795
3	100.08167695999146	pulse	0	t		1.0	2.5	/experiments/knapen_AOT/AOT_stimuli/rescaled_final/1582_fw.mp4	0.0	122.3265438079834	
3	100.49827814102173	movie	1		243	1.0	2.5	/experiments/knapen_AOT/AOT_stimuli/rescaled_final/1582_fw.mp4	0.0	122.74314498901367	2.50034499168396
3	101.68221092224121	pulse	1	t		1.0	2.5	/experiments/knapen_AOT/AOT_stimuli/rescaled_final/1582_fw.mp4	0.0	123.92707777023315	
3	102.99862313270569	fix_post	2		12	1.0	2.5	/experiments/knapen_AOT/AOT_stimuli/rescaled_final/1582_fw.mp4	0.0	125.24348998069763	0.10007596015930176
4	103.09869909286499	fix_pre	0		120	2.0	2.5	/experiments/knapen_AOT/AOT_stimuli/rescaled_final/0334_fw.mp4	0.0	125.34356594085693	1.0001099109649658
4	103.28239607810974	pulse	0	t		2.0	2.5	/experiments/knapen_AOT/AOT_stimuli/rescaled_final/0334_fw.mp4	0.0	125.52726292610168	
4	104.09880900382996	movie	1		244	2.0	2.5	/experiments/knapen_AOT/AOT_stimuli/rescaled_final/0334_fw.mp4	0.0	126.3436758518219	2.5003960132598877
4	104.8825249671936	pulse	1	t		2.0	2.5	/experiments/knapen_AOT/AOT_stimuli/rescaled_final/0334_fw.mp4	0.0	127.12739181518555	
4	106.48029899597168	pulse	1	t		2.0	2.5	/experiments/knapen_AOT/AOT_stimuli/rescaled_final/0334_fw.mp4	0.0	128.72516584396362	
4	106.59920501708984	fix_post	2		12	2.0	2.5	/experiments/knapen_AOT/AOT_stimuli/rescaled_final/0334_fw.mp4	0.0	128.8440718650818	0.10002303123474121
5	106.69922804832458	fix_pre	0		120	3.0	2.5	/experiments/knapen_AOT/AOT_stimuli/rescaled_final/1816_rv.mp4	0.0	128.94409489631653	1.0001070499420166
5	107.6993350982666	movie	1		243	3.0	2.5	/experiments/knapen_AOT/AOT_stimuli/rescaled_final/1816_rv.mp4	0.0	129.94420194625854	2.4920008182525635
5	108.08764100074768	pulse	1	t		3.0	2.5	/experiments/knapen_AOT/AOT_stimuli/rescaled_final/1816_rv.mp4	0.0	130.33250784873962	
5	109.68328404426575	pulse	1	t		3.0	2.5	/experiments/knapen_AOT/AOT_stimuli/rescaled_final/1816_rv.mp4	0.0	131.9281508922577	
5	110.19133591651917	fix_post	2		12	3.0	2.5	/experiments/knapen_AOT/AOT_stimuli/rescaled_final/1816_rv.mp4	0.0	132.4362027645111	0.10004401206970215
6	110.29137992858887	fix_pre	0		120	4.0	2.5	/experiments/knapen_AOT/AOT_stimuli/rescaled_final/1059_rv.mp4	0.0	132.5362467765808	1.0001540184020996
6	111.28350591659546	pulse	0	t		4.0	2.5	/experiments/knapen_AOT/AOT_stimuli/rescaled_final/1059_rv.mp4	0.0	133.5283727645874	
6	111.29153394699097	movie	1		244	4.0	2.5	/experiments/knapen_AOT/AOT_stimuli/rescaled_final/1059_rv.mp4	0.0	133.5364007949829	2.508709192276001
6	112.88423299789429	pulse	1	t		4.0	2.5	/experiments/knapen_AOT/AOT_stimuli/rescaled_final/1059_rv.mp4	0.0	135.12909984588623	
6	113.80024313926697	fix_post	2		12	4.0	2.5	/experiments/knapen_AOT/AOT_stimuli/rescaled_final/1059_rv.mp4	0.0	136.0451099872589	0.10003185272216797
7	113.90027499198914	fix_pre	0		120	5.0	2.5	/experiments/knapen_AOT/AOT_stimuli/rescaled_final/1088_rv.mp4	0.0	136.14514183998108	1.0001249313354492
7	114.48388910293579	pulse	0	t		5.0	2.5	/experiments/knapen_AOT/AOT_stimuli/rescaled_final/1088_rv.mp4	0.0	136.72875595092773	
7	114.90039992332458	movie	1		245	5.0	2.5	/experiments/knapen_AOT/AOT_stimuli/rescaled_final/1088_rv.mp4	0.0	137.14526677131653	2.5003740787506104
7	116.08422708511353	pulse	1	t		5.0	2.5	/experiments/knapen_AOT/AOT_stimuli/rescaled_final/1088_rv.mp4	0.0	138.32909393310547	
7	117.4007740020752	fix_post	2		12	5.0	2.5	/experiments/knapen_AOT/AOT_stimuli/rescaled_final/1088_rv.mp4	0.0	139.64564085006714	0.09996199607849121
8	117.50073599815369	fix_pre	0		120	6.0	2.5	/experiments/knapen_AOT/AOT_stimuli/rescaled_final/0067_rv.mp4	0.0	139.74560284614563	1.0001990795135498
8	117.68452405929565	pulse	0	t		6.0	2.5	/experiments/knapen_AOT/AOT_stimuli/rescaled_final/0067_rv.mp4	0.0	139.9293909072876	
8	118.50093507766724	movie	1		245	6.0	2.5	/experiments/knapen_AOT/AOT_stimuli/rescaled_final/0067_rv.mp4	0.0	140.74580192565918	2.5003750324249268
8	119.27738904953003	pulse	1	t		6.0	2.5	/experiments/knapen_AOT/AOT_stimuli/rescaled_final/0067_rv.mp4	0.0	141.52225589752197	
8	120.8823471069336	pulse	1	t		6.0	2.5	/experiments/knapen_AOT/AOT_stimuli/rescaled_final/0067_rv.mp4	0.0	143.12721395492554	
8	121.00131011009216	fix_post	2		12	6.0	2.5	/experiments/knapen_AOT/AOT_stimuli/rescaled_final/0067_rv.mp4	0.0	143.2461769580841	0.10000991821289062
9	121.10132002830505	fix_pre	0		120	7.0	2.5	blank	1.0	143.346186876297	1.0001909732818604
9	122.10151100158691	movie	1		299	7.0	2.5	blank	1.0	144.34637784957886	2.492035150527954
9	122.4775710105896	pulse	1	t		7.0	2.5	blank	1.0	144.72243785858154	
9	124.07782101631165	pulse	1	t		7.0	2.5	blank	1.0	146.3226878643036	
9	124.59354615211487	fix_post	2		12	7.0	2.5	blank	1.0	146.8384130001068	0.0999917984008789
10	124.69353795051575	fix_pre	0		119	8.0	2.5	/experiments/knapen_AOT/AOT_stimuli/rescaled_final/0576_fw.mp4	0.0	146.9384047985077	0.9918041229248047
10	125.6773419380188	pulse	0	t		8.0	2.5	/experiments/knapen_AOT/AOT_stimuli/rescaled_final/0576_fw.mp4	0.0	147.92220878601074	
10	125.68534207344055	movie	1		246	8.0	2.5	/experiments/knapen_AOT/AOT_stimuli/rescaled_final/0576_fw.mp4	0.0	147.9302089214325	2.5088279247283936
10	127.27808499336243	pulse	1	t		8.0	2.5	/experiments/knapen_AOT/AOT_stimuli/rescaled_final/0576_fw.mp4	0.0	149.52295184135437	
10	128.19416999816895	fix_post	2		12	8.0	2.5	/experiments/knapen_AOT/AOT_stimuli/rescaled_final/0576_fw.mp4	0.0	150.4390368461609	0.09991812705993652
11	128.29408812522888	fix_pre	0		120	9.0	2.5	/experiments/knapen_AOT/AOT_stimuli/rescaled_final/0699_rv.mp4	0.0	150.53895497322083	1.000154972076416
11	128.87764191627502	pulse	0	t		9.0	2.5	/experiments/knapen_AOT/AOT_stimuli/rescaled_final/0699_rv.mp4	0.0	151.12250876426697	
11	129.2942430973053	movie	1		244	9.0	2.5	/experiments/knapen_AOT/AOT_stimuli/rescaled_final/0699_rv.mp4	0.0	151.53910994529724	2.500393867492676
11	130.47799801826477	pulse	1	t		9.0	2.5	/experiments/knapen_AOT/AOT_stimuli/rescaled_final/0699_rv.mp4	0.0	152.7228648662567	
11	131.79463696479797	fix_post	2		12	9.0	2.5	/experiments/knapen_AOT/AOT_stimuli/rescaled_final/0699_rv.mp4	0.0	154.03950381278992	0.0999610424041748
12	131.89459800720215	fix_pre	0		120	10.0	2.5	/experiments/knapen_AOT/AOT_stimuli/rescaled_final/1709_fw.mp4	0.0	154.1394648551941	1.0001530647277832
12	132.07815599441528	pulse	0	t		10.0	2.5	/experiments/knapen_AOT/AOT_stimuli/rescaled_final/1709_fw.mp4	0.0	154.32302284240723	
12	132.89475107192993	movie	1		242	10.0	2.5	/experiments/knapen_AOT/AOT_stimuli/rescaled_final/1709_fw.mp4	0.0	155.13961791992188	2.5005459785461426
12	133.678484916687	pulse	1	t		10.0	2.5	/experiments/knapen_AOT/AOT_stimuli/rescaled_final/1709_fw.mp4	0.0	155.92335176467896	
12	135.27927708625793	pulse	1	t		10.0	2.5	/experiments/knapen_AOT/AOT_stimuli/rescaled_final/1709_fw.mp4	0.0	157.52414393424988	
12	135.39529705047607	fix_post	2		12	10.0	2.5	/experiments/knapen_AOT/AOT_stimuli/rescaled_final/1709_fw.mp4	0.0	157.64016389846802	0.09985899925231934
13	135.4951560497284	fix_pre	0		120	11.0	2.5	/experiments/knapen_AOT/AOT_stimuli/rescaled_final/0785_fw.mp4	0.0	157.74002289772034	1.0008559226989746
13	136.49601197242737	movie	1		239	11.0	2.5	/experiments/knapen_AOT/AOT_stimuli/rescaled_final/0785_fw.mp4	0.0	158.7408788204193	2.491328001022339
13	136.87951397895813	pulse	1	t		11.0	2.5	/experiments/knapen_AOT/AOT_stimuli/rescaled_final/0785_fw.mp4	0.0	159.12438082695007	
13	138.47912192344666	pulse	1	t		11.0	2.5	/experiments/knapen_AOT/AOT_stimuli/rescaled_final/0785_fw.mp4	0.0	160.7239887714386	
13	138.9873399734497	fix_post	2		12	11.0	2.5	/experiments/knapen_AOT/AOT_stimuli/rescaled_final/0785_fw.mp4	0.0	161.23220682144165	0.10000300407409668
14	139.0873429775238	fix_pre	0		120	12.0	2.5	/experiments/knapen_AOT/AOT_stimuli/rescaled_final/0303_rv.mp4	0.0	161.33220982551575	1.0001511573791504
14	140.07946610450745	pulse	0	t		12.0	2.5	/experiments/knapen_AOT/AOT_stimuli/rescaled_final/0303_rv.mp4	0.0	162.3243329524994	
14	140.08749413490295	movie	1		244	12.0	2.5	/experiments/knapen_AOT/AOT_stimuli/rescaled_final/0303_rv.mp4	0.0	162.3323609828949	2.508720874786377
14	141.68010807037354	pulse	1	t		12.0	2.5	/experiments/knapen_AOT/AOT_stimuli/rescaled_final/0303_rv.mp4	0.0	163.92497491836548	
14	142.59621500968933	fix_post	2		12	12.0	2.5	/experiments/knapen_AOT/AOT_stimuli/rescaled_final/0303_rv.mp4	0.0	164.84108185768127	0.1000211238861084
15	142.69623613357544	fix_pre	0		120	13.0	2.5	blank	1.0	164.94110298156738	1.0001499652862549
15	143.2799141407013	pulse	0	t		13.0	2.5	blank	1.0	165.52478098869324	
15	143.6963860988617	movie	1		300	13.0	2.5	blank	1.0	165.94125294685364	2.500380039215088
15	144.8801190853119	pulse	1	t		13.0	2.5	blank	1.0	167.12498593330383	
15	146.19676613807678	fix_post	2		12	13.0	2.5	blank	1.0	168.44163298606873	0.09999990463256836
16	146.29676604270935	fix_pre	0		120	14.0	2.5	/experiments/knapen_AOT/AOT_stimuli/rescaled_final/0334_rv.mp4	0.0	168.5416328907013	1.0001029968261719
16	146.48028206825256	pulse	0	t		14.0	2.5	/experiments/knapen_AOT/AOT_stimuli/rescaled_final/0334_rv.mp4	0.0	168.7251489162445	
16	147.29686903953552	movie	1		245	14.0	2.5	/experiments/knapen_AOT/AOT_stimuli/rescaled_final/0334_rv.mp4	0.0	169.54173588752747	2.500399112701416
16	148.0805959701538	pulse	1	t		14.0	2.5	/experiments/knapen_AOT/AOT_stimuli/rescaled_final/0334_rv.mp4	0.0	170.32546281814575	
16	149.67860007286072	pulse	1	t		14.0	2.5	/experiments/knapen_AOT/AOT_stimuli/rescaled_final/0334_rv.mp4	0.0	171.92346692085266	
16	149.79726815223694	fix_post	2		12	14.0	2.5	/experiments/knapen_AOT/AOT_stimuli/rescaled_final/0334_rv.mp4	0.0	172.04213500022888	0.10003399848937988
17	149.89730215072632	fix_pre	0		120	15.0	2.5	/experiments/knapen_AOT/AOT_stimuli/rescaled_final/0520_rv.mp4	0.0	172.14216899871826	1.0001509189605713
17	150.8974530696869	movie	1		243	15.0	2.5	/experiments/knapen_AOT/AOT_stimuli/rescaled_final/0520_rv.mp4	0.0	173.14231991767883	2.4920308589935303
17	151.28140091896057	pulse	1	t		15.0	2.5	/experiments/knapen_AOT/AOT_stimuli/rescaled_final/0520_rv.mp4	0.0	173.52626776695251	
17	152.8812599182129	pulse	1	t		15.0	2.5	/experiments/knapen_AOT/AOT_stimuli/rescaled_final/0520_rv.mp4	0.0	175.12612676620483	
17	153.38948392868042	fix_post	2		12	15.0	2.5	/experiments/knapen_AOT/AOT_stimuli/rescaled_final/0520_rv.mp4	0.0	175.63435077667236	0.10000014305114746
18	153.48948407173157	fix_pre	0		120	16.0	2.5	/experiments/knapen_AOT/AOT_stimuli/rescaled_final/2005_fw.mp4	0.0	175.7343509197235	1.0001840591430664
18	154.4815490245819	pulse	0	t		16.0	2.5	/experiments/knapen_AOT/AOT_stimuli/rescaled_final/2005_fw.mp4	0.0	176.72641587257385	
18	154.48966813087463	movie	1		250	16.0	2.5	/experiments/knapen_AOT/AOT_stimuli/rescaled_final/2005_fw.mp4	0.0	176.73453497886658	2.5086870193481445
18	156.0824019908905	pulse	1	t		16.0	2.5	/experiments/knapen_AOT/AOT_stimuli/rescaled_final/2005_fw.mp4	0.0	178.32726883888245	
18	156.99835515022278	fix_post	2		12	16.0	2.5	/experiments/knapen_AOT/AOT_stimuli/rescaled_final/2005_fw.mp4	0.0	179.24322199821472	0.09999394416809082
19	157.09834909439087	fix_pre	0		120	17.0	2.5	/experiments/knapen_AOT/AOT_stimuli/rescaled_final/2126_rv.mp4	0.0	179.3432159423828	1.000208854675293
19	157.68211102485657	pulse	0	t		17.0	2.5	/experiments/knapen_AOT/AOT_stimuli/rescaled_final/2126_rv.mp4	0.0	179.9269778728485	
19	158.09855794906616	movie	1		243	17.0	2.5	/experiments/knapen_AOT/AOT_stimuli/rescaled_final/2126_rv.mp4	0.0	180.3434247970581	2.5003089904785156
19	159.28237414360046	pulse	1	t		17.0	2.5	/experiments/knapen_AOT/AOT_stimuli/rescaled_final/2126_rv.mp4	0.0	181.5272409915924	
19	160.59886693954468	fix_post	2		12	17.0	2.5	/experiments/knapen_AOT/AOT_stimuli/rescaled_final/2126_rv.mp4	0.0	182.84373378753662	0.10012412071228027
20	160.69899106025696	fix_pre	0		120	18.0	2.5	/experiments/knapen_AOT/AOT_stimuli/rescaled_final/0752_rv.mp4	0.0	182.9438579082489	1.0000779628753662
20	160.88245701789856	pulse	0	t		18.0	2.5	/experiments/knapen_AOT/AOT_stimuli/rescaled_final/0752_rv.mp4	0.0	183.1273238658905	
20	161.69906902313232	movie	1		245	18.0	2.5	/experiments/knapen_AOT/AOT_stimuli/rescaled_final/0752_rv.mp4	0.0	183.94393587112427	2.500333070755005
20	162.48268795013428	pulse	1	t		18.0	2.5	/experiments/knapen_AOT/AOT_stimuli/rescaled_final/0752_rv.mp4	0.0	184.72755479812622	
20	164.08054399490356	pulse	1	t		18.0	2.5	/experiments/knapen_AOT/AOT_stimuli/rescaled_final/0752_rv.mp4	0.0	186.3254108428955	
20	164.19940209388733	fix_post	2		12	18.0	2.5	/experiments/knapen_AOT/AOT_stimuli/rescaled_final/0752_rv.mp4	0.0	186.44426894187927	0.10003304481506348
21	164.2994351387024	fix_pre	0		119	19.0	2.5	/experiments/knapen_AOT/AOT_stimuli/rescaled_final/0485_rv.mp4	0.0	186.54430198669434	0.9918158054351807
21	165.29125094413757	movie	1		244	19.0	2.5	/experiments/knapen_AOT/AOT_stimuli/rescaled_final/0485_rv.mp4	0.0	187.53611779212952	2.500336170196533
21	165.68339610099792	pulse	1	t		19.0	2.5	/experiments/knapen_AOT/AOT_stimuli/rescaled_final/0485_rv.mp4	0.0	187.92826294898987	
21	167.28343892097473	pulse	1	t		19.0	2.5	/experiments/knapen_AOT/AOT_stimuli/rescaled_final/0485_rv.mp4	0.0	189.52830576896667	
21	167.7915871143341	fix_post	2		12	19.0	2.5	/experiments/knapen_AOT/AOT_stimuli/rescaled_final/0485_rv.mp4	0.0	190.03645396232605	0.10013198852539062
22	167.8917191028595	fix_pre	0		120	20.0	2.5	blank	1.0	190.13658595085144	1.0000829696655273
22	168.88360595703125	pulse	0	t		20.0	2.5	blank	1.0	191.1284728050232	
22	168.89180207252502	movie	1		301	20.0	2.5	blank	1.0	191.13666892051697	2.508707046508789
22	170.48389601707458	pulse	1	t		20.0	2.5	blank	1.0	192.72876286506653	
22	171.4005091190338	fix_post	2		12	20.0	2.5	blank	1.0	193.64537596702576	0.0999917984008789
23	171.5005009174347	fix_pre	0		120	21.0	2.5	/experiments/knapen_AOT/AOT_stimuli/rescaled_final/0444_fw.mp4	0.0	193.74536776542664	1.0001440048217773
23	172.08424711227417	pulse	0	t		21.0	2.5	/experiments/knapen_AOT/AOT_stimuli/rescaled_final/0444_fw.mp4	0.0	194.3291139602661	
23	172.50064492225647	movie	1		243	21.0	2.5	/experiments/knapen_AOT/AOT_stimuli/rescaled_final/0444_fw.mp4	0.0	194.7455117702484	2.5003960132598877
23	173.6844220161438	pulse	1	t		21.0	2.5	/experiments/knapen_AOT/AOT_stimuli/rescaled_final/0444_fw.mp4	0.0	195.92928886413574	
23	175.00104093551636	fix_post	2		12	21.0	2.5	/experiments/knapen_AOT/AOT_stimuli/rescaled_final/0444_fw.mp4	0.0	197.2459077835083	0.1000220775604248
24	175.10106301307678	fix_pre	0		120	22.0	2.5	/experiments/knapen_AOT/AOT_stimuli/rescaled_final/0591_rv.mp4	0.0	197.34592986106873	1.0001280307769775
24	175.28458905220032	pulse	0	t		22.0	2.5	/experiments/knapen_AOT/AOT_stimuli/rescaled_final/0591_rv.mp4	0.0	197.52945590019226	
24	176.10119104385376	movie	1		243	22.0	2.5	/experiments/knapen_AOT/AOT_stimuli/rescaled_final/0591_rv.mp4	0.0	198.3460578918457	2.50040602684021
24	176.88482809066772	pulse	1	t		22.0	2.5	/experiments/knapen_AOT/AOT_stimuli/rescaled_final/0591_rv.mp4	0.0	199.12969493865967	
24	178.4848849773407	pulse	1	t		22.0	2.5	/experiments/knapen_AOT/AOT_stimuli/rescaled_final/0591_rv.mp4	0.0	200.72975182533264	
24	178.60159707069397	fix_post	2		12	22.0	2.5	/experiments/knapen_AOT/AOT_stimuli/rescaled_final/0591_rv.mp4	0.0	200.8464639186859	0.09997200965881348
25	178.70156908035278	fix_pre	0		119	23.0	2.5	/experiments/knapen_AOT/AOT_stimuli/rescaled_final/1626_rv.mp4	0.0	200.94643592834473	0.991826057434082
25	179.69339513778687	movie	1		244	23.0	2.5	/experiments/knapen_AOT/AOT_stimuli/rescaled_final/1626_rv.mp4	0.0	201.9382619857788	2.5003747940063477
25	180.0855369567871	pulse	1	t		23.0	2.5	/experiments/knapen_AOT/AOT_stimuli/rescaled_final/1626_rv.mp4	0.0	202.33040380477905	
25	181.6783950328827	pulse	1	t		23.0	2.5	/experiments/knapen_AOT/AOT_stimuli/rescaled_final/1626_rv.mp4	0.0	203.92326188087463	
25	182.1937699317932	fix_post	2		12	23.0	2.5	/experiments/knapen_AOT/AOT_stimuli/rescaled_final/1626_rv.mp4	0.0	204.43863677978516	0.09999418258666992
26	182.29376411437988	fix_pre	0		120	24.0	2.5	/experiments/knapen_AOT/AOT_stimuli/rescaled_final/0976_fw.mp4	0.0	204.53863096237183	1.0001749992370605
26	183.2783751487732	pulse	0	t		24.0	2.5	/experiments/knapen_AOT/AOT_stimuli/rescaled_final/0976_fw.mp4	0.0	205.52324199676514	
26	183.29393911361694	movie	1		246	24.0	2.5	/experiments/knapen_AOT/AOT_stimuli/rescaled_final/0976_fw.mp4	0.0	205.5388059616089	2.5086989402770996
26	184.88635301589966	pulse	1	t		24.0	2.5	/experiments/knapen_AOT/AOT_stimuli/rescaled_final/0976_fw.mp4	0.0	207.1312198638916	
26	185.80263805389404	fix_post	2		12	24.0	2.5	/experiments/knapen_AOT/AOT_stimuli/rescaled_final/0976_fw.mp4	0.0	208.047504901886	0.1000359058380127
27	185.90267395973206	fix_pre	0		120	25.0	2.5	/experiments/knapen_AOT/AOT_stimuli/rescaled_final/1422_rv.mp4	0.0	208.147540807724	1.000128984451294
27	186.47873711585999	pulse	0	t		25.0	2.5	/experiments/knapen_AOT/AOT_stimuli/rescaled_final/1422_rv.mp4	0.0	208.72360396385193	
27	186.90280294418335	movie	1		245	25.0	2.5	/experiments/knapen_AOT/AOT_stimuli/rescaled_final/1422_rv.mp4	0.0	209.1476697921753	2.500361204147339
27	188.07854104042053	pulse	1	t		25.0	2.5	/experiments/knapen_AOT/AOT_stimuli/rescaled_final/1422_rv.mp4	0.0	210.32340788841248	
27	189.4031641483307	fix_post	2		12	25.0	2.5	/experiments/knapen_AOT/AOT_stimuli/rescaled_final/1422_rv.mp4	0.0	211.64803099632263	0.1000528335571289
28	189.50321698188782	fix_pre	0		120	26.0	2.5	/experiments/knapen_AOT/AOT_stimuli/rescaled_final/1923_rv.mp4	0.0	211.74808382987976	1.0001060962677002
28	189.67835211753845	pulse	0	t		26.0	2.5	/experiments/knapen_AOT/AOT_stimuli/rescaled_final/1923_rv.mp4	0.0	211.9232189655304	
28	190.50332307815552	movie	1		245	26.0	2.5	/experiments/knapen_AOT/AOT_stimuli/rescaled_final/1923_rv.mp4	0.0	212.74818992614746	2.492050886154175
28	191.27858114242554	pulse	1	t		26.0	2.5	/experiments/knapen_AOT/AOT_stimuli/rescaled_final/1923_rv.mp4	0.0	213.52344799041748	
28	192.8789279460907	pulse	1	t		26.0	2.5	/experiments/knapen_AOT/AOT_stimuli/rescaled_final/1923_rv.mp4	0.0	215.12379479408264	
28	192.9953739643097	fix_post	2		12	26.0	2.5	/experiments/knapen_AOT/AOT_stimuli/rescaled_final/1923_rv.mp4	0.0	215.24024081230164	0.10001516342163086
29	193.09538912773132	fix_pre	0		120	27.0	2.5	/experiments/knapen_AOT/AOT_stimuli/rescaled_final/2064_rv.mp4	0.0	215.34025597572327	1.0001709461212158
29	194.09556007385254	movie	1		240	27.0	2.5	/experiments/knapen_AOT/AOT_stimuli/rescaled_final/2064_rv.mp4	0.0	216.34042692184448	2.5003089904785156
29	194.479572057724	pulse	1	t		27.0	2.5	/experiments/knapen_AOT/AOT_stimuli/rescaled_final/2064_rv.mp4	0.0	216.72443890571594	
29	196.07940006256104	pulse	1	t		27.0	2.5	/experiments/knapen_AOT/AOT_stimuli/rescaled_final/2064_rv.mp4	0.0	218.32426691055298	
29	196.59586906433105	fix_post	2		12	27.0	2.5	/experiments/knapen_AOT/AOT_stimuli/rescaled_final/2064_rv.mp4	0.0	218.840735912323	0.10006093978881836
30	196.69593000411987	fix_pre	0		119	28.0	2.5	blank	1.0	218.94079685211182	0.991847038269043
30	197.6795530319214	pulse	0	t		28.0	2.5	blank	1.0	219.92441987991333	
30	197.68777704238892	movie	1		301	28.0	2.5	blank	1.0	219.93264389038086	2.508681058883667
30	199.27988600730896	pulse	1	t		28.0	2.5	blank	1.0	221.5247528553009	
30	200.19645810127258	fix_post	2		12	28.0	2.5	blank	1.0	222.44132494926453	0.10000491142272949
31	200.2964630126953	fix_pre	0		120	29.0	2.5	/experiments/knapen_AOT/AOT_stimuli/rescaled_final/0729_rv.mp4	0.0	222.54132986068726	1.0001749992370605
31	200.8801670074463	pulse	0	t		29.0	2.5	/experiments/knapen_AOT/AOT_stimuli/rescaled_final/0729_rv.mp4	0.0	223.12503385543823	
31	201.29663801193237	movie	1		243	29.0	2.5	/experiments/knapen_AOT/AOT_stimuli/rescaled_final/0729_rv.mp4	0.0	223.54150485992432	2.500335931777954
31	202.48053908348083	pulse	1	t		29.0	2.5	/experiments/knapen_AOT/AOT_stimuli/rescaled_final/0729_rv.mp4	0.0	224.72540593147278	
31	203.79697394371033	fix_post	2		12	29.0	2.5	/experiments/knapen_AOT/AOT_stimuli/rescaled_final/0729_rv.mp4	0.0	226.04184079170227	0.1000521183013916
32	203.89702606201172	fix_pre	0		120	30.0	2.5	/experiments/knapen_AOT/AOT_stimuli/rescaled_final/0566_rv.mp4	0.0	226.14189291000366	1.0001418590545654
32	204.08054304122925	pulse	0	t		30.0	2.5	/experiments/knapen_AOT/AOT_stimuli/rescaled_final/0566_rv.mp4	0.0	226.3254098892212	
32	204.89716792106628	movie	1		244	30.0	2.5	/experiments/knapen_AOT/AOT_stimuli/rescaled_final/0566_rv.mp4	0.0	227.14203476905823	2.5003321170806885
32	205.68081998825073	pulse	1	t		30.0	2.5	/experiments/knapen_AOT/AOT_stimuli/rescaled_final/0566_rv.mp4	0.0	227.92568683624268	
32	207.2810821533203	pulse	1	t		30.0	2.5	/experiments/knapen_AOT/AOT_stimuli/rescaled_final/0566_rv.mp4	0.0	229.52594900131226	
32	207.39750003814697	fix_post	2		12	30.0	2.5	/experiments/knapen_AOT/AOT_stimuli/rescaled_final/0566_rv.mp4	0.0	229.64236688613892	0.10006093978881836
33	207.4975609779358	fix_pre	0		119	31.0	2.5	/experiments/knapen_AOT/AOT_stimuli/rescaled_final/1627_fw.mp4	0.0	229.74242782592773	0.9918379783630371
33	208.48939895629883	movie	1		244	31.0	2.5	/experiments/knapen_AOT/AOT_stimuli/rescaled_final/1627_fw.mp4	0.0	230.73426580429077	2.5004611015319824
33	208.88145995140076	pulse	1	t		31.0	2.5	/experiments/knapen_AOT/AOT_stimuli/rescaled_final/1627_fw.mp4	0.0	231.1263267993927	
33	210.481605052948	pulse	1	t		31.0	2.5	/experiments/knapen_AOT/AOT_stimuli/rescaled_final/1627_fw.mp4	0.0	232.72647190093994	
33	210.9898600578308	fix_post	2		12	31.0	2.5	/experiments/knapen_AOT/AOT_stimuli/rescaled_final/1627_fw.mp4	0.0	233.23472690582275	0.09988093376159668
34	211.0897409915924	fix_pre	0		120	32.0	2.5	/experiments/knapen_AOT/AOT_stimuli/rescaled_final/2095_rv.mp4	0.0	233.33460783958435	1.0001499652862549
34	212.08174514770508	pulse	0	t		32.0	2.5	/experiments/knapen_AOT/AOT_stimuli/rescaled_final/2095_rv.mp4	0.0	234.32661199569702	
34	212.08989095687866	movie	1		246	32.0	2.5	/experiments/knapen_AOT/AOT_stimuli/rescaled_final/2095_rv.mp4	0.0	234.3347578048706	2.508679151535034
34	213.6828510761261	pulse	1	t		32.0	2.5	/experiments/knapen_AOT/AOT_stimuli/rescaled_final/2095_rv.mp4	0.0	235.92771792411804	
34	214.5985701084137	fix_post	2		12	32.0	2.5	/experiments/knapen_AOT/AOT_stimuli/rescaled_final/2095_rv.mp4	0.0	236.84343695640564	0.10004496574401855
35	214.69861507415771	fix_pre	0		120	33.0	2.5	/experiments/knapen_AOT/AOT_stimuli/rescaled_final/1101_rv.mp4	0.0	236.94348192214966	1.00016188621521
35	215.28238201141357	pulse	0	t		33.0	2.5	/experiments/knapen_AOT/AOT_stimuli/rescaled_final/1101_rv.mp4	0.0	237.52724885940552	
35	215.69877696037292	movie	1		243	33.0	2.5	/experiments/knapen_AOT/AOT_stimuli/rescaled_final/1101_rv.mp4	0.0	237.94364380836487	2.5003550052642822
35	216.88258004188538	pulse	1	t		33.0	2.5	/experiments/knapen_AOT/AOT_stimuli/rescaled_final/1101_rv.mp4	0.0	239.12744688987732	
35	218.1991319656372	fix_post	2		12	33.0	2.5	/experiments/knapen_AOT/AOT_stimuli/rescaled_final/1101_rv.mp4	0.0	240.44399881362915	0.10004210472106934
36	218.29917407035828	fix_pre	0		120	34.0	2.5	blank	1.0	240.54404091835022	1.0001499652862549
36	218.48272895812988	pulse	0	t		34.0	2.5	blank	1.0	240.72759580612183	
36	219.29932403564453	movie	1		300	34.0	2.5	blank	1.0	241.54419088363647	2.500364065170288
36	220.08296394348145	pulse	1	t		34.0	2.5	blank	1.0	242.3278307914734	
36	221.68314695358276	pulse	1	t		34.0	2.5	blank	1.0	243.9280138015747	
36	221.79968810081482	fix_post	2		12	34.0	2.5	blank	1.0	244.04455494880676	0.10000205039978027
37	221.8996901512146	fix_pre	0		120	35.0	2.5	/experiments/knapen_AOT/AOT_stimuli/rescaled_final/2063_rv.mp4	0.0	244.14455699920654	1.0001537799835205
37	222.89984393119812	movie	1		243	35.0	2.5	/experiments/knapen_AOT/AOT_stimuli/rescaled_final/2063_rv.mp4	0.0	245.14471077919006	2.4921951293945312
37	223.2840621471405	pulse	1	t		35.0	2.5	/experiments/knapen_AOT/AOT_stimuli/rescaled_final/2063_rv.mp4	0.0	245.52892899513245	
37	224.88365602493286	pulse	1	t		35.0	2.5	/experiments/knapen_AOT/AOT_stimuli/rescaled_final/2063_rv.mp4	0.0	247.1285228729248	
37	225.39203906059265	fix_post	2		12	35.0	2.5	/experiments/knapen_AOT/AOT_stimuli/rescaled_final/2063_rv.mp4	0.0	247.6369059085846	0.09983086585998535
38	225.49186992645264	fix_pre	0		120	36.0	2.5	/experiments/knapen_AOT/AOT_stimuli/rescaled_final/0783_rv.mp4	0.0	247.73673677444458	1.0001671314239502
38	226.48399710655212	pulse	0	t		36.0	2.5	/experiments/knapen_AOT/AOT_stimuli/rescaled_final/0783_rv.mp4	0.0	248.72886395454407	
38	226.4920370578766	movie	1		246	36.0	2.5	/experiments/knapen_AOT/AOT_stimuli/rescaled_final/0783_rv.mp4	0.0	248.73690390586853	2.508713960647583
38	228.08494400978088	pulse	1	t		36.0	2.5	/experiments/knapen_AOT/AOT_stimuli/rescaled_final/0783_rv.mp4	0.0	250.32981085777283	
38	229.00075101852417	fix_post	2		12	36.0	2.5	/experiments/knapen_AOT/AOT_stimuli/rescaled_final/0783_rv.mp4	0.0	251.2456178665161	0.10001492500305176
39	229.10076594352722	fix_pre	0		120	37.0	2.5	/experiments/knapen_AOT/AOT_stimuli/rescaled_final/1123_fw.mp4	0.0	251.34563279151917	1.0001401901245117
39	229.68446898460388	pulse	0	t		37.0	2.5	/experiments/knapen_AOT/AOT_stimuli/rescaled_final/1123_fw.mp4	0.0	251.92933583259583	
39	230.10090613365173	movie	1		245	37.0	2.5	/experiments/knapen_AOT/AOT_stimuli/rescaled_final/1123_fw.mp4	0.0	252.34577298164368	2.5003669261932373
39	231.28464102745056	pulse	1	t		37.0	2.5	/experiments/knapen_AOT/AOT_stimuli/rescaled_final/1123_fw.mp4	0.0	253.5295078754425	
39	232.60127305984497	fix_post	2		12	37.0	2.5	/experiments/knapen_AOT/AOT_stimuli/rescaled_final/1123_fw.mp4	0.0	254.8461399078369	0.10006308555603027
40	232.701336145401	fix_pre	0		120	38.0	2.5	/experiments/knapen_AOT/AOT_stimuli/rescaled_final/0012_rv.mp4	0.0	254.94620299339294	1.0001089572906494
40	232.88497114181519	pulse	0	t		38.0	2.5	/experiments/knapen_AOT/AOT_stimuli/rescaled_final/0012_rv.mp4	0.0	255.12983798980713	
40	233.70144510269165	movie	1		244	38.0	2.5	/experiments/knapen_AOT/AOT_stimuli/rescaled_final/0012_rv.mp4	0.0	255.9463119506836	2.5003879070281982
40	234.4777820110321	pulse	1	t		38.0	2.5	/experiments/knapen_AOT/AOT_stimuli/rescaled_final/0012_rv.mp4	0.0	256.72264885902405	
40	236.08525896072388	pulse	1	t		38.0	2.5	/experiments/knapen_AOT/AOT_stimuli/rescaled_final/0012_rv.mp4	0.0	258.3301258087158	
40	236.20183300971985	fix_post	2		12	38.0	2.5	/experiments/knapen_AOT/AOT_stimuli/rescaled_final/0012_rv.mp4	0.0	258.4466998577118	0.10000300407409668
41	236.30183601379395	fix_pre	0		120	39.0	2.5	/experiments/knapen_AOT/AOT_stimuli/rescaled_final/1627_fw.mp4	0.0	258.5467028617859	1.0001261234283447
41	237.3019621372223	movie	1		243	39.0	2.5	/experiments/knapen_AOT/AOT_stimuli/rescaled_final/1627_fw.mp4	0.0	259.54682898521423	2.4920578002929688
41	237.69059109687805	pulse	1	t		39.0	2.5	/experiments/knapen_AOT/AOT_stimuli/rescaled_final/1627_fw.mp4	0.0	259.93545794487	
41	239.2784481048584	pulse	1	t		39.0	2.5	/experiments/knapen_AOT/AOT_stimuli/rescaled_final/1627_fw.mp4	0.0	261.52331495285034	
41	239.79401993751526	fix_post	2		12	39.0	2.5	/experiments/knapen_AOT/AOT_stimuli/rescaled_final/1627_fw.mp4	0.0	262.0388867855072	0.10003399848937988
42	239.89405393600464	fix_pre	0		119	40.0	2.5	/experiments/knapen_AOT/AOT_stimuli/rescaled_final/1823_rv.mp4	0.0	262.1389207839966	0.9918181896209717
42	240.87778401374817	pulse	0	t		40.0	2.5	/experiments/knapen_AOT/AOT_stimuli/rescaled_final/1823_rv.mp4	0.0	263.1226508617401	
42	240.8858721256256	movie	1		245	40.0	2.5	/experiments/knapen_AOT/AOT_stimuli/rescaled_final/1823_rv.mp4	0.0	263.13073897361755	2.5086829662323
42	242.47845005989075	pulse	1	t		40.0	2.5	/experiments/knapen_AOT/AOT_stimuli/rescaled_final/1823_rv.mp4	0.0	264.7233169078827	
42	243.3945550918579	fix_post	2		12	40.0	2.5	/experiments/knapen_AOT/AOT_stimuli/rescaled_final/1823_rv.mp4	0.0	265.63942193984985	0.10000896453857422
43	243.49456405639648	fix_pre	0		120	41.0	2.5	blank	1.0	265.7394309043884	1.000190019607544
43	244.07817697525024	pulse	0	t		41.0	2.5	blank	1.0	266.3230438232422	
43	244.49475407600403	movie	1		300	41.0	2.5	blank	1.0	266.739620923996	2.5003459453582764
43	245.67839097976685	pulse	1	t		41.0	2.5	blank	1.0	267.9232578277588	
43	246.9951000213623	fix_post	2		12	41.0	2.5	blank	1.0	269.23996686935425	0.10001802444458008
44	247.09511804580688	fix_pre	0		120	42.0	2.5	/experiments/knapen_AOT/AOT_stimuli/rescaled_final/1218_fw.mp4	0.0	269.3399848937988	1.0001440048217773
44	247.27861714363098	pulse	0	t		42.0	2.5	/experiments/knapen_AOT/AOT_stimuli/rescaled_final/1218_fw.mp4	0.0	269.5234839916229	
44	248.09526205062866	movie	1		244	42.0	2.5	/experiments/knapen_AOT/AOT_stimuli/rescaled_final/1218_fw.mp4	0.0	270.3401288986206	2.50034499168396
44	248.87890100479126	pulse	1	t		42.0	2.5	/experiments/knapen_AOT/AOT_stimuli/rescaled_final/1218_fw.mp4	0.0	271.1237678527832	
44	250.4791579246521	pulse	1	t		42.0	2.5	/experiments/knapen_AOT/AOT_stimuli/rescaled_final/1218_fw.mp4	0.0	272.72402477264404	
44	250.59560704231262	fix_post	2		12	42.0	2.5	/experiments/knapen_AOT/AOT_stimuli/rescaled_final/1218_fw.mp4	0.0	272.84047389030457	0.10005903244018555
45	250.6956660747528	fix_pre	0		120	43.0	2.5	/experiments/knapen_AOT/AOT_stimuli/rescaled_final/1807_fw.mp4	0.0	272.94053292274475	1.0001389980316162
45	251.69580507278442	movie	1		243	43.0	2.5	/experiments/knapen_AOT/AOT_stimuli/rescaled_final/1807_fw.mp4	0.0	273.94067192077637	2.4920010566711426
45	252.07981204986572	pulse	1	t		43.0	2.5	/experiments/knapen_AOT/AOT_stimuli/rescaled_final/1807_fw.mp4	0.0	274.32467889785767	
45	253.67957997322083	pulse	1	t		43.0	2.5	/experiments/knapen_AOT/AOT_stimuli/rescaled_final/1807_fw.mp4	0.0	275.92444682121277	
45	254.18780612945557	fix_post	2		12	43.0	2.5	/experiments/knapen_AOT/AOT_stimuli/rescaled_final/1807_fw.mp4	0.0	276.4326729774475	0.10003089904785156
46	254.28783702850342	fix_pre	0		120	44.0	2.5	/experiments/knapen_AOT/AOT_stimuli/rescaled_final/1389_rv.mp4	0.0	276.53270387649536	1.0001790523529053
46	255.27999114990234	pulse	0	t		44.0	2.5	/experiments/knapen_AOT/AOT_stimuli/rescaled_final/1389_rv.mp4	0.0	277.5248579978943	
46	255.28801608085632	movie	1		245	44.0	2.5	/experiments/knapen_AOT/AOT_stimuli/rescaled_final/1389_rv.mp4	0.0	277.53288292884827	2.50872802734375
46	256.88065910339355	pulse	1	t		44.0	2.5	/experiments/knapen_AOT/AOT_stimuli/rescaled_final/1389_rv.mp4	0.0	279.1255259513855	
46	257.7967441082001	fix_post	2		12	44.0	2.5	/experiments/knapen_AOT/AOT_stimuli/rescaled_final/1389_rv.mp4	0.0	280.041610956192	0.09998083114624023
47	257.8967249393463	fix_pre	0		120	45.0	2.5	/experiments/knapen_AOT/AOT_stimuli/rescaled_final/0785_rv.mp4	0.0	280.14159178733826	1.0001461505889893
47	258.48030495643616	pulse	0	t		45.0	2.5	/experiments/knapen_AOT/AOT_stimuli/rescaled_final/0785_rv.mp4	0.0	280.7251718044281	
47	258.8968710899353	movie	1		245	45.0	2.5	/experiments/knapen_AOT/AOT_stimuli/rescaled_final/0785_rv.mp4	0.0	281.14173793792725	2.5003838539123535
47	260.08070707321167	pulse	1	t		45.0	2.5	/experiments/knapen_AOT/AOT_stimuli/rescaled_final/0785_rv.mp4	0.0	282.3255739212036	
47	261.39725494384766	fix_post	2		12	45.0	2.5	/experiments/knapen_AOT/AOT_stimuli/rescaled_final/0785_rv.mp4	0.0	283.6421217918396	0.10001516342163086
48	261.4972701072693	fix_pre	0		117	46.0	2.5	/experiments/knapen_AOT/AOT_stimuli/rescaled_final/2004_rv.mp4	0.0	283.74213695526123	1.0001308917999268
48	261.68089413642883	pulse	0	t		46.0	2.5	/experiments/knapen_AOT/AOT_stimuli/rescaled_final/2004_rv.mp4	0.0	283.9257609844208	
48	262.4974009990692	movie	1		243	46.0	2.5	/experiments/knapen_AOT/AOT_stimuli/rescaled_final/2004_rv.mp4	0.0	284.74226784706116	2.500349998474121
48	263.2812190055847	pulse	1	t		46.0	2.5	/experiments/knapen_AOT/AOT_stimuli/rescaled_final/2004_rv.mp4	0.0	285.52608585357666	
48	264.88121604919434	pulse	1	t		46.0	2.5	/experiments/knapen_AOT/AOT_stimuli/rescaled_final/2004_rv.mp4	0.0	287.1260828971863	
48	264.99775099754333	fix_post	2		12	46.0	2.5	/experiments/knapen_AOT/AOT_stimuli/rescaled_final/2004_rv.mp4	0.0	287.2426178455353	0.10006403923034668
49	265.0978150367737	fix_pre	0		120	47.0	2.5	/experiments/knapen_AOT/AOT_stimuli/rescaled_final/1751_fw.mp4	0.0	287.3426818847656	1.0001239776611328
49	266.0979390144348	movie	1		243	47.0	2.5	/experiments/knapen_AOT/AOT_stimuli/rescaled_final/1751_fw.mp4	0.0	288.34280586242676	2.492027997970581
49	266.4818880558014	pulse	1	t		47.0	2.5	/experiments/knapen_AOT/AOT_stimuli/rescaled_final/1751_fw.mp4	0.0	288.72675490379333	
49	268.0818510055542	pulse	1	t		47.0	2.5	/experiments/knapen_AOT/AOT_stimuli/rescaled_final/1751_fw.mp4	0.0	290.32671785354614	
49	268.5899670124054	fix_post	2		12	47.0	2.5	/experiments/knapen_AOT/AOT_stimuli/rescaled_final/1751_fw.mp4	0.0	290.83483386039734	0.10004210472106934
50	268.69000911712646	fix_pre	0		120	48.0	2.5	blank	1.0	290.9348759651184	1.0001389980316162
50	269.6821129322052	pulse	0	t		48.0	2.5	blank	1.0	291.92697978019714	
50	269.6901481151581	movie	1		301	48.0	2.5	blank	1.0	291.93501496315	2.5087168216705322
50	271.282338142395	pulse	1	t		48.0	2.5	blank	1.0	293.52720499038696	
50	272.1988649368286	fix_post	2		12	48.0	2.5	blank	1.0	294.44373178482056	0.10000920295715332
51	272.29887413978577	fix_pre	0		120	49.0	2.5	/experiments/knapen_AOT/AOT_stimuli/rescaled_final/0794_fw.mp4	0.0	294.5437409877777	1.000154972076416
51	272.88248801231384	pulse	0	t		49.0	2.5	/experiments/knapen_AOT/AOT_stimuli/rescaled_final/0794_fw.mp4	0.0	295.1273548603058	
51	273.2990291118622	movie	1		245	49.0	2.5	/experiments/knapen_AOT/AOT_stimuli/rescaled_final/0794_fw.mp4	0.0	295.5438959598541	2.500351905822754
51	274.4827461242676	pulse	1	t		49.0	2.5	/experiments/knapen_AOT/AOT_stimuli/rescaled_final/0794_fw.mp4	0.0	296.7276129722595	
51	275.79938101768494	fix_post	2		12	49.0	2.5	/experiments/knapen_AOT/AOT_stimuli/rescaled_final/0794_fw.mp4	0.0	298.0442478656769	0.10000395774841309
52	275.89938497543335	fix_pre	0		120	50.0	2.5	/experiments/knapen_AOT/AOT_stimuli/rescaled_final/0444_rv.mp4	0.0	298.1442518234253	1.0001680850982666
52	276.08306193351746	pulse	0	t		50.0	2.5	/experiments/knapen_AOT/AOT_stimuli/rescaled_final/0444_rv.mp4	0.0	298.3279287815094	
52	276.8995530605316	movie	1		244	50.0	2.5	/experiments/knapen_AOT/AOT_stimuli/rescaled_final/0444_rv.mp4	0.0	299.14441990852356	2.50034499168396
52	277.68332695961	pulse	1	t		50.0	2.5	/experiments/knapen_AOT/AOT_stimuli/rescaled_final/0444_rv.mp4	0.0	299.92819380760193	
52	279.28370809555054	pulse	1	t		50.0	2.5	/experiments/knapen_AOT/AOT_stimuli/rescaled_final/0444_rv.mp4	0.0	301.5285749435425	
52	279.3998980522156	fix_post	2		12	50.0	2.5	/experiments/knapen_AOT/AOT_stimuli/rescaled_final/0444_rv.mp4	0.0	301.6447649002075	0.10004496574401855
53	279.4999430179596	fix_pre	0		120	51.0	2.5	/experiments/knapen_AOT/AOT_stimuli/rescaled_final/0940_fw.mp4	0.0	301.74480986595154	1.000133991241455
53	280.50007700920105	movie	1		242	51.0	2.5	/experiments/knapen_AOT/AOT_stimuli/rescaled_final/0940_fw.mp4	0.0	302.744943857193	2.492017984390259
53	280.8842670917511	pulse	1	t		51.0	2.5	/experiments/knapen_AOT/AOT_stimuli/rescaled_final/0940_fw.mp4	0.0	303.12913393974304	
53	282.4839961528778	pulse	1	t		51.0	2.5	/experiments/knapen_AOT/AOT_stimuli/rescaled_final/0940_fw.mp4	0.0	304.72886300086975	
53	282.9920949935913	fix_post	2		12	51.0	2.5	/experiments/knapen_AOT/AOT_stimuli/rescaled_final/0940_fw.mp4	0.0	305.23696184158325	0.10002803802490234
54	283.0921230316162	fix_pre	0		120	52.0	2.5	/experiments/knapen_AOT/AOT_stimuli/rescaled_final/0306_rv.mp4	0.0	305.33698987960815	1.0001909732818604
54	284.0842249393463	pulse	0	t		52.0	2.5	/experiments/knapen_AOT/AOT_stimuli/rescaled_final/0306_rv.mp4	0.0	306.32909178733826	
54	284.09231400489807	movie	1		248	52.0	2.5	/experiments/knapen_AOT/AOT_stimuli/rescaled_final/0306_rv.mp4	0.0	306.33718085289	2.5086779594421387
54	285.68513202667236	pulse	1	t		52.0	2.5	/experiments/knapen_AOT/AOT_stimuli/rescaled_final/0306_rv.mp4	0.0	307.9299988746643	
54	286.6009919643402	fix_post	2		12	52.0	2.5	/experiments/knapen_AOT/AOT_stimuli/rescaled_final/0306_rv.mp4	0.0	308.84585881233215	0.10008907318115234
55	286.70108103752136	fix_pre	0		120	53.0	2.5	/experiments/knapen_AOT/AOT_stimuli/rescaled_final/0937_fw.mp4	0.0	308.9459478855133	1.000072956085205
55	287.28460812568665	pulse	0	t		53.0	2.5	/experiments/knapen_AOT/AOT_stimuli/rescaled_final/0937_fw.mp4	0.0	309.5294749736786	
55	287.70115399360657	movie	1		243	53.0	2.5	/experiments/knapen_AOT/AOT_stimuli/rescaled_final/0937_fw.mp4	0.0	309.9460208415985	2.500352144241333
55	288.88499093055725	pulse	1	t		53.0	2.5	/experiments/knapen_AOT/AOT_stimuli/rescaled_final/0937_fw.mp4	0.0	311.1298577785492	
55	290.2015061378479	fix_post	2		12	53.0	2.5	/experiments/knapen_AOT/AOT_stimuli/rescaled_final/0937_fw.mp4	0.0	312.44637298583984	0.10002684593200684
56	290.3015329837799	fix_pre	0		120	54.0	2.5	/experiments/knapen_AOT/AOT_stimuli/rescaled_final/0791_fw.mp4	0.0	312.54639983177185	1.0001959800720215
56	290.4852430820465	pulse	0	t		54.0	2.5	/experiments/knapen_AOT/AOT_stimuli/rescaled_final/0791_fw.mp4	0.0	312.73010993003845	
56	291.30172896385193	movie	1		244	54.0	2.5	/experiments/knapen_AOT/AOT_stimuli/rescaled_final/0791_fw.mp4	0.0	313.5465958118439	2.500326156616211
56	292.0855190753937	pulse	1	t		54.0	2.5	/experiments/knapen_AOT/AOT_stimuli/rescaled_final/0791_fw.mp4	0.0	314.3303859233856	
56	293.68572306632996	pulse	1	t		54.0	2.5	/experiments/knapen_AOT/AOT_stimuli/rescaled_final/0791_fw.mp4	0.0	315.9305899143219	
56	293.80205512046814	fix_post	2		12	54.0	2.5	/experiments/knapen_AOT/AOT_stimuli/rescaled_final/0791_fw.mp4	0.0	316.0469219684601	0.10004186630249023
57	293.90209698677063	fix_pre	0		120	55.0	2.5	blank	1.0	316.1469638347626	1.0001540184020996
57	294.90225100517273	movie	1		299	55.0	2.5	blank	1.0	317.1471178531647	2.4920239448547363
57	295.2783489227295	pulse	1	t		55.0	2.5	blank	1.0	317.52321577072144	
57	296.8784430027008	pulse	1	t		55.0	2.5	blank	1.0	319.12330985069275	
57	297.39427495002747	fix_post	2		12	55.0	2.5	blank	1.0	319.6391417980194	0.10001206398010254
58	297.49428701400757	fix_pre	0		120	56.0	2.5	/experiments/knapen_AOT/AOT_stimuli/rescaled_final/1963_fw.mp4	0.0	319.7391538619995	1.0001399517059326
58	298.4787919521332	pulse	0	t		56.0	2.5	/experiments/knapen_AOT/AOT_stimuli/rescaled_final/1963_fw.mp4	0.0	320.7236588001251	
58	298.4944269657135	movie	1		245	56.0	2.5	/experiments/knapen_AOT/AOT_stimuli/rescaled_final/1963_fw.mp4	0.0	320.73929381370544	2.5087029933929443
58	300.08673906326294	pulse	1	t		56.0	2.5	/experiments/knapen_AOT/AOT_stimuli/rescaled_final/1963_fw.mp4	0.0	322.3316059112549	
58	301.00312995910645	fix_post	2		12	56.0	2.5	/experiments/knapen_AOT/AOT_stimuli/rescaled_final/1963_fw.mp4	0.0	323.2479968070984	0.10003113746643066
59	301.1031610965729	fix_pre	0		120	57.0	2.5	/experiments/knapen_AOT/AOT_stimuli/rescaled_final/0124_rv.mp4	0.0	323.3480279445648	1.0001239776611328
59	301.67857098579407	pulse	0	t		57.0	2.5	/experiments/knapen_AOT/AOT_stimuli/rescaled_final/0124_rv.mp4	0.0	323.923437833786	
59	302.103285074234	movie	1		244	57.0	2.5	/experiments/knapen_AOT/AOT_stimuli/rescaled_final/0124_rv.mp4	0.0	324.34815192222595	2.500385046005249
59	303.2831189632416	pulse	1	t		57.0	2.5	/experiments/knapen_AOT/AOT_stimuli/rescaled_final/0124_rv.mp4	0.0	325.5279858112335	
59	304.60367012023926	fix_post	2		12	57.0	2.5	/experiments/knapen_AOT/AOT_stimuli/rescaled_final/0124_rv.mp4	0.0	326.8485369682312	0.1000218391418457
60	304.7036919593811	fix_pre	0		120	58.0	2.5	/experiments/knapen_AOT/AOT_stimuli/rescaled_final/0917_fw.mp4	0.0	326.94855880737305	1.0001590251922607
60	304.87889194488525	pulse	0	t		58.0	2.5	/experiments/knapen_AOT/AOT_stimuli/rescaled_final/0917_fw.mp4	0.0	327.1237587928772	
60	305.70385098457336	movie	1		243	58.0	2.5	/experiments/knapen_AOT/AOT_stimuli/rescaled_final/0917_fw.mp4	0.0	327.9487178325653	2.5003559589385986
60	306.47922801971436	pulse	1	t		58.0	2.5	/experiments/knapen_AOT/AOT_stimuli/rescaled_final/0917_fw.mp4	0.0	328.7240948677063	
60	308.07953000068665	pulse	1	t		58.0	2.5	/experiments/knapen_AOT/AOT_stimuli/rescaled_final/0917_fw.mp4	0.0	330.3243968486786	
60	308.20420694351196	fix_post	2		12	58.0	2.5	/experiments/knapen_AOT/AOT_stimuli/rescaled_final/0917_fw.mp4	0.0	330.4490737915039	0.10004806518554688
61	308.3042550086975	fix_pre	0		120	59.0	2.5	/experiments/knapen_AOT/AOT_stimuli/rescaled_final/1963_fw.mp4	0.0	330.54912185668945	1.0001749992370605
61	309.30443000793457	movie	1		243	59.0	2.5	/experiments/knapen_AOT/AOT_stimuli/rescaled_final/1963_fw.mp4	0.0	331.5492968559265	2.491982936859131
61	309.6796190738678	pulse	1	t		59.0	2.5	/experiments/knapen_AOT/AOT_stimuli/rescaled_final/1963_fw.mp4	0.0	331.92448592185974	
61	311.2800090312958	pulse	1	t		59.0	2.5	/experiments/knapen_AOT/AOT_stimuli/rescaled_final/1963_fw.mp4	0.0	333.5248758792877	
61	311.7964129447937	fix_post	2		12	59.0	2.5	/experiments/knapen_AOT/AOT_stimuli/rescaled_final/1963_fw.mp4	0.0	334.04127979278564	0.10003018379211426
62	311.8964431285858	fix_pre	0		119	60.0	2.5	/experiments/knapen_AOT/AOT_stimuli/rescaled_final/0447_fw.mp4	0.0	334.14130997657776	0.9918417930603027
62	312.8801190853119	pulse	0	t		60.0	2.5	/experiments/knapen_AOT/AOT_stimuli/rescaled_final/0447_fw.mp4	0.0	335.12498593330383	
62	312.8882849216461	movie	1		245	60.0	2.5	/experiments/knapen_AOT/AOT_stimuli/rescaled_final/0447_fw.mp4	0.0	335.13315176963806	2.5088250637054443
62	314.48072504997253	pulse	1	t		60.0	2.5	/experiments/knapen_AOT/AOT_stimuli/rescaled_final/0447_fw.mp4	0.0	336.7255918979645	
62	315.39710998535156	fix_post	2		12	60.0	2.5	/experiments/knapen_AOT/AOT_stimuli/rescaled_final/0447_fw.mp4	0.0	337.6419768333435	0.09986615180969238
63	315.49697613716125	fix_pre	0		120	61.0	2.5	/experiments/knapen_AOT/AOT_stimuli/rescaled_final/0396_rv.mp4	0.0	337.7418429851532	1.0001728534698486
63	316.08063101768494	pulse	0	t		61.0	2.5	/experiments/knapen_AOT/AOT_stimuli/rescaled_final/0396_rv.mp4	0.0	338.3254978656769	
63	316.4971489906311	movie	1		244	61.0	2.5	/experiments/knapen_AOT/AOT_stimuli/rescaled_final/0396_rv.mp4	0.0	338.74201583862305	2.5003349781036377
63	317.6809711456299	pulse	1	t		61.0	2.5	/experiments/knapen_AOT/AOT_stimuli/rescaled_final/0396_rv.mp4	0.0	339.9258379936218	
63	318.99748396873474	fix_post	2		12	61.0	2.5	/experiments/knapen_AOT/AOT_stimuli/rescaled_final/0396_rv.mp4	0.0	341.2423508167267	0.10001802444458008
64	319.0975019931793	fix_pre	0		120	62.0	2.5	/experiments/knapen_AOT/AOT_stimuli/rescaled_final/0117_rv.mp4	0.0	341.34236884117126	1.000195026397705
64	319.2811119556427	pulse	0	t		62.0	2.5	/experiments/knapen_AOT/AOT_stimuli/rescaled_final/0117_rv.mp4	0.0	341.52597880363464	
64	320.097697019577	movie	1		243	62.0	2.5	/experiments/knapen_AOT/AOT_stimuli/rescaled_final/0117_rv.mp4	0.0	342.34256386756897	2.5003271102905273
64	320.88132405281067	pulse	1	t		62.0	2.5	/experiments/knapen_AOT/AOT_stimuli/rescaled_final/0117_rv.mp4	0.0	343.1261909008026	
64	322.4815390110016	pulse	1	t		62.0	2.5	/experiments/knapen_AOT/AOT_stimuli/rescaled_final/0117_rv.mp4	0.0	344.72640585899353	
64	322.59802412986755	fix_post	2		12	62.0	2.5	/experiments/knapen_AOT/AOT_stimuli/rescaled_final/0117_rv.mp4	0.0	344.8428909778595	0.10001301765441895
65	322.698037147522	fix_pre	0		118	63.0	2.5	blank	1.0	344.9429039955139	1.0001609325408936
65	323.69819808006287	movie	1		299	63.0	2.5	blank	1.0	345.9430649280548	2.4920430183410645
65	324.0817880630493	pulse	1	t		63.0	2.5	blank	1.0	346.32665491104126	
65	325.6821150779724	pulse	1	t		63.0	2.5	blank	1.0	347.92698192596436	
65	326.19024109840393	fix_post	2		12	63.0	2.5	blank	1.0	348.4351079463959	0.10002684593200684
66	326.29026794433594	fix_pre	0		120	64.0	2.5	/experiments/knapen_AOT/AOT_stimuli/rescaled_final/1586_fw.mp4	0.0	348.5351347923279	1.0001530647277832
66	327.28224301338196	pulse	0	t		64.0	2.5	/experiments/knapen_AOT/AOT_stimuli/rescaled_final/1586_fw.mp4	0.0	349.5271098613739	
66	327.2904210090637	movie	1		244	64.0	2.5	/experiments/knapen_AOT/AOT_stimuli/rescaled_final/1586_fw.mp4	0.0	349.53528785705566	2.508678913116455
66	328.8868489265442	pulse	1	t		64.0	2.5	/experiments/knapen_AOT/AOT_stimuli/rescaled_final/1586_fw.mp4	0.0	351.13171577453613	
66	329.7990999221802	fix_post	2		12	64.0	2.5	/experiments/knapen_AOT/AOT_stimuli/rescaled_final/1586_fw.mp4	0.0	352.0439667701721	0.10000801086425781
67	329.89910793304443	fix_pre	0		120	65.0	2.5	/experiments/knapen_AOT/AOT_stimuli/rescaled_final/1033_fw.mp4	0.0	352.1439747810364	1.0002620220184326
67	330.48276114463806	pulse	0	t		65.0	2.5	/experiments/knapen_AOT/AOT_stimuli/rescaled_final/1033_fw.mp4	0.0	352.72762799263	
67	330.89936995506287	movie	1		244	65.0	2.5	/experiments/knapen_AOT/AOT_stimuli/rescaled_final/1033_fw.mp4	0.0	353.1442368030548	2.5002691745758057
67	332.0831480026245	pulse	1	t		65.0	2.5	/experiments/knapen_AOT/AOT_stimuli/rescaled_final/1033_fw.mp4	0.0	354.32801485061646	
67	333.3996391296387	fix_post	2		12	65.0	2.5	/experiments/knapen_AOT/AOT_stimuli/rescaled_final/1033_fw.mp4	0.0	355.6445059776306	0.1000368595123291
68	333.499675989151	fix_pre	0		120	66.0	2.5	/experiments/knapen_AOT/AOT_stimuli/rescaled_final/1249_rv.mp4	0.0	355.74454283714294	1.0001680850982666
68	333.68322491645813	pulse	0	t		66.0	2.5	/experiments/knapen_AOT/AOT_stimuli/rescaled_final/1249_rv.mp4	0.0	355.9280917644501	
68	334.49984407424927	movie	1		245	66.0	2.5	/experiments/knapen_AOT/AOT_stimuli/rescaled_final/1249_rv.mp4	0.0	356.7447109222412	2.5003139972686768
68	335.2834219932556	pulse	1	t		66.0	2.5	/experiments/knapen_AOT/AOT_stimuli/rescaled_final/1249_rv.mp4	0.0	357.52828884124756	
68	336.88129210472107	pulse	1	t		66.0	2.5	/experiments/knapen_AOT/AOT_stimuli/rescaled_final/1249_rv.mp4	0.0	359.126158952713	
68	337.00015807151794	fix_post	2		12	66.0	2.5	/experiments/knapen_AOT/AOT_stimuli/rescaled_final/1249_rv.mp4	0.0	359.2450249195099	0.10003399848937988
69	337.1001920700073	fix_pre	0		119	67.0	2.5	/experiments/knapen_AOT/AOT_stimuli/rescaled_final/0579_rv.mp4	0.0	359.34505891799927	0.9919700622558594
69	338.0921621322632	movie	1		243	67.0	2.5	/experiments/knapen_AOT/AOT_stimuli/rescaled_final/0579_rv.mp4	0.0	360.3370289802551	2.500196933746338
69	338.4840130805969	pulse	1	t		67.0	2.5	/experiments/knapen_AOT/AOT_stimuli/rescaled_final/0579_rv.mp4	0.0	360.72887992858887	
69	340.0842809677124	pulse	1	t		67.0	2.5	/experiments/knapen_AOT/AOT_stimuli/rescaled_final/0579_rv.mp4	0.0	362.32914781570435	
69	340.5923590660095	fix_post	2		12	67.0	2.5	/experiments/knapen_AOT/AOT_stimuli/rescaled_final/0579_rv.mp4	0.0	362.83722591400146	0.10005497932434082
70	340.69241404533386	fix_pre	0		120	68.0	2.5	blank	1.0	362.9372808933258	1.0001280307769775
70	341.6843960285187	pulse	0	t		68.0	2.5	blank	1.0	363.9292628765106	
70	341.69254207611084	movie	1		301	68.0	2.5	blank	1.0	363.9374089241028	2.5087568759918213
70	343.2846200466156	pulse	1	t		68.0	2.5	blank	1.0	365.52948689460754	
70	344.20129895210266	fix_post	2		12	68.0	2.5	blank	1.0	366.4461658000946	0.099945068359375
71	344.30124402046204	fix_pre	0		120	69.0	2.5	/experiments/knapen_AOT/AOT_stimuli/rescaled_final/1827_rv.mp4	0.0	366.546110868454	1.0001859664916992
71	344.88498401641846	pulse	0	t		69.0	2.5	/experiments/knapen_AOT/AOT_stimuli/rescaled_final/1827_rv.mp4	0.0	367.1298508644104	
71	345.30142998695374	movie	1		246	69.0	2.5	/experiments/knapen_AOT/AOT_stimuli/rescaled_final/1827_rv.mp4	0.0	367.5462968349457	2.5004329681396484
71	346.4808599948883	pulse	1	t		69.0	2.5	/experiments/knapen_AOT/AOT_stimuli/rescaled_final/1827_rv.mp4	0.0	368.72572684288025	
71	347.8018629550934	fix_post	2		12	69.0	2.5	/experiments/knapen_AOT/AOT_stimuli/rescaled_final/1827_rv.mp4	0.0	370.0467298030853	0.0999441146850586
72	347.90180706977844	fix_pre	0		120	70.0	2.5	/experiments/knapen_AOT/AOT_stimuli/rescaled_final/0654_rv.mp4	0.0	370.1466739177704	1.0001449584960938
72	348.0780529975891	pulse	0	t		70.0	2.5	/experiments/knapen_AOT/AOT_stimuli/rescaled_final/0654_rv.mp4	0.0	370.32291984558105	
72	348.90195202827454	movie	1		243	70.0	2.5	/experiments/knapen_AOT/AOT_stimuli/rescaled_final/0654_rv.mp4	0.0	371.1468188762665	2.500364065170288
72	349.67827701568604	pulse	1	t		70.0	2.5	/experiments/knapen_AOT/AOT_stimuli/rescaled_final/0654_rv.mp4	0.0	371.923143863678	
72	351.2856240272522	pulse	1	t		70.0	2.5	/experiments/knapen_AOT/AOT_stimuli/rescaled_final/0654_rv.mp4	0.0	373.53049087524414	
72	351.4023160934448	fix_post	2		12	70.0	2.5	/experiments/knapen_AOT/AOT_stimuli/rescaled_final/0654_rv.mp4	0.0	373.64718294143677	0.10003995895385742
73	351.5023560523987	fix_pre	0		119	71.0	2.5	/experiments/knapen_AOT/AOT_stimuli/rescaled_final/0837_rv.mp4	0.0	373.7472229003906	0.9917960166931152
73	352.4941520690918	movie	1		244	71.0	2.5	/experiments/knapen_AOT/AOT_stimuli/rescaled_final/0837_rv.mp4	0.0	374.73901891708374	2.500361919403076
73	352.87835001945496	pulse	1	t		71.0	2.5	/experiments/knapen_AOT/AOT_stimuli/rescaled_final/0837_rv.mp4	0.0	375.1232168674469	
73	354.478796005249	pulse	1	t		71.0	2.5	/experiments/knapen_AOT/AOT_stimuli/rescaled_final/0837_rv.mp4	0.0	376.72366285324097	
73	354.9945139884949	fix_post	2		12	71.0	2.5	/experiments/knapen_AOT/AOT_stimuli/rescaled_final/0837_rv.mp4	0.0	377.2393808364868	0.10001897811889648
74	355.09453296661377	fix_pre	0		119	72.0	2.5	/experiments/knapen_AOT/AOT_stimuli/rescaled_final/0202_rv.mp4	0.0	377.3393998146057	0.9918150901794434
74	356.0781559944153	pulse	0	t		72.0	2.5	/experiments/knapen_AOT/AOT_stimuli/rescaled_final/0202_rv.mp4	0.0	378.3230228424072	
74	356.0863480567932	movie	1		246	72.0	2.5	/experiments/knapen_AOT/AOT_stimuli/rescaled_final/0202_rv.mp4	0.0	378.33121490478516	2.5087149143218994
74	357.6790030002594	pulse	1	t		72.0	2.5	/experiments/knapen_AOT/AOT_stimuli/rescaled_final/0202_rv.mp4	0.0	379.92386984825134	
74	358.5950629711151	fix_post	2		12	72.0	2.5	/experiments/knapen_AOT/AOT_stimuli/rescaled_final/0202_rv.mp4	0.0	380.83992981910706	0.10008597373962402
75	358.69514894485474	fix_pre	0		120	73.0	2.5	/experiments/knapen_AOT/AOT_stimuli/rescaled_final/1963_rv.mp4	0.0	380.9400157928467	1.000082015991211
75	359.2786319255829	pulse	0	t		73.0	2.5	/experiments/knapen_AOT/AOT_stimuli/rescaled_final/1963_rv.mp4	0.0	381.52349877357483	
75	359.69523096084595	movie	1		244	73.0	2.5	/experiments/knapen_AOT/AOT_stimuli/rescaled_final/1963_rv.mp4	0.0	381.9400978088379	2.500368118286133
75	360.87910509109497	pulse	1	t		73.0	2.5	/experiments/knapen_AOT/AOT_stimuli/rescaled_final/1963_rv.mp4	0.0	383.1239719390869	
75	362.1955990791321	fix_post	2		12	73.0	2.5	/experiments/knapen_AOT/AOT_stimuli/rescaled_final/1963_rv.mp4	0.0	384.440465927124	0.10001707077026367
76	362.29561614990234	fix_pre	0		120	74.0	2.5	/experiments/knapen_AOT/AOT_stimuli/rescaled_final/0306_fw.mp4	0.0	384.5404829978943	1.0001428127288818
76	362.479327917099	pulse	0	t		74.0	2.5	/experiments/knapen_AOT/AOT_stimuli/rescaled_final/0306_fw.mp4	0.0	384.72419476509094	
76	363.2957589626312	movie	1		247	74.0	2.5	/experiments/knapen_AOT/AOT_stimuli/rescaled_final/0306_fw.mp4	0.0	385.54062581062317	2.5003480911254883
76	364.07953095436096	pulse	1	t		74.0	2.5	/experiments/knapen_AOT/AOT_stimuli/rescaled_final/0306_fw.mp4	0.0	386.3243978023529	
76	365.67958092689514	pulse	1	t		74.0	2.5	/experiments/knapen_AOT/AOT_stimuli/rescaled_final/0306_fw.mp4	0.0	387.9244477748871	
76	365.7961070537567	fix_post	2		12	74.0	2.5	/experiments/knapen_AOT/AOT_stimuli/rescaled_final/0306_fw.mp4	0.0	388.04097390174866	0.10003304481506348
77	365.8961400985718	fix_pre	0		119	75.0	2.5	/experiments/knapen_AOT/AOT_stimuli/rescaled_final/0108_rv.mp4	0.0	388.1410069465637	0.9918429851531982
77	366.887983083725	movie	1		247	75.0	2.5	/experiments/knapen_AOT/AOT_stimuli/rescaled_final/0108_rv.mp4	0.0	389.1328499317169	2.50034499168396
77	367.28006196022034	pulse	1	t		75.0	2.5	/experiments/knapen_AOT/AOT_stimuli/rescaled_final/0108_rv.mp4	0.0	389.5249288082123	
77	368.8802750110626	pulse	1	t		75.0	2.5	/experiments/knapen_AOT/AOT_stimuli/rescaled_final/0108_rv.mp4	0.0	391.12514185905457	
77	369.38832807540894	fix_post	2		12	75.0	2.5	/experiments/knapen_AOT/AOT_stimuli/rescaled_final/0108_rv.mp4	0.0	391.6331949234009	0.1000518798828125
78	369.48837995529175	fix_pre	0		120	76.0	2.5	/experiments/knapen_AOT/AOT_stimuli/rescaled_final/0023_fw.mp4	0.0	391.7332468032837	1.0001189708709717
78	370.4804711341858	pulse	0	t		76.0	2.5	/experiments/knapen_AOT/AOT_stimuli/rescaled_final/0023_fw.mp4	0.0	392.72533798217773	
78	370.4884989261627	movie	1		246	76.0	2.5	/experiments/knapen_AOT/AOT_stimuli/rescaled_final/0023_fw.mp4	0.0	392.73336577415466	2.5086920261383057
78	372.0813660621643	pulse	1	t		76.0	2.5	/experiments/knapen_AOT/AOT_stimuli/rescaled_final/0023_fw.mp4	0.0	394.32623291015625	
78	372.997190952301	fix_post	2		12	76.0	2.5	/experiments/knapen_AOT/AOT_stimuli/rescaled_final/0023_fw.mp4	0.0	395.24205780029297	0.10002899169921875
79	373.09721994400024	fix_pre	0		120	77.0	2.5	blank	1.0	395.3420867919922	1.0001530647277832
79	373.680899143219	pulse	0	t		77.0	2.5	blank	1.0	395.92576599121094	
79	374.097373008728	movie	1		300	77.0	2.5	blank	1.0	396.34223985671997	2.5003740787506104
79	375.2813501358032	pulse	1	t		77.0	2.5	blank	1.0	397.52621698379517	
79	376.59774708747864	fix_post	2		12	77.0	2.5	blank	1.0	398.8426139354706	0.10005402565002441
80	376.69780111312866	fix_pre	0		120	78.0	2.5	/experiments/knapen_AOT/AOT_stimuli/rescaled_final/0951_rv.mp4	0.0	398.9426679611206	1.0001389980316162
80	376.88143014907837	pulse	0	t		78.0	2.5	/experiments/knapen_AOT/AOT_stimuli/rescaled_final/0951_rv.mp4	0.0	399.1262969970703	
80	377.6979401111603	movie	1		245	78.0	2.5	/experiments/knapen_AOT/AOT_stimuli/rescaled_final/0951_rv.mp4	0.0	399.9428069591522	2.5003068447113037
80	378.4815571308136	pulse	1	t		78.0	2.5	/experiments/knapen_AOT/AOT_stimuli/rescaled_final/0951_rv.mp4	0.0	400.72642397880554	
80	380.07937502861023	pulse	1	t		78.0	2.5	/experiments/knapen_AOT/AOT_stimuli/rescaled_final/0951_rv.mp4	0.0	402.3242418766022	
80	380.1982469558716	fix_post	2		12	78.0	2.5	/experiments/knapen_AOT/AOT_stimuli/rescaled_final/0951_rv.mp4	0.0	402.4431138038635	0.10004210472106934
81	380.29828906059265	fix_pre	0		120	79.0	2.5	/experiments/knapen_AOT/AOT_stimuli/rescaled_final/1122_fw.mp4	0.0	402.5431559085846	1.0001280307769775
81	381.29841709136963	movie	1		245	79.0	2.5	/experiments/knapen_AOT/AOT_stimuli/rescaled_final/1122_fw.mp4	0.0	403.5432839393616	2.492029905319214
81	381.682363986969	pulse	1	t		79.0	2.5	/experiments/knapen_AOT/AOT_stimuli/rescaled_final/1122_fw.mp4	0.0	403.92723083496094	
81	383.28240394592285	pulse	1	t		79.0	2.5	/experiments/knapen_AOT/AOT_stimuli/rescaled_final/1122_fw.mp4	0.0	405.5272707939148	
81	383.79044699668884	fix_post	2		12	79.0	2.5	/experiments/knapen_AOT/AOT_stimuli/rescaled_final/1122_fw.mp4	0.0	406.0353138446808	0.10046792030334473
82	383.8909149169922	fix_pre	0		118	80.0	2.5	/experiments/knapen_AOT/AOT_stimuli/rescaled_final/1816_fw.mp4	0.0	406.13578176498413	0.9997360706329346
82	384.88259196281433	pulse	0	t		80.0	2.5	/experiments/knapen_AOT/AOT_stimuli/rescaled_final/1816_fw.mp4	0.0	407.1274588108063	
82	384.8906509876251	movie	1		246	80.0	2.5	/experiments/knapen_AOT/AOT_stimuli/rescaled_final/1816_fw.mp4	0.0	407.13551783561707	2.5086729526519775
82	386.4834289550781	pulse	1	t		80.0	2.5	/experiments/knapen_AOT/AOT_stimuli/rescaled_final/1816_fw.mp4	0.0	408.72829580307007	
82	387.3993239402771	fix_post	2		12	80.0	2.5	/experiments/knapen_AOT/AOT_stimuli/rescaled_final/1816_fw.mp4	0.0	409.64419078826904	0.10005021095275879
83	387.49937415122986	fix_pre	0		120	81.0	2.5	/experiments/knapen_AOT/AOT_stimuli/rescaled_final/0290_rv.mp4	0.0	409.7442409992218	1.0001428127288818
83	388.08303809165955	pulse	0	t		81.0	2.5	/experiments/knapen_AOT/AOT_stimuli/rescaled_final/0290_rv.mp4	0.0	410.3279049396515	
83	388.49951696395874	movie	1		245	81.0	2.5	/experiments/knapen_AOT/AOT_stimuli/rescaled_final/0290_rv.mp4	0.0	410.7443838119507	2.500369071960449
83	389.6834170818329	pulse	1	t		81.0	2.5	/experiments/knapen_AOT/AOT_stimuli/rescaled_final/0290_rv.mp4	0.0	411.92828392982483	
83	390.9998860359192	fix_post	2		12	81.0	2.5	/experiments/knapen_AOT/AOT_stimuli/rescaled_final/0290_rv.mp4	0.0	413.24475288391113	0.10009002685546875
84	391.09997606277466	fix_pre	0		120	82.0	2.5	blank	1.0	413.3448429107666	1.0001568794250488
84	391.2835121154785	pulse	0	t		82.0	2.5	blank	1.0	413.52837896347046	
84	392.1001329421997	movie	1		300	82.0	2.5	blank	1.0	414.34499979019165	2.5003089904785156
84	392.8836359977722	pulse	1	t		82.0	2.5	blank	1.0	415.12850284576416	
84	394.4839220046997	pulse	1	t		82.0	2.5	blank	1.0	416.72878885269165	
84	394.6004419326782	fix_post	2		12	82.0	2.5	blank	1.0	416.84530878067017	0.10000300407409668
85	394.7004449367523	fix_pre	0		120	83.0	2.5	/experiments/knapen_AOT/AOT_stimuli/rescaled_final/0912_fw.mp4	0.0	416.94531178474426	1.0001370906829834
85	395.7005820274353	movie	1		244	83.0	2.5	/experiments/knapen_AOT/AOT_stimuli/rescaled_final/0912_fw.mp4	0.0	417.94544887542725	2.4920570850372314
85	396.08472895622253	pulse	1	t		83.0	2.5	/experiments/knapen_AOT/AOT_stimuli/rescaled_final/0912_fw.mp4	0.0	418.3295958042145	
85	397.6844689846039	pulse	1	t		83.0	2.5	/experiments/knapen_AOT/AOT_stimuli/rescaled_final/0912_fw.mp4	0.0	419.9293358325958	
85	398.19263911247253	fix_post	2		12	83.0	2.5	/experiments/knapen_AOT/AOT_stimuli/rescaled_final/0912_fw.mp4	0.0	420.4375059604645	0.10000801086425781
87	398.2926471233368	stim	0		1716					420.53751397132874	14.302227020263672
87	399.28466796875	pulse	0	t						421.52953481674194	
87	400.8774709701538	pulse	0	t						423.12233781814575	
87	402.4776930809021	pulse	0	t						424.72255992889404	
87	404.0779800415039	pulse	0	t						426.32284688949585	
87	405.6782569885254	pulse	0	t						427.92312383651733	
87	407.2785699367523	pulse	0	t						429.52343678474426	
87	408.8776569366455	pulse	0	t						431.12252378463745	
87	410.47787404060364	pulse	0	t						432.7227408885956	
87	412.07823300361633	pulse	0	t						434.3230998516083	
