trial_nr	onset	event_type	phase	response	nr_frames	movie_index	movie_duration	movie_file	blank	onset_abs	duration
0	0.15790200233459473	stim	0		31					21.86356282234192	0.2586629390716553
0	0.4013221263885498	response	0	space						22.106982946395874	
1	0.41656494140625	stim	0		4765					22.122225761413574	39.70814919471741
1	40.121073961257935	pulse	0	t						61.82673478126526	
1	40.12471413612366	stim	1		1717					61.83037495613098	14.308318853378296
1	41.71653914451599	pulse	1	t						63.422199964523315	
1	43.31660008430481	pulse	1	t						65.02226090431213	
1	44.91610813140869	pulse	1	t						66.62176895141602	
1	46.516289949417114	pulse	1	t						68.22195076942444	
1	48.11661100387573	pulse	1	t						69.82227182388306	
1	49.71648406982422	pulse	1	t						71.42214488983154	
1	51.31645894050598	pulse	1	t						73.0221197605133	
1	52.91636514663696	pulse	1	t						74.62202596664429	
2	54.43303298950195	fix_pre	0		11	0.0	2.5	/experiments/AOT/AOT_stimuli/rescaled_final/0984_rv.mp4	0.0	76.13869380950928	0.09166097640991211
2	54.5164840221405	pulse	0	t		0.0	2.5	/experiments/AOT/AOT_stimuli/rescaled_final/0984_rv.mp4	0.0	76.22214484214783	
2	54.524693965911865	movie	1		244	0.0	2.5	/experiments/AOT/AOT_stimuli/rescaled_final/0984_rv.mp4	0.0	76.23035478591919	2.5083131790161133
2	56.11610198020935	pulse	1	t		0.0	2.5	/experiments/AOT/AOT_stimuli/rescaled_final/0984_rv.mp4	0.0	77.82176280021667	
2	57.03300714492798	fix_post	2		12	0.0	2.5	/experiments/AOT/AOT_stimuli/rescaled_final/0984_rv.mp4	0.0	78.7386679649353	0.09995484352111816
3	57.1329619884491	fix_pre	0		120	1.0	2.5	/experiments/AOT/AOT_stimuli/rescaled_final/0119_fw.mp4	0.0	78.83862280845642	1.0000700950622559
3	57.71638107299805	pulse	0	t		1.0	2.5	/experiments/AOT/AOT_stimuli/rescaled_final/0119_fw.mp4	0.0	79.42204189300537	
3	58.13303208351135	movie	1		243	1.0	2.5	/experiments/AOT/AOT_stimuli/rescaled_final/0119_fw.mp4	0.0	79.83869290351868	2.500293016433716
3	59.316503047943115	pulse	1	t		1.0	2.5	/experiments/AOT/AOT_stimuli/rescaled_final/0119_fw.mp4	0.0	81.02216386795044	
3	60.63332509994507	fix_post	2		12	1.0	2.5	/experiments/AOT/AOT_stimuli/rescaled_final/0119_fw.mp4	0.0	82.33898591995239	0.09956789016723633
4	60.732892990112305	fix_pre	0		120	2.0	2.5	/experiments/AOT/AOT_stimuli/rescaled_final/0573_rv.mp4	0.0	82.43855381011963	1.0000340938568115
4	60.91644811630249	pulse	0	t		2.0	2.5	/experiments/AOT/AOT_stimuli/rescaled_final/0573_rv.mp4	0.0	82.62210893630981	
4	61.732927083969116	movie	1		246	2.0	2.5	/experiments/AOT/AOT_stimuli/rescaled_final/0573_rv.mp4	0.0	83.43858790397644	2.4999849796295166
4	62.51643204689026	pulse	1	t		2.0	2.5	/experiments/AOT/AOT_stimuli/rescaled_final/0573_rv.mp4	0.0	84.22209286689758	
4	64.11256408691406	pulse	1	t		2.0	2.5	/experiments/AOT/AOT_stimuli/rescaled_final/0573_rv.mp4	0.0	85.81822490692139	
4	64.23291206359863	fix_post	2		12	2.0	2.5	/experiments/AOT/AOT_stimuli/rescaled_final/0573_rv.mp4	0.0	85.93857288360596	0.09997391700744629
5	64.33288598060608	fix_pre	0		120	3.0	2.5	/experiments/AOT/AOT_stimuli/rescaled_final/0775_fw.mp4	0.0	86.0385468006134	1.000082015991211
5	65.33296799659729	movie	1		245	3.0	2.5	/experiments/AOT/AOT_stimuli/rescaled_final/0775_fw.mp4	0.0	87.03862881660461	2.4999630451202393
5	65.71643900871277	pulse	1	t		3.0	2.5	/experiments/AOT/AOT_stimuli/rescaled_final/0775_fw.mp4	0.0	87.42209982872009	
5	67.31639909744263	pulse	1	t		3.0	2.5	/experiments/AOT/AOT_stimuli/rescaled_final/0775_fw.mp4	0.0	89.02205991744995	
5	67.83293104171753	fix_post	2		12	3.0	2.5	/experiments/AOT/AOT_stimuli/rescaled_final/0775_fw.mp4	0.0	89.53859186172485	0.09992313385009766
6	67.93285417556763	fix_pre	0		119	4.0	2.5	/experiments/AOT/AOT_stimuli/rescaled_final/1719_fw.mp4	0.0	89.63851499557495	0.991710901260376
6	68.91640901565552	pulse	0	t		4.0	2.5	/experiments/AOT/AOT_stimuli/rescaled_final/1719_fw.mp4	0.0	90.62206983566284	
6	68.924565076828	movie	1		247	4.0	2.5	/experiments/AOT/AOT_stimuli/rescaled_final/1719_fw.mp4	0.0	90.63022589683533	2.508289098739624
6	70.51581716537476	pulse	1	t		4.0	2.5	/experiments/AOT/AOT_stimuli/rescaled_final/1719_fw.mp4	0.0	92.22147798538208	
6	71.43285417556763	fix_post	2		12	4.0	2.5	/experiments/AOT/AOT_stimuli/rescaled_final/1719_fw.mp4	0.0	93.13851499557495	0.09966087341308594
7	71.53251504898071	fix_pre	0		120	5.0	2.5	/experiments/AOT/AOT_stimuli/rescaled_final/0951_rv.mp4	0.0	93.23817586898804	1.0004498958587646
7	72.11637997627258	pulse	0	t		5.0	2.5	/experiments/AOT/AOT_stimuli/rescaled_final/0951_rv.mp4	0.0	93.82204079627991	
7	72.53296494483948	movie	1		246	5.0	2.5	/experiments/AOT/AOT_stimuli/rescaled_final/0951_rv.mp4	0.0	94.2386257648468	2.4994161128997803
7	73.71646094322205	pulse	1	t		5.0	2.5	/experiments/AOT/AOT_stimuli/rescaled_final/0951_rv.mp4	0.0	95.42212176322937	
7	75.03238105773926	fix_post	2		12	5.0	2.5	/experiments/AOT/AOT_stimuli/rescaled_final/0951_rv.mp4	0.0	96.73804187774658	0.10004901885986328
8	75.13243007659912	fix_pre	0		120	6.0	2.5	blank	1.0	96.83809089660645	1.0004539489746094
8	75.31636905670166	pulse	0	t		6.0	2.5	blank	1.0	97.02202987670898	
8	76.13288402557373	movie	1		300	6.0	2.5	blank	1.0	97.83854484558105	2.4999430179595947
8	76.91635012626648	pulse	1	t		6.0	2.5	blank	1.0	98.6220109462738	
8	78.51633906364441	pulse	1	t		6.0	2.5	blank	1.0	100.22199988365173	
8	78.63282704353333	fix_post	2		12	6.0	2.5	blank	1.0	100.33848786354065	0.09957194328308105
9	78.7323989868164	fix_pre	0		120	7.0	2.5	/experiments/AOT/AOT_stimuli/rescaled_final/1720_rv.mp4	0.0	100.43805980682373	0.9999961853027344
9	79.73239517211914	movie	1		244	7.0	2.5	/experiments/AOT/AOT_stimuli/rescaled_final/1720_rv.mp4	0.0	101.43805599212646	2.499969959259033
9	80.11594915390015	pulse	1	t		7.0	2.5	/experiments/AOT/AOT_stimuli/rescaled_final/1720_rv.mp4	0.0	101.82160997390747	
9	81.71626710891724	pulse	1	t		7.0	2.5	/experiments/AOT/AOT_stimuli/rescaled_final/1720_rv.mp4	0.0	103.42192792892456	
9	82.23236513137817	fix_post	2		12	7.0	2.5	/experiments/AOT/AOT_stimuli/rescaled_final/1720_rv.mp4	0.0	103.9380259513855	0.1000509262084961
10	82.33241605758667	fix_pre	0		119	8.0	2.5	/experiments/AOT/AOT_stimuli/rescaled_final/1948_fw.mp4	0.0	104.038076877594	0.992042064666748
10	83.31631803512573	pulse	0	t		8.0	2.5	/experiments/AOT/AOT_stimuli/rescaled_final/1948_fw.mp4	0.0	105.02197885513306	
10	83.32445812225342	movie	1		247	8.0	2.5	/experiments/AOT/AOT_stimuli/rescaled_final/1948_fw.mp4	0.0	105.03011894226074	2.508358955383301
10	84.9160680770874	pulse	1	t		8.0	2.5	/experiments/AOT/AOT_stimuli/rescaled_final/1948_fw.mp4	0.0	106.62172889709473	
10	85.83281707763672	fix_post	2		12	8.0	2.5	/experiments/AOT/AOT_stimuli/rescaled_final/1948_fw.mp4	0.0	107.53847789764404	0.0999000072479248
11	85.93271708488464	fix_pre	0		120	9.0	2.5	/experiments/AOT/AOT_stimuli/rescaled_final/1772_fw.mp4	0.0	107.63837790489197	1.0001249313354492
11	86.51632905006409	pulse	0	t		9.0	2.5	/experiments/AOT/AOT_stimuli/rescaled_final/1772_fw.mp4	0.0	108.22198987007141	
11	86.93284201622009	movie	1		244	9.0	2.5	/experiments/AOT/AOT_stimuli/rescaled_final/1772_fw.mp4	0.0	108.63850283622742	2.4999289512634277
11	88.11637496948242	pulse	1	t		9.0	2.5	/experiments/AOT/AOT_stimuli/rescaled_final/1772_fw.mp4	0.0	109.82203578948975	
11	89.43277096748352	fix_post	2		12	9.0	2.5	/experiments/AOT/AOT_stimuli/rescaled_final/1772_fw.mp4	0.0	111.13843178749084	0.10001206398010254
12	89.53278303146362	fix_pre	0		120	10.0	2.5	/experiments/AOT/AOT_stimuli/rescaled_final/1816_fw.mp4	0.0	111.23844385147095	1.0000851154327393
12	89.71632313728333	pulse	0	t		10.0	2.5	/experiments/AOT/AOT_stimuli/rescaled_final/1816_fw.mp4	0.0	111.42198395729065	
12	90.53286814689636	movie	1		244	10.0	2.5	/experiments/AOT/AOT_stimuli/rescaled_final/1816_fw.mp4	0.0	112.23852896690369	2.499856948852539
12	91.31632113456726	pulse	1	t		10.0	2.5	/experiments/AOT/AOT_stimuli/rescaled_final/1816_fw.mp4	0.0	113.02198195457458	
12	92.91515398025513	pulse	1	t		10.0	2.5	/experiments/AOT/AOT_stimuli/rescaled_final/1816_fw.mp4	0.0	114.62081480026245	
12	93.0327250957489	fix_post	2		12	10.0	2.5	/experiments/AOT/AOT_stimuli/rescaled_final/1816_fw.mp4	0.0	114.73838591575623	0.09999299049377441
13	93.13271808624268	fix_pre	0		120	11.0	2.5	/experiments/AOT/AOT_stimuli/rescaled_final/1243_fw.mp4	0.0	114.83837890625	1.000014066696167
13	94.13273215293884	movie	1		245	11.0	2.5	/experiments/AOT/AOT_stimuli/rescaled_final/1243_fw.mp4	0.0	115.83839297294617	2.5000698566436768
13	94.5158269405365	pulse	1	t		11.0	2.5	/experiments/AOT/AOT_stimuli/rescaled_final/1243_fw.mp4	0.0	116.22148776054382	
13	96.11624908447266	pulse	1	t		11.0	2.5	/experiments/AOT/AOT_stimuli/rescaled_final/1243_fw.mp4	0.0	117.82190990447998	
13	96.63280200958252	fix_post	2		12	11.0	2.5	/experiments/AOT/AOT_stimuli/rescaled_final/1243_fw.mp4	0.0	118.33846282958984	0.10004115104675293
14	96.73284316062927	fix_pre	0		119	12.0	2.5	blank	1.0	118.4385039806366	0.9915649890899658
14	97.71625804901123	pulse	0	t		12.0	2.5	blank	1.0	119.42191886901855	
14	97.72440814971924	movie	1		301	12.0	2.5	blank	1.0	119.43006896972656	2.508384943008423
14	99.31625294685364	pulse	1	t		12.0	2.5	blank	1.0	121.02191376686096	
14	100.23279309272766	fix_post	2		12	12.0	2.5	blank	1.0	121.93845391273499	0.09993505477905273
15	100.33272814750671	fix_pre	0		120	13.0	2.5	/experiments/AOT/AOT_stimuli/rescaled_final/1198_fw.mp4	0.0	122.03838896751404	1.0000619888305664
15	100.91587805747986	pulse	0	t		13.0	2.5	/experiments/AOT/AOT_stimuli/rescaled_final/1198_fw.mp4	0.0	122.62153887748718	
15	101.33279013633728	movie	1		243	13.0	2.5	/experiments/AOT/AOT_stimuli/rescaled_final/1198_fw.mp4	0.0	123.0384509563446	2.4999430179595947
15	102.51610398292542	pulse	1	t		13.0	2.5	/experiments/AOT/AOT_stimuli/rescaled_final/1198_fw.mp4	0.0	124.22176480293274	
15	103.83273315429688	fix_post	2		12	13.0	2.5	/experiments/AOT/AOT_stimuli/rescaled_final/1198_fw.mp4	0.0	125.5383939743042	0.10003900527954102
16	103.93277215957642	fix_pre	0		120	14.0	2.5	/experiments/AOT/AOT_stimuli/rescaled_final/1859_rv.mp4	0.0	125.63843297958374	0.9999539852142334
16	104.11628413200378	pulse	0	t		14.0	2.5	/experiments/AOT/AOT_stimuli/rescaled_final/1859_rv.mp4	0.0	125.82194495201111	
16	104.93272614479065	movie	1		245	14.0	2.5	/experiments/AOT/AOT_stimuli/rescaled_final/1859_rv.mp4	0.0	126.63838696479797	2.499976873397827
16	105.71617794036865	pulse	1	t		14.0	2.5	/experiments/AOT/AOT_stimuli/rescaled_final/1859_rv.mp4	0.0	127.42183876037598	
16	107.3147521018982	pulse	1	t		14.0	2.5	/experiments/AOT/AOT_stimuli/rescaled_final/1859_rv.mp4	0.0	129.02041292190552	
16	107.43270301818848	fix_post	2		12	14.0	2.5	/experiments/AOT/AOT_stimuli/rescaled_final/1859_rv.mp4	0.0	129.1383638381958	0.09998893737792969
17	107.5326919555664	fix_pre	0		120	15.0	2.5	/experiments/AOT/AOT_stimuli/rescaled_final/1868_rv.mp4	0.0	129.23835277557373	1.0000240802764893
17	108.5327160358429	movie	1		246	15.0	2.5	/experiments/AOT/AOT_stimuli/rescaled_final/1868_rv.mp4	0.0	130.23837685585022	2.5
17	108.91578316688538	pulse	1	t		15.0	2.5	/experiments/AOT/AOT_stimuli/rescaled_final/1868_rv.mp4	0.0	130.6214439868927	
17	110.51603102684021	pulse	1	t		15.0	2.5	/experiments/AOT/AOT_stimuli/rescaled_final/1868_rv.mp4	0.0	132.22169184684753	
17	111.0327160358429	fix_post	2		12	15.0	2.5	/experiments/AOT/AOT_stimuli/rescaled_final/1868_rv.mp4	0.0	132.73837685585022	0.09996199607849121
18	111.13267803192139	fix_pre	0		119	16.0	2.5	/experiments/AOT/AOT_stimuli/rescaled_final/1324_rv.mp4	0.0	132.8383388519287	0.9918010234832764
18	112.11616706848145	pulse	0	t		16.0	2.5	/experiments/AOT/AOT_stimuli/rescaled_final/1324_rv.mp4	0.0	133.82182788848877	
18	112.12447905540466	movie	1		243	16.0	2.5	/experiments/AOT/AOT_stimuli/rescaled_final/1324_rv.mp4	0.0	133.830139875412	2.508255958557129
18	113.71581196784973	pulse	1	t		16.0	2.5	/experiments/AOT/AOT_stimuli/rescaled_final/1324_rv.mp4	0.0	135.42147278785706	
18	114.63273501396179	fix_post	2		12	16.0	2.5	/experiments/AOT/AOT_stimuli/rescaled_final/1324_rv.mp4	0.0	136.33839583396912	0.09993195533752441
19	114.73266696929932	fix_pre	0		120	17.0	2.5	/experiments/AOT/AOT_stimuli/rescaled_final/0342_fw.mp4	0.0	136.43832778930664	1.0001060962677002
19	115.31611800193787	pulse	0	t		17.0	2.5	/experiments/AOT/AOT_stimuli/rescaled_final/0342_fw.mp4	0.0	137.0217788219452	
19	115.73277306556702	movie	1		245	17.0	2.5	/experiments/AOT/AOT_stimuli/rescaled_final/0342_fw.mp4	0.0	137.43843388557434	2.499492883682251
19	116.91622805595398	pulse	1	t		17.0	2.5	/experiments/AOT/AOT_stimuli/rescaled_final/0342_fw.mp4	0.0	138.6218888759613	
19	118.23226594924927	fix_post	2		12	17.0	2.5	/experiments/AOT/AOT_stimuli/rescaled_final/0342_fw.mp4	0.0	139.9379267692566	0.10041308403015137
20	118.33267903327942	fix_pre	0		120	18.0	2.5	/experiments/AOT/AOT_stimuli/rescaled_final/1863_fw.mp4	0.0	140.03833985328674	0.9999589920043945
20	118.51616716384888	pulse	0	t		18.0	2.5	/experiments/AOT/AOT_stimuli/rescaled_final/1863_fw.mp4	0.0	140.2218279838562	
20	119.33263802528381	movie	1		245	18.0	2.5	/experiments/AOT/AOT_stimuli/rescaled_final/1863_fw.mp4	0.0	141.03829884529114	2.5000579357147217
20	120.11614894866943	pulse	1	t		18.0	2.5	/experiments/AOT/AOT_stimuli/rescaled_final/1863_fw.mp4	0.0	141.82180976867676	
20	121.71223211288452	pulse	1	t		18.0	2.5	/experiments/AOT/AOT_stimuli/rescaled_final/1863_fw.mp4	0.0	143.41789293289185	
20	121.83269596099854	fix_post	2		12	18.0	2.5	/experiments/AOT/AOT_stimuli/rescaled_final/1863_fw.mp4	0.0	143.53835678100586	0.09998106956481934
21	121.93267703056335	fix_pre	0		120	19.0	2.5	blank	1.0	143.63833785057068	0.9999899864196777
21	122.93266701698303	movie	1		300	19.0	2.5	blank	1.0	144.63832783699036	2.499936103820801
21	123.31612706184387	pulse	1	t		19.0	2.5	blank	1.0	145.0217878818512	
21	124.91617512702942	pulse	1	t		19.0	2.5	blank	1.0	146.62183594703674	
21	125.43260312080383	fix_post	2		12	19.0	2.5	blank	1.0	147.13826394081116	0.09997296333312988
22	125.53257608413696	fix_pre	0		119	20.0	2.5	/experiments/AOT/AOT_stimuli/rescaled_final/0252_fw.mp4	0.0	147.2382369041443	0.9916539192199707
22	126.51619505882263	pulse	0	t		20.0	2.5	/experiments/AOT/AOT_stimuli/rescaled_final/0252_fw.mp4	0.0	148.22185587882996	
22	126.52423000335693	movie	1		248	20.0	2.5	/experiments/AOT/AOT_stimuli/rescaled_final/0252_fw.mp4	0.0	148.22989082336426	2.5083751678466797
22	128.11571598052979	pulse	1	t		20.0	2.5	/experiments/AOT/AOT_stimuli/rescaled_final/0252_fw.mp4	0.0	149.8213768005371	
22	129.0326051712036	fix_post	2		12	20.0	2.5	/experiments/AOT/AOT_stimuli/rescaled_final/0252_fw.mp4	0.0	150.73826599121094	0.10010480880737305
23	129.132709980011	fix_pre	0		120	21.0	2.5	/experiments/AOT/AOT_stimuli/rescaled_final/0484_rv.mp4	0.0	150.8383708000183	0.9999001026153564
23	129.71603202819824	pulse	0	t		21.0	2.5	/experiments/AOT/AOT_stimuli/rescaled_final/0484_rv.mp4	0.0	151.42169284820557	
23	130.13261008262634	movie	1		245	21.0	2.5	/experiments/AOT/AOT_stimuli/rescaled_final/0484_rv.mp4	0.0	151.83827090263367	2.499485969543457
23	131.31614708900452	pulse	1	t		21.0	2.5	/experiments/AOT/AOT_stimuli/rescaled_final/0484_rv.mp4	0.0	153.02180790901184	
23	132.6320960521698	fix_post	2		12	21.0	2.5	/experiments/AOT/AOT_stimuli/rescaled_final/0484_rv.mp4	0.0	154.33775687217712	0.10044598579406738
24	132.73254203796387	fix_pre	0		120	22.0	2.5	/experiments/AOT/AOT_stimuli/rescaled_final/1296_rv.mp4	0.0	154.4382028579712	0.9995560646057129
24	132.9161901473999	pulse	0	t		22.0	2.5	/experiments/AOT/AOT_stimuli/rescaled_final/1296_rv.mp4	0.0	154.62185096740723	
24	133.73209810256958	movie	1		245	22.0	2.5	/experiments/AOT/AOT_stimuli/rescaled_final/1296_rv.mp4	0.0	155.4377589225769	2.5006020069122314
24	134.5161271095276	pulse	1	t		22.0	2.5	/experiments/AOT/AOT_stimuli/rescaled_final/1296_rv.mp4	0.0	156.2217879295349	
24	136.1121699810028	pulse	1	t		22.0	2.5	/experiments/AOT/AOT_stimuli/rescaled_final/1296_rv.mp4	0.0	157.81783080101013	
24	136.2327001094818	fix_post	2		12	22.0	2.5	/experiments/AOT/AOT_stimuli/rescaled_final/1296_rv.mp4	0.0	157.93836092948914	0.09962105751037598
25	136.3323211669922	fix_pre	0		120	23.0	2.5	/experiments/AOT/AOT_stimuli/rescaled_final/0739_fw.mp4	0.0	158.0379819869995	1.000309944152832
25	137.33263111114502	movie	1		245	23.0	2.5	/experiments/AOT/AOT_stimuli/rescaled_final/0739_fw.mp4	0.0	159.03829193115234	2.499474048614502
25	137.71602201461792	pulse	1	t		23.0	2.5	/experiments/AOT/AOT_stimuli/rescaled_final/0739_fw.mp4	0.0	159.42168283462524	
25	139.31608414649963	pulse	1	t		23.0	2.5	/experiments/AOT/AOT_stimuli/rescaled_final/0739_fw.mp4	0.0	161.02174496650696	
25	139.83210515975952	fix_post	2		12	23.0	2.5	/experiments/AOT/AOT_stimuli/rescaled_final/0739_fw.mp4	0.0	161.53776597976685	0.10042381286621094
26	139.93252897262573	fix_pre	0		119	24.0	2.5	/experiments/AOT/AOT_stimuli/rescaled_final/1868_fw.mp4	0.0	161.63818979263306	0.9917659759521484
26	140.91608214378357	pulse	0	t		24.0	2.5	/experiments/AOT/AOT_stimuli/rescaled_final/1868_fw.mp4	0.0	162.6217429637909	
26	140.92429494857788	movie	1		247	24.0	2.5	/experiments/AOT/AOT_stimuli/rescaled_final/1868_fw.mp4	0.0	162.6299557685852	2.5082650184631348
26	142.5173110961914	pulse	1	t		24.0	2.5	/experiments/AOT/AOT_stimuli/rescaled_final/1868_fw.mp4	0.0	164.22297191619873	
26	143.43255996704102	fix_post	2		12	24.0	2.5	/experiments/AOT/AOT_stimuli/rescaled_final/1868_fw.mp4	0.0	165.13822078704834	0.10000205039978027
27	143.5325620174408	fix_pre	0		120	25.0	2.5	/experiments/AOT/AOT_stimuli/rescaled_final/1705_rv.mp4	0.0	165.23822283744812	0.9996111392974854
27	144.117329120636	pulse	0	t		25.0	2.5	/experiments/AOT/AOT_stimuli/rescaled_final/1705_rv.mp4	0.0	165.8229899406433	
27	144.53217315673828	movie	1		244	25.0	2.5	/experiments/AOT/AOT_stimuli/rescaled_final/1705_rv.mp4	0.0	166.2378339767456	2.500471830368042
27	145.71607613563538	pulse	1	t		25.0	2.5	/experiments/AOT/AOT_stimuli/rescaled_final/1705_rv.mp4	0.0	167.4217369556427	
27	147.03264498710632	fix_post	2		12	25.0	2.5	/experiments/AOT/AOT_stimuli/rescaled_final/1705_rv.mp4	0.0	168.73830580711365	0.09984207153320312
28	147.13248705863953	fix_pre	0		120	26.0	2.5	/experiments/AOT/AOT_stimuli/rescaled_final/1096_fw.mp4	0.0	168.83814787864685	1.0000839233398438
28	147.3160970211029	pulse	0	t		26.0	2.5	/experiments/AOT/AOT_stimuli/rescaled_final/1096_fw.mp4	0.0	169.02175784111023	
28	148.13257098197937	movie	1		244	26.0	2.5	/experiments/AOT/AOT_stimuli/rescaled_final/1096_fw.mp4	0.0	169.8382318019867	2.4999639987945557
28	148.91598296165466	pulse	1	t		26.0	2.5	/experiments/AOT/AOT_stimuli/rescaled_final/1096_fw.mp4	0.0	170.621643781662	
28	150.51196694374084	pulse	1	t		26.0	2.5	/experiments/AOT/AOT_stimuli/rescaled_final/1096_fw.mp4	0.0	172.21762776374817	
28	150.63253498077393	fix_post	2		12	26.0	2.5	/experiments/AOT/AOT_stimuli/rescaled_final/1096_fw.mp4	0.0	172.33819580078125	0.10003113746643066
29	150.73256611824036	fix_pre	0		120	27.0	2.5	/experiments/AOT/AOT_stimuli/rescaled_final/0889_fw.mp4	0.0	172.43822693824768	1.0000250339508057
29	151.73259115219116	movie	1		245	27.0	2.5	/experiments/AOT/AOT_stimuli/rescaled_final/0889_fw.mp4	0.0	173.4382519721985	2.499976873397827
29	152.1160011291504	pulse	1	t		27.0	2.5	/experiments/AOT/AOT_stimuli/rescaled_final/0889_fw.mp4	0.0	173.82166194915771	
29	153.71603107452393	pulse	1	t		27.0	2.5	/experiments/AOT/AOT_stimuli/rescaled_final/0889_fw.mp4	0.0	175.42169189453125	
29	154.232568025589	fix_post	2		12	27.0	2.5	/experiments/AOT/AOT_stimuli/rescaled_final/0889_fw.mp4	0.0	175.9382288455963	0.0995330810546875
30	154.33210110664368	fix_pre	0		119	28.0	2.5	blank	1.0	176.037761926651	0.9919888973236084
30	155.31604599952698	pulse	0	t		28.0	2.5	blank	1.0	177.0217068195343	
30	155.32409000396729	movie	1		301	28.0	2.5	blank	1.0	177.0297508239746	2.5085861682891846
30	156.91559314727783	pulse	1	t		28.0	2.5	blank	1.0	178.62125396728516	
30	157.83267617225647	fix_post	2		12	28.0	2.5	blank	1.0	179.5383369922638	0.09999895095825195
31	157.93267512321472	fix_pre	0		120	29.0	2.5	/experiments/AOT/AOT_stimuli/rescaled_final/1900_rv.mp4	0.0	179.63833594322205	1.0001070499420166
31	158.51622104644775	pulse	0	t		29.0	2.5	/experiments/AOT/AOT_stimuli/rescaled_final/1900_rv.mp4	0.0	180.22188186645508	
31	158.93278217315674	movie	1		244	29.0	2.5	/experiments/AOT/AOT_stimuli/rescaled_final/1900_rv.mp4	0.0	180.63844299316406	2.4992828369140625
31	160.11599397659302	pulse	1	t		29.0	2.5	/experiments/AOT/AOT_stimuli/rescaled_final/1900_rv.mp4	0.0	181.82165479660034	
31	161.4320650100708	fix_post	2		12	29.0	2.5	/experiments/AOT/AOT_stimuli/rescaled_final/1900_rv.mp4	0.0	183.13772583007812	0.10041499137878418
32	161.53248000144958	fix_pre	0		120	30.0	2.5	/experiments/AOT/AOT_stimuli/rescaled_final/1085_fw.mp4	0.0	183.2381408214569	1.0000331401824951
32	161.71592712402344	pulse	0	t		30.0	2.5	/experiments/AOT/AOT_stimuli/rescaled_final/1085_fw.mp4	0.0	183.42158794403076	
32	162.53251314163208	movie	1		244	30.0	2.5	/experiments/AOT/AOT_stimuli/rescaled_final/1085_fw.mp4	0.0	184.2381739616394	2.4999709129333496
32	163.3159680366516	pulse	1	t		30.0	2.5	/experiments/AOT/AOT_stimuli/rescaled_final/1085_fw.mp4	0.0	185.02162885665894	
32	164.91475200653076	pulse	1	t		30.0	2.5	/experiments/AOT/AOT_stimuli/rescaled_final/1085_fw.mp4	0.0	186.6204128265381	
32	165.03248405456543	fix_post	2		12	30.0	2.5	/experiments/AOT/AOT_stimuli/rescaled_final/1085_fw.mp4	0.0	186.73814487457275	0.09991192817687988
33	165.1323959827423	fix_pre	0		120	31.0	2.5	/experiments/AOT/AOT_stimuli/rescaled_final/1873_rv.mp4	0.0	186.83805680274963	0.9999861717224121
33	166.13238215446472	movie	1		244	31.0	2.5	/experiments/AOT/AOT_stimuli/rescaled_final/1873_rv.mp4	0.0	187.83804297447205	2.5000979900360107
33	166.51720809936523	pulse	1	t		31.0	2.5	/experiments/AOT/AOT_stimuli/rescaled_final/1873_rv.mp4	0.0	188.22286891937256	
33	168.11586499214172	pulse	1	t		31.0	2.5	/experiments/AOT/AOT_stimuli/rescaled_final/1873_rv.mp4	0.0	189.82152581214905	
33	168.63248014450073	fix_post	2		12	31.0	2.5	/experiments/AOT/AOT_stimuli/rescaled_final/1873_rv.mp4	0.0	190.33814096450806	0.09991288185119629
34	168.73239302635193	fix_pre	0		119	32.0	2.5	/experiments/AOT/AOT_stimuli/rescaled_final/1923_fw.mp4	0.0	190.43805384635925	0.9916629791259766
34	169.71591305732727	pulse	0	t		32.0	2.5	/experiments/AOT/AOT_stimuli/rescaled_final/1923_fw.mp4	0.0	191.4215738773346	
34	169.7240560054779	movie	1		247	32.0	2.5	/experiments/AOT/AOT_stimuli/rescaled_final/1923_fw.mp4	0.0	191.42971682548523	2.5083210468292236
34	171.31597805023193	pulse	1	t		32.0	2.5	/experiments/AOT/AOT_stimuli/rescaled_final/1923_fw.mp4	0.0	193.02163887023926	
34	172.23237705230713	fix_post	2		12	32.0	2.5	/experiments/AOT/AOT_stimuli/rescaled_final/1923_fw.mp4	0.0	193.93803787231445	0.10004210472106934
35	172.3324191570282	fix_pre	0		120	33.0	2.5	/experiments/AOT/AOT_stimuli/rescaled_final/0916_rv.mp4	0.0	194.03807997703552	1.0000109672546387
35	172.9172489643097	pulse	0	t		33.0	2.5	/experiments/AOT/AOT_stimuli/rescaled_final/0916_rv.mp4	0.0	194.62290978431702	
35	173.33243012428284	movie	1		243	33.0	2.5	/experiments/AOT/AOT_stimuli/rescaled_final/0916_rv.mp4	0.0	195.03809094429016	2.4999239444732666
35	174.5159831047058	pulse	1	t		33.0	2.5	/experiments/AOT/AOT_stimuli/rescaled_final/0916_rv.mp4	0.0	196.22164392471313	
35	175.8323540687561	fix_post	2		12	33.0	2.5	/experiments/AOT/AOT_stimuli/rescaled_final/0916_rv.mp4	0.0	197.53801488876343	0.10001087188720703
36	175.9323649406433	fix_pre	0		120	34.0	2.5	/experiments/AOT/AOT_stimuli/rescaled_final/0059_fw.mp4	0.0	197.63802576065063	1.0000171661376953
36	176.11592507362366	pulse	0	t		34.0	2.5	/experiments/AOT/AOT_stimuli/rescaled_final/0059_fw.mp4	0.0	197.82158589363098	
36	176.932382106781	movie	1		245	34.0	2.5	/experiments/AOT/AOT_stimuli/rescaled_final/0059_fw.mp4	0.0	198.63804292678833	2.499940872192383
36	177.7158260345459	pulse	1	t		34.0	2.5	/experiments/AOT/AOT_stimuli/rescaled_final/0059_fw.mp4	0.0	199.42148685455322	
36	179.31539607048035	pulse	1	t		34.0	2.5	/experiments/AOT/AOT_stimuli/rescaled_final/0059_fw.mp4	0.0	201.02105689048767	
36	179.4323229789734	fix_post	2		12	34.0	2.5	/experiments/AOT/AOT_stimuli/rescaled_final/0059_fw.mp4	0.0	201.1379837989807	0.10008502006530762
37	179.5324079990387	fix_pre	0		120	35.0	2.5	blank	1.0	201.23806881904602	0.9999921321868896
37	180.5324001312256	movie	1		300	35.0	2.5	blank	1.0	202.2380609512329	2.4995369911193848
37	180.91587615013123	pulse	1	t		35.0	2.5	blank	1.0	202.62153697013855	
37	182.51585912704468	pulse	1	t		35.0	2.5	blank	1.0	204.221519947052	
37	183.03193712234497	fix_post	2		12	35.0	2.5	blank	1.0	204.7375979423523	0.10048103332519531
38	183.13241815567017	fix_pre	0		119	36.0	2.5	/experiments/AOT/AOT_stimuli/rescaled_final/1296_fw.mp4	0.0	204.8380789756775	0.9915409088134766
38	184.11594009399414	pulse	0	t		36.0	2.5	/experiments/AOT/AOT_stimuli/rescaled_final/1296_fw.mp4	0.0	205.82160091400146	
38	184.12395906448364	movie	1		245	36.0	2.5	/experiments/AOT/AOT_stimuli/rescaled_final/1296_fw.mp4	0.0	205.82961988449097	2.508373975753784
38	185.71567606925964	pulse	1	t		36.0	2.5	/experiments/AOT/AOT_stimuli/rescaled_final/1296_fw.mp4	0.0	207.42133688926697	
38	186.63233304023743	fix_post	2		12	36.0	2.5	/experiments/AOT/AOT_stimuli/rescaled_final/1296_fw.mp4	0.0	208.33799386024475	0.0999150276184082
39	186.73224806785583	fix_pre	0		120	37.0	2.5	/experiments/AOT/AOT_stimuli/rescaled_final/1630_rv.mp4	0.0	208.43790888786316	1.0000789165496826
39	187.31719994544983	pulse	0	t		37.0	2.5	/experiments/AOT/AOT_stimuli/rescaled_final/1630_rv.mp4	0.0	209.02286076545715	
39	187.73232698440552	movie	1		245	37.0	2.5	/experiments/AOT/AOT_stimuli/rescaled_final/1630_rv.mp4	0.0	209.43798780441284	2.499986171722412
39	188.91594099998474	pulse	1	t		37.0	2.5	/experiments/AOT/AOT_stimuli/rescaled_final/1630_rv.mp4	0.0	210.62160181999207	
39	190.23231315612793	fix_post	2		12	37.0	2.5	/experiments/AOT/AOT_stimuli/rescaled_final/1630_rv.mp4	0.0	211.93797397613525	0.09996390342712402
40	190.33227705955505	fix_pre	0		120	38.0	2.5	/experiments/AOT/AOT_stimuli/rescaled_final/0552_fw.mp4	0.0	212.03793787956238	0.9995689392089844
40	190.5156650543213	pulse	0	t		38.0	2.5	/experiments/AOT/AOT_stimuli/rescaled_final/0552_fw.mp4	0.0	212.2213258743286	
40	191.33184599876404	movie	1		244	38.0	2.5	/experiments/AOT/AOT_stimuli/rescaled_final/0552_fw.mp4	0.0	213.03750681877136	2.5003740787506104
40	192.11581301689148	pulse	1	t		38.0	2.5	/experiments/AOT/AOT_stimuli/rescaled_final/0552_fw.mp4	0.0	213.8214738368988	
40	193.71186900138855	pulse	1	t		38.0	2.5	/experiments/AOT/AOT_stimuli/rescaled_final/0552_fw.mp4	0.0	215.41752982139587	
40	193.83222007751465	fix_post	2		12	38.0	2.5	/experiments/AOT/AOT_stimuli/rescaled_final/0552_fw.mp4	0.0	215.53788089752197	0.10009407997131348
41	193.93231415748596	fix_pre	0		120	39.0	2.5	/experiments/AOT/AOT_stimuli/rescaled_final/1873_fw.mp4	0.0	215.6379749774933	0.9999678134918213
41	194.93228197097778	movie	1		245	39.0	2.5	/experiments/AOT/AOT_stimuli/rescaled_final/1873_fw.mp4	0.0	216.6379427909851	2.4995481967926025
41	195.31592416763306	pulse	1	t		39.0	2.5	/experiments/AOT/AOT_stimuli/rescaled_final/1873_fw.mp4	0.0	217.02158498764038	
41	196.91574597358704	pulse	1	t		39.0	2.5	/experiments/AOT/AOT_stimuli/rescaled_final/1873_fw.mp4	0.0	218.62140679359436	
41	197.43183016777039	fix_post	2		12	39.0	2.5	/experiments/AOT/AOT_stimuli/rescaled_final/1873_fw.mp4	0.0	219.1374909877777	0.10039496421813965
42	197.53222513198853	fix_pre	0		119	40.0	2.5	blank	1.0	219.23788595199585	0.991689920425415
42	198.51580214500427	pulse	0	t		40.0	2.5	blank	1.0	220.2214629650116	
42	198.52391505241394	movie	1		301	40.0	2.5	blank	1.0	220.22957587242126	2.5083119869232178
42	200.11581110954285	pulse	1	t		40.0	2.5	blank	1.0	221.82147192955017	
42	201.03222703933716	fix_post	2		12	40.0	2.5	blank	1.0	222.73788785934448	0.10009098052978516
43	201.13231801986694	fix_pre	0		120	41.0	2.5	/experiments/AOT/AOT_stimuli/rescaled_final/1456_rv.mp4	0.0	222.83797883987427	0.9995310306549072
43	201.71573114395142	pulse	0	t		41.0	2.5	/experiments/AOT/AOT_stimuli/rescaled_final/1456_rv.mp4	0.0	223.42139196395874	
43	202.13184905052185	movie	1		245	41.0	2.5	/experiments/AOT/AOT_stimuli/rescaled_final/1456_rv.mp4	0.0	223.83750987052917	2.500478982925415
43	203.31579494476318	pulse	1	t		41.0	2.5	/experiments/AOT/AOT_stimuli/rescaled_final/1456_rv.mp4	0.0	225.0214557647705	
43	204.63232803344727	fix_post	2		12	41.0	2.5	/experiments/AOT/AOT_stimuli/rescaled_final/1456_rv.mp4	0.0	226.3379888534546	0.0998990535736084
44	204.73222708702087	fix_pre	0		120	42.0	2.5	/experiments/AOT/AOT_stimuli/rescaled_final/1873_rv.mp4	0.0	226.4378879070282	1.0001208782196045
44	204.91573905944824	pulse	0	t		42.0	2.5	/experiments/AOT/AOT_stimuli/rescaled_final/1873_rv.mp4	0.0	226.62139987945557	
44	205.73234796524048	movie	1		243	42.0	2.5	/experiments/AOT/AOT_stimuli/rescaled_final/1873_rv.mp4	0.0	227.4380087852478	2.499955177307129
44	206.51574301719666	pulse	1	t		42.0	2.5	/experiments/AOT/AOT_stimuli/rescaled_final/1873_rv.mp4	0.0	228.22140383720398	
44	208.11450910568237	pulse	1	t		42.0	2.5	/experiments/AOT/AOT_stimuli/rescaled_final/1873_rv.mp4	0.0	229.8201699256897	
44	208.2323031425476	fix_post	2		12	42.0	2.5	/experiments/AOT/AOT_stimuli/rescaled_final/1873_rv.mp4	0.0	229.93796396255493	0.0998528003692627
45	208.33215594291687	fix_pre	0		120	43.0	2.5	/experiments/AOT/AOT_stimuli/rescaled_final/2136_fw.mp4	0.0	230.0378167629242	1.0000550746917725
45	209.33221101760864	movie	1		247	43.0	2.5	/experiments/AOT/AOT_stimuli/rescaled_final/2136_fw.mp4	0.0	231.03787183761597	2.4995479583740234
45	209.7152750492096	pulse	1	t		43.0	2.5	/experiments/AOT/AOT_stimuli/rescaled_final/2136_fw.mp4	0.0	231.42093586921692	
45	211.31566214561462	pulse	1	t		43.0	2.5	/experiments/AOT/AOT_stimuli/rescaled_final/2136_fw.mp4	0.0	233.02132296562195	
45	211.83175897598267	fix_post	2		12	43.0	2.5	/experiments/AOT/AOT_stimuli/rescaled_final/2136_fw.mp4	0.0	233.53741979599	0.10043811798095703
46	211.93219709396362	fix_pre	0		119	44.0	2.5	/experiments/AOT/AOT_stimuli/rescaled_final/0940_fw.mp4	0.0	233.63785791397095	0.9913699626922607
46	212.91539096832275	pulse	0	t		44.0	2.5	/experiments/AOT/AOT_stimuli/rescaled_final/0940_fw.mp4	0.0	234.62105178833008	
46	212.92356705665588	movie	1		244	44.0	2.5	/experiments/AOT/AOT_stimuli/rescaled_final/0940_fw.mp4	0.0	234.6292278766632	2.508655071258545
46	214.51513600349426	pulse	1	t		44.0	2.5	/experiments/AOT/AOT_stimuli/rescaled_final/0940_fw.mp4	0.0	236.2207968235016	
46	215.43222212791443	fix_post	2		12	44.0	2.5	/experiments/AOT/AOT_stimuli/rescaled_final/0940_fw.mp4	0.0	237.13788294792175	0.10001301765441895
47	215.53223514556885	fix_pre	0		120	45.0	2.5	/experiments/AOT/AOT_stimuli/rescaled_final/2127_rv.mp4	0.0	237.23789596557617	1.0000288486480713
47	216.1157009601593	pulse	0	t		45.0	2.5	/experiments/AOT/AOT_stimuli/rescaled_final/2127_rv.mp4	0.0	237.82136178016663	
47	216.53226399421692	movie	1		250	45.0	2.5	/experiments/AOT/AOT_stimuli/rescaled_final/2127_rv.mp4	0.0	238.23792481422424	2.4999239444732666
47	217.71575593948364	pulse	1	t		45.0	2.5	/experiments/AOT/AOT_stimuli/rescaled_final/2127_rv.mp4	0.0	239.42141675949097	
47	219.03218793869019	fix_post	2		12	45.0	2.5	/experiments/AOT/AOT_stimuli/rescaled_final/2127_rv.mp4	0.0	240.7378487586975	0.09998106956481934
48	219.132169008255	fix_pre	0		120	46.0	2.5	/experiments/AOT/AOT_stimuli/rescaled_final/0787_rv.mp4	0.0	240.83782982826233	1.0000309944152832
48	219.31573009490967	pulse	0	t		46.0	2.5	/experiments/AOT/AOT_stimuli/rescaled_final/0787_rv.mp4	0.0	241.021390914917	
48	220.1322000026703	movie	1		249	46.0	2.5	/experiments/AOT/AOT_stimuli/rescaled_final/0787_rv.mp4	0.0	241.8378608226776	2.49995493888855
48	220.9155831336975	pulse	1	t		46.0	2.5	/experiments/AOT/AOT_stimuli/rescaled_final/0787_rv.mp4	0.0	242.62124395370483	
48	222.5151710510254	pulse	1	t		46.0	2.5	/experiments/AOT/AOT_stimuli/rescaled_final/0787_rv.mp4	0.0	244.22083187103271	
48	222.63215494155884	fix_post	2		12	46.0	2.5	/experiments/AOT/AOT_stimuli/rescaled_final/0787_rv.mp4	0.0	244.33781576156616	0.10000801086425781
49	222.7321629524231	fix_pre	0		120	47.0	2.5	blank	1.0	244.43782377243042	0.9999611377716064
49	223.7321240901947	movie	1		300	47.0	2.5	blank	1.0	245.43778491020203	2.4999918937683105
49	224.11567902565002	pulse	1	t		47.0	2.5	blank	1.0	245.82133984565735	
49	225.71561002731323	pulse	1	t		47.0	2.5	blank	1.0	247.42127084732056	
49	226.232115983963	fix_post	2		12	47.0	2.5	blank	1.0	247.93777680397034	0.10005402565002441
50	226.33217000961304	fix_pre	0		119	48.0	2.5	/experiments/AOT/AOT_stimuli/rescaled_final/1306_rv.mp4	0.0	248.03783082962036	0.9915521144866943
50	227.31574702262878	pulse	0	t		48.0	2.5	/experiments/AOT/AOT_stimuli/rescaled_final/1306_rv.mp4	0.0	249.0214078426361	
50	227.32372212409973	movie	1		245	48.0	2.5	/experiments/AOT/AOT_stimuli/rescaled_final/1306_rv.mp4	0.0	249.02938294410706	2.5083909034729004
50	228.91552209854126	pulse	1	t		48.0	2.5	/experiments/AOT/AOT_stimuli/rescaled_final/1306_rv.mp4	0.0	250.62118291854858	
50	229.83211302757263	fix_post	2		12	48.0	2.5	/experiments/AOT/AOT_stimuli/rescaled_final/1306_rv.mp4	0.0	251.53777384757996	0.09995198249816895
51	229.9320650100708	fix_pre	0		120	49.0	2.5	/experiments/AOT/AOT_stimuli/rescaled_final/2139_rv.mp4	0.0	251.63772583007812	0.9999539852142334
51	230.51559495925903	pulse	0	t		49.0	2.5	/experiments/AOT/AOT_stimuli/rescaled_final/2139_rv.mp4	0.0	252.22125577926636	
51	230.93201899528503	movie	1		245	49.0	2.5	/experiments/AOT/AOT_stimuli/rescaled_final/2139_rv.mp4	0.0	252.63767981529236	2.500058174133301
51	232.11569595336914	pulse	1	t		49.0	2.5	/experiments/AOT/AOT_stimuli/rescaled_final/2139_rv.mp4	0.0	253.82135677337646	
51	233.43207716941833	fix_post	2		12	49.0	2.5	/experiments/AOT/AOT_stimuli/rescaled_final/2139_rv.mp4	0.0	255.13773798942566	0.09962081909179688
52	233.53169798851013	fix_pre	0		120	50.0	2.5	/experiments/AOT/AOT_stimuli/rescaled_final/0282_fw.mp4	0.0	255.23735880851746	1.0004019737243652
52	233.71560096740723	pulse	0	t		50.0	2.5	/experiments/AOT/AOT_stimuli/rescaled_final/0282_fw.mp4	0.0	255.42126178741455	
52	234.5320999622345	movie	1		244	50.0	2.5	/experiments/AOT/AOT_stimuli/rescaled_final/0282_fw.mp4	0.0	256.2377607822418	2.5000550746917725
52	235.31564712524414	pulse	1	t		50.0	2.5	/experiments/AOT/AOT_stimuli/rescaled_final/0282_fw.mp4	0.0	257.02130794525146	
52	236.91420102119446	pulse	1	t		50.0	2.5	/experiments/AOT/AOT_stimuli/rescaled_final/0282_fw.mp4	0.0	258.6198618412018	
52	237.03215503692627	fix_post	2		12	50.0	2.5	/experiments/AOT/AOT_stimuli/rescaled_final/0282_fw.mp4	0.0	258.7378158569336	0.10003304481506348
53	237.13218808174133	fix_pre	0		120	51.0	2.5	/experiments/AOT/AOT_stimuli/rescaled_final/1720_fw.mp4	0.0	258.83784890174866	0.9998340606689453
53	238.13202214241028	movie	1		246	51.0	2.5	/experiments/AOT/AOT_stimuli/rescaled_final/1720_fw.mp4	0.0	259.8376829624176	2.500027894973755
53	238.51539206504822	pulse	1	t		51.0	2.5	/experiments/AOT/AOT_stimuli/rescaled_final/1720_fw.mp4	0.0	260.22105288505554	
53	240.1155400276184	pulse	1	t		51.0	2.5	/experiments/AOT/AOT_stimuli/rescaled_final/1720_fw.mp4	0.0	261.82120084762573	
53	240.63205003738403	fix_post	2		12	51.0	2.5	/experiments/AOT/AOT_stimuli/rescaled_final/1720_fw.mp4	0.0	262.33771085739136	0.10003900527954102
54	240.73208904266357	fix_pre	0		119	52.0	2.5	/experiments/AOT/AOT_stimuli/rescaled_final/0922_fw.mp4	0.0	262.4377498626709	0.9915809631347656
54	241.71560215950012	pulse	0	t		52.0	2.5	/experiments/AOT/AOT_stimuli/rescaled_final/0922_fw.mp4	0.0	263.42126297950745	
54	241.72367000579834	movie	1		249	52.0	2.5	/experiments/AOT/AOT_stimuli/rescaled_final/0922_fw.mp4	0.0	263.42933082580566	2.5084049701690674
54	243.31510710716248	pulse	1	t		52.0	2.5	/experiments/AOT/AOT_stimuli/rescaled_final/0922_fw.mp4	0.0	265.0207679271698	
54	244.2320749759674	fix_post	2		12	52.0	2.5	/experiments/AOT/AOT_stimuli/rescaled_final/0922_fw.mp4	0.0	265.93773579597473	0.09997797012329102
55	244.3320529460907	fix_pre	0		120	53.0	2.5	/experiments/AOT/AOT_stimuli/rescaled_final/1594_fw.mp4	0.0	266.037713766098	1.0
55	244.9155011177063	pulse	0	t		53.0	2.5	/experiments/AOT/AOT_stimuli/rescaled_final/1594_fw.mp4	0.0	266.6211619377136	
55	245.3320529460907	movie	1		246	53.0	2.5	/experiments/AOT/AOT_stimuli/rescaled_final/1594_fw.mp4	0.0	267.037713766098	2.4995250701904297
55	246.51561403274536	pulse	1	t		53.0	2.5	/experiments/AOT/AOT_stimuli/rescaled_final/1594_fw.mp4	0.0	268.2212748527527	
55	247.83157801628113	fix_post	2		12	53.0	2.5	/experiments/AOT/AOT_stimuli/rescaled_final/1594_fw.mp4	0.0	269.53723883628845	0.10038995742797852
56	247.9319679737091	fix_pre	0		120	54.0	2.5	/experiments/AOT/AOT_stimuli/rescaled_final/1461_rv.mp4	0.0	269.63762879371643	1.000068187713623
56	248.11555409431458	pulse	0	t		54.0	2.5	/experiments/AOT/AOT_stimuli/rescaled_final/1461_rv.mp4	0.0	269.8212149143219	
56	248.93203616142273	movie	1		246	54.0	2.5	/experiments/AOT/AOT_stimuli/rescaled_final/1461_rv.mp4	0.0	270.63769698143005	2.5000438690185547
56	249.71553897857666	pulse	1	t		54.0	2.5	/experiments/AOT/AOT_stimuli/rescaled_final/1461_rv.mp4	0.0	271.421199798584	
56	251.31551003456116	pulse	1	t		54.0	2.5	/experiments/AOT/AOT_stimuli/rescaled_final/1461_rv.mp4	0.0	273.0211708545685	
56	251.43208003044128	fix_post	2		12	54.0	2.5	/experiments/AOT/AOT_stimuli/rescaled_final/1461_rv.mp4	0.0	273.1377408504486	0.09994006156921387
57	251.5320200920105	fix_pre	0		120	55.0	2.5	/experiments/AOT/AOT_stimuli/rescaled_final/0948_fw.mp4	0.0	273.2376809120178	0.999945878982544
57	252.53196597099304	movie	1		244	55.0	2.5	/experiments/AOT/AOT_stimuli/rescaled_final/0948_fw.mp4	0.0	274.23762679100037	2.5000290870666504
57	252.91664600372314	pulse	1	t		55.0	2.5	/experiments/AOT/AOT_stimuli/rescaled_final/0948_fw.mp4	0.0	274.62230682373047	
57	254.5154891014099	pulse	1	t		55.0	2.5	/experiments/AOT/AOT_stimuli/rescaled_final/0948_fw.mp4	0.0	276.22114992141724	
57	255.0319950580597	fix_post	2		12	55.0	2.5	/experiments/AOT/AOT_stimuli/rescaled_final/0948_fw.mp4	0.0	276.737655878067	0.10004997253417969
58	255.13204503059387	fix_pre	0		119	56.0	2.5	blank	1.0	276.8377058506012	0.9916410446166992
58	256.11547112464905	pulse	0	t		56.0	2.5	blank	1.0	277.8211319446564	
58	256.12368607521057	movie	1		301	56.0	2.5	blank	1.0	277.8293468952179	2.508378028869629
58	257.71550607681274	pulse	1	t		56.0	2.5	blank	1.0	279.42116689682007	
58	258.6320641040802	fix_post	2		12	56.0	2.5	blank	1.0	280.3377249240875	0.09993791580200195
59	258.7320020198822	fix_pre	0		120	57.0	2.5	/experiments/AOT/AOT_stimuli/rescaled_final/0775_rv.mp4	0.0	280.4376628398895	0.9999361038208008
59	259.31554102897644	pulse	0	t		57.0	2.5	/experiments/AOT/AOT_stimuli/rescaled_final/0775_rv.mp4	0.0	281.02120184898376	
59	259.731938123703	movie	1		245	57.0	2.5	/experiments/AOT/AOT_stimuli/rescaled_final/0775_rv.mp4	0.0	281.4375989437103	2.4995949268341064
59	260.91548109054565	pulse	1	t		57.0	2.5	/experiments/AOT/AOT_stimuli/rescaled_final/0775_rv.mp4	0.0	282.621141910553	
59	262.2315330505371	fix_post	2		12	57.0	2.5	/experiments/AOT/AOT_stimuli/rescaled_final/0775_rv.mp4	0.0	283.93719387054443	0.10036492347717285
60	262.3318979740143	fix_pre	0		120	58.0	2.5	/experiments/AOT/AOT_stimuli/rescaled_final/0916_fw.mp4	0.0	284.0375587940216	1.0001029968261719
60	262.51544213294983	pulse	0	t		58.0	2.5	/experiments/AOT/AOT_stimuli/rescaled_final/0916_fw.mp4	0.0	284.22110295295715	
60	263.33200097084045	movie	1		244	58.0	2.5	/experiments/AOT/AOT_stimuli/rescaled_final/0916_fw.mp4	0.0	285.0376617908478	2.499939203262329
60	264.1154570579529	pulse	1	t		58.0	2.5	/experiments/AOT/AOT_stimuli/rescaled_final/0916_fw.mp4	0.0	285.8211178779602	
60	265.7140700817108	pulse	1	t		58.0	2.5	/experiments/AOT/AOT_stimuli/rescaled_final/0916_fw.mp4	0.0	287.41973090171814	
60	265.8319401741028	fix_post	2		12	58.0	2.5	/experiments/AOT/AOT_stimuli/rescaled_final/0916_fw.mp4	0.0	287.5376009941101	0.10008478164672852
61	265.9320249557495	fix_pre	0		120	59.0	2.5	/experiments/AOT/AOT_stimuli/rescaled_final/0950_rv.mp4	0.0	287.63768577575684	0.9999821186065674
61	266.9320070743561	movie	1		245	59.0	2.5	/experiments/AOT/AOT_stimuli/rescaled_final/0950_rv.mp4	0.0	288.6376678943634	2.499621868133545
61	267.31549310684204	pulse	1	t		59.0	2.5	/experiments/AOT/AOT_stimuli/rescaled_final/0950_rv.mp4	0.0	289.02115392684937	
61	268.91505217552185	pulse	1	t		59.0	2.5	/experiments/AOT/AOT_stimuli/rescaled_final/0950_rv.mp4	0.0	290.6207129955292	
61	269.4316289424896	fix_post	2		12	59.0	2.5	/experiments/AOT/AOT_stimuli/rescaled_final/0950_rv.mp4	0.0	291.13728976249695	0.10044717788696289
62	269.5320761203766	fix_pre	0		119	60.0	2.5	/experiments/AOT/AOT_stimuli/rescaled_final/0627_rv.mp4	0.0	291.2377369403839	0.9917700290679932
62	270.51519203186035	pulse	0	t		60.0	2.5	/experiments/AOT/AOT_stimuli/rescaled_final/0627_rv.mp4	0.0	292.2208528518677	
62	270.5238461494446	movie	1		247	60.0	2.5	/experiments/AOT/AOT_stimuli/rescaled_final/0627_rv.mp4	0.0	292.2295069694519	2.5080878734588623
62	272.11524295806885	pulse	1	t		60.0	2.5	/experiments/AOT/AOT_stimuli/rescaled_final/0627_rv.mp4	0.0	293.8209037780762	
62	273.03193402290344	fix_post	2		12	60.0	2.5	/experiments/AOT/AOT_stimuli/rescaled_final/0627_rv.mp4	0.0	294.73759484291077	0.10000014305114746
63	273.1319341659546	fix_pre	0		120	61.0	2.5	blank	1.0	294.8375949859619	0.999539852142334
63	273.7154200077057	pulse	0	t		61.0	2.5	blank	1.0	295.421080827713	
63	274.1314740180969	movie	1		300	61.0	2.5	blank	1.0	295.83713483810425	2.5003621578216553
63	275.3153851032257	pulse	1	t		61.0	2.5	blank	1.0	297.02104592323303	
63	276.6318361759186	fix_post	2		12	61.0	2.5	blank	1.0	298.3374969959259	0.10006499290466309
64	276.73190116882324	fix_pre	0		120	62.0	2.5	/experiments/AOT/AOT_stimuli/rescaled_final/1081_rv.mp4	0.0	298.43756198883057	0.9999499320983887
64	276.9153289794922	pulse	0	t		62.0	2.5	/experiments/AOT/AOT_stimuli/rescaled_final/1081_rv.mp4	0.0	298.6209897994995	
64	277.73185110092163	movie	1		244	62.0	2.5	/experiments/AOT/AOT_stimuli/rescaled_final/1081_rv.mp4	0.0	299.43751192092896	2.4999799728393555
64	278.5152750015259	pulse	1	t		62.0	2.5	/experiments/AOT/AOT_stimuli/rescaled_final/1081_rv.mp4	0.0	300.2209358215332	
64	280.1139199733734	pulse	1	t		62.0	2.5	/experiments/AOT/AOT_stimuli/rescaled_final/1081_rv.mp4	0.0	301.81958079338074	
64	280.231831073761	fix_post	2		12	62.0	2.5	/experiments/AOT/AOT_stimuli/rescaled_final/1081_rv.mp4	0.0	301.9374918937683	0.0999460220336914
65	280.3317770957947	fix_pre	0		120	63.0	2.5	/experiments/AOT/AOT_stimuli/rescaled_final/1456_fw.mp4	0.0	302.037437915802	1.0000720024108887
65	281.33184909820557	movie	1		245	63.0	2.5	/experiments/AOT/AOT_stimuli/rescaled_final/1456_fw.mp4	0.0	303.0375099182129	2.499948024749756
65	281.71480202674866	pulse	1	t		63.0	2.5	/experiments/AOT/AOT_stimuli/rescaled_final/1456_fw.mp4	0.0	303.420462846756	
65	283.3152720928192	pulse	1	t		63.0	2.5	/experiments/AOT/AOT_stimuli/rescaled_final/1456_fw.mp4	0.0	305.02093291282654	
65	283.8317971229553	fix_post	2		12	63.0	2.5	/experiments/AOT/AOT_stimuli/rescaled_final/1456_fw.mp4	0.0	305.53745794296265	0.10008096694946289
66	283.9318780899048	fix_pre	0		119	64.0	2.5	/experiments/AOT/AOT_stimuli/rescaled_final/0552_rv.mp4	0.0	305.6375389099121	0.9915950298309326
66	284.91536116600037	pulse	0	t		64.0	2.5	/experiments/AOT/AOT_stimuli/rescaled_final/0552_rv.mp4	0.0	306.6210219860077	
66	284.9234731197357	movie	1		248	64.0	2.5	/experiments/AOT/AOT_stimuli/rescaled_final/0552_rv.mp4	0.0	306.62913393974304	2.5079619884490967
66	286.5148820877075	pulse	1	t		64.0	2.5	/experiments/AOT/AOT_stimuli/rescaled_final/0552_rv.mp4	0.0	308.22054290771484	
66	287.4314351081848	fix_post	2		12	64.0	2.5	/experiments/AOT/AOT_stimuli/rescaled_final/0552_rv.mp4	0.0	309.13709592819214	0.10040092468261719
67	287.53183603286743	fix_pre	0		120	65.0	2.5	/experiments/AOT/AOT_stimuli/rescaled_final/1868_fw.mp4	0.0	309.23749685287476	1.0000019073486328
67	288.11530900001526	pulse	0	t		65.0	2.5	/experiments/AOT/AOT_stimuli/rescaled_final/1868_fw.mp4	0.0	309.8209698200226	
67	288.53183794021606	movie	1		247	65.0	2.5	/experiments/AOT/AOT_stimuli/rescaled_final/1868_fw.mp4	0.0	310.2374987602234	2.499990224838257
67	289.71538615226746	pulse	1	t		65.0	2.5	/experiments/AOT/AOT_stimuli/rescaled_final/1868_fw.mp4	0.0	311.4210469722748	
67	291.0318281650543	fix_post	2		12	65.0	2.5	/experiments/AOT/AOT_stimuli/rescaled_final/1868_fw.mp4	0.0	312.73748898506165	0.09993100166320801
68	291.13175916671753	fix_pre	0		120	66.0	2.5	/experiments/AOT/AOT_stimuli/rescaled_final/0282_rv.mp4	0.0	312.83741998672485	1.0000269412994385
68	291.31537914276123	pulse	0	t		66.0	2.5	/experiments/AOT/AOT_stimuli/rescaled_final/0282_rv.mp4	0.0	313.02103996276855	
68	292.13178610801697	movie	1		245	66.0	2.5	/experiments/AOT/AOT_stimuli/rescaled_final/0282_rv.mp4	0.0	313.8374469280243	2.4999749660491943
68	292.9152820110321	pulse	1	t		66.0	2.5	/experiments/AOT/AOT_stimuli/rescaled_final/0282_rv.mp4	0.0	314.62094283103943	
68	294.5138831138611	pulse	1	t		66.0	2.5	/experiments/AOT/AOT_stimuli/rescaled_final/0282_rv.mp4	0.0	316.2195439338684	
68	294.63176107406616	fix_post	2		12	66.0	2.5	/experiments/AOT/AOT_stimuli/rescaled_final/0282_rv.mp4	0.0	316.3374218940735	0.09955787658691406
69	294.7313189506531	fix_pre	0		120	67.0	2.5	/experiments/AOT/AOT_stimuli/rescaled_final/1705_fw.mp4	0.0	316.4369797706604	1.0004241466522217
69	295.7317430973053	movie	1		243	67.0	2.5	/experiments/AOT/AOT_stimuli/rescaled_final/1705_fw.mp4	0.0	317.4374039173126	2.4995720386505127
69	296.1152391433716	pulse	1	t		67.0	2.5	/experiments/AOT/AOT_stimuli/rescaled_final/1705_fw.mp4	0.0	317.8208999633789	
69	297.7152349948883	pulse	1	t		67.0	2.5	/experiments/AOT/AOT_stimuli/rescaled_final/1705_fw.mp4	0.0	319.42089581489563	
69	298.2313151359558	fix_post	2		12	67.0	2.5	/experiments/AOT/AOT_stimuli/rescaled_final/1705_fw.mp4	0.0	319.93697595596313	0.10044598579406738
70	298.3317611217499	fix_pre	0		119	68.0	2.5	/experiments/AOT/AOT_stimuli/rescaled_final/1254_rv.mp4	0.0	320.0374219417572	0.9916348457336426
70	299.3153021335602	pulse	0	t		68.0	2.5	/experiments/AOT/AOT_stimuli/rescaled_final/1254_rv.mp4	0.0	321.0209629535675	
70	299.3233959674835	movie	1		245	68.0	2.5	/experiments/AOT/AOT_stimuli/rescaled_final/1254_rv.mp4	0.0	321.02905678749084	2.5083789825439453
70	300.91514015197754	pulse	1	t		68.0	2.5	/experiments/AOT/AOT_stimuli/rescaled_final/1254_rv.mp4	0.0	322.62080097198486	
70	301.83177495002747	fix_post	2		12	68.0	2.5	/experiments/AOT/AOT_stimuli/rescaled_final/1254_rv.mp4	0.0	323.5374357700348	0.09999418258666992
71	301.93176913261414	fix_pre	0		120	69.0	2.5	/experiments/AOT/AOT_stimuli/rescaled_final/0739_rv.mp4	0.0	323.63742995262146	1.0000128746032715
71	302.5152699947357	pulse	0	t		69.0	2.5	/experiments/AOT/AOT_stimuli/rescaled_final/0739_rv.mp4	0.0	324.22093081474304	
71	302.9317820072174	movie	1		245	69.0	2.5	/experiments/AOT/AOT_stimuli/rescaled_final/0739_rv.mp4	0.0	324.63744282722473	2.499527931213379
71	304.11531114578247	pulse	1	t		69.0	2.5	/experiments/AOT/AOT_stimuli/rescaled_final/0739_rv.mp4	0.0	325.8209719657898	
71	305.4313099384308	fix_post	2		12	69.0	2.5	/experiments/AOT/AOT_stimuli/rescaled_final/0739_rv.mp4	0.0	327.1369707584381	0.10049319267272949
72	305.5318031311035	fix_pre	0		120	70.0	2.5	blank	1.0	327.23746395111084	0.9999208450317383
72	305.71532011032104	pulse	0	t		70.0	2.5	blank	1.0	327.42098093032837	
72	306.53172397613525	movie	1		300	70.0	2.5	blank	1.0	328.2373847961426	2.500012159347534
72	307.3152129650116	pulse	1	t		70.0	2.5	blank	1.0	329.0208737850189	
72	308.91513109207153	pulse	1	t		70.0	2.5	blank	1.0	330.62079191207886	
72	309.0317361354828	fix_post	2		12	70.0	2.5	blank	1.0	330.7373969554901	0.09998583793640137
73	309.1317219734192	fix_pre	0		120	71.0	2.5	/experiments/AOT/AOT_stimuli/rescaled_final/1254_fw.mp4	0.0	330.8373827934265	0.9999980926513672
73	310.13172006607056	movie	1		246	71.0	2.5	/experiments/AOT/AOT_stimuli/rescaled_final/1254_fw.mp4	0.0	331.8373808860779	2.4999380111694336
73	310.5165059566498	pulse	1	t		71.0	2.5	/experiments/AOT/AOT_stimuli/rescaled_final/1254_fw.mp4	0.0	332.2221667766571	
73	312.1152231693268	pulse	1	t		71.0	2.5	/experiments/AOT/AOT_stimuli/rescaled_final/1254_fw.mp4	0.0	333.8208839893341	
73	312.63165807724	fix_post	2		12	71.0	2.5	/experiments/AOT/AOT_stimuli/rescaled_final/1254_fw.mp4	0.0	334.3373188972473	0.09999799728393555
74	312.7316560745239	fix_pre	0		119	72.0	2.5	/experiments/AOT/AOT_stimuli/rescaled_final/2139_fw.mp4	0.0	334.43731689453125	0.991671085357666
74	313.7152180671692	pulse	0	t		72.0	2.5	/experiments/AOT/AOT_stimuli/rescaled_final/2139_fw.mp4	0.0	335.4208788871765	
74	313.7233271598816	movie	1		245	72.0	2.5	/experiments/AOT/AOT_stimuli/rescaled_final/2139_fw.mp4	0.0	335.4289879798889	2.5083138942718506
74	315.3154399394989	pulse	1	t		72.0	2.5	/experiments/AOT/AOT_stimuli/rescaled_final/2139_fw.mp4	0.0	337.0211007595062	
74	316.23164105415344	fix_post	2		12	72.0	2.5	/experiments/AOT/AOT_stimuli/rescaled_final/2139_fw.mp4	0.0	337.93730187416077	0.10000801086425781
75	316.3316490650177	fix_pre	0		120	73.0	2.5	/experiments/AOT/AOT_stimuli/rescaled_final/1882_fw.mp4	0.0	338.037309885025	1.0000689029693604
75	316.9152030944824	pulse	0	t		73.0	2.5	/experiments/AOT/AOT_stimuli/rescaled_final/1882_fw.mp4	0.0	338.62086391448975	
75	317.33171796798706	movie	1		245	73.0	2.5	/experiments/AOT/AOT_stimuli/rescaled_final/1882_fw.mp4	0.0	339.0373787879944	2.4995059967041016
75	318.5153479576111	pulse	1	t		73.0	2.5	/experiments/AOT/AOT_stimuli/rescaled_final/1882_fw.mp4	0.0	340.2210087776184	
75	319.83122396469116	fix_post	2		12	73.0	2.5	/experiments/AOT/AOT_stimuli/rescaled_final/1882_fw.mp4	0.0	341.5368847846985	0.10045599937438965
76	319.93167996406555	fix_pre	0		120	74.0	2.5	/experiments/AOT/AOT_stimuli/rescaled_final/0750_rv.mp4	0.0	341.6373407840729	1.0000371932983398
76	320.1152460575104	pulse	0	t		74.0	2.5	/experiments/AOT/AOT_stimuli/rescaled_final/0750_rv.mp4	0.0	341.8209068775177	
76	320.9317171573639	movie	1		246	74.0	2.5	/experiments/AOT/AOT_stimuli/rescaled_final/0750_rv.mp4	0.0	342.6373779773712	2.5000178813934326
76	321.7151679992676	pulse	1	t		74.0	2.5	/experiments/AOT/AOT_stimuli/rescaled_final/0750_rv.mp4	0.0	343.4208288192749	
76	323.3132150173187	pulse	1	t		74.0	2.5	/experiments/AOT/AOT_stimuli/rescaled_final/0750_rv.mp4	0.0	345.01887583732605	
76	323.4317350387573	fix_post	2		12	74.0	2.5	/experiments/AOT/AOT_stimuli/rescaled_final/0750_rv.mp4	0.0	345.13739585876465	0.09998393058776855
77	323.5317189693451	fix_pre	0		120	75.0	2.5	/experiments/AOT/AOT_stimuli/rescaled_final/0408_rv.mp4	0.0	345.2373797893524	0.9995980262756348
77	324.5313169956207	movie	1		244	75.0	2.5	/experiments/AOT/AOT_stimuli/rescaled_final/0408_rv.mp4	0.0	346.23697781562805	2.5006790161132812
77	324.9146020412445	pulse	1	t		75.0	2.5	/experiments/AOT/AOT_stimuli/rescaled_final/0408_rv.mp4	0.0	346.62026286125183	
77	326.51499915122986	pulse	1	t		75.0	2.5	/experiments/AOT/AOT_stimuli/rescaled_final/0408_rv.mp4	0.0	348.2206599712372	
77	327.031996011734	fix_post	2		12	75.0	2.5	/experiments/AOT/AOT_stimuli/rescaled_final/0408_rv.mp4	0.0	348.73765683174133	0.09959602355957031
78	327.1315920352936	fix_pre	0		119	76.0	2.5	blank	1.0	348.8372528553009	0.991692066192627
78	328.11514711380005	pulse	0	t		76.0	2.5	blank	1.0	349.8208079338074	
78	328.1232841014862	movie	1		301	76.0	2.5	blank	1.0	349.82894492149353	2.508344888687134
78	329.7150390148163	pulse	1	t		76.0	2.5	blank	1.0	351.4206998348236	
78	330.63162899017334	fix_post	2		12	76.0	2.5	blank	1.0	352.33728981018066	0.100067138671875
79	330.7316961288452	fix_pre	0		120	77.0	2.5	/experiments/AOT/AOT_stimuli/rescaled_final/2067_rv.mp4	0.0	352.43735694885254	0.9998648166656494
79	331.3150701522827	pulse	0	t		77.0	2.5	/experiments/AOT/AOT_stimuli/rescaled_final/2067_rv.mp4	0.0	353.02073097229004	
79	331.73156094551086	movie	1		246	77.0	2.5	/experiments/AOT/AOT_stimuli/rescaled_final/2067_rv.mp4	0.0	353.4372217655182	2.499763011932373
79	332.91508197784424	pulse	1	t		77.0	2.5	/experiments/AOT/AOT_stimuli/rescaled_final/2067_rv.mp4	0.0	354.62074279785156	
79	334.23132395744324	fix_post	2		12	77.0	2.5	/experiments/AOT/AOT_stimuli/rescaled_final/2067_rv.mp4	0.0	355.93698477745056	0.10023307800292969
80	334.33155703544617	fix_pre	0		120	78.0	2.5	/experiments/AOT/AOT_stimuli/rescaled_final/0017_rv.mp4	0.0	356.0372178554535	1.0000560283660889
80	334.51505398750305	pulse	0	t		78.0	2.5	/experiments/AOT/AOT_stimuli/rescaled_final/0017_rv.mp4	0.0	356.2207148075104	
80	335.33161306381226	movie	1		245	78.0	2.5	/experiments/AOT/AOT_stimuli/rescaled_final/0017_rv.mp4	0.0	357.0372738838196	2.4995551109313965
80	336.11503314971924	pulse	1	t		78.0	2.5	/experiments/AOT/AOT_stimuli/rescaled_final/0017_rv.mp4	0.0	357.82069396972656	
80	337.7112441062927	pulse	1	t		78.0	2.5	/experiments/AOT/AOT_stimuli/rescaled_final/0017_rv.mp4	0.0	359.41690492630005	
80	337.83116817474365	fix_post	2		12	78.0	2.5	/experiments/AOT/AOT_stimuli/rescaled_final/0017_rv.mp4	0.0	359.536828994751	0.10047078132629395
81	337.93163895606995	fix_pre	0		120	79.0	2.5	/experiments/AOT/AOT_stimuli/rescaled_final/0252_fw.mp4	0.0	359.63729977607727	0.9996130466461182
81	338.93125200271606	movie	1		245	79.0	2.5	/experiments/AOT/AOT_stimuli/rescaled_final/0252_fw.mp4	0.0	360.6369128227234	2.500420093536377
81	339.31520104408264	pulse	1	t		79.0	2.5	/experiments/AOT/AOT_stimuli/rescaled_final/0252_fw.mp4	0.0	361.02086186408997	
81	340.9150061607361	pulse	1	t		79.0	2.5	/experiments/AOT/AOT_stimuli/rescaled_final/0252_fw.mp4	0.0	362.6206669807434	
81	341.43167209625244	fix_post	2		12	79.0	2.5	/experiments/AOT/AOT_stimuli/rescaled_final/0252_fw.mp4	0.0	363.13733291625977	0.0998690128326416
82	341.5315411090851	fix_pre	0		119	80.0	2.5	/experiments/AOT/AOT_stimuli/rescaled_final/0067_fw.mp4	0.0	363.2372019290924	0.9916720390319824
82	342.51502299308777	pulse	0	t		80.0	2.5	/experiments/AOT/AOT_stimuli/rescaled_final/0067_fw.mp4	0.0	364.2206838130951	
82	342.52321314811707	movie	1		247	80.0	2.5	/experiments/AOT/AOT_stimuli/rescaled_final/0067_fw.mp4	0.0	364.2288739681244	2.5080859661102295
82	344.1146340370178	pulse	1	t		80.0	2.5	/experiments/AOT/AOT_stimuli/rescaled_final/0067_fw.mp4	0.0	365.82029485702515	
82	345.0312991142273	fix_post	2		12	80.0	2.5	/experiments/AOT/AOT_stimuli/rescaled_final/0067_fw.mp4	0.0	366.7369599342346	0.10042405128479004
83	345.1317231655121	fix_pre	0		120	81.0	2.5	/experiments/AOT/AOT_stimuli/rescaled_final/2070_fw.mp4	0.0	366.8373839855194	0.9998819828033447
83	345.7150800228119	pulse	0	t		81.0	2.5	/experiments/AOT/AOT_stimuli/rescaled_final/2070_fw.mp4	0.0	367.4207408428192	
83	346.13160514831543	movie	1		246	81.0	2.5	/experiments/AOT/AOT_stimuli/rescaled_final/2070_fw.mp4	0.0	367.83726596832275	2.4995028972625732
83	347.3151111602783	pulse	1	t		81.0	2.5	/experiments/AOT/AOT_stimuli/rescaled_final/2070_fw.mp4	0.0	369.02077198028564	
83	348.631108045578	fix_post	2		12	81.0	2.5	/experiments/AOT/AOT_stimuli/rescaled_final/2070_fw.mp4	0.0	370.3367688655853	0.10039210319519043
84	348.7315001487732	fix_pre	0		120	82.0	2.5	/experiments/AOT/AOT_stimuli/rescaled_final/0171_fw.mp4	0.0	370.4371609687805	1.00003981590271
84	348.9151201248169	pulse	0	t		82.0	2.5	/experiments/AOT/AOT_stimuli/rescaled_final/0171_fw.mp4	0.0	370.6207809448242	
84	349.7315399646759	movie	1		243	82.0	2.5	/experiments/AOT/AOT_stimuli/rescaled_final/0171_fw.mp4	0.0	371.4372007846832	2.499629020690918
84	350.51492714881897	pulse	1	t		82.0	2.5	/experiments/AOT/AOT_stimuli/rescaled_final/0171_fw.mp4	0.0	372.2205879688263	
84	352.1133749485016	pulse	1	t		82.0	2.5	/experiments/AOT/AOT_stimuli/rescaled_final/0171_fw.mp4	0.0	373.8190357685089	
84	352.2311689853668	fix_post	2		12	82.0	2.5	/experiments/AOT/AOT_stimuli/rescaled_final/0171_fw.mp4	0.0	373.93682980537415	0.1002960205078125
85	352.33146500587463	fix_pre	0		120	83.0	2.5	blank	1.0	374.03712582588196	0.9996490478515625
85	353.3311140537262	movie	1		300	83.0	2.5	blank	1.0	375.0367748737335	2.4999608993530273
85	353.7149920463562	pulse	1	t		83.0	2.5	blank	1.0	375.4206528663635	
85	355.3149800300598	pulse	1	t		83.0	2.5	blank	1.0	377.02064085006714	
85	355.8310749530792	fix_post	2		12	83.0	2.5	blank	1.0	377.53673577308655	0.10043501853942871
87	355.93150997161865	stim	0		1716					377.637170791626	14.299973011016846
87	356.91500306129456	pulse	0	t						378.6206638813019	
87	358.51499700546265	pulse	0	t						380.22065782546997	
87	360.1149320602417	pulse	0	t						381.820592880249	
87	361.7149500846863	pulse	0	t						383.4206109046936	
87	363.3149609565735	pulse	0	t						385.0206217765808	
87	364.91488814353943	pulse	0	t						386.62054896354675	
87	366.51491713523865	pulse	0	t						388.220577955246	
87	368.1149010658264	pulse	0	t						389.82056188583374	
87	369.7149090766907	pulse	0	t						391.420569896698	
