trial_nr	onset	event_type	phase	response	nr_frames	movie_index	movie_duration	movie_file	blank	onset_abs	duration
0	0.20829105377197266	stim	0		6					17.39905309677124	0.04989790916442871
0	0.2501680850982666	response	0	space						17.440930128097534	
1	0.25818896293640137	stim	0		4763					17.44895100593567	39.717358112335205
1	39.94535994529724	pulse	0	t						57.13612198829651	
1	39.975547075271606	stim	1		1716					57.166309118270874	14.299043893814087
1	41.5404109954834	pulse	1	t						58.731173038482666	
1	43.14055299758911	pulse	1	t						60.33131504058838	
1	44.74082612991333	pulse	1	t						61.9315881729126	
1	46.34029006958008	pulse	1	t						63.531052112579346	
1	47.940452098846436	pulse	1	t						65.1312141418457	
1	49.54071307182312	pulse	1	t						66.73147511482239	
1	51.140886068344116	pulse	1	t						68.33164811134338	
1	52.74124097824097	pulse	1	t						69.93200302124023	
2	54.27459096908569	fix_pre	0		9	0.0	2.5	/experiments/knapen_AOT/AOT_stimuli/rescaled_final/1076_fw.mp4	0.0	71.46535301208496	0.07498812675476074
2	54.341448068618774	pulse	0	t		0.0	2.5	/experiments/knapen_AOT/AOT_stimuli/rescaled_final/1076_fw.mp4	0.0	71.53221011161804	
2	54.349579095840454	movie	1		242	0.0	2.5	/experiments/knapen_AOT/AOT_stimuli/rescaled_final/1076_fw.mp4	0.0	71.54034113883972	2.508749008178711
2	55.94648504257202	pulse	1	t		0.0	2.5	/experiments/knapen_AOT/AOT_stimuli/rescaled_final/1076_fw.mp4	0.0	73.13724708557129	
2	56.858328104019165	fix_post	2		12	0.0	2.5	/experiments/knapen_AOT/AOT_stimuli/rescaled_final/1076_fw.mp4	0.0	74.04909014701843	0.09999203681945801
3	56.95832014083862	fix_pre	0		120	1.0	2.5	/experiments/knapen_AOT/AOT_stimuli/rescaled_final/0554_fw.mp4	0.0	74.14908218383789	1.000213861465454
3	57.5419659614563	pulse	0	t		1.0	2.5	/experiments/knapen_AOT/AOT_stimuli/rescaled_final/0554_fw.mp4	0.0	74.73272800445557	
3	57.95853400230408	movie	1		241	1.0	2.5	/experiments/knapen_AOT/AOT_stimuli/rescaled_final/0554_fw.mp4	0.0	75.14929604530334	2.500460147857666
3	59.14235305786133	pulse	1	t		1.0	2.5	/experiments/knapen_AOT/AOT_stimuli/rescaled_final/0554_fw.mp4	0.0	76.3331151008606	
3	60.45899415016174	fix_post	2		12	1.0	2.5	/experiments/knapen_AOT/AOT_stimuli/rescaled_final/0554_fw.mp4	0.0	77.64975619316101	0.0998988151550293
4	60.55889296531677	fix_pre	0		120	2.0	2.5	/experiments/knapen_AOT/AOT_stimuli/rescaled_final/1789_rv.mp4	0.0	77.74965500831604	1.0001521110534668
4	60.74252915382385	pulse	0	t		2.0	2.5	/experiments/knapen_AOT/AOT_stimuli/rescaled_final/1789_rv.mp4	0.0	77.93329119682312	
4	61.55904507637024	movie	1		244	2.0	2.5	/experiments/knapen_AOT/AOT_stimuli/rescaled_final/1789_rv.mp4	0.0	78.7498071193695	2.5003678798675537
4	62.342647075653076	pulse	1	t		2.0	2.5	/experiments/knapen_AOT/AOT_stimuli/rescaled_final/1789_rv.mp4	0.0	79.53340911865234	
4	63.94291305541992	pulse	1	t		2.0	2.5	/experiments/knapen_AOT/AOT_stimuli/rescaled_final/1789_rv.mp4	0.0	81.13367509841919	
4	64.0594129562378	fix_post	2		12	2.0	2.5	/experiments/knapen_AOT/AOT_stimuli/rescaled_final/1789_rv.mp4	0.0	81.25017499923706	0.1000370979309082
5	64.1594500541687	fix_pre	0		120	3.0	2.5	/experiments/knapen_AOT/AOT_stimuli/rescaled_final/0148_rv.mp4	0.0	81.35021209716797	1.0000789165496826
5	65.15952897071838	movie	1		242	3.0	2.5	/experiments/knapen_AOT/AOT_stimuli/rescaled_final/0148_rv.mp4	0.0	82.35029101371765	2.492220163345337
5	65.54380798339844	pulse	1	t		3.0	2.5	/experiments/knapen_AOT/AOT_stimuli/rescaled_final/0148_rv.mp4	0.0	82.7345700263977	
5	67.14345407485962	pulse	1	t		3.0	2.5	/experiments/knapen_AOT/AOT_stimuli/rescaled_final/0148_rv.mp4	0.0	84.33421611785889	
5	67.65174913406372	fix_post	2		12	3.0	2.5	/experiments/knapen_AOT/AOT_stimuli/rescaled_final/0148_rv.mp4	0.0	84.84251117706299	0.09989690780639648
6	67.75164604187012	fix_pre	0		120	4.0	2.5	/experiments/knapen_AOT/AOT_stimuli/rescaled_final/1891_fw.mp4	0.0	84.94240808486938	1.0000989437103271
6	68.74366903305054	pulse	0	t		4.0	2.5	/experiments/knapen_AOT/AOT_stimuli/rescaled_final/1891_fw.mp4	0.0	85.9344310760498	
6	68.75174498558044	movie	1		244	4.0	2.5	/experiments/knapen_AOT/AOT_stimuli/rescaled_final/1891_fw.mp4	0.0	85.94250702857971	2.5087890625
6	70.34449601173401	pulse	1	t		4.0	2.5	/experiments/knapen_AOT/AOT_stimuli/rescaled_final/1891_fw.mp4	0.0	87.53525805473328	
6	71.26053404808044	fix_post	2		12	4.0	2.5	/experiments/knapen_AOT/AOT_stimuli/rescaled_final/1891_fw.mp4	0.0	88.45129609107971	0.09995889663696289
7	71.36049294471741	fix_pre	0		120	5.0	2.5	blank	1.0	88.55125498771667	1.0001301765441895
7	71.94414806365967	pulse	0	t		5.0	2.5	blank	1.0	89.13491010665894	
7	72.3606231212616	movie	1		300	5.0	2.5	blank	1.0	89.55138516426086	2.5003609657287598
7	73.54435110092163	pulse	1	t		5.0	2.5	blank	1.0	90.7351131439209	
7	74.86098408699036	fix_post	2		12	5.0	2.5	blank	1.0	92.05174612998962	0.10003495216369629
8	74.96101903915405	fix_pre	0		120	6.0	2.5	/experiments/knapen_AOT/AOT_stimuli/rescaled_final/1039_rv.mp4	0.0	92.15178108215332	1.0001649856567383
8	75.14460897445679	pulse	0	t		6.0	2.5	/experiments/knapen_AOT/AOT_stimuli/rescaled_final/1039_rv.mp4	0.0	92.33537101745605	
8	75.96118402481079	movie	1		242	6.0	2.5	/experiments/knapen_AOT/AOT_stimuli/rescaled_final/1039_rv.mp4	0.0	93.15194606781006	2.5004920959472656
8	76.74476599693298	pulse	1	t		6.0	2.5	/experiments/knapen_AOT/AOT_stimuli/rescaled_final/1039_rv.mp4	0.0	93.93552803993225	
8	78.34562706947327	pulse	1	t		6.0	2.5	/experiments/knapen_AOT/AOT_stimuli/rescaled_final/1039_rv.mp4	0.0	95.53638911247253	
8	78.46167612075806	fix_post	2		12	6.0	2.5	/experiments/knapen_AOT/AOT_stimuli/rescaled_final/1039_rv.mp4	0.0	95.65243816375732	0.09987783432006836
9	78.56155395507812	fix_pre	0		120	7.0	2.5	/experiments/knapen_AOT/AOT_stimuli/rescaled_final/1148_fw.mp4	0.0	95.75231599807739	1.000251054763794
9	79.56180500984192	movie	1		241	7.0	2.5	/experiments/knapen_AOT/AOT_stimuli/rescaled_final/1148_fw.mp4	0.0	96.75256705284119	2.4921021461486816
9	79.94607400894165	pulse	1	t		7.0	2.5	/experiments/knapen_AOT/AOT_stimuli/rescaled_final/1148_fw.mp4	0.0	97.13683605194092	
9	81.54563403129578	pulse	1	t		7.0	2.5	/experiments/knapen_AOT/AOT_stimuli/rescaled_final/1148_fw.mp4	0.0	98.73639607429504	
9	82.0539071559906	fix_post	2		12	7.0	2.5	/experiments/knapen_AOT/AOT_stimuli/rescaled_final/1148_fw.mp4	0.0	99.24466919898987	0.09990501403808594
10	82.15381217002869	fix_pre	0		120	8.0	2.5	/experiments/knapen_AOT/AOT_stimuli/rescaled_final/0291_rv.mp4	0.0	99.34457421302795	1.0001299381256104
10	83.14579606056213	pulse	0	t		8.0	2.5	/experiments/knapen_AOT/AOT_stimuli/rescaled_final/0291_rv.mp4	0.0	100.3365581035614	
10	83.1539421081543	movie	1		245	8.0	2.5	/experiments/knapen_AOT/AOT_stimuli/rescaled_final/0291_rv.mp4	0.0	100.34470415115356	2.5086400508880615
10	84.74653196334839	pulse	1	t		8.0	2.5	/experiments/knapen_AOT/AOT_stimuli/rescaled_final/0291_rv.mp4	0.0	101.93729400634766	
10	85.66258215904236	fix_post	2		12	8.0	2.5	/experiments/knapen_AOT/AOT_stimuli/rescaled_final/0291_rv.mp4	0.0	102.85334420204163	0.10003995895385742
11	85.76262211799622	fix_pre	0		120	9.0	2.5	/experiments/knapen_AOT/AOT_stimuli/rescaled_final/0594_fw.mp4	0.0	102.95338416099548	1.0001718997955322
11	86.34628415107727	pulse	0	t		9.0	2.5	/experiments/knapen_AOT/AOT_stimuli/rescaled_final/0594_fw.mp4	0.0	103.53704619407654	
11	86.76279401779175	movie	1		242	9.0	2.5	/experiments/knapen_AOT/AOT_stimuli/rescaled_final/0594_fw.mp4	0.0	103.95355606079102	2.5006041526794434
11	87.9466381072998	pulse	1	t		9.0	2.5	/experiments/knapen_AOT/AOT_stimuli/rescaled_final/0594_fw.mp4	0.0	105.13740015029907	
11	89.26339817047119	fix_post	2		12	9.0	2.5	/experiments/knapen_AOT/AOT_stimuli/rescaled_final/0594_fw.mp4	0.0	106.45416021347046	0.09978890419006348
12	89.36318707466125	fix_pre	0		120	10.0	2.5	/experiments/knapen_AOT/AOT_stimuli/rescaled_final/2007_rv.mp4	0.0	106.55394911766052	1.0001909732818604
12	89.54675602912903	pulse	0	t		10.0	2.5	/experiments/knapen_AOT/AOT_stimuli/rescaled_final/2007_rv.mp4	0.0	106.7375180721283	
12	90.36337804794312	movie	1		243	10.0	2.5	/experiments/knapen_AOT/AOT_stimuli/rescaled_final/2007_rv.mp4	0.0	107.55414009094238	2.5003130435943604
12	91.14696717262268	pulse	1	t		10.0	2.5	/experiments/knapen_AOT/AOT_stimuli/rescaled_final/2007_rv.mp4	0.0	108.33772921562195	
12	92.74699711799622	pulse	1	t		10.0	2.5	/experiments/knapen_AOT/AOT_stimuli/rescaled_final/2007_rv.mp4	0.0	109.93775916099548	
12	92.86369109153748	fix_post	2		12	10.0	2.5	/experiments/knapen_AOT/AOT_stimuli/rescaled_final/2007_rv.mp4	0.0	110.05445313453674	0.10000205039978027
13	92.96369314193726	fix_pre	0		120	11.0	2.5	/experiments/knapen_AOT/AOT_stimuli/rescaled_final/0615_fw.mp4	0.0	110.15445518493652	1.0001449584960938
13	93.96383810043335	movie	1		241	11.0	2.5	/experiments/knapen_AOT/AOT_stimuli/rescaled_final/0615_fw.mp4	0.0	111.15460014343262	2.4921250343322754
13	94.34819006919861	pulse	1	t		11.0	2.5	/experiments/knapen_AOT/AOT_stimuli/rescaled_final/0615_fw.mp4	0.0	111.53895211219788	
13	95.94773411750793	pulse	1	t		11.0	2.5	/experiments/knapen_AOT/AOT_stimuli/rescaled_final/0615_fw.mp4	0.0	113.1384961605072	
13	96.45596313476562	fix_post	2		12	11.0	2.5	/experiments/knapen_AOT/AOT_stimuli/rescaled_final/0615_fw.mp4	0.0	113.64672517776489	0.10000991821289062
14	96.55597305297852	fix_pre	0		120	12.0	2.5	/experiments/knapen_AOT/AOT_stimuli/rescaled_final/0456_rv.mp4	0.0	113.74673509597778	1.0001220703125
14	97.54785108566284	pulse	0	t		12.0	2.5	/experiments/knapen_AOT/AOT_stimuli/rescaled_final/0456_rv.mp4	0.0	114.73861312866211	
14	97.55609512329102	movie	1		244	12.0	2.5	/experiments/knapen_AOT/AOT_stimuli/rescaled_final/0456_rv.mp4	0.0	114.74685716629028	2.5087380409240723
14	99.1488139629364	pulse	1	t		12.0	2.5	/experiments/knapen_AOT/AOT_stimuli/rescaled_final/0456_rv.mp4	0.0	116.33957600593567	
14	100.06483316421509	fix_post	2		12	12.0	2.5	/experiments/knapen_AOT/AOT_stimuli/rescaled_final/0456_rv.mp4	0.0	117.25559520721436	0.09994196891784668
15	100.16477513313293	fix_pre	0		118	13.0	2.5	/experiments/knapen_AOT/AOT_stimuli/rescaled_final/0615_fw.mp4	0.0	117.3555371761322	1.0001349449157715
15	100.74085307121277	pulse	0	t		13.0	2.5	/experiments/knapen_AOT/AOT_stimuli/rescaled_final/0615_fw.mp4	0.0	117.93161511421204	
15	101.1649100780487	movie	1		242	13.0	2.5	/experiments/knapen_AOT/AOT_stimuli/rescaled_final/0615_fw.mp4	0.0	118.35567212104797	2.5004210472106934
15	102.34163212776184	pulse	1	t		13.0	2.5	/experiments/knapen_AOT/AOT_stimuli/rescaled_final/0615_fw.mp4	0.0	119.53239417076111	
15	103.6653311252594	fix_post	2		12	13.0	2.5	/experiments/knapen_AOT/AOT_stimuli/rescaled_final/0615_fw.mp4	0.0	120.85609316825867	0.09999299049377441
16	103.76532411575317	fix_pre	0		120	14.0	2.5	blank	1.0	120.95608615875244	1.0001790523529053
16	103.9414930343628	pulse	0	t		14.0	2.5	blank	1.0	121.13225507736206	
16	104.76550316810608	movie	1		300	14.0	2.5	blank	1.0	121.95626521110535	2.5003488063812256
16	105.54155898094177	pulse	1	t		14.0	2.5	blank	1.0	122.73232102394104	
16	107.14104413986206	pulse	1	t		14.0	2.5	blank	1.0	124.33180618286133	
16	107.2658519744873	fix_post	2		12	14.0	2.5	blank	1.0	124.45661401748657	0.10000300407409668
17	107.3658549785614	fix_pre	0		119	15.0	2.5	/experiments/knapen_AOT/AOT_stimuli/rescaled_final/1653_rv.mp4	0.0	124.55661702156067	0.9918060302734375
17	108.35766100883484	movie	1		242	15.0	2.5	/experiments/knapen_AOT/AOT_stimuli/rescaled_final/1653_rv.mp4	0.0	125.5484230518341	2.500502109527588
17	108.74162697792053	pulse	1	t		15.0	2.5	/experiments/knapen_AOT/AOT_stimuli/rescaled_final/1653_rv.mp4	0.0	125.9323890209198	
17	110.34143400192261	pulse	1	t		15.0	2.5	/experiments/knapen_AOT/AOT_stimuli/rescaled_final/1653_rv.mp4	0.0	127.53219604492188	
17	110.85816311836243	fix_post	2		12	15.0	2.5	/experiments/knapen_AOT/AOT_stimuli/rescaled_final/1653_rv.mp4	0.0	128.0489251613617	0.09997200965881348
18	110.95813512802124	fix_pre	0		119	16.0	2.5	/experiments/knapen_AOT/AOT_stimuli/rescaled_final/1548_fw.mp4	0.0	128.1488971710205	0.9917428493499756
18	111.94177794456482	pulse	0	t		16.0	2.5	/experiments/knapen_AOT/AOT_stimuli/rescaled_final/1548_fw.mp4	0.0	129.1325399875641	
18	111.94987797737122	movie	1		244	16.0	2.5	/experiments/knapen_AOT/AOT_stimuli/rescaled_final/1548_fw.mp4	0.0	129.14064002037048	2.5087671279907227
18	113.5425660610199	pulse	1	t		16.0	2.5	/experiments/knapen_AOT/AOT_stimuli/rescaled_final/1548_fw.mp4	0.0	130.73332810401917	
18	114.45864510536194	fix_post	2		12	16.0	2.5	/experiments/knapen_AOT/AOT_stimuli/rescaled_final/1548_fw.mp4	0.0	131.6494071483612	0.09992504119873047
19	114.55857014656067	fix_pre	0		120	17.0	2.5	/experiments/knapen_AOT/AOT_stimuli/rescaled_final/0609_rv.mp4	0.0	131.74933218955994	1.0001769065856934
19	115.1422221660614	pulse	0	t		17.0	2.5	/experiments/knapen_AOT/AOT_stimuli/rescaled_final/0609_rv.mp4	0.0	132.33298420906067	
19	115.55874705314636	movie	1		243	17.0	2.5	/experiments/knapen_AOT/AOT_stimuli/rescaled_final/0609_rv.mp4	0.0	132.74950909614563	2.5003929138183594
19	116.74249815940857	pulse	1	t		17.0	2.5	/experiments/knapen_AOT/AOT_stimuli/rescaled_final/0609_rv.mp4	0.0	133.93326020240784	
19	118.05913996696472	fix_post	2		12	17.0	2.5	/experiments/knapen_AOT/AOT_stimuli/rescaled_final/0609_rv.mp4	0.0	135.249902009964	0.10007810592651367
20	118.15921807289124	fix_pre	0		120	18.0	2.5	/experiments/knapen_AOT/AOT_stimuli/rescaled_final/0968_fw.mp4	0.0	135.3499801158905	1.0000488758087158
20	118.34270310401917	pulse	0	t		18.0	2.5	/experiments/knapen_AOT/AOT_stimuli/rescaled_final/0968_fw.mp4	0.0	135.53346514701843	
20	119.15926694869995	movie	1		242	18.0	2.5	/experiments/knapen_AOT/AOT_stimuli/rescaled_final/0968_fw.mp4	0.0	136.35002899169922	2.500472068786621
20	119.94293904304504	pulse	1	t		18.0	2.5	/experiments/knapen_AOT/AOT_stimuli/rescaled_final/0968_fw.mp4	0.0	137.1337010860443	
20	121.54311800003052	pulse	1	t		18.0	2.5	/experiments/knapen_AOT/AOT_stimuli/rescaled_final/0968_fw.mp4	0.0	138.73388004302979	
20	121.65973901748657	fix_post	2		12	18.0	2.5	/experiments/knapen_AOT/AOT_stimuli/rescaled_final/0968_fw.mp4	0.0	138.85050106048584	0.09991812705993652
21	121.75965714454651	fix_pre	0		120	19.0	2.5	/experiments/knapen_AOT/AOT_stimuli/rescaled_final/0597_rv.mp4	0.0	138.95041918754578	1.0001418590545654
21	122.75979900360107	movie	1		242	19.0	2.5	/experiments/knapen_AOT/AOT_stimuli/rescaled_final/0597_rv.mp4	0.0	139.95056104660034	2.492182970046997
21	123.14429116249084	pulse	1	t		19.0	2.5	/experiments/knapen_AOT/AOT_stimuli/rescaled_final/0597_rv.mp4	0.0	140.3350532054901	
21	124.74368405342102	pulse	1	t		19.0	2.5	/experiments/knapen_AOT/AOT_stimuli/rescaled_final/0597_rv.mp4	0.0	141.9344460964203	
21	125.25198197364807	fix_post	2		12	19.0	2.5	/experiments/knapen_AOT/AOT_stimuli/rescaled_final/0597_rv.mp4	0.0	142.44274401664734	0.09993314743041992
22	125.35191512107849	fix_pre	0		120	20.0	2.5	/experiments/knapen_AOT/AOT_stimuli/rescaled_final/0694_rv.mp4	0.0	142.54267716407776	1.0001299381256104
22	126.3438310623169	pulse	0	t		20.0	2.5	/experiments/knapen_AOT/AOT_stimuli/rescaled_final/0694_rv.mp4	0.0	143.53459310531616	
22	126.3520450592041	movie	1		243	20.0	2.5	/experiments/knapen_AOT/AOT_stimuli/rescaled_final/0694_rv.mp4	0.0	143.54280710220337	2.5087480545043945
22	127.9447591304779	pulse	1	t		20.0	2.5	/experiments/knapen_AOT/AOT_stimuli/rescaled_final/0694_rv.mp4	0.0	145.13552117347717	
22	128.8607931137085	fix_post	2		12	20.0	2.5	/experiments/knapen_AOT/AOT_stimuli/rescaled_final/0694_rv.mp4	0.0	146.05155515670776	0.09993696212768555
23	128.96073007583618	fix_pre	0		120	21.0	2.5	blank	1.0	146.15149211883545	1.0001590251922607
23	129.54437017440796	pulse	0	t		21.0	2.5	blank	1.0	146.73513221740723	
23	129.96088910102844	movie	1		300	21.0	2.5	blank	1.0	147.1516511440277	2.500385046005249
23	131.14463996887207	pulse	1	t		21.0	2.5	blank	1.0	148.33540201187134	
23	132.4612741470337	fix_post	2		12	21.0	2.5	blank	1.0	149.65203619003296	0.10000801086425781
24	132.56128215789795	fix_pre	0		120	22.0	2.5	/experiments/knapen_AOT/AOT_stimuli/rescaled_final/0985_rv.mp4	0.0	149.75204420089722	1.0001599788665771
24	132.74482798576355	pulse	0	t		22.0	2.5	/experiments/knapen_AOT/AOT_stimuli/rescaled_final/0985_rv.mp4	0.0	149.93559002876282	
24	133.56144213676453	movie	1		243	22.0	2.5	/experiments/knapen_AOT/AOT_stimuli/rescaled_final/0985_rv.mp4	0.0	150.7522041797638	2.500478982925415
24	134.34502911567688	pulse	1	t		22.0	2.5	/experiments/knapen_AOT/AOT_stimuli/rescaled_final/0985_rv.mp4	0.0	151.53579115867615	
24	135.94592213630676	pulse	1	t		22.0	2.5	/experiments/knapen_AOT/AOT_stimuli/rescaled_final/0985_rv.mp4	0.0	153.13668417930603	
24	136.06192111968994	fix_post	2		12	22.0	2.5	/experiments/knapen_AOT/AOT_stimuli/rescaled_final/0985_rv.mp4	0.0	153.2526831626892	0.09988689422607422
25	136.16180801391602	fix_pre	0		120	23.0	2.5	/experiments/knapen_AOT/AOT_stimuli/rescaled_final/0072_fw.mp4	0.0	153.35257005691528	1.0001511573791504
25	137.16195917129517	movie	1		242	23.0	2.5	/experiments/knapen_AOT/AOT_stimuli/rescaled_final/0072_fw.mp4	0.0	154.35272121429443	2.492067813873291
25	137.5462770462036	pulse	1	t		23.0	2.5	/experiments/knapen_AOT/AOT_stimuli/rescaled_final/0072_fw.mp4	0.0	154.73703908920288	
25	139.14574313163757	pulse	1	t		23.0	2.5	/experiments/knapen_AOT/AOT_stimuli/rescaled_final/0072_fw.mp4	0.0	156.33650517463684	
25	139.65402698516846	fix_post	2		12	23.0	2.5	/experiments/knapen_AOT/AOT_stimuli/rescaled_final/0072_fw.mp4	0.0	156.84478902816772	0.1000370979309082
26	139.75406408309937	fix_pre	0		120	24.0	2.5	/experiments/knapen_AOT/AOT_stimuli/rescaled_final/0079_rv.mp4	0.0	156.94482612609863	1.000105857849121
26	140.74609208106995	pulse	0	t		24.0	2.5	/experiments/knapen_AOT/AOT_stimuli/rescaled_final/0079_rv.mp4	0.0	157.9368541240692	
26	140.7541699409485	movie	1		243	24.0	2.5	/experiments/knapen_AOT/AOT_stimuli/rescaled_final/0079_rv.mp4	0.0	157.94493198394775	2.5087411403656006
26	142.34701895713806	pulse	1	t		24.0	2.5	/experiments/knapen_AOT/AOT_stimuli/rescaled_final/0079_rv.mp4	0.0	159.53778100013733	
26	143.2629110813141	fix_post	2		12	24.0	2.5	/experiments/knapen_AOT/AOT_stimuli/rescaled_final/0079_rv.mp4	0.0	160.45367312431335	0.09995102882385254
27	143.36286211013794	fix_pre	0		120	25.0	2.5	/experiments/knapen_AOT/AOT_stimuli/rescaled_final/0862_fw.mp4	0.0	160.5536241531372	1.000216007232666
27	143.9465479850769	pulse	0	t		25.0	2.5	/experiments/knapen_AOT/AOT_stimuli/rescaled_final/0862_fw.mp4	0.0	161.13731002807617	
27	144.3630781173706	movie	1		242	25.0	2.5	/experiments/knapen_AOT/AOT_stimuli/rescaled_final/0862_fw.mp4	0.0	161.55384016036987	2.5004498958587646
27	145.546795129776	pulse	1	t		25.0	2.5	/experiments/knapen_AOT/AOT_stimuli/rescaled_final/0862_fw.mp4	0.0	162.73755717277527	
27	146.86352801322937	fix_post	2		12	25.0	2.5	/experiments/knapen_AOT/AOT_stimuli/rescaled_final/0862_fw.mp4	0.0	164.05429005622864	0.099945068359375
28	146.96347308158875	fix_pre	0		120	26.0	2.5	/experiments/knapen_AOT/AOT_stimuli/rescaled_final/0802_rv.mp4	0.0	164.154235124588	1.0001208782196045
28	147.1469841003418	pulse	0	t		26.0	2.5	/experiments/knapen_AOT/AOT_stimuli/rescaled_final/0802_rv.mp4	0.0	164.33774614334106	
28	147.96359395980835	movie	1		243	26.0	2.5	/experiments/knapen_AOT/AOT_stimuli/rescaled_final/0802_rv.mp4	0.0	165.15435600280762	2.500552177429199
28	148.74729895591736	pulse	1	t		26.0	2.5	/experiments/knapen_AOT/AOT_stimuli/rescaled_final/0802_rv.mp4	0.0	165.93806099891663	
28	150.3475091457367	pulse	1	t		26.0	2.5	/experiments/knapen_AOT/AOT_stimuli/rescaled_final/0802_rv.mp4	0.0	167.53827118873596	
28	150.46414613723755	fix_post	2		12	26.0	2.5	/experiments/knapen_AOT/AOT_stimuli/rescaled_final/0802_rv.mp4	0.0	167.65490818023682	0.09982490539550781
29	150.56397104263306	fix_pre	0		120	27.0	2.5	blank	1.0	167.75473308563232	1.000169038772583
29	151.56414008140564	movie	1		299	27.0	2.5	blank	1.0	168.7549021244049	2.492058038711548
29	151.94778203964233	pulse	1	t		27.0	2.5	blank	1.0	169.1385440826416	
29	153.54040217399597	pulse	1	t		27.0	2.5	blank	1.0	170.73116421699524	
29	154.0561981201172	fix_post	2		12	27.0	2.5	blank	1.0	171.24696016311646	0.09999895095825195
30	154.15619707107544	fix_pre	0		120	28.0	2.5	/experiments/knapen_AOT/AOT_stimuli/rescaled_final/0826_fw.mp4	0.0	171.3469591140747	1.0001609325408936
30	155.14062595367432	pulse	0	t		28.0	2.5	/experiments/knapen_AOT/AOT_stimuli/rescaled_final/0826_fw.mp4	0.0	172.33138799667358	
30	155.15635800361633	movie	1		244	28.0	2.5	/experiments/knapen_AOT/AOT_stimuli/rescaled_final/0826_fw.mp4	0.0	172.3471200466156	2.508774995803833
30	156.74911999702454	pulse	1	t		28.0	2.5	/experiments/knapen_AOT/AOT_stimuli/rescaled_final/0826_fw.mp4	0.0	173.9398820400238	
30	157.66513299942017	fix_post	2		12	28.0	2.5	/experiments/knapen_AOT/AOT_stimuli/rescaled_final/0826_fw.mp4	0.0	174.85589504241943	0.09994006156921387
31	157.76507306098938	fix_pre	0		120	29.0	2.5	/experiments/knapen_AOT/AOT_stimuli/rescaled_final/0240_fw.mp4	0.0	174.95583510398865	1.0001320838928223
31	158.34117007255554	pulse	0	t		29.0	2.5	/experiments/knapen_AOT/AOT_stimuli/rescaled_final/0240_fw.mp4	0.0	175.5319321155548	
31	158.7652051448822	movie	1		243	29.0	2.5	/experiments/knapen_AOT/AOT_stimuli/rescaled_final/0240_fw.mp4	0.0	175.95596718788147	2.500469923019409
31	159.9418261051178	pulse	1	t		29.0	2.5	/experiments/knapen_AOT/AOT_stimuli/rescaled_final/0240_fw.mp4	0.0	177.13258814811707	
31	161.2656750679016	fix_post	2		12	29.0	2.5	/experiments/knapen_AOT/AOT_stimuli/rescaled_final/0240_fw.mp4	0.0	178.45643711090088	0.09989309310913086
32	161.36556816101074	fix_pre	0		120	30.0	2.5	/experiments/knapen_AOT/AOT_stimuli/rescaled_final/2102_fw.mp4	0.0	178.55633020401	1.0001490116119385
32	161.54079794883728	pulse	0	t		30.0	2.5	/experiments/knapen_AOT/AOT_stimuli/rescaled_final/2102_fw.mp4	0.0	178.73155999183655	
32	162.36571717262268	movie	1		242	30.0	2.5	/experiments/knapen_AOT/AOT_stimuli/rescaled_final/2102_fw.mp4	0.0	179.55647921562195	2.500635862350464
32	163.14100313186646	pulse	1	t		30.0	2.5	/experiments/knapen_AOT/AOT_stimuli/rescaled_final/2102_fw.mp4	0.0	180.33176517486572	
32	164.7413730621338	pulse	1	t		30.0	2.5	/experiments/knapen_AOT/AOT_stimuli/rescaled_final/2102_fw.mp4	0.0	181.93213510513306	
32	164.86635303497314	fix_post	2		8	30.0	2.5	/experiments/knapen_AOT/AOT_stimuli/rescaled_final/2102_fw.mp4	0.0	182.0571150779724	0.09976792335510254
33	164.96612095832825	fix_pre	0		120	31.0	2.5	/experiments/knapen_AOT/AOT_stimuli/rescaled_final/1076_rv.mp4	0.0	182.15688300132751	1.000143051147461
33	165.9662640094757	movie	1		241	31.0	2.5	/experiments/knapen_AOT/AOT_stimuli/rescaled_final/1076_rv.mp4	0.0	183.15702605247498	2.4922051429748535
33	166.34154295921326	pulse	1	t		31.0	2.5	/experiments/knapen_AOT/AOT_stimuli/rescaled_final/1076_rv.mp4	0.0	183.53230500221252	
33	167.94182205200195	pulse	1	t		31.0	2.5	/experiments/knapen_AOT/AOT_stimuli/rescaled_final/1076_rv.mp4	0.0	185.13258409500122	
33	168.45846915245056	fix_post	2		12	31.0	2.5	/experiments/knapen_AOT/AOT_stimuli/rescaled_final/1076_rv.mp4	0.0	185.64923119544983	0.09989285469055176
34	168.5583620071411	fix_pre	0		119	32.0	2.5	/experiments/knapen_AOT/AOT_stimuli/rescaled_final/0543_fw.mp4	0.0	185.74912405014038	0.991814136505127
34	169.54199314117432	pulse	0	t		32.0	2.5	/experiments/knapen_AOT/AOT_stimuli/rescaled_final/0543_fw.mp4	0.0	186.73275518417358	
34	169.55017614364624	movie	1		244	32.0	2.5	/experiments/knapen_AOT/AOT_stimuli/rescaled_final/0543_fw.mp4	0.0	186.7409381866455	2.5087809562683105
34	171.14364504814148	pulse	1	t		32.0	2.5	/experiments/knapen_AOT/AOT_stimuli/rescaled_final/0543_fw.mp4	0.0	188.33440709114075	
34	172.05895709991455	fix_post	2		12	32.0	2.5	/experiments/knapen_AOT/AOT_stimuli/rescaled_final/0543_fw.mp4	0.0	189.24971914291382	0.0999300479888916
35	172.15888714790344	fix_pre	0		120	33.0	2.5	blank	1.0	189.3496491909027	1.0001068115234375
35	172.74252796173096	pulse	0	t		33.0	2.5	blank	1.0	189.93329000473022	
35	173.15899395942688	movie	1		300	33.0	2.5	blank	1.0	190.34975600242615	2.500375986099243
35	174.3427860736847	pulse	1	t		33.0	2.5	blank	1.0	191.53354811668396	
35	175.65936994552612	fix_post	2		12	33.0	2.5	blank	1.0	192.8501319885254	0.10007500648498535
36	175.7594449520111	fix_pre	0		120	34.0	2.5	/experiments/knapen_AOT/AOT_stimuli/rescaled_final/1915_rv.mp4	0.0	192.95020699501038	1.0001161098480225
36	175.94308614730835	pulse	0	t		34.0	2.5	/experiments/knapen_AOT/AOT_stimuli/rescaled_final/1915_rv.mp4	0.0	193.13384819030762	
36	176.75956106185913	movie	1		242	34.0	2.5	/experiments/knapen_AOT/AOT_stimuli/rescaled_final/1915_rv.mp4	0.0	193.9503231048584	2.50056791305542
36	177.54322695732117	pulse	1	t		34.0	2.5	/experiments/knapen_AOT/AOT_stimuli/rescaled_final/1915_rv.mp4	0.0	194.73398900032043	
36	179.14348912239075	pulse	1	t		34.0	2.5	/experiments/knapen_AOT/AOT_stimuli/rescaled_final/1915_rv.mp4	0.0	196.33425116539001	
36	179.26012897491455	fix_post	2		12	34.0	2.5	/experiments/knapen_AOT/AOT_stimuli/rescaled_final/1915_rv.mp4	0.0	196.45089101791382	0.0998079776763916
37	179.35993695259094	fix_pre	0		120	35.0	2.5	/experiments/knapen_AOT/AOT_stimuli/rescaled_final/0054_fw.mp4	0.0	196.5506989955902	1.000162124633789
37	180.36009907722473	movie	1		242	35.0	2.5	/experiments/knapen_AOT/AOT_stimuli/rescaled_final/0054_fw.mp4	0.0	197.550861120224	2.492192029953003
37	180.74484014511108	pulse	1	t		35.0	2.5	/experiments/knapen_AOT/AOT_stimuli/rescaled_final/0054_fw.mp4	0.0	197.93560218811035	
37	182.34389209747314	pulse	1	t		35.0	2.5	/experiments/knapen_AOT/AOT_stimuli/rescaled_final/0054_fw.mp4	0.0	199.5346541404724	
37	182.85229110717773	fix_post	2		12	35.0	2.5	/experiments/knapen_AOT/AOT_stimuli/rescaled_final/0054_fw.mp4	0.0	200.043053150177	0.09988093376159668
38	182.95217204093933	fix_pre	0		120	36.0	2.5	/experiments/knapen_AOT/AOT_stimuli/rescaled_final/1678_rv.mp4	0.0	200.1429340839386	1.0001609325408936
38	183.94422817230225	pulse	0	t		36.0	2.5	/experiments/knapen_AOT/AOT_stimuli/rescaled_final/1678_rv.mp4	0.0	201.1349902153015	
38	183.95233297348022	movie	1		243	36.0	2.5	/experiments/knapen_AOT/AOT_stimuli/rescaled_final/1678_rv.mp4	0.0	201.1430950164795	2.5087451934814453
38	185.5462989807129	pulse	1	t		36.0	2.5	/experiments/knapen_AOT/AOT_stimuli/rescaled_final/1678_rv.mp4	0.0	202.73706102371216	
38	186.46107816696167	fix_post	2		12	36.0	2.5	/experiments/knapen_AOT/AOT_stimuli/rescaled_final/1678_rv.mp4	0.0	203.65184020996094	0.09995388984680176
39	186.56103205680847	fix_pre	0		120	37.0	2.5	/experiments/knapen_AOT/AOT_stimuli/rescaled_final/0345_fw.mp4	0.0	203.75179409980774	1.0001389980316162
39	187.14471101760864	pulse	0	t		37.0	2.5	/experiments/knapen_AOT/AOT_stimuli/rescaled_final/0345_fw.mp4	0.0	204.3354730606079	
39	187.5611710548401	movie	1		242	37.0	2.5	/experiments/knapen_AOT/AOT_stimuli/rescaled_final/0345_fw.mp4	0.0	204.75193309783936	2.5005550384521484
39	188.7450430393219	pulse	1	t		37.0	2.5	/experiments/knapen_AOT/AOT_stimuli/rescaled_final/0345_fw.mp4	0.0	205.93580508232117	
39	190.06172609329224	fix_post	2		12	37.0	2.5	/experiments/knapen_AOT/AOT_stimuli/rescaled_final/0345_fw.mp4	0.0	207.2524881362915	0.09983086585998535
40	190.16155695915222	fix_pre	0		120	38.0	2.5	/experiments/knapen_AOT/AOT_stimuli/rescaled_final/1622_rv.mp4	0.0	207.3523190021515	1.0001270771026611
40	190.3451371192932	pulse	0	t		38.0	2.5	/experiments/knapen_AOT/AOT_stimuli/rescaled_final/1622_rv.mp4	0.0	207.53589916229248	
40	191.16168403625488	movie	1		242	38.0	2.5	/experiments/knapen_AOT/AOT_stimuli/rescaled_final/1622_rv.mp4	0.0	208.35244607925415	2.500560998916626
40	191.94537210464478	pulse	1	t		38.0	2.5	/experiments/knapen_AOT/AOT_stimuli/rescaled_final/1622_rv.mp4	0.0	209.13613414764404	
40	193.54544496536255	pulse	1	t		38.0	2.5	/experiments/knapen_AOT/AOT_stimuli/rescaled_final/1622_rv.mp4	0.0	210.73620700836182	
40	193.6622450351715	fix_post	2		12	38.0	2.5	/experiments/knapen_AOT/AOT_stimuli/rescaled_final/1622_rv.mp4	0.0	210.85300707817078	0.09980607032775879
41	193.76205110549927	fix_pre	0		120	39.0	2.5	/experiments/knapen_AOT/AOT_stimuli/rescaled_final/1748_rv.mp4	0.0	210.95281314849854	1.0001699924468994
41	194.76222109794617	movie	1		241	39.0	2.5	/experiments/knapen_AOT/AOT_stimuli/rescaled_final/1748_rv.mp4	0.0	211.95298314094543	2.492119073867798
41	195.1464500427246	pulse	1	t		39.0	2.5	/experiments/knapen_AOT/AOT_stimuli/rescaled_final/1748_rv.mp4	0.0	212.33721208572388	
41	196.74609303474426	pulse	1	t		39.0	2.5	/experiments/knapen_AOT/AOT_stimuli/rescaled_final/1748_rv.mp4	0.0	213.93685507774353	
41	197.25434017181396	fix_post	2		12	39.0	2.5	/experiments/knapen_AOT/AOT_stimuli/rescaled_final/1748_rv.mp4	0.0	214.44510221481323	0.09998297691345215
42	197.35432314872742	fix_pre	0		120	40.0	2.5	/experiments/knapen_AOT/AOT_stimuli/rescaled_final/1891_fw.mp4	0.0	214.54508519172668	1.0001308917999268
42	198.3463499546051	pulse	0	t		40.0	2.5	/experiments/knapen_AOT/AOT_stimuli/rescaled_final/1891_fw.mp4	0.0	215.53711199760437	
42	198.35445404052734	movie	1		244	40.0	2.5	/experiments/knapen_AOT/AOT_stimuli/rescaled_final/1891_fw.mp4	0.0	215.5452160835266	2.5087270736694336
42	199.95107793807983	pulse	1	t		40.0	2.5	/experiments/knapen_AOT/AOT_stimuli/rescaled_final/1891_fw.mp4	0.0	217.1418399810791	
42	200.86318111419678	fix_post	2		12	40.0	2.5	/experiments/knapen_AOT/AOT_stimuli/rescaled_final/1891_fw.mp4	0.0	218.05394315719604	0.09999799728393555
43	200.9631791114807	fix_pre	0		120	41.0	2.5	/experiments/knapen_AOT/AOT_stimuli/rescaled_final/0196_fw.mp4	0.0	218.15394115447998	1.000140905380249
43	201.54680514335632	pulse	0	t		41.0	2.5	/experiments/knapen_AOT/AOT_stimuli/rescaled_final/0196_fw.mp4	0.0	218.7375671863556	
43	201.96332001686096	movie	1		242	41.0	2.5	/experiments/knapen_AOT/AOT_stimuli/rescaled_final/0196_fw.mp4	0.0	219.15408205986023	2.500498056411743
43	203.1470170021057	pulse	1	t		41.0	2.5	/experiments/knapen_AOT/AOT_stimuli/rescaled_final/0196_fw.mp4	0.0	220.33777904510498	
43	204.4638180732727	fix_post	2		12	41.0	2.5	/experiments/knapen_AOT/AOT_stimuli/rescaled_final/0196_fw.mp4	0.0	221.65458011627197	0.09991598129272461
44	204.56373405456543	fix_pre	0		120	42.0	2.5	blank	1.0	221.7544960975647	1.0001089572906494
44	204.74727416038513	pulse	0	t		42.0	2.5	blank	1.0	221.9380362033844	
44	205.56384301185608	movie	1		300	42.0	2.5	blank	1.0	222.75460505485535	2.500391960144043
44	206.34748911857605	pulse	1	t		42.0	2.5	blank	1.0	223.53825116157532	
44	207.94779801368713	pulse	1	t		42.0	2.5	blank	1.0	225.1385600566864	
44	208.06423497200012	fix_post	2		12	42.0	2.5	blank	1.0	225.2549970149994	0.10002803802490234
45	208.16426301002502	fix_pre	0		120	43.0	2.5	/experiments/knapen_AOT/AOT_stimuli/rescaled_final/2047_fw.mp4	0.0	225.3550250530243	1.0001630783081055
45	209.16442608833313	movie	1		242	43.0	2.5	/experiments/knapen_AOT/AOT_stimuli/rescaled_final/2047_fw.mp4	0.0	226.3551881313324	2.492203950881958
45	209.55222296714783	pulse	1	t		43.0	2.5	/experiments/knapen_AOT/AOT_stimuli/rescaled_final/2047_fw.mp4	0.0	226.7429850101471	
45	211.14823007583618	pulse	1	t		43.0	2.5	/experiments/knapen_AOT/AOT_stimuli/rescaled_final/2047_fw.mp4	0.0	228.33899211883545	
45	211.6566300392151	fix_post	2		12	43.0	2.5	/experiments/knapen_AOT/AOT_stimuli/rescaled_final/2047_fw.mp4	0.0	228.84739208221436	0.099822998046875
46	211.75645303726196	fix_pre	0		120	44.0	2.5	/experiments/knapen_AOT/AOT_stimuli/rescaled_final/0312_fw.mp4	0.0	228.94721508026123	1.0001120567321777
46	212.74844098091125	pulse	0	t		44.0	2.5	/experiments/knapen_AOT/AOT_stimuli/rescaled_final/0312_fw.mp4	0.0	229.93920302391052	
46	212.75656509399414	movie	1		243	44.0	2.5	/experiments/knapen_AOT/AOT_stimuli/rescaled_final/0312_fw.mp4	0.0	229.9473271369934	2.508744955062866
46	214.3493571281433	pulse	1	t		44.0	2.5	/experiments/knapen_AOT/AOT_stimuli/rescaled_final/0312_fw.mp4	0.0	231.54011917114258	
46	215.265310049057	fix_post	2		12	44.0	2.5	/experiments/knapen_AOT/AOT_stimuli/rescaled_final/0312_fw.mp4	0.0	232.45607209205627	0.1000370979309082
47	215.36534714698792	fix_pre	0		120	45.0	2.5	/experiments/knapen_AOT/AOT_stimuli/rescaled_final/1563_rv.mp4	0.0	232.55610918998718	1.0001599788665771
47	215.94136309623718	pulse	0	t		45.0	2.5	/experiments/knapen_AOT/AOT_stimuli/rescaled_final/1563_rv.mp4	0.0	233.13212513923645	
47	216.3655071258545	movie	1		243	45.0	2.5	/experiments/knapen_AOT/AOT_stimuli/rescaled_final/1563_rv.mp4	0.0	233.55626916885376	2.5005228519439697
47	217.54147601127625	pulse	1	t		45.0	2.5	/experiments/knapen_AOT/AOT_stimuli/rescaled_final/1563_rv.mp4	0.0	234.7322380542755	
47	218.86602997779846	fix_post	2		12	45.0	2.5	/experiments/knapen_AOT/AOT_stimuli/rescaled_final/1563_rv.mp4	0.0	236.05679202079773	0.09984016418457031
48	218.96587014198303	fix_pre	0		120	46.0	2.5	/experiments/knapen_AOT/AOT_stimuli/rescaled_final/1428_fw.mp4	0.0	236.1566321849823	1.0001389980316162
48	219.14111995697021	pulse	0	t		46.0	2.5	/experiments/knapen_AOT/AOT_stimuli/rescaled_final/1428_fw.mp4	0.0	236.33188199996948	
48	219.96600914001465	movie	1		247	46.0	2.5	/experiments/knapen_AOT/AOT_stimuli/rescaled_final/1428_fw.mp4	0.0	237.15677118301392	2.5003650188446045
48	220.74149203300476	pulse	1	t		46.0	2.5	/experiments/knapen_AOT/AOT_stimuli/rescaled_final/1428_fw.mp4	0.0	237.93225407600403	
48	222.34154796600342	pulse	1	t		46.0	2.5	/experiments/knapen_AOT/AOT_stimuli/rescaled_final/1428_fw.mp4	0.0	239.53231000900269	
48	222.46637415885925	fix_post	2		12	46.0	2.5	/experiments/knapen_AOT/AOT_stimuli/rescaled_final/1428_fw.mp4	0.0	239.65713620185852	0.10007500648498535
49	222.56644916534424	fix_pre	0		120	47.0	2.5	/experiments/knapen_AOT/AOT_stimuli/rescaled_final/0713_fw.mp4	0.0	239.7572112083435	1.0000948905944824
49	223.56654405593872	movie	1		244	47.0	2.5	/experiments/knapen_AOT/AOT_stimuli/rescaled_final/0713_fw.mp4	0.0	240.757306098938	2.4920380115509033
49	223.94180417060852	pulse	1	t		47.0	2.5	/experiments/knapen_AOT/AOT_stimuli/rescaled_final/0713_fw.mp4	0.0	241.1325662136078	
49	225.54220294952393	pulse	1	t		47.0	2.5	/experiments/knapen_AOT/AOT_stimuli/rescaled_final/0713_fw.mp4	0.0	242.7329649925232	
49	226.05858206748962	fix_post	2		12	47.0	2.5	/experiments/knapen_AOT/AOT_stimuli/rescaled_final/0713_fw.mp4	0.0	243.2493441104889	0.0999898910522461
50	226.15857195854187	fix_pre	0		119	48.0	2.5	/experiments/knapen_AOT/AOT_stimuli/rescaled_final/0802_fw.mp4	0.0	243.34933400154114	0.9918360710144043
50	227.1423201560974	pulse	0	t		48.0	2.5	/experiments/knapen_AOT/AOT_stimuli/rescaled_final/0802_fw.mp4	0.0	244.33308219909668	
50	227.15040802955627	movie	1		240	48.0	2.5	/experiments/knapen_AOT/AOT_stimuli/rescaled_final/0802_fw.mp4	0.0	244.34117007255554	2.5088140964508057
50	228.74301314353943	pulse	1	t		48.0	2.5	/experiments/knapen_AOT/AOT_stimuli/rescaled_final/0802_fw.mp4	0.0	245.9337751865387	
50	229.65922212600708	fix_post	2		12	48.0	2.5	/experiments/knapen_AOT/AOT_stimuli/rescaled_final/0802_fw.mp4	0.0	246.84998416900635	0.09986996650695801
51	229.75909209251404	fix_pre	0		120	49.0	2.5	blank	1.0	246.9498541355133	1.0002069473266602
51	230.34267807006836	pulse	0	t		49.0	2.5	blank	1.0	247.53344011306763	
51	230.7592990398407	movie	1		300	49.0	2.5	blank	1.0	247.95006108283997	2.5003371238708496
51	231.94298315048218	pulse	1	t		49.0	2.5	blank	1.0	249.13374519348145	
51	233.25963616371155	fix_post	2		12	49.0	2.5	blank	1.0	250.45039820671082	0.10002684593200684
52	233.35966300964355	fix_pre	0		120	50.0	2.5	/experiments/knapen_AOT/AOT_stimuli/rescaled_final/1406_fw.mp4	0.0	250.55042505264282	1.000148057937622
52	233.54329299926758	pulse	0	t		50.0	2.5	/experiments/knapen_AOT/AOT_stimuli/rescaled_final/1406_fw.mp4	0.0	250.73405504226685	
52	234.35981106758118	movie	1		242	50.0	2.5	/experiments/knapen_AOT/AOT_stimuli/rescaled_final/1406_fw.mp4	0.0	251.55057311058044	2.500643014907837
52	235.14346504211426	pulse	1	t		50.0	2.5	/experiments/knapen_AOT/AOT_stimuli/rescaled_final/1406_fw.mp4	0.0	252.33422708511353	
52	236.74442601203918	pulse	1	t		50.0	2.5	/experiments/knapen_AOT/AOT_stimuli/rescaled_final/1406_fw.mp4	0.0	253.93518805503845	
52	236.860454082489	fix_post	2		12	50.0	2.5	/experiments/knapen_AOT/AOT_stimuli/rescaled_final/1406_fw.mp4	0.0	254.05121612548828	0.09980201721191406
53	236.96025609970093	fix_pre	0		120	51.0	2.5	/experiments/knapen_AOT/AOT_stimuli/rescaled_final/0221_rv.mp4	0.0	254.1510181427002	1.0001108646392822
53	237.9603669643402	movie	1		241	51.0	2.5	/experiments/knapen_AOT/AOT_stimuli/rescaled_final/0221_rv.mp4	0.0	255.15112900733948	2.492117166519165
53	238.34465408325195	pulse	1	t		51.0	2.5	/experiments/knapen_AOT/AOT_stimuli/rescaled_final/0221_rv.mp4	0.0	255.53541612625122	
53	239.9442400932312	pulse	1	t		51.0	2.5	/experiments/knapen_AOT/AOT_stimuli/rescaled_final/0221_rv.mp4	0.0	257.13500213623047	
53	240.45248413085938	fix_post	2		12	51.0	2.5	/experiments/knapen_AOT/AOT_stimuli/rescaled_final/0221_rv.mp4	0.0	257.64324617385864	0.09992003440856934
54	240.55240416526794	fix_pre	0		120	52.0	2.5	/experiments/knapen_AOT/AOT_stimuli/rescaled_final/0480_fw.mp4	0.0	257.7431662082672	1.0001499652862549
54	241.5444519519806	pulse	0	t		52.0	2.5	/experiments/knapen_AOT/AOT_stimuli/rescaled_final/0480_fw.mp4	0.0	258.73521399497986	
54	241.5525541305542	movie	1		245	52.0	2.5	/experiments/knapen_AOT/AOT_stimuli/rescaled_final/0480_fw.mp4	0.0	258.74331617355347	2.508697032928467
54	243.14929604530334	pulse	1	t		52.0	2.5	/experiments/knapen_AOT/AOT_stimuli/rescaled_final/0480_fw.mp4	0.0	260.3400580883026	
54	244.06125116348267	fix_post	2		12	52.0	2.5	/experiments/knapen_AOT/AOT_stimuli/rescaled_final/0480_fw.mp4	0.0	261.25201320648193	0.10005593299865723
55	244.16130709648132	fix_pre	0		120	53.0	2.5	/experiments/knapen_AOT/AOT_stimuli/rescaled_final/1030_rv.mp4	0.0	261.3520691394806	1.0000989437103271
55	244.74484205245972	pulse	0	t		53.0	2.5	/experiments/knapen_AOT/AOT_stimuli/rescaled_final/1030_rv.mp4	0.0	261.935604095459	
55	245.16140604019165	movie	1		242	53.0	2.5	/experiments/knapen_AOT/AOT_stimuli/rescaled_final/1030_rv.mp4	0.0	262.3521680831909	2.500523090362549
55	246.34529209136963	pulse	1	t		53.0	2.5	/experiments/knapen_AOT/AOT_stimuli/rescaled_final/1030_rv.mp4	0.0	263.5360541343689	
55	247.6619291305542	fix_post	2		12	53.0	2.5	/experiments/knapen_AOT/AOT_stimuli/rescaled_final/1030_rv.mp4	0.0	264.85269117355347	0.0999150276184082
56	247.7618441581726	fix_pre	0		120	54.0	2.5	/experiments/knapen_AOT/AOT_stimuli/rescaled_final/0054_rv.mp4	0.0	264.9526062011719	1.000133991241455
56	247.94545006752014	pulse	0	t		54.0	2.5	/experiments/knapen_AOT/AOT_stimuli/rescaled_final/0054_rv.mp4	0.0	265.1362121105194	
56	248.76197814941406	movie	1		243	54.0	2.5	/experiments/knapen_AOT/AOT_stimuli/rescaled_final/0054_rv.mp4	0.0	265.95274019241333	2.5005249977111816
56	249.54566717147827	pulse	1	t		54.0	2.5	/experiments/knapen_AOT/AOT_stimuli/rescaled_final/0054_rv.mp4	0.0	266.73642921447754	
56	251.14586400985718	pulse	1	t		54.0	2.5	/experiments/knapen_AOT/AOT_stimuli/rescaled_final/0054_rv.mp4	0.0	268.33662605285645	
56	251.26250314712524	fix_post	2		12	54.0	2.5	/experiments/knapen_AOT/AOT_stimuli/rescaled_final/0054_rv.mp4	0.0	268.4532651901245	0.09986996650695801
57	251.3623731136322	fix_pre	0		120	55.0	2.5	blank	1.0	268.55313515663147	1.0001440048217773
57	252.36251711845398	movie	1		299	55.0	2.5	blank	1.0	269.55327916145325	2.492048978805542
57	252.7461221218109	pulse	1	t		55.0	2.5	blank	1.0	269.9368841648102	
57	254.34633803367615	pulse	1	t		55.0	2.5	blank	1.0	271.5371000766754	
57	254.85456609725952	fix_post	2		12	55.0	2.5	blank	1.0	272.0453281402588	0.09998798370361328
58	254.95455408096313	fix_pre	0		120	56.0	2.5	/experiments/knapen_AOT/AOT_stimuli/rescaled_final/1389_fw.mp4	0.0	272.1453161239624	1.0001208782196045
58	255.94658613204956	pulse	0	t		56.0	2.5	/experiments/knapen_AOT/AOT_stimuli/rescaled_final/1389_fw.mp4	0.0	273.1373481750488	
58	255.95467495918274	movie	1		243	56.0	2.5	/experiments/knapen_AOT/AOT_stimuli/rescaled_final/1389_fw.mp4	0.0	273.145437002182	2.5088231563568115
58	257.54837703704834	pulse	1	t		56.0	2.5	/experiments/knapen_AOT/AOT_stimuli/rescaled_final/1389_fw.mp4	0.0	274.7391390800476	
58	258.46349811553955	fix_post	2		12	56.0	2.5	/experiments/knapen_AOT/AOT_stimuli/rescaled_final/1389_fw.mp4	0.0	275.6542601585388	0.09997391700744629
59	258.563472032547	fix_pre	0		120	57.0	2.5	/experiments/knapen_AOT/AOT_stimuli/rescaled_final/0231_fw.mp4	0.0	275.75423407554626	1.0001270771026611
59	259.14714002609253	pulse	0	t		57.0	2.5	/experiments/knapen_AOT/AOT_stimuli/rescaled_final/0231_fw.mp4	0.0	276.3379020690918	
59	259.56359910964966	movie	1		243	57.0	2.5	/experiments/knapen_AOT/AOT_stimuli/rescaled_final/0231_fw.mp4	0.0	276.7543611526489	2.5003669261932373
59	260.74735498428345	pulse	1	t		57.0	2.5	/experiments/knapen_AOT/AOT_stimuli/rescaled_final/0231_fw.mp4	0.0	277.9381170272827	
59	262.0639660358429	fix_post	2		12	57.0	2.5	/experiments/knapen_AOT/AOT_stimuli/rescaled_final/0231_fw.mp4	0.0	279.25472807884216	0.10003113746643066
60	262.1639971733093	fix_pre	0		120	58.0	2.5	/experiments/knapen_AOT/AOT_stimuli/rescaled_final/1789_rv.mp4	0.0	279.3547592163086	1.0001537799835205
60	262.34759306907654	pulse	0	t		58.0	2.5	/experiments/knapen_AOT/AOT_stimuli/rescaled_final/1789_rv.mp4	0.0	279.5383551120758	
60	263.16415095329285	movie	1		244	58.0	2.5	/experiments/knapen_AOT/AOT_stimuli/rescaled_final/1789_rv.mp4	0.0	280.3549129962921	2.500364065170288
60	263.94779205322266	pulse	1	t		58.0	2.5	/experiments/knapen_AOT/AOT_stimuli/rescaled_final/1789_rv.mp4	0.0	281.1385540962219	
60	265.548043012619	pulse	1	t		58.0	2.5	/experiments/knapen_AOT/AOT_stimuli/rescaled_final/1789_rv.mp4	0.0	282.7388050556183	
60	265.66451501846313	fix_post	2		12	58.0	2.5	/experiments/knapen_AOT/AOT_stimuli/rescaled_final/1789_rv.mp4	0.0	282.8552770614624	0.10000801086425781
61	265.7645230293274	fix_pre	0		120	59.0	2.5	/experiments/knapen_AOT/AOT_stimuli/rescaled_final/1649_rv.mp4	0.0	282.95528507232666	1.0001270771026611
61	266.76465010643005	movie	1		242	59.0	2.5	/experiments/knapen_AOT/AOT_stimuli/rescaled_final/1649_rv.mp4	0.0	283.9554121494293	2.492231845855713
61	267.149316072464	pulse	1	t		59.0	2.5	/experiments/knapen_AOT/AOT_stimuli/rescaled_final/1649_rv.mp4	0.0	284.34007811546326	
61	268.74112701416016	pulse	1	t		59.0	2.5	/experiments/knapen_AOT/AOT_stimuli/rescaled_final/1649_rv.mp4	0.0	285.9318890571594	
61	269.25688195228577	fix_post	2		12	59.0	2.5	/experiments/knapen_AOT/AOT_stimuli/rescaled_final/1649_rv.mp4	0.0	286.44764399528503	0.09984803199768066
62	269.35672998428345	fix_pre	0		120	60.0	2.5	/experiments/knapen_AOT/AOT_stimuli/rescaled_final/1459_rv.mp4	0.0	286.5474920272827	1.0001330375671387
62	270.34114813804626	pulse	0	t		60.0	2.5	/experiments/knapen_AOT/AOT_stimuli/rescaled_final/1459_rv.mp4	0.0	287.53191018104553	
62	270.3568630218506	movie	1		244	60.0	2.5	/experiments/knapen_AOT/AOT_stimuli/rescaled_final/1459_rv.mp4	0.0	287.54762506484985	2.508744955062866
62	271.9494731426239	pulse	1	t		60.0	2.5	/experiments/knapen_AOT/AOT_stimuli/rescaled_final/1459_rv.mp4	0.0	289.14023518562317	
62	272.86560797691345	fix_post	2		12	60.0	2.5	/experiments/knapen_AOT/AOT_stimuli/rescaled_final/1459_rv.mp4	0.0	290.0563700199127	0.09995317459106445
63	272.9655611515045	fix_pre	0		120	61.0	2.5	blank	1.0	290.1563231945038	1.0001649856567383
63	273.54098296165466	pulse	0	t		61.0	2.5	blank	1.0	290.73174500465393	
63	273.96572613716125	movie	1		300	61.0	2.5	blank	1.0	291.1564881801605	2.500391960144043
63	275.14106607437134	pulse	1	t		61.0	2.5	blank	1.0	292.3318281173706	
63	276.4661180973053	fix_post	2		12	61.0	2.5	blank	1.0	293.65688014030457	0.0999748706817627
64	276.56609296798706	fix_pre	0		120	62.0	2.5	/experiments/knapen_AOT/AOT_stimuli/rescaled_final/1428_rv.mp4	0.0	293.7568550109863	1.000162124633789
64	276.7413649559021	pulse	0	t		62.0	2.5	/experiments/knapen_AOT/AOT_stimuli/rescaled_final/1428_rv.mp4	0.0	293.93212699890137	
64	277.56625509262085	movie	1		247	62.0	2.5	/experiments/knapen_AOT/AOT_stimuli/rescaled_final/1428_rv.mp4	0.0	294.7570171356201	2.5003700256347656
64	278.3416030406952	pulse	1	t		62.0	2.5	/experiments/knapen_AOT/AOT_stimuli/rescaled_final/1428_rv.mp4	0.0	295.53236508369446	
64	279.9418201446533	pulse	1	t		62.0	2.5	/experiments/knapen_AOT/AOT_stimuli/rescaled_final/1428_rv.mp4	0.0	297.1325821876526	
64	280.0666251182556	fix_post	2		12	62.0	2.5	/experiments/knapen_AOT/AOT_stimuli/rescaled_final/1428_rv.mp4	0.0	297.2573871612549	0.10003304481506348
65	280.1666581630707	fix_pre	0		119	63.0	2.5	/experiments/knapen_AOT/AOT_stimuli/rescaled_final/1459_fw.mp4	0.0	297.35742020606995	0.9918348789215088
65	281.1584930419922	movie	1		243	63.0	2.5	/experiments/knapen_AOT/AOT_stimuli/rescaled_final/1459_fw.mp4	0.0	298.34925508499146	2.500515937805176
65	281.5424749851227	pulse	1	t		63.0	2.5	/experiments/knapen_AOT/AOT_stimuli/rescaled_final/1459_fw.mp4	0.0	298.73323702812195	
65	283.1423280239105	pulse	1	t		63.0	2.5	/experiments/knapen_AOT/AOT_stimuli/rescaled_final/1459_fw.mp4	0.0	300.3330900669098	
65	283.65900897979736	fix_post	2		12	63.0	2.5	/experiments/knapen_AOT/AOT_stimuli/rescaled_final/1459_fw.mp4	0.0	300.84977102279663	0.09989500045776367
66	283.7589039802551	fix_pre	0		119	64.0	2.5	/experiments/knapen_AOT/AOT_stimuli/rescaled_final/0788_rv.mp4	0.0	300.9496660232544	0.9917399883270264
66	284.7425060272217	pulse	0	t		64.0	2.5	/experiments/knapen_AOT/AOT_stimuli/rescaled_final/0788_rv.mp4	0.0	301.93326807022095	
66	284.75064396858215	movie	1		244	64.0	2.5	/experiments/knapen_AOT/AOT_stimuli/rescaled_final/0788_rv.mp4	0.0	301.9414060115814	2.5087599754333496
66	286.3435299396515	pulse	1	t		64.0	2.5	/experiments/knapen_AOT/AOT_stimuli/rescaled_final/0788_rv.mp4	0.0	303.53429198265076	
66	287.2594039440155	fix_post	2		12	64.0	2.5	/experiments/knapen_AOT/AOT_stimuli/rescaled_final/0788_rv.mp4	0.0	304.45016598701477	0.10003113746643066
67	287.35943508148193	fix_pre	0		120	65.0	2.5	/experiments/knapen_AOT/AOT_stimuli/rescaled_final/1904_rv.mp4	0.0	304.5501971244812	1.0001270771026611
67	287.9429740905762	pulse	0	t		65.0	2.5	/experiments/knapen_AOT/AOT_stimuli/rescaled_final/1904_rv.mp4	0.0	305.13373613357544	
67	288.3595621585846	movie	1		242	65.0	2.5	/experiments/knapen_AOT/AOT_stimuli/rescaled_final/1904_rv.mp4	0.0	305.55032420158386	2.500515937805176
67	289.5433340072632	pulse	1	t		65.0	2.5	/experiments/knapen_AOT/AOT_stimuli/rescaled_final/1904_rv.mp4	0.0	306.73409605026245	
67	290.86007809638977	fix_post	2		9	65.0	2.5	/experiments/knapen_AOT/AOT_stimuli/rescaled_final/1904_rv.mp4	0.0	308.05084013938904	0.09985494613647461
68	290.95993304252625	fix_pre	0		120	66.0	2.5	/experiments/knapen_AOT/AOT_stimuli/rescaled_final/0944_fw.mp4	0.0	308.1506950855255	1.000148057937622
68	291.14351296424866	pulse	0	t		66.0	2.5	/experiments/knapen_AOT/AOT_stimuli/rescaled_final/0944_fw.mp4	0.0	308.3342750072479	
68	291.96008110046387	movie	1		242	66.0	2.5	/experiments/knapen_AOT/AOT_stimuli/rescaled_final/0944_fw.mp4	0.0	309.15084314346313	2.500424861907959
68	292.7437410354614	pulse	1	t		66.0	2.5	/experiments/knapen_AOT/AOT_stimuli/rescaled_final/0944_fw.mp4	0.0	309.9345030784607	
68	294.3439049720764	pulse	1	t		66.0	2.5	/experiments/knapen_AOT/AOT_stimuli/rescaled_final/0944_fw.mp4	0.0	311.5346670150757	
68	294.4605059623718	fix_post	2		12	66.0	2.5	/experiments/knapen_AOT/AOT_stimuli/rescaled_final/0944_fw.mp4	0.0	311.6512680053711	0.0999610424041748
69	294.560467004776	fix_pre	0		120	67.0	2.5	/experiments/knapen_AOT/AOT_stimuli/rescaled_final/0527_fw.mp4	0.0	311.75122904777527	1.0001230239868164
69	295.5605900287628	movie	1		241	67.0	2.5	/experiments/knapen_AOT/AOT_stimuli/rescaled_final/0527_fw.mp4	0.0	312.7513520717621	2.4921281337738037
69	295.9447560310364	pulse	1	t		67.0	2.5	/experiments/knapen_AOT/AOT_stimuli/rescaled_final/0527_fw.mp4	0.0	313.13551807403564	
69	297.5445489883423	pulse	1	t		67.0	2.5	/experiments/knapen_AOT/AOT_stimuli/rescaled_final/0527_fw.mp4	0.0	314.73531103134155	
69	298.0527181625366	fix_post	2		12	67.0	2.5	/experiments/knapen_AOT/AOT_stimuli/rescaled_final/0527_fw.mp4	0.0	315.2434802055359	0.09995484352111816
70	298.15267300605774	fix_pre	0		120	68.0	2.5	/experiments/knapen_AOT/AOT_stimuli/rescaled_final/0619_fw.mp4	0.0	315.343435049057	1.0001850128173828
70	299.14470314979553	pulse	0	t		68.0	2.5	/experiments/knapen_AOT/AOT_stimuli/rescaled_final/0619_fw.mp4	0.0	316.3354651927948	
70	299.1528580188751	movie	1		243	68.0	2.5	/experiments/knapen_AOT/AOT_stimuli/rescaled_final/0619_fw.mp4	0.0	316.3436200618744	2.5087249279022217
70	300.7455589771271	pulse	1	t		68.0	2.5	/experiments/knapen_AOT/AOT_stimuli/rescaled_final/0619_fw.mp4	0.0	317.93632102012634	
70	301.66158294677734	fix_post	2		12	68.0	2.5	/experiments/knapen_AOT/AOT_stimuli/rescaled_final/0619_fw.mp4	0.0	318.8523449897766	0.10001015663146973
71	301.7615931034088	fix_pre	0		120	69.0	2.5	/experiments/knapen_AOT/AOT_stimuli/rescaled_final/0745_rv.mp4	0.0	318.9523551464081	1.0000810623168945
71	302.34520411491394	pulse	0	t		69.0	2.5	/experiments/knapen_AOT/AOT_stimuli/rescaled_final/0745_rv.mp4	0.0	319.5359661579132	
71	302.7616741657257	movie	1		244	69.0	2.5	/experiments/knapen_AOT/AOT_stimuli/rescaled_final/0745_rv.mp4	0.0	319.952436208725	2.500405788421631
71	303.94545912742615	pulse	1	t		69.0	2.5	/experiments/knapen_AOT/AOT_stimuli/rescaled_final/0745_rv.mp4	0.0	321.1362211704254	
71	305.26207995414734	fix_post	2		12	69.0	2.5	/experiments/knapen_AOT/AOT_stimuli/rescaled_final/0745_rv.mp4	0.0	322.4528419971466	0.10002899169921875
72	305.36210894584656	fix_pre	0		120	70.0	2.5	blank	1.0	322.5528709888458	1.0001420974731445
72	305.5457019805908	pulse	0	t		70.0	2.5	blank	1.0	322.7364640235901	
72	306.3622510433197	movie	1		300	70.0	2.5	blank	1.0	323.55301308631897	2.5003559589385986
72	307.14584398269653	pulse	1	t		70.0	2.5	blank	1.0	324.3366060256958	
72	308.746150970459	pulse	1	t		70.0	2.5	blank	1.0	325.93691301345825	
72	308.8626070022583	fix_post	2		12	70.0	2.5	blank	1.0	326.05336904525757	0.1000511646270752
73	308.9626581668854	fix_pre	0		120	71.0	2.5	/experiments/knapen_AOT/AOT_stimuli/rescaled_final/0597_rv.mp4	0.0	326.15342020988464	1.0000958442687988
73	309.9627540111542	movie	1		242	71.0	2.5	/experiments/knapen_AOT/AOT_stimuli/rescaled_final/0597_rv.mp4	0.0	327.15351605415344	2.492063045501709
73	310.34806299209595	pulse	1	t		71.0	2.5	/experiments/knapen_AOT/AOT_stimuli/rescaled_final/0597_rv.mp4	0.0	327.5388250350952	
73	311.946573972702	pulse	1	t		71.0	2.5	/experiments/knapen_AOT/AOT_stimuli/rescaled_final/0597_rv.mp4	0.0	329.1373360157013	
73	312.4548170566559	fix_post	2		12	71.0	2.5	/experiments/knapen_AOT/AOT_stimuli/rescaled_final/0597_rv.mp4	0.0	329.64557909965515	0.10001492500305176
74	312.55483198165894	fix_pre	0		120	72.0	2.5	/experiments/knapen_AOT/AOT_stimuli/rescaled_final/1679_fw.mp4	0.0	329.7455940246582	1.0001580715179443
74	313.54683804512024	pulse	0	t		72.0	2.5	/experiments/knapen_AOT/AOT_stimuli/rescaled_final/1679_fw.mp4	0.0	330.7376000881195	
74	313.5549900531769	movie	1		243	72.0	2.5	/experiments/knapen_AOT/AOT_stimuli/rescaled_final/1679_fw.mp4	0.0	330.74575209617615	2.5087459087371826
74	315.14755296707153	pulse	1	t		72.0	2.5	/experiments/knapen_AOT/AOT_stimuli/rescaled_final/1679_fw.mp4	0.0	332.3383150100708	
74	316.06373596191406	fix_post	2		12	72.0	2.5	/experiments/knapen_AOT/AOT_stimuli/rescaled_final/1679_fw.mp4	0.0	333.25449800491333	0.09994816780090332
75	316.16368412971497	fix_pre	0		120	73.0	2.5	/experiments/knapen_AOT/AOT_stimuli/rescaled_final/1501_fw.mp4	0.0	333.35444617271423	1.0001709461212158
75	316.7473599910736	pulse	0	t		73.0	2.5	/experiments/knapen_AOT/AOT_stimuli/rescaled_final/1501_fw.mp4	0.0	333.9381220340729	
75	317.1638550758362	movie	1		244	73.0	2.5	/experiments/knapen_AOT/AOT_stimuli/rescaled_final/1501_fw.mp4	0.0	334.35461711883545	2.5003440380096436
75	318.3476331233978	pulse	1	t		73.0	2.5	/experiments/knapen_AOT/AOT_stimuli/rescaled_final/1501_fw.mp4	0.0	335.5383951663971	
75	319.6641991138458	fix_post	2		12	73.0	2.5	/experiments/knapen_AOT/AOT_stimuli/rescaled_final/1501_fw.mp4	0.0	336.8549611568451	0.10007905960083008
76	319.76427817344666	fix_pre	0		120	74.0	2.5	/experiments/knapen_AOT/AOT_stimuli/rescaled_final/0894_rv.mp4	0.0	336.9550402164459	1.0001168251037598
76	319.94779896736145	pulse	0	t		74.0	2.5	/experiments/knapen_AOT/AOT_stimuli/rescaled_final/0894_rv.mp4	0.0	337.1385610103607	
76	320.7643949985504	movie	1		242	74.0	2.5	/experiments/knapen_AOT/AOT_stimuli/rescaled_final/0894_rv.mp4	0.0	337.9551570415497	2.500594139099121
76	321.5405809879303	pulse	1	t		74.0	2.5	/experiments/knapen_AOT/AOT_stimuli/rescaled_final/0894_rv.mp4	0.0	338.73134303092957	
76	323.1487989425659	pulse	1	t		74.0	2.5	/experiments/knapen_AOT/AOT_stimuli/rescaled_final/0894_rv.mp4	0.0	340.3395609855652	
76	323.26498913764954	fix_post	2		12	74.0	2.5	/experiments/knapen_AOT/AOT_stimuli/rescaled_final/0894_rv.mp4	0.0	340.4557511806488	0.0997769832611084
77	323.36476612091064	fix_pre	0		120	75.0	2.5	/experiments/knapen_AOT/AOT_stimuli/rescaled_final/1115_fw.mp4	0.0	340.5555281639099	1.0001418590545654
77	324.3649079799652	movie	1		241	75.0	2.5	/experiments/knapen_AOT/AOT_stimuli/rescaled_final/1115_fw.mp4	0.0	341.5556700229645	2.492213010787964
77	324.74925112724304	pulse	1	t		75.0	2.5	/experiments/knapen_AOT/AOT_stimuli/rescaled_final/1115_fw.mp4	0.0	341.9400131702423	
77	326.34135603904724	pulse	1	t		75.0	2.5	/experiments/knapen_AOT/AOT_stimuli/rescaled_final/1115_fw.mp4	0.0	343.5321180820465	
77	326.8571209907532	fix_post	2		12	75.0	2.5	/experiments/knapen_AOT/AOT_stimuli/rescaled_final/1115_fw.mp4	0.0	344.04788303375244	0.09981513023376465
78	326.95693612098694	fix_pre	0		119	76.0	2.5	/experiments/knapen_AOT/AOT_stimuli/rescaled_final/2168_rv.mp4	0.0	344.1476981639862	0.9918570518493652
78	327.94067001342773	pulse	0	t		76.0	2.5	/experiments/knapen_AOT/AOT_stimuli/rescaled_final/2168_rv.mp4	0.0	345.131432056427	
78	327.9487931728363	movie	1		244	76.0	2.5	/experiments/knapen_AOT/AOT_stimuli/rescaled_final/2168_rv.mp4	0.0	345.13955521583557	2.508765935897827
78	329.54147505760193	pulse	1	t		76.0	2.5	/experiments/knapen_AOT/AOT_stimuli/rescaled_final/2168_rv.mp4	0.0	346.7322371006012	
78	330.45755910873413	fix_post	2		12	76.0	2.5	/experiments/knapen_AOT/AOT_stimuli/rescaled_final/2168_rv.mp4	0.0	347.6483211517334	0.09998297691345215
79	330.5575420856476	fix_pre	0		120	77.0	2.5	blank	1.0	347.74830412864685	1.0001070499420166
79	331.1412010192871	pulse	0	t		77.0	2.5	blank	1.0	348.3319630622864	
79	331.5576491355896	movie	1		300	77.0	2.5	blank	1.0	348.74841117858887	2.5003669261932373
79	332.7414710521698	pulse	1	t		77.0	2.5	blank	1.0	349.93223309516907	
79	334.05801606178284	fix_post	2		12	77.0	2.5	blank	1.0	351.2487781047821	0.10006999969482422
80	334.15808606147766	fix_pre	0		120	78.0	2.5	/experiments/knapen_AOT/AOT_stimuli/rescaled_final/0706_rv.mp4	0.0	351.34884810447693	1.0001440048217773
80	334.34162998199463	pulse	0	t		78.0	2.5	/experiments/knapen_AOT/AOT_stimuli/rescaled_final/0706_rv.mp4	0.0	351.5323920249939	
80	335.15823006629944	movie	1		243	78.0	2.5	/experiments/knapen_AOT/AOT_stimuli/rescaled_final/0706_rv.mp4	0.0	352.3489921092987	2.5003280639648438
80	335.9417941570282	pulse	1	t		78.0	2.5	/experiments/knapen_AOT/AOT_stimuli/rescaled_final/0706_rv.mp4	0.0	353.13255620002747	
80	337.5422041416168	pulse	1	t		78.0	2.5	/experiments/knapen_AOT/AOT_stimuli/rescaled_final/0706_rv.mp4	0.0	354.7329661846161	
80	337.6585581302643	fix_post	2		12	78.0	2.5	/experiments/knapen_AOT/AOT_stimuli/rescaled_final/0706_rv.mp4	0.0	354.84932017326355	0.10000085830688477
81	337.75855898857117	fix_pre	0		120	79.0	2.5	/experiments/knapen_AOT/AOT_stimuli/rescaled_final/1481_rv.mp4	0.0	354.94932103157043	1.0001800060272217
81	338.7587389945984	movie	1		241	79.0	2.5	/experiments/knapen_AOT/AOT_stimuli/rescaled_final/1481_rv.mp4	0.0	355.94950103759766	2.4921200275421143
81	339.14712595939636	pulse	1	t		79.0	2.5	/experiments/knapen_AOT/AOT_stimuli/rescaled_final/1481_rv.mp4	0.0	356.33788800239563	
81	340.7425730228424	pulse	1	t		79.0	2.5	/experiments/knapen_AOT/AOT_stimuli/rescaled_final/1481_rv.mp4	0.0	357.9333350658417	
81	341.2508590221405	fix_post	2		12	79.0	2.5	/experiments/knapen_AOT/AOT_stimuli/rescaled_final/1481_rv.mp4	0.0	358.44162106513977	0.09993410110473633
82	341.35079312324524	fix_pre	0		120	80.0	2.5	/experiments/knapen_AOT/AOT_stimuli/rescaled_final/0240_rv.mp4	0.0	358.5415551662445	1.000147819519043
82	342.3428120613098	pulse	0	t		80.0	2.5	/experiments/knapen_AOT/AOT_stimuli/rescaled_final/0240_rv.mp4	0.0	359.5335741043091	
82	342.3509409427643	movie	1		244	80.0	2.5	/experiments/knapen_AOT/AOT_stimuli/rescaled_final/0240_rv.mp4	0.0	359.54170298576355	2.5087201595306396
82	343.9436230659485	pulse	1	t		80.0	2.5	/experiments/knapen_AOT/AOT_stimuli/rescaled_final/0240_rv.mp4	0.0	361.13438510894775	
82	344.8596611022949	fix_post	2		12	80.0	2.5	/experiments/knapen_AOT/AOT_stimuli/rescaled_final/0240_rv.mp4	0.0	362.0504231452942	0.10001397132873535
83	344.95967507362366	fix_pre	0		120	81.0	2.5	/experiments/knapen_AOT/AOT_stimuli/rescaled_final/1075_fw.mp4	0.0	362.1504371166229	1.0001330375671387
83	345.5433540344238	pulse	0	t		81.0	2.5	/experiments/knapen_AOT/AOT_stimuli/rescaled_final/1075_fw.mp4	0.0	362.7341160774231	
83	345.9598081111908	movie	1		242	81.0	2.5	/experiments/knapen_AOT/AOT_stimuli/rescaled_final/1075_fw.mp4	0.0	363.15057015419006	2.5005688667297363
83	347.14360308647156	pulse	1	t		81.0	2.5	/experiments/knapen_AOT/AOT_stimuli/rescaled_final/1075_fw.mp4	0.0	364.3343651294708	
83	348.46037697792053	fix_post	2		12	81.0	2.5	/experiments/knapen_AOT/AOT_stimuli/rescaled_final/1075_fw.mp4	0.0	365.6511390209198	0.09984803199768066
84	348.5602250099182	fix_pre	0		117	82.0	2.5	/experiments/knapen_AOT/AOT_stimuli/rescaled_final/1619_rv.mp4	0.0	365.7509870529175	1.0001511573791504
84	348.7437701225281	pulse	0	t		82.0	2.5	/experiments/knapen_AOT/AOT_stimuli/rescaled_final/1619_rv.mp4	0.0	365.93453216552734	
84	349.56037616729736	movie	1		243	82.0	2.5	/experiments/knapen_AOT/AOT_stimuli/rescaled_final/1619_rv.mp4	0.0	366.75113821029663	2.500431776046753
84	350.3439781665802	pulse	1	t		82.0	2.5	/experiments/knapen_AOT/AOT_stimuli/rescaled_final/1619_rv.mp4	0.0	367.53474020957947	
84	351.9442501068115	pulse	1	t		82.0	2.5	/experiments/knapen_AOT/AOT_stimuli/rescaled_final/1619_rv.mp4	0.0	369.1350121498108	
84	352.0608079433441	fix_post	2		12	82.0	2.5	/experiments/knapen_AOT/AOT_stimuli/rescaled_final/1619_rv.mp4	0.0	369.2515699863434	0.09992599487304688
85	352.16073393821716	fix_pre	0		120	83.0	2.5	blank	1.0	369.35149598121643	1.0001401901245117
85	353.1608741283417	movie	1		299	83.0	2.5	blank	1.0	370.35163617134094	2.4920899868011475
85	353.5445351600647	pulse	1	t		83.0	2.5	blank	1.0	370.73529720306396	
85	355.14470195770264	pulse	1	t		83.0	2.5	blank	1.0	372.3354640007019	
85	355.6529641151428	fix_post	2		12	83.0	2.5	blank	1.0	372.8437261581421	0.10001683235168457
87	355.7529809474945	stim	0		1716					372.9437429904938	14.302163124084473
87	356.74500703811646	pulse	0	t						373.9357690811157	
87	358.34520196914673	pulse	0	t						375.535964012146	
87	359.94545316696167	pulse	0	t						377.13621520996094	
87	361.545695066452	pulse	0	t						378.7364571094513	
87	363.1458661556244	pulse	0	t						380.33662819862366	
87	364.74615001678467	pulse	0	t						381.93691205978394	
87	366.34637117385864	pulse	0	t						383.5371332168579	
87	367.94663310050964	pulse	0	t						385.1373951435089	
87	369.5467851161957	pulse	0	t						386.73754715919495	
