trial_nr	onset	event_type	phase	response	nr_frames	movie_index	movie_duration	movie_file	blank	onset_abs	duration
0	0.20843195915222168	stim	0		14					84.41273999214172	0.11667299270629883
0	0.3170039653778076	response	0	space						84.52131199836731	
1	0.3251049518585205	stim	0		4144					84.52941298484802	34.54781198501587
1	34.86295294761658	pulse	0	t						119.06726098060608	
1	34.87291693687439	stim	1		1716					119.07722496986389	14.301092863082886
1	36.45561385154724	pulse	1	t						120.65992188453674	
1	38.05600690841675	pulse	1	t						122.26031494140625	
1	39.65619897842407	pulse	1	t						123.86050701141357	
1	41.2563898563385	pulse	1	t						125.460697889328	
1	42.85653281211853	pulse	1	t						127.06084084510803	
1	44.45683693885803	pulse	1	t						128.66114497184753	
1	46.05711388587952	pulse	1	t						130.26142191886902	
1	47.657291889190674	pulse	1	t						131.86159992218018	
2	49.174009799957275	fix_pre	0		11	0.0	2.5	/experiments/knapen_AOT/AOT_stimuli/rescaled_final/0936_rv.mp4	0.0	133.37831783294678	0.09174203872680664
2	49.257497787475586	pulse	0	t		0.0	2.5	/experiments/knapen_AOT/AOT_stimuli/rescaled_final/0936_rv.mp4	0.0	133.4618058204651	
2	49.26575183868408	movie	1		243	0.0	2.5	/experiments/knapen_AOT/AOT_stimuli/rescaled_final/0936_rv.mp4	0.0	133.47005987167358	2.508708953857422
2	50.85833191871643	pulse	1	t		0.0	2.5	/experiments/knapen_AOT/AOT_stimuli/rescaled_final/0936_rv.mp4	0.0	135.06263995170593	
2	51.774460792541504	fix_post	2		12	0.0	2.5	/experiments/knapen_AOT/AOT_stimuli/rescaled_final/0936_rv.mp4	0.0	135.978768825531	0.09997105598449707
3	51.874431848526	fix_pre	0		120	1.0	2.5	/experiments/knapen_AOT/AOT_stimuli/rescaled_final/0487_rv.mp4	0.0	136.0787398815155	1.000169038772583
3	52.45816898345947	pulse	0	t		1.0	2.5	/experiments/knapen_AOT/AOT_stimuli/rescaled_final/0487_rv.mp4	0.0	136.66247701644897	
3	52.874600887298584	movie	1		244	1.0	2.5	/experiments/knapen_AOT/AOT_stimuli/rescaled_final/0487_rv.mp4	0.0	137.0789089202881	2.5004069805145264
3	54.05833387374878	pulse	1	t		1.0	2.5	/experiments/knapen_AOT/AOT_stimuli/rescaled_final/0487_rv.mp4	0.0	138.26264190673828	
3	55.37500786781311	fix_post	2		12	1.0	2.5	/experiments/knapen_AOT/AOT_stimuli/rescaled_final/0487_rv.mp4	0.0	139.5793159008026	0.1000070571899414
4	55.47501492500305	fix_pre	0		120	2.0	2.5	/experiments/knapen_AOT/AOT_stimuli/rescaled_final/1553_rv.mp4	0.0	139.67932295799255	1.0001049041748047
4	55.65845799446106	pulse	0	t		2.0	2.5	/experiments/knapen_AOT/AOT_stimuli/rescaled_final/1553_rv.mp4	0.0	139.86276602745056	
4	56.475119829177856	movie	1		242	2.0	2.5	/experiments/knapen_AOT/AOT_stimuli/rescaled_final/1553_rv.mp4	0.0	140.67942786216736	2.4922091960906982
4	57.25870680809021	pulse	1	t		2.0	2.5	/experiments/knapen_AOT/AOT_stimuli/rescaled_final/1553_rv.mp4	0.0	141.4630148410797	
4	58.8587589263916	pulse	1	t		2.0	2.5	/experiments/knapen_AOT/AOT_stimuli/rescaled_final/1553_rv.mp4	0.0	143.0630669593811	
4	58.967329025268555	fix_post	2		13	2.0	2.5	/experiments/knapen_AOT/AOT_stimuli/rescaled_final/1553_rv.mp4	0.0	143.17163705825806	0.10823178291320801
5	59.07556080818176	fix_pre	0		119	3.0	2.5	/experiments/knapen_AOT/AOT_stimuli/rescaled_final/0618_rv.mp4	0.0	143.27986884117126	0.9917171001434326
5	60.067277908325195	movie	1		244	3.0	2.5	/experiments/knapen_AOT/AOT_stimuli/rescaled_final/0618_rv.mp4	0.0	144.2715859413147	2.5003879070281982
5	60.454970836639404	pulse	1	t		3.0	2.5	/experiments/knapen_AOT/AOT_stimuli/rescaled_final/0618_rv.mp4	0.0	144.6592788696289	
5	62.059470891952515	pulse	1	t		3.0	2.5	/experiments/knapen_AOT/AOT_stimuli/rescaled_final/0618_rv.mp4	0.0	146.26377892494202	
5	62.567665815353394	fix_post	2		12	3.0	2.5	/experiments/knapen_AOT/AOT_stimuli/rescaled_final/0618_rv.mp4	0.0	146.7719738483429	0.1000521183013916
6	62.667717933654785	fix_pre	0		120	4.0	2.5	/experiments/knapen_AOT/AOT_stimuli/rescaled_final/0688_rv.mp4	0.0	146.8720259666443	1.0001840591430664
6	63.65965700149536	pulse	0	t		4.0	2.5	/experiments/knapen_AOT/AOT_stimuli/rescaled_final/0688_rv.mp4	0.0	147.86396503448486	
6	63.66790199279785	movie	1		243	4.0	2.5	/experiments/knapen_AOT/AOT_stimuli/rescaled_final/0688_rv.mp4	0.0	147.87221002578735	2.508790969848633
6	65.26035785675049	pulse	1	t		4.0	2.5	/experiments/knapen_AOT/AOT_stimuli/rescaled_final/0688_rv.mp4	0.0	149.46466588974	
6	66.17669296264648	fix_post	2		12	4.0	2.5	/experiments/knapen_AOT/AOT_stimuli/rescaled_final/0688_rv.mp4	0.0	150.381000995636	0.09990501403808594
7	66.27659797668457	fix_pre	0		120	5.0	2.5	blank	1.0	150.48090600967407	1.000169038772583
7	66.86031293869019	pulse	0	t		5.0	2.5	blank	1.0	151.0646209716797	
7	67.27676701545715	movie	1		300	5.0	2.5	blank	1.0	151.48107504844666	2.500333786010742
7	68.4529960155487	pulse	1	t		5.0	2.5	blank	1.0	152.6573040485382	
7	69.7771008014679	fix_post	2		12	5.0	2.5	blank	1.0	153.9814088344574	0.10007500648498535
8	69.87717580795288	fix_pre	0		120	6.0	2.5	/experiments/knapen_AOT/AOT_stimuli/rescaled_final/0104_fw.mp4	0.0	154.08148384094238	1.0001001358032227
8	70.05321788787842	pulse	0	t		6.0	2.5	/experiments/knapen_AOT/AOT_stimuli/rescaled_final/0104_fw.mp4	0.0	154.25752592086792	
8	70.8772759437561	movie	1		242	6.0	2.5	/experiments/knapen_AOT/AOT_stimuli/rescaled_final/0104_fw.mp4	0.0	155.0815839767456	2.5005369186401367
8	71.65342688560486	pulse	1	t		6.0	2.5	/experiments/knapen_AOT/AOT_stimuli/rescaled_final/0104_fw.mp4	0.0	155.85773491859436	
8	73.26107692718506	pulse	1	t		6.0	2.5	/experiments/knapen_AOT/AOT_stimuli/rescaled_final/0104_fw.mp4	0.0	157.46538496017456	
8	73.37781286239624	fix_post	2		12	6.0	2.5	/experiments/knapen_AOT/AOT_stimuli/rescaled_final/0104_fw.mp4	0.0	157.58212089538574	0.09989500045776367
9	73.477707862854	fix_pre	0		119	7.0	2.5	/experiments/knapen_AOT/AOT_stimuli/rescaled_final/1902_fw.mp4	0.0	157.6820158958435	0.9917500019073486
9	74.46945786476135	movie	1		243	7.0	2.5	/experiments/knapen_AOT/AOT_stimuli/rescaled_final/1902_fw.mp4	0.0	158.67376589775085	2.500584125518799
9	74.85348796844482	pulse	1	t		7.0	2.5	/experiments/knapen_AOT/AOT_stimuli/rescaled_final/1902_fw.mp4	0.0	159.05779600143433	
9	76.45330500602722	pulse	1	t		7.0	2.5	/experiments/knapen_AOT/AOT_stimuli/rescaled_final/1902_fw.mp4	0.0	160.65761303901672	
9	76.97004199028015	fix_post	2		12	7.0	2.5	/experiments/knapen_AOT/AOT_stimuli/rescaled_final/1902_fw.mp4	0.0	161.17435002326965	0.09982490539550781
10	77.06986689567566	fix_pre	0		119	8.0	2.5	/experiments/knapen_AOT/AOT_stimuli/rescaled_final/0098_fw.mp4	0.0	161.27417492866516	0.991826057434082
10	78.05345487594604	pulse	0	t		8.0	2.5	/experiments/knapen_AOT/AOT_stimuli/rescaled_final/0098_fw.mp4	0.0	162.25776290893555	
10	78.06169295310974	movie	1		245	8.0	2.5	/experiments/knapen_AOT/AOT_stimuli/rescaled_final/0098_fw.mp4	0.0	162.26600098609924	2.508699893951416
10	79.65420293807983	pulse	1	t		8.0	2.5	/experiments/knapen_AOT/AOT_stimuli/rescaled_final/0098_fw.mp4	0.0	163.85851097106934	
10	80.57039284706116	fix_post	2		12	8.0	2.5	/experiments/knapen_AOT/AOT_stimuli/rescaled_final/0098_fw.mp4	0.0	164.77470088005066	0.09997200965881348
11	80.67036485671997	fix_pre	0		120	9.0	2.5	/experiments/knapen_AOT/AOT_stimuli/rescaled_final/1874_rv.mp4	0.0	164.87467288970947	1.0001730918884277
11	81.25399088859558	pulse	0	t		9.0	2.5	/experiments/knapen_AOT/AOT_stimuli/rescaled_final/1874_rv.mp4	0.0	165.45829892158508	
11	81.6705379486084	movie	1		244	9.0	2.5	/experiments/knapen_AOT/AOT_stimuli/rescaled_final/1874_rv.mp4	0.0	165.8748459815979	2.5003809928894043
11	82.8543028831482	pulse	1	t		9.0	2.5	/experiments/knapen_AOT/AOT_stimuli/rescaled_final/1874_rv.mp4	0.0	167.0586109161377	
11	84.1709189414978	fix_post	2		12	9.0	2.5	/experiments/knapen_AOT/AOT_stimuli/rescaled_final/1874_rv.mp4	0.0	168.3752269744873	0.10004591941833496
12	84.27096486091614	fix_pre	0		120	10.0	2.5	/experiments/knapen_AOT/AOT_stimuli/rescaled_final/0473_rv.mp4	0.0	168.47527289390564	1.0001471042633057
12	84.45452380180359	pulse	0	t		10.0	2.5	/experiments/knapen_AOT/AOT_stimuli/rescaled_final/0473_rv.mp4	0.0	168.6588318347931	
12	85.27111196517944	movie	1		243	10.0	2.5	/experiments/knapen_AOT/AOT_stimuli/rescaled_final/0473_rv.mp4	0.0	169.47541999816895	2.500427007675171
12	86.05468201637268	pulse	1	t		10.0	2.5	/experiments/knapen_AOT/AOT_stimuli/rescaled_final/0473_rv.mp4	0.0	170.25899004936218	
12	87.65487384796143	pulse	1	t		10.0	2.5	/experiments/knapen_AOT/AOT_stimuli/rescaled_final/0473_rv.mp4	0.0	171.85918188095093	
12	87.77153897285461	fix_post	2		12	10.0	2.5	/experiments/knapen_AOT/AOT_stimuli/rescaled_final/0473_rv.mp4	0.0	171.97584700584412	0.09994292259216309
13	87.87148189544678	fix_pre	0		119	11.0	2.5	/experiments/knapen_AOT/AOT_stimuli/rescaled_final/1136_rv.mp4	0.0	172.07578992843628	0.9918029308319092
13	88.86328482627869	movie	1		243	11.0	2.5	/experiments/knapen_AOT/AOT_stimuli/rescaled_final/1136_rv.mp4	0.0	173.0675928592682	2.5005390644073486
13	89.2552809715271	pulse	1	t		11.0	2.5	/experiments/knapen_AOT/AOT_stimuli/rescaled_final/1136_rv.mp4	0.0	173.4595890045166	
13	90.8554220199585	pulse	1	t		11.0	2.5	/experiments/knapen_AOT/AOT_stimuli/rescaled_final/1136_rv.mp4	0.0	175.059730052948	
13	91.36382389068604	fix_post	2		9	11.0	2.5	/experiments/knapen_AOT/AOT_stimuli/rescaled_final/1136_rv.mp4	0.0	175.56813192367554	0.09985804557800293
14	91.46368193626404	fix_pre	0		120	12.0	2.5	blank	1.0	175.66798996925354	1.0001320838928223
14	92.45570087432861	pulse	0	t		12.0	2.5	blank	1.0	176.66000890731812	
14	92.46381402015686	movie	1		301	12.0	2.5	blank	1.0	176.66812205314636	2.5087289810180664
14	94.05595898628235	pulse	1	t		12.0	2.5	blank	1.0	178.26026701927185	
14	94.97254300117493	fix_post	2		12	12.0	2.5	blank	1.0	179.17685103416443	0.10006093978881836
15	95.07260394096375	fix_pre	0		120	13.0	2.5	/experiments/knapen_AOT/AOT_stimuli/rescaled_final/0070_rv.mp4	0.0	179.27691197395325	1.0001580715179443
15	95.65615701675415	pulse	0	t		13.0	2.5	/experiments/knapen_AOT/AOT_stimuli/rescaled_final/0070_rv.mp4	0.0	179.86046504974365	
15	96.07276201248169	movie	1		244	13.0	2.5	/experiments/knapen_AOT/AOT_stimuli/rescaled_final/0070_rv.mp4	0.0	180.2770700454712	2.500260829925537
15	97.2564709186554	pulse	1	t		13.0	2.5	/experiments/knapen_AOT/AOT_stimuli/rescaled_final/0070_rv.mp4	0.0	181.4607789516449	
15	98.57302284240723	fix_post	2		12	13.0	2.5	/experiments/knapen_AOT/AOT_stimuli/rescaled_final/0070_rv.mp4	0.0	182.77733087539673	0.10013318061828613
16	98.67315602302551	fix_pre	0		120	14.0	2.5	/experiments/knapen_AOT/AOT_stimuli/rescaled_final/1450_rv.mp4	0.0	182.87746405601501	1.0000569820404053
16	98.85667085647583	pulse	0	t		14.0	2.5	/experiments/knapen_AOT/AOT_stimuli/rescaled_final/1450_rv.mp4	0.0	183.06097888946533	
16	99.67321300506592	movie	1		242	14.0	2.5	/experiments/knapen_AOT/AOT_stimuli/rescaled_final/1450_rv.mp4	0.0	183.87752103805542	2.5005929470062256
16	100.45694184303284	pulse	1	t		14.0	2.5	/experiments/knapen_AOT/AOT_stimuli/rescaled_final/1450_rv.mp4	0.0	184.66124987602234	
16	102.0572578907013	pulse	1	t		14.0	2.5	/experiments/knapen_AOT/AOT_stimuli/rescaled_final/1450_rv.mp4	0.0	186.2615659236908	
16	102.17380595207214	fix_post	2		12	14.0	2.5	/experiments/knapen_AOT/AOT_stimuli/rescaled_final/1450_rv.mp4	0.0	186.37811398506165	0.099884033203125
17	102.27368998527527	fix_pre	0		120	15.0	2.5	/experiments/knapen_AOT/AOT_stimuli/rescaled_final/1534_fw.mp4	0.0	186.47799801826477	1.0000908374786377
17	103.2737808227539	movie	1		241	15.0	2.5	/experiments/knapen_AOT/AOT_stimuli/rescaled_final/1534_fw.mp4	0.0	187.4780888557434	2.492108106613159
17	103.65802597999573	pulse	1	t		15.0	2.5	/experiments/knapen_AOT/AOT_stimuli/rescaled_final/1534_fw.mp4	0.0	187.86233401298523	
17	105.25754690170288	pulse	1	t		15.0	2.5	/experiments/knapen_AOT/AOT_stimuli/rescaled_final/1534_fw.mp4	0.0	189.46185493469238	
17	105.76588892936707	fix_post	2		12	15.0	2.5	/experiments/knapen_AOT/AOT_stimuli/rescaled_final/1534_fw.mp4	0.0	189.97019696235657	0.0999748706817627
18	105.86586380004883	fix_pre	0		120	16.0	2.5	/experiments/knapen_AOT/AOT_stimuli/rescaled_final/0832_rv.mp4	0.0	190.07017183303833	1.0001130104064941
18	106.85793781280518	pulse	0	t		16.0	2.5	/experiments/knapen_AOT/AOT_stimuli/rescaled_final/0832_rv.mp4	0.0	191.06224584579468	
18	106.86597681045532	movie	1		243	16.0	2.5	/experiments/knapen_AOT/AOT_stimuli/rescaled_final/0832_rv.mp4	0.0	191.07028484344482	2.508742094039917
18	108.45880484580994	pulse	1	t		16.0	2.5	/experiments/knapen_AOT/AOT_stimuli/rescaled_final/0832_rv.mp4	0.0	192.66311287879944	
18	109.37471890449524	fix_post	2		12	16.0	2.5	/experiments/knapen_AOT/AOT_stimuli/rescaled_final/0832_rv.mp4	0.0	193.57902693748474	0.10001897811889648
19	109.47473788261414	fix_pre	0		120	17.0	2.5	/experiments/knapen_AOT/AOT_stimuli/rescaled_final/0889_rv.mp4	0.0	193.67904591560364	1.0001380443572998
19	110.0583119392395	pulse	0	t		17.0	2.5	/experiments/knapen_AOT/AOT_stimuli/rescaled_final/0889_rv.mp4	0.0	194.262619972229	
19	110.47487592697144	movie	1		242	17.0	2.5	/experiments/knapen_AOT/AOT_stimuli/rescaled_final/0889_rv.mp4	0.0	194.67918395996094	2.500516891479492
19	111.65863585472107	pulse	1	t		17.0	2.5	/experiments/knapen_AOT/AOT_stimuli/rescaled_final/0889_rv.mp4	0.0	195.86294388771057	
19	112.97539281845093	fix_post	2		12	17.0	2.5	/experiments/knapen_AOT/AOT_stimuli/rescaled_final/0889_rv.mp4	0.0	197.17970085144043	0.09993219375610352
20	113.07532501220703	fix_pre	0		120	18.0	2.5	/experiments/knapen_AOT/AOT_stimuli/rescaled_final/1056_rv.mp4	0.0	197.27963304519653	1.00003981590271
20	113.25883197784424	pulse	0	t		18.0	2.5	/experiments/knapen_AOT/AOT_stimuli/rescaled_final/1056_rv.mp4	0.0	197.46314001083374	
20	114.07536482810974	movie	1		242	18.0	2.5	/experiments/knapen_AOT/AOT_stimuli/rescaled_final/1056_rv.mp4	0.0	198.27967286109924	2.5006091594696045
20	114.85913681983948	pulse	1	t		18.0	2.5	/experiments/knapen_AOT/AOT_stimuli/rescaled_final/1056_rv.mp4	0.0	199.06344485282898	
20	116.45928287506104	pulse	1	t		18.0	2.5	/experiments/knapen_AOT/AOT_stimuli/rescaled_final/1056_rv.mp4	0.0	200.66359090805054	
20	116.57597398757935	fix_post	2		12	18.0	2.5	/experiments/knapen_AOT/AOT_stimuli/rescaled_final/1056_rv.mp4	0.0	200.78028202056885	0.09987497329711914
21	116.67584896087646	fix_pre	0		120	19.0	2.5	/experiments/knapen_AOT/AOT_stimuli/rescaled_final/0339_rv.mp4	0.0	200.88015699386597	1.0001399517059326
21	117.6759889125824	movie	1		242	19.0	2.5	/experiments/knapen_AOT/AOT_stimuli/rescaled_final/0339_rv.mp4	0.0	201.8802969455719	2.492216110229492
21	118.06409978866577	pulse	1	t		19.0	2.5	/experiments/knapen_AOT/AOT_stimuli/rescaled_final/0339_rv.mp4	0.0	202.26840782165527	
21	119.65985798835754	pulse	1	t		19.0	2.5	/experiments/knapen_AOT/AOT_stimuli/rescaled_final/0339_rv.mp4	0.0	203.86416602134705	
21	120.16820502281189	fix_post	2		12	19.0	2.5	/experiments/knapen_AOT/AOT_stimuli/rescaled_final/0339_rv.mp4	0.0	204.3725130558014	0.09973692893981934
22	120.26794195175171	fix_pre	0		120	20.0	2.5	blank	1.0	204.4722499847412	1.0001800060272217
22	121.26008892059326	pulse	0	t		20.0	2.5	blank	1.0	205.46439695358276	
22	121.26812195777893	movie	1		301	20.0	2.5	blank	1.0	205.47242999076843	2.5087668895721436
22	122.85278296470642	pulse	1	t		20.0	2.5	blank	1.0	207.05709099769592	
22	123.77688884735107	fix_post	2		12	20.0	2.5	blank	1.0	207.98119688034058	0.10001707077026367
23	123.87690591812134	fix_pre	0		120	21.0	2.5	/experiments/knapen_AOT/AOT_stimuli/rescaled_final/1726_rv.mp4	0.0	208.08121395111084	1.000140905380249
23	124.45303392410278	pulse	0	t		21.0	2.5	/experiments/knapen_AOT/AOT_stimuli/rescaled_final/1726_rv.mp4	0.0	208.65734195709229	
23	124.87704682350159	movie	1		242	21.0	2.5	/experiments/knapen_AOT/AOT_stimuli/rescaled_final/1726_rv.mp4	0.0	209.0813548564911	2.5003960132598877
23	126.0529088973999	pulse	1	t		21.0	2.5	/experiments/knapen_AOT/AOT_stimuli/rescaled_final/1726_rv.mp4	0.0	210.2572169303894	
23	127.37744283676147	fix_post	2		12	21.0	2.5	/experiments/knapen_AOT/AOT_stimuli/rescaled_final/1726_rv.mp4	0.0	211.58175086975098	0.09993815422058105
24	127.47738099098206	fix_pre	0		120	22.0	2.5	/experiments/knapen_AOT/AOT_stimuli/rescaled_final/1985_fw.mp4	0.0	211.68168902397156	1.0001919269561768
24	127.65336394309998	pulse	0	t		22.0	2.5	/experiments/knapen_AOT/AOT_stimuli/rescaled_final/1985_fw.mp4	0.0	211.85767197608948	
24	128.47757291793823	movie	1		244	22.0	2.5	/experiments/knapen_AOT/AOT_stimuli/rescaled_final/1985_fw.mp4	0.0	212.68188095092773	2.5003879070281982
24	129.25296592712402	pulse	1	t		22.0	2.5	/experiments/knapen_AOT/AOT_stimuli/rescaled_final/1985_fw.mp4	0.0	213.45727396011353	
24	130.85300588607788	pulse	1	t		22.0	2.5	/experiments/knapen_AOT/AOT_stimuli/rescaled_final/1985_fw.mp4	0.0	215.05731391906738	
24	130.97796082496643	fix_post	2		12	22.0	2.5	/experiments/knapen_AOT/AOT_stimuli/rescaled_final/1985_fw.mp4	0.0	215.18226885795593	0.1000361442565918
25	131.07799696922302	fix_pre	0		120	23.0	2.5	/experiments/knapen_AOT/AOT_stimuli/rescaled_final/0734_fw.mp4	0.0	215.28230500221252	1.0001099109649658
25	132.078106880188	movie	1		242	23.0	2.5	/experiments/knapen_AOT/AOT_stimuli/rescaled_final/0734_fw.mp4	0.0	216.2824149131775	2.492156982421875
25	132.45327281951904	pulse	1	t		23.0	2.5	/experiments/knapen_AOT/AOT_stimuli/rescaled_final/0734_fw.mp4	0.0	216.65758085250854	
25	134.05361700057983	pulse	1	t		23.0	2.5	/experiments/knapen_AOT/AOT_stimuli/rescaled_final/0734_fw.mp4	0.0	218.25792503356934	
25	134.57026386260986	fix_post	2		12	23.0	2.5	/experiments/knapen_AOT/AOT_stimuli/rescaled_final/0734_fw.mp4	0.0	218.77457189559937	0.09988999366760254
26	134.67015385627747	fix_pre	0		119	24.0	2.5	/experiments/knapen_AOT/AOT_stimuli/rescaled_final/0614_fw.mp4	0.0	218.87446188926697	0.991750955581665
26	135.65387892723083	pulse	0	t		24.0	2.5	/experiments/knapen_AOT/AOT_stimuli/rescaled_final/0614_fw.mp4	0.0	219.85818696022034	
26	135.66190481185913	movie	1		244	24.0	2.5	/experiments/knapen_AOT/AOT_stimuli/rescaled_final/0614_fw.mp4	0.0	219.86621284484863	2.508812189102173
26	137.25455379486084	pulse	1	t		24.0	2.5	/experiments/knapen_AOT/AOT_stimuli/rescaled_final/0614_fw.mp4	0.0	221.45886182785034	
26	138.1707170009613	fix_post	2		12	24.0	2.5	/experiments/knapen_AOT/AOT_stimuli/rescaled_final/0614_fw.mp4	0.0	222.3750250339508	0.09993290901184082
27	138.27064990997314	fix_pre	0		120	25.0	2.5	/experiments/knapen_AOT/AOT_stimuli/rescaled_final/0187_fw.mp4	0.0	222.47495794296265	1.0001940727233887
27	138.85428595542908	pulse	0	t		25.0	2.5	/experiments/knapen_AOT/AOT_stimuli/rescaled_final/0187_fw.mp4	0.0	223.05859398841858	
27	139.27084398269653	movie	1		244	25.0	2.5	/experiments/knapen_AOT/AOT_stimuli/rescaled_final/0187_fw.mp4	0.0	223.47515201568604	2.5003609657287598
27	140.4545350074768	pulse	1	t		25.0	2.5	/experiments/knapen_AOT/AOT_stimuli/rescaled_final/0187_fw.mp4	0.0	224.6588430404663	
27	141.7712049484253	fix_post	2		12	25.0	2.5	/experiments/knapen_AOT/AOT_stimuli/rescaled_final/0187_fw.mp4	0.0	225.9755129814148	0.10000300407409668
28	141.8712079524994	fix_pre	0		120	26.0	2.5	/experiments/knapen_AOT/AOT_stimuli/rescaled_final/0430_fw.mp4	0.0	226.0755159854889	1.0001368522644043
28	142.05486392974854	pulse	0	t		26.0	2.5	/experiments/knapen_AOT/AOT_stimuli/rescaled_final/0430_fw.mp4	0.0	226.25917196273804	
28	142.8713448047638	movie	1		243	26.0	2.5	/experiments/knapen_AOT/AOT_stimuli/rescaled_final/0430_fw.mp4	0.0	227.0756528377533	2.5005741119384766
28	143.6550588607788	pulse	1	t		26.0	2.5	/experiments/knapen_AOT/AOT_stimuli/rescaled_final/0430_fw.mp4	0.0	227.8593668937683	
28	145.25512599945068	pulse	1	t		26.0	2.5	/experiments/knapen_AOT/AOT_stimuli/rescaled_final/0430_fw.mp4	0.0	229.45943403244019	
28	145.37191891670227	fix_post	2		12	26.0	2.5	/experiments/knapen_AOT/AOT_stimuli/rescaled_final/0430_fw.mp4	0.0	229.57622694969177	0.09987902641296387
29	145.47179794311523	fix_pre	0		120	27.0	2.5	/experiments/knapen_AOT/AOT_stimuli/rescaled_final/1259_fw.mp4	0.0	229.67610597610474	1.000072956085205
29	146.47187089920044	movie	1		242	27.0	2.5	/experiments/knapen_AOT/AOT_stimuli/rescaled_final/1259_fw.mp4	0.0	230.67617893218994	2.492116928100586
29	146.85599780082703	pulse	1	t		27.0	2.5	/experiments/knapen_AOT/AOT_stimuli/rescaled_final/1259_fw.mp4	0.0	231.06030583381653	
29	148.45575189590454	pulse	1	t		27.0	2.5	/experiments/knapen_AOT/AOT_stimuli/rescaled_final/1259_fw.mp4	0.0	232.66005992889404	
29	148.96398782730103	fix_post	2		12	27.0	2.5	/experiments/knapen_AOT/AOT_stimuli/rescaled_final/1259_fw.mp4	0.0	233.16829586029053	0.10002899169921875
30	149.06401681900024	fix_pre	0		120	28.0	2.5	blank	1.0	233.26832485198975	1.0000970363616943
30	150.05606079101562	pulse	0	t		28.0	2.5	blank	1.0	234.26036882400513	
30	150.06411385536194	movie	1		301	28.0	2.5	blank	1.0	234.26842188835144	2.5087180137634277
30	151.65631079673767	pulse	1	t		28.0	2.5	blank	1.0	235.86061882972717	
30	152.57283186912537	fix_post	2		12	28.0	2.5	blank	1.0	236.77713990211487	0.10001301765441895
31	152.67284488677979	fix_pre	0		120	29.0	2.5	/experiments/knapen_AOT/AOT_stimuli/rescaled_final/2165_fw.mp4	0.0	236.8771529197693	1.0001800060272217
31	153.256520986557	pulse	0	t		29.0	2.5	/experiments/knapen_AOT/AOT_stimuli/rescaled_final/2165_fw.mp4	0.0	237.4608290195465	
31	153.673024892807	movie	1		238	29.0	2.5	/experiments/knapen_AOT/AOT_stimuli/rescaled_final/2165_fw.mp4	0.0	237.8773329257965	2.500430107116699
31	154.85671591758728	pulse	1	t		29.0	2.5	/experiments/knapen_AOT/AOT_stimuli/rescaled_final/2165_fw.mp4	0.0	239.06102395057678	
31	156.1734549999237	fix_post	2		12	29.0	2.5	/experiments/knapen_AOT/AOT_stimuli/rescaled_final/2165_fw.mp4	0.0	240.3777630329132	0.09991097450256348
32	156.27336597442627	fix_pre	0		120	30.0	2.5	/experiments/knapen_AOT/AOT_stimuli/rescaled_final/0271_rv.mp4	0.0	240.47767400741577	1.0001118183135986
32	156.45699095726013	pulse	0	t		30.0	2.5	/experiments/knapen_AOT/AOT_stimuli/rescaled_final/0271_rv.mp4	0.0	240.66129899024963	
32	157.27347779273987	movie	1		243	30.0	2.5	/experiments/knapen_AOT/AOT_stimuli/rescaled_final/0271_rv.mp4	0.0	241.47778582572937	2.5006091594696045
32	158.05719900131226	pulse	1	t		30.0	2.5	/experiments/knapen_AOT/AOT_stimuli/rescaled_final/0271_rv.mp4	0.0	242.26150703430176	
32	159.65737891197205	pulse	1	t		30.0	2.5	/experiments/knapen_AOT/AOT_stimuli/rescaled_final/0271_rv.mp4	0.0	243.86168694496155	
32	159.77408695220947	fix_post	2		12	30.0	2.5	/experiments/knapen_AOT/AOT_stimuli/rescaled_final/0271_rv.mp4	0.0	243.97839498519897	0.09984683990478516
33	159.87393379211426	fix_pre	0		120	31.0	2.5	/experiments/knapen_AOT/AOT_stimuli/rescaled_final/1653_rv.mp4	0.0	244.07824182510376	1.0001790523529053
33	160.87411284446716	movie	1		241	31.0	2.5	/experiments/knapen_AOT/AOT_stimuli/rescaled_final/1653_rv.mp4	0.0	245.07842087745667	2.492108106613159
33	161.2581717967987	pulse	1	t		31.0	2.5	/experiments/knapen_AOT/AOT_stimuli/rescaled_final/1653_rv.mp4	0.0	245.4624798297882	
33	162.8578758239746	pulse	1	t		31.0	2.5	/experiments/knapen_AOT/AOT_stimuli/rescaled_final/1653_rv.mp4	0.0	247.0621838569641	
33	163.36622095108032	fix_post	2		12	31.0	2.5	/experiments/knapen_AOT/AOT_stimuli/rescaled_final/1653_rv.mp4	0.0	247.57052898406982	0.09991693496704102
34	163.46613788604736	fix_pre	0		120	32.0	2.5	/experiments/knapen_AOT/AOT_stimuli/rescaled_final/1197_rv.mp4	0.0	247.67044591903687	1.0000810623168945
34	164.4582278728485	pulse	0	t		32.0	2.5	/experiments/knapen_AOT/AOT_stimuli/rescaled_final/1197_rv.mp4	0.0	248.662535905838	
34	164.46621894836426	movie	1		243	32.0	2.5	/experiments/knapen_AOT/AOT_stimuli/rescaled_final/1197_rv.mp4	0.0	248.67052698135376	2.5088119506835938
34	166.05888986587524	pulse	1	t		32.0	2.5	/experiments/knapen_AOT/AOT_stimuli/rescaled_final/1197_rv.mp4	0.0	250.26319789886475	
34	166.97503089904785	fix_post	2		12	32.0	2.5	/experiments/knapen_AOT/AOT_stimuli/rescaled_final/1197_rv.mp4	0.0	251.17933893203735	0.09996700286865234
35	167.0749979019165	fix_pre	0		120	33.0	2.5	blank	1.0	251.279305934906	1.0001261234283447
35	167.65858101844788	pulse	0	t		33.0	2.5	blank	1.0	251.86288905143738	
35	168.07512402534485	movie	1		300	33.0	2.5	blank	1.0	252.27943205833435	2.5003559589385986
35	169.25877285003662	pulse	1	t		33.0	2.5	blank	1.0	253.46308088302612	
35	170.57547998428345	fix_post	2		12	33.0	2.5	blank	1.0	254.77978801727295	0.10003781318664551
36	170.6755177974701	fix_pre	0		120	34.0	2.5	/experiments/knapen_AOT/AOT_stimuli/rescaled_final/1652_rv.mp4	0.0	254.8798258304596	1.0001680850982666
36	170.85909700393677	pulse	0	t		34.0	2.5	/experiments/knapen_AOT/AOT_stimuli/rescaled_final/1652_rv.mp4	0.0	255.06340503692627	
36	171.67568588256836	movie	1		242	34.0	2.5	/experiments/knapen_AOT/AOT_stimuli/rescaled_final/1652_rv.mp4	0.0	255.87999391555786	2.5004711151123047
36	172.4594178199768	pulse	1	t		34.0	2.5	/experiments/knapen_AOT/AOT_stimuli/rescaled_final/1652_rv.mp4	0.0	256.6637258529663	
36	174.0595359802246	pulse	1	t		34.0	2.5	/experiments/knapen_AOT/AOT_stimuli/rescaled_final/1652_rv.mp4	0.0	258.2638440132141	
36	174.17615699768066	fix_post	2		12	34.0	2.5	/experiments/knapen_AOT/AOT_stimuli/rescaled_final/1652_rv.mp4	0.0	258.38046503067017	0.09995388984680176
37	174.27611088752747	fix_pre	0		120	35.0	2.5	/experiments/knapen_AOT/AOT_stimuli/rescaled_final/0999_fw.mp4	0.0	258.48041892051697	1.000133991241455
37	175.27624487876892	movie	1		242	35.0	2.5	/experiments/knapen_AOT/AOT_stimuli/rescaled_final/0999_fw.mp4	0.0	259.4805529117584	2.4921469688415527
37	175.6605508327484	pulse	1	t		35.0	2.5	/experiments/knapen_AOT/AOT_stimuli/rescaled_final/0999_fw.mp4	0.0	259.8648588657379	
37	177.2600178718567	pulse	1	t		35.0	2.5	/experiments/knapen_AOT/AOT_stimuli/rescaled_final/0999_fw.mp4	0.0	261.4643259048462	
37	177.76839184761047	fix_post	2		12	35.0	2.5	/experiments/knapen_AOT/AOT_stimuli/rescaled_final/0999_fw.mp4	0.0	261.9726998806	0.09984517097473145
38	177.8682370185852	fix_pre	0		120	36.0	2.5	/experiments/knapen_AOT/AOT_stimuli/rescaled_final/1363_rv.mp4	0.0	262.0725450515747	1.0001599788665771
38	178.8603389263153	pulse	0	t		36.0	2.5	/experiments/knapen_AOT/AOT_stimuli/rescaled_final/1363_rv.mp4	0.0	263.0646469593048	
38	178.86839699745178	movie	1		243	36.0	2.5	/experiments/knapen_AOT/AOT_stimuli/rescaled_final/1363_rv.mp4	0.0	263.0727050304413	2.5088047981262207
38	180.4610939025879	pulse	1	t		36.0	2.5	/experiments/knapen_AOT/AOT_stimuli/rescaled_final/1363_rv.mp4	0.0	264.6654019355774	
38	181.377201795578	fix_post	2		12	36.0	2.5	/experiments/knapen_AOT/AOT_stimuli/rescaled_final/1363_rv.mp4	0.0	265.5815098285675	0.09994721412658691
39	181.4771490097046	fix_pre	0		120	37.0	2.5	/experiments/knapen_AOT/AOT_stimuli/rescaled_final/1871_fw.mp4	0.0	265.6814570426941	1.0001018047332764
39	182.0607259273529	pulse	0	t		37.0	2.5	/experiments/knapen_AOT/AOT_stimuli/rescaled_final/1871_fw.mp4	0.0	266.2650339603424	
39	182.47725081443787	movie	1		243	37.0	2.5	/experiments/knapen_AOT/AOT_stimuli/rescaled_final/1871_fw.mp4	0.0	266.68155884742737	2.5005970001220703
39	183.6610188484192	pulse	1	t		37.0	2.5	/experiments/knapen_AOT/AOT_stimuli/rescaled_final/1871_fw.mp4	0.0	267.8653268814087	
39	184.97784781455994	fix_post	2		12	37.0	2.5	/experiments/knapen_AOT/AOT_stimuli/rescaled_final/1871_fw.mp4	0.0	269.18215584754944	0.09985804557800293
40	185.07770586013794	fix_pre	0		120	38.0	2.5	/experiments/knapen_AOT/AOT_stimuli/rescaled_final/0817_rv.mp4	0.0	269.28201389312744	1.0000829696655273
40	185.25369000434875	pulse	0	t		38.0	2.5	/experiments/knapen_AOT/AOT_stimuli/rescaled_final/0817_rv.mp4	0.0	269.45799803733826	
40	186.07778882980347	movie	1		242	38.0	2.5	/experiments/knapen_AOT/AOT_stimuli/rescaled_final/0817_rv.mp4	0.0	270.28209686279297	2.5005600452423096
40	186.85415601730347	pulse	1	t		38.0	2.5	/experiments/knapen_AOT/AOT_stimuli/rescaled_final/0817_rv.mp4	0.0	271.05846405029297	
40	188.46291494369507	pulse	1	t		38.0	2.5	/experiments/knapen_AOT/AOT_stimuli/rescaled_final/0817_rv.mp4	0.0	272.66722297668457	
40	188.57834887504578	fix_post	2		12	38.0	2.5	/experiments/knapen_AOT/AOT_stimuli/rescaled_final/0817_rv.mp4	0.0	272.7826569080353	0.09986710548400879
41	188.67821598052979	fix_pre	0		120	39.0	2.5	/experiments/knapen_AOT/AOT_stimuli/rescaled_final/1928_fw.mp4	0.0	272.8825240135193	1.0001180171966553
41	189.67833399772644	movie	1		242	39.0	2.5	/experiments/knapen_AOT/AOT_stimuli/rescaled_final/1928_fw.mp4	0.0	273.88264203071594	2.4921720027923584
41	190.05363583564758	pulse	1	t		39.0	2.5	/experiments/knapen_AOT/AOT_stimuli/rescaled_final/1928_fw.mp4	0.0	274.2579438686371	
41	191.65381479263306	pulse	1	t		39.0	2.5	/experiments/knapen_AOT/AOT_stimuli/rescaled_final/1928_fw.mp4	0.0	275.85812282562256	
41	192.1705060005188	fix_post	2		12	39.0	2.5	/experiments/knapen_AOT/AOT_stimuli/rescaled_final/1928_fw.mp4	0.0	276.3748140335083	0.09988093376159668
42	192.2703869342804	fix_pre	0		119	40.0	2.5	/experiments/knapen_AOT/AOT_stimuli/rescaled_final/2079_fw.mp4	0.0	276.4746949672699	0.9919159412384033
42	193.25400590896606	pulse	0	t		40.0	2.5	/experiments/knapen_AOT/AOT_stimuli/rescaled_final/2079_fw.mp4	0.0	277.45831394195557	
42	193.2623028755188	movie	1		244	40.0	2.5	/experiments/knapen_AOT/AOT_stimuli/rescaled_final/2079_fw.mp4	0.0	277.4666109085083	2.5086851119995117
42	194.85480380058289	pulse	1	t		40.0	2.5	/experiments/knapen_AOT/AOT_stimuli/rescaled_final/2079_fw.mp4	0.0	279.0591118335724	
42	195.7709879875183	fix_post	2		12	40.0	2.5	/experiments/knapen_AOT/AOT_stimuli/rescaled_final/2079_fw.mp4	0.0	279.9752960205078	0.09998393058776855
43	195.87097191810608	fix_pre	0		120	41.0	2.5	/experiments/knapen_AOT/AOT_stimuli/rescaled_final/0408_fw.mp4	0.0	280.0752799510956	1.000128984451294
43	196.45451092720032	pulse	0	t		41.0	2.5	/experiments/knapen_AOT/AOT_stimuli/rescaled_final/0408_fw.mp4	0.0	280.6588189601898	
43	196.87110090255737	movie	1		243	41.0	2.5	/experiments/knapen_AOT/AOT_stimuli/rescaled_final/0408_fw.mp4	0.0	281.0754089355469	2.500478982925415
43	198.0549008846283	pulse	1	t		41.0	2.5	/experiments/knapen_AOT/AOT_stimuli/rescaled_final/0408_fw.mp4	0.0	282.2592089176178	
43	199.3715798854828	fix_post	2		12	41.0	2.5	/experiments/knapen_AOT/AOT_stimuli/rescaled_final/0408_fw.mp4	0.0	283.5758879184723	0.09995603561401367
44	199.4715359210968	fix_pre	0		120	42.0	2.5	blank	1.0	283.6758439540863	1.0001239776611328
44	199.6550099849701	pulse	0	t		42.0	2.5	blank	1.0	283.8593180179596	
44	200.47165989875793	movie	1		300	42.0	2.5	blank	1.0	284.67596793174744	2.5003390312194824
44	201.2553288936615	pulse	1	t		42.0	2.5	blank	1.0	285.459636926651	
44	202.8554790019989	pulse	1	t		42.0	2.5	blank	1.0	287.0597870349884	
44	202.97199892997742	fix_post	2		12	42.0	2.5	blank	1.0	287.1763069629669	0.10002803802490234
45	203.07202696800232	fix_pre	0		119	43.0	2.5	/experiments/knapen_AOT/AOT_stimuli/rescaled_final/1796_rv.mp4	0.0	287.2763350009918	0.9918239116668701
45	204.0638508796692	movie	1		244	43.0	2.5	/experiments/knapen_AOT/AOT_stimuli/rescaled_final/1796_rv.mp4	0.0	288.2681589126587	2.5003530979156494
45	204.4558868408203	pulse	1	t		43.0	2.5	/experiments/knapen_AOT/AOT_stimuli/rescaled_final/1796_rv.mp4	0.0	288.6601948738098	
45	206.05606198310852	pulse	1	t		43.0	2.5	/experiments/knapen_AOT/AOT_stimuli/rescaled_final/1796_rv.mp4	0.0	290.260370016098	
45	206.56420397758484	fix_post	2		12	43.0	2.5	/experiments/knapen_AOT/AOT_stimuli/rescaled_final/1796_rv.mp4	0.0	290.76851201057434	0.10005593299865723
46	206.6642599105835	fix_pre	0		120	44.0	2.5	/experiments/knapen_AOT/AOT_stimuli/rescaled_final/1915_fw.mp4	0.0	290.868567943573	1.000133991241455
46	207.65625882148743	pulse	0	t		44.0	2.5	/experiments/knapen_AOT/AOT_stimuli/rescaled_final/1915_fw.mp4	0.0	291.86056685447693	
46	207.66439390182495	movie	1		243	44.0	2.5	/experiments/knapen_AOT/AOT_stimuli/rescaled_final/1915_fw.mp4	0.0	291.86870193481445	2.5087759494781494
46	209.2576539516449	pulse	1	t		44.0	2.5	/experiments/knapen_AOT/AOT_stimuli/rescaled_final/1915_fw.mp4	0.0	293.4619619846344	
46	210.1731698513031	fix_post	2		12	44.0	2.5	/experiments/knapen_AOT/AOT_stimuli/rescaled_final/1915_fw.mp4	0.0	294.3774778842926	0.09992599487304688
47	210.27309584617615	fix_pre	0		120	45.0	2.5	/experiments/knapen_AOT/AOT_stimuli/rescaled_final/1468_fw.mp4	0.0	294.47740387916565	1.0001411437988281
47	210.85678386688232	pulse	0	t		45.0	2.5	/experiments/knapen_AOT/AOT_stimuli/rescaled_final/1468_fw.mp4	0.0	295.0610918998718	
47	211.27323698997498	movie	1		242	45.0	2.5	/experiments/knapen_AOT/AOT_stimuli/rescaled_final/1468_fw.mp4	0.0	295.4775450229645	2.5006020069122314
47	212.45281100273132	pulse	1	t		45.0	2.5	/experiments/knapen_AOT/AOT_stimuli/rescaled_final/1468_fw.mp4	0.0	296.6571190357208	
47	213.7738389968872	fix_post	2		12	45.0	2.5	/experiments/knapen_AOT/AOT_stimuli/rescaled_final/1468_fw.mp4	0.0	297.9781470298767	0.09982085227966309
48	213.87365984916687	fix_pre	0		120	46.0	2.5	/experiments/knapen_AOT/AOT_stimuli/rescaled_final/0039_rv.mp4	0.0	298.0779678821564	1.0002131462097168
48	214.05719685554504	pulse	0	t		46.0	2.5	/experiments/knapen_AOT/AOT_stimuli/rescaled_final/0039_rv.mp4	0.0	298.26150488853455	
48	214.8738729953766	movie	1		243	46.0	2.5	/experiments/knapen_AOT/AOT_stimuli/rescaled_final/0039_rv.mp4	0.0	299.0781810283661	2.500269889831543
48	215.6574318408966	pulse	1	t		46.0	2.5	/experiments/knapen_AOT/AOT_stimuli/rescaled_final/0039_rv.mp4	0.0	299.8617398738861	
48	217.25800395011902	pulse	1	t		46.0	2.5	/experiments/knapen_AOT/AOT_stimuli/rescaled_final/0039_rv.mp4	0.0	301.4623119831085	
48	217.37414288520813	fix_post	2		10	46.0	2.5	/experiments/knapen_AOT/AOT_stimuli/rescaled_final/0039_rv.mp4	0.0	301.57845091819763	0.10002708435058594
49	217.47416996955872	fix_pre	0		119	47.0	2.5	/experiments/knapen_AOT/AOT_stimuli/rescaled_final/1276_fw.mp4	0.0	301.6784780025482	0.9918549060821533
49	218.46602487564087	movie	1		243	47.0	2.5	/experiments/knapen_AOT/AOT_stimuli/rescaled_final/1276_fw.mp4	0.0	302.67033290863037	2.5004079341888428
49	218.85825991630554	pulse	1	t		47.0	2.5	/experiments/knapen_AOT/AOT_stimuli/rescaled_final/1276_fw.mp4	0.0	303.06256794929504	
49	220.45823884010315	pulse	1	t		47.0	2.5	/experiments/knapen_AOT/AOT_stimuli/rescaled_final/1276_fw.mp4	0.0	304.66254687309265	
49	220.9664328098297	fix_post	2		12	47.0	2.5	/experiments/knapen_AOT/AOT_stimuli/rescaled_final/1276_fw.mp4	0.0	305.1707408428192	0.09991312026977539
50	221.0663459300995	fix_pre	0		120	48.0	2.5	blank	1.0	305.270653963089	1.0002150535583496
50	222.05840492248535	pulse	0	t		48.0	2.5	blank	1.0	306.26271295547485	
50	222.06656098365784	movie	1		301	48.0	2.5	blank	1.0	306.27086901664734	2.508646011352539
50	223.65855288505554	pulse	1	t		48.0	2.5	blank	1.0	307.86286091804504	
50	224.57520699501038	fix_post	2		12	48.0	2.5	blank	1.0	308.7795150279999	0.10001301765441895
51	224.6752200126648	fix_pre	0		120	49.0	2.5	/experiments/knapen_AOT/AOT_stimuli/rescaled_final/1928_fw.mp4	0.0	308.8795280456543	1.0001459121704102
51	225.2588279247284	pulse	0	t		49.0	2.5	/experiments/knapen_AOT/AOT_stimuli/rescaled_final/1928_fw.mp4	0.0	309.4631359577179	
51	225.6753659248352	movie	1		243	49.0	2.5	/experiments/knapen_AOT/AOT_stimuli/rescaled_final/1928_fw.mp4	0.0	309.8796739578247	2.5004489421844482
51	226.85926485061646	pulse	1	t		49.0	2.5	/experiments/knapen_AOT/AOT_stimuli/rescaled_final/1928_fw.mp4	0.0	311.06357288360596	
51	228.17581486701965	fix_post	2		12	49.0	2.5	/experiments/knapen_AOT/AOT_stimuli/rescaled_final/1928_fw.mp4	0.0	312.38012290000916	0.09999513626098633
52	228.27581000328064	fix_pre	0		120	50.0	2.5	/experiments/knapen_AOT/AOT_stimuli/rescaled_final/1878_rv.mp4	0.0	312.48011803627014	1.0001659393310547
52	228.45937585830688	pulse	0	t		50.0	2.5	/experiments/knapen_AOT/AOT_stimuli/rescaled_final/1878_rv.mp4	0.0	312.6636838912964	
52	229.2759759426117	movie	1		243	50.0	2.5	/experiments/knapen_AOT/AOT_stimuli/rescaled_final/1878_rv.mp4	0.0	313.4802839756012	2.500391960144043
52	230.0595269203186	pulse	1	t		50.0	2.5	/experiments/knapen_AOT/AOT_stimuli/rescaled_final/1878_rv.mp4	0.0	314.2638349533081	
52	231.65952682495117	pulse	1	t		50.0	2.5	/experiments/knapen_AOT/AOT_stimuli/rescaled_final/1878_rv.mp4	0.0	315.8638348579407	
52	231.77636790275574	fix_post	2		12	50.0	2.5	/experiments/knapen_AOT/AOT_stimuli/rescaled_final/1878_rv.mp4	0.0	315.98067593574524	0.09992599487304688
53	231.87629389762878	fix_pre	0		120	51.0	2.5	/experiments/knapen_AOT/AOT_stimuli/rescaled_final/0606_fw.mp4	0.0	316.0806019306183	1.00018310546875
53	232.87647700309753	movie	1		243	51.0	2.5	/experiments/knapen_AOT/AOT_stimuli/rescaled_final/0606_fw.mp4	0.0	317.08078503608704	2.4920408725738525
53	233.26043486595154	pulse	1	t		51.0	2.5	/experiments/knapen_AOT/AOT_stimuli/rescaled_final/0606_fw.mp4	0.0	317.46474289894104	
53	234.85306596755981	pulse	1	t		51.0	2.5	/experiments/knapen_AOT/AOT_stimuli/rescaled_final/0606_fw.mp4	0.0	319.0573740005493	
53	235.3685178756714	fix_post	2		12	51.0	2.5	/experiments/knapen_AOT/AOT_stimuli/rescaled_final/0606_fw.mp4	0.0	319.5728259086609	0.10005402565002441
54	235.4685719013214	fix_pre	0		120	52.0	2.5	/experiments/knapen_AOT/AOT_stimuli/rescaled_final/1796_fw.mp4	0.0	319.6728799343109	1.0001349449157715
54	236.4531807899475	pulse	0	t		52.0	2.5	/experiments/knapen_AOT/AOT_stimuli/rescaled_final/1796_fw.mp4	0.0	320.657488822937	
54	236.46870684623718	movie	1		244	52.0	2.5	/experiments/knapen_AOT/AOT_stimuli/rescaled_final/1796_fw.mp4	0.0	320.6730148792267	2.5087101459503174
54	238.061381816864	pulse	1	t		52.0	2.5	/experiments/knapen_AOT/AOT_stimuli/rescaled_final/1796_fw.mp4	0.0	322.2656898498535	
54	238.9774169921875	fix_post	2		12	52.0	2.5	/experiments/knapen_AOT/AOT_stimuli/rescaled_final/1796_fw.mp4	0.0	323.181725025177	0.09995889663696289
55	239.07737588882446	fix_pre	0		120	53.0	2.5	/experiments/knapen_AOT/AOT_stimuli/rescaled_final/0011_rv.mp4	0.0	323.28168392181396	1.0001659393310547
55	239.6534388065338	pulse	0	t		53.0	2.5	/experiments/knapen_AOT/AOT_stimuli/rescaled_final/0011_rv.mp4	0.0	323.8577468395233	
55	240.07754182815552	movie	1		242	53.0	2.5	/experiments/knapen_AOT/AOT_stimuli/rescaled_final/0011_rv.mp4	0.0	324.281849861145	2.500655174255371
55	241.2535538673401	pulse	1	t		53.0	2.5	/experiments/knapen_AOT/AOT_stimuli/rescaled_final/0011_rv.mp4	0.0	325.4578619003296	
55	242.5781970024109	fix_post	2		12	53.0	2.5	/experiments/knapen_AOT/AOT_stimuli/rescaled_final/0011_rv.mp4	0.0	326.7825050354004	0.09974980354309082
56	242.67794680595398	fix_pre	0		120	54.0	2.5	/experiments/knapen_AOT/AOT_stimuli/rescaled_final/2154_fw.mp4	0.0	326.8822548389435	1.0001931190490723
56	242.8532519340515	pulse	0	t		54.0	2.5	/experiments/knapen_AOT/AOT_stimuli/rescaled_final/2154_fw.mp4	0.0	327.057559967041	
56	243.67813992500305	movie	1		245	54.0	2.5	/experiments/knapen_AOT/AOT_stimuli/rescaled_final/2154_fw.mp4	0.0	327.88244795799255	2.5003559589385986
56	244.45333194732666	pulse	1	t		54.0	2.5	/experiments/knapen_AOT/AOT_stimuli/rescaled_final/2154_fw.mp4	0.0	328.65763998031616	
56	246.0535328388214	pulse	1	t		54.0	2.5	/experiments/knapen_AOT/AOT_stimuli/rescaled_final/2154_fw.mp4	0.0	330.2578408718109	
56	246.17849588394165	fix_post	2		12	54.0	2.5	/experiments/knapen_AOT/AOT_stimuli/rescaled_final/2154_fw.mp4	0.0	330.38280391693115	0.09995603561401367
57	246.27845191955566	fix_pre	0		119	55.0	2.5	/experiments/knapen_AOT/AOT_stimuli/rescaled_final/0666_rv.mp4	0.0	330.48275995254517	0.9918150901794434
57	247.2702670097351	movie	1		242	55.0	2.5	/experiments/knapen_AOT/AOT_stimuli/rescaled_final/0666_rv.mp4	0.0	331.4745750427246	2.500560998916626
57	247.65430283546448	pulse	1	t		55.0	2.5	/experiments/knapen_AOT/AOT_stimuli/rescaled_final/0666_rv.mp4	0.0	331.858610868454	
57	249.25405883789062	pulse	1	t		55.0	2.5	/experiments/knapen_AOT/AOT_stimuli/rescaled_final/0666_rv.mp4	0.0	333.4583668708801	
57	249.77082800865173	fix_post	2		12	55.0	2.5	/experiments/knapen_AOT/AOT_stimuli/rescaled_final/0666_rv.mp4	0.0	333.97513604164124	0.09991693496704102
58	249.87074494361877	fix_pre	0		119	56.0	2.5	blank	1.0	334.0750529766083	0.991718053817749
58	250.85442090034485	pulse	0	t		56.0	2.5	blank	1.0	335.05872893333435	
58	250.86246299743652	movie	1		301	56.0	2.5	blank	1.0	335.066771030426	2.508790969848633
58	252.45451879501343	pulse	1	t		56.0	2.5	blank	1.0	336.65882682800293	
58	253.37125396728516	fix_post	2		12	56.0	2.5	blank	1.0	337.57556200027466	0.09999489784240723
59	253.47124886512756	fix_pre	0		120	57.0	2.5	/experiments/knapen_AOT/AOT_stimuli/rescaled_final/1553_fw.mp4	0.0	337.67555689811707	1.0000910758972168
59	254.05484294891357	pulse	0	t		57.0	2.5	/experiments/knapen_AOT/AOT_stimuli/rescaled_final/1553_fw.mp4	0.0	338.2591509819031	
59	254.47133994102478	movie	1		243	57.0	2.5	/experiments/knapen_AOT/AOT_stimuli/rescaled_final/1553_fw.mp4	0.0	338.6756479740143	2.500558853149414
59	255.6551558971405	pulse	1	t		57.0	2.5	/experiments/knapen_AOT/AOT_stimuli/rescaled_final/1553_fw.mp4	0.0	339.85946393013	
59	256.9718987941742	fix_post	2		12	57.0	2.5	/experiments/knapen_AOT/AOT_stimuli/rescaled_final/1553_fw.mp4	0.0	341.1762068271637	0.0998220443725586
60	257.07172083854675	fix_pre	0		120	58.0	2.5	/experiments/knapen_AOT/AOT_stimuli/rescaled_final/1363_fw.mp4	0.0	341.27602887153625	1.0002241134643555
60	257.2554249763489	pulse	0	t		58.0	2.5	/experiments/knapen_AOT/AOT_stimuli/rescaled_final/1363_fw.mp4	0.0	341.4597330093384	
60	258.0719449520111	movie	1		242	58.0	2.5	/experiments/knapen_AOT/AOT_stimuli/rescaled_final/1363_fw.mp4	0.0	342.2762529850006	2.5004520416259766
60	258.85552191734314	pulse	1	t		58.0	2.5	/experiments/knapen_AOT/AOT_stimuli/rescaled_final/1363_fw.mp4	0.0	343.05982995033264	
60	260.4557340145111	pulse	1	t		58.0	2.5	/experiments/knapen_AOT/AOT_stimuli/rescaled_final/1363_fw.mp4	0.0	344.6600420475006	
60	260.5723969936371	fix_post	2		12	58.0	2.5	/experiments/knapen_AOT/AOT_stimuli/rescaled_final/1363_fw.mp4	0.0	344.7767050266266	0.09986591339111328
61	260.6722629070282	fix_pre	0		120	59.0	2.5	/experiments/knapen_AOT/AOT_stimuli/rescaled_final/1078_rv.mp4	0.0	344.8765709400177	1.0001490116119385
61	261.67241191864014	movie	1		241	59.0	2.5	/experiments/knapen_AOT/AOT_stimuli/rescaled_final/1078_rv.mp4	0.0	345.87671995162964	2.4921109676361084
61	262.0608158111572	pulse	1	t		59.0	2.5	/experiments/knapen_AOT/AOT_stimuli/rescaled_final/1078_rv.mp4	0.0	346.26512384414673	
61	263.65638279914856	pulse	1	t		59.0	2.5	/experiments/knapen_AOT/AOT_stimuli/rescaled_final/1078_rv.mp4	0.0	347.86069083213806	
61	264.16452288627625	fix_post	2		12	59.0	2.5	/experiments/knapen_AOT/AOT_stimuli/rescaled_final/1078_rv.mp4	0.0	348.36883091926575	0.09996390342712402
62	264.26448678970337	fix_pre	0		120	60.0	2.5	/experiments/knapen_AOT/AOT_stimuli/rescaled_final/1534_rv.mp4	0.0	348.46879482269287	1.0001351833343506
62	265.2564959526062	pulse	0	t		60.0	2.5	/experiments/knapen_AOT/AOT_stimuli/rescaled_final/1534_rv.mp4	0.0	349.4608039855957	
62	265.2646219730377	movie	1		243	60.0	2.5	/experiments/knapen_AOT/AOT_stimuli/rescaled_final/1534_rv.mp4	0.0	349.4689300060272	2.508733034133911
62	266.8581190109253	pulse	1	t		60.0	2.5	/experiments/knapen_AOT/AOT_stimuli/rescaled_final/1534_rv.mp4	0.0	351.0624270439148	
62	267.77335500717163	fix_post	2		12	60.0	2.5	/experiments/knapen_AOT/AOT_stimuli/rescaled_final/1534_rv.mp4	0.0	351.97766304016113	0.09998679161071777
63	267.87334179878235	fix_pre	0		120	61.0	2.5	blank	1.0	352.07764983177185	1.0002191066741943
63	268.45696997642517	pulse	0	t		61.0	2.5	blank	1.0	352.6612780094147	
63	268.87356090545654	movie	1		300	61.0	2.5	blank	1.0	353.07786893844604	2.5003180503845215
63	270.0572409629822	pulse	1	t		61.0	2.5	blank	1.0	354.2615489959717	
63	271.37387895584106	fix_post	2		12	61.0	2.5	blank	1.0	355.57818698883057	0.09999585151672363
64	271.4738748073578	fix_pre	0		120	62.0	2.5	/experiments/knapen_AOT/AOT_stimuli/rescaled_final/0653_fw.mp4	0.0	355.6781828403473	1.0002532005310059
64	271.6575059890747	pulse	0	t		62.0	2.5	/experiments/knapen_AOT/AOT_stimuli/rescaled_final/0653_fw.mp4	0.0	355.8618140220642	
64	272.4741280078888	movie	1		242	62.0	2.5	/experiments/knapen_AOT/AOT_stimuli/rescaled_final/0653_fw.mp4	0.0	356.6784360408783	2.5004618167877197
64	273.2576630115509	pulse	1	t		62.0	2.5	/experiments/knapen_AOT/AOT_stimuli/rescaled_final/0653_fw.mp4	0.0	357.4619710445404	
64	274.85781598091125	pulse	1	t		62.0	2.5	/experiments/knapen_AOT/AOT_stimuli/rescaled_final/0653_fw.mp4	0.0	359.06212401390076	
64	274.9745898246765	fix_post	2		10	62.0	2.5	/experiments/knapen_AOT/AOT_stimuli/rescaled_final/0653_fw.mp4	0.0	359.178897857666	0.09989118576049805
65	275.074481010437	fix_pre	0		120	63.0	2.5	/experiments/knapen_AOT/AOT_stimuli/rescaled_final/1662_fw.mp4	0.0	359.2787890434265	1.0001258850097656
65	276.0746068954468	movie	1		241	63.0	2.5	/experiments/knapen_AOT/AOT_stimuli/rescaled_final/1662_fw.mp4	0.0	360.2789149284363	2.4921319484710693
65	276.45883989334106	pulse	1	t		63.0	2.5	/experiments/knapen_AOT/AOT_stimuli/rescaled_final/1662_fw.mp4	0.0	360.66314792633057	
65	278.05846190452576	pulse	1	t		63.0	2.5	/experiments/knapen_AOT/AOT_stimuli/rescaled_final/1662_fw.mp4	0.0	362.26276993751526	
65	278.56673884391785	fix_post	2		12	63.0	2.5	/experiments/knapen_AOT/AOT_stimuli/rescaled_final/1662_fw.mp4	0.0	362.77104687690735	0.0999600887298584
66	278.6666989326477	fix_pre	0		120	64.0	2.5	/experiments/knapen_AOT/AOT_stimuli/rescaled_final/0256_rv.mp4	0.0	362.8710069656372	1.0001649856567383
66	279.65864992141724	pulse	0	t		64.0	2.5	/experiments/knapen_AOT/AOT_stimuli/rescaled_final/0256_rv.mp4	0.0	363.86295795440674	
66	279.66686391830444	movie	1		243	64.0	2.5	/experiments/knapen_AOT/AOT_stimuli/rescaled_final/0256_rv.mp4	0.0	363.87117195129395	2.508687973022461
66	281.26335287094116	pulse	1	t		64.0	2.5	/experiments/knapen_AOT/AOT_stimuli/rescaled_final/0256_rv.mp4	0.0	365.46766090393066	
66	282.1755518913269	fix_post	2		12	64.0	2.5	/experiments/knapen_AOT/AOT_stimuli/rescaled_final/0256_rv.mp4	0.0	366.3798599243164	0.10009193420410156
67	282.275643825531	fix_pre	0		120	65.0	2.5	/experiments/knapen_AOT/AOT_stimuli/rescaled_final/1161_rv.mp4	0.0	366.4799518585205	0.9999949932098389
67	282.85916686058044	pulse	0	t		65.0	2.5	/experiments/knapen_AOT/AOT_stimuli/rescaled_final/1161_rv.mp4	0.0	367.06347489356995	
67	283.27563881874084	movie	1		242	65.0	2.5	/experiments/knapen_AOT/AOT_stimuli/rescaled_final/1161_rv.mp4	0.0	367.47994685173035	2.5005409717559814
67	284.45944380760193	pulse	1	t		65.0	2.5	/experiments/knapen_AOT/AOT_stimuli/rescaled_final/1161_rv.mp4	0.0	368.66375184059143	
67	285.7761797904968	fix_post	2		12	65.0	2.5	/experiments/knapen_AOT/AOT_stimuli/rescaled_final/1161_rv.mp4	0.0	369.9804878234863	0.0998990535736084
68	285.87607884407043	fix_pre	0		120	66.0	2.5	/experiments/knapen_AOT/AOT_stimuli/rescaled_final/0688_rv.mp4	0.0	370.08038687705994	1.0002021789550781
68	286.05954599380493	pulse	0	t		66.0	2.5	/experiments/knapen_AOT/AOT_stimuli/rescaled_final/0688_rv.mp4	0.0	370.26385402679443	
68	286.8762810230255	movie	1		242	66.0	2.5	/experiments/knapen_AOT/AOT_stimuli/rescaled_final/0688_rv.mp4	0.0	371.080589056015	2.500358819961548
68	287.659943819046	pulse	1	t		66.0	2.5	/experiments/knapen_AOT/AOT_stimuli/rescaled_final/0688_rv.mp4	0.0	371.8642518520355	
68	289.2608368396759	pulse	1	t		66.0	2.5	/experiments/knapen_AOT/AOT_stimuli/rescaled_final/0688_rv.mp4	0.0	373.4651448726654	
68	289.37663984298706	fix_post	2		12	66.0	2.5	/experiments/knapen_AOT/AOT_stimuli/rescaled_final/0688_rv.mp4	0.0	373.58094787597656	0.10001802444458008
69	289.47665786743164	fix_pre	0		120	67.0	2.5	/experiments/knapen_AOT/AOT_stimuli/rescaled_final/0458_fw.mp4	0.0	373.68096590042114	1.0001461505889893
69	290.47680401802063	movie	1		242	67.0	2.5	/experiments/knapen_AOT/AOT_stimuli/rescaled_final/0458_fw.mp4	0.0	374.68111205101013	2.4921817779541016
69	290.8609387874603	pulse	1	t		67.0	2.5	/experiments/knapen_AOT/AOT_stimuli/rescaled_final/0458_fw.mp4	0.0	375.06524682044983	
69	292.45325088500977	pulse	1	t		67.0	2.5	/experiments/knapen_AOT/AOT_stimuli/rescaled_final/0458_fw.mp4	0.0	376.65755891799927	
69	292.96898579597473	fix_post	2		12	67.0	2.5	/experiments/knapen_AOT/AOT_stimuli/rescaled_final/0458_fw.mp4	0.0	377.17329382896423	0.09980607032775879
70	293.0687918663025	fix_pre	0		120	68.0	2.5	blank	1.0	377.273099899292	1.0001740455627441
70	294.05325984954834	pulse	0	t		68.0	2.5	blank	1.0	378.25756788253784	
70	294.06896591186523	movie	1		301	68.0	2.5	blank	1.0	378.27327394485474	2.508725881576538
70	295.6528089046478	pulse	1	t		68.0	2.5	blank	1.0	379.85711693763733	
70	296.5776917934418	fix_post	2		12	68.0	2.5	blank	1.0	380.7819998264313	0.10008120536804199
71	296.6777729988098	fix_pre	0		120	69.0	2.5	/experiments/knapen_AOT/AOT_stimuli/rescaled_final/0421_fw.mp4	0.0	380.8820810317993	1.0000669956207275
71	297.2528898715973	pulse	0	t		69.0	2.5	/experiments/knapen_AOT/AOT_stimuli/rescaled_final/0421_fw.mp4	0.0	381.4571979045868	
71	297.67783999443054	movie	1		242	69.0	2.5	/experiments/knapen_AOT/AOT_stimuli/rescaled_final/0421_fw.mp4	0.0	381.88214802742004	2.500553846359253
71	298.85767793655396	pulse	1	t		69.0	2.5	/experiments/knapen_AOT/AOT_stimuli/rescaled_final/0421_fw.mp4	0.0	383.06198596954346	
71	300.1783938407898	fix_post	2		12	69.0	2.5	/experiments/knapen_AOT/AOT_stimuli/rescaled_final/0421_fw.mp4	0.0	384.3827018737793	0.0998079776763916
72	300.2782018184662	fix_pre	0		120	70.0	2.5	/experiments/knapen_AOT/AOT_stimuli/rescaled_final/0805_rv.mp4	0.0	384.4825098514557	1.0001561641693115
72	300.4533739089966	pulse	0	t		70.0	2.5	/experiments/knapen_AOT/AOT_stimuli/rescaled_final/0805_rv.mp4	0.0	384.6576819419861	
72	301.2783579826355	movie	1		243	70.0	2.5	/experiments/knapen_AOT/AOT_stimuli/rescaled_final/0805_rv.mp4	0.0	385.482666015625	2.5006299018859863
72	302.05371499061584	pulse	1	t		70.0	2.5	/experiments/knapen_AOT/AOT_stimuli/rescaled_final/0805_rv.mp4	0.0	386.25802302360535	
72	303.65402388572693	pulse	1	t		70.0	2.5	/experiments/knapen_AOT/AOT_stimuli/rescaled_final/0805_rv.mp4	0.0	387.85833191871643	
72	303.7789878845215	fix_post	2		12	70.0	2.5	/experiments/knapen_AOT/AOT_stimuli/rescaled_final/0805_rv.mp4	0.0	387.983295917511	0.09986495971679688
73	303.8788528442383	fix_pre	0		120	71.0	2.5	/experiments/knapen_AOT/AOT_stimuli/rescaled_final/0408_fw.mp4	0.0	388.0831608772278	1.0000100135803223
73	304.8788628578186	movie	1		242	71.0	2.5	/experiments/knapen_AOT/AOT_stimuli/rescaled_final/0408_fw.mp4	0.0	389.0831708908081	2.4921059608459473
73	305.2540919780731	pulse	1	t		71.0	2.5	/experiments/knapen_AOT/AOT_stimuli/rescaled_final/0408_fw.mp4	0.0	389.4584000110626	
73	306.85443782806396	pulse	1	t		71.0	2.5	/experiments/knapen_AOT/AOT_stimuli/rescaled_final/0408_fw.mp4	0.0	391.05874586105347	
73	307.37096881866455	fix_post	2		12	71.0	2.5	/experiments/knapen_AOT/AOT_stimuli/rescaled_final/0408_fw.mp4	0.0	391.57527685165405	0.10001206398010254
74	307.47098088264465	fix_pre	0		119	72.0	2.5	/experiments/knapen_AOT/AOT_stimuli/rescaled_final/1944_fw.mp4	0.0	391.67528891563416	0.991779088973999
74	308.4546608924866	pulse	0	t		72.0	2.5	/experiments/knapen_AOT/AOT_stimuli/rescaled_final/1944_fw.mp4	0.0	392.6589689254761	
74	308.46275997161865	movie	1		244	72.0	2.5	/experiments/knapen_AOT/AOT_stimuli/rescaled_final/1944_fw.mp4	0.0	392.66706800460815	2.508683919906616
74	310.05532479286194	pulse	1	t		72.0	2.5	/experiments/knapen_AOT/AOT_stimuli/rescaled_final/1944_fw.mp4	0.0	394.25963282585144	
74	310.97144389152527	fix_post	2		12	72.0	2.5	/experiments/knapen_AOT/AOT_stimuli/rescaled_final/1944_fw.mp4	0.0	395.17575192451477	0.10004711151123047
75	311.0714910030365	fix_pre	0		120	73.0	2.5	/experiments/knapen_AOT/AOT_stimuli/rescaled_final/0849_rv.mp4	0.0	395.275799036026	1.000199794769287
75	311.6552197933197	pulse	0	t		73.0	2.5	/experiments/knapen_AOT/AOT_stimuli/rescaled_final/0849_rv.mp4	0.0	395.8595278263092	
75	312.0716907978058	movie	1		243	73.0	2.5	/experiments/knapen_AOT/AOT_stimuli/rescaled_final/0849_rv.mp4	0.0	396.2759988307953	2.500507116317749
75	313.25538086891174	pulse	1	t		73.0	2.5	/experiments/knapen_AOT/AOT_stimuli/rescaled_final/0849_rv.mp4	0.0	397.45968890190125	
75	314.57219791412354	fix_post	2		12	73.0	2.5	/experiments/knapen_AOT/AOT_stimuli/rescaled_final/0849_rv.mp4	0.0	398.77650594711304	0.09986400604248047
76	314.672061920166	fix_pre	0		120	74.0	2.5	/experiments/knapen_AOT/AOT_stimuli/rescaled_final/2049_rv.mp4	0.0	398.8763699531555	1.0001630783081055
76	314.8554859161377	pulse	0	t		74.0	2.5	/experiments/knapen_AOT/AOT_stimuli/rescaled_final/2049_rv.mp4	0.0	399.0597939491272	
76	315.6722249984741	movie	1		243	74.0	2.5	/experiments/knapen_AOT/AOT_stimuli/rescaled_final/2049_rv.mp4	0.0	399.8765330314636	2.5002968311309814
76	316.4559338092804	pulse	1	t		74.0	2.5	/experiments/knapen_AOT/AOT_stimuli/rescaled_final/2049_rv.mp4	0.0	400.6602418422699	
76	318.05586791038513	pulse	1	t		74.0	2.5	/experiments/knapen_AOT/AOT_stimuli/rescaled_final/2049_rv.mp4	0.0	402.26017594337463	
76	318.1725218296051	fix_post	2		12	74.0	2.5	/experiments/knapen_AOT/AOT_stimuli/rescaled_final/2049_rv.mp4	0.0	402.3768298625946	0.10004115104675293
77	318.27256298065186	fix_pre	0		120	75.0	2.5	blank	1.0	402.47687101364136	1.0001590251922607
77	319.2727220058441	movie	1		299	75.0	2.5	blank	1.0	403.4770300388336	2.492074966430664
77	319.6562728881836	pulse	1	t		75.0	2.5	blank	1.0	403.8605809211731	
77	321.2564859390259	pulse	1	t		75.0	2.5	blank	1.0	405.4607939720154	
77	321.7647969722748	fix_post	2		12	75.0	2.5	blank	1.0	405.9691050052643	0.09993100166320801
78	321.864727973938	fix_pre	0		120	76.0	2.5	/experiments/knapen_AOT/AOT_stimuli/rescaled_final/0017_rv.mp4	0.0	406.0690360069275	1.0002179145812988
78	322.8567600250244	pulse	0	t		76.0	2.5	/experiments/knapen_AOT/AOT_stimuli/rescaled_final/0017_rv.mp4	0.0	407.0610680580139	
78	322.8649458885193	movie	1		244	76.0	2.5	/experiments/knapen_AOT/AOT_stimuli/rescaled_final/0017_rv.mp4	0.0	407.0692539215088	2.5087409019470215
78	324.457496881485	pulse	1	t		76.0	2.5	/experiments/knapen_AOT/AOT_stimuli/rescaled_final/0017_rv.mp4	0.0	408.6618049144745	
78	325.3736867904663	fix_post	2		12	76.0	2.5	/experiments/knapen_AOT/AOT_stimuli/rescaled_final/0017_rv.mp4	0.0	409.5779948234558	0.09996223449707031
79	325.4736490249634	fix_pre	0		120	77.0	2.5	/experiments/knapen_AOT/AOT_stimuli/rescaled_final/1703_rv.mp4	0.0	409.6779570579529	1.0001487731933594
79	326.0573239326477	pulse	0	t		77.0	2.5	/experiments/knapen_AOT/AOT_stimuli/rescaled_final/1703_rv.mp4	0.0	410.2616319656372	
79	326.47379779815674	movie	1		242	77.0	2.5	/experiments/knapen_AOT/AOT_stimuli/rescaled_final/1703_rv.mp4	0.0	410.67810583114624	2.500551223754883
79	327.6575789451599	pulse	1	t		77.0	2.5	/experiments/knapen_AOT/AOT_stimuli/rescaled_final/1703_rv.mp4	0.0	411.8618869781494	
79	328.9743490219116	fix_post	2		12	77.0	2.5	/experiments/knapen_AOT/AOT_stimuli/rescaled_final/1703_rv.mp4	0.0	413.1786570549011	0.09983086585998535
80	329.0741798877716	fix_pre	0		120	78.0	2.5	/experiments/knapen_AOT/AOT_stimuli/rescaled_final/0487_fw.mp4	0.0	413.2784879207611	1.0001530647277832
80	329.2577188014984	pulse	0	t		78.0	2.5	/experiments/knapen_AOT/AOT_stimuli/rescaled_final/0487_fw.mp4	0.0	413.4620268344879	
80	330.0743329524994	movie	1		244	78.0	2.5	/experiments/knapen_AOT/AOT_stimuli/rescaled_final/0487_fw.mp4	0.0	414.2786409854889	2.5003859996795654
80	330.8580598831177	pulse	1	t		78.0	2.5	/experiments/knapen_AOT/AOT_stimuli/rescaled_final/0487_fw.mp4	0.0	415.0623679161072	
80	332.45807790756226	pulse	1	t		78.0	2.5	/experiments/knapen_AOT/AOT_stimuli/rescaled_final/0487_fw.mp4	0.0	416.66238594055176	
80	332.57471895217896	fix_post	2		12	78.0	2.5	/experiments/knapen_AOT/AOT_stimuli/rescaled_final/0487_fw.mp4	0.0	416.77902698516846	0.09995388984680176
81	332.67467284202576	fix_pre	0		119	79.0	2.5	/experiments/knapen_AOT/AOT_stimuli/rescaled_final/0347_rv.mp4	0.0	416.87898087501526	0.991875171661377
81	333.66654801368713	movie	1		242	79.0	2.5	/experiments/knapen_AOT/AOT_stimuli/rescaled_final/0347_rv.mp4	0.0	417.87085604667664	2.500546932220459
81	334.0585479736328	pulse	1	t		79.0	2.5	/experiments/knapen_AOT/AOT_stimuli/rescaled_final/0347_rv.mp4	0.0	418.2628560066223	
81	335.65866589546204	pulse	1	t		79.0	2.5	/experiments/knapen_AOT/AOT_stimuli/rescaled_final/0347_rv.mp4	0.0	419.86297392845154	
81	336.1670949459076	fix_post	2		12	79.0	2.5	/experiments/knapen_AOT/AOT_stimuli/rescaled_final/0347_rv.mp4	0.0	420.3714029788971	0.09985995292663574
82	336.26695489883423	fix_pre	0		120	80.0	2.5	/experiments/knapen_AOT/AOT_stimuli/rescaled_final/0408_rv.mp4	0.0	420.47126293182373	1.0001111030578613
82	337.2589428424835	pulse	0	t		80.0	2.5	/experiments/knapen_AOT/AOT_stimuli/rescaled_final/0408_rv.mp4	0.0	421.463250875473	
82	337.2670660018921	movie	1		240	80.0	2.5	/experiments/knapen_AOT/AOT_stimuli/rescaled_final/0408_rv.mp4	0.0	421.4713740348816	2.5087928771972656
82	338.859582901001	pulse	1	t		80.0	2.5	/experiments/knapen_AOT/AOT_stimuli/rescaled_final/0408_rv.mp4	0.0	423.0638909339905	
82	339.77585887908936	fix_post	2		12	80.0	2.5	/experiments/knapen_AOT/AOT_stimuli/rescaled_final/0408_rv.mp4	0.0	423.98016691207886	0.0999610424041748
83	339.87581992149353	fix_pre	0		120	81.0	2.5	/experiments/knapen_AOT/AOT_stimuli/rescaled_final/1167_rv.mp4	0.0	424.08012795448303	1.000187873840332
83	340.45947194099426	pulse	0	t		81.0	2.5	/experiments/knapen_AOT/AOT_stimuli/rescaled_final/1167_rv.mp4	0.0	424.66377997398376	
83	340.87600779533386	movie	1		243	81.0	2.5	/experiments/knapen_AOT/AOT_stimuli/rescaled_final/1167_rv.mp4	0.0	425.08031582832336	2.5004050731658936
83	342.05974984169006	pulse	1	t		81.0	2.5	/experiments/knapen_AOT/AOT_stimuli/rescaled_final/1167_rv.mp4	0.0	426.26405787467957	
83	343.37641286849976	fix_post	2		12	81.0	2.5	/experiments/knapen_AOT/AOT_stimuli/rescaled_final/1167_rv.mp4	0.0	427.58072090148926	0.09988999366760254
84	343.47630286216736	fix_pre	0		120	82.0	2.5	/experiments/knapen_AOT/AOT_stimuli/rescaled_final/1189_rv.mp4	0.0	427.68061089515686	1.0001499652862549
84	343.65994596481323	pulse	0	t		82.0	2.5	/experiments/knapen_AOT/AOT_stimuli/rescaled_final/1189_rv.mp4	0.0	427.86425399780273	
84	344.4764528274536	movie	1		242	82.0	2.5	/experiments/knapen_AOT/AOT_stimuli/rescaled_final/1189_rv.mp4	0.0	428.6807608604431	2.500638961791992
84	345.2602698802948	pulse	1	t		82.0	2.5	/experiments/knapen_AOT/AOT_stimuli/rescaled_final/1189_rv.mp4	0.0	429.4645779132843	
84	346.8601520061493	pulse	1	t		82.0	2.5	/experiments/knapen_AOT/AOT_stimuli/rescaled_final/1189_rv.mp4	0.0	431.0644600391388	
84	346.9770917892456	fix_post	2		12	82.0	2.5	/experiments/knapen_AOT/AOT_stimuli/rescaled_final/1189_rv.mp4	0.0	431.1813998222351	0.09978318214416504
85	347.07687497138977	fix_pre	0		120	83.0	2.5	blank	1.0	431.2811830043793	1.0001850128173828
85	348.07705998420715	movie	1		299	83.0	2.5	blank	1.0	432.28136801719666	2.4920358657836914
85	348.4605689048767	pulse	1	t		83.0	2.5	blank	1.0	432.6648769378662	
85	350.053288936615	pulse	1	t		83.0	2.5	blank	1.0	434.2575969696045	
85	350.56909584999084	fix_post	2		12	83.0	2.5	blank	1.0	434.77340388298035	0.10002994537353516
87	350.6691257953644	stim	0		1716					434.8734338283539	14.302131175994873
87	351.6536350250244	pulse	0	t						435.8579430580139	
87	353.2538568973541	pulse	0	t						437.4581649303436	
87	354.8541510105133	pulse	0	t						439.0584590435028	
87	356.45437002182007	pulse	0	t						440.65867805480957	
87	358.05364894866943	pulse	0	t						442.25795698165894	
87	359.65380597114563	pulse	0	t						443.85811400413513	
87	361.25414991378784	pulse	0	t						445.45845794677734	
87	362.85443091392517	pulse	0	t						447.0587389469147	
87	364.45455598831177	pulse	0	t						448.65886402130127	
