trial_nr	onset	event_type	phase	response	nr_frames	movie_index	movie_duration	movie_file	blank	onset_abs	duration
0	0.20837092399597168	stim	0		8					18.012255907058716	0.06669211387634277
0	0.2670478820800781	response	0	space						18.070932865142822	
1	0.27506303787231445	stim	0		5100					18.07894802093506	42.51542091369629
1	42.78052997589111	pulse	0	t						60.58441495895386	
1	42.7904839515686	stim	1		1715					60.59436893463135	14.301362991333008
1	44.37338399887085	pulse	1	t						62.177268981933594	
1	45.97375297546387	pulse	1	t						63.77763795852661	
1	47.57392191886902	pulse	1	t						65.37780690193176	
1	49.17418885231018	pulse	1	t						66.97807383537292	
1	50.77436089515686	pulse	1	t						68.5782458782196	
1	52.374687910079956	pulse	1	t						70.1785728931427	
1	53.974936962127686	pulse	1	t						71.77882194519043	
1	55.57508182525635	pulse	1	t						73.37896680831909	
2	57.09184694290161	fix_pre	0		11	0.0	2.5	/experiments/knapen_AOT/AOT_stimuli/rescaled_final/1229_fw.mp4	0.0	74.89573192596436	0.09165501594543457
2	57.17530798912048	pulse	0	t		0.0	2.5	/experiments/knapen_AOT/AOT_stimuli/rescaled_final/1229_fw.mp4	0.0	74.97919297218323	
2	57.183501958847046	movie	1		243	0.0	2.5	/experiments/knapen_AOT/AOT_stimuli/rescaled_final/1229_fw.mp4	0.0	74.98738694190979	2.508707046508789
2	58.77630591392517	pulse	1	t		0.0	2.5	/experiments/knapen_AOT/AOT_stimuli/rescaled_final/1229_fw.mp4	0.0	76.58019089698792	
2	59.692209005355835	fix_post	2		12	0.0	2.5	/experiments/knapen_AOT/AOT_stimuli/rescaled_final/1229_fw.mp4	0.0	77.49609398841858	0.10002899169921875
3	59.792237997055054	fix_pre	0		120	1.0	2.5	/experiments/knapen_AOT/AOT_stimuli/rescaled_final/0931_rv.mp4	0.0	77.5961229801178	1.0001089572906494
3	60.3759548664093	pulse	0	t		1.0	2.5	/experiments/knapen_AOT/AOT_stimuli/rescaled_final/0931_rv.mp4	0.0	78.17983984947205	
3	60.7923469543457	movie	1		243	1.0	2.5	/experiments/knapen_AOT/AOT_stimuli/rescaled_final/0931_rv.mp4	0.0	78.59623193740845	2.5005509853363037
3	61.97616386413574	pulse	1	t		1.0	2.5	/experiments/knapen_AOT/AOT_stimuli/rescaled_final/0931_rv.mp4	0.0	79.78004884719849	
3	63.29289793968201	fix_post	2		12	1.0	2.5	/experiments/knapen_AOT/AOT_stimuli/rescaled_final/0931_rv.mp4	0.0	81.09678292274475	0.09992408752441406
4	63.39282202720642	fix_pre	0		120	2.0	2.5	/experiments/knapen_AOT/AOT_stimuli/rescaled_final/0981_rv.mp4	0.0	81.19670701026917	1.0000989437103271
4	63.56898593902588	pulse	0	t		2.0	2.5	/experiments/knapen_AOT/AOT_stimuli/rescaled_final/0981_rv.mp4	0.0	81.37287092208862	
4	64.39292097091675	movie	1		242	2.0	2.5	/experiments/knapen_AOT/AOT_stimuli/rescaled_final/0981_rv.mp4	0.0	82.19680595397949	2.5004279613494873
4	65.16917896270752	pulse	1	t		2.0	2.5	/experiments/knapen_AOT/AOT_stimuli/rescaled_final/0981_rv.mp4	0.0	82.97306394577026	
4	66.77672696113586	pulse	1	t		2.0	2.5	/experiments/knapen_AOT/AOT_stimuli/rescaled_final/0981_rv.mp4	0.0	84.58061194419861	
4	66.89334893226624	fix_post	2		12	2.0	2.5	/experiments/knapen_AOT/AOT_stimuli/rescaled_final/0981_rv.mp4	0.0	84.69723391532898	0.09993600845336914
5	66.9932849407196	fix_pre	0		120	3.0	2.5	/experiments/knapen_AOT/AOT_stimuli/rescaled_final/0193_rv.mp4	0.0	84.79716992378235	1.000196933746338
5	67.99348187446594	movie	1		242	3.0	2.5	/experiments/knapen_AOT/AOT_stimuli/rescaled_final/0193_rv.mp4	0.0	85.79736685752869	2.492048978805542
5	68.37760186195374	pulse	1	t		3.0	2.5	/experiments/knapen_AOT/AOT_stimuli/rescaled_final/0193_rv.mp4	0.0	86.18148684501648	
5	69.96927189826965	pulse	1	t		3.0	2.5	/experiments/knapen_AOT/AOT_stimuli/rescaled_final/0193_rv.mp4	0.0	87.7731568813324	
5	70.48553085327148	fix_post	2		12	3.0	2.5	/experiments/knapen_AOT/AOT_stimuli/rescaled_final/0193_rv.mp4	0.0	88.28941583633423	0.10003805160522461
6	70.58556890487671	fix_pre	0		119	4.0	2.5	/experiments/knapen_AOT/AOT_stimuli/rescaled_final/1556_fw.mp4	0.0	88.38945388793945	0.9917480945587158
6	71.56912899017334	pulse	0	t		4.0	2.5	/experiments/knapen_AOT/AOT_stimuli/rescaled_final/1556_fw.mp4	0.0	89.37301397323608	
6	71.57731699943542	movie	1		245	4.0	2.5	/experiments/knapen_AOT/AOT_stimuli/rescaled_final/1556_fw.mp4	0.0	89.38120198249817	2.5087499618530273
6	73.17065596580505	pulse	1	t		4.0	2.5	/experiments/knapen_AOT/AOT_stimuli/rescaled_final/1556_fw.mp4	0.0	90.9745409488678	
6	74.08606696128845	fix_post	2		12	4.0	2.5	/experiments/knapen_AOT/AOT_stimuli/rescaled_final/1556_fw.mp4	0.0	91.8899519443512	0.10003900527954102
7	74.186105966568	fix_pre	0		120	5.0	2.5	blank	1.0	91.98999094963074	1.0000920295715332
7	74.76974892616272	pulse	0	t		5.0	2.5	blank	1.0	92.57363390922546	
7	75.18619799613953	movie	1		300	5.0	2.5	blank	1.0	92.99008297920227	2.500398874282837
7	76.37000894546509	pulse	1	t		5.0	2.5	blank	1.0	94.17389392852783	
7	77.68659687042236	fix_post	2		12	5.0	2.5	blank	1.0	95.49048185348511	0.10004711151123047
8	77.7866439819336	fix_pre	0		120	6.0	2.5	/experiments/knapen_AOT/AOT_stimuli/rescaled_final/1128_fw.mp4	0.0	95.59052896499634	1.000140905380249
8	77.97019386291504	pulse	0	t		6.0	2.5	/experiments/knapen_AOT/AOT_stimuli/rescaled_final/1128_fw.mp4	0.0	95.77407884597778	
8	78.78678488731384	movie	1		243	6.0	2.5	/experiments/knapen_AOT/AOT_stimuli/rescaled_final/1128_fw.mp4	0.0	96.59066987037659	2.5004351139068604
8	79.57032990455627	pulse	1	t		6.0	2.5	/experiments/knapen_AOT/AOT_stimuli/rescaled_final/1128_fw.mp4	0.0	97.37421488761902	
8	81.17043089866638	pulse	1	t		6.0	2.5	/experiments/knapen_AOT/AOT_stimuli/rescaled_final/1128_fw.mp4	0.0	98.97431588172913	
8	81.2872200012207	fix_post	2		12	6.0	2.5	/experiments/knapen_AOT/AOT_stimuli/rescaled_final/1128_fw.mp4	0.0	99.09110498428345	0.09996199607849121
9	81.3871819972992	fix_pre	0		119	7.0	2.5	/experiments/knapen_AOT/AOT_stimuli/rescaled_final/1296_rv.mp4	0.0	99.19106698036194	0.9917738437652588
9	82.37895584106445	movie	1		243	7.0	2.5	/experiments/knapen_AOT/AOT_stimuli/rescaled_final/1296_rv.mp4	0.0	100.1828408241272	2.500380039215088
9	82.7710108757019	pulse	1	t		7.0	2.5	/experiments/knapen_AOT/AOT_stimuli/rescaled_final/1296_rv.mp4	0.0	100.57489585876465	
9	84.37125301361084	pulse	1	t		7.0	2.5	/experiments/knapen_AOT/AOT_stimuli/rescaled_final/1296_rv.mp4	0.0	102.17513799667358	
9	84.87933588027954	fix_post	2		12	7.0	2.5	/experiments/knapen_AOT/AOT_stimuli/rescaled_final/1296_rv.mp4	0.0	102.68322086334229	0.09999203681945801
10	84.979327917099	fix_pre	0		120	8.0	2.5	/experiments/knapen_AOT/AOT_stimuli/rescaled_final/0431_rv.mp4	0.0	102.78321290016174	1.0001580715179443
10	85.97133588790894	pulse	0	t		8.0	2.5	/experiments/knapen_AOT/AOT_stimuli/rescaled_final/0431_rv.mp4	0.0	103.77522087097168	
10	85.97948598861694	movie	1		243	8.0	2.5	/experiments/knapen_AOT/AOT_stimuli/rescaled_final/0431_rv.mp4	0.0	103.78337097167969	2.5086798667907715
10	87.57213282585144	pulse	1	t		8.0	2.5	/experiments/knapen_AOT/AOT_stimuli/rescaled_final/0431_rv.mp4	0.0	105.37601780891418	
10	88.48816585540771	fix_post	2		12	8.0	2.5	/experiments/knapen_AOT/AOT_stimuli/rescaled_final/0431_rv.mp4	0.0	106.29205083847046	0.10001897811889648
11	88.58818483352661	fix_pre	0		120	9.0	2.5	/experiments/knapen_AOT/AOT_stimuli/rescaled_final/0916_fw.mp4	0.0	106.39206981658936	1.0001420974731445
11	89.171865940094	pulse	0	t		9.0	2.5	/experiments/knapen_AOT/AOT_stimuli/rescaled_final/0916_fw.mp4	0.0	106.97575092315674	
11	89.58832693099976	movie	1		242	9.0	2.5	/experiments/knapen_AOT/AOT_stimuli/rescaled_final/0916_fw.mp4	0.0	107.3922119140625	2.5005500316619873
11	90.77221894264221	pulse	1	t		9.0	2.5	/experiments/knapen_AOT/AOT_stimuli/rescaled_final/0916_fw.mp4	0.0	108.57610392570496	
11	92.08887696266174	fix_post	2		12	9.0	2.5	/experiments/knapen_AOT/AOT_stimuli/rescaled_final/0916_fw.mp4	0.0	109.89276194572449	0.0998680591583252
12	92.18874502182007	fix_pre	0		120	10.0	2.5	/experiments/knapen_AOT/AOT_stimuli/rescaled_final/1046_rv.mp4	0.0	109.99263000488281	1.000195026397705
12	92.37229084968567	pulse	0	t		10.0	2.5	/experiments/knapen_AOT/AOT_stimuli/rescaled_final/1046_rv.mp4	0.0	110.17617583274841	
12	93.18894004821777	movie	1		242	10.0	2.5	/experiments/knapen_AOT/AOT_stimuli/rescaled_final/1046_rv.mp4	0.0	110.99282503128052	2.500382900238037
12	93.97247385978699	pulse	1	t		10.0	2.5	/experiments/knapen_AOT/AOT_stimuli/rescaled_final/1046_rv.mp4	0.0	111.77635884284973	
12	95.5732958316803	pulse	1	t		10.0	2.5	/experiments/knapen_AOT/AOT_stimuli/rescaled_final/1046_rv.mp4	0.0	113.37718081474304	
12	95.68932294845581	fix_post	2		12	10.0	2.5	/experiments/knapen_AOT/AOT_stimuli/rescaled_final/1046_rv.mp4	0.0	113.49320793151855	0.09995603561401367
13	95.78927898406982	fix_pre	0		119	11.0	2.5	/experiments/knapen_AOT/AOT_stimuli/rescaled_final/0583_fw.mp4	0.0	113.59316396713257	0.9918270111083984
13	96.78110599517822	movie	1		242	11.0	2.5	/experiments/knapen_AOT/AOT_stimuli/rescaled_final/0583_fw.mp4	0.0	114.58499097824097	2.500555992126465
13	97.17323899269104	pulse	1	t		11.0	2.5	/experiments/knapen_AOT/AOT_stimuli/rescaled_final/0583_fw.mp4	0.0	114.97712397575378	
13	98.7733519077301	pulse	1	t		11.0	2.5	/experiments/knapen_AOT/AOT_stimuli/rescaled_final/0583_fw.mp4	0.0	116.57723689079285	
13	99.28166198730469	fix_post	2		12	11.0	2.5	/experiments/knapen_AOT/AOT_stimuli/rescaled_final/0583_fw.mp4	0.0	117.08554697036743	0.09982705116271973
14	99.38148903846741	fix_pre	0		120	12.0	2.5	/experiments/knapen_AOT/AOT_stimuli/rescaled_final/0999_rv.mp4	0.0	117.18537402153015	1.00016188621521
14	100.37343382835388	pulse	0	t		12.0	2.5	/experiments/knapen_AOT/AOT_stimuli/rescaled_final/0999_rv.mp4	0.0	118.17731881141663	
14	100.38165092468262	movie	1		240	12.0	2.5	/experiments/knapen_AOT/AOT_stimuli/rescaled_final/0999_rv.mp4	0.0	118.18553590774536	2.508700132369995
14	101.97499895095825	pulse	1	t		12.0	2.5	/experiments/knapen_AOT/AOT_stimuli/rescaled_final/0999_rv.mp4	0.0	119.778883934021	
14	102.89035105705261	fix_post	2		12	12.0	2.5	/experiments/knapen_AOT/AOT_stimuli/rescaled_final/0999_rv.mp4	0.0	120.69423604011536	0.09998488426208496
15	102.9903359413147	fix_pre	0		120	13.0	2.5	blank	1.0	120.79422092437744	1.0001740455627441
15	103.57405591011047	pulse	0	t		13.0	2.5	blank	1.0	121.37794089317322	
15	103.99050998687744	movie	1		300	13.0	2.5	blank	1.0	121.79439496994019	2.5003859996795654
15	105.17425799369812	pulse	1	t		13.0	2.5	blank	1.0	122.97814297676086	
15	106.490895986557	fix_post	2		12	13.0	2.5	blank	1.0	124.29478096961975	0.1000368595123291
16	106.59093284606934	fix_pre	0		120	14.0	2.5	/experiments/knapen_AOT/AOT_stimuli/rescaled_final/0204_rv.mp4	0.0	124.39481782913208	1.0000770092010498
16	106.77438402175903	pulse	0	t		14.0	2.5	/experiments/knapen_AOT/AOT_stimuli/rescaled_final/0204_rv.mp4	0.0	124.57826900482178	
16	107.59100985527039	movie	1		242	14.0	2.5	/experiments/knapen_AOT/AOT_stimuli/rescaled_final/0204_rv.mp4	0.0	125.39489483833313	2.500509023666382
16	108.37467288970947	pulse	1	t		14.0	2.5	/experiments/knapen_AOT/AOT_stimuli/rescaled_final/0204_rv.mp4	0.0	126.17855787277222	
16	109.97476005554199	pulse	1	t		14.0	2.5	/experiments/knapen_AOT/AOT_stimuli/rescaled_final/0204_rv.mp4	0.0	127.77864503860474	
16	110.09151887893677	fix_post	2		12	14.0	2.5	/experiments/knapen_AOT/AOT_stimuli/rescaled_final/0204_rv.mp4	0.0	127.89540386199951	0.09992098808288574
17	110.19143986701965	fix_pre	0		119	15.0	2.5	/experiments/knapen_AOT/AOT_stimuli/rescaled_final/1796_rv.mp4	0.0	127.9953248500824	0.9918160438537598
17	111.18325591087341	movie	1		243	15.0	2.5	/experiments/knapen_AOT/AOT_stimuli/rescaled_final/1796_rv.mp4	0.0	128.98714089393616	2.500473976135254
17	111.5753378868103	pulse	1	t		15.0	2.5	/experiments/knapen_AOT/AOT_stimuli/rescaled_final/1796_rv.mp4	0.0	129.37922286987305	
17	113.1753408908844	pulse	1	t		15.0	2.5	/experiments/knapen_AOT/AOT_stimuli/rescaled_final/1796_rv.mp4	0.0	130.97922587394714	
17	113.68372988700867	fix_post	2		12	15.0	2.5	/experiments/knapen_AOT/AOT_stimuli/rescaled_final/1796_rv.mp4	0.0	131.4876148700714	0.09986400604248047
18	113.78359389305115	fix_pre	0		120	16.0	2.5	/experiments/knapen_AOT/AOT_stimuli/rescaled_final/2058_fw.mp4	0.0	131.5874788761139	1.0001771450042725
18	114.77564692497253	pulse	0	t		16.0	2.5	/experiments/knapen_AOT/AOT_stimuli/rescaled_final/2058_fw.mp4	0.0	132.57953190803528	
18	114.78377103805542	movie	1		243	16.0	2.5	/experiments/knapen_AOT/AOT_stimuli/rescaled_final/2058_fw.mp4	0.0	132.58765602111816	2.5086898803710938
18	116.37667298316956	pulse	1	t		16.0	2.5	/experiments/knapen_AOT/AOT_stimuli/rescaled_final/2058_fw.mp4	0.0	134.1805579662323	
18	117.29246091842651	fix_post	2		12	16.0	2.5	/experiments/knapen_AOT/AOT_stimuli/rescaled_final/2058_fw.mp4	0.0	135.09634590148926	0.100067138671875
19	117.39252805709839	fix_pre	0		120	17.0	2.5	/experiments/knapen_AOT/AOT_stimuli/rescaled_final/0022_fw.mp4	0.0	135.19641304016113	1.0001327991485596
19	117.97621583938599	pulse	0	t		17.0	2.5	/experiments/knapen_AOT/AOT_stimuli/rescaled_final/0022_fw.mp4	0.0	135.78010082244873	
19	118.39266085624695	movie	1		246	17.0	2.5	/experiments/knapen_AOT/AOT_stimuli/rescaled_final/0022_fw.mp4	0.0	136.1965458393097	2.5003390312194824
19	119.57233595848083	pulse	1	t		17.0	2.5	/experiments/knapen_AOT/AOT_stimuli/rescaled_final/0022_fw.mp4	0.0	137.37622094154358	
19	120.89299988746643	fix_post	2		12	17.0	2.5	/experiments/knapen_AOT/AOT_stimuli/rescaled_final/0022_fw.mp4	0.0	138.69688487052917	0.10006403923034668
20	120.99306392669678	fix_pre	0		120	18.0	2.5	/experiments/knapen_AOT/AOT_stimuli/rescaled_final/0050_rv.mp4	0.0	138.79694890975952	1.0000951290130615
20	121.1766369342804	pulse	0	t		18.0	2.5	/experiments/knapen_AOT/AOT_stimuli/rescaled_final/0050_rv.mp4	0.0	138.98052191734314	
20	121.99315905570984	movie	1		242	18.0	2.5	/experiments/knapen_AOT/AOT_stimuli/rescaled_final/0050_rv.mp4	0.0	139.79704403877258	2.500466823577881
20	122.77687692642212	pulse	1	t		18.0	2.5	/experiments/knapen_AOT/AOT_stimuli/rescaled_final/0050_rv.mp4	0.0	140.58076190948486	
20	124.37711596488953	pulse	1	t		18.0	2.5	/experiments/knapen_AOT/AOT_stimuli/rescaled_final/0050_rv.mp4	0.0	142.18100094795227	
20	124.49362587928772	fix_post	2		12	18.0	2.5	/experiments/knapen_AOT/AOT_stimuli/rescaled_final/0050_rv.mp4	0.0	142.29751086235046	0.09994697570800781
21	124.59357285499573	fix_pre	0		120	19.0	2.5	/experiments/knapen_AOT/AOT_stimuli/rescaled_final/0022_rv.mp4	0.0	142.39745783805847	1.0002319812774658
21	125.5938048362732	movie	1		243	19.0	2.5	/experiments/knapen_AOT/AOT_stimuli/rescaled_final/0022_rv.mp4	0.0	143.39768981933594	2.491964101791382
21	125.97942686080933	pulse	1	t		19.0	2.5	/experiments/knapen_AOT/AOT_stimuli/rescaled_final/0022_rv.mp4	0.0	143.78331184387207	
21	127.57030391693115	pulse	1	t		19.0	2.5	/experiments/knapen_AOT/AOT_stimuli/rescaled_final/0022_rv.mp4	0.0	145.3741888999939	
21	128.08576893806458	fix_post	2		12	19.0	2.5	/experiments/knapen_AOT/AOT_stimuli/rescaled_final/0022_rv.mp4	0.0	145.88965392112732	0.1000359058380127
22	128.1858048439026	fix_pre	0		120	20.0	2.5	blank	1.0	145.98968982696533	1.0001800060272217
22	129.1702320575714	pulse	0	t		20.0	2.5	blank	1.0	146.97411704063416	
22	129.1859848499298	movie	1		301	20.0	2.5	blank	1.0	146.98986983299255	2.508721113204956
22	130.76984786987305	pulse	1	t		20.0	2.5	blank	1.0	148.5737328529358	
22	131.69470596313477	fix_post	2		12	20.0	2.5	blank	1.0	149.4985909461975	0.09999990463256836
23	131.79470586776733	fix_pre	0		120	21.0	2.5	/experiments/knapen_AOT/AOT_stimuli/rescaled_final/1446_rv.mp4	0.0	149.59859085083008	1.000087022781372
23	132.36986899375916	pulse	0	t		21.0	2.5	/experiments/knapen_AOT/AOT_stimuli/rescaled_final/1446_rv.mp4	0.0	150.1737539768219	
23	132.7947928905487	movie	1		243	21.0	2.5	/experiments/knapen_AOT/AOT_stimuli/rescaled_final/1446_rv.mp4	0.0	150.59867787361145	2.500349998474121
23	133.97079586982727	pulse	1	t		21.0	2.5	/experiments/knapen_AOT/AOT_stimuli/rescaled_final/1446_rv.mp4	0.0	151.77468085289001	
23	135.29514288902283	fix_post	2		12	21.0	2.5	/experiments/knapen_AOT/AOT_stimuli/rescaled_final/1446_rv.mp4	0.0	153.09902787208557	0.10002493858337402
24	135.3951678276062	fix_pre	0		120	22.0	2.5	/experiments/knapen_AOT/AOT_stimuli/rescaled_final/1427_fw.mp4	0.0	153.19905281066895	1.000136137008667
24	135.57041001319885	pulse	0	t		22.0	2.5	/experiments/knapen_AOT/AOT_stimuli/rescaled_final/1427_fw.mp4	0.0	153.3742949962616	
24	136.39530396461487	movie	1		246	22.0	2.5	/experiments/knapen_AOT/AOT_stimuli/rescaled_final/1427_fw.mp4	0.0	154.1991889476776	2.500396966934204
24	137.17076897621155	pulse	1	t		22.0	2.5	/experiments/knapen_AOT/AOT_stimuli/rescaled_final/1427_fw.mp4	0.0	154.9746539592743	
24	138.7709059715271	pulse	1	t		22.0	2.5	/experiments/knapen_AOT/AOT_stimuli/rescaled_final/1427_fw.mp4	0.0	156.57479095458984	
24	138.89570093154907	fix_post	2		12	22.0	2.5	/experiments/knapen_AOT/AOT_stimuli/rescaled_final/1427_fw.mp4	0.0	156.69958591461182	0.10001492500305176
25	138.99571585655212	fix_pre	0		119	23.0	2.5	/experiments/knapen_AOT/AOT_stimuli/rescaled_final/0019_fw.mp4	0.0	156.79960083961487	0.9918501377105713
25	139.9875659942627	movie	1		244	23.0	2.5	/experiments/knapen_AOT/AOT_stimuli/rescaled_final/0019_fw.mp4	0.0	157.79145097732544	2.5003700256347656
25	140.37187600135803	pulse	1	t		23.0	2.5	/experiments/knapen_AOT/AOT_stimuli/rescaled_final/0019_fw.mp4	0.0	158.17576098442078	
25	141.97132802009583	pulse	1	t		23.0	2.5	/experiments/knapen_AOT/AOT_stimuli/rescaled_final/0019_fw.mp4	0.0	159.77521300315857	
25	142.48793601989746	fix_post	2		12	23.0	2.5	/experiments/knapen_AOT/AOT_stimuli/rescaled_final/0019_fw.mp4	0.0	160.2918210029602	0.09999799728393555
26	142.5879340171814	fix_pre	0		119	24.0	2.5	/experiments/knapen_AOT/AOT_stimuli/rescaled_final/1266_rv.mp4	0.0	160.39181900024414	0.9917688369750977
26	143.57170486450195	pulse	0	t		24.0	2.5	/experiments/knapen_AOT/AOT_stimuli/rescaled_final/1266_rv.mp4	0.0	161.3755898475647	
26	143.5797028541565	movie	1		245	24.0	2.5	/experiments/knapen_AOT/AOT_stimuli/rescaled_final/1266_rv.mp4	0.0	161.38358783721924	2.5087761878967285
26	145.17325901985168	pulse	1	t		24.0	2.5	/experiments/knapen_AOT/AOT_stimuli/rescaled_final/1266_rv.mp4	0.0	162.97714400291443	
26	146.08847904205322	fix_post	2		12	24.0	2.5	/experiments/knapen_AOT/AOT_stimuli/rescaled_final/1266_rv.mp4	0.0	163.89236402511597	0.10005998611450195
27	146.18853902816772	fix_pre	0		120	25.0	2.5	/experiments/knapen_AOT/AOT_stimuli/rescaled_final/0556_fw.mp4	0.0	163.99242401123047	1.0001039505004883
27	146.77212500572205	pulse	0	t		25.0	2.5	/experiments/knapen_AOT/AOT_stimuli/rescaled_final/0556_fw.mp4	0.0	164.5760099887848	
27	147.1886429786682	movie	1		243	25.0	2.5	/experiments/knapen_AOT/AOT_stimuli/rescaled_final/0556_fw.mp4	0.0	164.99252796173096	2.500356912612915
27	148.3723499774933	pulse	1	t		25.0	2.5	/experiments/knapen_AOT/AOT_stimuli/rescaled_final/0556_fw.mp4	0.0	166.17623496055603	
27	149.68899989128113	fix_post	2		12	25.0	2.5	/experiments/knapen_AOT/AOT_stimuli/rescaled_final/0556_fw.mp4	0.0	167.49288487434387	0.10003399848937988
28	149.7890338897705	fix_pre	0		120	26.0	2.5	blank	1.0	167.59291887283325	1.0001020431518555
28	149.97248792648315	pulse	0	t		26.0	2.5	blank	1.0	167.7763729095459	
28	150.78913593292236	movie	1		300	26.0	2.5	blank	1.0	168.5930209159851	2.500447988510132
28	151.5728669166565	pulse	1	t		26.0	2.5	blank	1.0	169.37675189971924	
28	153.1730020046234	pulse	1	t		26.0	2.5	blank	1.0	170.97688698768616	
28	153.2895839214325	fix_post	2		12	26.0	2.5	blank	1.0	171.09346890449524	0.09997701644897461
29	153.38956093788147	fix_pre	0		120	27.0	2.5	/experiments/knapen_AOT/AOT_stimuli/rescaled_final/1898_rv.mp4	0.0	171.1934459209442	1.000169038772583
29	154.38972997665405	movie	1		242	27.0	2.5	/experiments/knapen_AOT/AOT_stimuli/rescaled_final/1898_rv.mp4	0.0	172.1936149597168	2.492128849029541
29	154.77778100967407	pulse	1	t		27.0	2.5	/experiments/knapen_AOT/AOT_stimuli/rescaled_final/1898_rv.mp4	0.0	172.58166599273682	
29	156.37350702285767	pulse	1	t		27.0	2.5	/experiments/knapen_AOT/AOT_stimuli/rescaled_final/1898_rv.mp4	0.0	174.1773920059204	
29	156.8818588256836	fix_post	2		12	27.0	2.5	/experiments/knapen_AOT/AOT_stimuli/rescaled_final/1898_rv.mp4	0.0	174.68574380874634	0.09995317459106445
30	156.98181200027466	fix_pre	0		120	28.0	2.5	/experiments/knapen_AOT/AOT_stimuli/rescaled_final/1548_fw.mp4	0.0	174.7856969833374	1.0000648498535156
30	157.97386598587036	pulse	0	t		28.0	2.5	/experiments/knapen_AOT/AOT_stimuli/rescaled_final/1548_fw.mp4	0.0	175.7777509689331	
30	157.98187685012817	movie	1		244	28.0	2.5	/experiments/knapen_AOT/AOT_stimuli/rescaled_final/1548_fw.mp4	0.0	175.78576183319092	2.508747100830078
30	159.57467103004456	pulse	1	t		28.0	2.5	/experiments/knapen_AOT/AOT_stimuli/rescaled_final/1548_fw.mp4	0.0	177.3785560131073	
30	160.49062395095825	fix_post	2		12	28.0	2.5	/experiments/knapen_AOT/AOT_stimuli/rescaled_final/1548_fw.mp4	0.0	178.294508934021	0.1000220775604248
31	160.59064602851868	fix_pre	0		120	29.0	2.5	/experiments/knapen_AOT/AOT_stimuli/rescaled_final/1436_fw.mp4	0.0	178.39453101158142	1.0001788139343262
31	161.17420887947083	pulse	0	t		29.0	2.5	/experiments/knapen_AOT/AOT_stimuli/rescaled_final/1436_fw.mp4	0.0	178.97809386253357	
31	161.590824842453	movie	1		241	29.0	2.5	/experiments/knapen_AOT/AOT_stimuli/rescaled_final/1436_fw.mp4	0.0	179.39470982551575	2.5091030597686768
31	162.77132296562195	pulse	1	t		29.0	2.5	/experiments/knapen_AOT/AOT_stimuli/rescaled_final/1436_fw.mp4	0.0	180.5752079486847	
31	164.09992790222168	fix_post	2		10	29.0	2.5	/experiments/knapen_AOT/AOT_stimuli/rescaled_final/1436_fw.mp4	0.0	181.90381288528442	0.09122514724731445
32	164.191153049469	fix_pre	0		120	30.0	2.5	/experiments/knapen_AOT/AOT_stimuli/rescaled_final/0193_rv.mp4	0.0	181.99503803253174	1.0001378059387207
32	164.37478184700012	pulse	0	t		30.0	2.5	/experiments/knapen_AOT/AOT_stimuli/rescaled_final/0193_rv.mp4	0.0	182.17866683006287	
32	165.19129085540771	movie	1		243	30.0	2.5	/experiments/knapen_AOT/AOT_stimuli/rescaled_final/0193_rv.mp4	0.0	182.99517583847046	2.500399112701416
32	165.975026845932	pulse	1	t		30.0	2.5	/experiments/knapen_AOT/AOT_stimuli/rescaled_final/0193_rv.mp4	0.0	183.77891182899475	
32	167.57493090629578	pulse	1	t		30.0	2.5	/experiments/knapen_AOT/AOT_stimuli/rescaled_final/0193_rv.mp4	0.0	185.37881588935852	
32	167.69168996810913	fix_post	2		12	30.0	2.5	/experiments/knapen_AOT/AOT_stimuli/rescaled_final/0193_rv.mp4	0.0	185.49557495117188	0.1000070571899414
33	167.79169702529907	fix_pre	0		120	31.0	2.5	/experiments/knapen_AOT/AOT_stimuli/rescaled_final/0972_fw.mp4	0.0	185.59558200836182	1.0001280307769775
33	168.79182505607605	movie	1		241	31.0	2.5	/experiments/knapen_AOT/AOT_stimuli/rescaled_final/0972_fw.mp4	0.0	186.5957100391388	2.492198944091797
33	169.17615795135498	pulse	1	t		31.0	2.5	/experiments/knapen_AOT/AOT_stimuli/rescaled_final/0972_fw.mp4	0.0	186.98004293441772	
33	170.77579402923584	pulse	1	t		31.0	2.5	/experiments/knapen_AOT/AOT_stimuli/rescaled_final/0972_fw.mp4	0.0	188.57967901229858	
33	171.28402400016785	fix_post	2		12	31.0	2.5	/experiments/knapen_AOT/AOT_stimuli/rescaled_final/0972_fw.mp4	0.0	189.0879089832306	0.09989786148071289
34	171.38392186164856	fix_pre	0		120	32.0	2.5	/experiments/knapen_AOT/AOT_stimuli/rescaled_final/1837_fw.mp4	0.0	189.1878068447113	1.000110149383545
34	172.37604188919067	pulse	0	t		32.0	2.5	/experiments/knapen_AOT/AOT_stimuli/rescaled_final/1837_fw.mp4	0.0	190.17992687225342	
34	172.3840320110321	movie	1		243	32.0	2.5	/experiments/knapen_AOT/AOT_stimuli/rescaled_final/1837_fw.mp4	0.0	190.18791699409485	2.508715867996216
34	173.97754788398743	pulse	1	t		32.0	2.5	/experiments/knapen_AOT/AOT_stimuli/rescaled_final/1837_fw.mp4	0.0	191.78143286705017	
34	174.89274787902832	fix_post	2		12	32.0	2.5	/experiments/knapen_AOT/AOT_stimuli/rescaled_final/1837_fw.mp4	0.0	192.69663286209106	0.10006499290466309
35	174.99281287193298	fix_pre	0		120	33.0	2.5	blank	1.0	192.79669785499573	1.0001301765441895
35	175.57633900642395	pulse	0	t		33.0	2.5	blank	1.0	193.3802239894867	
35	175.99294304847717	movie	1		300	33.0	2.5	blank	1.0	193.79682803153992	2.5003418922424316
35	177.1766059398651	pulse	1	t		33.0	2.5	blank	1.0	194.98049092292786	
35	178.4932849407196	fix_post	2		12	33.0	2.5	blank	1.0	196.29716992378235	0.10001301765441895
36	178.59329795837402	fix_pre	0		120	34.0	2.5	/experiments/knapen_AOT/AOT_stimuli/rescaled_final/1636_fw.mp4	0.0	196.39718294143677	1.0002119541168213
36	178.76925587654114	pulse	0	t		34.0	2.5	/experiments/knapen_AOT/AOT_stimuli/rescaled_final/1636_fw.mp4	0.0	196.57314085960388	
36	179.59350991249084	movie	1		244	34.0	2.5	/experiments/knapen_AOT/AOT_stimuli/rescaled_final/1636_fw.mp4	0.0	197.3973948955536	2.5003161430358887
36	180.36969089508057	pulse	1	t		34.0	2.5	/experiments/knapen_AOT/AOT_stimuli/rescaled_final/1636_fw.mp4	0.0	198.1735758781433	
36	181.97886991500854	pulse	1	t		34.0	2.5	/experiments/knapen_AOT/AOT_stimuli/rescaled_final/1636_fw.mp4	0.0	199.7827548980713	
36	182.09382605552673	fix_post	2		12	34.0	2.5	/experiments/knapen_AOT/AOT_stimuli/rescaled_final/1636_fw.mp4	0.0	199.89771103858948	0.1000368595123291
37	182.19386291503906	fix_pre	0		120	35.0	2.5	/experiments/knapen_AOT/AOT_stimuli/rescaled_final/0033_fw.mp4	0.0	199.9977478981018	1.00018310546875
37	183.1940460205078	movie	1		243	35.0	2.5	/experiments/knapen_AOT/AOT_stimuli/rescaled_final/0033_fw.mp4	0.0	200.99793100357056	2.4919819831848145
37	183.57796692848206	pulse	1	t		35.0	2.5	/experiments/knapen_AOT/AOT_stimuli/rescaled_final/0033_fw.mp4	0.0	201.3818519115448	
37	185.1696789264679	pulse	1	t		35.0	2.5	/experiments/knapen_AOT/AOT_stimuli/rescaled_final/0033_fw.mp4	0.0	202.97356390953064	
37	185.68602800369263	fix_post	2		12	35.0	2.5	/experiments/knapen_AOT/AOT_stimuli/rescaled_final/0033_fw.mp4	0.0	203.48991298675537	0.10007786750793457
38	185.78610587120056	fix_pre	0		119	36.0	2.5	/experiments/knapen_AOT/AOT_stimuli/rescaled_final/1266_fw.mp4	0.0	203.5899908542633	0.991779088973999
38	186.7696168422699	pulse	0	t		36.0	2.5	/experiments/knapen_AOT/AOT_stimuli/rescaled_final/1266_fw.mp4	0.0	204.57350182533264	
38	186.77788496017456	movie	1		245	36.0	2.5	/experiments/knapen_AOT/AOT_stimuli/rescaled_final/1266_fw.mp4	0.0	204.5817699432373	2.5087900161743164
38	188.37034583091736	pulse	1	t		36.0	2.5	/experiments/knapen_AOT/AOT_stimuli/rescaled_final/1266_fw.mp4	0.0	206.1742308139801	
38	189.28667497634888	fix_post	2		12	36.0	2.5	/experiments/knapen_AOT/AOT_stimuli/rescaled_final/1266_fw.mp4	0.0	207.09055995941162	0.09995293617248535
39	189.38662791252136	fix_pre	0		120	37.0	2.5	/experiments/knapen_AOT/AOT_stimuli/rescaled_final/0880_rv.mp4	0.0	207.1905128955841	1.0000970363616943
39	189.97028589248657	pulse	0	t		37.0	2.5	/experiments/knapen_AOT/AOT_stimuli/rescaled_final/0880_rv.mp4	0.0	207.77417087554932	
39	190.38672494888306	movie	1		243	37.0	2.5	/experiments/knapen_AOT/AOT_stimuli/rescaled_final/0880_rv.mp4	0.0	208.1906099319458	2.500469923019409
39	191.5704529285431	pulse	1	t		37.0	2.5	/experiments/knapen_AOT/AOT_stimuli/rescaled_final/0880_rv.mp4	0.0	209.37433791160583	
39	192.88719487190247	fix_post	2		12	37.0	2.5	/experiments/knapen_AOT/AOT_stimuli/rescaled_final/0880_rv.mp4	0.0	210.6910798549652	0.09991002082824707
40	192.9871048927307	fix_pre	0		120	38.0	2.5	/experiments/knapen_AOT/AOT_stimuli/rescaled_final/0894_fw.mp4	0.0	210.79098987579346	1.000148057937622
40	193.17069697380066	pulse	0	t		38.0	2.5	/experiments/knapen_AOT/AOT_stimuli/rescaled_final/0894_fw.mp4	0.0	210.9745819568634	
40	193.98725295066833	movie	1		242	38.0	2.5	/experiments/knapen_AOT/AOT_stimuli/rescaled_final/0894_fw.mp4	0.0	211.79113793373108	2.500520944595337
40	194.77088594436646	pulse	1	t		38.0	2.5	/experiments/knapen_AOT/AOT_stimuli/rescaled_final/0894_fw.mp4	0.0	212.5747709274292	
40	196.37123799324036	pulse	1	t		38.0	2.5	/experiments/knapen_AOT/AOT_stimuli/rescaled_final/0894_fw.mp4	0.0	214.1751229763031	
40	196.48777389526367	fix_post	2		12	38.0	2.5	/experiments/knapen_AOT/AOT_stimuli/rescaled_final/0894_fw.mp4	0.0	214.29165887832642	0.0998849868774414
41	196.5876588821411	fix_pre	0		120	39.0	2.5	/experiments/knapen_AOT/AOT_stimuli/rescaled_final/0319_rv.mp4	0.0	214.39154386520386	1.000154972076416
41	197.58781385421753	movie	1		241	39.0	2.5	/experiments/knapen_AOT/AOT_stimuli/rescaled_final/0319_rv.mp4	0.0	215.39169883728027	2.4922029972076416
41	197.97178387641907	pulse	1	t		39.0	2.5	/experiments/knapen_AOT/AOT_stimuli/rescaled_final/0319_rv.mp4	0.0	215.7756688594818	
41	199.57159185409546	pulse	1	t		39.0	2.5	/experiments/knapen_AOT/AOT_stimuli/rescaled_final/0319_rv.mp4	0.0	217.3754768371582	
41	200.08001685142517	fix_post	2		12	39.0	2.5	/experiments/knapen_AOT/AOT_stimuli/rescaled_final/0319_rv.mp4	0.0	217.88390183448792	0.09988808631896973
42	200.17990493774414	fix_pre	0		120	40.0	2.5	/experiments/knapen_AOT/AOT_stimuli/rescaled_final/1879_fw.mp4	0.0	217.98378992080688	1.000140905380249
42	201.17187595367432	pulse	0	t		40.0	2.5	/experiments/knapen_AOT/AOT_stimuli/rescaled_final/1879_fw.mp4	0.0	218.97576093673706	
42	201.1800458431244	movie	1		244	40.0	2.5	/experiments/knapen_AOT/AOT_stimuli/rescaled_final/1879_fw.mp4	0.0	218.98393082618713	2.5087649822235107
42	202.7726550102234	pulse	1	t		40.0	2.5	/experiments/knapen_AOT/AOT_stimuli/rescaled_final/1879_fw.mp4	0.0	220.57653999328613	
42	203.6888108253479	fix_post	2		12	40.0	2.5	/experiments/knapen_AOT/AOT_stimuli/rescaled_final/1879_fw.mp4	0.0	221.49269580841064	0.09994006156921387
43	203.78875088691711	fix_pre	0		120	41.0	2.5	/experiments/knapen_AOT/AOT_stimuli/rescaled_final/0752_fw.mp4	0.0	221.59263586997986	1.0001699924468994
43	204.37244606018066	pulse	0	t		41.0	2.5	/experiments/knapen_AOT/AOT_stimuli/rescaled_final/0752_fw.mp4	0.0	222.1763310432434	
43	204.788920879364	movie	1		244	41.0	2.5	/experiments/knapen_AOT/AOT_stimuli/rescaled_final/0752_fw.mp4	0.0	222.59280586242676	2.500368118286133
43	205.972669839859	pulse	1	t		41.0	2.5	/experiments/knapen_AOT/AOT_stimuli/rescaled_final/0752_fw.mp4	0.0	223.77655482292175	
43	207.28928899765015	fix_post	2		12	41.0	2.5	/experiments/knapen_AOT/AOT_stimuli/rescaled_final/0752_fw.mp4	0.0	225.0931739807129	0.0999598503112793
44	207.38924884796143	fix_pre	0		120	42.0	2.5	blank	1.0	225.19313383102417	1.0002491474151611
44	207.57280683517456	pulse	0	t		42.0	2.5	blank	1.0	225.3766918182373	
44	208.3894979953766	movie	1		300	42.0	2.5	blank	1.0	226.19338297843933	2.5002570152282715
44	209.17309498786926	pulse	1	t		42.0	2.5	blank	1.0	226.976979970932	
44	210.7733359336853	pulse	1	t		42.0	2.5	blank	1.0	228.57722091674805	
44	210.88975501060486	fix_post	2		12	42.0	2.5	blank	1.0	228.6936399936676	0.10009598731994629
45	210.9898509979248	fix_pre	0		120	43.0	2.5	/experiments/knapen_AOT/AOT_stimuli/rescaled_final/0018_fw.mp4	0.0	228.79373598098755	1.0001120567321777
45	211.98996305465698	movie	1		243	43.0	2.5	/experiments/knapen_AOT/AOT_stimuli/rescaled_final/0018_fw.mp4	0.0	229.79384803771973	2.4920129776000977
45	212.37430882453918	pulse	1	t		43.0	2.5	/experiments/knapen_AOT/AOT_stimuli/rescaled_final/0018_fw.mp4	0.0	230.17819380760193	
45	213.97386598587036	pulse	1	t		43.0	2.5	/experiments/knapen_AOT/AOT_stimuli/rescaled_final/0018_fw.mp4	0.0	231.7777509689331	
45	214.48197603225708	fix_post	2		12	43.0	2.5	/experiments/knapen_AOT/AOT_stimuli/rescaled_final/0018_fw.mp4	0.0	232.28586101531982	0.10007190704345703
46	214.58204793930054	fix_pre	0		120	44.0	2.5	/experiments/knapen_AOT/AOT_stimuli/rescaled_final/0640_rv.mp4	0.0	232.38593292236328	1.0001020431518555
46	215.5740668773651	pulse	0	t		44.0	2.5	/experiments/knapen_AOT/AOT_stimuli/rescaled_final/0640_rv.mp4	0.0	233.37795186042786	
46	215.5821499824524	movie	1		243	44.0	2.5	/experiments/knapen_AOT/AOT_stimuli/rescaled_final/0640_rv.mp4	0.0	233.38603496551514	2.508791923522949
46	217.17489004135132	pulse	1	t		44.0	2.5	/experiments/knapen_AOT/AOT_stimuli/rescaled_final/0640_rv.mp4	0.0	234.97877502441406	
46	218.09094190597534	fix_post	2		12	44.0	2.5	/experiments/knapen_AOT/AOT_stimuli/rescaled_final/0640_rv.mp4	0.0	235.8948268890381	0.09993815422058105
47	218.19088006019592	fix_pre	0		120	45.0	2.5	/experiments/knapen_AOT/AOT_stimuli/rescaled_final/1540_fw.mp4	0.0	235.99476504325867	1.0001609325408936
47	218.77457785606384	pulse	0	t		45.0	2.5	/experiments/knapen_AOT/AOT_stimuli/rescaled_final/1540_fw.mp4	0.0	236.5784628391266	
47	219.19104099273682	movie	1		243	45.0	2.5	/experiments/knapen_AOT/AOT_stimuli/rescaled_final/1540_fw.mp4	0.0	236.99492597579956	2.5004849433898926
47	220.37102389335632	pulse	1	t		45.0	2.5	/experiments/knapen_AOT/AOT_stimuli/rescaled_final/1540_fw.mp4	0.0	238.17490887641907	
47	221.6915259361267	fix_post	2		12	45.0	2.5	/experiments/knapen_AOT/AOT_stimuli/rescaled_final/1540_fw.mp4	0.0	239.49541091918945	0.0998690128326416
48	221.79139494895935	fix_pre	0		120	46.0	2.5	/experiments/knapen_AOT/AOT_stimuli/rescaled_final/0036_fw.mp4	0.0	239.5952799320221	1.0002050399780273
48	221.97495102882385	pulse	0	t		46.0	2.5	/experiments/knapen_AOT/AOT_stimuli/rescaled_final/0036_fw.mp4	0.0	239.7788360118866	
48	222.79159998893738	movie	1		243	46.0	2.5	/experiments/knapen_AOT/AOT_stimuli/rescaled_final/0036_fw.mp4	0.0	240.59548497200012	2.5003390312194824
48	223.5751919746399	pulse	1	t		46.0	2.5	/experiments/knapen_AOT/AOT_stimuli/rescaled_final/0036_fw.mp4	0.0	241.37907695770264	
48	225.1752200126648	pulse	1	t		46.0	2.5	/experiments/knapen_AOT/AOT_stimuli/rescaled_final/0036_fw.mp4	0.0	242.97910499572754	
48	225.29193902015686	fix_post	2		12	46.0	2.5	/experiments/knapen_AOT/AOT_stimuli/rescaled_final/0036_fw.mp4	0.0	243.0958240032196	0.10009193420410156
49	225.39203095436096	fix_pre	0		118	47.0	2.5	blank	1.0	243.1959159374237	1.0001170635223389
49	226.3921480178833	movie	1		299	47.0	2.5	blank	1.0	244.19603300094604	2.491973876953125
49	226.77573704719543	pulse	1	t		47.0	2.5	blank	1.0	244.57962203025818	
49	228.3759469985962	pulse	1	t		47.0	2.5	blank	1.0	246.17983198165894	
49	228.88412189483643	fix_post	2		12	47.0	2.5	blank	1.0	246.68800687789917	0.1000969409942627
50	228.9842188358307	fix_pre	0		120	48.0	2.5	/experiments/knapen_AOT/AOT_stimuli/rescaled_final/0955_fw.mp4	0.0	246.78810381889343	1.0000531673431396
50	229.9761459827423	pulse	0	t		48.0	2.5	/experiments/knapen_AOT/AOT_stimuli/rescaled_final/0955_fw.mp4	0.0	247.78003096580505	
50	229.98427200317383	movie	1		243	48.0	2.5	/experiments/knapen_AOT/AOT_stimuli/rescaled_final/0955_fw.mp4	0.0	247.78815698623657	2.5087509155273438
50	231.57717299461365	pulse	1	t		48.0	2.5	/experiments/knapen_AOT/AOT_stimuli/rescaled_final/0955_fw.mp4	0.0	249.3810579776764	
50	232.49302291870117	fix_post	2		12	48.0	2.5	/experiments/knapen_AOT/AOT_stimuli/rescaled_final/0955_fw.mp4	0.0	250.29690790176392	0.0999760627746582
51	232.59299898147583	fix_pre	0		120	49.0	2.5	/experiments/knapen_AOT/AOT_stimuli/rescaled_final/1260_rv.mp4	0.0	250.39688396453857	1.0001559257507324
51	233.1767439842224	pulse	0	t		49.0	2.5	/experiments/knapen_AOT/AOT_stimuli/rescaled_final/1260_rv.mp4	0.0	250.98062896728516	
51	233.59315490722656	movie	1		245	49.0	2.5	/experiments/knapen_AOT/AOT_stimuli/rescaled_final/1260_rv.mp4	0.0	251.3970398902893	2.5003910064697266
51	234.776948928833	pulse	1	t		49.0	2.5	/experiments/knapen_AOT/AOT_stimuli/rescaled_final/1260_rv.mp4	0.0	252.58083391189575	
51	236.0935459136963	fix_post	2		12	49.0	2.5	/experiments/knapen_AOT/AOT_stimuli/rescaled_final/1260_rv.mp4	0.0	253.89743089675903	0.10004091262817383
52	236.19358682632446	fix_pre	0		120	50.0	2.5	/experiments/knapen_AOT/AOT_stimuli/rescaled_final/0848_fw.mp4	0.0	253.9974718093872	1.0001490116119385
52	236.37714886665344	pulse	0	t		50.0	2.5	/experiments/knapen_AOT/AOT_stimuli/rescaled_final/0848_fw.mp4	0.0	254.1810338497162	
52	237.1937358379364	movie	1		244	50.0	2.5	/experiments/knapen_AOT/AOT_stimuli/rescaled_final/0848_fw.mp4	0.0	254.99762082099915	2.5003461837768555
52	237.96998691558838	pulse	1	t		50.0	2.5	/experiments/knapen_AOT/AOT_stimuli/rescaled_final/0848_fw.mp4	0.0	255.77387189865112	
52	239.57746195793152	pulse	1	t		50.0	2.5	/experiments/knapen_AOT/AOT_stimuli/rescaled_final/0848_fw.mp4	0.0	257.38134694099426	
52	239.69408202171326	fix_post	2		12	50.0	2.5	/experiments/knapen_AOT/AOT_stimuli/rescaled_final/0848_fw.mp4	0.0	257.497967004776	0.10002493858337402
53	239.79410696029663	fix_pre	0		120	51.0	2.5	/experiments/knapen_AOT/AOT_stimuli/rescaled_final/0347_rv.mp4	0.0	257.5979919433594	1.0001060962677002
53	240.79421305656433	movie	1		241	51.0	2.5	/experiments/knapen_AOT/AOT_stimuli/rescaled_final/0347_rv.mp4	0.0	258.5980980396271	2.4921319484710693
53	241.178395986557	pulse	1	t		51.0	2.5	/experiments/knapen_AOT/AOT_stimuli/rescaled_final/0347_rv.mp4	0.0	258.98228096961975	
53	242.77084493637085	pulse	1	t		51.0	2.5	/experiments/knapen_AOT/AOT_stimuli/rescaled_final/0347_rv.mp4	0.0	260.5747299194336	
53	243.2863450050354	fix_post	2		12	51.0	2.5	/experiments/knapen_AOT/AOT_stimuli/rescaled_final/0347_rv.mp4	0.0	261.09022998809814	0.0999598503112793
54	243.38630485534668	fix_pre	0		120	52.0	2.5	/experiments/knapen_AOT/AOT_stimuli/rescaled_final/1332_rv.mp4	0.0	261.1901898384094	1.000190019607544
54	244.37075805664062	pulse	0	t		52.0	2.5	/experiments/knapen_AOT/AOT_stimuli/rescaled_final/1332_rv.mp4	0.0	262.17464303970337	
54	244.38649487495422	movie	1		243	52.0	2.5	/experiments/knapen_AOT/AOT_stimuli/rescaled_final/1332_rv.mp4	0.0	262.19037985801697	2.5086300373077393
54	245.97028994560242	pulse	1	t		52.0	2.5	/experiments/knapen_AOT/AOT_stimuli/rescaled_final/1332_rv.mp4	0.0	263.77417492866516	
54	246.89512491226196	fix_post	2		12	52.0	2.5	/experiments/knapen_AOT/AOT_stimuli/rescaled_final/1332_rv.mp4	0.0	264.6990098953247	0.1000070571899414
55	246.9951319694519	fix_pre	0		120	53.0	2.5	/experiments/knapen_AOT/AOT_stimuli/rescaled_final/0822_fw.mp4	0.0	264.79901695251465	1.0001859664916992
55	247.5703740119934	pulse	0	t		53.0	2.5	/experiments/knapen_AOT/AOT_stimuli/rescaled_final/0822_fw.mp4	0.0	265.37425899505615	
55	247.9953179359436	movie	1		243	53.0	2.5	/experiments/knapen_AOT/AOT_stimuli/rescaled_final/0822_fw.mp4	0.0	265.79920291900635	2.500494956970215
55	249.1711390018463	pulse	1	t		53.0	2.5	/experiments/knapen_AOT/AOT_stimuli/rescaled_final/0822_fw.mp4	0.0	266.97502398490906	
55	250.49581289291382	fix_post	2		12	53.0	2.5	/experiments/knapen_AOT/AOT_stimuli/rescaled_final/0822_fw.mp4	0.0	268.29969787597656	0.09995603561401367
56	250.59576892852783	fix_pre	0		120	54.0	2.5	blank	1.0	268.3996539115906	1.0001089572906494
56	250.7710280418396	pulse	0	t		54.0	2.5	blank	1.0	268.57491302490234	
56	251.59587788581848	movie	1		300	54.0	2.5	blank	1.0	269.3997628688812	2.5003340244293213
56	252.37122988700867	pulse	1	t		54.0	2.5	blank	1.0	270.1751148700714	
56	253.97132396697998	pulse	1	t		54.0	2.5	blank	1.0	271.7752089500427	
56	254.0962119102478	fix_post	2		12	54.0	2.5	blank	1.0	271.90009689331055	0.10003113746643066
57	254.19624304771423	fix_pre	0		119	55.0	2.5	/experiments/knapen_AOT/AOT_stimuli/rescaled_final/0412_fw.mp4	0.0	272.000128030777	0.9918348789215088
57	255.18807792663574	movie	1		244	55.0	2.5	/experiments/knapen_AOT/AOT_stimuli/rescaled_final/0412_fw.mp4	0.0	272.9919629096985	2.5004019737243652
57	255.57227087020874	pulse	1	t		55.0	2.5	/experiments/knapen_AOT/AOT_stimuli/rescaled_final/0412_fw.mp4	0.0	273.3761558532715	
57	257.17206597328186	pulse	1	t		55.0	2.5	/experiments/knapen_AOT/AOT_stimuli/rescaled_final/0412_fw.mp4	0.0	274.9759509563446	
57	257.6884799003601	fix_post	2		12	55.0	2.5	/experiments/knapen_AOT/AOT_stimuli/rescaled_final/0412_fw.mp4	0.0	275.49236488342285	0.09998893737792969
58	257.78846883773804	fix_pre	0		119	56.0	2.5	/experiments/knapen_AOT/AOT_stimuli/rescaled_final/1446_fw.mp4	0.0	275.5923538208008	0.9917690753936768
58	258.7721838951111	pulse	0	t		56.0	2.5	/experiments/knapen_AOT/AOT_stimuli/rescaled_final/1446_fw.mp4	0.0	276.5760688781738	
58	258.7802379131317	movie	1		244	56.0	2.5	/experiments/knapen_AOT/AOT_stimuli/rescaled_final/1446_fw.mp4	0.0	276.58412289619446	2.5087380409240723
58	260.37371301651	pulse	1	t		56.0	2.5	/experiments/knapen_AOT/AOT_stimuli/rescaled_final/1446_fw.mp4	0.0	278.17759799957275	
58	261.2889759540558	fix_post	2		12	56.0	2.5	/experiments/knapen_AOT/AOT_stimuli/rescaled_final/1446_fw.mp4	0.0	279.09286093711853	0.1000509262084961
59	261.3890268802643	fix_pre	0		120	57.0	2.5	/experiments/knapen_AOT/AOT_stimuli/rescaled_final/0179_fw.mp4	0.0	279.192911863327	1.0000989437103271
59	261.9726839065552	pulse	0	t		57.0	2.5	/experiments/knapen_AOT/AOT_stimuli/rescaled_final/0179_fw.mp4	0.0	279.7765688896179	
59	262.3891258239746	movie	1		242	57.0	2.5	/experiments/knapen_AOT/AOT_stimuli/rescaled_final/0179_fw.mp4	0.0	280.19301080703735	2.500519037246704
59	263.5730359554291	pulse	1	t		57.0	2.5	/experiments/knapen_AOT/AOT_stimuli/rescaled_final/0179_fw.mp4	0.0	281.3769209384918	
59	264.8896448612213	fix_post	2		12	57.0	2.5	/experiments/knapen_AOT/AOT_stimuli/rescaled_final/0179_fw.mp4	0.0	282.69352984428406	0.09992218017578125
60	264.9895670413971	fix_pre	0		120	58.0	2.5	/experiments/knapen_AOT/AOT_stimuli/rescaled_final/0692_rv.mp4	0.0	282.79345202445984	1.0001428127288818
60	265.1731970310211	pulse	0	t		58.0	2.5	/experiments/knapen_AOT/AOT_stimuli/rescaled_final/0692_rv.mp4	0.0	282.97708201408386	
60	265.989709854126	movie	1		242	58.0	2.5	/experiments/knapen_AOT/AOT_stimuli/rescaled_final/0692_rv.mp4	0.0	283.7935948371887	2.500446081161499
60	266.7734558582306	pulse	1	t		58.0	2.5	/experiments/knapen_AOT/AOT_stimuli/rescaled_final/0692_rv.mp4	0.0	284.57734084129333	
60	268.373144865036	pulse	1	t		58.0	2.5	/experiments/knapen_AOT/AOT_stimuli/rescaled_final/0692_rv.mp4	0.0	286.17702984809875	
60	268.4901559352875	fix_post	2		12	58.0	2.5	/experiments/knapen_AOT/AOT_stimuli/rescaled_final/0692_rv.mp4	0.0	286.2940409183502	0.09993910789489746
61	268.5900950431824	fix_pre	0		120	59.0	2.5	/experiments/knapen_AOT/AOT_stimuli/rescaled_final/0179_fw.mp4	0.0	286.3939800262451	1.0001039505004883
61	269.59019899368286	movie	1		241	59.0	2.5	/experiments/knapen_AOT/AOT_stimuli/rescaled_final/0179_fw.mp4	0.0	287.3940839767456	2.4920339584350586
61	269.97442293167114	pulse	1	t		59.0	2.5	/experiments/knapen_AOT/AOT_stimuli/rescaled_final/0179_fw.mp4	0.0	287.7783079147339	
61	271.5742108821869	pulse	1	t		59.0	2.5	/experiments/knapen_AOT/AOT_stimuli/rescaled_final/0179_fw.mp4	0.0	289.37809586524963	
61	272.0822329521179	fix_post	2		12	59.0	2.5	/experiments/knapen_AOT/AOT_stimuli/rescaled_final/0179_fw.mp4	0.0	289.88611793518066	0.10002899169921875
62	272.18226194381714	fix_pre	0		120	60.0	2.5	/experiments/knapen_AOT/AOT_stimuli/rescaled_final/1866_fw.mp4	0.0	289.9861469268799	1.000133991241455
62	273.1742479801178	pulse	0	t		60.0	2.5	/experiments/knapen_AOT/AOT_stimuli/rescaled_final/1866_fw.mp4	0.0	290.97813296318054	
62	273.1823959350586	movie	1		244	60.0	2.5	/experiments/knapen_AOT/AOT_stimuli/rescaled_final/1866_fw.mp4	0.0	290.98628091812134	2.5087509155273438
62	274.7791328430176	pulse	1	t		60.0	2.5	/experiments/knapen_AOT/AOT_stimuli/rescaled_final/1866_fw.mp4	0.0	292.5830178260803	
62	275.69114685058594	fix_post	2		12	60.0	2.5	/experiments/knapen_AOT/AOT_stimuli/rescaled_final/1866_fw.mp4	0.0	293.4950318336487	0.10001802444458008
63	275.7911648750305	fix_pre	0		120	61.0	2.5	blank	1.0	293.59504985809326	1.0001060962677002
63	276.374773979187	pulse	0	t		61.0	2.5	blank	1.0	294.17865896224976	
63	276.7912709712982	movie	1		300	61.0	2.5	blank	1.0	294.59515595436096	2.500370979309082
63	277.974937915802	pulse	1	t		61.0	2.5	blank	1.0	295.77882289886475	
63	279.2916419506073	fix_post	2		12	61.0	2.5	blank	1.0	297.09552693367004	0.1000828742980957
64	279.3917248249054	fix_pre	0		120	62.0	2.5	/experiments/knapen_AOT/AOT_stimuli/rescaled_final/0847_rv.mp4	0.0	297.19560980796814	1.0002021789550781
64	279.5753140449524	pulse	0	t		62.0	2.5	/experiments/knapen_AOT/AOT_stimuli/rescaled_final/0847_rv.mp4	0.0	297.37919902801514	
64	280.3919270038605	movie	1		243	62.0	2.5	/experiments/knapen_AOT/AOT_stimuli/rescaled_final/0847_rv.mp4	0.0	298.1958119869232	2.5002968311309814
64	281.1754229068756	pulse	1	t		62.0	2.5	/experiments/knapen_AOT/AOT_stimuli/rescaled_final/0847_rv.mp4	0.0	298.97930788993835	
64	282.77559995651245	pulse	1	t		62.0	2.5	/experiments/knapen_AOT/AOT_stimuli/rescaled_final/0847_rv.mp4	0.0	300.5794849395752	
64	282.89222383499146	fix_post	2		12	62.0	2.5	/experiments/knapen_AOT/AOT_stimuli/rescaled_final/0847_rv.mp4	0.0	300.6961088180542	0.10000419616699219
65	282.99222803115845	fix_pre	0		120	63.0	2.5	/experiments/knapen_AOT/AOT_stimuli/rescaled_final/1841_fw.mp4	0.0	300.7961130142212	1.0001108646392822
65	283.99233889579773	movie	1		242	63.0	2.5	/experiments/knapen_AOT/AOT_stimuli/rescaled_final/1841_fw.mp4	0.0	301.7962238788605	2.517061948776245
65	284.37636494636536	pulse	1	t		63.0	2.5	/experiments/knapen_AOT/AOT_stimuli/rescaled_final/1841_fw.mp4	0.0	302.1802499294281	
65	285.97631788253784	pulse	1	t		63.0	2.5	/experiments/knapen_AOT/AOT_stimuli/rescaled_final/1841_fw.mp4	0.0	303.7802028656006	
65	286.509400844574	fix_post	2		9	63.0	2.5	/experiments/knapen_AOT/AOT_stimuli/rescaled_final/1841_fw.mp4	0.0	304.3132858276367	0.07502412796020508
66	286.5844249725342	fix_pre	0		120	64.0	2.5	/experiments/knapen_AOT/AOT_stimuli/rescaled_final/1013_rv.mp4	0.0	304.3883099555969	1.0002260208129883
66	287.57637000083923	pulse	0	t		64.0	2.5	/experiments/knapen_AOT/AOT_stimuli/rescaled_final/1013_rv.mp4	0.0	305.380254983902	
66	287.58465099334717	movie	1		244	64.0	2.5	/experiments/knapen_AOT/AOT_stimuli/rescaled_final/1013_rv.mp4	0.0	305.3885359764099	2.508699893951416
66	289.177316904068	pulse	1	t		64.0	2.5	/experiments/knapen_AOT/AOT_stimuli/rescaled_final/1013_rv.mp4	0.0	306.98120188713074	
66	290.0933508872986	fix_post	2		12	64.0	2.5	/experiments/knapen_AOT/AOT_stimuli/rescaled_final/1013_rv.mp4	0.0	307.8972358703613	0.0999460220336914
67	290.1932969093323	fix_pre	0		120	65.0	2.5	/experiments/knapen_AOT/AOT_stimuli/rescaled_final/1498_rv.mp4	0.0	307.997181892395	1.000128984451294
67	290.77696990966797	pulse	0	t		65.0	2.5	/experiments/knapen_AOT/AOT_stimuli/rescaled_final/1498_rv.mp4	0.0	308.5808548927307	
67	291.19342589378357	movie	1		242	65.0	2.5	/experiments/knapen_AOT/AOT_stimuli/rescaled_final/1498_rv.mp4	0.0	308.9973108768463	2.5005199909210205
67	292.3773138523102	pulse	1	t		65.0	2.5	/experiments/knapen_AOT/AOT_stimuli/rescaled_final/1498_rv.mp4	0.0	310.1811988353729	
67	293.6939458847046	fix_post	2		12	65.0	2.5	/experiments/knapen_AOT/AOT_stimuli/rescaled_final/1498_rv.mp4	0.0	311.49783086776733	0.09986710548400879
68	293.7938129901886	fix_pre	0		120	66.0	2.5	/experiments/knapen_AOT/AOT_stimuli/rescaled_final/0382_rv.mp4	0.0	311.59769797325134	1.0001978874206543
68	293.96986293792725	pulse	0	t		66.0	2.5	/experiments/knapen_AOT/AOT_stimuli/rescaled_final/0382_rv.mp4	0.0	311.77374792099	
68	294.79401087760925	movie	1		243	66.0	2.5	/experiments/knapen_AOT/AOT_stimuli/rescaled_final/0382_rv.mp4	0.0	312.597895860672	2.500422954559326
68	295.570170879364	pulse	1	t		66.0	2.5	/experiments/knapen_AOT/AOT_stimuli/rescaled_final/0382_rv.mp4	0.0	313.37405586242676	
68	297.17764687538147	pulse	1	t		66.0	2.5	/experiments/knapen_AOT/AOT_stimuli/rescaled_final/0382_rv.mp4	0.0	314.9815318584442	
68	297.2944338321686	fix_post	2		12	66.0	2.5	/experiments/knapen_AOT/AOT_stimuli/rescaled_final/0382_rv.mp4	0.0	315.0983188152313	0.09998106956481934
69	297.3944149017334	fix_pre	0		120	67.0	2.5	/experiments/knapen_AOT/AOT_stimuli/rescaled_final/1229_rv.mp4	0.0	315.19829988479614	1.0001370906829834
69	298.3945519924164	movie	1		242	67.0	2.5	/experiments/knapen_AOT/AOT_stimuli/rescaled_final/1229_rv.mp4	0.0	316.1984369754791	2.4921250343322754
69	298.76991987228394	pulse	1	t		67.0	2.5	/experiments/knapen_AOT/AOT_stimuli/rescaled_final/1229_rv.mp4	0.0	316.5738048553467	
69	300.370069026947	pulse	1	t		67.0	2.5	/experiments/knapen_AOT/AOT_stimuli/rescaled_final/1229_rv.mp4	0.0	318.17395401000977	
69	300.88667702674866	fix_post	2		12	67.0	2.5	/experiments/knapen_AOT/AOT_stimuli/rescaled_final/1229_rv.mp4	0.0	318.6905620098114	0.09991788864135742
70	300.98659491539	fix_pre	0		119	68.0	2.5	/experiments/knapen_AOT/AOT_stimuli/rescaled_final/0461_rv.mp4	0.0	318.79047989845276	0.9918301105499268
70	301.970253944397	pulse	0	t		68.0	2.5	/experiments/knapen_AOT/AOT_stimuli/rescaled_final/0461_rv.mp4	0.0	319.7741389274597	
70	301.97842502593994	movie	1		244	68.0	2.5	/experiments/knapen_AOT/AOT_stimuli/rescaled_final/0461_rv.mp4	0.0	319.7823100090027	2.5086729526519775
70	303.5751760005951	pulse	1	t		68.0	2.5	/experiments/knapen_AOT/AOT_stimuli/rescaled_final/0461_rv.mp4	0.0	321.37906098365784	
70	304.4870979785919	fix_post	2		12	68.0	2.5	/experiments/knapen_AOT/AOT_stimuli/rescaled_final/0461_rv.mp4	0.0	322.29098296165466	0.10001707077026367
71	304.5871150493622	fix_pre	0		120	69.0	2.5	/experiments/knapen_AOT/AOT_stimuli/rescaled_final/1046_fw.mp4	0.0	322.3910000324249	1.0002059936523438
71	305.1707479953766	pulse	0	t		69.0	2.5	/experiments/knapen_AOT/AOT_stimuli/rescaled_final/1046_fw.mp4	0.0	322.97463297843933	
71	305.5873210430145	movie	1		242	69.0	2.5	/experiments/knapen_AOT/AOT_stimuli/rescaled_final/1046_fw.mp4	0.0	323.39120602607727	2.5004220008850098
71	306.7709879875183	pulse	1	t		69.0	2.5	/experiments/knapen_AOT/AOT_stimuli/rescaled_final/1046_fw.mp4	0.0	324.57487297058105	
71	308.08774304389954	fix_post	2		12	69.0	2.5	/experiments/knapen_AOT/AOT_stimuli/rescaled_final/1046_fw.mp4	0.0	325.8916280269623	0.09997081756591797
72	308.18771386146545	fix_pre	0		120	70.0	2.5	blank	1.0	325.9915988445282	1.0000669956207275
72	308.37115597724915	pulse	0	t		70.0	2.5	blank	1.0	326.1750409603119	
72	309.1877808570862	movie	1		300	70.0	2.5	blank	1.0	326.9916658401489	2.5003771781921387
72	309.97137784957886	pulse	1	t		70.0	2.5	blank	1.0	327.7752628326416	
72	311.57173204421997	pulse	1	t		70.0	2.5	blank	1.0	329.3756170272827	
72	311.6881580352783	fix_post	2		12	70.0	2.5	blank	1.0	329.49204301834106	0.10003399848937988
73	311.7881920337677	fix_pre	0		120	71.0	2.5	/experiments/knapen_AOT/AOT_stimuli/rescaled_final/0972_fw.mp4	0.0	329.59207701683044	1.0001559257507324
73	312.78834795951843	movie	1		241	71.0	2.5	/experiments/knapen_AOT/AOT_stimuli/rescaled_final/0972_fw.mp4	0.0	330.5922329425812	2.4920458793640137
73	313.1723430156708	pulse	1	t		71.0	2.5	/experiments/knapen_AOT/AOT_stimuli/rescaled_final/0972_fw.mp4	0.0	330.9762279987335	
73	314.7721869945526	pulse	1	t		71.0	2.5	/experiments/knapen_AOT/AOT_stimuli/rescaled_final/0972_fw.mp4	0.0	332.57607197761536	
73	315.28039383888245	fix_post	2		12	71.0	2.5	/experiments/knapen_AOT/AOT_stimuli/rescaled_final/0972_fw.mp4	0.0	333.0842788219452	0.10001015663146973
74	315.3804039955139	fix_pre	0		120	72.0	2.5	/experiments/knapen_AOT/AOT_stimuli/rescaled_final/2128_fw.mp4	0.0	333.18428897857666	1.000182867050171
74	316.37236499786377	pulse	0	t		72.0	2.5	/experiments/knapen_AOT/AOT_stimuli/rescaled_final/2128_fw.mp4	0.0	334.1762499809265	
74	316.3805868625641	movie	1		244	72.0	2.5	/experiments/knapen_AOT/AOT_stimuli/rescaled_final/2128_fw.mp4	0.0	334.18447184562683	2.508660078048706
74	317.9729850292206	pulse	1	t		72.0	2.5	/experiments/knapen_AOT/AOT_stimuli/rescaled_final/2128_fw.mp4	0.0	335.7768700122833	
74	318.8892469406128	fix_post	2		12	72.0	2.5	/experiments/knapen_AOT/AOT_stimuli/rescaled_final/2128_fw.mp4	0.0	336.69313192367554	0.10000109672546387
75	318.98924803733826	fix_pre	0		120	73.0	2.5	/experiments/knapen_AOT/AOT_stimuli/rescaled_final/0431_fw.mp4	0.0	336.793133020401	1.0001850128173828
75	319.5728769302368	pulse	0	t		73.0	2.5	/experiments/knapen_AOT/AOT_stimuli/rescaled_final/0431_fw.mp4	0.0	337.37676191329956	
75	319.98943305015564	movie	1		242	73.0	2.5	/experiments/knapen_AOT/AOT_stimuli/rescaled_final/0431_fw.mp4	0.0	337.7933180332184	2.500485897064209
75	321.17317485809326	pulse	1	t		73.0	2.5	/experiments/knapen_AOT/AOT_stimuli/rescaled_final/0431_fw.mp4	0.0	338.977059841156	
75	322.48991894721985	fix_post	2		12	73.0	2.5	/experiments/knapen_AOT/AOT_stimuli/rescaled_final/0431_fw.mp4	0.0	340.2938039302826	0.09988903999328613
76	322.58980798721313	fix_pre	0		120	74.0	2.5	/experiments/knapen_AOT/AOT_stimuli/rescaled_final/1841_rv.mp4	0.0	340.3936929702759	1.0001778602600098
76	322.77335500717163	pulse	0	t		74.0	2.5	/experiments/knapen_AOT/AOT_stimuli/rescaled_final/1841_rv.mp4	0.0	340.5772399902344	
76	323.58998584747314	movie	1		243	74.0	2.5	/experiments/knapen_AOT/AOT_stimuli/rescaled_final/1841_rv.mp4	0.0	341.3938708305359	2.500339984893799
76	324.37357997894287	pulse	1	t		74.0	2.5	/experiments/knapen_AOT/AOT_stimuli/rescaled_final/1841_rv.mp4	0.0	342.1774649620056	
76	325.97374200820923	pulse	1	t		74.0	2.5	/experiments/knapen_AOT/AOT_stimuli/rescaled_final/1841_rv.mp4	0.0	343.777626991272	
76	326.09032583236694	fix_post	2		12	74.0	2.5	/experiments/knapen_AOT/AOT_stimuli/rescaled_final/1841_rv.mp4	0.0	343.8942108154297	0.10000801086425781
77	326.1903338432312	fix_pre	0		120	75.0	2.5	/experiments/knapen_AOT/AOT_stimuli/rescaled_final/1131_rv.mp4	0.0	343.99421882629395	1.000143051147461
77	327.19047689437866	movie	1		242	75.0	2.5	/experiments/knapen_AOT/AOT_stimuli/rescaled_final/1131_rv.mp4	0.0	344.9943618774414	2.492202043533325
77	327.57468700408936	pulse	1	t		75.0	2.5	/experiments/knapen_AOT/AOT_stimuli/rescaled_final/1131_rv.mp4	0.0	345.3785719871521	
77	329.1742789745331	pulse	1	t		75.0	2.5	/experiments/knapen_AOT/AOT_stimuli/rescaled_final/1131_rv.mp4	0.0	346.9781639575958	
77	329.682678937912	fix_post	2		12	75.0	2.5	/experiments/knapen_AOT/AOT_stimuli/rescaled_final/1131_rv.mp4	0.0	347.48656392097473	0.09991002082824707
78	329.78258895874023	fix_pre	0		120	76.0	2.5	blank	1.0	347.586473941803	1.0001230239868164
78	330.77449893951416	pulse	0	t		76.0	2.5	blank	1.0	348.5783839225769	
78	330.78271198272705	movie	1		301	76.0	2.5	blank	1.0	348.5865969657898	2.5087180137634277
78	332.37482500076294	pulse	1	t		76.0	2.5	blank	1.0	350.1787099838257	
78	333.2914299964905	fix_post	2		12	76.0	2.5	blank	1.0	351.0953149795532	0.09994292259216309
79	333.39137291908264	fix_pre	0		120	77.0	2.5	/experiments/knapen_AOT/AOT_stimuli/rescaled_final/1498_rv.mp4	0.0	351.1952579021454	1.000244140625
79	333.9750888347626	pulse	0	t		77.0	2.5	/experiments/knapen_AOT/AOT_stimuli/rescaled_final/1498_rv.mp4	0.0	351.7789738178253	
79	334.39161705970764	movie	1		242	77.0	2.5	/experiments/knapen_AOT/AOT_stimuli/rescaled_final/1498_rv.mp4	0.0	352.1955020427704	2.500415802001953
79	335.5753469467163	pulse	1	t		77.0	2.5	/experiments/knapen_AOT/AOT_stimuli/rescaled_final/1498_rv.mp4	0.0	353.37923192977905	
79	336.8920328617096	fix_post	2		12	77.0	2.5	/experiments/knapen_AOT/AOT_stimuli/rescaled_final/1498_rv.mp4	0.0	354.69591784477234	0.09992408752441406
80	336.991956949234	fix_pre	0		120	78.0	2.5	/experiments/knapen_AOT/AOT_stimuli/rescaled_final/1107_fw.mp4	0.0	354.79584193229675	1.0002059936523438
80	337.1755769252777	pulse	0	t		78.0	2.5	/experiments/knapen_AOT/AOT_stimuli/rescaled_final/1107_fw.mp4	0.0	354.97946190834045	
80	337.99216294288635	movie	1		242	78.0	2.5	/experiments/knapen_AOT/AOT_stimuli/rescaled_final/1107_fw.mp4	0.0	355.7960479259491	2.5004589557647705
80	338.7758059501648	pulse	1	t		78.0	2.5	/experiments/knapen_AOT/AOT_stimuli/rescaled_final/1107_fw.mp4	0.0	356.57969093322754	
80	340.3764488697052	pulse	1	t		78.0	2.5	/experiments/knapen_AOT/AOT_stimuli/rescaled_final/1107_fw.mp4	0.0	358.18033385276794	
80	340.4926218986511	fix_post	2		12	78.0	2.5	/experiments/knapen_AOT/AOT_stimuli/rescaled_final/1107_fw.mp4	0.0	358.29650688171387	0.0999000072479248
81	340.59252190589905	fix_pre	0		119	79.0	2.5	/experiments/knapen_AOT/AOT_stimuli/rescaled_final/1014_rv.mp4	0.0	358.3964068889618	0.9917440414428711
81	341.5842659473419	movie	1		242	79.0	2.5	/experiments/knapen_AOT/AOT_stimuli/rescaled_final/1014_rv.mp4	0.0	359.38815093040466	2.5005650520324707
81	341.97627902030945	pulse	1	t		79.0	2.5	/experiments/knapen_AOT/AOT_stimuli/rescaled_final/1014_rv.mp4	0.0	359.7801640033722	
81	343.57659792900085	pulse	1	t		79.0	2.5	/experiments/knapen_AOT/AOT_stimuli/rescaled_final/1014_rv.mp4	0.0	361.3804829120636	
81	344.0848309993744	fix_post	2		12	79.0	2.5	/experiments/knapen_AOT/AOT_stimuli/rescaled_final/1014_rv.mp4	0.0	361.88871598243713	0.0998849868774414
82	344.18471598625183	fix_pre	0		120	80.0	2.5	/experiments/knapen_AOT/AOT_stimuli/rescaled_final/1857_rv.mp4	0.0	361.9886009693146	1.000074863433838
82	345.1767609119415	pulse	0	t		80.0	2.5	/experiments/knapen_AOT/AOT_stimuli/rescaled_final/1857_rv.mp4	0.0	362.9806458950043	
82	345.18479084968567	movie	1		243	80.0	2.5	/experiments/knapen_AOT/AOT_stimuli/rescaled_final/1857_rv.mp4	0.0	362.9886758327484	2.5087921619415283
82	346.77764201164246	pulse	1	t		80.0	2.5	/experiments/knapen_AOT/AOT_stimuli/rescaled_final/1857_rv.mp4	0.0	364.5815269947052	
82	347.6935830116272	fix_post	2		12	80.0	2.5	/experiments/knapen_AOT/AOT_stimuli/rescaled_final/1857_rv.mp4	0.0	365.49746799468994	0.10000085830688477
83	347.7935838699341	fix_pre	0		120	81.0	2.5	/experiments/knapen_AOT/AOT_stimuli/rescaled_final/1260_fw.mp4	0.0	365.5974688529968	1.0001931190490723
83	348.36968183517456	pulse	0	t		81.0	2.5	/experiments/knapen_AOT/AOT_stimuli/rescaled_final/1260_fw.mp4	0.0	366.1735668182373	
83	348.79377698898315	movie	1		242	81.0	2.5	/experiments/knapen_AOT/AOT_stimuli/rescaled_final/1260_fw.mp4	0.0	366.5976619720459	2.50032901763916
83	349.9734869003296	pulse	1	t		81.0	2.5	/experiments/knapen_AOT/AOT_stimuli/rescaled_final/1260_fw.mp4	0.0	367.77737188339233	
83	351.2941060066223	fix_post	2		12	81.0	2.5	/experiments/knapen_AOT/AOT_stimuli/rescaled_final/1260_fw.mp4	0.0	369.09799098968506	0.1000518798828125
84	351.3941578865051	fix_pre	0		120	82.0	2.5	/experiments/knapen_AOT/AOT_stimuli/rescaled_final/1791_fw.mp4	0.0	369.19804286956787	1.0000560283660889
84	351.5700788497925	pulse	0	t		82.0	2.5	/experiments/knapen_AOT/AOT_stimuli/rescaled_final/1791_fw.mp4	0.0	369.3739638328552	
84	352.3942139148712	movie	1		243	82.0	2.5	/experiments/knapen_AOT/AOT_stimuli/rescaled_final/1791_fw.mp4	0.0	370.19809889793396	2.500504970550537
84	353.16945791244507	pulse	1	t		82.0	2.5	/experiments/knapen_AOT/AOT_stimuli/rescaled_final/1791_fw.mp4	0.0	370.9733428955078	
84	354.7697069644928	pulse	1	t		82.0	2.5	/experiments/knapen_AOT/AOT_stimuli/rescaled_final/1791_fw.mp4	0.0	372.57359194755554	
84	354.89471888542175	fix_post	2		12	82.0	2.5	/experiments/knapen_AOT/AOT_stimuli/rescaled_final/1791_fw.mp4	0.0	372.6986038684845	0.09988808631896973
85	354.9946069717407	fix_pre	0		120	83.0	2.5	blank	1.0	372.79849195480347	1.0001540184020996
85	355.9947609901428	movie	1		299	83.0	2.5	blank	1.0	373.79864597320557	2.4921250343322754
85	356.3700568675995	pulse	1	t		83.0	2.5	blank	1.0	374.17394185066223	
85	357.9702408313751	pulse	1	t		83.0	2.5	blank	1.0	375.77412581443787	
85	358.4868860244751	fix_post	2		12	83.0	2.5	blank	1.0	376.29077100753784	0.09999895095825195
87	358.58688497543335	stim	0		1716					376.3907699584961	14.302303075790405
87	359.57041096687317	pulse	0	t						377.3742959499359	
87	361.17082595825195	pulse	0	t						378.9747109413147	
87	362.77089285850525	pulse	0	t						380.574777841568	
87	364.371239900589	pulse	0	t						382.17512488365173	
87	365.9713978767395	pulse	0	t						383.77528285980225	
87	367.571653842926	pulse	0	t						385.37553882598877	
87	369.17185497283936	pulse	0	t						386.9757399559021	
87	370.77219104766846	pulse	0	t						388.5760760307312	
87	372.37232995033264	pulse	0	t						390.1762149333954	
