trial_nr	onset	event_type	phase	response	nr_frames	movie_index	movie_duration	movie_file	blank	onset_abs	duration
0	0.1587049961090088	stim	0		35					21.604357957839966	0.29124999046325684
0	0.441910982131958	response	0	space						21.887563943862915	
1	0.4499549865722656	stim	0		4727					21.895607948303223	39.3913459777832
1	39.83559799194336	pulse	0	t						61.281250953674316	
1	39.84130096435547	stim	1		1717					61.286953926086426	14.308387994766235
1	41.433183908462524	pulse	1	t						62.87883687019348	
1	43.03315186500549	pulse	1	t						64.47880482673645	
1	44.633151054382324	pulse	1	t						66.07880401611328	
1	46.23317098617554	pulse	1	t						67.6788239479065	
1	47.83310604095459	pulse	1	t						69.27875900268555	
1	49.43312096595764	pulse	1	t						70.8787739276886	
1	51.03307795524597	pulse	1	t						72.47873091697693	
1	52.633309841156006	pulse	1	t						74.07896280288696	
2	54.149688959121704	fix_pre	0		11	0.0	2.5	/experiments/AOT/AOT_stimuli/rescaled_final/0930_rv.mp4	0.0	75.59534192085266	0.09164690971374512
2	54.233113050460815	pulse	0	t		0.0	2.5	/experiments/AOT/AOT_stimuli/rescaled_final/0930_rv.mp4	0.0	75.67876601219177	
2	54.24133586883545	movie	1		243	0.0	2.5	/experiments/AOT/AOT_stimuli/rescaled_final/0930_rv.mp4	0.0	75.6869888305664	2.507869005203247
2	55.832902908325195	pulse	1	t		0.0	2.5	/experiments/AOT/AOT_stimuli/rescaled_final/0930_rv.mp4	0.0	77.27855587005615	
2	56.749204874038696	fix_post	2		12	0.0	2.5	/experiments/AOT/AOT_stimuli/rescaled_final/0930_rv.mp4	0.0	78.19485783576965	0.10045909881591797
3	56.849663972854614	fix_pre	0		120	1.0	2.5	/experiments/AOT/AOT_stimuli/rescaled_final/1746_fw.mp4	0.0	78.29531693458557	0.9999608993530273
3	57.43314003944397	pulse	0	t		1.0	2.5	/experiments/AOT/AOT_stimuli/rescaled_final/1746_fw.mp4	0.0	78.87879300117493	
3	57.84962487220764	movie	1		245	1.0	2.5	/experiments/AOT/AOT_stimuli/rescaled_final/1746_fw.mp4	0.0	79.2952778339386	2.4999701976776123
3	59.033374071121216	pulse	1	t		1.0	2.5	/experiments/AOT/AOT_stimuli/rescaled_final/1746_fw.mp4	0.0	80.47902703285217	
3	60.349595069885254	fix_post	2		12	1.0	2.5	/experiments/AOT/AOT_stimuli/rescaled_final/1746_fw.mp4	0.0	81.79524803161621	0.09997081756591797
4	60.44956588745117	fix_pre	0		120	2.0	2.5	/experiments/AOT/AOT_stimuli/rescaled_final/0565_fw.mp4	0.0	81.89521884918213	1.0001111030578613
4	60.6330828666687	pulse	0	t		2.0	2.5	/experiments/AOT/AOT_stimuli/rescaled_final/0565_fw.mp4	0.0	82.07873582839966	
4	61.44967699050903	movie	1		242	2.0	2.5	/experiments/AOT/AOT_stimuli/rescaled_final/0565_fw.mp4	0.0	82.89532995223999	2.499871015548706
4	62.23315787315369	pulse	1	t		2.0	2.5	/experiments/AOT/AOT_stimuli/rescaled_final/0565_fw.mp4	0.0	83.67881083488464	
4	63.8317129611969	pulse	1	t		2.0	2.5	/experiments/AOT/AOT_stimuli/rescaled_final/0565_fw.mp4	0.0	85.27736592292786	
4	63.94954800605774	fix_post	2		12	2.0	2.5	/experiments/AOT/AOT_stimuli/rescaled_final/0565_fw.mp4	0.0	85.3952009677887	0.10008692741394043
5	64.04963493347168	fix_pre	0		120	3.0	2.5	/experiments/AOT/AOT_stimuli/rescaled_final/0337_fw.mp4	0.0	85.49528789520264	0.9999220371246338
5	65.04955697059631	movie	1		243	3.0	2.5	/experiments/AOT/AOT_stimuli/rescaled_final/0337_fw.mp4	0.0	86.49520993232727	2.4996070861816406
5	65.43270802497864	pulse	1	t		3.0	2.5	/experiments/AOT/AOT_stimuli/rescaled_final/0337_fw.mp4	0.0	86.8783609867096	
5	67.033038854599	pulse	1	t		3.0	2.5	/experiments/AOT/AOT_stimuli/rescaled_final/0337_fw.mp4	0.0	88.47869181632996	
5	67.54916405677795	fix_post	2		12	3.0	2.5	/experiments/AOT/AOT_stimuli/rescaled_final/0337_fw.mp4	0.0	88.99481701850891	0.10001683235168457
6	67.64918088912964	fix_pre	0		119	4.0	2.5	/experiments/AOT/AOT_stimuli/rescaled_final/1655_fw.mp4	0.0	89.0948338508606	0.9920690059661865
6	68.63310694694519	pulse	0	t		4.0	2.5	/experiments/AOT/AOT_stimuli/rescaled_final/1655_fw.mp4	0.0	90.07875990867615	
6	68.64124989509583	movie	1		244	4.0	2.5	/experiments/AOT/AOT_stimuli/rescaled_final/1655_fw.mp4	0.0	90.08690285682678	2.50799298286438
6	70.23285007476807	pulse	1	t		4.0	2.5	/experiments/AOT/AOT_stimuli/rescaled_final/1655_fw.mp4	0.0	91.67850303649902	
6	71.1492428779602	fix_post	2		12	4.0	2.5	/experiments/AOT/AOT_stimuli/rescaled_final/1655_fw.mp4	0.0	92.59489583969116	0.10036516189575195
7	71.24960803985596	fix_pre	0		120	5.0	2.5	blank	1.0	92.69526100158691	1.0000510215759277
7	71.83310389518738	pulse	0	t		5.0	2.5	blank	1.0	93.27875685691833	
7	72.24965906143188	movie	1		300	5.0	2.5	blank	1.0	93.69531202316284	2.499600887298584
7	73.43264293670654	pulse	1	t		5.0	2.5	blank	1.0	94.8782958984375	
7	74.74925994873047	fix_post	2		12	5.0	2.5	blank	1.0	96.19491291046143	0.09991693496704102
8	74.84917688369751	fix_pre	0		120	6.0	2.5	/experiments/AOT/AOT_stimuli/rescaled_final/0474_fw.mp4	0.0	96.29482984542847	1.0006041526794434
8	75.03322100639343	pulse	0	t		6.0	2.5	/experiments/AOT/AOT_stimuli/rescaled_final/0474_fw.mp4	0.0	96.47887396812439	
8	75.84978103637695	movie	1		244	6.0	2.5	/experiments/AOT/AOT_stimuli/rescaled_final/0474_fw.mp4	0.0	97.29543399810791	2.499763011932373
8	76.63293385505676	pulse	1	t		6.0	2.5	/experiments/AOT/AOT_stimuli/rescaled_final/0474_fw.mp4	0.0	98.07858681678772	
8	78.23182606697083	pulse	1	t		6.0	2.5	/experiments/AOT/AOT_stimuli/rescaled_final/0474_fw.mp4	0.0	99.67747902870178	
8	78.34954404830933	fix_post	2		12	6.0	2.5	/experiments/AOT/AOT_stimuli/rescaled_final/0474_fw.mp4	0.0	99.79519701004028	0.10000300407409668
9	78.44954705238342	fix_pre	0		120	7.0	2.5	/experiments/AOT/AOT_stimuli/rescaled_final/2033_fw.mp4	0.0	99.89520001411438	0.9995918273925781
9	79.449138879776	movie	1		246	7.0	2.5	/experiments/AOT/AOT_stimuli/rescaled_final/2033_fw.mp4	0.0	100.89479184150696	2.5003271102905273
9	79.83287596702576	pulse	1	t		7.0	2.5	/experiments/AOT/AOT_stimuli/rescaled_final/2033_fw.mp4	0.0	101.27852892875671	
9	81.4328989982605	pulse	1	t		7.0	2.5	/experiments/AOT/AOT_stimuli/rescaled_final/2033_fw.mp4	0.0	102.87855195999146	
9	81.94946599006653	fix_post	2		12	7.0	2.5	/experiments/AOT/AOT_stimuli/rescaled_final/2033_fw.mp4	0.0	103.39511895179749	0.0996699333190918
10	82.04913592338562	fix_pre	0		119	8.0	2.5	/experiments/AOT/AOT_stimuli/rescaled_final/1516_rv.mp4	0.0	103.49478888511658	0.9919581413269043
10	83.0329840183258	pulse	0	t		8.0	2.5	/experiments/AOT/AOT_stimuli/rescaled_final/1516_rv.mp4	0.0	104.47863698005676	
10	83.04109406471252	movie	1		247	8.0	2.5	/experiments/AOT/AOT_stimuli/rescaled_final/1516_rv.mp4	0.0	104.48674702644348	2.508384943008423
10	84.6324110031128	pulse	1	t		8.0	2.5	/experiments/AOT/AOT_stimuli/rescaled_final/1516_rv.mp4	0.0	106.07806396484375	
10	85.54947900772095	fix_post	2		12	8.0	2.5	/experiments/AOT/AOT_stimuli/rescaled_final/1516_rv.mp4	0.0	106.9951319694519	0.09966683387756348
11	85.64914584159851	fix_pre	0		120	9.0	2.5	/experiments/AOT/AOT_stimuli/rescaled_final/0449_rv.mp4	0.0	107.09479880332947	1.0002541542053223
11	86.23291301727295	pulse	0	t		9.0	2.5	/experiments/AOT/AOT_stimuli/rescaled_final/0449_rv.mp4	0.0	107.6785659790039	
11	86.64939999580383	movie	1		245	9.0	2.5	/experiments/AOT/AOT_stimuli/rescaled_final/0449_rv.mp4	0.0	108.09505295753479	2.5000550746917725
11	87.83306002616882	pulse	1	t		9.0	2.5	/experiments/AOT/AOT_stimuli/rescaled_final/0449_rv.mp4	0.0	109.27871298789978	
11	89.1494550704956	fix_post	2		12	9.0	2.5	/experiments/AOT/AOT_stimuli/rescaled_final/0449_rv.mp4	0.0	110.59510803222656	0.10000085830688477
12	89.24945592880249	fix_pre	0		120	10.0	2.5	/experiments/AOT/AOT_stimuli/rescaled_final/1100_rv.mp4	0.0	110.69510889053345	1.0000300407409668
12	89.43294596672058	pulse	0	t		10.0	2.5	/experiments/AOT/AOT_stimuli/rescaled_final/1100_rv.mp4	0.0	110.87859892845154	
12	90.24948596954346	movie	1		244	10.0	2.5	/experiments/AOT/AOT_stimuli/rescaled_final/1100_rv.mp4	0.0	111.69513893127441	2.49950909614563
12	91.03302788734436	pulse	1	t		10.0	2.5	/experiments/AOT/AOT_stimuli/rescaled_final/1100_rv.mp4	0.0	112.47868084907532	
12	92.63133192062378	pulse	1	t		10.0	2.5	/experiments/AOT/AOT_stimuli/rescaled_final/1100_rv.mp4	0.0	114.07698488235474	
12	92.74899506568909	fix_post	2		12	10.0	2.5	/experiments/AOT/AOT_stimuli/rescaled_final/1100_rv.mp4	0.0	114.19464802742004	0.10041284561157227
13	92.84940791130066	fix_pre	0		120	11.0	2.5	/experiments/AOT/AOT_stimuli/rescaled_final/0551_fw.mp4	0.0	114.29506087303162	1.0000059604644775
13	93.84941387176514	movie	1		243	11.0	2.5	/experiments/AOT/AOT_stimuli/rescaled_final/0551_fw.mp4	0.0	115.2950668334961	2.5000720024108887
13	94.23421001434326	pulse	1	t		11.0	2.5	/experiments/AOT/AOT_stimuli/rescaled_final/0551_fw.mp4	0.0	115.67986297607422	
13	95.83296990394592	pulse	1	t		11.0	2.5	/experiments/AOT/AOT_stimuli/rescaled_final/0551_fw.mp4	0.0	117.27862286567688	
13	96.34948587417603	fix_post	2		12	11.0	2.5	/experiments/AOT/AOT_stimuli/rescaled_final/0551_fw.mp4	0.0	117.79513883590698	0.09996199607849121
14	96.44944787025452	fix_pre	0		119	12.0	2.5	/experiments/AOT/AOT_stimuli/rescaled_final/1136_fw.mp4	0.0	117.89510083198547	0.9915881156921387
14	97.4329948425293	pulse	0	t		12.0	2.5	/experiments/AOT/AOT_stimuli/rescaled_final/1136_fw.mp4	0.0	118.87864780426025	
14	97.44103598594666	movie	1		245	12.0	2.5	/experiments/AOT/AOT_stimuli/rescaled_final/1136_fw.mp4	0.0	118.88668894767761	2.50846004486084
14	99.03251886367798	pulse	1	t		12.0	2.5	/experiments/AOT/AOT_stimuli/rescaled_final/1136_fw.mp4	0.0	120.47817182540894	
14	99.9494960308075	fix_post	2		12	12.0	2.5	/experiments/AOT/AOT_stimuli/rescaled_final/1136_fw.mp4	0.0	121.39514899253845	0.09993100166320801
15	100.0494270324707	fix_pre	0		120	13.0	2.5	/experiments/AOT/AOT_stimuli/rescaled_final/2118_fw.mp4	0.0	121.49507999420166	1.0000009536743164
15	100.63298201560974	pulse	0	t		13.0	2.5	/experiments/AOT/AOT_stimuli/rescaled_final/2118_fw.mp4	0.0	122.0786349773407	
15	101.04942798614502	movie	1		245	13.0	2.5	/experiments/AOT/AOT_stimuli/rescaled_final/2118_fw.mp4	0.0	122.49508094787598	2.4999449253082275
15	102.23299503326416	pulse	1	t		13.0	2.5	/experiments/AOT/AOT_stimuli/rescaled_final/2118_fw.mp4	0.0	123.67864799499512	
15	103.54937291145325	fix_post	2		12	13.0	2.5	/experiments/AOT/AOT_stimuli/rescaled_final/2118_fw.mp4	0.0	124.9950258731842	0.1000521183013916
16	103.64942502975464	fix_pre	0		120	14.0	2.5	blank	1.0	125.0950779914856	1.0000038146972656
16	103.83296990394592	pulse	0	t		14.0	2.5	blank	1.0	125.27862286567688	
16	104.6494288444519	movie	1		300	14.0	2.5	blank	1.0	126.09508180618286	2.499556064605713
16	105.43289804458618	pulse	1	t		14.0	2.5	blank	1.0	126.87855100631714	
16	107.03289985656738	pulse	1	t		14.0	2.5	blank	1.0	128.47855281829834	
16	107.14898490905762	fix_post	2		12	14.0	2.5	blank	1.0	128.59463787078857	0.10035014152526855
17	107.24933505058289	fix_pre	0		120	15.0	2.5	/experiments/AOT/AOT_stimuli/rescaled_final/1546_fw.mp4	0.0	128.69498801231384	0.9999918937683105
17	108.2493269443512	movie	1		244	15.0	2.5	/experiments/AOT/AOT_stimuli/rescaled_final/1546_fw.mp4	0.0	129.69497990608215	2.5001769065856934
17	108.63323593139648	pulse	1	t		15.0	2.5	/experiments/AOT/AOT_stimuli/rescaled_final/1546_fw.mp4	0.0	130.07888889312744	
17	110.23284697532654	pulse	1	t		15.0	2.5	/experiments/AOT/AOT_stimuli/rescaled_final/1546_fw.mp4	0.0	131.6784999370575	
17	110.74950385093689	fix_post	2		12	15.0	2.5	/experiments/AOT/AOT_stimuli/rescaled_final/1546_fw.mp4	0.0	132.19515681266785	0.0998680591583252
18	110.84937191009521	fix_pre	0		119	16.0	2.5	/experiments/AOT/AOT_stimuli/rescaled_final/1610_fw.mp4	0.0	132.29502487182617	0.9916541576385498
18	111.83285689353943	pulse	0	t		16.0	2.5	/experiments/AOT/AOT_stimuli/rescaled_final/1610_fw.mp4	0.0	133.27850985527039	
18	111.84102606773376	movie	1		244	16.0	2.5	/experiments/AOT/AOT_stimuli/rescaled_final/1610_fw.mp4	0.0	133.28667902946472	2.508349895477295
18	113.43236303329468	pulse	1	t		16.0	2.5	/experiments/AOT/AOT_stimuli/rescaled_final/1610_fw.mp4	0.0	134.87801599502563	
18	114.34937596321106	fix_post	2		12	16.0	2.5	/experiments/AOT/AOT_stimuli/rescaled_final/1610_fw.mp4	0.0	135.79502892494202	0.10001897811889648
19	114.44939494132996	fix_pre	0		120	17.0	2.5	/experiments/AOT/AOT_stimuli/rescaled_final/1529_fw.mp4	0.0	135.8950479030609	1.0000081062316895
19	115.03287196159363	pulse	0	t		17.0	2.5	/experiments/AOT/AOT_stimuli/rescaled_final/1529_fw.mp4	0.0	136.47852492332458	
19	115.44940304756165	movie	1		243	17.0	2.5	/experiments/AOT/AOT_stimuli/rescaled_final/1529_fw.mp4	0.0	136.8950560092926	2.4995248317718506
19	116.63293504714966	pulse	1	t		17.0	2.5	/experiments/AOT/AOT_stimuli/rescaled_final/1529_fw.mp4	0.0	138.07858800888062	
19	117.9489278793335	fix_post	2		12	17.0	2.5	/experiments/AOT/AOT_stimuli/rescaled_final/1529_fw.mp4	0.0	139.39458084106445	0.10039710998535156
20	118.04932498931885	fix_pre	0		120	18.0	2.5	/experiments/AOT/AOT_stimuli/rescaled_final/1320_fw.mp4	0.0	139.4949779510498	1.000079870223999
20	118.2327790260315	pulse	0	t		18.0	2.5	/experiments/AOT/AOT_stimuli/rescaled_final/1320_fw.mp4	0.0	139.67843198776245	
20	119.04940485954285	movie	1		244	18.0	2.5	/experiments/AOT/AOT_stimuli/rescaled_final/1320_fw.mp4	0.0	140.4950578212738	2.499925136566162
20	119.83298993110657	pulse	1	t		18.0	2.5	/experiments/AOT/AOT_stimuli/rescaled_final/1320_fw.mp4	0.0	141.27864289283752	
20	121.43161606788635	pulse	1	t		18.0	2.5	/experiments/AOT/AOT_stimuli/rescaled_final/1320_fw.mp4	0.0	142.8772690296173	
20	121.54932999610901	fix_post	2		12	18.0	2.5	/experiments/AOT/AOT_stimuli/rescaled_final/1320_fw.mp4	0.0	142.99498295783997	0.10003185272216797
21	121.64936184883118	fix_pre	0		120	19.0	2.5	blank	1.0	143.09501481056213	0.9999141693115234
21	122.6492760181427	movie	1		300	19.0	2.5	blank	1.0	144.09492897987366	2.5000159740448
21	123.03280806541443	pulse	1	t		19.0	2.5	blank	1.0	144.47846102714539	
21	124.6328330039978	pulse	1	t		19.0	2.5	blank	1.0	146.07848596572876	
21	125.1492919921875	fix_post	2		12	19.0	2.5	blank	1.0	146.59494495391846	0.09999489784240723
22	125.24928689002991	fix_pre	0		119	20.0	2.5	/experiments/AOT/AOT_stimuli/rescaled_final/1470_fw.mp4	0.0	146.69493985176086	0.9916951656341553
22	126.23298597335815	pulse	0	t		20.0	2.5	/experiments/AOT/AOT_stimuli/rescaled_final/1470_fw.mp4	0.0	147.6786389350891	
22	126.24098205566406	movie	1		245	20.0	2.5	/experiments/AOT/AOT_stimuli/rescaled_final/1470_fw.mp4	0.0	147.68663501739502	2.5083608627319336
22	127.83412885665894	pulse	1	t		20.0	2.5	/experiments/AOT/AOT_stimuli/rescaled_final/1470_fw.mp4	0.0	149.2797818183899	
22	128.749342918396	fix_post	2		12	20.0	2.5	/experiments/AOT/AOT_stimuli/rescaled_final/1470_fw.mp4	0.0	150.19499588012695	0.10003113746643066
23	128.84937405586243	fix_pre	0		120	21.0	2.5	/experiments/AOT/AOT_stimuli/rescaled_final/0849_rv.mp4	0.0	150.29502701759338	0.9999258518218994
23	129.43237495422363	pulse	0	t		21.0	2.5	/experiments/AOT/AOT_stimuli/rescaled_final/0849_rv.mp4	0.0	150.8780279159546	
23	129.84929990768433	movie	1		245	21.0	2.5	/experiments/AOT/AOT_stimuli/rescaled_final/0849_rv.mp4	0.0	151.29495286941528	2.500349998474121
23	131.0330250263214	pulse	1	t		21.0	2.5	/experiments/AOT/AOT_stimuli/rescaled_final/0849_rv.mp4	0.0	152.47867798805237	
23	132.34964990615845	fix_post	2		12	21.0	2.5	/experiments/AOT/AOT_stimuli/rescaled_final/0849_rv.mp4	0.0	153.7953028678894	0.09952998161315918
24	132.4491798877716	fix_pre	0		120	22.0	2.5	/experiments/AOT/AOT_stimuli/rescaled_final/0843_rv.mp4	0.0	153.89483284950256	1.0001840591430664
24	132.63274097442627	pulse	0	t		22.0	2.5	/experiments/AOT/AOT_stimuli/rescaled_final/0843_rv.mp4	0.0	154.07839393615723	
24	133.44936394691467	movie	1		246	22.0	2.5	/experiments/AOT/AOT_stimuli/rescaled_final/0843_rv.mp4	0.0	154.89501690864563	2.4998929500579834
24	134.23271489143372	pulse	1	t		22.0	2.5	/experiments/AOT/AOT_stimuli/rescaled_final/0843_rv.mp4	0.0	155.67836785316467	
24	135.83134984970093	pulse	1	t		22.0	2.5	/experiments/AOT/AOT_stimuli/rescaled_final/0843_rv.mp4	0.0	157.27700281143188	
24	135.94925689697266	fix_post	2		12	22.0	2.5	/experiments/AOT/AOT_stimuli/rescaled_final/0843_rv.mp4	0.0	157.3949098587036	0.10000300407409668
25	136.04925990104675	fix_pre	0		120	23.0	2.5	/experiments/AOT/AOT_stimuli/rescaled_final/1428_rv.mp4	0.0	157.4949128627777	0.9999990463256836
25	137.04925894737244	movie	1		250	23.0	2.5	/experiments/AOT/AOT_stimuli/rescaled_final/1428_rv.mp4	0.0	158.4949119091034	2.4995760917663574
25	137.43224692344666	pulse	1	t		23.0	2.5	/experiments/AOT/AOT_stimuli/rescaled_final/1428_rv.mp4	0.0	158.8778998851776	
25	139.03271889686584	pulse	1	t		23.0	2.5	/experiments/AOT/AOT_stimuli/rescaled_final/1428_rv.mp4	0.0	160.4783718585968	
25	139.5488350391388	fix_post	2		12	23.0	2.5	/experiments/AOT/AOT_stimuli/rescaled_final/1428_rv.mp4	0.0	160.99448800086975	0.10034489631652832
26	139.64917993545532	fix_pre	0		119	24.0	2.5	/experiments/AOT/AOT_stimuli/rescaled_final/0971_fw.mp4	0.0	161.09483289718628	0.9917409420013428
26	140.6327109336853	pulse	0	t		24.0	2.5	/experiments/AOT/AOT_stimuli/rescaled_final/0971_fw.mp4	0.0	162.07836389541626	
26	140.64092087745667	movie	1		246	24.0	2.5	/experiments/AOT/AOT_stimuli/rescaled_final/0971_fw.mp4	0.0	162.08657383918762	2.5082740783691406
26	142.2321720123291	pulse	1	t		24.0	2.5	/experiments/AOT/AOT_stimuli/rescaled_final/0971_fw.mp4	0.0	163.67782497406006	
26	143.1491949558258	fix_post	2		12	24.0	2.5	/experiments/AOT/AOT_stimuli/rescaled_final/0971_fw.mp4	0.0	164.59484791755676	0.10001802444458008
27	143.24921298027039	fix_pre	0		120	25.0	2.5	/experiments/AOT/AOT_stimuli/rescaled_final/1319_fw.mp4	0.0	164.69486594200134	0.9999909400939941
27	143.83274602890015	pulse	0	t		25.0	2.5	/experiments/AOT/AOT_stimuli/rescaled_final/1319_fw.mp4	0.0	165.2783989906311	
27	144.24920392036438	movie	1		246	25.0	2.5	/experiments/AOT/AOT_stimuli/rescaled_final/1319_fw.mp4	0.0	165.69485688209534	2.499988079071045
27	145.43278193473816	pulse	1	t		25.0	2.5	/experiments/AOT/AOT_stimuli/rescaled_final/1319_fw.mp4	0.0	166.87843489646912	
27	146.74919199943542	fix_post	2		12	25.0	2.5	/experiments/AOT/AOT_stimuli/rescaled_final/1319_fw.mp4	0.0	168.19484496116638	0.09996795654296875
28	146.8491599559784	fix_pre	0		120	26.0	2.5	/experiments/AOT/AOT_stimuli/rescaled_final/0914_rv.mp4	0.0	168.29481291770935	1.0000810623168945
28	147.0327169895172	pulse	0	t		26.0	2.5	/experiments/AOT/AOT_stimuli/rescaled_final/0914_rv.mp4	0.0	168.47836995124817	
28	147.8492410182953	movie	1		246	26.0	2.5	/experiments/AOT/AOT_stimuli/rescaled_final/0914_rv.mp4	0.0	169.29489398002625	2.499901056289673
28	148.63274788856506	pulse	1	t		26.0	2.5	/experiments/AOT/AOT_stimuli/rescaled_final/0914_rv.mp4	0.0	170.07840085029602	
28	150.2322690486908	pulse	1	t		26.0	2.5	/experiments/AOT/AOT_stimuli/rescaled_final/0914_rv.mp4	0.0	171.67792201042175	
28	150.34914207458496	fix_post	2		12	26.0	2.5	/experiments/AOT/AOT_stimuli/rescaled_final/0914_rv.mp4	0.0	171.79479503631592	0.1000509262084961
29	150.44919300079346	fix_pre	0		120	27.0	2.5	blank	1.0	171.8948459625244	0.9999489784240723
29	151.44914197921753	movie	1		300	27.0	2.5	blank	1.0	172.8947949409485	2.5000078678131104
29	151.83267307281494	pulse	1	t		27.0	2.5	blank	1.0	173.2783260345459	
29	153.432687997818	pulse	1	t		27.0	2.5	blank	1.0	174.87834095954895	
29	153.94914984703064	fix_post	2		12	27.0	2.5	blank	1.0	175.3948028087616	0.10007500648498535
30	154.04922485351562	fix_pre	0		119	28.0	2.5	/experiments/AOT/AOT_stimuli/rescaled_final/0043_fw.mp4	0.0	175.49487781524658	0.9915561676025391
30	155.03268003463745	pulse	0	t		28.0	2.5	/experiments/AOT/AOT_stimuli/rescaled_final/0043_fw.mp4	0.0	176.4783329963684	
30	155.04078102111816	movie	1		247	28.0	2.5	/experiments/AOT/AOT_stimuli/rescaled_final/0043_fw.mp4	0.0	176.48643398284912	2.5079588890075684
30	156.63205289840698	pulse	1	t		28.0	2.5	/experiments/AOT/AOT_stimuli/rescaled_final/0043_fw.mp4	0.0	178.07770586013794	
30	157.54873991012573	fix_post	2		12	28.0	2.5	/experiments/AOT/AOT_stimuli/rescaled_final/0043_fw.mp4	0.0	178.9943928718567	0.10047316551208496
31	157.64921307563782	fix_pre	0		120	29.0	2.5	/experiments/AOT/AOT_stimuli/rescaled_final/1076_rv.mp4	0.0	179.09486603736877	0.9995198249816895
31	158.23261499404907	pulse	0	t		29.0	2.5	/experiments/AOT/AOT_stimuli/rescaled_final/1076_rv.mp4	0.0	179.67826795578003	
31	158.6487329006195	movie	1		244	29.0	2.5	/experiments/AOT/AOT_stimuli/rescaled_final/1076_rv.mp4	0.0	180.09438586235046	2.5003819465637207
31	159.83268284797668	pulse	1	t		29.0	2.5	/experiments/AOT/AOT_stimuli/rescaled_final/1076_rv.mp4	0.0	181.27833580970764	
31	161.14911484718323	fix_post	2		12	29.0	2.5	/experiments/AOT/AOT_stimuli/rescaled_final/1076_rv.mp4	0.0	182.59476780891418	0.10000801086425781
32	161.24912285804749	fix_pre	0		120	30.0	2.5	/experiments/AOT/AOT_stimuli/rescaled_final/1809_fw.mp4	0.0	182.69477581977844	0.9999821186065674
32	161.43264198303223	pulse	0	t		30.0	2.5	/experiments/AOT/AOT_stimuli/rescaled_final/1809_fw.mp4	0.0	182.87829494476318	
32	162.24910497665405	movie	1		243	30.0	2.5	/experiments/AOT/AOT_stimuli/rescaled_final/1809_fw.mp4	0.0	183.694757938385	2.4999918937683105
32	163.0326099395752	pulse	1	t		30.0	2.5	/experiments/AOT/AOT_stimuli/rescaled_final/1809_fw.mp4	0.0	184.47826290130615	
32	164.63107085227966	pulse	1	t		30.0	2.5	/experiments/AOT/AOT_stimuli/rescaled_final/1809_fw.mp4	0.0	186.07672381401062	
32	164.74909687042236	fix_post	2		12	30.0	2.5	/experiments/AOT/AOT_stimuli/rescaled_final/1809_fw.mp4	0.0	186.19474983215332	0.0999441146850586
33	164.84904098510742	fix_pre	0		120	31.0	2.5	/experiments/AOT/AOT_stimuli/rescaled_final/1523_rv.mp4	0.0	186.29469394683838	1.0000910758972168
33	165.84913206100464	movie	1		243	31.0	2.5	/experiments/AOT/AOT_stimuli/rescaled_final/1523_rv.mp4	0.0	187.2947850227356	2.4996469020843506
33	166.23217391967773	pulse	1	t		31.0	2.5	/experiments/AOT/AOT_stimuli/rescaled_final/1523_rv.mp4	0.0	187.6778268814087	
33	167.83269500732422	pulse	1	t		31.0	2.5	/experiments/AOT/AOT_stimuli/rescaled_final/1523_rv.mp4	0.0	189.27834796905518	
33	168.348778963089	fix_post	2		12	31.0	2.5	/experiments/AOT/AOT_stimuli/rescaled_final/1523_rv.mp4	0.0	189.79443192481995	0.10041689872741699
34	168.4491958618164	fix_pre	0		119	32.0	2.5	/experiments/AOT/AOT_stimuli/rescaled_final/0157_fw.mp4	0.0	189.89484882354736	0.9915540218353271
34	169.4325659275055	pulse	0	t		32.0	2.5	/experiments/AOT/AOT_stimuli/rescaled_final/0157_fw.mp4	0.0	190.87821888923645	
34	169.44074988365173	movie	1		244	32.0	2.5	/experiments/AOT/AOT_stimuli/rescaled_final/0157_fw.mp4	0.0	190.8864028453827	2.508355140686035
34	171.03220295906067	pulse	1	t		32.0	2.5	/experiments/AOT/AOT_stimuli/rescaled_final/0157_fw.mp4	0.0	192.47785592079163	
34	171.94910502433777	fix_post	2		12	32.0	2.5	/experiments/AOT/AOT_stimuli/rescaled_final/0157_fw.mp4	0.0	193.39475798606873	0.09993290901184082
35	172.0490379333496	fix_pre	0		120	33.0	2.5	blank	1.0	193.49469089508057	1.0000340938568115
35	172.63260793685913	pulse	0	t		33.0	2.5	blank	1.0	194.0782608985901	
35	173.04907202720642	movie	1		300	33.0	2.5	blank	1.0	194.49472498893738	2.500006914138794
35	174.2326099872589	pulse	1	t		33.0	2.5	blank	1.0	195.67826294898987	
35	175.54907894134521	fix_post	2		12	33.0	2.5	blank	1.0	196.99473190307617	0.10003209114074707
36	175.64911103248596	fix_pre	0		120	34.0	2.5	/experiments/AOT/AOT_stimuli/rescaled_final/1531_fw.mp4	0.0	197.09476399421692	0.9998989105224609
36	175.8326539993286	pulse	0	t		34.0	2.5	/experiments/AOT/AOT_stimuli/rescaled_final/1531_fw.mp4	0.0	197.27830696105957	
36	176.64900994300842	movie	1		245	34.0	2.5	/experiments/AOT/AOT_stimuli/rescaled_final/1531_fw.mp4	0.0	198.09466290473938	2.500108003616333
36	177.43266487121582	pulse	1	t		34.0	2.5	/experiments/AOT/AOT_stimuli/rescaled_final/1531_fw.mp4	0.0	198.87831783294678	
36	179.03111100196838	pulse	1	t		34.0	2.5	/experiments/AOT/AOT_stimuli/rescaled_final/1531_fw.mp4	0.0	200.47676396369934	
36	179.14911794662476	fix_post	2		12	34.0	2.5	/experiments/AOT/AOT_stimuli/rescaled_final/1531_fw.mp4	0.0	200.5947709083557	0.09994292259216309
37	179.24906086921692	fix_pre	0		120	35.0	2.5	/experiments/AOT/AOT_stimuli/rescaled_final/0135_fw.mp4	0.0	200.69471383094788	1.00006103515625
37	180.24912190437317	movie	1		243	35.0	2.5	/experiments/AOT/AOT_stimuli/rescaled_final/0135_fw.mp4	0.0	201.69477486610413	2.4999711513519287
37	180.63220500946045	pulse	1	t		35.0	2.5	/experiments/AOT/AOT_stimuli/rescaled_final/0135_fw.mp4	0.0	202.0778579711914	
37	182.2324378490448	pulse	1	t		35.0	2.5	/experiments/AOT/AOT_stimuli/rescaled_final/0135_fw.mp4	0.0	203.67809081077576	
37	182.7490930557251	fix_post	2		12	35.0	2.5	/experiments/AOT/AOT_stimuli/rescaled_final/0135_fw.mp4	0.0	204.19474601745605	0.10001397132873535
38	182.84910702705383	fix_pre	0		119	36.0	2.5	/experiments/AOT/AOT_stimuli/rescaled_final/1843_fw.mp4	0.0	204.2947599887848	0.9916548728942871
38	183.8324840068817	pulse	0	t		36.0	2.5	/experiments/AOT/AOT_stimuli/rescaled_final/1843_fw.mp4	0.0	205.27813696861267	
38	183.84076189994812	movie	1		245	36.0	2.5	/experiments/AOT/AOT_stimuli/rescaled_final/1843_fw.mp4	0.0	205.28641486167908	2.5079970359802246
38	185.43164706230164	pulse	1	t		36.0	2.5	/experiments/AOT/AOT_stimuli/rescaled_final/1843_fw.mp4	0.0	206.8773000240326	
38	186.34875893592834	fix_post	2		12	36.0	2.5	/experiments/AOT/AOT_stimuli/rescaled_final/1843_fw.mp4	0.0	207.7944118976593	0.10041999816894531
39	186.4491789340973	fix_pre	0		120	37.0	2.5	/experiments/AOT/AOT_stimuli/rescaled_final/1911_fw.mp4	0.0	207.89483189582825	0.9996950626373291
39	187.03225994110107	pulse	0	t		37.0	2.5	/experiments/AOT/AOT_stimuli/rescaled_final/1911_fw.mp4	0.0	208.47791290283203	
39	187.44887399673462	movie	1		243	37.0	2.5	/experiments/AOT/AOT_stimuli/rescaled_final/1911_fw.mp4	0.0	208.89452695846558	2.5001559257507324
39	188.63262796401978	pulse	1	t		37.0	2.5	/experiments/AOT/AOT_stimuli/rescaled_final/1911_fw.mp4	0.0	210.07828092575073	
39	189.94902992248535	fix_post	2		12	37.0	2.5	/experiments/AOT/AOT_stimuli/rescaled_final/1911_fw.mp4	0.0	211.3946828842163	0.0999901294708252
40	190.04902005195618	fix_pre	0		120	38.0	2.5	/experiments/AOT/AOT_stimuli/rescaled_final/1624_fw.mp4	0.0	211.49467301368713	1.000046968460083
40	190.23247599601746	pulse	0	t		38.0	2.5	/experiments/AOT/AOT_stimuli/rescaled_final/1624_fw.mp4	0.0	211.6781289577484	
40	191.04906702041626	movie	1		244	38.0	2.5	/experiments/AOT/AOT_stimuli/rescaled_final/1624_fw.mp4	0.0	212.49471998214722	2.4995038509368896
40	191.83248090744019	pulse	1	t		38.0	2.5	/experiments/AOT/AOT_stimuli/rescaled_final/1624_fw.mp4	0.0	213.27813386917114	
40	193.4309868812561	pulse	1	t		38.0	2.5	/experiments/AOT/AOT_stimuli/rescaled_final/1624_fw.mp4	0.0	214.87663984298706	
40	193.54857087135315	fix_post	2		12	38.0	2.5	/experiments/AOT/AOT_stimuli/rescaled_final/1624_fw.mp4	0.0	214.9942238330841	0.10041618347167969
41	193.64898705482483	fix_pre	0		120	39.0	2.5	/experiments/AOT/AOT_stimuli/rescaled_final/1941_rv.mp4	0.0	215.0946400165558	0.9999728202819824
41	194.6489598751068	movie	1		245	39.0	2.5	/experiments/AOT/AOT_stimuli/rescaled_final/1941_rv.mp4	0.0	216.09461283683777	2.4995710849761963
41	195.0317690372467	pulse	1	t		39.0	2.5	/experiments/AOT/AOT_stimuli/rescaled_final/1941_rv.mp4	0.0	216.47742199897766	
41	196.63242888450623	pulse	1	t		39.0	2.5	/experiments/AOT/AOT_stimuli/rescaled_final/1941_rv.mp4	0.0	218.07808184623718	
41	197.148530960083	fix_post	2		12	39.0	2.5	/experiments/AOT/AOT_stimuli/rescaled_final/1941_rv.mp4	0.0	218.59418392181396	0.10040998458862305
42	197.24894094467163	fix_pre	0		119	40.0	2.5	/experiments/AOT/AOT_stimuli/rescaled_final/0808_rv.mp4	0.0	218.6945939064026	0.9917221069335938
42	198.23235297203064	pulse	0	t		40.0	2.5	/experiments/AOT/AOT_stimuli/rescaled_final/0808_rv.mp4	0.0	219.6780059337616	
42	198.24066305160522	movie	1		247	40.0	2.5	/experiments/AOT/AOT_stimuli/rescaled_final/0808_rv.mp4	0.0	219.68631601333618	2.5078999996185303
42	199.8320279121399	pulse	1	t		40.0	2.5	/experiments/AOT/AOT_stimuli/rescaled_final/0808_rv.mp4	0.0	221.27768087387085	
42	200.74856305122375	fix_post	2		12	40.0	2.5	/experiments/AOT/AOT_stimuli/rescaled_final/0808_rv.mp4	0.0	222.1942160129547	0.10039901733398438
43	200.84896206855774	fix_pre	0		120	41.0	2.5	/experiments/AOT/AOT_stimuli/rescaled_final/0549_fw.mp4	0.0	222.2946150302887	1.0000758171081543
43	201.43242001533508	pulse	0	t		41.0	2.5	/experiments/AOT/AOT_stimuli/rescaled_final/0549_fw.mp4	0.0	222.87807297706604	
43	201.8490378856659	movie	1		244	41.0	2.5	/experiments/AOT/AOT_stimuli/rescaled_final/0549_fw.mp4	0.0	223.29469084739685	2.499974012374878
43	203.03248500823975	pulse	1	t		41.0	2.5	/experiments/AOT/AOT_stimuli/rescaled_final/0549_fw.mp4	0.0	224.4781379699707	
43	204.34901189804077	fix_post	2		12	41.0	2.5	/experiments/AOT/AOT_stimuli/rescaled_final/0549_fw.mp4	0.0	225.79466485977173	0.09993314743041992
44	204.4489450454712	fix_pre	0		120	42.0	2.5	blank	1.0	225.89459800720215	1.00003981590271
44	204.6324439048767	pulse	0	t		42.0	2.5	blank	1.0	226.07809686660767	
44	205.4489848613739	movie	1		300	42.0	2.5	blank	1.0	226.89463782310486	2.5001041889190674
44	206.23235702514648	pulse	1	t		42.0	2.5	blank	1.0	227.67800998687744	
44	207.8323359489441	pulse	1	t		42.0	2.5	blank	1.0	229.27798891067505	
44	207.94908905029297	fix_post	2		12	42.0	2.5	blank	1.0	229.39474201202393	0.09984493255615234
45	208.04893398284912	fix_pre	0		120	43.0	2.5	/experiments/AOT/AOT_stimuli/rescaled_final/0830_rv.mp4	0.0	229.49458694458008	1.0000450611114502
45	209.04897904396057	movie	1		244	43.0	2.5	/experiments/AOT/AOT_stimuli/rescaled_final/0830_rv.mp4	0.0	230.49463200569153	2.499872922897339
45	209.4328579902649	pulse	1	t		43.0	2.5	/experiments/AOT/AOT_stimuli/rescaled_final/0830_rv.mp4	0.0	230.87851095199585	
45	211.03245186805725	pulse	1	t		43.0	2.5	/experiments/AOT/AOT_stimuli/rescaled_final/0830_rv.mp4	0.0	232.4781048297882	
45	211.5488519668579	fix_post	2		12	43.0	2.5	/experiments/AOT/AOT_stimuli/rescaled_final/0830_rv.mp4	0.0	232.99450492858887	0.10011696815490723
46	211.64896893501282	fix_pre	0		119	44.0	2.5	/experiments/AOT/AOT_stimuli/rescaled_final/1131_rv.mp4	0.0	233.09462189674377	0.991624116897583
46	212.63237595558167	pulse	0	t		44.0	2.5	/experiments/AOT/AOT_stimuli/rescaled_final/1131_rv.mp4	0.0	234.07802891731262	
46	212.6405930519104	movie	1		245	44.0	2.5	/experiments/AOT/AOT_stimuli/rescaled_final/1131_rv.mp4	0.0	234.08624601364136	2.508302927017212
46	214.23181986808777	pulse	1	t		44.0	2.5	/experiments/AOT/AOT_stimuli/rescaled_final/1131_rv.mp4	0.0	235.67747282981873	
46	215.1488959789276	fix_post	2		12	44.0	2.5	/experiments/AOT/AOT_stimuli/rescaled_final/1131_rv.mp4	0.0	236.59454894065857	0.09996891021728516
47	215.2488648891449	fix_pre	0		120	45.0	2.5	/experiments/AOT/AOT_stimuli/rescaled_final/0339_rv.mp4	0.0	236.69451785087585	1.0000090599060059
47	215.83235788345337	pulse	0	t		45.0	2.5	/experiments/AOT/AOT_stimuli/rescaled_final/0339_rv.mp4	0.0	237.27801084518433	
47	216.2488739490509	movie	1		246	45.0	2.5	/experiments/AOT/AOT_stimuli/rescaled_final/0339_rv.mp4	0.0	237.69452691078186	2.5000290870666504
47	217.43236899375916	pulse	1	t		45.0	2.5	/experiments/AOT/AOT_stimuli/rescaled_final/0339_rv.mp4	0.0	238.8780219554901	
47	218.74890303611755	fix_post	2		12	45.0	2.5	/experiments/AOT/AOT_stimuli/rescaled_final/0339_rv.mp4	0.0	240.1945559978485	0.10002589225769043
48	218.84892892837524	fix_pre	0		120	46.0	2.5	/experiments/AOT/AOT_stimuli/rescaled_final/1146_rv.mp4	0.0	240.2945818901062	0.9999971389770508
48	219.032320022583	pulse	0	t		46.0	2.5	/experiments/AOT/AOT_stimuli/rescaled_final/1146_rv.mp4	0.0	240.47797298431396	
48	219.8489260673523	movie	1		246	46.0	2.5	/experiments/AOT/AOT_stimuli/rescaled_final/1146_rv.mp4	0.0	241.29457902908325	2.4994609355926514
48	220.63249707221985	pulse	1	t		46.0	2.5	/experiments/AOT/AOT_stimuli/rescaled_final/1146_rv.mp4	0.0	242.0781500339508	
48	222.23077607154846	pulse	1	t		46.0	2.5	/experiments/AOT/AOT_stimuli/rescaled_final/1146_rv.mp4	0.0	243.67642903327942	
48	222.34838700294495	fix_post	2		12	46.0	2.5	/experiments/AOT/AOT_stimuli/rescaled_final/1146_rv.mp4	0.0	243.7940399646759	0.10041999816894531
49	222.4488070011139	fix_pre	0		120	47.0	2.5	/experiments/AOT/AOT_stimuli/rescaled_final/2033_fw.mp4	0.0	243.89445996284485	0.9995629787445068
49	223.4483699798584	movie	1		246	47.0	2.5	/experiments/AOT/AOT_stimuli/rescaled_final/2033_fw.mp4	0.0	244.89402294158936	2.5004820823669434
49	223.83192205429077	pulse	1	t		47.0	2.5	/experiments/AOT/AOT_stimuli/rescaled_final/2033_fw.mp4	0.0	245.27757501602173	
49	225.43227887153625	pulse	1	t		47.0	2.5	/experiments/AOT/AOT_stimuli/rescaled_final/2033_fw.mp4	0.0	246.8779318332672	
49	225.94885206222534	fix_post	2		12	47.0	2.5	/experiments/AOT/AOT_stimuli/rescaled_final/2033_fw.mp4	0.0	247.3945050239563	0.10000300407409668
50	226.04885506629944	fix_pre	0		119	48.0	2.5	/experiments/AOT/AOT_stimuli/rescaled_final/0496_fw.mp4	0.0	247.4945080280304	0.9915997982025146
50	227.03232502937317	pulse	0	t		48.0	2.5	/experiments/AOT/AOT_stimuli/rescaled_final/0496_fw.mp4	0.0	248.47797799110413	
50	227.04045486450195	movie	1		246	48.0	2.5	/experiments/AOT/AOT_stimuli/rescaled_final/0496_fw.mp4	0.0	248.4861078262329	2.5083069801330566
50	228.63310885429382	pulse	1	t		48.0	2.5	/experiments/AOT/AOT_stimuli/rescaled_final/0496_fw.mp4	0.0	250.07876181602478	
50	229.548761844635	fix_post	2		12	48.0	2.5	/experiments/AOT/AOT_stimuli/rescaled_final/0496_fw.mp4	0.0	250.99441480636597	0.10006022453308105
51	229.6488220691681	fix_pre	0		120	49.0	2.5	blank	1.0	251.09447503089905	1.0000288486480713
51	230.23224997520447	pulse	0	t		49.0	2.5	blank	1.0	251.67790293693542	
51	230.64885091781616	movie	1		300	49.0	2.5	blank	1.0	252.09450387954712	2.4999840259552
51	231.83240795135498	pulse	1	t		49.0	2.5	blank	1.0	253.27806091308594	
51	233.14883494377136	fix_post	2		12	49.0	2.5	blank	1.0	254.59448790550232	0.0999600887298584
52	233.24879503250122	fix_pre	0		120	50.0	2.5	/experiments/AOT/AOT_stimuli/rescaled_final/1624_fw.mp4	0.0	254.69444799423218	0.9999599456787109
52	233.43249201774597	pulse	0	t		50.0	2.5	/experiments/AOT/AOT_stimuli/rescaled_final/1624_fw.mp4	0.0	254.87814497947693	
52	234.24875497817993	movie	1		244	50.0	2.5	/experiments/AOT/AOT_stimuli/rescaled_final/1624_fw.mp4	0.0	255.6944079399109	2.5000159740448
52	235.03225302696228	pulse	1	t		50.0	2.5	/experiments/AOT/AOT_stimuli/rescaled_final/1624_fw.mp4	0.0	256.47790598869324	
52	236.630784034729	pulse	1	t		50.0	2.5	/experiments/AOT/AOT_stimuli/rescaled_final/1624_fw.mp4	0.0	258.07643699645996	
52	236.74877095222473	fix_post	2		12	50.0	2.5	/experiments/AOT/AOT_stimuli/rescaled_final/1624_fw.mp4	0.0	258.1944239139557	0.10008502006530762
53	236.84885597229004	fix_pre	0		120	51.0	2.5	/experiments/AOT/AOT_stimuli/rescaled_final/0162_rv.mp4	0.0	258.294508934021	0.9999849796295166
53	237.84884095191956	movie	1		244	51.0	2.5	/experiments/AOT/AOT_stimuli/rescaled_final/0162_rv.mp4	0.0	259.2944939136505	2.4999940395355225
53	238.231791973114	pulse	1	t		51.0	2.5	/experiments/AOT/AOT_stimuli/rescaled_final/0162_rv.mp4	0.0	259.67744493484497	
53	239.8321590423584	pulse	1	t		51.0	2.5	/experiments/AOT/AOT_stimuli/rescaled_final/0162_rv.mp4	0.0	261.27781200408936	
53	240.34883499145508	fix_post	2		12	51.0	2.5	/experiments/AOT/AOT_stimuli/rescaled_final/0162_rv.mp4	0.0	261.79448795318604	0.09998202323913574
54	240.4488170146942	fix_pre	0		119	52.0	2.5	/experiments/AOT/AOT_stimuli/rescaled_final/0879_fw.mp4	0.0	261.89446997642517	0.9912149906158447
54	241.43230199813843	pulse	0	t		52.0	2.5	/experiments/AOT/AOT_stimuli/rescaled_final/0879_fw.mp4	0.0	262.8779549598694	
54	241.44003200531006	movie	1		246	52.0	2.5	/experiments/AOT/AOT_stimuli/rescaled_final/0879_fw.mp4	0.0	262.885684967041	2.5086169242858887
54	243.03189992904663	pulse	1	t		52.0	2.5	/experiments/AOT/AOT_stimuli/rescaled_final/0879_fw.mp4	0.0	264.4775528907776	
54	243.94864892959595	fix_post	2		12	52.0	2.5	/experiments/AOT/AOT_stimuli/rescaled_final/0879_fw.mp4	0.0	265.3943018913269	0.10000491142272949
55	244.04865384101868	fix_pre	0		120	53.0	2.5	/experiments/AOT/AOT_stimuli/rescaled_final/0499_rv.mp4	0.0	265.49430680274963	1.0002021789550781
55	244.6322419643402	pulse	0	t		53.0	2.5	/experiments/AOT/AOT_stimuli/rescaled_final/0499_rv.mp4	0.0	266.07789492607117	
55	245.04885601997375	movie	1		246	53.0	2.5	/experiments/AOT/AOT_stimuli/rescaled_final/0499_rv.mp4	0.0	266.4945089817047	2.4999840259552
55	246.23230385780334	pulse	1	t		53.0	2.5	/experiments/AOT/AOT_stimuli/rescaled_final/0499_rv.mp4	0.0	267.6779568195343	
55	247.54884004592896	fix_post	2		12	53.0	2.5	/experiments/AOT/AOT_stimuli/rescaled_final/0499_rv.mp4	0.0	268.9944930076599	0.09990286827087402
56	247.64874291419983	fix_pre	0		120	54.0	2.5	blank	1.0	269.0943958759308	1.0000100135803223
56	247.83224606513977	pulse	0	t		54.0	2.5	blank	1.0	269.2778990268707	
56	248.64875292778015	movie	1		300	54.0	2.5	blank	1.0	270.0944058895111	2.499974012374878
56	249.4321460723877	pulse	1	t		54.0	2.5	blank	1.0	270.87779903411865	
56	251.03224205970764	pulse	1	t		54.0	2.5	blank	1.0	272.4778950214386	
56	251.14872694015503	fix_post	2		12	54.0	2.5	blank	1.0	272.594379901886	0.09960103034973145
57	251.24832797050476	fix_pre	0		120	55.0	2.5	/experiments/AOT/AOT_stimuli/rescaled_final/0145_fw.mp4	0.0	272.6939809322357	1.0004539489746094
57	252.24878191947937	movie	1		244	55.0	2.5	/experiments/AOT/AOT_stimuli/rescaled_final/0145_fw.mp4	0.0	273.6944348812103	2.499941110610962
57	252.63166999816895	pulse	1	t		55.0	2.5	/experiments/AOT/AOT_stimuli/rescaled_final/0145_fw.mp4	0.0	274.0773229598999	
57	254.2321319580078	pulse	1	t		55.0	2.5	/experiments/AOT/AOT_stimuli/rescaled_final/0145_fw.mp4	0.0	275.67778491973877	
57	254.74872303009033	fix_post	2		12	55.0	2.5	/experiments/AOT/AOT_stimuli/rescaled_final/0145_fw.mp4	0.0	276.1943759918213	0.09995293617248535
58	254.84867596626282	fix_pre	0		119	56.0	2.5	/experiments/AOT/AOT_stimuli/rescaled_final/1380_rv.mp4	0.0	276.2943289279938	0.9916460514068604
58	255.83218693733215	pulse	0	t		56.0	2.5	/experiments/AOT/AOT_stimuli/rescaled_final/1380_rv.mp4	0.0	277.2778398990631	
58	255.84032201766968	movie	1		244	56.0	2.5	/experiments/AOT/AOT_stimuli/rescaled_final/1380_rv.mp4	0.0	277.28597497940063	2.5083019733428955
58	257.4332799911499	pulse	1	t		56.0	2.5	/experiments/AOT/AOT_stimuli/rescaled_final/1380_rv.mp4	0.0	278.87893295288086	
58	258.3486239910126	fix_post	2		12	56.0	2.5	/experiments/AOT/AOT_stimuli/rescaled_final/1380_rv.mp4	0.0	279.79427695274353	0.10000300407409668
59	258.44862699508667	fix_pre	0		120	57.0	2.5	/experiments/AOT/AOT_stimuli/rescaled_final/0830_rv.mp4	0.0	279.8942799568176	1.000020980834961
59	259.0321969985962	pulse	0	t		57.0	2.5	/experiments/AOT/AOT_stimuli/rescaled_final/0830_rv.mp4	0.0	280.47784996032715	
59	259.44864797592163	movie	1		247	57.0	2.5	/experiments/AOT/AOT_stimuli/rescaled_final/0830_rv.mp4	0.0	280.8943009376526	2.50006103515625
59	260.63228607177734	pulse	1	t		57.0	2.5	/experiments/AOT/AOT_stimuli/rescaled_final/0830_rv.mp4	0.0	282.0779390335083	
59	261.9487090110779	fix_post	2		12	57.0	2.5	/experiments/AOT/AOT_stimuli/rescaled_final/0830_rv.mp4	0.0	283.39436197280884	0.09950804710388184
60	262.04821705818176	fix_pre	0		120	58.0	2.5	/experiments/AOT/AOT_stimuli/rescaled_final/1960_fw.mp4	0.0	283.4938700199127	1.0004618167877197
60	262.2322008609772	pulse	0	t		58.0	2.5	/experiments/AOT/AOT_stimuli/rescaled_final/1960_fw.mp4	0.0	283.67785382270813	
60	263.0486788749695	movie	1		244	58.0	2.5	/experiments/AOT/AOT_stimuli/rescaled_final/1960_fw.mp4	0.0	284.49433183670044	2.499547004699707
60	263.83214497566223	pulse	1	t		58.0	2.5	/experiments/AOT/AOT_stimuli/rescaled_final/1960_fw.mp4	0.0	285.2777979373932	
60	265.43023204803467	pulse	1	t		58.0	2.5	/experiments/AOT/AOT_stimuli/rescaled_final/1960_fw.mp4	0.0	286.8758850097656	
60	265.5482258796692	fix_post	2		12	58.0	2.5	/experiments/AOT/AOT_stimuli/rescaled_final/1960_fw.mp4	0.0	286.99387884140015	0.10049605369567871
61	265.64872193336487	fix_pre	0		120	59.0	2.5	/experiments/AOT/AOT_stimuli/rescaled_final/0741_rv.mp4	0.0	287.0943748950958	0.9999740123748779
61	266.64869594573975	movie	1		246	59.0	2.5	/experiments/AOT/AOT_stimuli/rescaled_final/0741_rv.mp4	0.0	288.0943489074707	2.499483108520508
61	267.03319096565247	pulse	1	t		59.0	2.5	/experiments/AOT/AOT_stimuli/rescaled_final/0741_rv.mp4	0.0	288.4788439273834	
61	268.632169008255	pulse	1	t		59.0	2.5	/experiments/AOT/AOT_stimuli/rescaled_final/0741_rv.mp4	0.0	290.07782196998596	
61	269.14817905426025	fix_post	2		12	59.0	2.5	/experiments/AOT/AOT_stimuli/rescaled_final/0741_rv.mp4	0.0	290.5938320159912	0.10046792030334473
62	269.2486469745636	fix_pre	0		119	60.0	2.5	/experiments/AOT/AOT_stimuli/rescaled_final/1575_fw.mp4	0.0	290.69429993629456	0.9916560649871826
62	270.23213291168213	pulse	0	t		60.0	2.5	/experiments/AOT/AOT_stimuli/rescaled_final/1575_fw.mp4	0.0	291.6777858734131	
62	270.2403030395508	movie	1		247	60.0	2.5	/experiments/AOT/AOT_stimuli/rescaled_final/1575_fw.mp4	0.0	291.68595600128174	2.507866859436035
62	271.8318290710449	pulse	1	t		60.0	2.5	/experiments/AOT/AOT_stimuli/rescaled_final/1575_fw.mp4	0.0	293.2774820327759	
62	272.7481698989868	fix_post	2		12	60.0	2.5	/experiments/AOT/AOT_stimuli/rescaled_final/1575_fw.mp4	0.0	294.1938228607178	0.10035514831542969
63	272.84852504730225	fix_pre	0		120	61.0	2.5	/experiments/AOT/AOT_stimuli/rescaled_final/1878_rv.mp4	0.0	294.2941780090332	1.0002038478851318
63	273.4321599006653	pulse	0	t		61.0	2.5	/experiments/AOT/AOT_stimuli/rescaled_final/1878_rv.mp4	0.0	294.87781286239624	
63	273.8487288951874	movie	1		243	61.0	2.5	/experiments/AOT/AOT_stimuli/rescaled_final/1878_rv.mp4	0.0	295.29438185691833	2.499459981918335
63	275.03215885162354	pulse	1	t		61.0	2.5	/experiments/AOT/AOT_stimuli/rescaled_final/1878_rv.mp4	0.0	296.4778118133545	
63	276.3481888771057	fix_post	2		12	61.0	2.5	/experiments/AOT/AOT_stimuli/rescaled_final/1878_rv.mp4	0.0	297.79384183883667	0.10041499137878418
64	276.4486038684845	fix_pre	0		120	62.0	2.5	/experiments/AOT/AOT_stimuli/rescaled_final/0849_rv.mp4	0.0	297.89425683021545	0.999528169631958
64	276.6320888996124	pulse	0	t		62.0	2.5	/experiments/AOT/AOT_stimuli/rescaled_final/0849_rv.mp4	0.0	298.0777418613434	
64	277.44813203811646	movie	1		244	62.0	2.5	/experiments/AOT/AOT_stimuli/rescaled_final/0849_rv.mp4	0.0	298.8937849998474	2.5005369186401367
64	278.2322368621826	pulse	1	t		62.0	2.5	/experiments/AOT/AOT_stimuli/rescaled_final/0849_rv.mp4	0.0	299.6778898239136	
64	279.8307509422302	pulse	1	t		62.0	2.5	/experiments/AOT/AOT_stimuli/rescaled_final/0849_rv.mp4	0.0	301.2764039039612	
64	279.9486689567566	fix_post	2		12	62.0	2.5	/experiments/AOT/AOT_stimuli/rescaled_final/0849_rv.mp4	0.0	301.39432191848755	0.09947395324707031
65	280.04814291000366	fix_pre	0		120	63.0	2.5	blank	1.0	301.4937958717346	1.0000460147857666
65	281.04818892478943	movie	1		300	63.0	2.5	blank	1.0	302.4938418865204	2.5004241466522217
65	281.43212604522705	pulse	1	t		63.0	2.5	blank	1.0	302.877779006958	
65	283.03207993507385	pulse	1	t		63.0	2.5	blank	1.0	304.4777328968048	
65	283.54861307144165	fix_post	2		12	63.0	2.5	blank	1.0	304.9942660331726	0.09996891021728516
66	283.64858198165894	fix_pre	0		119	64.0	2.5	/experiments/AOT/AOT_stimuli/rescaled_final/2033_rv.mp4	0.0	305.0942349433899	0.9916629791259766
66	284.6320769786835	pulse	0	t		64.0	2.5	/experiments/AOT/AOT_stimuli/rescaled_final/2033_rv.mp4	0.0	306.07772994041443	
66	284.6402449607849	movie	1		245	64.0	2.5	/experiments/AOT/AOT_stimuli/rescaled_final/2033_rv.mp4	0.0	306.08589792251587	2.508323907852173
66	286.2319929599762	pulse	1	t		64.0	2.5	/experiments/AOT/AOT_stimuli/rescaled_final/2033_rv.mp4	0.0	307.67764592170715	
66	287.1485688686371	fix_post	2		12	64.0	2.5	/experiments/AOT/AOT_stimuli/rescaled_final/2033_rv.mp4	0.0	308.59422183036804	0.09967803955078125
67	287.24824690818787	fix_pre	0		120	65.0	2.5	/experiments/AOT/AOT_stimuli/rescaled_final/2037_fw.mp4	0.0	308.6938998699188	0.9998779296875
67	287.8320879936218	pulse	0	t		65.0	2.5	/experiments/AOT/AOT_stimuli/rescaled_final/2037_fw.mp4	0.0	309.2777409553528	
67	288.24812483787537	movie	1		244	65.0	2.5	/experiments/AOT/AOT_stimuli/rescaled_final/2037_fw.mp4	0.0	309.6937777996063	2.5005671977996826
67	289.43207693099976	pulse	1	t		65.0	2.5	/experiments/AOT/AOT_stimuli/rescaled_final/2037_fw.mp4	0.0	310.8777298927307	
67	290.74869203567505	fix_post	2		12	65.0	2.5	/experiments/AOT/AOT_stimuli/rescaled_final/2037_fw.mp4	0.0	312.194344997406	0.09987592697143555
68	290.8485679626465	fix_pre	0		120	66.0	2.5	/experiments/AOT/AOT_stimuli/rescaled_final/0474_fw.mp4	0.0	312.29422092437744	1.0000250339508057
68	291.03205394744873	pulse	0	t		66.0	2.5	/experiments/AOT/AOT_stimuli/rescaled_final/0474_fw.mp4	0.0	312.4777069091797	
68	291.8485929965973	movie	1		244	66.0	2.5	/experiments/AOT/AOT_stimuli/rescaled_final/0474_fw.mp4	0.0	313.29424595832825	2.4998459815979004
68	292.63201999664307	pulse	1	t		66.0	2.5	/experiments/AOT/AOT_stimuli/rescaled_final/0474_fw.mp4	0.0	314.077672958374	
68	294.230721950531	pulse	1	t		66.0	2.5	/experiments/AOT/AOT_stimuli/rescaled_final/0474_fw.mp4	0.0	315.67637491226196	
68	294.3484389781952	fix_post	2		12	66.0	2.5	/experiments/AOT/AOT_stimuli/rescaled_final/0474_fw.mp4	0.0	315.79409193992615	0.10013604164123535
69	294.4485750198364	fix_pre	0		120	67.0	2.5	/experiments/AOT/AOT_stimuli/rescaled_final/1447_rv.mp4	0.0	315.8942279815674	1.0000300407409668
69	295.4486050605774	movie	1		246	67.0	2.5	/experiments/AOT/AOT_stimuli/rescaled_final/1447_rv.mp4	0.0	316.89425802230835	2.4995319843292236
69	295.8315238952637	pulse	1	t		67.0	2.5	/experiments/AOT/AOT_stimuli/rescaled_final/1447_rv.mp4	0.0	317.27717685699463	
69	297.4316189289093	pulse	1	t		67.0	2.5	/experiments/AOT/AOT_stimuli/rescaled_final/1447_rv.mp4	0.0	318.87727189064026	
69	297.9481370449066	fix_post	2		12	67.0	2.5	/experiments/AOT/AOT_stimuli/rescaled_final/1447_rv.mp4	0.0	319.3937900066376	0.10009288787841797
70	298.04822993278503	fix_pre	0		119	68.0	2.5	/experiments/AOT/AOT_stimuli/rescaled_final/1713_fw.mp4	0.0	319.493882894516	0.9921801090240479
70	299.0322539806366	pulse	0	t		68.0	2.5	/experiments/AOT/AOT_stimuli/rescaled_final/1713_fw.mp4	0.0	320.47790694236755	
70	299.0404100418091	movie	1		245	68.0	2.5	/experiments/AOT/AOT_stimuli/rescaled_final/1713_fw.mp4	0.0	320.48606300354004	2.5081698894500732
70	300.63159704208374	pulse	1	t		68.0	2.5	/experiments/AOT/AOT_stimuli/rescaled_final/1713_fw.mp4	0.0	322.0772500038147	
70	301.54857993125916	fix_post	2		12	68.0	2.5	/experiments/AOT/AOT_stimuli/rescaled_final/1713_fw.mp4	0.0	322.9942328929901	0.09995198249816895
71	301.6485319137573	fix_pre	0		120	69.0	2.5	/experiments/AOT/AOT_stimuli/rescaled_final/0043_rv.mp4	0.0	323.0941848754883	1.0000331401824951
71	302.23197197914124	pulse	0	t		69.0	2.5	/experiments/AOT/AOT_stimuli/rescaled_final/0043_rv.mp4	0.0	323.6776249408722	
71	302.6485650539398	movie	1		243	69.0	2.5	/experiments/AOT/AOT_stimuli/rescaled_final/0043_rv.mp4	0.0	324.0942180156708	2.4998269081115723
71	303.83205103874207	pulse	1	t		69.0	2.5	/experiments/AOT/AOT_stimuli/rescaled_final/0043_rv.mp4	0.0	325.277704000473	
71	305.1483919620514	fix_post	2		12	69.0	2.5	/experiments/AOT/AOT_stimuli/rescaled_final/0043_rv.mp4	0.0	326.59404492378235	0.10002899169921875
72	305.2484209537506	fix_pre	0		120	70.0	2.5	blank	1.0	326.69407391548157	1.0000901222229004
72	305.43192887306213	pulse	0	t		70.0	2.5	blank	1.0	326.8775818347931	
72	306.2485110759735	movie	1		300	70.0	2.5	blank	1.0	327.69416403770447	2.4999067783355713
72	307.03190207481384	pulse	1	t		70.0	2.5	blank	1.0	328.4775550365448	
72	308.6318709850311	pulse	1	t		70.0	2.5	blank	1.0	330.0775239467621	
72	308.7484178543091	fix_post	2		12	70.0	2.5	blank	1.0	330.19407081604004	0.10005402565002441
73	308.8484718799591	fix_pre	0		120	71.0	2.5	/experiments/AOT/AOT_stimuli/rescaled_final/1404_rv.mp4	0.0	330.29412484169006	1.0000159740447998
73	309.8484878540039	movie	1		245	71.0	2.5	/experiments/AOT/AOT_stimuli/rescaled_final/1404_rv.mp4	0.0	331.29414081573486	2.499891996383667
73	310.2321619987488	pulse	1	t		71.0	2.5	/experiments/AOT/AOT_stimuli/rescaled_final/1404_rv.mp4	0.0	331.67781496047974	
73	311.83189487457275	pulse	1	t		71.0	2.5	/experiments/AOT/AOT_stimuli/rescaled_final/1404_rv.mp4	0.0	333.2775478363037	
73	312.3483798503876	fix_post	2		12	71.0	2.5	/experiments/AOT/AOT_stimuli/rescaled_final/1404_rv.mp4	0.0	333.79403281211853	0.10002017021179199
74	312.44840002059937	fix_pre	0		119	72.0	2.5	/experiments/AOT/AOT_stimuli/rescaled_final/0073_fw.mp4	0.0	333.8940529823303	0.9916648864746094
74	313.43194603919983	pulse	0	t		72.0	2.5	/experiments/AOT/AOT_stimuli/rescaled_final/0073_fw.mp4	0.0	334.8775990009308	
74	313.440064907074	movie	1		246	72.0	2.5	/experiments/AOT/AOT_stimuli/rescaled_final/0073_fw.mp4	0.0	334.88571786880493	2.508394956588745
74	315.03157591819763	pulse	1	t		72.0	2.5	/experiments/AOT/AOT_stimuli/rescaled_final/0073_fw.mp4	0.0	336.4772288799286	
74	315.9484598636627	fix_post	2		12	72.0	2.5	/experiments/AOT/AOT_stimuli/rescaled_final/0073_fw.mp4	0.0	337.3941128253937	0.10000205039978027
75	316.0484619140625	fix_pre	0		120	73.0	2.5	/experiments/AOT/AOT_stimuli/rescaled_final/1290_fw.mp4	0.0	337.49411487579346	1.0001389980316162
75	316.6319670677185	pulse	0	t		73.0	2.5	/experiments/AOT/AOT_stimuli/rescaled_final/1290_fw.mp4	0.0	338.07762002944946	
75	317.0486009120941	movie	1		255	73.0	2.5	/experiments/AOT/AOT_stimuli/rescaled_final/1290_fw.mp4	0.0	338.4942538738251	2.4999210834503174
75	318.23195600509644	pulse	1	t		73.0	2.5	/experiments/AOT/AOT_stimuli/rescaled_final/1290_fw.mp4	0.0	339.6776089668274	
75	319.54852199554443	fix_post	2		12	73.0	2.5	/experiments/AOT/AOT_stimuli/rescaled_final/1290_fw.mp4	0.0	340.9941749572754	0.09985494613647461
76	319.6483769416809	fix_pre	0		120	74.0	2.5	/experiments/AOT/AOT_stimuli/rescaled_final/1375_rv.mp4	0.0	341.09402990341187	1.0000789165496826
76	319.8319208621979	pulse	0	t		74.0	2.5	/experiments/AOT/AOT_stimuli/rescaled_final/1375_rv.mp4	0.0	341.27757382392883	
76	320.6484558582306	movie	1		244	74.0	2.5	/experiments/AOT/AOT_stimuli/rescaled_final/1375_rv.mp4	0.0	342.09410881996155	2.499502182006836
76	321.4318919181824	pulse	1	t		74.0	2.5	/experiments/AOT/AOT_stimuli/rescaled_final/1375_rv.mp4	0.0	342.87754487991333	
76	323.030259847641	pulse	1	t		74.0	2.5	/experiments/AOT/AOT_stimuli/rescaled_final/1375_rv.mp4	0.0	344.47591280937195	
76	323.1479580402374	fix_post	2		12	74.0	2.5	/experiments/AOT/AOT_stimuli/rescaled_final/1375_rv.mp4	0.0	344.5936110019684	0.10050392150878906
77	323.2484619617462	fix_pre	0		120	75.0	2.5	/experiments/AOT/AOT_stimuli/rescaled_final/1245_rv.mp4	0.0	344.6941149234772	0.9999790191650391
77	324.24844098091125	movie	1		243	75.0	2.5	/experiments/AOT/AOT_stimuli/rescaled_final/1245_rv.mp4	0.0	345.6940939426422	2.499993085861206
77	324.63142800331116	pulse	1	t		75.0	2.5	/experiments/AOT/AOT_stimuli/rescaled_final/1245_rv.mp4	0.0	346.0770809650421	
77	326.2318980693817	pulse	1	t		75.0	2.5	/experiments/AOT/AOT_stimuli/rescaled_final/1245_rv.mp4	0.0	347.67755103111267	
77	326.74843406677246	fix_post	2		12	75.0	2.5	/experiments/AOT/AOT_stimuli/rescaled_final/1245_rv.mp4	0.0	348.1940870285034	0.10002684593200684
78	326.84846091270447	fix_pre	0		119	76.0	2.5	blank	1.0	348.2941138744354	0.9916141033172607
78	327.8318860530853	pulse	0	t		76.0	2.5	blank	1.0	349.2775390148163	
78	327.84007501602173	movie	1		301	76.0	2.5	blank	1.0	349.2857279777527	2.508328914642334
78	329.43193101882935	pulse	1	t		76.0	2.5	blank	1.0	350.8775839805603	
78	330.34840393066406	fix_post	2		12	76.0	2.5	blank	1.0	351.794056892395	0.09990906715393066
79	330.448312997818	fix_pre	0		120	77.0	2.5	/experiments/AOT/AOT_stimuli/rescaled_final/0914_rv.mp4	0.0	351.89396595954895	1.0000388622283936
79	331.0318748950958	pulse	0	t		77.0	2.5	/experiments/AOT/AOT_stimuli/rescaled_final/0914_rv.mp4	0.0	352.4775278568268	
79	331.4483518600464	movie	1		246	77.0	2.5	/experiments/AOT/AOT_stimuli/rescaled_final/0914_rv.mp4	0.0	352.89400482177734	2.4999401569366455
79	332.6319360733032	pulse	1	t		77.0	2.5	/experiments/AOT/AOT_stimuli/rescaled_final/0914_rv.mp4	0.0	354.0775890350342	
79	333.94829201698303	fix_post	2		12	77.0	2.5	/experiments/AOT/AOT_stimuli/rescaled_final/0914_rv.mp4	0.0	355.393944978714	0.09999704360961914
80	334.04828906059265	fix_pre	0		120	78.0	2.5	/experiments/AOT/AOT_stimuli/rescaled_final/1261_rv.mp4	0.0	355.4939420223236	0.9995989799499512
80	334.2319438457489	pulse	0	t		78.0	2.5	/experiments/AOT/AOT_stimuli/rescaled_final/1261_rv.mp4	0.0	355.67759680747986	
80	335.0478880405426	movie	1		243	78.0	2.5	/experiments/AOT/AOT_stimuli/rescaled_final/1261_rv.mp4	0.0	356.49354100227356	2.500487804412842
80	335.8317768573761	pulse	1	t		78.0	2.5	/experiments/AOT/AOT_stimuli/rescaled_final/1261_rv.mp4	0.0	357.27742981910706	
80	337.43041706085205	pulse	1	t		78.0	2.5	/experiments/AOT/AOT_stimuli/rescaled_final/1261_rv.mp4	0.0	358.876070022583	
80	337.54837584495544	fix_post	2		12	78.0	2.5	/experiments/AOT/AOT_stimuli/rescaled_final/1261_rv.mp4	0.0	358.9940288066864	0.09998321533203125
81	337.6483590602875	fix_pre	0		120	79.0	2.5	/experiments/AOT/AOT_stimuli/rescaled_final/0788_rv.mp4	0.0	359.09401202201843	0.9999029636383057
81	338.6482620239258	movie	1		245	79.0	2.5	/experiments/AOT/AOT_stimuli/rescaled_final/0788_rv.mp4	0.0	360.09391498565674	2.5000410079956055
81	339.03208589553833	pulse	1	t		79.0	2.5	/experiments/AOT/AOT_stimuli/rescaled_final/0788_rv.mp4	0.0	360.4777388572693	
81	340.6318678855896	pulse	1	t		79.0	2.5	/experiments/AOT/AOT_stimuli/rescaled_final/0788_rv.mp4	0.0	362.07752084732056	
81	341.1483030319214	fix_post	2		12	79.0	2.5	/experiments/AOT/AOT_stimuli/rescaled_final/0788_rv.mp4	0.0	362.59395599365234	0.09998703002929688
82	341.2482900619507	fix_pre	0		119	80.0	2.5	/experiments/AOT/AOT_stimuli/rescaled_final/1843_rv.mp4	0.0	362.69394302368164	0.9917089939117432
82	342.2317068576813	pulse	0	t		80.0	2.5	/experiments/AOT/AOT_stimuli/rescaled_final/1843_rv.mp4	0.0	363.67735981941223	
82	342.2399990558624	movie	1		245	80.0	2.5	/experiments/AOT/AOT_stimuli/rescaled_final/1843_rv.mp4	0.0	363.6856520175934	2.5078659057617188
82	343.8314719200134	pulse	1	t		80.0	2.5	/experiments/AOT/AOT_stimuli/rescaled_final/1843_rv.mp4	0.0	365.2771248817444	
82	344.74786496162415	fix_post	2		12	80.0	2.5	/experiments/AOT/AOT_stimuli/rescaled_final/1843_rv.mp4	0.0	366.1935179233551	0.10038900375366211
83	344.8482539653778	fix_pre	0		120	81.0	2.5	/experiments/AOT/AOT_stimuli/rescaled_final/1250_fw.mp4	0.0	366.29390692710876	1.0000650882720947
83	345.43186688423157	pulse	0	t		81.0	2.5	/experiments/AOT/AOT_stimuli/rescaled_final/1250_fw.mp4	0.0	366.8775198459625	
83	345.8483190536499	movie	1		245	81.0	2.5	/experiments/AOT/AOT_stimuli/rescaled_final/1250_fw.mp4	0.0	367.29397201538086	2.500002861022949
83	347.0318880081177	pulse	1	t		81.0	2.5	/experiments/AOT/AOT_stimuli/rescaled_final/1250_fw.mp4	0.0	368.47754096984863	
83	348.34832191467285	fix_post	2		12	81.0	2.5	/experiments/AOT/AOT_stimuli/rescaled_final/1250_fw.mp4	0.0	369.7939748764038	0.10779309272766113
84	348.4561150074005	fix_pre	0		119	82.0	2.5	/experiments/AOT/AOT_stimuli/rescaled_final/1659_rv.mp4	0.0	369.90176796913147	0.9921188354492188
84	348.6317548751831	pulse	0	t		82.0	2.5	/experiments/AOT/AOT_stimuli/rescaled_final/1659_rv.mp4	0.0	370.07740783691406	
84	349.44823384284973	movie	1		246	82.0	2.5	/experiments/AOT/AOT_stimuli/rescaled_final/1659_rv.mp4	0.0	370.8938868045807	2.5000061988830566
84	350.23174500465393	pulse	1	t		82.0	2.5	/experiments/AOT/AOT_stimuli/rescaled_final/1659_rv.mp4	0.0	371.6773979663849	
84	351.83133006095886	pulse	1	t		82.0	2.5	/experiments/AOT/AOT_stimuli/rescaled_final/1659_rv.mp4	0.0	373.2769830226898	
84	351.9482400417328	fix_post	2		12	82.0	2.5	/experiments/AOT/AOT_stimuli/rescaled_final/1659_rv.mp4	0.0	373.39389300346375	0.09960794448852539
85	352.0478479862213	fix_pre	0		120	83.0	2.5	blank	1.0	373.49350094795227	1.000380039215088
85	353.0482280254364	movie	1		300	83.0	2.5	blank	1.0	374.49388098716736	2.5003879070281982
85	353.43134093284607	pulse	1	t		83.0	2.5	blank	1.0	374.876993894577	
85	355.0316400527954	pulse	1	t		83.0	2.5	blank	1.0	376.47729301452637	
85	355.5486159324646	fix_post	2		12	83.0	2.5	blank	1.0	376.99426889419556	0.09989404678344727
87	355.64850997924805	stim	0		1716					377.094162940979	14.299733877182007
87	356.6318590641022	pulse	0	t						378.07751202583313	
87	358.2317998409271	pulse	0	t						379.6774528026581	
87	359.83167004585266	pulse	0	t						381.2773230075836	
87	361.4315860271454	pulse	0	t						382.87723898887634	
87	363.03162598609924	pulse	0	t						384.4772789478302	
87	364.63162994384766	pulse	0	t						386.0772829055786	
87	366.23159098625183	pulse	0	t						387.6772439479828	
87	367.8316478729248	pulse	0	t						389.27730083465576	
87	369.431608915329	pulse	0	t						390.87726187705994	
