trial_nr	onset	event_type	phase	response	nr_frames	movie_index	movie_duration	movie_file	blank	onset_abs	duration
0	0.15787816047668457	stim	0		32					20.186124086380005	0.2670588493347168
0	0.40978097915649414	response	0	space						20.438026905059814	
1	0.42493700981140137	stim	0		21137					20.45318293571472	176.14078903198242
1	176.55464816093445	pulse	0	t						196.58289408683777	
1	176.56572604179382	stim	1		1717					196.59397196769714	14.308151960372925
1	178.1502640247345	pulse	1	t						198.17850995063782	
1	179.75001406669617	pulse	1	t						199.7782599925995	
1	181.35000896453857	pulse	1	t						201.3782548904419	
1	182.94999718666077	pulse	1	t						202.9782431125641	
1	184.54987812042236	pulse	1	t						204.57812404632568	
1	186.1499011516571	pulse	1	t						206.17814707756042	
1	187.74988412857056	pulse	1	t						207.77813005447388	
1	189.34908604621887	pulse	1	t						209.3773319721222	
2	190.87387800216675	fix_pre	0		10	0.0	2.5	/experiments/AOT/AOT_stimuli/rescaled_final/0560_fw.mp4	0.0	210.90212392807007	0.08340597152709961
2	190.9491090774536	pulse	0	t		0.0	2.5	/experiments/AOT/AOT_stimuli/rescaled_final/0560_fw.mp4	0.0	210.97735500335693	
2	190.95728397369385	movie	1		245	0.0	2.5	/experiments/AOT/AOT_stimuli/rescaled_final/0560_fw.mp4	0.0	210.98552989959717	2.508355140686035
2	192.5574700832367	pulse	1	t		0.0	2.5	/experiments/AOT/AOT_stimuli/rescaled_final/0560_fw.mp4	0.0	212.58571600914001	
2	193.46563911437988	fix_post	2		12	0.0	2.5	/experiments/AOT/AOT_stimuli/rescaled_final/0560_fw.mp4	0.0	213.4938850402832	0.09990286827087402
3	193.56554198265076	fix_pre	0		120	1.0	2.5	/experiments/AOT/AOT_stimuli/rescaled_final/0089_rv.mp4	0.0	213.59378790855408	1.000108003616333
3	194.15828704833984	pulse	0	t		1.0	2.5	/experiments/AOT/AOT_stimuli/rescaled_final/0089_rv.mp4	0.0	214.18653297424316	
3	194.5656499862671	movie	1		244	1.0	2.5	/experiments/AOT/AOT_stimuli/rescaled_final/0089_rv.mp4	0.0	214.5938959121704	2.4998881816864014
3	195.75049495697021	pulse	1	t		1.0	2.5	/experiments/AOT/AOT_stimuli/rescaled_final/0089_rv.mp4	0.0	215.77874088287354	
3	197.0655381679535	fix_post	2		12	1.0	2.5	/experiments/AOT/AOT_stimuli/rescaled_final/0089_rv.mp4	0.0	217.0937840938568	0.10005688667297363
4	197.16559505462646	fix_pre	0		120	2.0	2.5	/experiments/AOT/AOT_stimuli/rescaled_final/0622_rv.mp4	0.0	217.19384098052979	0.9995028972625732
4	197.34987998008728	pulse	0	t		2.0	2.5	/experiments/AOT/AOT_stimuli/rescaled_final/0622_rv.mp4	0.0	217.3781259059906	
4	198.16509795188904	movie	1		244	2.0	2.5	/experiments/AOT/AOT_stimuli/rescaled_final/0622_rv.mp4	0.0	218.19334387779236	2.500394105911255
4	198.95002818107605	pulse	1	t		2.0	2.5	/experiments/AOT/AOT_stimuli/rescaled_final/0622_rv.mp4	0.0	218.97827410697937	
4	200.55748915672302	pulse	1	t		2.0	2.5	/experiments/AOT/AOT_stimuli/rescaled_final/0622_rv.mp4	0.0	220.58573508262634	
4	200.6654920578003	fix_post	2		12	2.0	2.5	/experiments/AOT/AOT_stimuli/rescaled_final/0622_rv.mp4	0.0	220.6937379837036	0.10008502006530762
5	200.7655770778656	fix_pre	0		120	3.0	2.5	/experiments/AOT/AOT_stimuli/rescaled_final/0248_rv.mp4	0.0	220.79382300376892	1.0000150203704834
5	201.76559209823608	movie	1		244	3.0	2.5	/experiments/AOT/AOT_stimuli/rescaled_final/0248_rv.mp4	0.0	221.7938380241394	2.5010950565338135
5	202.15756106376648	pulse	1	t		3.0	2.5	/experiments/AOT/AOT_stimuli/rescaled_final/0248_rv.mp4	0.0	222.1858069896698	
5	203.74996209144592	pulse	1	t		3.0	2.5	/experiments/AOT/AOT_stimuli/rescaled_final/0248_rv.mp4	0.0	223.77820801734924	
5	204.2666871547699	fix_post	2		12	3.0	2.5	/experiments/AOT/AOT_stimuli/rescaled_final/0248_rv.mp4	0.0	224.29493308067322	0.09887099266052246
6	204.36555814743042	fix_pre	0		120	4.0	2.5	/experiments/AOT/AOT_stimuli/rescaled_final/0860_fw.mp4	0.0	224.39380407333374	0.9999148845672607
6	205.3498911857605	pulse	0	t		4.0	2.5	/experiments/AOT/AOT_stimuli/rescaled_final/0860_fw.mp4	0.0	225.37813711166382	
6	205.36547303199768	movie	1		245	4.0	2.5	/experiments/AOT/AOT_stimuli/rescaled_final/0860_fw.mp4	0.0	225.393718957901	2.507946014404297
6	206.9581949710846	pulse	1	t		4.0	2.5	/experiments/AOT/AOT_stimuli/rescaled_final/0860_fw.mp4	0.0	226.98644089698792	
6	207.87341904640198	fix_post	2		12	4.0	2.5	/experiments/AOT/AOT_stimuli/rescaled_final/0860_fw.mp4	0.0	227.9016649723053	0.10032892227172852
7	207.9737479686737	fix_pre	0		120	5.0	2.5	/experiments/AOT/AOT_stimuli/rescaled_final/0895_rv.mp4	0.0	228.00199389457703	1.0001060962677002
7	208.54901313781738	pulse	0	t		5.0	2.5	/experiments/AOT/AOT_stimuli/rescaled_final/0895_rv.mp4	0.0	228.5772590637207	
7	208.9738540649414	movie	1		243	5.0	2.5	/experiments/AOT/AOT_stimuli/rescaled_final/0895_rv.mp4	0.0	229.00209999084473	2.4999868869781494
7	210.15740704536438	pulse	1	t		5.0	2.5	/experiments/AOT/AOT_stimuli/rescaled_final/0895_rv.mp4	0.0	230.1856529712677	
7	211.47384095191956	fix_post	2		12	5.0	2.5	/experiments/AOT/AOT_stimuli/rescaled_final/0895_rv.mp4	0.0	231.50208687782288	0.10005521774291992
8	211.57389616966248	fix_pre	0		120	6.0	2.5	/experiments/AOT/AOT_stimuli/rescaled_final/0056_rv.mp4	0.0	231.6021420955658	0.9998929500579834
8	211.75739312171936	pulse	0	t		6.0	2.5	/experiments/AOT/AOT_stimuli/rescaled_final/0056_rv.mp4	0.0	231.78563904762268	
8	212.57378911972046	movie	1		244	6.0	2.5	/experiments/AOT/AOT_stimuli/rescaled_final/0056_rv.mp4	0.0	232.60203504562378	2.500037908554077
8	213.3500201702118	pulse	1	t		6.0	2.5	/experiments/AOT/AOT_stimuli/rescaled_final/0056_rv.mp4	0.0	233.3782660961151	
8	214.95355916023254	pulse	1	t		6.0	2.5	/experiments/AOT/AOT_stimuli/rescaled_final/0056_rv.mp4	0.0	234.98180508613586	
8	215.07382702827454	fix_post	2		12	6.0	2.5	/experiments/AOT/AOT_stimuli/rescaled_final/0056_rv.mp4	0.0	235.10207295417786	0.09996795654296875
9	215.1737949848175	fix_pre	0		120	7.0	2.5	blank	1.0	235.20204091072083	1.0000619888305664
9	216.17385697364807	movie	1		300	7.0	2.5	blank	1.0	236.2021028995514	2.5000851154327393
9	216.54994010925293	pulse	1	t		7.0	2.5	blank	1.0	236.57818603515625	
9	218.14984011650085	pulse	1	t		7.0	2.5	blank	1.0	238.17808604240417	
9	218.6739420890808	fix_post	2		12	7.0	2.5	blank	1.0	238.70218801498413	0.0998079776763916
10	218.7737500667572	fix_pre	0		119	8.0	2.5	/experiments/AOT/AOT_stimuli/rescaled_final/0387_rv.mp4	0.0	238.80199599266052	0.99173903465271
10	219.74977111816406	pulse	0	t		8.0	2.5	/experiments/AOT/AOT_stimuli/rescaled_final/0387_rv.mp4	0.0	239.77801704406738	
10	219.7654891014099	movie	1		245	8.0	2.5	/experiments/AOT/AOT_stimuli/rescaled_final/0387_rv.mp4	0.0	239.79373502731323	2.5082340240478516
10	221.3568720817566	pulse	1	t		8.0	2.5	/experiments/AOT/AOT_stimuli/rescaled_final/0387_rv.mp4	0.0	241.3851180076599	
10	222.27372312545776	fix_post	2		12	8.0	2.5	/experiments/AOT/AOT_stimuli/rescaled_final/0387_rv.mp4	0.0	242.30196905136108	0.10009288787841797
11	222.37381601333618	fix_pre	0		120	9.0	2.5	/experiments/AOT/AOT_stimuli/rescaled_final/0124_rv.mp4	0.0	242.4020619392395	0.9999780654907227
11	222.94968509674072	pulse	0	t		9.0	2.5	/experiments/AOT/AOT_stimuli/rescaled_final/0124_rv.mp4	0.0	242.97793102264404	
11	223.3737940788269	movie	1		243	9.0	2.5	/experiments/AOT/AOT_stimuli/rescaled_final/0124_rv.mp4	0.0	243.40204000473022	2.500006914138794
11	224.55731797218323	pulse	1	t		9.0	2.5	/experiments/AOT/AOT_stimuli/rescaled_final/0124_rv.mp4	0.0	244.58556389808655	
11	225.8738009929657	fix_post	2		12	9.0	2.5	/experiments/AOT/AOT_stimuli/rescaled_final/0124_rv.mp4	0.0	245.90204691886902	0.09998917579650879
12	225.9737901687622	fix_pre	0		120	10.0	2.5	/experiments/AOT/AOT_stimuli/rescaled_final/1616_fw.mp4	0.0	246.00203609466553	1.0000460147857666
12	226.15725302696228	pulse	0	t		10.0	2.5	/experiments/AOT/AOT_stimuli/rescaled_final/1616_fw.mp4	0.0	246.1854989528656	
12	226.97383618354797	movie	1		242	10.0	2.5	/experiments/AOT/AOT_stimuli/rescaled_final/1616_fw.mp4	0.0	247.0020821094513	2.5003488063812256
12	227.75733709335327	pulse	1	t		10.0	2.5	/experiments/AOT/AOT_stimuli/rescaled_final/1616_fw.mp4	0.0	247.7855830192566	
12	229.3566291332245	pulse	1	t		10.0	2.5	/experiments/AOT/AOT_stimuli/rescaled_final/1616_fw.mp4	0.0	249.3848750591278	
12	229.4741849899292	fix_post	2		12	10.0	2.5	/experiments/AOT/AOT_stimuli/rescaled_final/1616_fw.mp4	0.0	249.50243091583252	0.09960317611694336
13	229.57378816604614	fix_pre	0		120	11.0	2.5	/experiments/AOT/AOT_stimuli/rescaled_final/1073_rv.mp4	0.0	249.60203409194946	1.0000059604644775
13	230.57379412651062	movie	1		245	11.0	2.5	/experiments/AOT/AOT_stimuli/rescaled_final/1073_rv.mp4	0.0	250.60204005241394	2.500079870223999
13	230.95684695243835	pulse	1	t		11.0	2.5	/experiments/AOT/AOT_stimuli/rescaled_final/1073_rv.mp4	0.0	250.98509287834167	
13	232.55687808990479	pulse	1	t		11.0	2.5	/experiments/AOT/AOT_stimuli/rescaled_final/1073_rv.mp4	0.0	252.5851240158081	
13	233.07387399673462	fix_post	2		12	11.0	2.5	/experiments/AOT/AOT_stimuli/rescaled_final/1073_rv.mp4	0.0	253.10211992263794	0.10002017021179199
14	233.1738941669464	fix_pre	0		119	12.0	2.5	/experiments/AOT/AOT_stimuli/rescaled_final/0980_rv.mp4	0.0	253.20214009284973	0.9918007850646973
14	234.14962100982666	pulse	0	t		12.0	2.5	/experiments/AOT/AOT_stimuli/rescaled_final/0980_rv.mp4	0.0	254.17786693572998	
14	234.1656949520111	movie	1		244	12.0	2.5	/experiments/AOT/AOT_stimuli/rescaled_final/0980_rv.mp4	0.0	254.19394087791443	2.5075631141662598
14	235.75698113441467	pulse	1	t		12.0	2.5	/experiments/AOT/AOT_stimuli/rescaled_final/0980_rv.mp4	0.0	255.785227060318	
14	236.67325806617737	fix_post	2		12	12.0	2.5	/experiments/AOT/AOT_stimuli/rescaled_final/0980_rv.mp4	0.0	256.7015039920807	0.10047602653503418
15	236.7737340927124	fix_pre	0		120	13.0	2.5	blank	1.0	256.8019800186157	0.9999868869781494
15	237.34970498085022	pulse	0	t		13.0	2.5	blank	1.0	257.37795090675354	
15	237.77372097969055	movie	1		300	13.0	2.5	blank	1.0	257.8019669055939	2.5000131130218506
15	238.94967699050903	pulse	1	t		13.0	2.5	blank	1.0	258.97792291641235	
15	240.2737340927124	fix_post	2		12	13.0	2.5	blank	1.0	260.3019800186157	0.10001301765441895
16	240.37374711036682	fix_pre	0		120	14.0	2.5	/experiments/AOT/AOT_stimuli/rescaled_final/0935_fw.mp4	0.0	260.40199303627014	0.9999630451202393
16	240.54978799819946	pulse	0	t		14.0	2.5	/experiments/AOT/AOT_stimuli/rescaled_final/0935_fw.mp4	0.0	260.5780339241028	
16	241.37371015548706	movie	1		244	14.0	2.5	/experiments/AOT/AOT_stimuli/rescaled_final/0935_fw.mp4	0.0	261.4019560813904	2.499591827392578
16	242.15717101097107	pulse	1	t		14.0	2.5	/experiments/AOT/AOT_stimuli/rescaled_final/0935_fw.mp4	0.0	262.1854169368744	
16	243.7555980682373	pulse	1	t		14.0	2.5	/experiments/AOT/AOT_stimuli/rescaled_final/0935_fw.mp4	0.0	263.7838439941406	
16	243.87330198287964	fix_post	2		12	14.0	2.5	/experiments/AOT/AOT_stimuli/rescaled_final/0935_fw.mp4	0.0	263.90154790878296	0.10033798217773438
17	243.97363996505737	fix_pre	0		120	15.0	2.5	/experiments/AOT/AOT_stimuli/rescaled_final/0802_fw.mp4	0.0	264.0018858909607	1.0000760555267334
17	244.9737160205841	movie	1		245	15.0	2.5	/experiments/AOT/AOT_stimuli/rescaled_final/0802_fw.mp4	0.0	265.0019619464874	2.499925136566162
17	245.35692310333252	pulse	1	t		15.0	2.5	/experiments/AOT/AOT_stimuli/rescaled_final/0802_fw.mp4	0.0	265.38516902923584	
17	246.9498360157013	pulse	1	t		15.0	2.5	/experiments/AOT/AOT_stimuli/rescaled_final/0802_fw.mp4	0.0	266.9780819416046	
17	247.47364115715027	fix_post	2		12	15.0	2.5	/experiments/AOT/AOT_stimuli/rescaled_final/0802_fw.mp4	0.0	267.5018870830536	0.10004591941833496
18	247.5736870765686	fix_pre	0		119	16.0	2.5	/experiments/AOT/AOT_stimuli/rescaled_final/0756_rv.mp4	0.0	267.6019330024719	0.9916110038757324
18	248.54977703094482	pulse	0	t		16.0	2.5	/experiments/AOT/AOT_stimuli/rescaled_final/0756_rv.mp4	0.0	268.57802295684814	
18	248.56529808044434	movie	1		244	16.0	2.5	/experiments/AOT/AOT_stimuli/rescaled_final/0756_rv.mp4	0.0	268.59354400634766	2.5083820819854736
18	250.15838813781738	pulse	1	t		16.0	2.5	/experiments/AOT/AOT_stimuli/rescaled_final/0756_rv.mp4	0.0	270.1866340637207	
18	251.0736801624298	fix_post	2		12	16.0	2.5	/experiments/AOT/AOT_stimuli/rescaled_final/0756_rv.mp4	0.0	271.10192608833313	0.09992384910583496
19	251.17360401153564	fix_pre	0		120	17.0	2.5	/experiments/AOT/AOT_stimuli/rescaled_final/0520_fw.mp4	0.0	271.20184993743896	1.0001630783081055
19	251.74980306625366	pulse	0	t		17.0	2.5	/experiments/AOT/AOT_stimuli/rescaled_final/0520_fw.mp4	0.0	271.778048992157	
19	252.17376708984375	movie	1		244	17.0	2.5	/experiments/AOT/AOT_stimuli/rescaled_final/0520_fw.mp4	0.0	272.20201301574707	2.4998109340667725
19	253.35718512535095	pulse	1	t		17.0	2.5	/experiments/AOT/AOT_stimuli/rescaled_final/0520_fw.mp4	0.0	273.3854310512543	
19	254.67357802391052	fix_post	2		12	17.0	2.5	/experiments/AOT/AOT_stimuli/rescaled_final/0520_fw.mp4	0.0	274.70182394981384	0.0999760627746582
20	254.77355408668518	fix_pre	0		120	18.0	2.5	/experiments/AOT/AOT_stimuli/rescaled_final/0146_rv.mp4	0.0	274.8018000125885	1.0000569820404053
20	254.94961309432983	pulse	0	t		18.0	2.5	/experiments/AOT/AOT_stimuli/rescaled_final/0146_rv.mp4	0.0	274.97785902023315	
20	255.7736110687256	movie	1		244	18.0	2.5	/experiments/AOT/AOT_stimuli/rescaled_final/0146_rv.mp4	0.0	275.8018569946289	2.4999969005584717
20	256.5496881008148	pulse	1	t		18.0	2.5	/experiments/AOT/AOT_stimuli/rescaled_final/0146_rv.mp4	0.0	276.57793402671814	
20	258.1558220386505	pulse	1	t		18.0	2.5	/experiments/AOT/AOT_stimuli/rescaled_final/0146_rv.mp4	0.0	278.18406796455383	
20	258.27360796928406	fix_post	2		12	18.0	2.5	/experiments/AOT/AOT_stimuli/rescaled_final/0146_rv.mp4	0.0	278.3018538951874	0.10001707077026367
21	258.3736250400543	fix_pre	0		120	19.0	2.5	blank	1.0	278.40187096595764	1.0000250339508057
21	259.3736500740051	movie	1		300	19.0	2.5	blank	1.0	279.40189599990845	2.4999890327453613
21	259.7571151256561	pulse	1	t		19.0	2.5	blank	1.0	279.78536105155945	
21	261.3570749759674	pulse	1	t		19.0	2.5	blank	1.0	281.3853209018707	
21	261.8736391067505	fix_post	2		12	19.0	2.5	blank	1.0	281.9018850326538	0.09992003440856934
22	261.97355914115906	fix_pre	0		119	20.0	2.5	/experiments/AOT/AOT_stimuli/rescaled_final/0538_rv.mp4	0.0	282.0018050670624	0.9916558265686035
22	262.9570469856262	pulse	0	t		20.0	2.5	/experiments/AOT/AOT_stimuli/rescaled_final/0538_rv.mp4	0.0	282.98529291152954	
22	262.96521496772766	movie	1		247	20.0	2.5	/experiments/AOT/AOT_stimuli/rescaled_final/0538_rv.mp4	0.0	282.993460893631	2.508327007293701
22	264.55719804763794	pulse	1	t		20.0	2.5	/experiments/AOT/AOT_stimuli/rescaled_final/0538_rv.mp4	0.0	284.58544397354126	
22	265.47354197502136	fix_post	2		12	20.0	2.5	/experiments/AOT/AOT_stimuli/rescaled_final/0538_rv.mp4	0.0	285.5017879009247	0.09995818138122559
23	265.5735001564026	fix_pre	0		120	21.0	2.5	/experiments/AOT/AOT_stimuli/rescaled_final/1738_fw.mp4	0.0	285.6017460823059	1.0000908374786377
23	266.1571111679077	pulse	0	t		21.0	2.5	/experiments/AOT/AOT_stimuli/rescaled_final/1738_fw.mp4	0.0	286.18535709381104	
23	266.5735909938812	movie	1		245	21.0	2.5	/experiments/AOT/AOT_stimuli/rescaled_final/1738_fw.mp4	0.0	286.60183691978455	2.5003740787506104
23	267.7571120262146	pulse	1	t		21.0	2.5	/experiments/AOT/AOT_stimuli/rescaled_final/1738_fw.mp4	0.0	287.7853579521179	
23	269.07396507263184	fix_post	2		12	21.0	2.5	/experiments/AOT/AOT_stimuli/rescaled_final/1738_fw.mp4	0.0	289.10221099853516	0.09961891174316406
24	269.173583984375	fix_pre	0		120	22.0	2.5	/experiments/AOT/AOT_stimuli/rescaled_final/0953_fw.mp4	0.0	289.2018299102783	1.0
24	269.3495399951935	pulse	0	t		22.0	2.5	/experiments/AOT/AOT_stimuli/rescaled_final/0953_fw.mp4	0.0	289.3777859210968	
24	270.173583984375	movie	1		243	22.0	2.5	/experiments/AOT/AOT_stimuli/rescaled_final/0953_fw.mp4	0.0	290.2018299102783	2.499979019165039
24	270.94962215423584	pulse	1	t		22.0	2.5	/experiments/AOT/AOT_stimuli/rescaled_final/0953_fw.mp4	0.0	290.97786808013916	
24	272.555104970932	pulse	1	t		22.0	2.5	/experiments/AOT/AOT_stimuli/rescaled_final/0953_fw.mp4	0.0	292.5833508968353	
24	272.67356300354004	fix_post	2		12	22.0	2.5	/experiments/AOT/AOT_stimuli/rescaled_final/0953_fw.mp4	0.0	292.70180892944336	0.0999760627746582
25	272.7735390663147	fix_pre	0		120	23.0	2.5	/experiments/AOT/AOT_stimuli/rescaled_final/0622_rv.mp4	0.0	292.801784992218	0.999993085861206
25	273.7735321521759	movie	1		243	23.0	2.5	/experiments/AOT/AOT_stimuli/rescaled_final/0622_rv.mp4	0.0	293.8017780780792	2.5000100135803223
25	274.15789914131165	pulse	1	t		23.0	2.5	/experiments/AOT/AOT_stimuli/rescaled_final/0622_rv.mp4	0.0	294.18614506721497	
25	275.7570161819458	pulse	1	t		23.0	2.5	/experiments/AOT/AOT_stimuli/rescaled_final/0622_rv.mp4	0.0	295.7852621078491	
25	276.2735421657562	fix_post	2		12	23.0	2.5	/experiments/AOT/AOT_stimuli/rescaled_final/0622_rv.mp4	0.0	296.30178809165955	0.09996390342712402
26	276.37350606918335	fix_pre	0		119	24.0	2.5	/experiments/AOT/AOT_stimuli/rescaled_final/0450_rv.mp4	0.0	296.40175199508667	0.9916629791259766
26	277.3570280075073	pulse	0	t		24.0	2.5	/experiments/AOT/AOT_stimuli/rescaled_final/0450_rv.mp4	0.0	297.38527393341064	
26	277.3651690483093	movie	1		245	24.0	2.5	/experiments/AOT/AOT_stimuli/rescaled_final/0450_rv.mp4	0.0	297.39341497421265	2.508359909057617
26	278.9570641517639	pulse	1	t		24.0	2.5	/experiments/AOT/AOT_stimuli/rescaled_final/0450_rv.mp4	0.0	298.98531007766724	
26	279.87352895736694	fix_post	2		12	24.0	2.5	/experiments/AOT/AOT_stimuli/rescaled_final/0450_rv.mp4	0.0	299.90177488327026	0.09990310668945312
27	279.9734320640564	fix_pre	0		120	25.0	2.5	/experiments/AOT/AOT_stimuli/rescaled_final/1522_rv.mp4	0.0	300.0016779899597	1.0000441074371338
27	280.5569770336151	pulse	0	t		25.0	2.5	/experiments/AOT/AOT_stimuli/rescaled_final/1522_rv.mp4	0.0	300.58522295951843	
27	280.97347617149353	movie	1		244	25.0	2.5	/experiments/AOT/AOT_stimuli/rescaled_final/1522_rv.mp4	0.0	301.00172209739685	2.4999959468841553
27	282.1568901538849	pulse	1	t		25.0	2.5	/experiments/AOT/AOT_stimuli/rescaled_final/1522_rv.mp4	0.0	302.1851360797882	
27	283.4734721183777	fix_post	2		12	25.0	2.5	/experiments/AOT/AOT_stimuli/rescaled_final/1522_rv.mp4	0.0	303.501718044281	0.10006093978881836
28	283.5735330581665	fix_pre	0		120	26.0	2.5	blank	1.0	303.6017789840698	0.9994649887084961
28	283.74961400032043	pulse	0	t		26.0	2.5	blank	1.0	303.77785992622375	
28	284.572998046875	movie	1		300	26.0	2.5	blank	1.0	304.6012439727783	2.5005741119384766
28	285.34946608543396	pulse	1	t		26.0	2.5	blank	1.0	305.3777120113373	
28	286.94940304756165	pulse	1	t		26.0	2.5	blank	1.0	306.97764897346497	
28	287.0735721588135	fix_post	2		12	26.0	2.5	blank	1.0	307.1018180847168	0.09949398040771484
29	287.1730661392212	fix_pre	0		120	27.0	2.5	/experiments/AOT/AOT_stimuli/rescaled_final/0887_rv.mp4	0.0	307.2013120651245	1.0000419616699219
29	288.1731081008911	movie	1		245	27.0	2.5	/experiments/AOT/AOT_stimuli/rescaled_final/0887_rv.mp4	0.0	308.20135402679443	2.500319004058838
29	288.5562810897827	pulse	1	t		27.0	2.5	/experiments/AOT/AOT_stimuli/rescaled_final/0887_rv.mp4	0.0	308.58452701568604	
29	290.1568100452423	pulse	1	t		27.0	2.5	/experiments/AOT/AOT_stimuli/rescaled_final/0887_rv.mp4	0.0	310.18505597114563	
29	290.67342710494995	fix_post	2		12	27.0	2.5	/experiments/AOT/AOT_stimuli/rescaled_final/0887_rv.mp4	0.0	310.70167303085327	0.10007190704345703
30	290.7734990119934	fix_pre	0		119	28.0	2.5	/experiments/AOT/AOT_stimuli/rescaled_final/0089_rv.mp4	0.0	310.80174493789673	0.9916009902954102
30	291.75695514678955	pulse	0	t		28.0	2.5	/experiments/AOT/AOT_stimuli/rescaled_final/0089_rv.mp4	0.0	311.78520107269287	
30	291.7651000022888	movie	1		246	28.0	2.5	/experiments/AOT/AOT_stimuli/rescaled_final/0089_rv.mp4	0.0	311.79334592819214	2.508368968963623
30	293.35803604125977	pulse	1	t		28.0	2.5	/experiments/AOT/AOT_stimuli/rescaled_final/0089_rv.mp4	0.0	313.3862819671631	
30	294.27346897125244	fix_post	2		12	28.0	2.5	/experiments/AOT/AOT_stimuli/rescaled_final/0089_rv.mp4	0.0	314.30171489715576	0.09995913505554199
31	294.373428106308	fix_pre	0		120	29.0	2.5	/experiments/AOT/AOT_stimuli/rescaled_final/0388_rv.mp4	0.0	314.4016740322113	1.0000309944152832
31	294.9568860530853	pulse	0	t		29.0	2.5	/experiments/AOT/AOT_stimuli/rescaled_final/0388_rv.mp4	0.0	314.98513197898865	
31	295.37345910072327	movie	1		245	29.0	2.5	/experiments/AOT/AOT_stimuli/rescaled_final/0388_rv.mp4	0.0	315.4017050266266	2.499908924102783
31	296.55689811706543	pulse	1	t		29.0	2.5	/experiments/AOT/AOT_stimuli/rescaled_final/0388_rv.mp4	0.0	316.58514404296875	
31	297.87336802482605	fix_post	2		12	29.0	2.5	/experiments/AOT/AOT_stimuli/rescaled_final/0388_rv.mp4	0.0	317.90161395072937	0.10003805160522461
32	297.9734060764313	fix_pre	0		120	30.0	2.5	/experiments/AOT/AOT_stimuli/rescaled_final/1924_fw.mp4	0.0	318.0016520023346	1.0000619888305664
32	298.15685296058655	pulse	0	t		30.0	2.5	/experiments/AOT/AOT_stimuli/rescaled_final/1924_fw.mp4	0.0	318.18509888648987	
32	298.97346806526184	movie	1		244	30.0	2.5	/experiments/AOT/AOT_stimuli/rescaled_final/1924_fw.mp4	0.0	319.00171399116516	2.4996349811553955
32	299.7568280696869	pulse	1	t		30.0	2.5	/experiments/AOT/AOT_stimuli/rescaled_final/1924_fw.mp4	0.0	319.7850739955902	
32	301.35532903671265	pulse	1	t		30.0	2.5	/experiments/AOT/AOT_stimuli/rescaled_final/1924_fw.mp4	0.0	321.38357496261597	
32	301.47310304641724	fix_post	2		12	30.0	2.5	/experiments/AOT/AOT_stimuli/rescaled_final/1924_fw.mp4	0.0	321.50134897232056	0.09985899925231934
33	301.57296204566956	fix_pre	0		120	31.0	2.5	/experiments/AOT/AOT_stimuli/rescaled_final/1899_fw.mp4	0.0	321.6012079715729	1.0004169940948486
33	302.5733790397644	movie	1		245	31.0	2.5	/experiments/AOT/AOT_stimuli/rescaled_final/1899_fw.mp4	0.0	322.6016249656677	2.4999730587005615
33	302.9562900066376	pulse	1	t		31.0	2.5	/experiments/AOT/AOT_stimuli/rescaled_final/1899_fw.mp4	0.0	322.9845359325409	
33	304.5494170188904	pulse	1	t		31.0	2.5	/experiments/AOT/AOT_stimuli/rescaled_final/1899_fw.mp4	0.0	324.5776629447937	
33	305.07335209846497	fix_post	2		12	31.0	2.5	/experiments/AOT/AOT_stimuli/rescaled_final/1899_fw.mp4	0.0	325.1015980243683	0.09996294975280762
34	305.1733150482178	fix_pre	0		119	32.0	2.5	/experiments/AOT/AOT_stimuli/rescaled_final/0489_fw.mp4	0.0	325.2015609741211	0.9916150569915771
34	306.1569039821625	pulse	0	t		32.0	2.5	/experiments/AOT/AOT_stimuli/rescaled_final/0489_fw.mp4	0.0	326.1851499080658	
34	306.16493010520935	movie	1		247	32.0	2.5	/experiments/AOT/AOT_stimuli/rescaled_final/0489_fw.mp4	0.0	326.19317603111267	2.507997989654541
34	307.7565360069275	pulse	1	t		32.0	2.5	/experiments/AOT/AOT_stimuli/rescaled_final/0489_fw.mp4	0.0	327.7847819328308	
34	308.6729280948639	fix_post	2		12	32.0	2.5	/experiments/AOT/AOT_stimuli/rescaled_final/0489_fw.mp4	0.0	328.7011740207672	0.10039401054382324
35	308.7733221054077	fix_pre	0		120	33.0	2.5	/experiments/AOT/AOT_stimuli/rescaled_final/1044_fw.mp4	0.0	328.80156803131104	1.00006103515625
35	309.35686898231506	pulse	0	t		33.0	2.5	/experiments/AOT/AOT_stimuli/rescaled_final/1044_fw.mp4	0.0	329.3851149082184	
35	309.77338314056396	movie	1		245	33.0	2.5	/experiments/AOT/AOT_stimuli/rescaled_final/1044_fw.mp4	0.0	329.8016290664673	2.4995269775390625
35	310.9569799900055	pulse	1	t		33.0	2.5	/experiments/AOT/AOT_stimuli/rescaled_final/1044_fw.mp4	0.0	330.9852259159088	
35	312.272910118103	fix_post	2		12	33.0	2.5	/experiments/AOT/AOT_stimuli/rescaled_final/1044_fw.mp4	0.0	332.30115604400635	0.10038495063781738
36	312.37329506874084	fix_pre	0		120	34.0	2.5	blank	1.0	332.40154099464417	0.999953031539917
36	312.5568130016327	pulse	0	t		34.0	2.5	blank	1.0	332.585058927536	
36	313.37324810028076	movie	1		300	34.0	2.5	blank	1.0	333.4014940261841	2.500135898590088
36	314.1568350791931	pulse	1	t		34.0	2.5	blank	1.0	334.18508100509644	
36	315.7568111419678	pulse	1	t		34.0	2.5	blank	1.0	335.7850570678711	
36	315.87338399887085	fix_post	2		12	34.0	2.5	blank	1.0	335.90162992477417	0.09995698928833008
37	315.9733409881592	fix_pre	0		120	35.0	2.5	/experiments/AOT/AOT_stimuli/rescaled_final/1336_rv.mp4	0.0	336.0015869140625	1.0000090599060059
37	316.9733500480652	movie	1		243	35.0	2.5	/experiments/AOT/AOT_stimuli/rescaled_final/1336_rv.mp4	0.0	337.0015959739685	2.5000131130218506
37	317.3581199645996	pulse	1	t		35.0	2.5	/experiments/AOT/AOT_stimuli/rescaled_final/1336_rv.mp4	0.0	337.38636589050293	
37	318.94953513145447	pulse	1	t		35.0	2.5	/experiments/AOT/AOT_stimuli/rescaled_final/1336_rv.mp4	0.0	338.9777810573578	
37	319.47336316108704	fix_post	2		12	35.0	2.5	/experiments/AOT/AOT_stimuli/rescaled_final/1336_rv.mp4	0.0	339.50160908699036	0.09985685348510742
38	319.57322001457214	fix_pre	0		119	36.0	2.5	/experiments/AOT/AOT_stimuli/rescaled_final/1282_fw.mp4	0.0	339.60146594047546	0.9917731285095215
38	320.5493700504303	pulse	0	t		36.0	2.5	/experiments/AOT/AOT_stimuli/rescaled_final/1282_fw.mp4	0.0	340.5776159763336	
38	320.56499314308167	movie	1		244	36.0	2.5	/experiments/AOT/AOT_stimuli/rescaled_final/1282_fw.mp4	0.0	340.593239068985	2.5083119869232178
38	322.15628814697266	pulse	1	t		36.0	2.5	/experiments/AOT/AOT_stimuli/rescaled_final/1282_fw.mp4	0.0	342.184534072876	
38	323.0733051300049	fix_post	2		12	36.0	2.5	/experiments/AOT/AOT_stimuli/rescaled_final/1282_fw.mp4	0.0	343.1015510559082	0.10001683235168457
39	323.17332196235657	fix_pre	0		120	37.0	2.5	/experiments/AOT/AOT_stimuli/rescaled_final/0733_fw.mp4	0.0	343.2015678882599	1.0000030994415283
39	323.75679206848145	pulse	0	t		37.0	2.5	/experiments/AOT/AOT_stimuli/rescaled_final/0733_fw.mp4	0.0	343.78503799438477	
39	324.1733250617981	movie	1		245	37.0	2.5	/experiments/AOT/AOT_stimuli/rescaled_final/0733_fw.mp4	0.0	344.2015709877014	2.4999349117279053
39	325.35686898231506	pulse	1	t		37.0	2.5	/experiments/AOT/AOT_stimuli/rescaled_final/0733_fw.mp4	0.0	345.3851149082184	
39	326.673259973526	fix_post	2		12	37.0	2.5	/experiments/AOT/AOT_stimuli/rescaled_final/0733_fw.mp4	0.0	346.7015058994293	0.10005497932434082
40	326.77331495285034	fix_pre	0		120	38.0	2.5	/experiments/AOT/AOT_stimuli/rescaled_final/0887_fw.mp4	0.0	346.80156087875366	0.9999570846557617
40	326.9567701816559	pulse	0	t		38.0	2.5	/experiments/AOT/AOT_stimuli/rescaled_final/0887_fw.mp4	0.0	346.9850161075592	
40	327.7732720375061	movie	1		244	38.0	2.5	/experiments/AOT/AOT_stimuli/rescaled_final/0887_fw.mp4	0.0	347.8015179634094	2.499566078186035
40	328.55674600601196	pulse	1	t		38.0	2.5	/experiments/AOT/AOT_stimuli/rescaled_final/0887_fw.mp4	0.0	348.5849919319153	
40	330.15497612953186	pulse	1	t		38.0	2.5	/experiments/AOT/AOT_stimuli/rescaled_final/0887_fw.mp4	0.0	350.1832220554352	
40	330.27283811569214	fix_post	2		12	38.0	2.5	/experiments/AOT/AOT_stimuli/rescaled_final/0887_fw.mp4	0.0	350.30108404159546	0.10039401054382324
41	330.37323212623596	fix_pre	0		120	39.0	2.5	/experiments/AOT/AOT_stimuli/rescaled_final/0802_rv.mp4	0.0	350.4014780521393	0.9999918937683105
41	331.3732240200043	movie	1		244	39.0	2.5	/experiments/AOT/AOT_stimuli/rescaled_final/0802_rv.mp4	0.0	351.4014699459076	2.5000391006469727
41	331.7564959526062	pulse	1	t		39.0	2.5	/experiments/AOT/AOT_stimuli/rescaled_final/0802_rv.mp4	0.0	351.7847418785095	
41	333.35674810409546	pulse	1	t		39.0	2.5	/experiments/AOT/AOT_stimuli/rescaled_final/0802_rv.mp4	0.0	353.3849940299988	
41	333.87326312065125	fix_post	2		12	39.0	2.5	/experiments/AOT/AOT_stimuli/rescaled_final/0802_rv.mp4	0.0	353.90150904655457	0.10000300407409668
42	333.97326612472534	fix_pre	0		119	40.0	2.5	/experiments/AOT/AOT_stimuli/rescaled_final/0015_fw.mp4	0.0	354.00151205062866	0.9916698932647705
42	334.95671701431274	pulse	0	t		40.0	2.5	/experiments/AOT/AOT_stimuli/rescaled_final/0015_fw.mp4	0.0	354.98496294021606	
42	334.9649360179901	movie	1		247	40.0	2.5	/experiments/AOT/AOT_stimuli/rescaled_final/0015_fw.mp4	0.0	354.99318194389343	2.507866144180298
42	336.5565791130066	pulse	1	t		40.0	2.5	/experiments/AOT/AOT_stimuli/rescaled_final/0015_fw.mp4	0.0	356.5848250389099	
42	337.4728021621704	fix_post	2		12	40.0	2.5	/experiments/AOT/AOT_stimuli/rescaled_final/0015_fw.mp4	0.0	357.50104808807373	0.10044598579406738
43	337.5732481479645	fix_pre	0		120	41.0	2.5	/experiments/AOT/AOT_stimuli/rescaled_final/0015_rv.mp4	0.0	357.6014940738678	0.9999098777770996
43	338.15672516822815	pulse	0	t		41.0	2.5	/experiments/AOT/AOT_stimuli/rescaled_final/0015_rv.mp4	0.0	358.18497109413147	
43	338.5731580257416	movie	1		243	41.0	2.5	/experiments/AOT/AOT_stimuli/rescaled_final/0015_rv.mp4	0.0	358.6014039516449	2.5000240802764893
43	339.7568440437317	pulse	1	t		41.0	2.5	/experiments/AOT/AOT_stimuli/rescaled_final/0015_rv.mp4	0.0	359.785089969635	
43	341.07318210601807	fix_post	2		12	41.0	2.5	/experiments/AOT/AOT_stimuli/rescaled_final/0015_rv.mp4	0.0	361.1014280319214	0.10009002685546875
44	341.17327213287354	fix_pre	0		120	42.0	2.5	blank	1.0	361.20151805877686	0.9999659061431885
44	341.35673904418945	pulse	0	t		42.0	2.5	blank	1.0	361.3849849700928	
44	342.1732380390167	movie	1		300	42.0	2.5	blank	1.0	362.20148396492004	2.4995861053466797
44	342.9562520980835	pulse	1	t		42.0	2.5	blank	1.0	362.9844980239868	
44	344.5566029548645	pulse	1	t		42.0	2.5	blank	1.0	364.5848488807678	
44	344.6728241443634	fix_post	2		12	42.0	2.5	blank	1.0	364.7010700702667	0.10011887550354004
45	344.77294301986694	fix_pre	0		120	43.0	2.5	/experiments/AOT/AOT_stimuli/rescaled_final/1842_rv.mp4	0.0	364.80118894577026	1.0001411437988281
45	345.77308416366577	movie	1		245	43.0	2.5	/experiments/AOT/AOT_stimuli/rescaled_final/1842_rv.mp4	0.0	365.8013300895691	2.500114917755127
45	346.1561939716339	pulse	1	t		43.0	2.5	/experiments/AOT/AOT_stimuli/rescaled_final/1842_rv.mp4	0.0	366.18443989753723	
45	347.75674510002136	pulse	1	t		43.0	2.5	/experiments/AOT/AOT_stimuli/rescaled_final/1842_rv.mp4	0.0	367.7849910259247	
45	348.2731990814209	fix_post	2		12	43.0	2.5	/experiments/AOT/AOT_stimuli/rescaled_final/1842_rv.mp4	0.0	368.3014450073242	0.0999000072479248
46	348.3730990886688	fix_pre	0		119	44.0	2.5	/experiments/AOT/AOT_stimuli/rescaled_final/0754_rv.mp4	0.0	368.40134501457214	0.9916799068450928
46	349.35665798187256	pulse	0	t		44.0	2.5	/experiments/AOT/AOT_stimuli/rescaled_final/0754_rv.mp4	0.0	369.3849039077759	
46	349.3647789955139	movie	1		247	44.0	2.5	/experiments/AOT/AOT_stimuli/rescaled_final/0754_rv.mp4	0.0	369.39302492141724	2.507939100265503
46	350.95657896995544	pulse	1	t		44.0	2.5	/experiments/AOT/AOT_stimuli/rescaled_final/0754_rv.mp4	0.0	370.98482489585876	
46	351.8727180957794	fix_post	2		12	44.0	2.5	/experiments/AOT/AOT_stimuli/rescaled_final/0754_rv.mp4	0.0	371.90096402168274	0.10036206245422363
47	351.97308015823364	fix_pre	0		120	45.0	2.5	/experiments/AOT/AOT_stimuli/rescaled_final/0686_fw.mp4	0.0	372.00132608413696	1.0000128746032715
47	352.5565810203552	pulse	0	t		45.0	2.5	/experiments/AOT/AOT_stimuli/rescaled_final/0686_fw.mp4	0.0	372.58482694625854	
47	352.9730930328369	movie	1		245	45.0	2.5	/experiments/AOT/AOT_stimuli/rescaled_final/0686_fw.mp4	0.0	373.00133895874023	2.499980926513672
47	354.1566150188446	pulse	1	t		45.0	2.5	/experiments/AOT/AOT_stimuli/rescaled_final/0686_fw.mp4	0.0	374.1848609447479	
47	355.4730739593506	fix_post	2		12	45.0	2.5	/experiments/AOT/AOT_stimuli/rescaled_final/0686_fw.mp4	0.0	375.5013198852539	0.10003399848937988
48	355.57310795783997	fix_pre	0		120	46.0	2.5	/experiments/AOT/AOT_stimuli/rescaled_final/0754_fw.mp4	0.0	375.6013538837433	0.9995419979095459
48	355.7565851211548	pulse	0	t		46.0	2.5	/experiments/AOT/AOT_stimuli/rescaled_final/0754_fw.mp4	0.0	375.7848310470581	
48	356.5726499557495	movie	1		245	46.0	2.5	/experiments/AOT/AOT_stimuli/rescaled_final/0754_fw.mp4	0.0	376.60089588165283	2.5004842281341553
48	357.35648012161255	pulse	1	t		46.0	2.5	/experiments/AOT/AOT_stimuli/rescaled_final/0754_fw.mp4	0.0	377.38472604751587	
48	358.95276713371277	pulse	1	t		46.0	2.5	/experiments/AOT/AOT_stimuli/rescaled_final/0754_fw.mp4	0.0	378.9810130596161	
48	359.07313418388367	fix_post	2		12	46.0	2.5	/experiments/AOT/AOT_stimuli/rescaled_final/0754_fw.mp4	0.0	379.101380109787	0.09998583793640137
49	359.17312002182007	fix_pre	0		120	47.0	2.5	/experiments/AOT/AOT_stimuli/rescaled_final/0859_rv.mp4	0.0	379.2013659477234	0.9999330043792725
49	360.17305302619934	movie	1		243	47.0	2.5	/experiments/AOT/AOT_stimuli/rescaled_final/0859_rv.mp4	0.0	380.20129895210266	2.5001380443573
49	360.5562460422516	pulse	1	t		47.0	2.5	/experiments/AOT/AOT_stimuli/rescaled_final/0859_rv.mp4	0.0	380.5844919681549	
49	362.1565201282501	pulse	1	t		47.0	2.5	/experiments/AOT/AOT_stimuli/rescaled_final/0859_rv.mp4	0.0	382.18476605415344	
49	362.67319107055664	fix_post	2		12	47.0	2.5	/experiments/AOT/AOT_stimuli/rescaled_final/0859_rv.mp4	0.0	382.70143699645996	0.0998830795288086
50	362.77307415008545	fix_pre	0		119	48.0	2.5	/experiments/AOT/AOT_stimuli/rescaled_final/0601_rv.mp4	0.0	382.80132007598877	0.9916379451751709
50	363.75657296180725	pulse	0	t		48.0	2.5	/experiments/AOT/AOT_stimuli/rescaled_final/0601_rv.mp4	0.0	383.78481888771057	
50	363.7647120952606	movie	1		246	48.0	2.5	/experiments/AOT/AOT_stimuli/rescaled_final/0601_rv.mp4	0.0	383.79295802116394	2.5083019733428955
50	365.3562231063843	pulse	1	t		48.0	2.5	/experiments/AOT/AOT_stimuli/rescaled_final/0601_rv.mp4	0.0	385.3844690322876	
50	366.2730140686035	fix_post	2		12	48.0	2.5	/experiments/AOT/AOT_stimuli/rescaled_final/0601_rv.mp4	0.0	386.30125999450684	0.100006103515625
51	366.37302017211914	fix_pre	0		120	49.0	2.5	blank	1.0	386.40126609802246	0.9999139308929443
51	366.9565460681915	pulse	0	t		49.0	2.5	blank	1.0	386.98479199409485	
51	367.3729341030121	movie	1		300	49.0	2.5	blank	1.0	387.4011800289154	2.5000898838043213
51	368.556547164917	pulse	1	t		49.0	2.5	blank	1.0	388.5847930908203	
51	369.8730239868164	fix_post	2		12	49.0	2.5	blank	1.0	389.9012699127197	0.09995913505554199
52	369.97298312187195	fix_pre	0		120	50.0	2.5	/experiments/AOT/AOT_stimuli/rescaled_final/0895_fw.mp4	0.0	390.00122904777527	0.9999978542327881
52	370.15650606155396	pulse	0	t		50.0	2.5	/experiments/AOT/AOT_stimuli/rescaled_final/0895_fw.mp4	0.0	390.1847519874573	
52	370.97298097610474	movie	1		244	50.0	2.5	/experiments/AOT/AOT_stimuli/rescaled_final/0895_fw.mp4	0.0	391.00122690200806	2.500005006790161
52	371.75647807121277	pulse	1	t		50.0	2.5	/experiments/AOT/AOT_stimuli/rescaled_final/0895_fw.mp4	0.0	391.7847239971161	
52	373.35481214523315	pulse	1	t		50.0	2.5	/experiments/AOT/AOT_stimuli/rescaled_final/0895_fw.mp4	0.0	393.3830580711365	
52	373.4729859828949	fix_post	2		12	50.0	2.5	/experiments/AOT/AOT_stimuli/rescaled_final/0895_fw.mp4	0.0	393.5012319087982	0.10001802444458008
53	373.5730040073395	fix_pre	0		120	51.0	2.5	/experiments/AOT/AOT_stimuli/rescaled_final/1546_rv.mp4	0.0	393.6012499332428	1.0001120567321777
53	374.57311606407166	movie	1		245	51.0	2.5	/experiments/AOT/AOT_stimuli/rescaled_final/1546_rv.mp4	0.0	394.601361989975	2.4998979568481445
53	374.9566249847412	pulse	1	t		51.0	2.5	/experiments/AOT/AOT_stimuli/rescaled_final/1546_rv.mp4	0.0	394.98487091064453	
53	376.55642199516296	pulse	1	t		51.0	2.5	/experiments/AOT/AOT_stimuli/rescaled_final/1546_rv.mp4	0.0	396.5846679210663	
53	377.0730140209198	fix_post	2		12	51.0	2.5	/experiments/AOT/AOT_stimuli/rescaled_final/1546_rv.mp4	0.0	397.1012599468231	0.1000051498413086
54	377.1730191707611	fix_pre	0		119	52.0	2.5	/experiments/AOT/AOT_stimuli/rescaled_final/0903_rv.mp4	0.0	397.20126509666443	0.991649866104126
54	378.15650510787964	pulse	0	t		52.0	2.5	/experiments/AOT/AOT_stimuli/rescaled_final/0903_rv.mp4	0.0	398.18475103378296	
54	378.16466903686523	movie	1		247	52.0	2.5	/experiments/AOT/AOT_stimuli/rescaled_final/0903_rv.mp4	0.0	398.19291496276855	2.508402109146118
54	379.75602412223816	pulse	1	t		52.0	2.5	/experiments/AOT/AOT_stimuli/rescaled_final/0903_rv.mp4	0.0	399.7842700481415	
54	380.67307114601135	fix_post	2		12	52.0	2.5	/experiments/AOT/AOT_stimuli/rescaled_final/0903_rv.mp4	0.0	400.7013170719147	0.09993386268615723
55	380.7730050086975	fix_pre	0		120	53.0	2.5	/experiments/AOT/AOT_stimuli/rescaled_final/1292_rv.mp4	0.0	400.80125093460083	1.0001330375671387
55	381.3565020561218	pulse	0	t		53.0	2.5	/experiments/AOT/AOT_stimuli/rescaled_final/1292_rv.mp4	0.0	401.38474798202515	
55	381.77313804626465	movie	1		244	53.0	2.5	/experiments/AOT/AOT_stimuli/rescaled_final/1292_rv.mp4	0.0	401.80138397216797	2.4998350143432617
55	382.95655608177185	pulse	1	t		53.0	2.5	/experiments/AOT/AOT_stimuli/rescaled_final/1292_rv.mp4	0.0	402.98480200767517	
55	384.2729730606079	fix_post	2		12	53.0	2.5	/experiments/AOT/AOT_stimuli/rescaled_final/1292_rv.mp4	0.0	404.30121898651123	0.10010504722595215
56	384.37307810783386	fix_pre	0		120	54.0	2.5	/experiments/AOT/AOT_stimuli/rescaled_final/1054_fw.mp4	0.0	404.4013240337372	0.9998879432678223
56	384.5564889907837	pulse	0	t		54.0	2.5	/experiments/AOT/AOT_stimuli/rescaled_final/1054_fw.mp4	0.0	404.584734916687	
56	385.3729660511017	movie	1		243	54.0	2.5	/experiments/AOT/AOT_stimuli/rescaled_final/1054_fw.mp4	0.0	405.401211977005	2.5000929832458496
56	386.1564540863037	pulse	1	t		54.0	2.5	/experiments/AOT/AOT_stimuli/rescaled_final/1054_fw.mp4	0.0	406.18470001220703	
56	387.75499415397644	pulse	1	t		54.0	2.5	/experiments/AOT/AOT_stimuli/rescaled_final/1054_fw.mp4	0.0	407.78324007987976	
56	387.87305903434753	fix_post	2		12	54.0	2.5	/experiments/AOT/AOT_stimuli/rescaled_final/1054_fw.mp4	0.0	407.90130496025085	0.0994729995727539
57	387.9725320339203	fix_pre	0		120	55.0	2.5	blank	1.0	408.0007779598236	1.000488042831421
57	388.9730200767517	movie	1		300	55.0	2.5	blank	1.0	409.00126600265503	2.4998979568481445
57	389.356467962265	pulse	1	t		55.0	2.5	blank	1.0	409.38471388816833	
57	390.9563961029053	pulse	1	t		55.0	2.5	blank	1.0	410.9846420288086	
57	391.47291803359985	fix_post	2		12	55.0	2.5	blank	1.0	411.5011639595032	0.09996509552001953
58	391.5728831291199	fix_pre	0		119	56.0	2.5	/experiments/AOT/AOT_stimuli/rescaled_final/1226_fw.mp4	0.0	411.6011290550232	0.9917738437652588
58	392.556440114975	pulse	0	t		56.0	2.5	/experiments/AOT/AOT_stimuli/rescaled_final/1226_fw.mp4	0.0	412.5846860408783	
58	392.56465697288513	movie	1		245	56.0	2.5	/experiments/AOT/AOT_stimuli/rescaled_final/1226_fw.mp4	0.0	412.59290289878845	2.5082590579986572
58	394.1559691429138	pulse	1	t		56.0	2.5	/experiments/AOT/AOT_stimuli/rescaled_final/1226_fw.mp4	0.0	414.18421506881714	
58	395.0729160308838	fix_post	2		12	56.0	2.5	/experiments/AOT/AOT_stimuli/rescaled_final/1226_fw.mp4	0.0	415.1011619567871	0.10002303123474121
59	395.17293906211853	fix_pre	0		120	57.0	2.5	/experiments/AOT/AOT_stimuli/rescaled_final/1382_fw.mp4	0.0	415.20118498802185	0.9999790191650391
59	395.7565631866455	pulse	0	t		57.0	2.5	/experiments/AOT/AOT_stimuli/rescaled_final/1382_fw.mp4	0.0	415.7848091125488	
59	396.17291808128357	movie	1		246	57.0	2.5	/experiments/AOT/AOT_stimuli/rescaled_final/1382_fw.mp4	0.0	416.2011640071869	2.49993896484375
59	397.35647916793823	pulse	1	t		57.0	2.5	/experiments/AOT/AOT_stimuli/rescaled_final/1382_fw.mp4	0.0	417.38472509384155	
59	398.6728570461273	fix_post	2		12	57.0	2.5	/experiments/AOT/AOT_stimuli/rescaled_final/1382_fw.mp4	0.0	418.70110297203064	0.09960412979125977
60	398.7724611759186	fix_pre	0		120	58.0	2.5	/experiments/AOT/AOT_stimuli/rescaled_final/1054_rv.mp4	0.0	418.8007071018219	1.0000438690185547
60	398.95595717430115	pulse	0	t		58.0	2.5	/experiments/AOT/AOT_stimuli/rescaled_final/1054_rv.mp4	0.0	418.98420310020447	
60	399.77250504493713	movie	1		244	58.0	2.5	/experiments/AOT/AOT_stimuli/rescaled_final/1054_rv.mp4	0.0	419.80075097084045	2.500364065170288
60	400.55604100227356	pulse	1	t		58.0	2.5	/experiments/AOT/AOT_stimuli/rescaled_final/1054_rv.mp4	0.0	420.5842869281769	
60	402.1547451019287	pulse	1	t		58.0	2.5	/experiments/AOT/AOT_stimuli/rescaled_final/1054_rv.mp4	0.0	422.18299102783203	
60	402.2728691101074	fix_post	2		12	58.0	2.5	/experiments/AOT/AOT_stimuli/rescaled_final/1054_rv.mp4	0.0	422.30111503601074	0.09999895095825195
61	402.3728680610657	fix_pre	0		120	59.0	2.5	/experiments/AOT/AOT_stimuli/rescaled_final/1327_fw.mp4	0.0	422.401113986969	1.0000250339508057
61	403.3728930950165	movie	1		245	59.0	2.5	/experiments/AOT/AOT_stimuli/rescaled_final/1327_fw.mp4	0.0	423.4011390209198	2.49993896484375
61	403.75567507743835	pulse	1	t		59.0	2.5	/experiments/AOT/AOT_stimuli/rescaled_final/1327_fw.mp4	0.0	423.7839210033417	
61	405.35639214515686	pulse	1	t		59.0	2.5	/experiments/AOT/AOT_stimuli/rescaled_final/1327_fw.mp4	0.0	425.3846380710602	
61	405.87283205986023	fix_post	2		12	59.0	2.5	/experiments/AOT/AOT_stimuli/rescaled_final/1327_fw.mp4	0.0	425.90107798576355	0.10003805160522461
62	405.97287011146545	fix_pre	0		119	60.0	2.5	/experiments/AOT/AOT_stimuli/rescaled_final/1489_rv.mp4	0.0	426.0011160373688	0.9916238784790039
62	406.95623302459717	pulse	0	t		60.0	2.5	/experiments/AOT/AOT_stimuli/rescaled_final/1489_rv.mp4	0.0	426.9844789505005	
62	406.96449398994446	movie	1		244	60.0	2.5	/experiments/AOT/AOT_stimuli/rescaled_final/1489_rv.mp4	0.0	426.9927399158478	2.508294105529785
62	408.5559301376343	pulse	1	t		60.0	2.5	/experiments/AOT/AOT_stimuli/rescaled_final/1489_rv.mp4	0.0	428.5841760635376	
62	409.47278809547424	fix_post	2		12	60.0	2.5	/experiments/AOT/AOT_stimuli/rescaled_final/1489_rv.mp4	0.0	429.50103402137756	0.09998607635498047
63	409.5727741718292	fix_pre	0		120	61.0	2.5	/experiments/AOT/AOT_stimuli/rescaled_final/2106_fw.mp4	0.0	429.60102009773254	1.0000360012054443
63	410.15636110305786	pulse	0	t		61.0	2.5	/experiments/AOT/AOT_stimuli/rescaled_final/2106_fw.mp4	0.0	430.1846070289612	
63	410.57281017303467	movie	1		244	61.0	2.5	/experiments/AOT/AOT_stimuli/rescaled_final/2106_fw.mp4	0.0	430.601056098938	2.4999489784240723
63	411.75637316703796	pulse	1	t		61.0	2.5	/experiments/AOT/AOT_stimuli/rescaled_final/2106_fw.mp4	0.0	431.7846190929413	
63	413.07275915145874	fix_post	2		12	61.0	2.5	/experiments/AOT/AOT_stimuli/rescaled_final/2106_fw.mp4	0.0	433.10100507736206	0.10000491142272949
64	413.17276406288147	fix_pre	0		120	62.0	2.5	/experiments/AOT/AOT_stimuli/rescaled_final/2074_fw.mp4	0.0	433.2010099887848	0.9996728897094727
64	413.35643196105957	pulse	0	t		62.0	2.5	/experiments/AOT/AOT_stimuli/rescaled_final/2074_fw.mp4	0.0	433.3846778869629	
64	414.17243695259094	movie	1		243	62.0	2.5	/experiments/AOT/AOT_stimuli/rescaled_final/2074_fw.mp4	0.0	434.20068287849426	2.4999642372131348
64	414.9562439918518	pulse	1	t		62.0	2.5	/experiments/AOT/AOT_stimuli/rescaled_final/2074_fw.mp4	0.0	434.9844899177551	
64	416.5546281337738	pulse	1	t		62.0	2.5	/experiments/AOT/AOT_stimuli/rescaled_final/2074_fw.mp4	0.0	436.5828740596771	
64	416.6724011898041	fix_post	2		12	62.0	2.5	/experiments/AOT/AOT_stimuli/rescaled_final/2074_fw.mp4	0.0	436.7006471157074	0.10033679008483887
65	416.7727379798889	fix_pre	0		120	63.0	2.5	blank	1.0	436.80098390579224	1.0001261234283447
65	417.77286410331726	movie	1		300	63.0	2.5	blank	1.0	437.8011100292206	2.4998860359191895
65	418.15632796287537	pulse	1	t		63.0	2.5	blank	1.0	438.1845738887787	
65	419.7561800479889	pulse	1	t		63.0	2.5	blank	1.0	439.7844259738922	
65	420.27275013923645	fix_post	2		12	63.0	2.5	blank	1.0	440.30099606513977	0.10000801086425781
66	420.3727581501007	fix_pre	0		119	64.0	2.5	/experiments/AOT/AOT_stimuli/rescaled_final/2138_fw.mp4	0.0	440.401004076004	0.9916508197784424
66	421.3562750816345	pulse	0	t		64.0	2.5	/experiments/AOT/AOT_stimuli/rescaled_final/2138_fw.mp4	0.0	441.38452100753784	
66	421.36440896987915	movie	1		247	64.0	2.5	/experiments/AOT/AOT_stimuli/rescaled_final/2138_fw.mp4	0.0	441.39265489578247	2.5083181858062744
66	422.95554995536804	pulse	1	t		64.0	2.5	/experiments/AOT/AOT_stimuli/rescaled_final/2138_fw.mp4	0.0	442.98379588127136	
66	423.8727271556854	fix_post	2		12	64.0	2.5	/experiments/AOT/AOT_stimuli/rescaled_final/2138_fw.mp4	0.0	443.90097308158875	0.09991693496704102
67	423.97264409065247	fix_pre	0		120	65.0	2.5	/experiments/AOT/AOT_stimuli/rescaled_final/2157_fw.mp4	0.0	444.0008900165558	1.0001609325408936
67	424.55628514289856	pulse	0	t		65.0	2.5	/experiments/AOT/AOT_stimuli/rescaled_final/2157_fw.mp4	0.0	444.5845310688019	
67	424.97280502319336	movie	1		243	65.0	2.5	/experiments/AOT/AOT_stimuli/rescaled_final/2157_fw.mp4	0.0	445.0010509490967	2.4999070167541504
67	426.15624618530273	pulse	1	t		65.0	2.5	/experiments/AOT/AOT_stimuli/rescaled_final/2157_fw.mp4	0.0	446.18449211120605	
67	427.4727120399475	fix_post	2		12	65.0	2.5	/experiments/AOT/AOT_stimuli/rescaled_final/2157_fw.mp4	0.0	447.50095796585083	0.1000361442565918
68	427.5727481842041	fix_pre	0		120	66.0	2.5	/experiments/AOT/AOT_stimuli/rescaled_final/1983_rv.mp4	0.0	447.6009941101074	0.9999098777770996
68	427.7562711238861	pulse	0	t		66.0	2.5	/experiments/AOT/AOT_stimuli/rescaled_final/1983_rv.mp4	0.0	447.78451704978943	
68	428.5726580619812	movie	1		247	66.0	2.5	/experiments/AOT/AOT_stimuli/rescaled_final/1983_rv.mp4	0.0	448.6009039878845	2.500082015991211
68	429.35621309280396	pulse	1	t		66.0	2.5	/experiments/AOT/AOT_stimuli/rescaled_final/1983_rv.mp4	0.0	449.3844590187073	
68	430.9562680721283	pulse	1	t		66.0	2.5	/experiments/AOT/AOT_stimuli/rescaled_final/1983_rv.mp4	0.0	450.9845139980316	
68	431.0727400779724	fix_post	2		12	66.0	2.5	/experiments/AOT/AOT_stimuli/rescaled_final/1983_rv.mp4	0.0	451.10098600387573	0.10003209114074707
69	431.17277216911316	fix_pre	0		120	67.0	2.5	/experiments/AOT/AOT_stimuli/rescaled_final/1262_rv.mp4	0.0	451.2010180950165	0.9999740123748779
69	432.17274618148804	movie	1		244	67.0	2.5	/experiments/AOT/AOT_stimuli/rescaled_final/1262_rv.mp4	0.0	452.20099210739136	2.5001227855682373
69	432.5574061870575	pulse	1	t		67.0	2.5	/experiments/AOT/AOT_stimuli/rescaled_final/1262_rv.mp4	0.0	452.5856521129608	
69	434.1562509536743	pulse	1	t		67.0	2.5	/experiments/AOT/AOT_stimuli/rescaled_final/1262_rv.mp4	0.0	454.18449687957764	
69	434.6728689670563	fix_post	2		12	67.0	2.5	/experiments/AOT/AOT_stimuli/rescaled_final/1262_rv.mp4	0.0	454.7011148929596	0.09991312026977539
70	434.77278208732605	fix_pre	0		119	68.0	2.5	/experiments/AOT/AOT_stimuli/rescaled_final/1536_fw.mp4	0.0	454.80102801322937	0.9916300773620605
70	435.7562551498413	pulse	0	t		68.0	2.5	/experiments/AOT/AOT_stimuli/rescaled_final/1536_fw.mp4	0.0	455.78450107574463	
70	435.7644121646881	movie	1		245	68.0	2.5	/experiments/AOT/AOT_stimuli/rescaled_final/1536_fw.mp4	0.0	455.79265809059143	2.508253812789917
70	437.3561301231384	pulse	1	t		68.0	2.5	/experiments/AOT/AOT_stimuli/rescaled_final/1536_fw.mp4	0.0	457.38437604904175	
70	438.272665977478	fix_post	2		12	68.0	2.5	/experiments/AOT/AOT_stimuli/rescaled_final/1536_fw.mp4	0.0	458.30091190338135	0.09998202323913574
71	438.37264800071716	fix_pre	0		120	69.0	2.5	blank	1.0	458.4008939266205	1.0000100135803223
71	438.95620918273926	pulse	0	t		69.0	2.5	blank	1.0	458.9844551086426	
71	439.3726580142975	movie	1		300	69.0	2.5	blank	1.0	459.4009039402008	2.499998092651367
71	440.55613708496094	pulse	1	t		69.0	2.5	blank	1.0	460.58438301086426	
71	441.87265610694885	fix_post	2		12	69.0	2.5	blank	1.0	461.9009020328522	0.09998893737792969
72	441.9726450443268	fix_pre	0		120	70.0	2.5	/experiments/AOT/AOT_stimuli/rescaled_final/0560_rv.mp4	0.0	462.0008909702301	0.9996490478515625
72	442.15611696243286	pulse	0	t		70.0	2.5	/experiments/AOT/AOT_stimuli/rescaled_final/0560_rv.mp4	0.0	462.1843628883362	
72	442.97229409217834	movie	1		245	70.0	2.5	/experiments/AOT/AOT_stimuli/rescaled_final/0560_rv.mp4	0.0	463.00054001808167	2.499906063079834
72	443.75625801086426	pulse	1	t		70.0	2.5	/experiments/AOT/AOT_stimuli/rescaled_final/0560_rv.mp4	0.0	463.7845039367676	
72	445.35576701164246	pulse	1	t		70.0	2.5	/experiments/AOT/AOT_stimuli/rescaled_final/0560_rv.mp4	0.0	465.3840129375458	
72	445.4722001552582	fix_post	2		12	70.0	2.5	/experiments/AOT/AOT_stimuli/rescaled_final/0560_rv.mp4	0.0	465.5004460811615	0.1004788875579834
73	445.57267904281616	fix_pre	0		120	71.0	2.5	/experiments/AOT/AOT_stimuli/rescaled_final/1211_fw.mp4	0.0	465.6009249687195	0.9999730587005615
73	446.5726521015167	movie	1		245	71.0	2.5	/experiments/AOT/AOT_stimuli/rescaled_final/1211_fw.mp4	0.0	466.60089802742004	2.500067949295044
73	446.956258058548	pulse	1	t		71.0	2.5	/experiments/AOT/AOT_stimuli/rescaled_final/1211_fw.mp4	0.0	466.9845039844513	
73	448.5561339855194	pulse	1	t		71.0	2.5	/experiments/AOT/AOT_stimuli/rescaled_final/1211_fw.mp4	0.0	468.58437991142273	
73	449.07272005081177	fix_post	2		12	71.0	2.5	/experiments/AOT/AOT_stimuli/rescaled_final/1211_fw.mp4	0.0	469.1009659767151	0.09992504119873047
74	449.1726450920105	fix_pre	0		119	72.0	2.5	/experiments/AOT/AOT_stimuli/rescaled_final/1568_rv.mp4	0.0	469.2008910179138	0.9916660785675049
74	450.15617418289185	pulse	0	t		72.0	2.5	/experiments/AOT/AOT_stimuli/rescaled_final/1568_rv.mp4	0.0	470.18442010879517	
74	450.164311170578	movie	1		246	72.0	2.5	/experiments/AOT/AOT_stimuli/rescaled_final/1568_rv.mp4	0.0	470.1925570964813	2.508358955383301
74	451.75646209716797	pulse	1	t		72.0	2.5	/experiments/AOT/AOT_stimuli/rescaled_final/1568_rv.mp4	0.0	471.7847080230713	
74	452.6726701259613	fix_post	2		12	72.0	2.5	/experiments/AOT/AOT_stimuli/rescaled_final/1568_rv.mp4	0.0	472.7009160518646	0.09989690780639648
75	452.7725670337677	fix_pre	0		120	73.0	2.5	/experiments/AOT/AOT_stimuli/rescaled_final/0409_fw.mp4	0.0	472.800812959671	1.0002000331878662
75	453.356094121933	pulse	0	t		73.0	2.5	/experiments/AOT/AOT_stimuli/rescaled_final/0409_fw.mp4	0.0	473.3843400478363	
75	453.77276706695557	movie	1		246	73.0	2.5	/experiments/AOT/AOT_stimuli/rescaled_final/0409_fw.mp4	0.0	473.8010129928589	2.499941110610962
75	454.9556860923767	pulse	1	t		73.0	2.5	/experiments/AOT/AOT_stimuli/rescaled_final/0409_fw.mp4	0.0	474.98393201828003	
75	456.2727081775665	fix_post	2		12	73.0	2.5	/experiments/AOT/AOT_stimuli/rescaled_final/0409_fw.mp4	0.0	476.30095410346985	0.1000819206237793
76	456.3727900981903	fix_pre	0		120	74.0	2.5	/experiments/AOT/AOT_stimuli/rescaled_final/1820_rv.mp4	0.0	476.4010360240936	1.0001769065856934
76	456.5562951564789	pulse	0	t		74.0	2.5	/experiments/AOT/AOT_stimuli/rescaled_final/1820_rv.mp4	0.0	476.5845410823822	
76	457.372967004776	movie	1		244	74.0	2.5	/experiments/AOT/AOT_stimuli/rescaled_final/1820_rv.mp4	0.0	477.4012129306793	2.499526023864746
76	458.1560070514679	pulse	1	t		74.0	2.5	/experiments/AOT/AOT_stimuli/rescaled_final/1820_rv.mp4	0.0	478.1842529773712	
76	459.7521450519562	pulse	1	t		74.0	2.5	/experiments/AOT/AOT_stimuli/rescaled_final/1820_rv.mp4	0.0	479.7803909778595	
76	459.87249302864075	fix_post	2		12	74.0	2.5	/experiments/AOT/AOT_stimuli/rescaled_final/1820_rv.mp4	0.0	479.90073895454407	0.1001291275024414
77	459.9726221561432	fix_pre	0		120	75.0	2.5	/experiments/AOT/AOT_stimuli/rescaled_final/1639_rv.mp4	0.0	480.0008680820465	1.0000050067901611
77	460.97262716293335	movie	1		243	75.0	2.5	/experiments/AOT/AOT_stimuli/rescaled_final/1639_rv.mp4	0.0	481.00087308883667	2.4999749660491943
77	461.3563070297241	pulse	1	t		75.0	2.5	/experiments/AOT/AOT_stimuli/rescaled_final/1639_rv.mp4	0.0	481.38455295562744	
77	462.9559590816498	pulse	1	t		75.0	2.5	/experiments/AOT/AOT_stimuli/rescaled_final/1639_rv.mp4	0.0	482.9842050075531	
77	463.47260212898254	fix_post	2		12	75.0	2.5	/experiments/AOT/AOT_stimuli/rescaled_final/1639_rv.mp4	0.0	483.50084805488586	0.09998798370361328
78	463.57259011268616	fix_pre	0		119	76.0	2.5	blank	1.0	483.6008360385895	0.991584062576294
78	464.5560419559479	pulse	0	t		76.0	2.5	blank	1.0	484.5842878818512	
78	464.56417417526245	movie	1		301	76.0	2.5	blank	1.0	484.59242010116577	2.5083229541778564
78	466.1560730934143	pulse	1	t		76.0	2.5	blank	1.0	486.1843190193176	
78	467.0724971294403	fix_post	2		12	76.0	2.5	blank	1.0	487.1007430553436	0.10001301765441895
79	467.1725101470947	fix_pre	0		120	77.0	2.5	/experiments/AOT/AOT_stimuli/rescaled_final/1586_rv.mp4	0.0	487.20075607299805	0.9999828338623047
79	467.7560451030731	pulse	0	t		77.0	2.5	/experiments/AOT/AOT_stimuli/rescaled_final/1586_rv.mp4	0.0	487.78429102897644	
79	468.17249298095703	movie	1		245	77.0	2.5	/experiments/AOT/AOT_stimuli/rescaled_final/1586_rv.mp4	0.0	488.20073890686035	2.499657154083252
79	469.3560721874237	pulse	1	t		77.0	2.5	/experiments/AOT/AOT_stimuli/rescaled_final/1586_rv.mp4	0.0	489.384318113327	
79	470.6721501350403	fix_post	2		12	77.0	2.5	/experiments/AOT/AOT_stimuli/rescaled_final/1586_rv.mp4	0.0	490.7003960609436	0.10037589073181152
80	470.7725260257721	fix_pre	0		120	78.0	2.5	/experiments/AOT/AOT_stimuli/rescaled_final/1842_fw.mp4	0.0	490.8007719516754	0.9995450973510742
80	470.9560241699219	pulse	0	t		78.0	2.5	/experiments/AOT/AOT_stimuli/rescaled_final/1842_fw.mp4	0.0	490.9842700958252	
80	471.77207112312317	movie	1		246	78.0	2.5	/experiments/AOT/AOT_stimuli/rescaled_final/1842_fw.mp4	0.0	491.8003170490265	2.500520944595337
80	472.5560300350189	pulse	1	t		78.0	2.5	/experiments/AOT/AOT_stimuli/rescaled_final/1842_fw.mp4	0.0	492.58427596092224	
80	474.1548070907593	pulse	1	t		78.0	2.5	/experiments/AOT/AOT_stimuli/rescaled_final/1842_fw.mp4	0.0	494.1830530166626	
80	474.2725920677185	fix_post	2		12	78.0	2.5	/experiments/AOT/AOT_stimuli/rescaled_final/1842_fw.mp4	0.0	494.3008379936218	0.09985995292663574
81	474.37245202064514	fix_pre	0		120	79.0	2.5	/experiments/AOT/AOT_stimuli/rescaled_final/0502_fw.mp4	0.0	494.40069794654846	1.0000691413879395
81	475.3725211620331	movie	1		244	79.0	2.5	/experiments/AOT/AOT_stimuli/rescaled_final/0502_fw.mp4	0.0	495.4007670879364	2.500060796737671
81	475.7556309700012	pulse	1	t		79.0	2.5	/experiments/AOT/AOT_stimuli/rescaled_final/0502_fw.mp4	0.0	495.78387689590454	
81	477.3558511734009	pulse	1	t		79.0	2.5	/experiments/AOT/AOT_stimuli/rescaled_final/0502_fw.mp4	0.0	497.3840970993042	
81	477.87258195877075	fix_post	2		12	79.0	2.5	/experiments/AOT/AOT_stimuli/rescaled_final/0502_fw.mp4	0.0	497.9008278846741	0.09989500045776367
82	477.9724769592285	fix_pre	0		119	80.0	2.5	/experiments/AOT/AOT_stimuli/rescaled_final/0416_rv.mp4	0.0	498.00072288513184	0.9916210174560547
82	478.95597195625305	pulse	0	t		80.0	2.5	/experiments/AOT/AOT_stimuli/rescaled_final/0416_rv.mp4	0.0	498.9842178821564	
82	478.96409797668457	movie	1		245	80.0	2.5	/experiments/AOT/AOT_stimuli/rescaled_final/0416_rv.mp4	0.0	498.9923439025879	2.5083839893341064
82	480.5570821762085	pulse	1	t		80.0	2.5	/experiments/AOT/AOT_stimuli/rescaled_final/0416_rv.mp4	0.0	500.5853281021118	
82	481.4724819660187	fix_post	2		12	80.0	2.5	/experiments/AOT/AOT_stimuli/rescaled_final/0416_rv.mp4	0.0	501.500727891922	0.09999918937683105
83	481.5724811553955	fix_pre	0		120	81.0	2.5	/experiments/AOT/AOT_stimuli/rescaled_final/1568_fw.mp4	0.0	501.6007270812988	1.0000629425048828
83	482.15590500831604	pulse	0	t		81.0	2.5	/experiments/AOT/AOT_stimuli/rescaled_final/1568_fw.mp4	0.0	502.18415093421936	
83	482.5725440979004	movie	1		245	81.0	2.5	/experiments/AOT/AOT_stimuli/rescaled_final/1568_fw.mp4	0.0	502.6007900238037	2.499850034713745
83	483.7560269832611	pulse	1	t		81.0	2.5	/experiments/AOT/AOT_stimuli/rescaled_final/1568_fw.mp4	0.0	503.78427290916443	
83	485.07239413261414	fix_post	2		12	81.0	2.5	/experiments/AOT/AOT_stimuli/rescaled_final/1568_fw.mp4	0.0	505.10064005851746	0.10004091262817383
84	485.1724350452423	fix_pre	0		120	82.0	2.5	/experiments/AOT/AOT_stimuli/rescaled_final/0166_rv.mp4	0.0	505.20068097114563	1.0000109672546387
84	485.3559241294861	pulse	0	t		82.0	2.5	/experiments/AOT/AOT_stimuli/rescaled_final/0166_rv.mp4	0.0	505.3841700553894	
84	486.17244601249695	movie	1		243	82.0	2.5	/experiments/AOT/AOT_stimuli/rescaled_final/0166_rv.mp4	0.0	506.20069193840027	2.4999589920043945
84	486.955904006958	pulse	1	t		82.0	2.5	/experiments/AOT/AOT_stimuli/rescaled_final/0166_rv.mp4	0.0	506.9841499328613	
84	488.5543761253357	pulse	1	t		82.0	2.5	/experiments/AOT/AOT_stimuli/rescaled_final/0166_rv.mp4	0.0	508.582622051239	
84	488.67240500450134	fix_post	2		12	82.0	2.5	/experiments/AOT/AOT_stimuli/rescaled_final/0166_rv.mp4	0.0	508.70065093040466	0.10006308555603027
85	488.7724680900574	fix_pre	0		120	83.0	2.5	blank	1.0	508.8007140159607	1.0000009536743164
85	489.7724690437317	movie	1		300	83.0	2.5	blank	1.0	509.800714969635	2.5000429153442383
85	490.15592312812805	pulse	1	t		83.0	2.5	blank	1.0	510.1841690540314	
85	491.75588607788086	pulse	1	t		83.0	2.5	blank	1.0	511.7841320037842	
85	492.2725119590759	fix_post	2		12	83.0	2.5	blank	1.0	512.3007578849792	0.09998011589050293
87	492.37249207496643	stim	0		1716					512.4007380008698	14.299935102462769
87	493.35586500167847	pulse	0	t						513.3841109275818	
87	494.955952167511	pulse	0	t						514.9841980934143	
87	496.5559380054474	pulse	0	t						516.5841839313507	
87	498.15593814849854	pulse	0	t						518.1841840744019	
87	499.75585198402405	pulse	0	t						519.7840979099274	
87	501.3558611869812	pulse	0	t						521.3841071128845	
87	502.95581817626953	pulse	0	t						522.9840641021729	
87	504.5559329986572	pulse	0	t						524.5841789245605	
87	506.15581917762756	pulse	0	t						526.1840651035309	
