trial_nr	onset	event_type	phase	response	nr_frames	movie_index	movie_duration	movie_file	blank	onset_abs	duration
0	0.1338062286376953	stim	0		29					37.9903621673584	0.2411489486694336
0	0.3669440746307373	response	0	space						38.22350001335144	
1	0.3749551773071289	stim	0		4754					38.23151111602783	39.616493940353394
1	39.98561215400696	pulse	0	t						77.84216809272766	
1	39.99144911766052	stim	1		1717					77.84800505638123	14.308274984359741
1	41.583235025405884	pulse	1	t						79.43979096412659	
1	43.18322205543518	pulse	1	t						81.03977799415588	
1	44.78324007987976	pulse	1	t						82.63979601860046	
1	46.38326811790466	pulse	1	t						84.23982405662537	
1	47.98333716392517	pulse	1	t						85.83989310264587	
1	49.5832200050354	pulse	1	t						87.4397759437561	
1	51.18318819999695	pulse	1	t						89.03974413871765	
1	52.783255100250244	pulse	1	t						90.63981103897095	
2	54.299724102020264	fix_pre	0		11	0.0	2.5	/experiments/AOT/AOT_stimuli/rescaled_final/2120_fw.mp4	0.0	92.15628004074097	0.09168195724487305
2	54.383143186569214	pulse	0	t		0.0	2.5	/experiments/AOT/AOT_stimuli/rescaled_final/2120_fw.mp4	0.0	92.23969912528992	
2	54.39140605926514	movie	1		242	0.0	2.5	/experiments/AOT/AOT_stimuli/rescaled_final/2120_fw.mp4	0.0	92.24796199798584	2.5083041191101074
2	55.983068227767944	pulse	1	t		0.0	2.5	/experiments/AOT/AOT_stimuli/rescaled_final/2120_fw.mp4	0.0	93.83962416648865	
2	56.899710178375244	fix_post	2		12	0.0	2.5	/experiments/AOT/AOT_stimuli/rescaled_final/2120_fw.mp4	0.0	94.75626611709595	0.1000068187713623
3	56.999716997146606	fix_pre	0		120	1.0	2.5	/experiments/AOT/AOT_stimuli/rescaled_final/0708_rv.mp4	0.0	94.85627293586731	0.9999570846557617
3	57.583208084106445	pulse	0	t		1.0	2.5	/experiments/AOT/AOT_stimuli/rescaled_final/0708_rv.mp4	0.0	95.43976402282715	
3	57.99967408180237	movie	1		245	1.0	2.5	/experiments/AOT/AOT_stimuli/rescaled_final/0708_rv.mp4	0.0	95.85623002052307	2.4999799728393555
3	59.1831910610199	pulse	1	t		1.0	2.5	/experiments/AOT/AOT_stimuli/rescaled_final/0708_rv.mp4	0.0	97.0397469997406	
3	60.499654054641724	fix_post	2		12	1.0	2.5	/experiments/AOT/AOT_stimuli/rescaled_final/0708_rv.mp4	0.0	98.35620999336243	0.0999460220336914
4	60.599600076675415	fix_pre	0		120	2.0	2.5	/experiments/AOT/AOT_stimuli/rescaled_final/0544_fw.mp4	0.0	98.45615601539612	1.000035047531128
4	60.783093214035034	pulse	0	t		2.0	2.5	/experiments/AOT/AOT_stimuli/rescaled_final/0544_fw.mp4	0.0	98.63964915275574	
4	61.59963512420654	movie	1		245	2.0	2.5	/experiments/AOT/AOT_stimuli/rescaled_final/0544_fw.mp4	0.0	99.45619106292725	2.4996049404144287
4	62.383212089538574	pulse	1	t		2.0	2.5	/experiments/AOT/AOT_stimuli/rescaled_final/0544_fw.mp4	0.0	100.23976802825928	
4	63.98179817199707	pulse	1	t		2.0	2.5	/experiments/AOT/AOT_stimuli/rescaled_final/0544_fw.mp4	0.0	101.83835411071777	
4	64.09924006462097	fix_post	2		12	2.0	2.5	/experiments/AOT/AOT_stimuli/rescaled_final/0544_fw.mp4	0.0	101.95579600334167	0.10000014305114746
5	64.19924020767212	fix_pre	0		120	3.0	2.5	/experiments/AOT/AOT_stimuli/rescaled_final/1555_rv.mp4	0.0	102.05579614639282	1.0000088214874268
5	65.19924902915955	movie	1		244	3.0	2.5	/experiments/AOT/AOT_stimuli/rescaled_final/1555_rv.mp4	0.0	103.05580496788025	2.500296115875244
5	65.5824990272522	pulse	1	t		3.0	2.5	/experiments/AOT/AOT_stimuli/rescaled_final/1555_rv.mp4	0.0	103.4390549659729	
5	67.18351912498474	pulse	1	t		3.0	2.5	/experiments/AOT/AOT_stimuli/rescaled_final/1555_rv.mp4	0.0	105.04007506370544	
5	67.69954514503479	fix_post	2		12	3.0	2.5	/experiments/AOT/AOT_stimuli/rescaled_final/1555_rv.mp4	0.0	105.5561010837555	0.10003805160522461
6	67.79958319664001	fix_pre	0		119	4.0	2.5	/experiments/AOT/AOT_stimuli/rescaled_final/0902_rv.mp4	0.0	105.65613913536072	0.9917519092559814
6	68.7831461429596	pulse	0	t		4.0	2.5	/experiments/AOT/AOT_stimuli/rescaled_final/0902_rv.mp4	0.0	106.6397020816803	
6	68.791335105896	movie	1		247	4.0	2.5	/experiments/AOT/AOT_stimuli/rescaled_final/0902_rv.mp4	0.0	106.6478910446167	2.5082640647888184
6	70.3837342262268	pulse	1	t		4.0	2.5	/experiments/AOT/AOT_stimuli/rescaled_final/0902_rv.mp4	0.0	108.24029016494751	
6	71.29959917068481	fix_post	2		12	4.0	2.5	/experiments/AOT/AOT_stimuli/rescaled_final/0902_rv.mp4	0.0	109.15615510940552	0.10014796257019043
7	71.399747133255	fix_pre	0		120	5.0	2.5	/experiments/AOT/AOT_stimuli/rescaled_final/1582_rv.mp4	0.0	109.25630307197571	0.9999818801879883
7	71.9842700958252	pulse	0	t		5.0	2.5	/experiments/AOT/AOT_stimuli/rescaled_final/1582_rv.mp4	0.0	109.8408260345459	
7	72.399729013443	movie	1		246	5.0	2.5	/experiments/AOT/AOT_stimuli/rescaled_final/1582_rv.mp4	0.0	110.2562849521637	2.499528169631958
7	73.58318614959717	pulse	1	t		5.0	2.5	/experiments/AOT/AOT_stimuli/rescaled_final/1582_rv.mp4	0.0	111.43974208831787	
7	74.89925718307495	fix_post	2		12	5.0	2.5	/experiments/AOT/AOT_stimuli/rescaled_final/1582_rv.mp4	0.0	112.75581312179565	0.09993791580200195
8	74.99919509887695	fix_pre	0		120	6.0	2.5	/experiments/AOT/AOT_stimuli/rescaled_final/0025_fw.mp4	0.0	112.85575103759766	1.000356912612915
8	75.18303513526917	pulse	0	t		6.0	2.5	/experiments/AOT/AOT_stimuli/rescaled_final/0025_fw.mp4	0.0	113.03959107398987	
8	75.99955201148987	movie	1		245	6.0	2.5	/experiments/AOT/AOT_stimuli/rescaled_final/0025_fw.mp4	0.0	113.85610795021057	2.4996581077575684
8	76.78302001953125	pulse	1	t		6.0	2.5	/experiments/AOT/AOT_stimuli/rescaled_final/0025_fw.mp4	0.0	114.63957595825195	
8	78.38189506530762	pulse	1	t		6.0	2.5	/experiments/AOT/AOT_stimuli/rescaled_final/0025_fw.mp4	0.0	116.23845100402832	
8	78.49921011924744	fix_post	2		12	6.0	2.5	/experiments/AOT/AOT_stimuli/rescaled_final/0025_fw.mp4	0.0	116.35576605796814	0.10032010078430176
9	78.59953022003174	fix_pre	0		120	7.0	2.5	blank	1.0	116.45608615875244	1.0000457763671875
9	79.59957599639893	movie	1		300	7.0	2.5	blank	1.0	117.45613193511963	2.4995782375335693
9	79.98314118385315	pulse	1	t		7.0	2.5	blank	1.0	117.83969712257385	
9	81.5830500125885	pulse	1	t		7.0	2.5	blank	1.0	119.4396059513092	
9	82.0991542339325	fix_post	2		12	7.0	2.5	blank	1.0	119.9557101726532	0.10042381286621094
10	82.1995780467987	fix_pre	0		119	8.0	2.5	/experiments/AOT/AOT_stimuli/rescaled_final/1642_fw.mp4	0.0	120.05613398551941	0.991692066192627
10	83.18308711051941	pulse	0	t		8.0	2.5	/experiments/AOT/AOT_stimuli/rescaled_final/1642_fw.mp4	0.0	121.03964304924011	
10	83.19127011299133	movie	1		246	8.0	2.5	/experiments/AOT/AOT_stimuli/rescaled_final/1642_fw.mp4	0.0	121.04782605171204	2.508275032043457
10	84.78257608413696	pulse	1	t		8.0	2.5	/experiments/AOT/AOT_stimuli/rescaled_final/1642_fw.mp4	0.0	122.63913202285767	
10	85.69954514503479	fix_post	2		12	8.0	2.5	/experiments/AOT/AOT_stimuli/rescaled_final/1642_fw.mp4	0.0	123.5561010837555	0.09992504119873047
11	85.79947018623352	fix_pre	0		120	9.0	2.5	/experiments/AOT/AOT_stimuli/rescaled_final/0908_rv.mp4	0.0	123.65602612495422	1.0001299381256104
11	86.38308715820312	pulse	0	t		9.0	2.5	/experiments/AOT/AOT_stimuli/rescaled_final/0908_rv.mp4	0.0	124.23964309692383	
11	86.79960012435913	movie	1		243	9.0	2.5	/experiments/AOT/AOT_stimuli/rescaled_final/0908_rv.mp4	0.0	124.65615606307983	2.499898910522461
11	87.98310804367065	pulse	1	t		9.0	2.5	/experiments/AOT/AOT_stimuli/rescaled_final/0908_rv.mp4	0.0	125.83966398239136	
11	89.29949903488159	fix_post	2		12	9.0	2.5	/experiments/AOT/AOT_stimuli/rescaled_final/0908_rv.mp4	0.0	127.1560549736023	0.10001707077026367
12	89.39951610565186	fix_pre	0		120	10.0	2.5	/experiments/AOT/AOT_stimuli/rescaled_final/1540_rv.mp4	0.0	127.25607204437256	0.9999949932098389
12	89.58307409286499	pulse	0	t		10.0	2.5	/experiments/AOT/AOT_stimuli/rescaled_final/1540_rv.mp4	0.0	127.4396300315857	
12	90.3995110988617	movie	1		244	10.0	2.5	/experiments/AOT/AOT_stimuli/rescaled_final/1540_rv.mp4	0.0	128.2560670375824	2.4999730587005615
12	91.18306612968445	pulse	1	t		10.0	2.5	/experiments/AOT/AOT_stimuli/rescaled_final/1540_rv.mp4	0.0	129.03962206840515	
12	92.78181600570679	pulse	1	t		10.0	2.5	/experiments/AOT/AOT_stimuli/rescaled_final/1540_rv.mp4	0.0	130.6383719444275	
12	92.89948415756226	fix_post	2		12	10.0	2.5	/experiments/AOT/AOT_stimuli/rescaled_final/1540_rv.mp4	0.0	130.75604009628296	0.10000300407409668
13	92.99948716163635	fix_pre	0		120	11.0	2.5	/experiments/AOT/AOT_stimuli/rescaled_final/0683_rv.mp4	0.0	130.85604310035706	1.0000429153442383
13	93.99953007698059	movie	1		244	11.0	2.5	/experiments/AOT/AOT_stimuli/rescaled_final/0683_rv.mp4	0.0	131.8560860157013	2.4999279975891113
13	94.38432812690735	pulse	1	t		11.0	2.5	/experiments/AOT/AOT_stimuli/rescaled_final/0683_rv.mp4	0.0	132.24088406562805	
13	95.98300123214722	pulse	1	t		11.0	2.5	/experiments/AOT/AOT_stimuli/rescaled_final/0683_rv.mp4	0.0	133.83955717086792	
13	96.4994580745697	fix_post	2		12	11.0	2.5	/experiments/AOT/AOT_stimuli/rescaled_final/0683_rv.mp4	0.0	134.3560140132904	0.10002493858337402
14	96.59948301315308	fix_pre	0		119	12.0	2.5	blank	1.0	134.45603895187378	0.991732120513916
14	97.58304905891418	pulse	0	t		12.0	2.5	blank	1.0	135.4396049976349	
14	97.59121513366699	movie	1		301	12.0	2.5	blank	1.0	135.4477710723877	2.5077929496765137
14	99.18299412727356	pulse	1	t		12.0	2.5	blank	1.0	137.03955006599426	
14	100.0990080833435	fix_post	2		12	12.0	2.5	blank	1.0	137.9555640220642	0.1004180908203125
15	100.19942617416382	fix_pre	0		120	13.0	2.5	/experiments/AOT/AOT_stimuli/rescaled_final/1548_rv.mp4	0.0	138.05598211288452	1.000020980834961
15	100.78301811218262	pulse	0	t		13.0	2.5	/experiments/AOT/AOT_stimuli/rescaled_final/1548_rv.mp4	0.0	138.63957405090332	
15	101.19944715499878	movie	1		243	13.0	2.5	/experiments/AOT/AOT_stimuli/rescaled_final/1548_rv.mp4	0.0	139.05600309371948	2.500040054321289
15	102.38306212425232	pulse	1	t		13.0	2.5	/experiments/AOT/AOT_stimuli/rescaled_final/1548_rv.mp4	0.0	140.23961806297302	
15	103.69948720932007	fix_post	2		12	13.0	2.5	/experiments/AOT/AOT_stimuli/rescaled_final/1548_rv.mp4	0.0	141.55604314804077	0.09992599487304688
16	103.79941320419312	fix_pre	0		120	14.0	2.5	/experiments/AOT/AOT_stimuli/rescaled_final/1397_rv.mp4	0.0	141.65596914291382	1.000020980834961
16	103.98296213150024	pulse	0	t		14.0	2.5	/experiments/AOT/AOT_stimuli/rescaled_final/1397_rv.mp4	0.0	141.83951807022095	
16	104.79943418502808	movie	1		244	14.0	2.5	/experiments/AOT/AOT_stimuli/rescaled_final/1397_rv.mp4	0.0	142.65599012374878	2.5000369548797607
16	105.58295512199402	pulse	1	t		14.0	2.5	/experiments/AOT/AOT_stimuli/rescaled_final/1397_rv.mp4	0.0	143.43951106071472	
16	107.18140912055969	pulse	1	t		14.0	2.5	/experiments/AOT/AOT_stimuli/rescaled_final/1397_rv.mp4	0.0	145.0379650592804	
16	107.29947113990784	fix_post	2		12	14.0	2.5	/experiments/AOT/AOT_stimuli/rescaled_final/1397_rv.mp4	0.0	145.15602707862854	0.09996604919433594
17	107.39943718910217	fix_pre	0		120	15.0	2.5	/experiments/AOT/AOT_stimuli/rescaled_final/0025_rv.mp4	0.0	145.25599312782288	1.0000758171081543
17	108.39951300621033	movie	1		244	15.0	2.5	/experiments/AOT/AOT_stimuli/rescaled_final/0025_rv.mp4	0.0	146.25606894493103	2.4999852180480957
17	108.78403115272522	pulse	1	t		15.0	2.5	/experiments/AOT/AOT_stimuli/rescaled_final/0025_rv.mp4	0.0	146.64058709144592	
17	110.38283705711365	pulse	1	t		15.0	2.5	/experiments/AOT/AOT_stimuli/rescaled_final/0025_rv.mp4	0.0	148.23939299583435	
17	110.89949822425842	fix_post	2		12	15.0	2.5	/experiments/AOT/AOT_stimuli/rescaled_final/0025_rv.mp4	0.0	148.75605416297913	0.0999138355255127
18	110.99941205978394	fix_pre	0		119	16.0	2.5	/experiments/AOT/AOT_stimuli/rescaled_final/0023_fw.mp4	0.0	148.85596799850464	0.9916441440582275
18	111.98286414146423	pulse	0	t		16.0	2.5	/experiments/AOT/AOT_stimuli/rescaled_final/0023_fw.mp4	0.0	149.83942008018494	
18	111.99105620384216	movie	1		245	16.0	2.5	/experiments/AOT/AOT_stimuli/rescaled_final/0023_fw.mp4	0.0	149.84761214256287	2.508404016494751
18	113.5830500125885	pulse	1	t		16.0	2.5	/experiments/AOT/AOT_stimuli/rescaled_final/0023_fw.mp4	0.0	151.4396059513092	
18	114.49946022033691	fix_post	2		12	16.0	2.5	/experiments/AOT/AOT_stimuli/rescaled_final/0023_fw.mp4	0.0	152.35601615905762	0.10000491142272949
19	114.59946513175964	fix_pre	0		120	17.0	2.5	/experiments/AOT/AOT_stimuli/rescaled_final/1582_fw.mp4	0.0	152.45602107048035	1.0000240802764893
19	115.18291902542114	pulse	0	t		17.0	2.5	/experiments/AOT/AOT_stimuli/rescaled_final/1582_fw.mp4	0.0	153.03947496414185	
19	115.59948921203613	movie	1		243	17.0	2.5	/experiments/AOT/AOT_stimuli/rescaled_final/1582_fw.mp4	0.0	153.45604515075684	2.49948787689209
19	116.78304600715637	pulse	1	t		17.0	2.5	/experiments/AOT/AOT_stimuli/rescaled_final/1582_fw.mp4	0.0	154.63960194587708	
19	118.09897708892822	fix_post	2		12	17.0	2.5	/experiments/AOT/AOT_stimuli/rescaled_final/1582_fw.mp4	0.0	155.95553302764893	0.10001301765441895
20	118.19899010658264	fix_pre	0		120	18.0	2.5	/experiments/AOT/AOT_stimuli/rescaled_final/1666_fw.mp4	0.0	156.05554604530334	1.0004010200500488
20	118.38291501998901	pulse	0	t		18.0	2.5	/experiments/AOT/AOT_stimuli/rescaled_final/1666_fw.mp4	0.0	156.23947095870972	
20	119.19939112663269	movie	1		245	18.0	2.5	/experiments/AOT/AOT_stimuli/rescaled_final/1666_fw.mp4	0.0	157.0559470653534	2.499788999557495
20	119.98292422294617	pulse	1	t		18.0	2.5	/experiments/AOT/AOT_stimuli/rescaled_final/1666_fw.mp4	0.0	157.83948016166687	
20	121.58249306678772	pulse	1	t		18.0	2.5	/experiments/AOT/AOT_stimuli/rescaled_final/1666_fw.mp4	0.0	159.43904900550842	
20	121.69918012619019	fix_post	2		12	18.0	2.5	/experiments/AOT/AOT_stimuli/rescaled_final/1666_fw.mp4	0.0	159.5557360649109	0.10033607482910156
21	121.79951620101929	fix_pre	0		120	19.0	2.5	blank	1.0	159.65607213974	0.9997010231018066
21	122.7992172241211	movie	1		300	19.0	2.5	blank	1.0	160.6557731628418	2.5001587867736816
21	123.18278622627258	pulse	1	t		19.0	2.5	blank	1.0	161.0393421649933	
21	124.78289723396301	pulse	1	t		19.0	2.5	blank	1.0	162.63945317268372	
21	125.29937601089478	fix_post	2		12	19.0	2.5	blank	1.0	163.15593194961548	0.10001802444458008
22	125.39939403533936	fix_pre	0		119	20.0	2.5	/experiments/AOT/AOT_stimuli/rescaled_final/1152_fw.mp4	0.0	163.25594997406006	0.9916331768035889
22	126.38292217254639	pulse	0	t		20.0	2.5	/experiments/AOT/AOT_stimuli/rescaled_final/1152_fw.mp4	0.0	164.2394781112671	
22	126.39102721214294	movie	1		245	20.0	2.5	/experiments/AOT/AOT_stimuli/rescaled_final/1152_fw.mp4	0.0	164.24758315086365	2.5084328651428223
22	127.98279309272766	pulse	1	t		20.0	2.5	/experiments/AOT/AOT_stimuli/rescaled_final/1152_fw.mp4	0.0	165.83934903144836	
22	128.89946007728577	fix_post	2		12	20.0	2.5	/experiments/AOT/AOT_stimuli/rescaled_final/1152_fw.mp4	0.0	166.75601601600647	0.09982514381408691
23	128.99928522109985	fix_pre	0		120	21.0	2.5	/experiments/AOT/AOT_stimuli/rescaled_final/1149_rv.mp4	0.0	166.85584115982056	1.0000879764556885
23	129.58279418945312	pulse	0	t		21.0	2.5	/experiments/AOT/AOT_stimuli/rescaled_final/1149_rv.mp4	0.0	167.43935012817383	
23	129.99937319755554	movie	1		243	21.0	2.5	/experiments/AOT/AOT_stimuli/rescaled_final/1149_rv.mp4	0.0	167.85592913627625	2.499940872192383
23	131.1828351020813	pulse	1	t		21.0	2.5	/experiments/AOT/AOT_stimuli/rescaled_final/1149_rv.mp4	0.0	169.039391040802	
23	132.49931406974792	fix_post	2		12	21.0	2.5	/experiments/AOT/AOT_stimuli/rescaled_final/1149_rv.mp4	0.0	170.35587000846863	0.10001397132873535
24	132.59932804107666	fix_pre	0		120	22.0	2.5	/experiments/AOT/AOT_stimuli/rescaled_final/2081_fw.mp4	0.0	170.45588397979736	0.999953031539917
24	132.78288221359253	pulse	0	t		22.0	2.5	/experiments/AOT/AOT_stimuli/rescaled_final/2081_fw.mp4	0.0	170.63943815231323	
24	133.59928107261658	movie	1		244	22.0	2.5	/experiments/AOT/AOT_stimuli/rescaled_final/2081_fw.mp4	0.0	171.45583701133728	2.499567985534668
24	134.3827772140503	pulse	1	t		22.0	2.5	/experiments/AOT/AOT_stimuli/rescaled_final/2081_fw.mp4	0.0	172.239333152771	
24	135.9814031124115	pulse	1	t		22.0	2.5	/experiments/AOT/AOT_stimuli/rescaled_final/2081_fw.mp4	0.0	173.8379590511322	
24	136.09884905815125	fix_post	2		12	22.0	2.5	/experiments/AOT/AOT_stimuli/rescaled_final/2081_fw.mp4	0.0	173.95540499687195	0.10042810440063477
25	136.19927716255188	fix_pre	0		120	23.0	2.5	/experiments/AOT/AOT_stimuli/rescaled_final/0908_rv.mp4	0.0	174.05583310127258	1.0000078678131104
25	137.199285030365	movie	1		245	23.0	2.5	/experiments/AOT/AOT_stimuli/rescaled_final/0908_rv.mp4	0.0	175.0558409690857	2.500019073486328
25	137.58239102363586	pulse	1	t		23.0	2.5	/experiments/AOT/AOT_stimuli/rescaled_final/0908_rv.mp4	0.0	175.43894696235657	
25	139.18275618553162	pulse	1	t		23.0	2.5	/experiments/AOT/AOT_stimuli/rescaled_final/0908_rv.mp4	0.0	177.03931212425232	
25	139.69930410385132	fix_post	2		12	23.0	2.5	/experiments/AOT/AOT_stimuli/rescaled_final/0908_rv.mp4	0.0	177.55586004257202	0.09992599487304688
26	139.79923009872437	fix_pre	0		119	24.0	2.5	/experiments/AOT/AOT_stimuli/rescaled_final/2081_rv.mp4	0.0	177.65578603744507	0.9917221069335938
26	140.7828562259674	pulse	0	t		24.0	2.5	/experiments/AOT/AOT_stimuli/rescaled_final/2081_rv.mp4	0.0	178.6394121646881	
26	140.79095220565796	movie	1		246	24.0	2.5	/experiments/AOT/AOT_stimuli/rescaled_final/2081_rv.mp4	0.0	178.64750814437866	2.5082550048828125
26	142.3828010559082	pulse	1	t		24.0	2.5	/experiments/AOT/AOT_stimuli/rescaled_final/2081_rv.mp4	0.0	180.2393569946289	
26	143.29920721054077	fix_post	2		12	24.0	2.5	/experiments/AOT/AOT_stimuli/rescaled_final/2081_rv.mp4	0.0	181.15576314926147	0.10005879402160645
27	143.39926600456238	fix_pre	0		120	25.0	2.5	/experiments/AOT/AOT_stimuli/rescaled_final/0644_fw.mp4	0.0	181.25582194328308	0.9999010562896729
27	143.98268699645996	pulse	0	t		25.0	2.5	/experiments/AOT/AOT_stimuli/rescaled_final/0644_fw.mp4	0.0	181.83924293518066	
27	144.39916706085205	movie	1		243	25.0	2.5	/experiments/AOT/AOT_stimuli/rescaled_final/0644_fw.mp4	0.0	182.25572299957275	2.5000221729278564
27	145.5827100276947	pulse	1	t		25.0	2.5	/experiments/AOT/AOT_stimuli/rescaled_final/0644_fw.mp4	0.0	183.4392659664154	
27	146.8991892337799	fix_post	2		12	25.0	2.5	/experiments/AOT/AOT_stimuli/rescaled_final/0644_fw.mp4	0.0	184.7557451725006	0.10008883476257324
28	146.99927806854248	fix_pre	0		120	26.0	2.5	blank	1.0	184.85583400726318	0.9999611377716064
28	147.18265914916992	pulse	0	t		26.0	2.5	blank	1.0	185.03921508789062	
28	147.9992392063141	movie	1		300	26.0	2.5	blank	1.0	185.8557951450348	2.4999678134918213
28	148.78275799751282	pulse	1	t		26.0	2.5	blank	1.0	186.63931393623352	
28	150.38266921043396	pulse	1	t		26.0	2.5	blank	1.0	188.23922514915466	
28	150.4992070198059	fix_post	2		12	26.0	2.5	blank	1.0	188.3557629585266	0.1000211238861084
29	150.59922814369202	fix_pre	0		120	27.0	2.5	/experiments/AOT/AOT_stimuli/rescaled_final/0476_rv.mp4	0.0	188.45578408241272	1.0000629425048828
29	151.5992910861969	movie	1		245	27.0	2.5	/experiments/AOT/AOT_stimuli/rescaled_final/0476_rv.mp4	0.0	189.4558470249176	2.4999611377716064
29	151.98389220237732	pulse	1	t		27.0	2.5	/experiments/AOT/AOT_stimuli/rescaled_final/0476_rv.mp4	0.0	189.84044814109802	
29	153.58285212516785	pulse	1	t		27.0	2.5	/experiments/AOT/AOT_stimuli/rescaled_final/0476_rv.mp4	0.0	191.43940806388855	
29	154.0992522239685	fix_post	2		12	27.0	2.5	/experiments/AOT/AOT_stimuli/rescaled_final/0476_rv.mp4	0.0	191.9558081626892	0.10006380081176758
30	154.19931602478027	fix_pre	0		119	28.0	2.5	/experiments/AOT/AOT_stimuli/rescaled_final/1056_rv.mp4	0.0	192.05587196350098	0.9915640354156494
30	155.18270206451416	pulse	0	t		28.0	2.5	/experiments/AOT/AOT_stimuli/rescaled_final/1056_rv.mp4	0.0	193.03925800323486	
30	155.19088006019592	movie	1		244	28.0	2.5	/experiments/AOT/AOT_stimuli/rescaled_final/1056_rv.mp4	0.0	193.04743599891663	2.507878065109253
30	156.7825469970703	pulse	1	t		28.0	2.5	/experiments/AOT/AOT_stimuli/rescaled_final/1056_rv.mp4	0.0	194.63910293579102	
30	157.69875812530518	fix_post	2		12	28.0	2.5	/experiments/AOT/AOT_stimuli/rescaled_final/1056_rv.mp4	0.0	195.55531406402588	0.10011506080627441
31	157.79887318611145	fix_pre	0		120	29.0	2.5	/experiments/AOT/AOT_stimuli/rescaled_final/0198_rv.mp4	0.0	195.65542912483215	1.000319004058838
31	158.38272905349731	pulse	0	t		29.0	2.5	/experiments/AOT/AOT_stimuli/rescaled_final/0198_rv.mp4	0.0	196.23928499221802	
31	158.7991921901703	movie	1		245	29.0	2.5	/experiments/AOT/AOT_stimuli/rescaled_final/0198_rv.mp4	0.0	196.655748128891	2.499992847442627
31	159.98269319534302	pulse	1	t		29.0	2.5	/experiments/AOT/AOT_stimuli/rescaled_final/0198_rv.mp4	0.0	197.83924913406372	
31	161.29918503761292	fix_post	2		12	29.0	2.5	/experiments/AOT/AOT_stimuli/rescaled_final/0198_rv.mp4	0.0	199.15574097633362	0.10000014305114746
32	161.39918518066406	fix_pre	0		120	30.0	2.5	/experiments/AOT/AOT_stimuli/rescaled_final/0999_fw.mp4	0.0	199.25574111938477	1.0000369548797607
32	161.5826930999756	pulse	0	t		30.0	2.5	/experiments/AOT/AOT_stimuli/rescaled_final/0999_fw.mp4	0.0	199.4392490386963	
32	162.39922213554382	movie	1		245	30.0	2.5	/experiments/AOT/AOT_stimuli/rescaled_final/0999_fw.mp4	0.0	200.25577807426453	2.499919891357422
32	163.18271613121033	pulse	1	t		30.0	2.5	/experiments/AOT/AOT_stimuli/rescaled_final/0999_fw.mp4	0.0	201.03927206993103	
32	164.78152108192444	pulse	1	t		30.0	2.5	/experiments/AOT/AOT_stimuli/rescaled_final/0999_fw.mp4	0.0	202.63807702064514	
32	164.89914202690125	fix_post	2		12	30.0	2.5	/experiments/AOT/AOT_stimuli/rescaled_final/0999_fw.mp4	0.0	202.75569796562195	0.09993410110473633
33	164.99907612800598	fix_pre	0		120	31.0	2.5	/experiments/AOT/AOT_stimuli/rescaled_final/1514_rv.mp4	0.0	202.85563206672668	0.99971604347229
33	165.99879217147827	movie	1		244	31.0	2.5	/experiments/AOT/AOT_stimuli/rescaled_final/1514_rv.mp4	0.0	203.85534811019897	2.50032901763916
33	166.3822431564331	pulse	1	t		31.0	2.5	/experiments/AOT/AOT_stimuli/rescaled_final/1514_rv.mp4	0.0	204.2387990951538	
33	167.9827401638031	pulse	1	t		31.0	2.5	/experiments/AOT/AOT_stimuli/rescaled_final/1514_rv.mp4	0.0	205.8392961025238	
33	168.49912118911743	fix_post	2		12	31.0	2.5	/experiments/AOT/AOT_stimuli/rescaled_final/1514_rv.mp4	0.0	206.35567712783813	0.10001802444458008
34	168.599139213562	fix_pre	0		119	32.0	2.5	/experiments/AOT/AOT_stimuli/rescaled_final/0708_rv.mp4	0.0	206.45569515228271	0.9917027950286865
34	169.5826392173767	pulse	0	t		32.0	2.5	/experiments/AOT/AOT_stimuli/rescaled_final/0708_rv.mp4	0.0	207.4391951560974	
34	169.5908420085907	movie	1		246	32.0	2.5	/experiments/AOT/AOT_stimuli/rescaled_final/0708_rv.mp4	0.0	207.4473979473114	2.508329153060913
34	171.18218517303467	pulse	1	t		32.0	2.5	/experiments/AOT/AOT_stimuli/rescaled_final/0708_rv.mp4	0.0	209.03874111175537	
34	172.0991711616516	fix_post	2		12	32.0	2.5	/experiments/AOT/AOT_stimuli/rescaled_final/0708_rv.mp4	0.0	209.95572710037231	0.10001301765441895
35	172.19918417930603	fix_pre	0		120	33.0	2.5	/experiments/AOT/AOT_stimuli/rescaled_final/0544_rv.mp4	0.0	210.05574011802673	1.0000028610229492
35	172.783860206604	pulse	0	t		33.0	2.5	/experiments/AOT/AOT_stimuli/rescaled_final/0544_rv.mp4	0.0	210.6404161453247	
35	173.19918704032898	movie	1		244	33.0	2.5	/experiments/AOT/AOT_stimuli/rescaled_final/0544_rv.mp4	0.0	211.05574297904968	2.499479055404663
35	174.38267302513123	pulse	1	t		33.0	2.5	/experiments/AOT/AOT_stimuli/rescaled_final/0544_rv.mp4	0.0	212.23922896385193	
35	175.69866609573364	fix_post	2		12	33.0	2.5	/experiments/AOT/AOT_stimuli/rescaled_final/0544_rv.mp4	0.0	213.55522203445435	0.10052895545959473
36	175.79919505119324	fix_pre	0		120	34.0	2.5	/experiments/AOT/AOT_stimuli/rescaled_final/0506_rv.mp4	0.0	213.65575098991394	0.9995319843292236
36	175.98221111297607	pulse	0	t		34.0	2.5	/experiments/AOT/AOT_stimuli/rescaled_final/0506_rv.mp4	0.0	213.83876705169678	
36	176.79872703552246	movie	1		244	34.0	2.5	/experiments/AOT/AOT_stimuli/rescaled_final/0506_rv.mp4	0.0	214.65528297424316	2.500312089920044
36	177.58264923095703	pulse	1	t		34.0	2.5	/experiments/AOT/AOT_stimuli/rescaled_final/0506_rv.mp4	0.0	215.43920516967773	
36	179.18281507492065	pulse	1	t		34.0	2.5	/experiments/AOT/AOT_stimuli/rescaled_final/0506_rv.mp4	0.0	217.03937101364136	
36	179.2990391254425	fix_post	2		12	34.0	2.5	/experiments/AOT/AOT_stimuli/rescaled_final/0506_rv.mp4	0.0	217.1555950641632	0.10038495063781738
37	179.39942407608032	fix_pre	0		120	35.0	2.5	blank	1.0	217.25598001480103	0.9997141361236572
37	180.39913821220398	movie	1		300	35.0	2.5	blank	1.0	218.25569415092468	2.4995899200439453
37	180.78259420394897	pulse	1	t		35.0	2.5	blank	1.0	218.63915014266968	
37	182.3825240135193	pulse	1	t		35.0	2.5	blank	1.0	220.23907995224	
37	182.89872813224792	fix_post	2		12	35.0	2.5	blank	1.0	220.75528407096863	0.10033988952636719
38	182.9990680217743	fix_pre	0		119	36.0	2.5	/experiments/AOT/AOT_stimuli/rescaled_final/1124_rv.mp4	0.0	220.855623960495	0.9917690753936768
38	183.9825041294098	pulse	0	t		36.0	2.5	/experiments/AOT/AOT_stimuli/rescaled_final/1124_rv.mp4	0.0	221.8390600681305	
38	183.99083709716797	movie	1		250	36.0	2.5	/experiments/AOT/AOT_stimuli/rescaled_final/1124_rv.mp4	0.0	221.84739303588867	2.508225917816162
38	185.58186411857605	pulse	1	t		36.0	2.5	/experiments/AOT/AOT_stimuli/rescaled_final/1124_rv.mp4	0.0	223.43842005729675	
38	186.49906301498413	fix_post	2		12	36.0	2.5	/experiments/AOT/AOT_stimuli/rescaled_final/1124_rv.mp4	0.0	224.35561895370483	0.09995102882385254
39	186.59901404380798	fix_pre	0		120	37.0	2.5	/experiments/AOT/AOT_stimuli/rescaled_final/2034_fw.mp4	0.0	224.4555699825287	1.0000240802764893
39	187.1837751865387	pulse	0	t		37.0	2.5	/experiments/AOT/AOT_stimuli/rescaled_final/2034_fw.mp4	0.0	225.0403311252594	
39	187.59903812408447	movie	1		248	37.0	2.5	/experiments/AOT/AOT_stimuli/rescaled_final/2034_fw.mp4	0.0	225.45559406280518	2.499613046646118
39	188.7825870513916	pulse	1	t		37.0	2.5	/experiments/AOT/AOT_stimuli/rescaled_final/2034_fw.mp4	0.0	226.6391429901123	
39	190.0986511707306	fix_post	2		12	37.0	2.5	/experiments/AOT/AOT_stimuli/rescaled_final/2034_fw.mp4	0.0	227.9552071094513	0.10039091110229492
40	190.19904208183289	fix_pre	0		120	38.0	2.5	/experiments/AOT/AOT_stimuli/rescaled_final/0450_fw.mp4	0.0	228.0555980205536	0.9995520114898682
40	190.38245916366577	pulse	0	t		38.0	2.5	/experiments/AOT/AOT_stimuli/rescaled_final/0450_fw.mp4	0.0	228.23901510238647	
40	191.19859409332275	movie	1		246	38.0	2.5	/experiments/AOT/AOT_stimuli/rescaled_final/0450_fw.mp4	0.0	229.05515003204346	2.499964952468872
40	191.98249006271362	pulse	1	t		38.0	2.5	/experiments/AOT/AOT_stimuli/rescaled_final/0450_fw.mp4	0.0	229.83904600143433	
40	193.58112001419067	pulse	1	t		38.0	2.5	/experiments/AOT/AOT_stimuli/rescaled_final/0450_fw.mp4	0.0	231.43767595291138	
40	193.69855904579163	fix_post	2		12	38.0	2.5	/experiments/AOT/AOT_stimuli/rescaled_final/0450_fw.mp4	0.0	231.55511498451233	0.10046100616455078
41	193.79902005195618	fix_pre	0		120	39.0	2.5	/experiments/AOT/AOT_stimuli/rescaled_final/1371_fw.mp4	0.0	231.65557599067688	0.9999699592590332
41	194.7989900112152	movie	1		245	39.0	2.5	/experiments/AOT/AOT_stimuli/rescaled_final/1371_fw.mp4	0.0	232.6555459499359	2.4999752044677734
41	195.18203902244568	pulse	1	t		39.0	2.5	/experiments/AOT/AOT_stimuli/rescaled_final/1371_fw.mp4	0.0	233.03859496116638	
41	196.7824831008911	pulse	1	t		39.0	2.5	/experiments/AOT/AOT_stimuli/rescaled_final/1371_fw.mp4	0.0	234.63903903961182	
41	197.29896521568298	fix_post	2		12	39.0	2.5	/experiments/AOT/AOT_stimuli/rescaled_final/1371_fw.mp4	0.0	235.1555211544037	0.10006189346313477
42	197.39902710914612	fix_pre	0		119	40.0	2.5	/experiments/AOT/AOT_stimuli/rescaled_final/0401_fw.mp4	0.0	235.25558304786682	0.9916269779205322
42	198.38255214691162	pulse	0	t		40.0	2.5	/experiments/AOT/AOT_stimuli/rescaled_final/0401_fw.mp4	0.0	236.23910808563232	
42	198.39065408706665	movie	1		245	40.0	2.5	/experiments/AOT/AOT_stimuli/rescaled_final/0401_fw.mp4	0.0	236.24721002578735	2.5082790851593018
42	199.9819691181183	pulse	1	t		40.0	2.5	/experiments/AOT/AOT_stimuli/rescaled_final/0401_fw.mp4	0.0	237.838525056839	
42	200.89893317222595	fix_post	2		12	40.0	2.5	/experiments/AOT/AOT_stimuli/rescaled_final/0401_fw.mp4	0.0	238.75548911094666	0.10002994537353516
43	200.9989631175995	fix_pre	0		120	41.0	2.5	blank	1.0	238.8555190563202	0.9999608993530273
43	201.58247017860413	pulse	0	t		41.0	2.5	blank	1.0	239.43902611732483	
43	201.99892401695251	movie	1		300	41.0	2.5	blank	1.0	239.85547995567322	2.500012159347534
43	203.18249702453613	pulse	1	t		41.0	2.5	blank	1.0	241.03905296325684	
43	204.49893617630005	fix_post	2		12	41.0	2.5	blank	1.0	242.35549211502075	0.10010194778442383
44	204.59903812408447	fix_pre	0		120	42.0	2.5	/experiments/AOT/AOT_stimuli/rescaled_final/0344_rv.mp4	0.0	242.45559406280518	0.9999721050262451
44	204.78255605697632	pulse	0	t		42.0	2.5	/experiments/AOT/AOT_stimuli/rescaled_final/0344_rv.mp4	0.0	242.63911199569702	
44	205.59901022911072	movie	1		245	42.0	2.5	/experiments/AOT/AOT_stimuli/rescaled_final/0344_rv.mp4	0.0	243.45556616783142	2.4995617866516113
44	206.3824532032013	pulse	1	t		42.0	2.5	/experiments/AOT/AOT_stimuli/rescaled_final/0344_rv.mp4	0.0	244.239009141922	
44	207.9813551902771	pulse	1	t		42.0	2.5	/experiments/AOT/AOT_stimuli/rescaled_final/0344_rv.mp4	0.0	245.8379111289978	
44	208.09857201576233	fix_post	2		12	42.0	2.5	/experiments/AOT/AOT_stimuli/rescaled_final/0344_rv.mp4	0.0	245.95512795448303	0.10049009323120117
45	208.19906210899353	fix_pre	0		120	43.0	2.5	/experiments/AOT/AOT_stimuli/rescaled_final/1976_fw.mp4	0.0	246.05561804771423	1.0000059604644775
45	209.199068069458	movie	1		244	43.0	2.5	/experiments/AOT/AOT_stimuli/rescaled_final/1976_fw.mp4	0.0	247.0556240081787	2.499890089035034
45	209.5820140838623	pulse	1	t		43.0	2.5	/experiments/AOT/AOT_stimuli/rescaled_final/1976_fw.mp4	0.0	247.438570022583	
45	211.18252801895142	pulse	1	t		43.0	2.5	/experiments/AOT/AOT_stimuli/rescaled_final/1976_fw.mp4	0.0	249.03908395767212	
45	211.69895815849304	fix_post	2		12	43.0	2.5	/experiments/AOT/AOT_stimuli/rescaled_final/1976_fw.mp4	0.0	249.55551409721375	0.09998703002929688
46	211.79894518852234	fix_pre	0		119	44.0	2.5	/experiments/AOT/AOT_stimuli/rescaled_final/1043_fw.mp4	0.0	249.65550112724304	0.9917199611663818
46	212.78246021270752	pulse	0	t		44.0	2.5	/experiments/AOT/AOT_stimuli/rescaled_final/1043_fw.mp4	0.0	250.63901615142822	
46	212.79066514968872	movie	1		246	44.0	2.5	/experiments/AOT/AOT_stimuli/rescaled_final/1043_fw.mp4	0.0	250.64722108840942	2.508244037628174
46	214.38241720199585	pulse	1	t		44.0	2.5	/experiments/AOT/AOT_stimuli/rescaled_final/1043_fw.mp4	0.0	252.23897314071655	
46	215.2989091873169	fix_post	2		12	44.0	2.5	/experiments/AOT/AOT_stimuli/rescaled_final/1043_fw.mp4	0.0	253.1554651260376	0.10005497932434082
47	215.39896416664124	fix_pre	0		120	45.0	2.5	/experiments/AOT/AOT_stimuli/rescaled_final/0708_fw.mp4	0.0	253.25552010536194	0.9999220371246338
47	215.98244714736938	pulse	0	t		45.0	2.5	/experiments/AOT/AOT_stimuli/rescaled_final/0708_fw.mp4	0.0	253.8390030860901	
47	216.39888620376587	movie	1		245	45.0	2.5	/experiments/AOT/AOT_stimuli/rescaled_final/0708_fw.mp4	0.0	254.25544214248657	2.500063896179199
47	217.58240699768066	pulse	1	t		45.0	2.5	/experiments/AOT/AOT_stimuli/rescaled_final/0708_fw.mp4	0.0	255.43896293640137	
47	218.89895009994507	fix_post	2		12	45.0	2.5	/experiments/AOT/AOT_stimuli/rescaled_final/0708_fw.mp4	0.0	256.75550603866577	0.09994292259216309
48	218.99889302253723	fix_pre	0		120	46.0	2.5	/experiments/AOT/AOT_stimuli/rescaled_final/1642_rv.mp4	0.0	256.85544896125793	1.000002145767212
48	219.18239212036133	pulse	0	t		46.0	2.5	/experiments/AOT/AOT_stimuli/rescaled_final/1642_rv.mp4	0.0	257.03894805908203	
48	219.99889516830444	movie	1		245	46.0	2.5	/experiments/AOT/AOT_stimuli/rescaled_final/1642_rv.mp4	0.0	257.85545110702515	2.4995739459991455
48	220.78237199783325	pulse	1	t		46.0	2.5	/experiments/AOT/AOT_stimuli/rescaled_final/1642_rv.mp4	0.0	258.63892793655396	
48	222.3819761276245	pulse	1	t		46.0	2.5	/experiments/AOT/AOT_stimuli/rescaled_final/1642_rv.mp4	0.0	260.2385320663452	
48	222.4984691143036	fix_post	2		12	46.0	2.5	/experiments/AOT/AOT_stimuli/rescaled_final/1642_rv.mp4	0.0	260.3550250530243	0.10041499137878418
49	222.59888410568237	fix_pre	0		120	47.0	2.5	blank	1.0	260.4554400444031	0.9999339580535889
49	223.59881806373596	movie	1		300	47.0	2.5	blank	1.0	261.45537400245667	2.5000030994415283
49	223.9824252128601	pulse	1	t		47.0	2.5	blank	1.0	261.8389811515808	
49	225.58243012428284	pulse	1	t		47.0	2.5	blank	1.0	263.43898606300354	
49	226.0988211631775	fix_post	2		12	47.0	2.5	blank	1.0	263.9553771018982	0.10000491142272949
50	226.19882607460022	fix_pre	0		119	48.0	2.5	/experiments/AOT/AOT_stimuli/rescaled_final/0149_fw.mp4	0.0	264.0553820133209	0.9916949272155762
50	227.18239212036133	pulse	0	t		48.0	2.5	/experiments/AOT/AOT_stimuli/rescaled_final/0149_fw.mp4	0.0	265.03894805908203	
50	227.1905210018158	movie	1		245	48.0	2.5	/experiments/AOT/AOT_stimuli/rescaled_final/0149_fw.mp4	0.0	265.0470769405365	2.5082600116729736
50	228.78372502326965	pulse	1	t		48.0	2.5	/experiments/AOT/AOT_stimuli/rescaled_final/0149_fw.mp4	0.0	266.64028096199036	
50	229.69878101348877	fix_post	2		12	48.0	2.5	/experiments/AOT/AOT_stimuli/rescaled_final/0149_fw.mp4	0.0	267.5553369522095	0.09970211982727051
51	229.79848313331604	fix_pre	0		120	49.0	2.5	/experiments/AOT/AOT_stimuli/rescaled_final/2019_rv.mp4	0.0	267.65503907203674	1.000365972518921
51	230.3823230266571	pulse	0	t		49.0	2.5	/experiments/AOT/AOT_stimuli/rescaled_final/2019_rv.mp4	0.0	268.2388789653778	
51	230.79884910583496	movie	1		245	49.0	2.5	/experiments/AOT/AOT_stimuli/rescaled_final/2019_rv.mp4	0.0	268.65540504455566	2.4996230602264404
51	231.98199200630188	pulse	1	t		49.0	2.5	/experiments/AOT/AOT_stimuli/rescaled_final/2019_rv.mp4	0.0	269.8385479450226	
51	233.2984721660614	fix_post	2		12	49.0	2.5	/experiments/AOT/AOT_stimuli/rescaled_final/2019_rv.mp4	0.0	271.1550281047821	0.09996390342712402
52	233.39843606948853	fix_pre	0		120	50.0	2.5	/experiments/AOT/AOT_stimuli/rescaled_final/1642_fw.mp4	0.0	271.25499200820923	1.0007109642028809
52	233.58243107795715	pulse	0	t		50.0	2.5	/experiments/AOT/AOT_stimuli/rescaled_final/1642_fw.mp4	0.0	271.43898701667786	
52	234.3991470336914	movie	1		247	50.0	2.5	/experiments/AOT/AOT_stimuli/rescaled_final/1642_fw.mp4	0.0	272.2557029724121	2.499711036682129
52	235.1821870803833	pulse	1	t		50.0	2.5	/experiments/AOT/AOT_stimuli/rescaled_final/1642_fw.mp4	0.0	273.038743019104	
52	236.78230905532837	pulse	1	t		50.0	2.5	/experiments/AOT/AOT_stimuli/rescaled_final/1642_fw.mp4	0.0	274.6388649940491	
52	236.89885807037354	fix_post	2		12	50.0	2.5	/experiments/AOT/AOT_stimuli/rescaled_final/1642_fw.mp4	0.0	274.75541400909424	0.09998798370361328
53	236.99884605407715	fix_pre	0		120	51.0	2.5	/experiments/AOT/AOT_stimuli/rescaled_final/2077_fw.mp4	0.0	274.85540199279785	0.9995019435882568
53	237.9983479976654	movie	1		243	51.0	2.5	/experiments/AOT/AOT_stimuli/rescaled_final/2077_fw.mp4	0.0	275.8549039363861	2.5005810260772705
53	238.3819100856781	pulse	1	t		51.0	2.5	/experiments/AOT/AOT_stimuli/rescaled_final/2077_fw.mp4	0.0	276.2384660243988	
53	239.98225712776184	pulse	1	t		51.0	2.5	/experiments/AOT/AOT_stimuli/rescaled_final/2077_fw.mp4	0.0	277.83881306648254	
53	240.49892902374268	fix_post	2		12	51.0	2.5	/experiments/AOT/AOT_stimuli/rescaled_final/2077_fw.mp4	0.0	278.3554849624634	0.09982800483703613
54	240.5987570285797	fix_pre	0		119	52.0	2.5	/experiments/AOT/AOT_stimuli/rescaled_final/0675_rv.mp4	0.0	278.4553129673004	0.9916830062866211
54	241.58226203918457	pulse	0	t		52.0	2.5	/experiments/AOT/AOT_stimuli/rescaled_final/0675_rv.mp4	0.0	279.4388179779053	
54	241.59044003486633	movie	1		244	52.0	2.5	/experiments/AOT/AOT_stimuli/rescaled_final/0675_rv.mp4	0.0	279.44699597358704	2.508327007293701
54	243.18198609352112	pulse	1	t		52.0	2.5	/experiments/AOT/AOT_stimuli/rescaled_final/0675_rv.mp4	0.0	281.0385420322418	
54	244.09876704216003	fix_post	2		12	52.0	2.5	/experiments/AOT/AOT_stimuli/rescaled_final/0675_rv.mp4	0.0	281.95532298088074	0.10003900527954102
55	244.19880604743958	fix_pre	0		120	53.0	2.5	/experiments/AOT/AOT_stimuli/rescaled_final/0856_rv.mp4	0.0	282.0553619861603	0.999567985534668
55	244.78231501579285	pulse	0	t		53.0	2.5	/experiments/AOT/AOT_stimuli/rescaled_final/0856_rv.mp4	0.0	282.63887095451355	
55	245.19837403297424	movie	1		244	53.0	2.5	/experiments/AOT/AOT_stimuli/rescaled_final/0856_rv.mp4	0.0	283.05492997169495	2.500373125076294
55	246.38229513168335	pulse	1	t		53.0	2.5	/experiments/AOT/AOT_stimuli/rescaled_final/0856_rv.mp4	0.0	284.23885107040405	
55	247.69874715805054	fix_post	2		12	53.0	2.5	/experiments/AOT/AOT_stimuli/rescaled_final/0856_rv.mp4	0.0	285.55530309677124	0.10001087188720703
56	247.79875802993774	fix_pre	0		120	54.0	2.5	/experiments/AOT/AOT_stimuli/rescaled_final/0807_rv.mp4	0.0	285.65531396865845	0.9999871253967285
56	247.98225903511047	pulse	0	t		54.0	2.5	/experiments/AOT/AOT_stimuli/rescaled_final/0807_rv.mp4	0.0	285.8388149738312	
56	248.79874515533447	movie	1		242	54.0	2.5	/experiments/AOT/AOT_stimuli/rescaled_final/0807_rv.mp4	0.0	286.6553010940552	2.499647855758667
56	249.5822880268097	pulse	1	t		54.0	2.5	/experiments/AOT/AOT_stimuli/rescaled_final/0807_rv.mp4	0.0	287.4388439655304	
56	251.19066500663757	pulse	1	t		54.0	2.5	/experiments/AOT/AOT_stimuli/rescaled_final/0807_rv.mp4	0.0	289.0472209453583	
56	251.29839301109314	fix_post	2		12	54.0	2.5	/experiments/AOT/AOT_stimuli/rescaled_final/0807_rv.mp4	0.0	289.15494894981384	0.10039114952087402
57	251.398784160614	fix_pre	0		120	55.0	2.5	blank	1.0	289.2553400993347	0.9995269775390625
57	252.39831113815308	movie	1		300	55.0	2.5	blank	1.0	290.2548670768738	2.5005269050598145
57	252.7822060585022	pulse	1	t		55.0	2.5	blank	1.0	290.6387619972229	
57	254.38221216201782	pulse	1	t		55.0	2.5	blank	1.0	292.2387681007385	
57	254.8988380432129	fix_post	2		12	55.0	2.5	blank	1.0	292.7553939819336	0.09999704360961914
58	254.9988350868225	fix_pre	0		119	56.0	2.5	/experiments/AOT/AOT_stimuli/rescaled_final/1043_fw.mp4	0.0	292.8553910255432	0.9915540218353271
58	255.98229908943176	pulse	0	t		56.0	2.5	/experiments/AOT/AOT_stimuli/rescaled_final/1043_fw.mp4	0.0	293.83885502815247	
58	255.99038910865784	movie	1		247	56.0	2.5	/experiments/AOT/AOT_stimuli/rescaled_final/1043_fw.mp4	0.0	293.84694504737854	2.508249044418335
58	257.58228516578674	pulse	1	t		56.0	2.5	/experiments/AOT/AOT_stimuli/rescaled_final/1043_fw.mp4	0.0	295.43884110450745	
58	258.4986381530762	fix_post	2		12	56.0	2.5	/experiments/AOT/AOT_stimuli/rescaled_final/1043_fw.mp4	0.0	296.3551940917969	0.10001897811889648
59	258.59865713119507	fix_pre	0		120	57.0	2.5	/experiments/AOT/AOT_stimuli/rescaled_final/0609_rv.mp4	0.0	296.45521306991577	0.9996199607849121
59	259.1822030544281	pulse	0	t		57.0	2.5	/experiments/AOT/AOT_stimuli/rescaled_final/0609_rv.mp4	0.0	297.0387589931488	
59	259.59827709198	movie	1		246	57.0	2.5	/experiments/AOT/AOT_stimuli/rescaled_final/0609_rv.mp4	0.0	297.4548330307007	2.4999799728393555
59	260.7823510169983	pulse	1	t		57.0	2.5	/experiments/AOT/AOT_stimuli/rescaled_final/0609_rv.mp4	0.0	298.638906955719	
59	262.09825706481934	fix_post	2		12	57.0	2.5	/experiments/AOT/AOT_stimuli/rescaled_final/0609_rv.mp4	0.0	299.95481300354004	0.10044312477111816
60	262.19870018959045	fix_pre	0		120	58.0	2.5	/experiments/AOT/AOT_stimuli/rescaled_final/1535_fw.mp4	0.0	300.05525612831116	1.0000050067901611
60	262.38218808174133	pulse	0	t		58.0	2.5	/experiments/AOT/AOT_stimuli/rescaled_final/1535_fw.mp4	0.0	300.23874402046204	
60	263.1987051963806	movie	1		243	58.0	2.5	/experiments/AOT/AOT_stimuli/rescaled_final/1535_fw.mp4	0.0	301.0552611351013	2.4999098777770996
60	263.9822311401367	pulse	1	t		58.0	2.5	/experiments/AOT/AOT_stimuli/rescaled_final/1535_fw.mp4	0.0	301.8387870788574	
60	265.5905690193176	pulse	1	t		58.0	2.5	/experiments/AOT/AOT_stimuli/rescaled_final/1535_fw.mp4	0.0	303.44712495803833	
60	265.6986150741577	fix_post	2		12	58.0	2.5	/experiments/AOT/AOT_stimuli/rescaled_final/1535_fw.mp4	0.0	303.5551710128784	0.10003113746643066
61	265.79864621162415	fix_pre	0		120	59.0	2.5	/experiments/AOT/AOT_stimuli/rescaled_final/2034_rv.mp4	0.0	303.65520215034485	1.0000088214874268
61	266.7986550331116	movie	1		246	59.0	2.5	/experiments/AOT/AOT_stimuli/rescaled_final/2034_rv.mp4	0.0	304.6552109718323	2.5000250339508057
61	267.1816132068634	pulse	1	t		59.0	2.5	/experiments/AOT/AOT_stimuli/rescaled_final/2034_rv.mp4	0.0	305.0381691455841	
61	268.7821011543274	pulse	1	t		59.0	2.5	/experiments/AOT/AOT_stimuli/rescaled_final/2034_rv.mp4	0.0	306.6386570930481	
61	269.2986800670624	fix_post	2		12	59.0	2.5	/experiments/AOT/AOT_stimuli/rescaled_final/2034_rv.mp4	0.0	307.1552360057831	0.09995913505554199
62	269.3986392021179	fix_pre	0		119	60.0	2.5	/experiments/AOT/AOT_stimuli/rescaled_final/1465_rv.mp4	0.0	307.2551951408386	0.9917149543762207
62	270.38215017318726	pulse	0	t		60.0	2.5	/experiments/AOT/AOT_stimuli/rescaled_final/1465_rv.mp4	0.0	308.23870611190796	
62	270.39035415649414	movie	1		246	60.0	2.5	/experiments/AOT/AOT_stimuli/rescaled_final/1465_rv.mp4	0.0	308.24691009521484	2.5082650184631348
62	271.98178720474243	pulse	1	t		60.0	2.5	/experiments/AOT/AOT_stimuli/rescaled_final/1465_rv.mp4	0.0	309.83834314346313	
62	272.8986191749573	fix_post	2		12	60.0	2.5	/experiments/AOT/AOT_stimuli/rescaled_final/1465_rv.mp4	0.0	310.755175113678	0.1000058650970459
63	272.9986250400543	fix_pre	0		120	61.0	2.5	/experiments/AOT/AOT_stimuli/rescaled_final/0616_rv.mp4	0.0	310.855180978775	0.9995989799499512
63	273.5821340084076	pulse	0	t		61.0	2.5	/experiments/AOT/AOT_stimuli/rescaled_final/0616_rv.mp4	0.0	311.4386899471283	
63	273.9982240200043	movie	1		243	61.0	2.5	/experiments/AOT/AOT_stimuli/rescaled_final/0616_rv.mp4	0.0	311.854779958725	2.500364065170288
63	275.18220806121826	pulse	1	t		61.0	2.5	/experiments/AOT/AOT_stimuli/rescaled_final/0616_rv.mp4	0.0	313.03876399993896	
63	276.49858808517456	fix_post	2		12	61.0	2.5	/experiments/AOT/AOT_stimuli/rescaled_final/0616_rv.mp4	0.0	314.35514402389526	0.10001993179321289
64	276.5986080169678	fix_pre	0		120	62.0	2.5	/experiments/AOT/AOT_stimuli/rescaled_final/0761_fw.mp4	0.0	314.4551639556885	0.999589204788208
64	276.78217101097107	pulse	0	t		62.0	2.5	/experiments/AOT/AOT_stimuli/rescaled_final/0761_fw.mp4	0.0	314.6387269496918	
64	277.598197221756	movie	1		245	62.0	2.5	/experiments/AOT/AOT_stimuli/rescaled_final/0761_fw.mp4	0.0	315.4547531604767	2.5004169940948486
64	278.38212513923645	pulse	1	t		62.0	2.5	/experiments/AOT/AOT_stimuli/rescaled_final/0761_fw.mp4	0.0	316.23868107795715	
64	279.98206901550293	pulse	1	t		62.0	2.5	/experiments/AOT/AOT_stimuli/rescaled_final/0761_fw.mp4	0.0	317.83862495422363	
64	280.09861421585083	fix_post	2		12	62.0	2.5	/experiments/AOT/AOT_stimuli/rescaled_final/0761_fw.mp4	0.0	317.95517015457153	0.0999598503112793
65	280.1985740661621	fix_pre	0		120	63.0	2.5	blank	1.0	318.0551300048828	1.0000250339508057
65	281.1985991001129	movie	1		300	63.0	2.5	blank	1.0	319.0551550388336	2.4999499320983887
65	281.5820801258087	pulse	1	t		63.0	2.5	blank	1.0	319.4386360645294	
65	283.18198108673096	pulse	1	t		63.0	2.5	blank	1.0	321.03853702545166	
65	283.6985490322113	fix_post	2		12	63.0	2.5	blank	1.0	321.555104970932	0.09995412826538086
66	283.7985031604767	fix_pre	0		119	64.0	2.5	/experiments/AOT/AOT_stimuli/rescaled_final/0605_fw.mp4	0.0	321.6550590991974	0.9917659759521484
66	284.78206610679626	pulse	0	t		64.0	2.5	/experiments/AOT/AOT_stimuli/rescaled_final/0605_fw.mp4	0.0	322.63862204551697	
66	284.79026913642883	movie	1		245	64.0	2.5	/experiments/AOT/AOT_stimuli/rescaled_final/0605_fw.mp4	0.0	322.64682507514954	2.508267879486084
66	286.38297414779663	pulse	1	t		64.0	2.5	/experiments/AOT/AOT_stimuli/rescaled_final/0605_fw.mp4	0.0	324.23953008651733	
66	287.2985370159149	fix_post	2		12	64.0	2.5	/experiments/AOT/AOT_stimuli/rescaled_final/0605_fw.mp4	0.0	325.1550929546356	0.10008406639099121
67	287.3986210823059	fix_pre	0		120	65.0	2.5	/experiments/AOT/AOT_stimuli/rescaled_final/1582_rv.mp4	0.0	325.2551770210266	0.9995269775390625
67	287.9820840358734	pulse	0	t		65.0	2.5	/experiments/AOT/AOT_stimuli/rescaled_final/1582_rv.mp4	0.0	325.8386399745941	
67	288.39814805984497	movie	1		243	65.0	2.5	/experiments/AOT/AOT_stimuli/rescaled_final/1582_rv.mp4	0.0	326.2547039985657	2.500714063644409
67	289.58175015449524	pulse	1	t		65.0	2.5	/experiments/AOT/AOT_stimuli/rescaled_final/1582_rv.mp4	0.0	327.43830609321594	
67	290.8988621234894	fix_post	2		12	65.0	2.5	/experiments/AOT/AOT_stimuli/rescaled_final/1582_rv.mp4	0.0	328.7554180622101	0.10000395774841309
68	290.9988660812378	fix_pre	0		120	66.0	2.5	/experiments/AOT/AOT_stimuli/rescaled_final/2178_rv.mp4	0.0	328.8554220199585	0.9996950626373291
68	291.1819820404053	pulse	0	t		66.0	2.5	/experiments/AOT/AOT_stimuli/rescaled_final/2178_rv.mp4	0.0	329.038537979126	
68	291.9985611438751	movie	1		243	66.0	2.5	/experiments/AOT/AOT_stimuli/rescaled_final/2178_rv.mp4	0.0	329.8551170825958	2.5000369548797607
68	292.78193521499634	pulse	1	t		66.0	2.5	/experiments/AOT/AOT_stimuli/rescaled_final/2178_rv.mp4	0.0	330.63849115371704	
68	294.3903920650482	pulse	1	t		66.0	2.5	/experiments/AOT/AOT_stimuli/rescaled_final/2178_rv.mp4	0.0	332.2469480037689	
68	294.4985980987549	fix_post	2		12	66.0	2.5	/experiments/AOT/AOT_stimuli/rescaled_final/2178_rv.mp4	0.0	332.3551540374756	0.09990906715393066
69	294.5985071659088	fix_pre	0		120	67.0	2.5	/experiments/AOT/AOT_stimuli/rescaled_final/0647_rv.mp4	0.0	332.4550631046295	0.999971866607666
69	295.5984790325165	movie	1		245	67.0	2.5	/experiments/AOT/AOT_stimuli/rescaled_final/0647_rv.mp4	0.0	333.4550349712372	2.5000410079956055
69	295.9815502166748	pulse	1	t		67.0	2.5	/experiments/AOT/AOT_stimuli/rescaled_final/0647_rv.mp4	0.0	333.8381061553955	
69	297.5819880962372	pulse	1	t		67.0	2.5	/experiments/AOT/AOT_stimuli/rescaled_final/0647_rv.mp4	0.0	335.4385440349579	
69	298.0985200405121	fix_post	2		12	67.0	2.5	/experiments/AOT/AOT_stimuli/rescaled_final/0647_rv.mp4	0.0	335.9550759792328	0.09999704360961914
70	298.1985170841217	fix_pre	0		119	68.0	2.5	blank	1.0	336.0550730228424	0.9916391372680664
70	299.1820070743561	pulse	0	t		68.0	2.5	blank	1.0	337.0385630130768	
70	299.19015622138977	movie	1		301	68.0	2.5	blank	1.0	337.0467121601105	2.508305788040161
70	300.7819290161133	pulse	1	t		68.0	2.5	blank	1.0	338.638484954834	
70	301.69846200942993	fix_post	2		12	68.0	2.5	blank	1.0	339.55501794815063	0.1000370979309082
71	301.79849910736084	fix_pre	0		120	69.0	2.5	/experiments/AOT/AOT_stimuli/rescaled_final/1663_rv.mp4	0.0	339.65505504608154	1.0000169277191162
71	302.3819651603699	pulse	0	t		69.0	2.5	/experiments/AOT/AOT_stimuli/rescaled_final/1663_rv.mp4	0.0	340.2385210990906	
71	302.79851603507996	movie	1		244	69.0	2.5	/experiments/AOT/AOT_stimuli/rescaled_final/1663_rv.mp4	0.0	340.65507197380066	2.4996020793914795
71	303.9820680618286	pulse	1	t		69.0	2.5	/experiments/AOT/AOT_stimuli/rescaled_final/1663_rv.mp4	0.0	341.8386240005493	
71	305.29811811447144	fix_post	2		12	69.0	2.5	/experiments/AOT/AOT_stimuli/rescaled_final/1663_rv.mp4	0.0	343.15467405319214	0.10034608840942383
72	305.39846420288086	fix_pre	0		120	70.0	2.5	/experiments/AOT/AOT_stimuli/rescaled_final/1505_rv.mp4	0.0	343.25502014160156	1.0000648498535156
72	305.5819811820984	pulse	0	t		70.0	2.5	/experiments/AOT/AOT_stimuli/rescaled_final/1505_rv.mp4	0.0	343.4385371208191	
72	306.3985290527344	movie	1		245	70.0	2.5	/experiments/AOT/AOT_stimuli/rescaled_final/1505_rv.mp4	0.0	344.2550849914551	2.4999029636383057
72	307.1820161342621	pulse	1	t		70.0	2.5	/experiments/AOT/AOT_stimuli/rescaled_final/1505_rv.mp4	0.0	345.0385720729828	
72	308.78053522109985	pulse	1	t		70.0	2.5	/experiments/AOT/AOT_stimuli/rescaled_final/1505_rv.mp4	0.0	346.63709115982056	
72	308.8984320163727	fix_post	2		12	70.0	2.5	/experiments/AOT/AOT_stimuli/rescaled_final/1505_rv.mp4	0.0	346.7549879550934	0.10001015663146973
73	308.99844217300415	fix_pre	0		120	71.0	2.5	/experiments/AOT/AOT_stimuli/rescaled_final/1638_fw.mp4	0.0	346.85499811172485	0.9999618530273438
73	309.9984040260315	movie	1		245	71.0	2.5	/experiments/AOT/AOT_stimuli/rescaled_final/1638_fw.mp4	0.0	347.8549599647522	2.4996190071105957
73	310.3814730644226	pulse	1	t		71.0	2.5	/experiments/AOT/AOT_stimuli/rescaled_final/1638_fw.mp4	0.0	348.2380290031433	
73	311.9819052219391	pulse	1	t		71.0	2.5	/experiments/AOT/AOT_stimuli/rescaled_final/1638_fw.mp4	0.0	349.8384611606598	
73	312.4980230331421	fix_post	2		12	71.0	2.5	/experiments/AOT/AOT_stimuli/rescaled_final/1638_fw.mp4	0.0	350.3545789718628	0.09997010231018066
74	312.59799313545227	fix_pre	0		119	72.0	2.5	/experiments/AOT/AOT_stimuli/rescaled_final/1966_fw.mp4	0.0	350.454549074173	0.9920699596405029
74	313.5818340778351	pulse	0	t		72.0	2.5	/experiments/AOT/AOT_stimuli/rescaled_final/1966_fw.mp4	0.0	351.4383900165558	
74	313.5900630950928	movie	1		244	72.0	2.5	/experiments/AOT/AOT_stimuli/rescaled_final/1966_fw.mp4	0.0	351.4466190338135	2.5083091259002686
74	315.1816020011902	pulse	1	t		72.0	2.5	/experiments/AOT/AOT_stimuli/rescaled_final/1966_fw.mp4	0.0	353.0381579399109	
74	316.09837222099304	fix_post	2		12	72.0	2.5	/experiments/AOT/AOT_stimuli/rescaled_final/1966_fw.mp4	0.0	353.95492815971375	0.10006093978881836
75	316.19843316078186	fix_pre	0		120	73.0	2.5	/experiments/AOT/AOT_stimuli/rescaled_final/2079_fw.mp4	0.0	354.05498909950256	1.0000338554382324
75	316.7818422317505	pulse	0	t		73.0	2.5	/experiments/AOT/AOT_stimuli/rescaled_final/2079_fw.mp4	0.0	354.6383981704712	
75	317.1984670162201	movie	1		244	73.0	2.5	/experiments/AOT/AOT_stimuli/rescaled_final/2079_fw.mp4	0.0	355.0550229549408	2.4994730949401855
75	318.3819332122803	pulse	1	t		73.0	2.5	/experiments/AOT/AOT_stimuli/rescaled_final/2079_fw.mp4	0.0	356.238489151001	
75	319.6979401111603	fix_post	2		12	73.0	2.5	/experiments/AOT/AOT_stimuli/rescaled_final/2079_fw.mp4	0.0	357.554496049881	0.10047411918640137
76	319.7984142303467	fix_pre	0		120	74.0	2.5	/experiments/AOT/AOT_stimuli/rescaled_final/1098_fw.mp4	0.0	357.6549701690674	0.9999468326568604
76	319.9819140434265	pulse	0	t		74.0	2.5	/experiments/AOT/AOT_stimuli/rescaled_final/1098_fw.mp4	0.0	357.8384699821472	
76	320.79836106300354	movie	1		245	74.0	2.5	/experiments/AOT/AOT_stimuli/rescaled_final/1098_fw.mp4	0.0	358.65491700172424	2.50004506111145
76	321.5818860530853	pulse	1	t		74.0	2.5	/experiments/AOT/AOT_stimuli/rescaled_final/1098_fw.mp4	0.0	359.43844199180603	
76	323.1818881034851	pulse	1	t		74.0	2.5	/experiments/AOT/AOT_stimuli/rescaled_final/1098_fw.mp4	0.0	361.0384440422058	
76	323.298406124115	fix_post	2		12	74.0	2.5	/experiments/AOT/AOT_stimuli/rescaled_final/1098_fw.mp4	0.0	361.1549620628357	0.10004401206970215
77	323.3984501361847	fix_pre	0		120	75.0	2.5	/experiments/AOT/AOT_stimuli/rescaled_final/2112_fw.mp4	0.0	361.2550060749054	0.9995460510253906
77	324.3979961872101	movie	1		246	75.0	2.5	/experiments/AOT/AOT_stimuli/rescaled_final/2112_fw.mp4	0.0	362.2545521259308	2.500332832336426
77	324.78197622299194	pulse	1	t		75.0	2.5	/experiments/AOT/AOT_stimuli/rescaled_final/2112_fw.mp4	0.0	362.63853216171265	
77	326.38181710243225	pulse	1	t		75.0	2.5	/experiments/AOT/AOT_stimuli/rescaled_final/2112_fw.mp4	0.0	364.23837304115295	
77	326.8983290195465	fix_post	2		12	75.0	2.5	/experiments/AOT/AOT_stimuli/rescaled_final/2112_fw.mp4	0.0	364.7548849582672	0.10008716583251953
78	326.998416185379	fix_pre	0		119	76.0	2.5	blank	1.0	364.85497212409973	0.9916508197784424
78	327.98183512687683	pulse	0	t		76.0	2.5	blank	1.0	365.83839106559753	
78	327.99006700515747	movie	1		301	76.0	2.5	blank	1.0	365.8466229438782	2.5082430839538574
78	329.5818860530853	pulse	1	t		76.0	2.5	blank	1.0	367.43844199180603	
78	330.4983100891113	fix_post	2		12	76.0	2.5	blank	1.0	368.35486602783203	0.09997797012329102
79	330.5982880592346	fix_pre	0		120	77.0	2.5	/experiments/AOT/AOT_stimuli/rescaled_final/1124_fw.mp4	0.0	368.4548439979553	0.9996230602264404
79	331.1818561553955	pulse	0	t		77.0	2.5	/experiments/AOT/AOT_stimuli/rescaled_final/1124_fw.mp4	0.0	369.0384120941162	
79	331.59791111946106	movie	1		246	77.0	2.5	/experiments/AOT/AOT_stimuli/rescaled_final/1124_fw.mp4	0.0	369.45446705818176	2.500075101852417
79	332.7818820476532	pulse	1	t		77.0	2.5	/experiments/AOT/AOT_stimuli/rescaled_final/1124_fw.mp4	0.0	370.6384379863739	
79	334.0979862213135	fix_post	2		12	77.0	2.5	/experiments/AOT/AOT_stimuli/rescaled_final/1124_fw.mp4	0.0	371.9545421600342	0.10031294822692871
80	334.1982991695404	fix_pre	0		120	78.0	2.5	/experiments/AOT/AOT_stimuli/rescaled_final/0923_fw.mp4	0.0	372.0548551082611	1.0000050067901611
80	334.3818061351776	pulse	0	t		78.0	2.5	/experiments/AOT/AOT_stimuli/rescaled_final/0923_fw.mp4	0.0	372.2383620738983	
80	335.19830417633057	movie	1		244	78.0	2.5	/experiments/AOT/AOT_stimuli/rescaled_final/0923_fw.mp4	0.0	373.05486011505127	2.500046968460083
80	335.98179721832275	pulse	1	t		78.0	2.5	/experiments/AOT/AOT_stimuli/rescaled_final/0923_fw.mp4	0.0	373.83835315704346	
80	337.5902011394501	pulse	1	t		78.0	2.5	/experiments/AOT/AOT_stimuli/rescaled_final/0923_fw.mp4	0.0	375.4467570781708	
80	337.69835114479065	fix_post	2		12	78.0	2.5	/experiments/AOT/AOT_stimuli/rescaled_final/0923_fw.mp4	0.0	375.55490708351135	0.09999203681945801
81	337.7983431816101	fix_pre	0		120	79.0	2.5	/experiments/AOT/AOT_stimuli/rescaled_final/0366_rv.mp4	0.0	375.6548991203308	0.9995279312133789
81	338.7978711128235	movie	1		244	79.0	2.5	/experiments/AOT/AOT_stimuli/rescaled_final/0366_rv.mp4	0.0	376.6544270515442	2.500369071960449
81	339.18157720565796	pulse	1	t		79.0	2.5	/experiments/AOT/AOT_stimuli/rescaled_final/0366_rv.mp4	0.0	377.03813314437866	
81	340.7817530632019	pulse	1	t		79.0	2.5	/experiments/AOT/AOT_stimuli/rescaled_final/0366_rv.mp4	0.0	378.6383090019226	
81	341.29824018478394	fix_post	2		12	79.0	2.5	/experiments/AOT/AOT_stimuli/rescaled_final/0366_rv.mp4	0.0	379.15479612350464	0.10005402565002441
82	341.39829421043396	fix_pre	0		119	80.0	2.5	/experiments/AOT/AOT_stimuli/rescaled_final/2093_fw.mp4	0.0	379.25485014915466	0.9916799068450928
82	342.38180899620056	pulse	0	t		80.0	2.5	/experiments/AOT/AOT_stimuli/rescaled_final/2093_fw.mp4	0.0	380.23836493492126	
82	342.38997411727905	movie	1		246	80.0	2.5	/experiments/AOT/AOT_stimuli/rescaled_final/2093_fw.mp4	0.0	380.24653005599976	2.508375883102417
82	343.98091101646423	pulse	1	t		80.0	2.5	/experiments/AOT/AOT_stimuli/rescaled_final/2093_fw.mp4	0.0	381.83746695518494	
82	344.89835000038147	fix_post	2		12	80.0	2.5	/experiments/AOT/AOT_stimuli/rescaled_final/2093_fw.mp4	0.0	382.7549059391022	0.10005807876586914
83	344.99840807914734	fix_pre	0		120	81.0	2.5	/experiments/AOT/AOT_stimuli/rescaled_final/0468_rv.mp4	0.0	382.85496401786804	0.9997110366821289
83	345.5814712047577	pulse	0	t		81.0	2.5	/experiments/AOT/AOT_stimuli/rescaled_final/0468_rv.mp4	0.0	383.4380271434784	
83	345.99811911582947	movie	1		246	81.0	2.5	/experiments/AOT/AOT_stimuli/rescaled_final/0468_rv.mp4	0.0	383.85467505455017	2.500133991241455
83	347.1818401813507	pulse	1	t		81.0	2.5	/experiments/AOT/AOT_stimuli/rescaled_final/0468_rv.mp4	0.0	385.0383961200714	
83	348.4982531070709	fix_post	2		12	81.0	2.5	/experiments/AOT/AOT_stimuli/rescaled_final/0468_rv.mp4	0.0	386.3548090457916	0.09981799125671387
84	348.59807109832764	fix_pre	0		120	82.0	2.5	blank	1.0	386.45462703704834	1.0001749992370605
84	348.7818081378937	pulse	0	t		82.0	2.5	blank	1.0	386.6383640766144	
84	349.5982460975647	movie	1		300	82.0	2.5	blank	1.0	387.4548020362854	2.4999780654907227
84	350.38170313835144	pulse	1	t		82.0	2.5	blank	1.0	388.23825907707214	
84	351.9816710948944	pulse	1	t		82.0	2.5	blank	1.0	389.8382270336151	
84	352.0982241630554	fix_post	2		12	82.0	2.5	blank	1.0	389.9547801017761	0.09997391700744629
85	352.19819808006287	fix_pre	0		120	83.0	2.5	/experiments/AOT/AOT_stimuli/rescaled_final/0584_rv.mp4	0.0	390.05475401878357	0.9999129772186279
85	353.1981110572815	movie	1		245	83.0	2.5	/experiments/AOT/AOT_stimuli/rescaled_final/0584_rv.mp4	0.0	391.0546669960022	2.500070095062256
85	353.5815100669861	pulse	1	t		83.0	2.5	/experiments/AOT/AOT_stimuli/rescaled_final/0584_rv.mp4	0.0	391.4380660057068	
85	355.181734085083	pulse	1	t		83.0	2.5	/experiments/AOT/AOT_stimuli/rescaled_final/0584_rv.mp4	0.0	393.0382900238037	
85	355.69818115234375	fix_post	2		12	83.0	2.5	/experiments/AOT/AOT_stimuli/rescaled_final/0584_rv.mp4	0.0	393.55473709106445	0.10004687309265137
87	355.7982280254364	stim	0		1716					393.6547839641571	14.299939155578613
87	356.7816882133484	pulse	0	t						394.6382441520691	
87	358.38167905807495	pulse	0	t						396.23823499679565	
87	359.98161220550537	pulse	0	t						397.8381681442261	
87	361.58159613609314	pulse	0	t						399.43815207481384	
87	363.1816761493683	pulse	0	t						401.038232088089	
87	364.78154706954956	pulse	0	t						402.63810300827026	
87	366.38166213035583	pulse	0	t						404.23821806907654	
87	367.9816401004791	pulse	0	t						405.83819603919983	
87	369.5816731452942	pulse	0	t						407.4382290840149	
