trial_nr	onset	event_type	phase	response	nr_frames	movie_index	movie_duration	movie_file	blank	onset_abs	duration
0	0.1332228183746338	stim	0		198					23.11119794845581	1.6499571800231934
0	1.7751779556274414	response	0	space						24.753153085708618	
1	1.7831799983978271	stim	0		50147					24.761155128479004	417.8895699977875
1	419.66917181015015	pulse	0	t						442.6471469402313	
1	419.6727499961853	stim	1		1717					442.6507251262665	14.308231830596924
1	421.26486897468567	pulse	1	t						444.24284410476685	
1	422.86456394195557	pulse	1	t						445.84253907203674	
1	424.4645929336548	pulse	1	t						447.44256806373596	
1	426.06462001800537	pulse	1	t						449.04259514808655	
1	427.6645917892456	pulse	1	t						450.6425669193268	
1	429.2645478248596	pulse	1	t						452.2425229549408	
1	430.8645739555359	pulse	1	t						453.84254908561707	
1	432.4645848274231	pulse	1	t						455.4425599575043	
2	433.9809818267822	fix_pre	0		11	0.0	2.5	/experiments/AOT/AOT_stimuli/rescaled_final/0009_rv.mp4	0.0	456.9589569568634	0.09173798561096191
2	434.0645740032196	pulse	0	t		0.0	2.5	/experiments/AOT/AOT_stimuli/rescaled_final/0009_rv.mp4	0.0	457.0425491333008	
2	434.0727198123932	movie	1		242	0.0	2.5	/experiments/AOT/AOT_stimuli/rescaled_final/0009_rv.mp4	0.0	457.05069494247437	2.508254051208496
2	435.6641058921814	pulse	1	t		0.0	2.5	/experiments/AOT/AOT_stimuli/rescaled_final/0009_rv.mp4	0.0	458.6420810222626	
2	436.5809738636017	fix_post	2		12	0.0	2.5	/experiments/AOT/AOT_stimuli/rescaled_final/0009_rv.mp4	0.0	459.55894899368286	0.10009598731994629
3	436.68106985092163	fix_pre	0		120	1.0	2.5	/experiments/AOT/AOT_stimuli/rescaled_final/0188_fw.mp4	0.0	459.6590449810028	1.000014066696167
3	437.26459884643555	pulse	0	t		1.0	2.5	/experiments/AOT/AOT_stimuli/rescaled_final/0188_fw.mp4	0.0	460.2425739765167	
3	437.6810839176178	movie	1		244	1.0	2.5	/experiments/AOT/AOT_stimuli/rescaled_final/0188_fw.mp4	0.0	460.659059047699	2.5
3	438.8646779060364	pulse	1	t		1.0	2.5	/experiments/AOT/AOT_stimuli/rescaled_final/0188_fw.mp4	0.0	461.84265303611755	
3	440.1810839176178	fix_post	2		12	1.0	2.5	/experiments/AOT/AOT_stimuli/rescaled_final/0188_fw.mp4	0.0	463.159059047699	0.09994292259216309
4	440.28102684020996	fix_pre	0		120	2.0	2.5	/experiments/AOT/AOT_stimuli/rescaled_final/0549_rv.mp4	0.0	463.25900197029114	1.0000860691070557
4	440.46457982063293	pulse	0	t		2.0	2.5	/experiments/AOT/AOT_stimuli/rescaled_final/0549_rv.mp4	0.0	463.4425549507141	
4	441.281112909317	movie	1		245	2.0	2.5	/experiments/AOT/AOT_stimuli/rescaled_final/0549_rv.mp4	0.0	464.2590880393982	2.499587059020996
4	442.06402587890625	pulse	1	t		2.0	2.5	/experiments/AOT/AOT_stimuli/rescaled_final/0549_rv.mp4	0.0	465.0420010089874	
4	443.66238498687744	pulse	1	t		2.0	2.5	/experiments/AOT/AOT_stimuli/rescaled_final/0549_rv.mp4	0.0	466.6403601169586	
4	443.780699968338	fix_post	2		12	2.0	2.5	/experiments/AOT/AOT_stimuli/rescaled_final/0549_rv.mp4	0.0	466.7586750984192	0.0999138355255127
5	443.8806138038635	fix_pre	0		120	3.0	2.5	/experiments/AOT/AOT_stimuli/rescaled_final/0203_rv.mp4	0.0	466.8585889339447	1.0006651878356934
5	444.8812789916992	movie	1		244	3.0	2.5	/experiments/AOT/AOT_stimuli/rescaled_final/0203_rv.mp4	0.0	467.8592541217804	2.499666929244995
5	445.26453590393066	pulse	1	t		3.0	2.5	/experiments/AOT/AOT_stimuli/rescaled_final/0203_rv.mp4	0.0	468.24251103401184	
5	446.8645679950714	pulse	1	t		3.0	2.5	/experiments/AOT/AOT_stimuli/rescaled_final/0203_rv.mp4	0.0	469.8425431251526	
5	447.3809459209442	fix_post	2		12	3.0	2.5	/experiments/AOT/AOT_stimuli/rescaled_final/0203_rv.mp4	0.0	470.3589210510254	0.1001138687133789
6	447.4810597896576	fix_pre	0		119	4.0	2.5	/experiments/AOT/AOT_stimuli/rescaled_final/1752_rv.mp4	0.0	470.45903491973877	0.9916651248931885
6	448.4645109176636	pulse	0	t		4.0	2.5	/experiments/AOT/AOT_stimuli/rescaled_final/1752_rv.mp4	0.0	471.44248604774475	
6	448.4727249145508	movie	1		245	4.0	2.5	/experiments/AOT/AOT_stimuli/rescaled_final/1752_rv.mp4	0.0	471.45070004463196	2.508258104324341
6	450.0647850036621	pulse	1	t		4.0	2.5	/experiments/AOT/AOT_stimuli/rescaled_final/1752_rv.mp4	0.0	473.0427601337433	
6	450.9809830188751	fix_post	2		12	4.0	2.5	/experiments/AOT/AOT_stimuli/rescaled_final/1752_rv.mp4	0.0	473.9589581489563	0.09995484352111816
7	451.08093786239624	fix_pre	0		120	5.0	2.5	blank	1.0	474.0589129924774	0.9996180534362793
7	451.6644148826599	pulse	0	t		5.0	2.5	blank	1.0	474.6423900127411	
7	452.0805559158325	movie	1		300	5.0	2.5	blank	1.0	475.0585310459137	2.5003769397735596
7	453.26458501815796	pulse	1	t		5.0	2.5	blank	1.0	476.24256014823914	
7	454.5809328556061	fix_post	2		12	5.0	2.5	blank	1.0	477.55890798568726	0.09998607635498047
8	454.68091893196106	fix_pre	0		120	6.0	2.5	/experiments/AOT/AOT_stimuli/rescaled_final/2064_rv.mp4	0.0	477.65889406204224	1.0000629425048828
8	454.8644349575043	pulse	0	t		6.0	2.5	/experiments/AOT/AOT_stimuli/rescaled_final/2064_rv.mp4	0.0	477.84241008758545	
8	455.68098187446594	movie	1		246	6.0	2.5	/experiments/AOT/AOT_stimuli/rescaled_final/2064_rv.mp4	0.0	478.6589570045471	2.499964952468872
8	456.46438789367676	pulse	1	t		6.0	2.5	/experiments/AOT/AOT_stimuli/rescaled_final/2064_rv.mp4	0.0	479.44236302375793	
8	458.063040971756	pulse	1	t		6.0	2.5	/experiments/AOT/AOT_stimuli/rescaled_final/2064_rv.mp4	0.0	481.04101610183716	
8	458.1809468269348	fix_post	2		12	6.0	2.5	/experiments/AOT/AOT_stimuli/rescaled_final/2064_rv.mp4	0.0	481.158921957016	0.10000896453857422
9	458.2809557914734	fix_pre	0		120	7.0	2.5	/experiments/AOT/AOT_stimuli/rescaled_final/1979_fw.mp4	0.0	481.25893092155457	0.999981164932251
9	459.28093695640564	movie	1		245	7.0	2.5	/experiments/AOT/AOT_stimuli/rescaled_final/1979_fw.mp4	0.0	482.2589120864868	2.4999940395355225
9	459.6638569831848	pulse	1	t		7.0	2.5	/experiments/AOT/AOT_stimuli/rescaled_final/1979_fw.mp4	0.0	482.641832113266	
9	461.26442193984985	pulse	1	t		7.0	2.5	/experiments/AOT/AOT_stimuli/rescaled_final/1979_fw.mp4	0.0	484.24239706993103	
9	461.78093099594116	fix_post	2		12	7.0	2.5	/experiments/AOT/AOT_stimuli/rescaled_final/1979_fw.mp4	0.0	484.75890612602234	0.09999585151672363
10	461.8809268474579	fix_pre	0		119	8.0	2.5	/experiments/AOT/AOT_stimuli/rescaled_final/0351_fw.mp4	0.0	484.85890197753906	0.991645097732544
10	462.86444091796875	pulse	0	t		8.0	2.5	/experiments/AOT/AOT_stimuli/rescaled_final/0351_fw.mp4	0.0	485.8424160480499	
10	462.87257194519043	movie	1		246	8.0	2.5	/experiments/AOT/AOT_stimuli/rescaled_final/0351_fw.mp4	0.0	485.8505470752716	2.5083749294281006
10	464.46430683135986	pulse	1	t		8.0	2.5	/experiments/AOT/AOT_stimuli/rescaled_final/0351_fw.mp4	0.0	487.44228196144104	
10	465.38094687461853	fix_post	2		12	8.0	2.5	/experiments/AOT/AOT_stimuli/rescaled_final/0351_fw.mp4	0.0	488.3589220046997	0.09996700286865234
11	465.4809138774872	fix_pre	0		120	9.0	2.5	/experiments/AOT/AOT_stimuli/rescaled_final/0303_rv.mp4	0.0	488.45888900756836	1.000087022781372
11	466.06441497802734	pulse	0	t		9.0	2.5	/experiments/AOT/AOT_stimuli/rescaled_final/0303_rv.mp4	0.0	489.0423901081085	
11	466.48100090026855	movie	1		244	9.0	2.5	/experiments/AOT/AOT_stimuli/rescaled_final/0303_rv.mp4	0.0	489.45897603034973	2.499521017074585
11	467.6644330024719	pulse	1	t		9.0	2.5	/experiments/AOT/AOT_stimuli/rescaled_final/0303_rv.mp4	0.0	490.6424081325531	
11	468.98052191734314	fix_post	2		12	9.0	2.5	/experiments/AOT/AOT_stimuli/rescaled_final/0303_rv.mp4	0.0	491.9584970474243	0.10036396980285645
12	469.080885887146	fix_pre	0		120	10.0	2.5	/experiments/AOT/AOT_stimuli/rescaled_final/0896_rv.mp4	0.0	492.0588610172272	1.0001270771026611
12	469.26438879966736	pulse	0	t		10.0	2.5	/experiments/AOT/AOT_stimuli/rescaled_final/0896_rv.mp4	0.0	492.24236392974854	
12	470.08101296424866	movie	1		243	10.0	2.5	/experiments/AOT/AOT_stimuli/rescaled_final/0896_rv.mp4	0.0	493.05898809432983	2.4998018741607666
12	470.86440086364746	pulse	1	t		10.0	2.5	/experiments/AOT/AOT_stimuli/rescaled_final/0896_rv.mp4	0.0	493.84237599372864	
12	472.4629228115082	pulse	1	t		10.0	2.5	/experiments/AOT/AOT_stimuli/rescaled_final/0896_rv.mp4	0.0	495.44089794158936	
12	472.5808148384094	fix_post	2		12	10.0	2.5	/experiments/AOT/AOT_stimuli/rescaled_final/0896_rv.mp4	0.0	495.5587899684906	0.10004711151123047
13	472.68086194992065	fix_pre	0		120	11.0	2.5	/experiments/AOT/AOT_stimuli/rescaled_final/1511_rv.mp4	0.0	495.65883708000183	1.0000228881835938
13	473.68088483810425	movie	1		242	11.0	2.5	/experiments/AOT/AOT_stimuli/rescaled_final/1511_rv.mp4	0.0	496.6588599681854	2.499530076980591
13	474.06419587135315	pulse	1	t		11.0	2.5	/experiments/AOT/AOT_stimuli/rescaled_final/1511_rv.mp4	0.0	497.0421710014343	
13	475.66435289382935	pulse	1	t		11.0	2.5	/experiments/AOT/AOT_stimuli/rescaled_final/1511_rv.mp4	0.0	498.6423280239105	
13	476.18041491508484	fix_post	2		12	11.0	2.5	/experiments/AOT/AOT_stimuli/rescaled_final/1511_rv.mp4	0.0	499.158390045166	0.1004180908203125
14	476.28083300590515	fix_pre	0		119	12.0	2.5	/experiments/AOT/AOT_stimuli/rescaled_final/2152_fw.mp4	0.0	499.2588081359863	0.991569995880127
14	477.2643389701843	pulse	0	t		12.0	2.5	/experiments/AOT/AOT_stimuli/rescaled_final/2152_fw.mp4	0.0	500.2423141002655	
14	477.2724030017853	movie	1		244	12.0	2.5	/experiments/AOT/AOT_stimuli/rescaled_final/2152_fw.mp4	0.0	500.25037813186646	2.5080819129943848
14	478.8639259338379	pulse	1	t		12.0	2.5	/experiments/AOT/AOT_stimuli/rescaled_final/2152_fw.mp4	0.0	501.84190106391907	
14	479.78048491477966	fix_post	2		12	12.0	2.5	/experiments/AOT/AOT_stimuli/rescaled_final/2152_fw.mp4	0.0	502.75846004486084	0.10039687156677246
15	479.88088178634644	fix_pre	0		120	13.0	2.5	/experiments/AOT/AOT_stimuli/rescaled_final/1509_rv.mp4	0.0	502.8588569164276	1.0000851154327393
15	480.4643437862396	pulse	0	t		13.0	2.5	/experiments/AOT/AOT_stimuli/rescaled_final/1509_rv.mp4	0.0	503.4423189163208	
15	480.8809669017792	movie	1		246	13.0	2.5	/experiments/AOT/AOT_stimuli/rescaled_final/1509_rv.mp4	0.0	503.85894203186035	2.499856948852539
15	482.064425945282	pulse	1	t		13.0	2.5	/experiments/AOT/AOT_stimuli/rescaled_final/1509_rv.mp4	0.0	505.04240107536316	
15	483.3808238506317	fix_post	2		12	13.0	2.5	/experiments/AOT/AOT_stimuli/rescaled_final/1509_rv.mp4	0.0	506.3587989807129	0.10004997253417969
16	483.4808738231659	fix_pre	0		120	14.0	2.5	blank	1.0	506.45884895324707	0.9995720386505127
16	483.6644239425659	pulse	0	t		14.0	2.5	blank	1.0	506.6423990726471	
16	484.4804458618164	movie	1		300	14.0	2.5	blank	1.0	507.4584209918976	2.5003890991210938
16	485.26430201530457	pulse	1	t		14.0	2.5	blank	1.0	508.24227714538574	
16	486.8642258644104	pulse	1	t		14.0	2.5	blank	1.0	509.8422009944916	
16	486.9808349609375	fix_post	2		12	14.0	2.5	blank	1.0	509.9588100910187	0.0999758243560791
17	487.0808107852936	fix_pre	0		120	15.0	2.5	/experiments/AOT/AOT_stimuli/rescaled_final/0923_fw.mp4	0.0	510.05878591537476	1.000042200088501
17	488.0808529853821	movie	1		244	15.0	2.5	/experiments/AOT/AOT_stimuli/rescaled_final/0923_fw.mp4	0.0	511.05882811546326	2.4999749660491943
17	488.4635999202728	pulse	1	t		15.0	2.5	/experiments/AOT/AOT_stimuli/rescaled_final/0923_fw.mp4	0.0	511.441575050354	
17	490.06427693367004	pulse	1	t		15.0	2.5	/experiments/AOT/AOT_stimuli/rescaled_final/0923_fw.mp4	0.0	513.0422520637512	
17	490.5808279514313	fix_post	2		12	15.0	2.5	/experiments/AOT/AOT_stimuli/rescaled_final/0923_fw.mp4	0.0	513.5588030815125	0.10003995895385742
18	490.68086791038513	fix_pre	0		119	16.0	2.5	/experiments/AOT/AOT_stimuli/rescaled_final/0351_rv.mp4	0.0	513.6588430404663	0.9918010234832764
18	491.66431283950806	pulse	0	t		16.0	2.5	/experiments/AOT/AOT_stimuli/rescaled_final/0351_rv.mp4	0.0	514.6422879695892	
18	491.6726689338684	movie	1		245	16.0	2.5	/experiments/AOT/AOT_stimuli/rescaled_final/0351_rv.mp4	0.0	514.6506440639496	2.5080950260162354
18	493.2639389038086	pulse	1	t		16.0	2.5	/experiments/AOT/AOT_stimuli/rescaled_final/0351_rv.mp4	0.0	516.2419140338898	
18	494.18076395988464	fix_post	2		12	16.0	2.5	/experiments/AOT/AOT_stimuli/rescaled_final/0351_rv.mp4	0.0	517.1587390899658	0.09990596771240234
19	494.28066992759705	fix_pre	0		120	17.0	2.5	/experiments/AOT/AOT_stimuli/rescaled_final/2017_rv.mp4	0.0	517.2586450576782	1.0002589225769043
19	494.8643088340759	pulse	0	t		17.0	2.5	/experiments/AOT/AOT_stimuli/rescaled_final/2017_rv.mp4	0.0	517.8422839641571	
19	495.28092885017395	movie	1		245	17.0	2.5	/experiments/AOT/AOT_stimuli/rescaled_final/2017_rv.mp4	0.0	518.2589039802551	2.499873161315918
19	496.46430492401123	pulse	1	t		17.0	2.5	/experiments/AOT/AOT_stimuli/rescaled_final/2017_rv.mp4	0.0	519.4422800540924	
19	497.78080201148987	fix_post	2		12	17.0	2.5	/experiments/AOT/AOT_stimuli/rescaled_final/2017_rv.mp4	0.0	520.758777141571	0.09997296333312988
20	497.880774974823	fix_pre	0		120	18.0	2.5	/experiments/AOT/AOT_stimuli/rescaled_final/0577_rv.mp4	0.0	520.8587501049042	1.0000059604644775
20	498.06425499916077	pulse	0	t		18.0	2.5	/experiments/AOT/AOT_stimuli/rescaled_final/0577_rv.mp4	0.0	521.042230129242	
20	498.8807809352875	movie	1		243	18.0	2.5	/experiments/AOT/AOT_stimuli/rescaled_final/0577_rv.mp4	0.0	521.8587560653687	2.500304937362671
20	499.663831949234	pulse	1	t		18.0	2.5	/experiments/AOT/AOT_stimuli/rescaled_final/0577_rv.mp4	0.0	522.6418070793152	
20	501.26223587989807	pulse	1	t		18.0	2.5	/experiments/AOT/AOT_stimuli/rescaled_final/0577_rv.mp4	0.0	524.2402110099792	
20	501.38108587265015	fix_post	2		12	18.0	2.5	/experiments/AOT/AOT_stimuli/rescaled_final/0577_rv.mp4	0.0	524.3590610027313	0.09999704360961914
21	501.48108291625977	fix_pre	0		120	19.0	2.5	/experiments/AOT/AOT_stimuli/rescaled_final/1517_fw.mp4	0.0	524.4590580463409	0.999824047088623
21	502.4809069633484	movie	1		245	19.0	2.5	/experiments/AOT/AOT_stimuli/rescaled_final/1517_fw.mp4	0.0	525.4588820934296	2.4998619556427
21	502.8643238544464	pulse	1	t		19.0	2.5	/experiments/AOT/AOT_stimuli/rescaled_final/1517_fw.mp4	0.0	525.8422989845276	
21	504.4641888141632	pulse	1	t		19.0	2.5	/experiments/AOT/AOT_stimuli/rescaled_final/1517_fw.mp4	0.0	527.4421639442444	
21	504.9807689189911	fix_post	2		12	19.0	2.5	/experiments/AOT/AOT_stimuli/rescaled_final/1517_fw.mp4	0.0	527.9587440490723	0.09997105598449707
22	505.0807399749756	fix_pre	0		119	20.0	2.5	/experiments/AOT/AOT_stimuli/rescaled_final/1751_fw.mp4	0.0	528.0587151050568	0.9916279315948486
22	506.06419491767883	pulse	0	t		20.0	2.5	/experiments/AOT/AOT_stimuli/rescaled_final/1751_fw.mp4	0.0	529.04217004776	
22	506.07236790657043	movie	1		246	20.0	2.5	/experiments/AOT/AOT_stimuli/rescaled_final/1751_fw.mp4	0.0	529.0503430366516	2.5083000659942627
22	507.66371297836304	pulse	1	t		20.0	2.5	/experiments/AOT/AOT_stimuli/rescaled_final/1751_fw.mp4	0.0	530.6416881084442	
22	508.5806679725647	fix_post	2		12	20.0	2.5	/experiments/AOT/AOT_stimuli/rescaled_final/1751_fw.mp4	0.0	531.5586431026459	0.10001993179321289
23	508.6806879043579	fix_pre	0		120	21.0	2.5	blank	1.0	531.6586630344391	0.999985933303833
23	509.26419496536255	pulse	0	t		21.0	2.5	blank	1.0	532.2421700954437	
23	509.68067383766174	movie	1		300	21.0	2.5	blank	1.0	532.6586489677429	2.5000271797180176
23	510.8642189502716	pulse	1	t		21.0	2.5	blank	1.0	533.8421940803528	
23	512.1807010173798	fix_post	2		12	21.0	2.5	blank	1.0	535.1586761474609	0.09991979598999023
24	512.2806208133698	fix_pre	0		120	22.0	2.5	/experiments/AOT/AOT_stimuli/rescaled_final/1578_rv.mp4	0.0	535.2585959434509	1.0000011920928955
24	512.4641728401184	pulse	0	t		22.0	2.5	/experiments/AOT/AOT_stimuli/rescaled_final/1578_rv.mp4	0.0	535.4421479701996	
24	513.2806220054626	movie	1		245	22.0	2.5	/experiments/AOT/AOT_stimuli/rescaled_final/1578_rv.mp4	0.0	536.2585971355438	2.4999759197235107
24	514.0641539096832	pulse	1	t		22.0	2.5	/experiments/AOT/AOT_stimuli/rescaled_final/1578_rv.mp4	0.0	537.0421290397644	
24	515.6642088890076	pulse	1	t		22.0	2.5	/experiments/AOT/AOT_stimuli/rescaled_final/1578_rv.mp4	0.0	538.6421840190887	
24	515.7805979251862	fix_post	2		12	22.0	2.5	/experiments/AOT/AOT_stimuli/rescaled_final/1578_rv.mp4	0.0	538.7585730552673	0.10005998611450195
25	515.8806579113007	fix_pre	0		120	23.0	2.5	/experiments/AOT/AOT_stimuli/rescaled_final/0464_rv.mp4	0.0	538.8586330413818	0.9999239444732666
25	516.8805818557739	movie	1		243	23.0	2.5	/experiments/AOT/AOT_stimuli/rescaled_final/0464_rv.mp4	0.0	539.8585569858551	2.5000641345977783
25	517.2644729614258	pulse	1	t		23.0	2.5	/experiments/AOT/AOT_stimuli/rescaled_final/0464_rv.mp4	0.0	540.242448091507	
25	518.8641538619995	pulse	1	t		23.0	2.5	/experiments/AOT/AOT_stimuli/rescaled_final/0464_rv.mp4	0.0	541.8421289920807	
25	519.3806459903717	fix_post	2		12	23.0	2.5	/experiments/AOT/AOT_stimuli/rescaled_final/0464_rv.mp4	0.0	542.3586211204529	0.09997391700744629
26	519.4806199073792	fix_pre	0		119	24.0	2.5	/experiments/AOT/AOT_stimuli/rescaled_final/0236_fw.mp4	0.0	542.4585950374603	0.9916679859161377
26	520.4641098976135	pulse	0	t		24.0	2.5	/experiments/AOT/AOT_stimuli/rescaled_final/0236_fw.mp4	0.0	543.4420850276947	
26	520.4722878932953	movie	1		246	24.0	2.5	/experiments/AOT/AOT_stimuli/rescaled_final/0236_fw.mp4	0.0	543.4502630233765	2.50839900970459
26	522.0639088153839	pulse	1	t		24.0	2.5	/experiments/AOT/AOT_stimuli/rescaled_final/0236_fw.mp4	0.0	545.0418839454651	
26	522.9806869029999	fix_post	2		12	24.0	2.5	/experiments/AOT/AOT_stimuli/rescaled_final/0236_fw.mp4	0.0	545.958662033081	0.0998990535736084
27	523.0805859565735	fix_pre	0		120	25.0	2.5	/experiments/AOT/AOT_stimuli/rescaled_final/0929_rv.mp4	0.0	546.0585610866547	1.0000598430633545
27	523.6641240119934	pulse	0	t		25.0	2.5	/experiments/AOT/AOT_stimuli/rescaled_final/0929_rv.mp4	0.0	546.6420991420746	
27	524.0806457996368	movie	1		246	25.0	2.5	/experiments/AOT/AOT_stimuli/rescaled_final/0929_rv.mp4	0.0	547.058620929718	2.4999821186065674
27	525.2641279697418	pulse	1	t		25.0	2.5	/experiments/AOT/AOT_stimuli/rescaled_final/0929_rv.mp4	0.0	548.242103099823	
27	526.5806279182434	fix_post	2		12	25.0	2.5	/experiments/AOT/AOT_stimuli/rescaled_final/0929_rv.mp4	0.0	549.5586030483246	0.0999898910522461
28	526.6806178092957	fix_pre	0		120	26.0	2.5	blank	1.0	549.6585929393768	0.9999661445617676
28	526.8640909194946	pulse	0	t		26.0	2.5	blank	1.0	549.8420660495758	
28	527.6805839538574	movie	1		300	26.0	2.5	blank	1.0	550.6585590839386	2.499969005584717
28	528.4640679359436	pulse	1	t		26.0	2.5	blank	1.0	551.4420430660248	
28	530.0642328262329	pulse	1	t		26.0	2.5	blank	1.0	553.0422079563141	
28	530.1805529594421	fix_post	2		12	26.0	2.5	blank	1.0	553.1585280895233	0.09961390495300293
29	530.2801668643951	fix_pre	0		120	27.0	2.5	/experiments/AOT/AOT_stimuli/rescaled_final/0335_fw.mp4	0.0	553.2581419944763	1.000438928604126
29	531.2806057929993	movie	1		244	27.0	2.5	/experiments/AOT/AOT_stimuli/rescaled_final/0335_fw.mp4	0.0	554.2585809230804	2.499906063079834
29	531.6642129421234	pulse	1	t		27.0	2.5	/experiments/AOT/AOT_stimuli/rescaled_final/0335_fw.mp4	0.0	554.6421880722046	
29	533.2641220092773	pulse	1	t		27.0	2.5	/experiments/AOT/AOT_stimuli/rescaled_final/0335_fw.mp4	0.0	556.2420971393585	
29	533.7805118560791	fix_post	2		12	27.0	2.5	/experiments/AOT/AOT_stimuli/rescaled_final/0335_fw.mp4	0.0	556.7584869861603	0.10005807876586914
30	533.880569934845	fix_pre	0		119	28.0	2.5	/experiments/AOT/AOT_stimuli/rescaled_final/1911_rv.mp4	0.0	556.8585450649261	0.991671085357666
30	534.8640530109406	pulse	0	t		28.0	2.5	/experiments/AOT/AOT_stimuli/rescaled_final/1911_rv.mp4	0.0	557.8420281410217	
30	534.8722410202026	movie	1		245	28.0	2.5	/experiments/AOT/AOT_stimuli/rescaled_final/1911_rv.mp4	0.0	557.8502161502838	2.5083348751068115
30	536.4635210037231	pulse	1	t		28.0	2.5	/experiments/AOT/AOT_stimuli/rescaled_final/1911_rv.mp4	0.0	559.4414961338043	
30	537.3805758953094	fix_post	2		12	28.0	2.5	/experiments/AOT/AOT_stimuli/rescaled_final/1911_rv.mp4	0.0	560.3585510253906	0.10004496574401855
31	537.4806208610535	fix_pre	0		120	29.0	2.5	/experiments/AOT/AOT_stimuli/rescaled_final/0040_rv.mp4	0.0	560.4585959911346	1.0000181198120117
31	538.0640099048615	pulse	0	t		29.0	2.5	/experiments/AOT/AOT_stimuli/rescaled_final/0040_rv.mp4	0.0	561.0419850349426	
31	538.4806389808655	movie	1		244	29.0	2.5	/experiments/AOT/AOT_stimuli/rescaled_final/0040_rv.mp4	0.0	561.4586141109467	2.499866008758545
31	539.6640329360962	pulse	1	t		29.0	2.5	/experiments/AOT/AOT_stimuli/rescaled_final/0040_rv.mp4	0.0	562.6420080661774	
31	540.980504989624	fix_post	2		12	29.0	2.5	/experiments/AOT/AOT_stimuli/rescaled_final/0040_rv.mp4	0.0	563.9584801197052	0.10001397132873535
32	541.0805189609528	fix_pre	0		120	30.0	2.5	/experiments/AOT/AOT_stimuli/rescaled_final/0724_rv.mp4	0.0	564.0584940910339	1.0000488758087158
32	541.2640309333801	pulse	0	t		30.0	2.5	/experiments/AOT/AOT_stimuli/rescaled_final/0724_rv.mp4	0.0	564.2420060634613	
32	542.0805678367615	movie	1		247	30.0	2.5	/experiments/AOT/AOT_stimuli/rescaled_final/0724_rv.mp4	0.0	565.0585429668427	2.499906063079834
32	542.8639588356018	pulse	1	t		30.0	2.5	/experiments/AOT/AOT_stimuli/rescaled_final/0724_rv.mp4	0.0	565.841933965683	
32	544.4640278816223	pulse	1	t		30.0	2.5	/experiments/AOT/AOT_stimuli/rescaled_final/0724_rv.mp4	0.0	567.4420030117035	
32	544.5804738998413	fix_post	2		12	30.0	2.5	/experiments/AOT/AOT_stimuli/rescaled_final/0724_rv.mp4	0.0	567.5584490299225	0.10002398490905762
33	544.6804978847504	fix_pre	0		120	31.0	2.5	/experiments/AOT/AOT_stimuli/rescaled_final/0708_rv.mp4	0.0	567.6584730148315	1.0000851154327393
33	545.6805830001831	movie	1		244	31.0	2.5	/experiments/AOT/AOT_stimuli/rescaled_final/0708_rv.mp4	0.0	568.6585581302643	2.4998087882995605
33	546.063726902008	pulse	1	t		31.0	2.5	/experiments/AOT/AOT_stimuli/rescaled_final/0708_rv.mp4	0.0	569.0417020320892	
33	547.6640269756317	pulse	1	t		31.0	2.5	/experiments/AOT/AOT_stimuli/rescaled_final/0708_rv.mp4	0.0	570.6420021057129	
33	548.1803917884827	fix_post	2		12	31.0	2.5	/experiments/AOT/AOT_stimuli/rescaled_final/0708_rv.mp4	0.0	571.1583669185638	0.10015416145324707
34	548.2805459499359	fix_pre	0		119	32.0	2.5	/experiments/AOT/AOT_stimuli/rescaled_final/0267_fw.mp4	0.0	571.2585210800171	0.9916188716888428
34	549.2639849185944	pulse	0	t		32.0	2.5	/experiments/AOT/AOT_stimuli/rescaled_final/0267_fw.mp4	0.0	572.2419600486755	
34	549.2721648216248	movie	1		246	32.0	2.5	/experiments/AOT/AOT_stimuli/rescaled_final/0267_fw.mp4	0.0	572.2501399517059	2.5083751678466797
34	550.8651759624481	pulse	1	t		32.0	2.5	/experiments/AOT/AOT_stimuli/rescaled_final/0267_fw.mp4	0.0	573.8431510925293	
34	551.7805399894714	fix_post	2		12	32.0	2.5	/experiments/AOT/AOT_stimuli/rescaled_final/0267_fw.mp4	0.0	574.7585151195526	0.09992480278015137
35	551.8804647922516	fix_pre	0		120	33.0	2.5	blank	1.0	574.8584399223328	1.0000181198120117
35	552.4640538692474	pulse	0	t		33.0	2.5	blank	1.0	575.4420289993286	
35	552.8804829120636	movie	1		300	33.0	2.5	blank	1.0	575.8584580421448	2.499643087387085
35	554.0635378360748	pulse	1	t		33.0	2.5	blank	1.0	577.041512966156	
35	555.3801259994507	fix_post	2		12	33.0	2.5	blank	1.0	578.3581011295319	0.10004901885986328
36	555.4801750183105	fix_pre	0		120	34.0	2.5	/experiments/AOT/AOT_stimuli/rescaled_final/1196_rv.mp4	0.0	578.4581501483917	1.0000817775726318
36	555.6636278629303	pulse	0	t		34.0	2.5	/experiments/AOT/AOT_stimuli/rescaled_final/1196_rv.mp4	0.0	578.6416029930115	
36	556.4802567958832	movie	1		246	34.0	2.5	/experiments/AOT/AOT_stimuli/rescaled_final/1196_rv.mp4	0.0	579.4582319259644	2.5003230571746826
36	557.2637989521027	pulse	1	t		34.0	2.5	/experiments/AOT/AOT_stimuli/rescaled_final/1196_rv.mp4	0.0	580.2417740821838	
36	558.8599538803101	pulse	1	t		34.0	2.5	/experiments/AOT/AOT_stimuli/rescaled_final/1196_rv.mp4	0.0	581.8379290103912	
36	558.9805798530579	fix_post	2		12	34.0	2.5	/experiments/AOT/AOT_stimuli/rescaled_final/1196_rv.mp4	0.0	581.958554983139	0.0998079776763916
37	559.0803878307343	fix_pre	0		120	35.0	2.5	/experiments/AOT/AOT_stimuli/rescaled_final/1640_rv.mp4	0.0	582.0583629608154	1.000216007232666
37	560.0806038379669	movie	1		243	35.0	2.5	/experiments/AOT/AOT_stimuli/rescaled_final/1640_rv.mp4	0.0	583.0585789680481	2.4997479915618896
37	560.4635148048401	pulse	1	t		35.0	2.5	/experiments/AOT/AOT_stimuli/rescaled_final/1640_rv.mp4	0.0	583.4414899349213	
37	562.0638928413391	pulse	1	t		35.0	2.5	/experiments/AOT/AOT_stimuli/rescaled_final/1640_rv.mp4	0.0	585.0418679714203	
37	562.5803518295288	fix_post	2		12	35.0	2.5	/experiments/AOT/AOT_stimuli/rescaled_final/1640_rv.mp4	0.0	585.55832695961	0.1000831127166748
38	562.6804349422455	fix_pre	0		119	36.0	2.5	/experiments/AOT/AOT_stimuli/rescaled_final/1851_rv.mp4	0.0	585.6584100723267	0.9915599822998047
38	563.6638638973236	pulse	0	t		36.0	2.5	/experiments/AOT/AOT_stimuli/rescaled_final/1851_rv.mp4	0.0	586.6418390274048	
38	563.6719949245453	movie	1		245	36.0	2.5	/experiments/AOT/AOT_stimuli/rescaled_final/1851_rv.mp4	0.0	586.6499700546265	2.5083649158477783
38	565.2637939453125	pulse	1	t		36.0	2.5	/experiments/AOT/AOT_stimuli/rescaled_final/1851_rv.mp4	0.0	588.2417690753937	
38	566.1803598403931	fix_post	2		12	36.0	2.5	/experiments/AOT/AOT_stimuli/rescaled_final/1851_rv.mp4	0.0	589.1583349704742	0.10002708435058594
39	566.2803869247437	fix_pre	0		120	37.0	2.5	/experiments/AOT/AOT_stimuli/rescaled_final/1187_rv.mp4	0.0	589.2583620548248	1.0000269412994385
39	566.8638558387756	pulse	0	t		37.0	2.5	/experiments/AOT/AOT_stimuli/rescaled_final/1187_rv.mp4	0.0	589.8418309688568	
39	567.2804138660431	movie	1		245	37.0	2.5	/experiments/AOT/AOT_stimuli/rescaled_final/1187_rv.mp4	0.0	590.2583889961243	2.4999210834503174
39	568.4639348983765	pulse	1	t		37.0	2.5	/experiments/AOT/AOT_stimuli/rescaled_final/1187_rv.mp4	0.0	591.4419100284576	
39	569.7803349494934	fix_post	2		12	37.0	2.5	/experiments/AOT/AOT_stimuli/rescaled_final/1187_rv.mp4	0.0	592.7583100795746	0.09999394416809082
40	569.8803288936615	fix_pre	0		120	38.0	2.5	/experiments/AOT/AOT_stimuli/rescaled_final/1216_fw.mp4	0.0	592.8583040237427	1.0000998973846436
40	570.0638020038605	pulse	0	t		38.0	2.5	/experiments/AOT/AOT_stimuli/rescaled_final/1216_fw.mp4	0.0	593.0417771339417	
40	570.8804287910461	movie	1		244	38.0	2.5	/experiments/AOT/AOT_stimuli/rescaled_final/1216_fw.mp4	0.0	593.8584039211273	2.4999051094055176
40	571.663911819458	pulse	1	t		38.0	2.5	/experiments/AOT/AOT_stimuli/rescaled_final/1216_fw.mp4	0.0	594.6418869495392	
40	573.2622549533844	pulse	1	t		38.0	2.5	/experiments/AOT/AOT_stimuli/rescaled_final/1216_fw.mp4	0.0	596.2402300834656	
40	573.3803339004517	fix_post	2		12	38.0	2.5	/experiments/AOT/AOT_stimuli/rescaled_final/1216_fw.mp4	0.0	596.3583090305328	0.09998202323913574
41	573.4803159236908	fix_pre	0		120	39.0	2.5	/experiments/AOT/AOT_stimuli/rescaled_final/2031_fw.mp4	0.0	596.458291053772	0.9999868869781494
41	574.480302810669	movie	1		244	39.0	2.5	/experiments/AOT/AOT_stimuli/rescaled_final/2031_fw.mp4	0.0	597.4582779407501	2.5000691413879395
41	574.8634378910065	pulse	1	t		39.0	2.5	/experiments/AOT/AOT_stimuli/rescaled_final/2031_fw.mp4	0.0	597.8414130210876	
41	576.4638140201569	pulse	1	t		39.0	2.5	/experiments/AOT/AOT_stimuli/rescaled_final/2031_fw.mp4	0.0	599.441789150238	
41	576.9803719520569	fix_post	2		12	39.0	2.5	/experiments/AOT/AOT_stimuli/rescaled_final/2031_fw.mp4	0.0	599.9583470821381	0.09997296333312988
42	577.08034491539	fix_pre	0		119	40.0	2.5	/experiments/AOT/AOT_stimuli/rescaled_final/1196_rv.mp4	0.0	600.0583200454712	0.9916629791259766
42	578.0638098716736	pulse	0	t		40.0	2.5	/experiments/AOT/AOT_stimuli/rescaled_final/1196_rv.mp4	0.0	601.0417850017548	
42	578.072007894516	movie	1		247	40.0	2.5	/experiments/AOT/AOT_stimuli/rescaled_final/1196_rv.mp4	0.0	601.0499830245972	2.508371114730835
42	579.6634268760681	pulse	1	t		40.0	2.5	/experiments/AOT/AOT_stimuli/rescaled_final/1196_rv.mp4	0.0	602.6414020061493	
42	580.5803790092468	fix_post	2		12	40.0	2.5	/experiments/AOT/AOT_stimuli/rescaled_final/1196_rv.mp4	0.0	603.558354139328	0.10000801086425781
43	580.6803870201111	fix_pre	0		120	41.0	2.5	blank	1.0	603.6583621501923	0.999945878982544
43	581.2639479637146	pulse	0	t		41.0	2.5	blank	1.0	604.2419230937958	
43	581.6803328990936	movie	1		300	41.0	2.5	blank	1.0	604.6583080291748	2.500044107437134
43	582.8638257980347	pulse	1	t		41.0	2.5	blank	1.0	605.8418009281158	
43	584.1803770065308	fix_post	2		12	41.0	2.5	blank	1.0	607.1583521366119	0.09996199607849121
44	584.2803390026093	fix_pre	0		120	42.0	2.5	/experiments/AOT/AOT_stimuli/rescaled_final/0422_fw.mp4	0.0	607.2583141326904	1.0000109672546387
44	584.4637548923492	pulse	0	t		42.0	2.5	/experiments/AOT/AOT_stimuli/rescaled_final/0422_fw.mp4	0.0	607.4417300224304	
44	585.2803499698639	movie	1		243	42.0	2.5	/experiments/AOT/AOT_stimuli/rescaled_final/0422_fw.mp4	0.0	608.2583250999451	2.4998910427093506
44	586.0637819766998	pulse	1	t		42.0	2.5	/experiments/AOT/AOT_stimuli/rescaled_final/0422_fw.mp4	0.0	609.041757106781	
44	587.662300825119	pulse	1	t		42.0	2.5	/experiments/AOT/AOT_stimuli/rescaled_final/0422_fw.mp4	0.0	610.6402759552002	
44	587.7802410125732	fix_post	2		12	42.0	2.5	/experiments/AOT/AOT_stimuli/rescaled_final/0422_fw.mp4	0.0	610.7582161426544	0.10006380081176758
45	587.880304813385	fix_pre	0		120	43.0	2.5	/experiments/AOT/AOT_stimuli/rescaled_final/2027_rv.mp4	0.0	610.8582799434662	1.000002145767212
45	588.8803069591522	movie	1		243	43.0	2.5	/experiments/AOT/AOT_stimuli/rescaled_final/2027_rv.mp4	0.0	611.8582820892334	2.4999499320983887
45	589.2635209560394	pulse	1	t		43.0	2.5	/experiments/AOT/AOT_stimuli/rescaled_final/2027_rv.mp4	0.0	612.2414960861206	
45	590.8637800216675	pulse	1	t		43.0	2.5	/experiments/AOT/AOT_stimuli/rescaled_final/2027_rv.mp4	0.0	613.8417551517487	
45	591.3802568912506	fix_post	2		12	43.0	2.5	/experiments/AOT/AOT_stimuli/rescaled_final/2027_rv.mp4	0.0	614.3582320213318	0.10008597373962402
46	591.4803428649902	fix_pre	0		119	44.0	2.5	/experiments/AOT/AOT_stimuli/rescaled_final/0046_fw.mp4	0.0	614.4583179950714	0.99155592918396
46	592.4637567996979	pulse	0	t		44.0	2.5	/experiments/AOT/AOT_stimuli/rescaled_final/0046_fw.mp4	0.0	615.441731929779	
46	592.4718987941742	movie	1		246	44.0	2.5	/experiments/AOT/AOT_stimuli/rescaled_final/0046_fw.mp4	0.0	615.4498739242554	2.508385181427002
46	594.0633499622345	pulse	1	t		44.0	2.5	/experiments/AOT/AOT_stimuli/rescaled_final/0046_fw.mp4	0.0	617.0413250923157	
46	594.9802839756012	fix_post	2		12	44.0	2.5	/experiments/AOT/AOT_stimuli/rescaled_final/0046_fw.mp4	0.0	617.9582591056824	0.0999898910522461
47	595.0802738666534	fix_pre	0		120	45.0	2.5	/experiments/AOT/AOT_stimuli/rescaled_final/1580_rv.mp4	0.0	618.0582489967346	0.9999680519104004
47	595.6637828350067	pulse	0	t		45.0	2.5	/experiments/AOT/AOT_stimuli/rescaled_final/1580_rv.mp4	0.0	618.6417579650879	
47	596.0802419185638	movie	1		245	45.0	2.5	/experiments/AOT/AOT_stimuli/rescaled_final/1580_rv.mp4	0.0	619.058217048645	2.500027894973755
47	597.2638168334961	pulse	1	t		45.0	2.5	/experiments/AOT/AOT_stimuli/rescaled_final/1580_rv.mp4	0.0	620.2417919635773	
47	598.5802698135376	fix_post	2		12	45.0	2.5	/experiments/AOT/AOT_stimuli/rescaled_final/1580_rv.mp4	0.0	621.5582449436188	0.10008907318115234
48	598.6803588867188	fix_pre	0		120	46.0	2.5	/experiments/AOT/AOT_stimuli/rescaled_final/1555_fw.mp4	0.0	621.6583340167999	0.9999229907989502
48	598.8636388778687	pulse	0	t		46.0	2.5	/experiments/AOT/AOT_stimuli/rescaled_final/1555_fw.mp4	0.0	621.8416140079498	
48	599.6802818775177	movie	1		243	46.0	2.5	/experiments/AOT/AOT_stimuli/rescaled_final/1555_fw.mp4	0.0	622.6582570075989	2.4999310970306396
48	600.4637138843536	pulse	1	t		46.0	2.5	/experiments/AOT/AOT_stimuli/rescaled_final/1555_fw.mp4	0.0	623.4416890144348	
48	602.0622868537903	pulse	1	t		46.0	2.5	/experiments/AOT/AOT_stimuli/rescaled_final/1555_fw.mp4	0.0	625.0402619838715	
48	602.1802129745483	fix_post	2		12	46.0	2.5	/experiments/AOT/AOT_stimuli/rescaled_final/1555_fw.mp4	0.0	625.1581881046295	0.09996795654296875
49	602.2801809310913	fix_pre	0		120	47.0	2.5	/experiments/AOT/AOT_stimuli/rescaled_final/1086_fw.mp4	0.0	625.2581560611725	1.0000319480895996
49	603.2802128791809	movie	1		243	47.0	2.5	/experiments/AOT/AOT_stimuli/rescaled_final/1086_fw.mp4	0.0	626.2581880092621	2.499998092651367
49	603.6637208461761	pulse	1	t		47.0	2.5	/experiments/AOT/AOT_stimuli/rescaled_final/1086_fw.mp4	0.0	626.6416959762573	
49	605.2636499404907	pulse	1	t		47.0	2.5	/experiments/AOT/AOT_stimuli/rescaled_final/1086_fw.mp4	0.0	628.2416250705719	
49	605.7802109718323	fix_post	2		12	47.0	2.5	/experiments/AOT/AOT_stimuli/rescaled_final/1086_fw.mp4	0.0	628.7581861019135	0.1000509262084961
50	605.8802618980408	fix_pre	0		119	48.0	2.5	blank	1.0	628.858237028122	0.9916660785675049
50	606.8637578487396	pulse	0	t		48.0	2.5	blank	1.0	629.8417329788208	
50	606.8719279766083	movie	1		301	48.0	2.5	blank	1.0	629.8499031066895	2.5083038806915283
50	608.4637639522552	pulse	1	t		48.0	2.5	blank	1.0	631.4417390823364	
50	609.3802318572998	fix_post	2		12	48.0	2.5	blank	1.0	632.358206987381	0.10001611709594727
51	609.4802479743958	fix_pre	0		120	49.0	2.5	/experiments/AOT/AOT_stimuli/rescaled_final/0004_rv.mp4	0.0	632.4582231044769	0.9995598793029785
51	610.0635828971863	pulse	0	t		49.0	2.5	/experiments/AOT/AOT_stimuli/rescaled_final/0004_rv.mp4	0.0	633.0415580272675	
51	610.4798078536987	movie	1		243	49.0	2.5	/experiments/AOT/AOT_stimuli/rescaled_final/0004_rv.mp4	0.0	633.4577829837799	2.500338077545166
51	611.6638889312744	pulse	1	t		49.0	2.5	/experiments/AOT/AOT_stimuli/rescaled_final/0004_rv.mp4	0.0	634.6418640613556	
51	612.9801459312439	fix_post	2		12	49.0	2.5	/experiments/AOT/AOT_stimuli/rescaled_final/0004_rv.mp4	0.0	635.9581210613251	0.09990596771240234
52	613.0800518989563	fix_pre	0		120	50.0	2.5	/experiments/AOT/AOT_stimuli/rescaled_final/0926_rv.mp4	0.0	636.0580270290375	1.000195026397705
52	613.2636477947235	pulse	0	t		50.0	2.5	/experiments/AOT/AOT_stimuli/rescaled_final/0926_rv.mp4	0.0	636.2416229248047	
52	614.080246925354	movie	1		245	50.0	2.5	/experiments/AOT/AOT_stimuli/rescaled_final/0926_rv.mp4	0.0	637.0582220554352	2.4999260902404785
52	614.8636109828949	pulse	1	t		50.0	2.5	/experiments/AOT/AOT_stimuli/rescaled_final/0926_rv.mp4	0.0	637.8415861129761	
52	616.4620299339294	pulse	1	t		50.0	2.5	/experiments/AOT/AOT_stimuli/rescaled_final/0926_rv.mp4	0.0	639.4400050640106	
52	616.5801730155945	fix_post	2		12	50.0	2.5	/experiments/AOT/AOT_stimuli/rescaled_final/0926_rv.mp4	0.0	639.5581481456757	0.10001683235168457
53	616.6801898479462	fix_pre	0		120	51.0	2.5	/experiments/AOT/AOT_stimuli/rescaled_final/2017_rv.mp4	0.0	639.6581649780273	0.9999279975891113
53	617.6801178455353	movie	1		244	51.0	2.5	/experiments/AOT/AOT_stimuli/rescaled_final/2017_rv.mp4	0.0	640.6580929756165	2.5001230239868164
53	618.0633230209351	pulse	1	t		51.0	2.5	/experiments/AOT/AOT_stimuli/rescaled_final/2017_rv.mp4	0.0	641.0412981510162	
53	619.6635708808899	pulse	1	t		51.0	2.5	/experiments/AOT/AOT_stimuli/rescaled_final/2017_rv.mp4	0.0	642.6415460109711	
53	620.1802408695221	fix_post	2		12	51.0	2.5	/experiments/AOT/AOT_stimuli/rescaled_final/2017_rv.mp4	0.0	643.1582159996033	0.09981298446655273
54	620.2800538539886	fix_pre	0		119	52.0	2.5	/experiments/AOT/AOT_stimuli/rescaled_final/0740_fw.mp4	0.0	643.2580289840698	0.9917199611663818
54	621.2636449337006	pulse	0	t		52.0	2.5	/experiments/AOT/AOT_stimuli/rescaled_final/0740_fw.mp4	0.0	644.2416200637817	
54	621.271773815155	movie	1		247	52.0	2.5	/experiments/AOT/AOT_stimuli/rescaled_final/0740_fw.mp4	0.0	644.2497489452362	2.5082921981811523
54	622.863128900528	pulse	1	t		52.0	2.5	/experiments/AOT/AOT_stimuli/rescaled_final/0740_fw.mp4	0.0	645.8411040306091	
54	623.7800660133362	fix_post	2		12	52.0	2.5	/experiments/AOT/AOT_stimuli/rescaled_final/0740_fw.mp4	0.0	646.7580411434174	0.10005784034729004
55	623.8801238536835	fix_pre	0		120	53.0	2.5	/experiments/AOT/AOT_stimuli/rescaled_final/0983_fw.mp4	0.0	646.8580989837646	0.9999430179595947
55	624.4635767936707	pulse	0	t		53.0	2.5	/experiments/AOT/AOT_stimuli/rescaled_final/0983_fw.mp4	0.0	647.4415519237518	
55	624.8800668716431	movie	1		242	53.0	2.5	/experiments/AOT/AOT_stimuli/rescaled_final/0983_fw.mp4	0.0	647.8580420017242	2.500023126602173
55	626.06387591362	pulse	1	t		53.0	2.5	/experiments/AOT/AOT_stimuli/rescaled_final/0983_fw.mp4	0.0	649.0418510437012	
55	627.3800899982452	fix_post	2		12	53.0	2.5	/experiments/AOT/AOT_stimuli/rescaled_final/0983_fw.mp4	0.0	650.3580651283264	0.09993290901184082
56	627.4800229072571	fix_pre	0		120	54.0	2.5	/experiments/AOT/AOT_stimuli/rescaled_final/0628_rv.mp4	0.0	650.4579980373383	1.0001020431518555
56	627.6635839939117	pulse	0	t		54.0	2.5	/experiments/AOT/AOT_stimuli/rescaled_final/0628_rv.mp4	0.0	650.6415591239929	
56	628.4801249504089	movie	1		246	54.0	2.5	/experiments/AOT/AOT_stimuli/rescaled_final/0628_rv.mp4	0.0	651.4581000804901	2.4999589920043945
56	629.2635989189148	pulse	1	t		54.0	2.5	/experiments/AOT/AOT_stimuli/rescaled_final/0628_rv.mp4	0.0	652.241574048996	
56	630.8633508682251	pulse	1	t		54.0	2.5	/experiments/AOT/AOT_stimuli/rescaled_final/0628_rv.mp4	0.0	653.8413259983063	
56	630.9800839424133	fix_post	2		12	54.0	2.5	/experiments/AOT/AOT_stimuli/rescaled_final/0628_rv.mp4	0.0	653.9580590724945	0.09994888305664062
57	631.08003282547	fix_pre	0		120	55.0	2.5	/experiments/AOT/AOT_stimuli/rescaled_final/0249_fw.mp4	0.0	654.0580079555511	1.0000331401824951
57	632.0800659656525	movie	1		242	55.0	2.5	/experiments/AOT/AOT_stimuli/rescaled_final/0249_fw.mp4	0.0	655.0580410957336	2.500053882598877
57	632.4632608890533	pulse	1	t		55.0	2.5	/experiments/AOT/AOT_stimuli/rescaled_final/0249_fw.mp4	0.0	655.4412360191345	
57	634.0635797977448	pulse	1	t		55.0	2.5	/experiments/AOT/AOT_stimuli/rescaled_final/0249_fw.mp4	0.0	657.0415549278259	
57	634.5801198482513	fix_post	2		12	55.0	2.5	/experiments/AOT/AOT_stimuli/rescaled_final/0249_fw.mp4	0.0	657.5580949783325	0.09991002082824707
58	634.6800298690796	fix_pre	0		119	56.0	2.5	blank	1.0	657.6580049991608	0.9916491508483887
58	635.6635818481445	pulse	0	t		56.0	2.5	blank	1.0	658.6415569782257	
58	635.671679019928	movie	1		301	56.0	2.5	blank	1.0	658.6496541500092	2.508272886276245
58	637.2635269165039	pulse	1	t		56.0	2.5	blank	1.0	660.2415020465851	
58	638.1799519062042	fix_post	2		12	56.0	2.5	blank	1.0	661.1579270362854	0.10011005401611328
59	638.2800619602203	fix_pre	0		120	57.0	2.5	/experiments/AOT/AOT_stimuli/rescaled_final/0715_rv.mp4	0.0	661.2580370903015	0.999924898147583
59	638.863520860672	pulse	0	t		57.0	2.5	/experiments/AOT/AOT_stimuli/rescaled_final/0715_rv.mp4	0.0	661.8414959907532	
59	639.2799868583679	movie	1		245	57.0	2.5	/experiments/AOT/AOT_stimuli/rescaled_final/0715_rv.mp4	0.0	662.2579619884491	2.500117063522339
59	640.4636468887329	pulse	1	t		57.0	2.5	/experiments/AOT/AOT_stimuli/rescaled_final/0715_rv.mp4	0.0	663.4416220188141	
59	641.7801039218903	fix_post	2		12	57.0	2.5	/experiments/AOT/AOT_stimuli/rescaled_final/0715_rv.mp4	0.0	664.7580790519714	0.09993791580200195
60	641.8800418376923	fix_pre	0		120	58.0	2.5	/experiments/AOT/AOT_stimuli/rescaled_final/1911_fw.mp4	0.0	664.8580169677734	1.000072956085205
60	642.0635688304901	pulse	0	t		58.0	2.5	/experiments/AOT/AOT_stimuli/rescaled_final/1911_fw.mp4	0.0	665.0415439605713	
60	642.8801147937775	movie	1		245	58.0	2.5	/experiments/AOT/AOT_stimuli/rescaled_final/1911_fw.mp4	0.0	665.8580899238586	2.499544143676758
60	643.663568019867	pulse	1	t		58.0	2.5	/experiments/AOT/AOT_stimuli/rescaled_final/1911_fw.mp4	0.0	666.6415431499481	
60	645.2620708942413	pulse	1	t		58.0	2.5	/experiments/AOT/AOT_stimuli/rescaled_final/1911_fw.mp4	0.0	668.2400460243225	
60	645.3796589374542	fix_post	2		12	58.0	2.5	/experiments/AOT/AOT_stimuli/rescaled_final/1911_fw.mp4	0.0	668.3576340675354	0.10037994384765625
61	645.4800388813019	fix_pre	0		120	59.0	2.5	/experiments/AOT/AOT_stimuli/rescaled_final/1595_fw.mp4	0.0	668.458014011383	1.0000770092010498
61	646.4801158905029	movie	1		246	59.0	2.5	/experiments/AOT/AOT_stimuli/rescaled_final/1595_fw.mp4	0.0	669.4580910205841	2.4999051094055176
61	646.8630919456482	pulse	1	t		59.0	2.5	/experiments/AOT/AOT_stimuli/rescaled_final/1595_fw.mp4	0.0	669.8410670757294	
61	648.4635279178619	pulse	1	t		59.0	2.5	/experiments/AOT/AOT_stimuli/rescaled_final/1595_fw.mp4	0.0	671.4415030479431	
61	648.9800209999084	fix_post	2		12	59.0	2.5	/experiments/AOT/AOT_stimuli/rescaled_final/1595_fw.mp4	0.0	671.9579961299896	0.09997296333312988
62	649.0799939632416	fix_pre	0		119	60.0	2.5	/experiments/AOT/AOT_stimuli/rescaled_final/1400_rv.mp4	0.0	672.0579690933228	0.9916489124298096
62	650.0635178089142	pulse	0	t		60.0	2.5	/experiments/AOT/AOT_stimuli/rescaled_final/1400_rv.mp4	0.0	673.0414929389954	
62	650.0716428756714	movie	1		246	60.0	2.5	/experiments/AOT/AOT_stimuli/rescaled_final/1400_rv.mp4	0.0	673.0496180057526	2.5080010890960693
62	651.6631460189819	pulse	1	t		60.0	2.5	/experiments/AOT/AOT_stimuli/rescaled_final/1400_rv.mp4	0.0	674.6411211490631	
62	652.5796439647675	fix_post	2		12	60.0	2.5	/experiments/AOT/AOT_stimuli/rescaled_final/1400_rv.mp4	0.0	675.5576190948486	0.10040783882141113
63	652.6800518035889	fix_pre	0		120	61.0	2.5	/experiments/AOT/AOT_stimuli/rescaled_final/1970_rv.mp4	0.0	675.65802693367	1.0000100135803223
63	653.2635037899017	pulse	0	t		61.0	2.5	/experiments/AOT/AOT_stimuli/rescaled_final/1970_rv.mp4	0.0	676.2414789199829	
63	653.6800618171692	movie	1		244	61.0	2.5	/experiments/AOT/AOT_stimuli/rescaled_final/1970_rv.mp4	0.0	676.6580369472504	2.499929189682007
63	654.863550901413	pulse	1	t		61.0	2.5	/experiments/AOT/AOT_stimuli/rescaled_final/1970_rv.mp4	0.0	677.8415260314941	
63	656.1799910068512	fix_post	2		12	61.0	2.5	/experiments/AOT/AOT_stimuli/rescaled_final/1970_rv.mp4	0.0	679.1579661369324	0.10002994537353516
64	656.2800209522247	fix_pre	0		120	62.0	2.5	/experiments/AOT/AOT_stimuli/rescaled_final/0447_fw.mp4	0.0	679.2579960823059	1.0000250339508057
64	656.4634759426117	pulse	0	t		62.0	2.5	/experiments/AOT/AOT_stimuli/rescaled_final/0447_fw.mp4	0.0	679.4414510726929	
64	657.2800459861755	movie	1		243	62.0	2.5	/experiments/AOT/AOT_stimuli/rescaled_final/0447_fw.mp4	0.0	680.2580211162567	2.5000548362731934
64	658.06347489357	pulse	1	t		62.0	2.5	/experiments/AOT/AOT_stimuli/rescaled_final/0447_fw.mp4	0.0	681.0414500236511	
64	659.6619408130646	pulse	1	t		62.0	2.5	/experiments/AOT/AOT_stimuli/rescaled_final/0447_fw.mp4	0.0	682.6399159431458	
64	659.7801008224487	fix_post	2		12	62.0	2.5	/experiments/AOT/AOT_stimuli/rescaled_final/0447_fw.mp4	0.0	682.7580759525299	0.09988713264465332
65	659.8799879550934	fix_pre	0		120	63.0	2.5	blank	1.0	682.8579630851746	0.9999618530273438
65	660.8799498081207	movie	1		300	63.0	2.5	blank	1.0	683.8579249382019	2.5000340938568115
65	661.263484954834	pulse	1	t		63.0	2.5	blank	1.0	684.2414600849152	
65	662.8634858131409	pulse	1	t		63.0	2.5	blank	1.0	685.841460943222	
65	663.3799839019775	fix_post	2		12	63.0	2.5	blank	1.0	686.3579590320587	0.10000300407409668
66	663.4799869060516	fix_pre	0		119	64.0	2.5	/experiments/AOT/AOT_stimuli/rescaled_final/1852_rv.mp4	0.0	686.4579620361328	0.9916090965270996
66	664.4634389877319	pulse	0	t		64.0	2.5	/experiments/AOT/AOT_stimuli/rescaled_final/1852_rv.mp4	0.0	687.4414141178131	
66	664.4715960025787	movie	1		246	64.0	2.5	/experiments/AOT/AOT_stimuli/rescaled_final/1852_rv.mp4	0.0	687.4495711326599	2.5080928802490234
66	666.0626327991486	pulse	1	t		64.0	2.5	/experiments/AOT/AOT_stimuli/rescaled_final/1852_rv.mp4	0.0	689.0406079292297	
66	666.9796888828278	fix_post	2		12	64.0	2.5	/experiments/AOT/AOT_stimuli/rescaled_final/1852_rv.mp4	0.0	689.9576640129089	0.0999000072479248
67	667.0795888900757	fix_pre	0		120	65.0	2.5	/experiments/AOT/AOT_stimuli/rescaled_final/2049_fw.mp4	0.0	690.0575640201569	1.000525951385498
67	667.6635057926178	pulse	0	t		65.0	2.5	/experiments/AOT/AOT_stimuli/rescaled_final/2049_fw.mp4	0.0	690.641480922699	
67	668.0801148414612	movie	1		244	65.0	2.5	/experiments/AOT/AOT_stimuli/rescaled_final/2049_fw.mp4	0.0	691.0580899715424	2.4998040199279785
67	669.2634408473969	pulse	1	t		65.0	2.5	/experiments/AOT/AOT_stimuli/rescaled_final/2049_fw.mp4	0.0	692.241415977478	
67	670.5799188613892	fix_post	2		12	65.0	2.5	/experiments/AOT/AOT_stimuli/rescaled_final/2049_fw.mp4	0.0	693.5578939914703	0.10002994537353516
68	670.6799488067627	fix_pre	0		120	66.0	2.5	/experiments/AOT/AOT_stimuli/rescaled_final/2057_fw.mp4	0.0	693.6579239368439	0.9999790191650391
68	670.8634920120239	pulse	0	t		66.0	2.5	/experiments/AOT/AOT_stimuli/rescaled_final/2057_fw.mp4	0.0	693.8414671421051	
68	671.6799278259277	movie	1		243	66.0	2.5	/experiments/AOT/AOT_stimuli/rescaled_final/2057_fw.mp4	0.0	694.6579029560089	2.4995169639587402
68	672.463399887085	pulse	1	t		66.0	2.5	/experiments/AOT/AOT_stimuli/rescaled_final/2057_fw.mp4	0.0	695.4413750171661	
68	674.0618109703064	pulse	1	t		66.0	2.5	/experiments/AOT/AOT_stimuli/rescaled_final/2057_fw.mp4	0.0	697.0397861003876	
68	674.1794447898865	fix_post	2		12	66.0	2.5	/experiments/AOT/AOT_stimuli/rescaled_final/2057_fw.mp4	0.0	697.1574199199677	0.10038018226623535
69	674.2798249721527	fix_pre	0		120	67.0	2.5	/experiments/AOT/AOT_stimuli/rescaled_final/1227_rv.mp4	0.0	697.2578001022339	1.0000059604644775
69	675.2798309326172	movie	1		244	67.0	2.5	/experiments/AOT/AOT_stimuli/rescaled_final/1227_rv.mp4	0.0	698.2578060626984	2.4999990463256836
69	675.6630108356476	pulse	1	t		67.0	2.5	/experiments/AOT/AOT_stimuli/rescaled_final/1227_rv.mp4	0.0	698.6409859657288	
69	677.2633049488068	pulse	1	t		67.0	2.5	/experiments/AOT/AOT_stimuli/rescaled_final/1227_rv.mp4	0.0	700.2412800788879	
69	677.7798299789429	fix_post	2		12	67.0	2.5	/experiments/AOT/AOT_stimuli/rescaled_final/1227_rv.mp4	0.0	700.757805109024	0.09994387626647949
70	677.8797738552094	fix_pre	0		119	68.0	2.5	/experiments/AOT/AOT_stimuli/rescaled_final/0486_rv.mp4	0.0	700.8577489852905	0.991765022277832
70	678.8633940219879	pulse	0	t		68.0	2.5	/experiments/AOT/AOT_stimuli/rescaled_final/0486_rv.mp4	0.0	701.8413691520691	
70	678.8715388774872	movie	1		245	68.0	2.5	/experiments/AOT/AOT_stimuli/rescaled_final/0486_rv.mp4	0.0	701.8495140075684	2.5082929134368896
70	680.4643929004669	pulse	1	t		68.0	2.5	/experiments/AOT/AOT_stimuli/rescaled_final/0486_rv.mp4	0.0	703.4423680305481	
70	681.3798317909241	fix_post	2		12	68.0	2.5	/experiments/AOT/AOT_stimuli/rescaled_final/0486_rv.mp4	0.0	704.3578069210052	0.10005021095275879
71	681.4798820018768	fix_pre	0		120	69.0	2.5	/experiments/AOT/AOT_stimuli/rescaled_final/0245_fw.mp4	0.0	704.457857131958	0.9999837875366211
71	682.063316822052	pulse	0	t		69.0	2.5	/experiments/AOT/AOT_stimuli/rescaled_final/0245_fw.mp4	0.0	705.0412919521332	
71	682.4798657894135	movie	1		244	69.0	2.5	/experiments/AOT/AOT_stimuli/rescaled_final/0245_fw.mp4	0.0	705.4578409194946	2.499624013900757
71	683.663400888443	pulse	1	t		69.0	2.5	/experiments/AOT/AOT_stimuli/rescaled_final/0245_fw.mp4	0.0	706.6413760185242	
71	684.9794898033142	fix_post	2		12	69.0	2.5	/experiments/AOT/AOT_stimuli/rescaled_final/0245_fw.mp4	0.0	707.9574649333954	0.10030007362365723
72	685.0797898769379	fix_pre	0		120	70.0	2.5	blank	1.0	708.057765007019	1.0000200271606445
72	685.2633140087128	pulse	0	t		70.0	2.5	blank	1.0	708.241289138794	
72	686.0798099040985	movie	1		300	70.0	2.5	blank	1.0	709.0577850341797	2.500006914138794
72	686.8633530139923	pulse	1	t		70.0	2.5	blank	1.0	709.8413281440735	
72	688.4633288383484	pulse	1	t		70.0	2.5	blank	1.0	711.4413039684296	
72	688.5798168182373	fix_post	2		12	70.0	2.5	blank	1.0	711.5577919483185	0.1001431941986084
73	688.6799600124359	fix_pre	0		120	71.0	2.5	/experiments/AOT/AOT_stimuli/rescaled_final/2174_rv.mp4	0.0	711.6579351425171	0.9994277954101562
73	689.6793878078461	movie	1		246	71.0	2.5	/experiments/AOT/AOT_stimuli/rescaled_final/2174_rv.mp4	0.0	712.6573629379272	2.5004050731658936
73	690.0637068748474	pulse	1	t		71.0	2.5	/experiments/AOT/AOT_stimuli/rescaled_final/2174_rv.mp4	0.0	713.0416820049286	
73	691.6633129119873	pulse	1	t		71.0	2.5	/experiments/AOT/AOT_stimuli/rescaled_final/2174_rv.mp4	0.0	714.6412880420685	
73	692.179792881012	fix_post	2		12	71.0	2.5	/experiments/AOT/AOT_stimuli/rescaled_final/2174_rv.mp4	0.0	715.1577680110931	0.09999704360961914
74	692.2797899246216	fix_pre	0		119	72.0	2.5	/experiments/AOT/AOT_stimuli/rescaled_final/0644_rv.mp4	0.0	715.2577650547028	0.9916269779205322
74	693.2632699012756	pulse	0	t		72.0	2.5	/experiments/AOT/AOT_stimuli/rescaled_final/0644_rv.mp4	0.0	716.2412450313568	
74	693.2714169025421	movie	1		244	72.0	2.5	/experiments/AOT/AOT_stimuli/rescaled_final/0644_rv.mp4	0.0	716.2493920326233	2.508439064025879
74	694.8630669116974	pulse	1	t		72.0	2.5	/experiments/AOT/AOT_stimuli/rescaled_final/0644_rv.mp4	0.0	717.8410420417786	
74	695.779855966568	fix_post	2		12	72.0	2.5	/experiments/AOT/AOT_stimuli/rescaled_final/0644_rv.mp4	0.0	718.7578310966492	0.09993886947631836
75	695.8797948360443	fix_pre	0		120	73.0	2.5	/experiments/AOT/AOT_stimuli/rescaled_final/2174_rv.mp4	0.0	718.8577699661255	1.000002145767212
75	696.4632959365845	pulse	0	t		73.0	2.5	/experiments/AOT/AOT_stimuli/rescaled_final/2174_rv.mp4	0.0	719.4412710666656	
75	696.8797969818115	movie	1		245	73.0	2.5	/experiments/AOT/AOT_stimuli/rescaled_final/2174_rv.mp4	0.0	719.8577721118927	2.4999468326568604
75	698.0633199214935	pulse	1	t		73.0	2.5	/experiments/AOT/AOT_stimuli/rescaled_final/2174_rv.mp4	0.0	721.0412950515747	
75	699.3797438144684	fix_post	2		12	73.0	2.5	/experiments/AOT/AOT_stimuli/rescaled_final/2174_rv.mp4	0.0	722.3577189445496	0.09997797012329102
76	699.4797217845917	fix_pre	0		120	74.0	2.5	/experiments/AOT/AOT_stimuli/rescaled_final/0245_rv.mp4	0.0	722.4576969146729	1.0000431537628174
76	699.663272857666	pulse	0	t		74.0	2.5	/experiments/AOT/AOT_stimuli/rescaled_final/0245_rv.mp4	0.0	722.6412479877472	
76	700.4797649383545	movie	1		243	74.0	2.5	/experiments/AOT/AOT_stimuli/rescaled_final/0245_rv.mp4	0.0	723.4577400684357	2.499875068664551
76	701.26331782341	pulse	1	t		74.0	2.5	/experiments/AOT/AOT_stimuli/rescaled_final/0245_rv.mp4	0.0	724.2412929534912	
76	702.8631730079651	pulse	1	t		74.0	2.5	/experiments/AOT/AOT_stimuli/rescaled_final/0245_rv.mp4	0.0	725.8411481380463	
76	702.979640007019	fix_post	2		12	74.0	2.5	/experiments/AOT/AOT_stimuli/rescaled_final/0245_rv.mp4	0.0	725.9576151371002	0.1000509262084961
77	703.0796909332275	fix_pre	0		120	75.0	2.5	/experiments/AOT/AOT_stimuli/rescaled_final/0211_rv.mp4	0.0	726.0576660633087	1.0000178813934326
77	704.079708814621	movie	1		244	75.0	2.5	/experiments/AOT/AOT_stimuli/rescaled_final/0211_rv.mp4	0.0	727.0576839447021	2.500042200088501
77	704.4635488986969	pulse	1	t		75.0	2.5	/experiments/AOT/AOT_stimuli/rescaled_final/0211_rv.mp4	0.0	727.4415240287781	
77	706.0632808208466	pulse	1	t		75.0	2.5	/experiments/AOT/AOT_stimuli/rescaled_final/0211_rv.mp4	0.0	729.0412559509277	
77	706.5797510147095	fix_post	2		12	75.0	2.5	/experiments/AOT/AOT_stimuli/rescaled_final/0211_rv.mp4	0.0	729.5577261447906	0.09999990463256836
78	706.679750919342	fix_pre	0		119	76.0	2.5	blank	1.0	729.6577260494232	0.9916529655456543
78	707.6632068157196	pulse	0	t		76.0	2.5	blank	1.0	730.6411819458008	
78	707.6714038848877	movie	1		301	76.0	2.5	blank	1.0	730.6493790149689	2.5082991123199463
78	709.2632830142975	pulse	1	t		76.0	2.5	blank	1.0	732.2412581443787	
78	710.1797029972076	fix_post	2		12	76.0	2.5	blank	1.0	733.1576781272888	0.10007190704345703
79	710.2797749042511	fix_pre	0		120	77.0	2.5	/experiments/AOT/AOT_stimuli/rescaled_final/1133_fw.mp4	0.0	733.2577500343323	0.9999148845672607
79	710.863187789917	pulse	0	t		77.0	2.5	/experiments/AOT/AOT_stimuli/rescaled_final/1133_fw.mp4	0.0	733.8411629199982	
79	711.2796897888184	movie	1		243	77.0	2.5	/experiments/AOT/AOT_stimuli/rescaled_final/1133_fw.mp4	0.0	734.2576649188995	2.500040054321289
79	712.4632890224457	pulse	1	t		77.0	2.5	/experiments/AOT/AOT_stimuli/rescaled_final/1133_fw.mp4	0.0	735.4412641525269	
79	713.7797298431396	fix_post	2		12	77.0	2.5	/experiments/AOT/AOT_stimuli/rescaled_final/1133_fw.mp4	0.0	736.7577049732208	0.09998011589050293
80	713.8797099590302	fix_pre	0		120	78.0	2.5	/experiments/AOT/AOT_stimuli/rescaled_final/1216_rv.mp4	0.0	736.8576850891113	0.9999969005584717
80	714.0632698535919	pulse	0	t		78.0	2.5	/experiments/AOT/AOT_stimuli/rescaled_final/1216_rv.mp4	0.0	737.0412449836731	
80	714.8797068595886	movie	1		242	78.0	2.5	/experiments/AOT/AOT_stimuli/rescaled_final/1216_rv.mp4	0.0	737.8576819896698	2.499983072280884
80	715.6632068157196	pulse	1	t		78.0	2.5	/experiments/AOT/AOT_stimuli/rescaled_final/1216_rv.mp4	0.0	738.6411819458008	
80	717.2616958618164	pulse	1	t		78.0	2.5	/experiments/AOT/AOT_stimuli/rescaled_final/1216_rv.mp4	0.0	740.2396709918976	
80	717.3796899318695	fix_post	2		12	78.0	2.5	/experiments/AOT/AOT_stimuli/rescaled_final/1216_rv.mp4	0.0	740.3576650619507	0.10003995895385742
81	717.4797298908234	fix_pre	0		120	79.0	2.5	/experiments/AOT/AOT_stimuli/rescaled_final/1004_rv.mp4	0.0	740.4577050209045	0.999830961227417
81	718.4795608520508	movie	1		244	79.0	2.5	/experiments/AOT/AOT_stimuli/rescaled_final/1004_rv.mp4	0.0	741.457535982132	2.500214099884033
81	718.8627288341522	pulse	1	t		79.0	2.5	/experiments/AOT/AOT_stimuli/rescaled_final/1004_rv.mp4	0.0	741.8407039642334	
81	720.4631328582764	pulse	1	t		79.0	2.5	/experiments/AOT/AOT_stimuli/rescaled_final/1004_rv.mp4	0.0	743.4411079883575	
81	720.9797749519348	fix_post	2		12	79.0	2.5	/experiments/AOT/AOT_stimuli/rescaled_final/1004_rv.mp4	0.0	743.957750082016	0.09987306594848633
82	721.0796480178833	fix_pre	0		119	80.0	2.5	/experiments/AOT/AOT_stimuli/rescaled_final/1162_fw.mp4	0.0	744.0576231479645	0.991635799407959
82	722.0627348423004	pulse	0	t		80.0	2.5	/experiments/AOT/AOT_stimuli/rescaled_final/1162_fw.mp4	0.0	745.0407099723816	
82	722.0712838172913	movie	1		247	80.0	2.5	/experiments/AOT/AOT_stimuli/rescaled_final/1162_fw.mp4	0.0	745.0492589473724	2.5086281299591064
82	723.6627938747406	pulse	1	t		80.0	2.5	/experiments/AOT/AOT_stimuli/rescaled_final/1162_fw.mp4	0.0	746.6407690048218	
82	724.5799119472504	fix_post	2		12	80.0	2.5	/experiments/AOT/AOT_stimuli/rescaled_final/1162_fw.mp4	0.0	747.5578870773315	0.10004806518554688
83	724.6799600124359	fix_pre	0		120	81.0	2.5	/experiments/AOT/AOT_stimuli/rescaled_final/0116_fw.mp4	0.0	747.6579351425171	0.9996738433837891
83	725.2630858421326	pulse	0	t		81.0	2.5	/experiments/AOT/AOT_stimuli/rescaled_final/0116_fw.mp4	0.0	748.2410609722137	
83	725.6796338558197	movie	1		246	81.0	2.5	/experiments/AOT/AOT_stimuli/rescaled_final/0116_fw.mp4	0.0	748.6576089859009	2.500025987625122
83	726.8631799221039	pulse	1	t		81.0	2.5	/experiments/AOT/AOT_stimuli/rescaled_final/0116_fw.mp4	0.0	749.8411550521851	
83	728.1796598434448	fix_post	2		12	81.0	2.5	/experiments/AOT/AOT_stimuli/rescaled_final/0116_fw.mp4	0.0	751.157634973526	0.09992814064025879
84	728.2795879840851	fix_pre	0		120	82.0	2.5	/experiments/AOT/AOT_stimuli/rescaled_final/1716_fw.mp4	0.0	751.2575631141663	1.0000770092010498
84	728.4630298614502	pulse	0	t		82.0	2.5	/experiments/AOT/AOT_stimuli/rescaled_final/1716_fw.mp4	0.0	751.4410049915314	
84	729.2796649932861	movie	1		243	82.0	2.5	/experiments/AOT/AOT_stimuli/rescaled_final/1716_fw.mp4	0.0	752.2576401233673	2.4998488426208496
84	730.062980890274	pulse	1	t		82.0	2.5	/experiments/AOT/AOT_stimuli/rescaled_final/1716_fw.mp4	0.0	753.0409560203552	
84	731.6612939834595	pulse	1	t		82.0	2.5	/experiments/AOT/AOT_stimuli/rescaled_final/1716_fw.mp4	0.0	754.6392691135406	
84	731.779513835907	fix_post	2		12	82.0	2.5	/experiments/AOT/AOT_stimuli/rescaled_final/1716_fw.mp4	0.0	754.7574889659882	0.09965395927429199
85	731.8791677951813	fix_pre	0		120	83.0	2.5	blank	1.0	754.8571429252625	1.000359058380127
85	732.8795268535614	movie	1		300	83.0	2.5	blank	1.0	755.8575019836426	2.500040054321289
85	733.2630789279938	pulse	1	t		83.0	2.5	blank	1.0	756.241054058075	
85	734.863009929657	pulse	1	t		83.0	2.5	blank	1.0	757.8409850597382	
85	735.3795669078827	fix_post	2		12	83.0	2.5	blank	1.0	758.3575420379639	0.09999299049377441
87	735.4795598983765	stim	0		1716					758.4575350284576	14.299989938735962
87	736.4630219936371	pulse	0	t						759.4409971237183	
87	738.0630218982697	pulse	0	t						761.0409970283508	
87	739.6630258560181	pulse	0	t						762.6410009860992	
87	741.2630000114441	pulse	0	t						764.2409751415253	
87	742.8630039691925	pulse	0	t						765.8409790992737	
87	744.4629909992218	pulse	0	t						767.440966129303	
87	746.0629107952118	pulse	0	t						769.040885925293	
87	747.6629979610443	pulse	0	t						770.6409730911255	
87	749.2631349563599	pulse	0	t						772.241110086441	
