trial_nr	onset	event_type	phase	response	nr_frames	movie_index	movie_duration	movie_file	blank	onset_abs	duration
0	0.20821499824523926	stim	0		1613					28.651099920272827	13.443613767623901
0	13.643818855285645	response	0	space						42.08670377731323	
1	13.65182876586914	stim	0		5062					42.09471368789673	42.20131301879883
1	55.84345293045044	pulse	0	t						84.28633785247803	
1	55.85314178466797	stim	1		1716					84.29602670669556	14.3072190284729
1	57.433695793151855	pulse	1	t						85.87658071517944	
1	59.03381681442261	pulse	1	t						87.4767017364502	
1	60.634002923965454	pulse	1	t						89.07688784599304	
1	62.23430776596069	pulse	1	t						90.67719268798828	
1	63.83458995819092	pulse	1	t						92.2774748802185	
1	65.43478393554688	pulse	1	t						93.87766885757446	
1	67.0350079536438	pulse	1	t						95.47789287567139	
1	68.63520097732544	pulse	1	t						97.07808589935303	
2	70.16036081314087	fix_pre	0		10	0.0	2.5	/experiments/knapen_AOT/AOT_stimuli/rescaled_final/0449_rv.mp4	0.0	98.60324573516846	0.0833580493927002
2	70.22791981697083	pulse	0	t		0.0	2.5	/experiments/knapen_AOT/AOT_stimuli/rescaled_final/0449_rv.mp4	0.0	98.67080473899841	
2	70.24371886253357	movie	1		244	0.0	2.5	/experiments/knapen_AOT/AOT_stimuli/rescaled_final/0449_rv.mp4	0.0	98.68660378456116	2.5085840225219727
2	71.83693599700928	pulse	1	t		0.0	2.5	/experiments/knapen_AOT/AOT_stimuli/rescaled_final/0449_rv.mp4	0.0	100.27982091903687	
2	72.75230288505554	fix_post	2		12	0.0	2.5	/experiments/knapen_AOT/AOT_stimuli/rescaled_final/0449_rv.mp4	0.0	101.19518780708313	0.10001587867736816
3	72.85231876373291	fix_pre	0		120	1.0	2.5	/experiments/knapen_AOT/AOT_stimuli/rescaled_final/0835_fw.mp4	0.0	101.2952036857605	1.0001790523529053
3	73.42851686477661	pulse	0	t		1.0	2.5	/experiments/knapen_AOT/AOT_stimuli/rescaled_final/0835_fw.mp4	0.0	101.8714017868042	
3	73.85249781608582	movie	1		244	1.0	2.5	/experiments/knapen_AOT/AOT_stimuli/rescaled_final/0835_fw.mp4	0.0	102.2953827381134	2.500322103500366
3	75.0289478302002	pulse	1	t		1.0	2.5	/experiments/knapen_AOT/AOT_stimuli/rescaled_final/0835_fw.mp4	0.0	103.47183275222778	
3	76.35281991958618	fix_post	2		12	1.0	2.5	/experiments/knapen_AOT/AOT_stimuli/rescaled_final/0835_fw.mp4	0.0	104.79570484161377	0.10007596015930176
4	76.45289587974548	fix_pre	0		120	2.0	2.5	/experiments/knapen_AOT/AOT_stimuli/rescaled_final/1163_rv.mp4	0.0	104.89578080177307	1.000119924545288
4	76.6282958984375	pulse	0	t		2.0	2.5	/experiments/knapen_AOT/AOT_stimuli/rescaled_final/1163_rv.mp4	0.0	105.07118082046509	
4	77.45301580429077	movie	1		243	2.0	2.5	/experiments/knapen_AOT/AOT_stimuli/rescaled_final/1163_rv.mp4	0.0	105.89590072631836	2.492074966430664
4	78.22830486297607	pulse	1	t		2.0	2.5	/experiments/knapen_AOT/AOT_stimuli/rescaled_final/1163_rv.mp4	0.0	106.67118978500366	
4	79.82855987548828	pulse	1	t		2.0	2.5	/experiments/knapen_AOT/AOT_stimuli/rescaled_final/1163_rv.mp4	0.0	108.27144479751587	
4	79.94509077072144	fix_post	2		12	2.0	2.5	/experiments/knapen_AOT/AOT_stimuli/rescaled_final/1163_rv.mp4	0.0	108.38797569274902	0.09996700286865234
5	80.04505777359009	fix_pre	0		121	3.0	2.5	/experiments/knapen_AOT/AOT_stimuli/rescaled_final/1544_rv.mp4	0.0	108.48794269561768	1.0084772109985352
5	81.05353498458862	movie	1		242	3.0	2.5	/experiments/knapen_AOT/AOT_stimuli/rescaled_final/1544_rv.mp4	0.0	109.49641990661621	2.4922358989715576
5	81.42893981933594	pulse	1	t		3.0	2.5	/experiments/knapen_AOT/AOT_stimuli/rescaled_final/1544_rv.mp4	0.0	109.87182474136353	
5	83.02916193008423	pulse	1	t		3.0	2.5	/experiments/knapen_AOT/AOT_stimuli/rescaled_final/1544_rv.mp4	0.0	111.47204685211182	
5	83.54577088356018	fix_post	2		12	3.0	2.5	/experiments/knapen_AOT/AOT_stimuli/rescaled_final/1544_rv.mp4	0.0	111.98865580558777	0.09984707832336426
6	83.64561796188354	fix_pre	0		119	4.0	2.5	/experiments/knapen_AOT/AOT_stimuli/rescaled_final/0415_fw.mp4	0.0	112.08850288391113	0.991832971572876
6	84.62926077842712	pulse	0	t		4.0	2.5	/experiments/knapen_AOT/AOT_stimuli/rescaled_final/0415_fw.mp4	0.0	113.07214570045471	
6	84.63745093345642	movie	1		245	4.0	2.5	/experiments/knapen_AOT/AOT_stimuli/rescaled_final/0415_fw.mp4	0.0	113.08033585548401	2.508687973022461
6	86.23368287086487	pulse	1	t		4.0	2.5	/experiments/knapen_AOT/AOT_stimuli/rescaled_final/0415_fw.mp4	0.0	114.67656779289246	
6	87.14613890647888	fix_post	2		12	4.0	2.5	/experiments/knapen_AOT/AOT_stimuli/rescaled_final/0415_fw.mp4	0.0	115.58902382850647	0.10002803802490234
7	87.24616694450378	fix_pre	0		120	5.0	2.5	/experiments/knapen_AOT/AOT_stimuli/rescaled_final/1035_fw.mp4	0.0	115.68905186653137	1.000135898590088
7	87.8297529220581	pulse	0	t		5.0	2.5	/experiments/knapen_AOT/AOT_stimuli/rescaled_final/1035_fw.mp4	0.0	116.2726378440857	
7	88.24630284309387	movie	1		244	5.0	2.5	/experiments/knapen_AOT/AOT_stimuli/rescaled_final/1035_fw.mp4	0.0	116.68918776512146	2.500399112701416
7	89.4300799369812	pulse	1	t		5.0	2.5	/experiments/knapen_AOT/AOT_stimuli/rescaled_final/1035_fw.mp4	0.0	117.87296485900879	
7	90.74670195579529	fix_post	2		12	5.0	2.5	/experiments/knapen_AOT/AOT_stimuli/rescaled_final/1035_fw.mp4	0.0	119.18958687782288	0.09996891021728516
8	90.84667086601257	fix_pre	0		120	6.0	2.5	blank	1.0	119.28955578804016	1.0001699924468994
8	91.03023886680603	pulse	0	t		6.0	2.5	blank	1.0	119.47312378883362	
8	91.84684085845947	movie	1		300	6.0	2.5	blank	1.0	120.28972578048706	2.5003700256347656
8	92.63046979904175	pulse	1	t		6.0	2.5	blank	1.0	121.07335472106934	
8	94.23067498207092	pulse	1	t		6.0	2.5	blank	1.0	122.67355990409851	
8	94.34721088409424	fix_post	2		12	6.0	2.5	blank	1.0	122.79009580612183	0.09998703002929688
9	94.44719791412354	fix_pre	0		120	7.0	2.5	/experiments/knapen_AOT/AOT_stimuli/rescaled_final/0979_rv.mp4	0.0	122.89008283615112	1.000140905380249
9	95.44733881950378	movie	1		244	7.0	2.5	/experiments/knapen_AOT/AOT_stimuli/rescaled_final/0979_rv.mp4	0.0	123.89022374153137	2.492053985595703
9	95.83174395561218	pulse	1	t		7.0	2.5	/experiments/knapen_AOT/AOT_stimuli/rescaled_final/0979_rv.mp4	0.0	124.27462887763977	
9	97.4311637878418	pulse	1	t		7.0	2.5	/experiments/knapen_AOT/AOT_stimuli/rescaled_final/0979_rv.mp4	0.0	125.87404870986938	
9	97.93939280509949	fix_post	2		12	7.0	2.5	/experiments/knapen_AOT/AOT_stimuli/rescaled_final/0979_rv.mp4	0.0	126.38227772712708	0.10004806518554688
10	98.03944087028503	fix_pre	0		120	8.0	2.5	/experiments/knapen_AOT/AOT_stimuli/rescaled_final/0699_fw.mp4	0.0	126.48232579231262	1.0001840591430664
10	99.03139996528625	pulse	0	t		8.0	2.5	/experiments/knapen_AOT/AOT_stimuli/rescaled_final/0699_fw.mp4	0.0	127.47428488731384	
10	99.0396249294281	movie	1		245	8.0	2.5	/experiments/knapen_AOT/AOT_stimuli/rescaled_final/0699_fw.mp4	0.0	127.48250985145569	2.50862193107605
10	100.63207077980042	pulse	1	t		8.0	2.5	/experiments/knapen_AOT/AOT_stimuli/rescaled_final/0699_fw.mp4	0.0	129.074955701828	
10	101.54824686050415	fix_post	2		12	8.0	2.5	/experiments/knapen_AOT/AOT_stimuli/rescaled_final/0699_fw.mp4	0.0	129.99113178253174	0.1000370979309082
11	101.64828395843506	fix_pre	0		120	9.0	2.5	/experiments/knapen_AOT/AOT_stimuli/rescaled_final/1283_rv.mp4	0.0	130.09116888046265	1.0001919269561768
11	102.23197484016418	pulse	0	t		9.0	2.5	/experiments/knapen_AOT/AOT_stimuli/rescaled_final/1283_rv.mp4	0.0	130.67485976219177	
11	102.64847588539124	movie	1		243	9.0	2.5	/experiments/knapen_AOT/AOT_stimuli/rescaled_final/1283_rv.mp4	0.0	131.09136080741882	2.5003271102905273
11	103.83235883712769	pulse	1	t		9.0	2.5	/experiments/knapen_AOT/AOT_stimuli/rescaled_final/1283_rv.mp4	0.0	132.27524375915527	
11	105.14880299568176	fix_post	2		12	9.0	2.5	/experiments/knapen_AOT/AOT_stimuli/rescaled_final/1283_rv.mp4	0.0	133.59168791770935	0.10001397132873535
12	105.2488169670105	fix_pre	0		120	10.0	2.5	/experiments/knapen_AOT/AOT_stimuli/rescaled_final/1669_fw.mp4	0.0	133.6917018890381	1.0001368522644043
12	105.4325008392334	pulse	0	t		10.0	2.5	/experiments/knapen_AOT/AOT_stimuli/rescaled_final/1669_fw.mp4	0.0	133.875385761261	
12	106.2489538192749	movie	1		244	10.0	2.5	/experiments/knapen_AOT/AOT_stimuli/rescaled_final/1669_fw.mp4	0.0	134.6918387413025	2.5003840923309326
12	107.03262281417847	pulse	1	t		10.0	2.5	/experiments/knapen_AOT/AOT_stimuli/rescaled_final/1669_fw.mp4	0.0	135.47550773620605	
12	108.63298892974854	pulse	1	t		10.0	2.5	/experiments/knapen_AOT/AOT_stimuli/rescaled_final/1669_fw.mp4	0.0	137.07587385177612	
12	108.74933791160583	fix_post	2		12	10.0	2.5	/experiments/knapen_AOT/AOT_stimuli/rescaled_final/1669_fw.mp4	0.0	137.19222283363342	0.10002899169921875
13	108.84936690330505	fix_pre	0		120	11.0	2.5	/experiments/knapen_AOT/AOT_stimuli/rescaled_final/0485_fw.mp4	0.0	137.29225182533264	1.0001699924468994
13	109.84953689575195	movie	1		240	11.0	2.5	/experiments/knapen_AOT/AOT_stimuli/rescaled_final/0485_fw.mp4	0.0	138.29242181777954	2.500365972518921
13	110.23440480232239	pulse	1	t		11.0	2.5	/experiments/knapen_AOT/AOT_stimuli/rescaled_final/0485_fw.mp4	0.0	138.67728972434998	
13	111.8333728313446	pulse	1	t		11.0	2.5	/experiments/knapen_AOT/AOT_stimuli/rescaled_final/0485_fw.mp4	0.0	140.2762577533722	
13	112.34990286827087	fix_post	2		11	11.0	2.5	/experiments/knapen_AOT/AOT_stimuli/rescaled_final/0485_fw.mp4	0.0	140.79278779029846	0.09165096282958984
14	112.44155383110046	fix_pre	0		120	12.0	2.5	/experiments/knapen_AOT/AOT_stimuli/rescaled_final/0415_rv.mp4	0.0	140.88443875312805	1.0001959800720215
14	113.43358492851257	pulse	0	t		12.0	2.5	/experiments/knapen_AOT/AOT_stimuli/rescaled_final/0415_rv.mp4	0.0	141.87646985054016	
14	113.44174981117249	movie	1		245	12.0	2.5	/experiments/knapen_AOT/AOT_stimuli/rescaled_final/0415_rv.mp4	0.0	141.88463473320007	2.5086560249328613
14	115.0345549583435	pulse	1	t		12.0	2.5	/experiments/knapen_AOT/AOT_stimuli/rescaled_final/0415_rv.mp4	0.0	143.4774398803711	
14	115.95040583610535	fix_post	2		12	12.0	2.5	/experiments/knapen_AOT/AOT_stimuli/rescaled_final/0415_rv.mp4	0.0	144.39329075813293	0.10004806518554688
15	116.0504539012909	fix_pre	0		120	13.0	2.5	blank	1.0	144.49333882331848	1.000128984451294
15	116.6341187953949	pulse	0	t		13.0	2.5	blank	1.0	145.07700371742249	
15	117.05058288574219	movie	1		300	13.0	2.5	blank	1.0	145.49346780776978	2.50039005279541
15	118.23429584503174	pulse	1	t		13.0	2.5	blank	1.0	146.67718076705933	
15	119.5509729385376	fix_post	2		12	13.0	2.5	blank	1.0	147.99385786056519	0.10000491142272949
16	119.65097784996033	fix_pre	0		120	14.0	2.5	/experiments/knapen_AOT/AOT_stimuli/rescaled_final/1774_rv.mp4	0.0	148.09386277198792	1.000169038772583
16	119.83458280563354	pulse	0	t		14.0	2.5	/experiments/knapen_AOT/AOT_stimuli/rescaled_final/1774_rv.mp4	0.0	148.27746772766113	
16	120.65114688873291	movie	1		244	14.0	2.5	/experiments/knapen_AOT/AOT_stimuli/rescaled_final/1774_rv.mp4	0.0	149.0940318107605	2.500339984893799
16	121.43478488922119	pulse	1	t		14.0	2.5	/experiments/knapen_AOT/AOT_stimuli/rescaled_final/1774_rv.mp4	0.0	149.87766981124878	
16	123.03519487380981	pulse	1	t		14.0	2.5	/experiments/knapen_AOT/AOT_stimuli/rescaled_final/1774_rv.mp4	0.0	151.4780797958374	
16	123.15148687362671	fix_post	2		12	14.0	2.5	/experiments/knapen_AOT/AOT_stimuli/rescaled_final/1774_rv.mp4	0.0	151.5943717956543	0.10000205039978027
17	123.25148892402649	fix_pre	0		120	15.0	2.5	/experiments/knapen_AOT/AOT_stimuli/rescaled_final/0990_rv.mp4	0.0	151.69437384605408	1.0001368522644043
17	124.2516257762909	movie	1		243	15.0	2.5	/experiments/knapen_AOT/AOT_stimuli/rescaled_final/0990_rv.mp4	0.0	152.69451069831848	2.4920480251312256
17	124.63587594032288	pulse	1	t		15.0	2.5	/experiments/knapen_AOT/AOT_stimuli/rescaled_final/0990_rv.mp4	0.0	153.07876086235046	
17	126.22804880142212	pulse	1	t		15.0	2.5	/experiments/knapen_AOT/AOT_stimuli/rescaled_final/0990_rv.mp4	0.0	154.6709337234497	
17	126.74367380142212	fix_post	2		12	15.0	2.5	/experiments/knapen_AOT/AOT_stimuli/rescaled_final/0990_rv.mp4	0.0	155.1865587234497	0.100067138671875
18	126.843740940094	fix_pre	0		120	16.0	2.5	/experiments/knapen_AOT/AOT_stimuli/rescaled_final/1361_fw.mp4	0.0	155.28662586212158	1.000143051147461
18	127.82820391654968	pulse	0	t		16.0	2.5	/experiments/knapen_AOT/AOT_stimuli/rescaled_final/1361_fw.mp4	0.0	156.27108883857727	
18	127.84388399124146	movie	1		245	16.0	2.5	/experiments/knapen_AOT/AOT_stimuli/rescaled_final/1361_fw.mp4	0.0	156.28676891326904	2.5086469650268555
18	129.43721795082092	pulse	1	t		16.0	2.5	/experiments/knapen_AOT/AOT_stimuli/rescaled_final/1361_fw.mp4	0.0	157.8801028728485	
18	130.3525309562683	fix_post	2		12	16.0	2.5	/experiments/knapen_AOT/AOT_stimuli/rescaled_final/1361_fw.mp4	0.0	158.7954158782959	0.10005688667297363
19	130.45258784294128	fix_pre	0		120	17.0	2.5	/experiments/knapen_AOT/AOT_stimuli/rescaled_final/1163_rv.mp4	0.0	158.89547276496887	1.0001590251922607
19	131.02790999412537	pulse	0	t		17.0	2.5	/experiments/knapen_AOT/AOT_stimuli/rescaled_final/1163_rv.mp4	0.0	159.47079491615295	
19	131.45274686813354	movie	1		244	17.0	2.5	/experiments/knapen_AOT/AOT_stimuli/rescaled_final/1163_rv.mp4	0.0	159.89563179016113	2.5004069805145264
19	132.62907099723816	pulse	1	t		17.0	2.5	/experiments/knapen_AOT/AOT_stimuli/rescaled_final/1163_rv.mp4	0.0	161.07195591926575	
19	133.95315384864807	fix_post	2		12	17.0	2.5	/experiments/knapen_AOT/AOT_stimuli/rescaled_final/1163_rv.mp4	0.0	162.39603877067566	0.09996199607849121
20	134.05311584472656	fix_pre	0		120	18.0	2.5	/experiments/knapen_AOT/AOT_stimuli/rescaled_final/0844_fw.mp4	0.0	162.49600076675415	1.0001630783081055
20	134.22843384742737	pulse	0	t		18.0	2.5	/experiments/knapen_AOT/AOT_stimuli/rescaled_final/0844_fw.mp4	0.0	162.67131876945496	
20	135.05327892303467	movie	1		246	18.0	2.5	/experiments/knapen_AOT/AOT_stimuli/rescaled_final/0844_fw.mp4	0.0	163.49616384506226	2.500342845916748
20	135.8286988735199	pulse	1	t		18.0	2.5	/experiments/knapen_AOT/AOT_stimuli/rescaled_final/0844_fw.mp4	0.0	164.27158379554749	
20	137.4289047718048	pulse	1	t		18.0	2.5	/experiments/knapen_AOT/AOT_stimuli/rescaled_final/0844_fw.mp4	0.0	165.8717896938324	
20	137.55362176895142	fix_post	2		12	18.0	2.5	/experiments/knapen_AOT/AOT_stimuli/rescaled_final/0844_fw.mp4	0.0	165.996506690979	0.10004806518554688
21	137.65366983413696	fix_pre	0		119	19.0	2.5	/experiments/knapen_AOT/AOT_stimuli/rescaled_final/0133_fw.mp4	0.0	166.09655475616455	0.99180006980896
21	138.64546990394592	movie	1		243	19.0	2.5	/experiments/knapen_AOT/AOT_stimuli/rescaled_final/0133_fw.mp4	0.0	167.0883548259735	2.5003468990325928
21	139.03318977355957	pulse	1	t		19.0	2.5	/experiments/knapen_AOT/AOT_stimuli/rescaled_final/0133_fw.mp4	0.0	167.47607469558716	
21	140.6293079853058	pulse	1	t		19.0	2.5	/experiments/knapen_AOT/AOT_stimuli/rescaled_final/0133_fw.mp4	0.0	169.07219290733337	
21	141.14581680297852	fix_post	2		12	19.0	2.5	/experiments/knapen_AOT/AOT_stimuli/rescaled_final/0133_fw.mp4	0.0	169.5887017250061	0.10004496574401855
22	141.24586176872253	fix_pre	0		119	20.0	2.5	blank	1.0	169.68874669075012	0.9918210506439209
22	142.22965097427368	pulse	0	t		20.0	2.5	blank	1.0	170.67253589630127	
22	142.23768281936646	movie	1		301	20.0	2.5	blank	1.0	170.68056774139404	2.5087080001831055
22	143.82990288734436	pulse	1	t		20.0	2.5	blank	1.0	172.27278780937195	
22	144.74639081954956	fix_post	2		12	20.0	2.5	blank	1.0	173.18927574157715	0.09998106956481934
23	144.84637188911438	fix_pre	0		120	21.0	2.5	/experiments/knapen_AOT/AOT_stimuli/rescaled_final/0788_fw.mp4	0.0	173.28925681114197	1.0002100467681885
23	145.42996096611023	pulse	0	t		21.0	2.5	/experiments/knapen_AOT/AOT_stimuli/rescaled_final/0788_fw.mp4	0.0	173.87284588813782	
23	145.84658193588257	movie	1		243	21.0	2.5	/experiments/knapen_AOT/AOT_stimuli/rescaled_final/0788_fw.mp4	0.0	174.28946685791016	2.500364065170288
23	147.03033089637756	pulse	1	t		21.0	2.5	/experiments/knapen_AOT/AOT_stimuli/rescaled_final/0788_fw.mp4	0.0	175.47321581840515	
23	148.34694600105286	fix_post	2		12	21.0	2.5	/experiments/knapen_AOT/AOT_stimuli/rescaled_final/0788_fw.mp4	0.0	176.78983092308044	0.09998679161071777
24	148.44693279266357	fix_pre	0		120	22.0	2.5	/experiments/knapen_AOT/AOT_stimuli/rescaled_final/1035_fw.mp4	0.0	176.88981771469116	1.0001440048217773
24	148.63062977790833	pulse	0	t		22.0	2.5	/experiments/knapen_AOT/AOT_stimuli/rescaled_final/1035_fw.mp4	0.0	177.0735146999359	
24	149.44707679748535	movie	1		244	22.0	2.5	/experiments/knapen_AOT/AOT_stimuli/rescaled_final/1035_fw.mp4	0.0	177.88996171951294	2.5003790855407715
24	150.23086977005005	pulse	1	t		22.0	2.5	/experiments/knapen_AOT/AOT_stimuli/rescaled_final/1035_fw.mp4	0.0	178.67375469207764	
24	151.83085680007935	pulse	1	t		22.0	2.5	/experiments/knapen_AOT/AOT_stimuli/rescaled_final/1035_fw.mp4	0.0	180.27374172210693	
24	151.94745588302612	fix_post	2		12	22.0	2.5	/experiments/knapen_AOT/AOT_stimuli/rescaled_final/1035_fw.mp4	0.0	180.3903408050537	0.10002589225769043
25	152.0474817752838	fix_pre	0		120	23.0	2.5	/experiments/knapen_AOT/AOT_stimuli/rescaled_final/2176_rv.mp4	0.0	180.4903666973114	1.0001330375671387
25	153.04761481285095	movie	1		243	23.0	2.5	/experiments/knapen_AOT/AOT_stimuli/rescaled_final/2176_rv.mp4	0.0	181.49049973487854	2.492014169692993
25	153.4318118095398	pulse	1	t		23.0	2.5	/experiments/knapen_AOT/AOT_stimuli/rescaled_final/2176_rv.mp4	0.0	181.87469673156738	
25	155.0315718650818	pulse	1	t		23.0	2.5	/experiments/knapen_AOT/AOT_stimuli/rescaled_final/2176_rv.mp4	0.0	183.47445678710938	
25	155.53962898254395	fix_post	2		12	23.0	2.5	/experiments/knapen_AOT/AOT_stimuli/rescaled_final/2176_rv.mp4	0.0	183.98251390457153	0.10005998611450195
26	155.63968896865845	fix_pre	0		120	24.0	2.5	/experiments/knapen_AOT/AOT_stimuli/rescaled_final/0349_fw.mp4	0.0	184.08257389068604	1.000126838684082
26	156.63183879852295	pulse	0	t		24.0	2.5	/experiments/knapen_AOT/AOT_stimuli/rescaled_final/0349_fw.mp4	0.0	185.07472372055054	
26	156.63981580734253	movie	1		245	24.0	2.5	/experiments/knapen_AOT/AOT_stimuli/rescaled_final/0349_fw.mp4	0.0	185.08270072937012	2.508721113204956
26	158.23231387138367	pulse	1	t		24.0	2.5	/experiments/knapen_AOT/AOT_stimuli/rescaled_final/0349_fw.mp4	0.0	186.67519879341125	
26	159.14853692054749	fix_post	2		12	24.0	2.5	/experiments/knapen_AOT/AOT_stimuli/rescaled_final/0349_fw.mp4	0.0	187.59142184257507	0.10000085830688477
27	159.24853777885437	fix_pre	0		120	25.0	2.5	/experiments/knapen_AOT/AOT_stimuli/rescaled_final/1088_rv.mp4	0.0	187.69142270088196	1.00018310546875
27	159.8321177959442	pulse	0	t		25.0	2.5	/experiments/knapen_AOT/AOT_stimuli/rescaled_final/1088_rv.mp4	0.0	188.2750027179718	
27	160.24872088432312	movie	1		245	25.0	2.5	/experiments/knapen_AOT/AOT_stimuli/rescaled_final/1088_rv.mp4	0.0	188.6916058063507	2.5003480911254883
27	161.43249678611755	pulse	1	t		25.0	2.5	/experiments/knapen_AOT/AOT_stimuli/rescaled_final/1088_rv.mp4	0.0	189.87538170814514	
27	162.7490689754486	fix_post	2		12	25.0	2.5	/experiments/knapen_AOT/AOT_stimuli/rescaled_final/1088_rv.mp4	0.0	191.1919538974762	0.10001492500305176
28	162.84908390045166	fix_pre	0		120	26.0	2.5	/experiments/knapen_AOT/AOT_stimuli/rescaled_final/1709_rv.mp4	0.0	191.29196882247925	1.0002729892730713
28	163.03278994560242	pulse	0	t		26.0	2.5	/experiments/knapen_AOT/AOT_stimuli/rescaled_final/1709_rv.mp4	0.0	191.47567486763	
28	163.84935688972473	movie	1		243	26.0	2.5	/experiments/knapen_AOT/AOT_stimuli/rescaled_final/1709_rv.mp4	0.0	192.29224181175232	2.5002450942993164
28	164.63303184509277	pulse	1	t		26.0	2.5	/experiments/knapen_AOT/AOT_stimuli/rescaled_final/1709_rv.mp4	0.0	193.07591676712036	
28	166.2328188419342	pulse	1	t		26.0	2.5	/experiments/knapen_AOT/AOT_stimuli/rescaled_final/1709_rv.mp4	0.0	194.6757037639618	
28	166.34960198402405	fix_post	2		12	26.0	2.5	/experiments/knapen_AOT/AOT_stimuli/rescaled_final/1709_rv.mp4	0.0	194.79248690605164	0.10004496574401855
29	166.44964694976807	fix_pre	0		120	27.0	2.5	/experiments/knapen_AOT/AOT_stimuli/rescaled_final/1403_rv.mp4	0.0	194.89253187179565	1.00016188621521
29	167.44980883598328	movie	1		243	27.0	2.5	/experiments/knapen_AOT/AOT_stimuli/rescaled_final/1403_rv.mp4	0.0	195.89269375801086	2.491981029510498
29	167.83377599716187	pulse	1	t		27.0	2.5	/experiments/knapen_AOT/AOT_stimuli/rescaled_final/1403_rv.mp4	0.0	196.27666091918945	
29	169.43375396728516	pulse	1	t		27.0	2.5	/experiments/knapen_AOT/AOT_stimuli/rescaled_final/1403_rv.mp4	0.0	197.87663888931274	
29	169.94178986549377	fix_post	2		12	27.0	2.5	/experiments/knapen_AOT/AOT_stimuli/rescaled_final/1403_rv.mp4	0.0	198.38467478752136	0.10004806518554688
30	170.04183793067932	fix_pre	0		120	28.0	2.5	blank	1.0	198.4847228527069	1.0001318454742432
30	171.0339698791504	pulse	0	t		28.0	2.5	blank	1.0	199.47685480117798	
30	171.04196977615356	movie	1		301	28.0	2.5	blank	1.0	199.48485469818115	2.508751153945923
30	172.63409185409546	pulse	1	t		28.0	2.5	blank	1.0	201.07697677612305	
30	173.5507209300995	fix_post	2		9	28.0	2.5	blank	1.0	201.99360585212708	0.10003495216369629
31	173.65075588226318	fix_pre	0		120	29.0	2.5	/experiments/knapen_AOT/AOT_stimuli/rescaled_final/1670_rv.mp4	0.0	202.09364080429077	1.0001170635223389
31	174.23432898521423	pulse	0	t		29.0	2.5	/experiments/knapen_AOT/AOT_stimuli/rescaled_final/1670_rv.mp4	0.0	202.67721390724182	
31	174.65087294578552	movie	1		244	29.0	2.5	/experiments/knapen_AOT/AOT_stimuli/rescaled_final/1670_rv.mp4	0.0	203.0937578678131	2.5003769397735596
31	175.83472394943237	pulse	1	t		29.0	2.5	/experiments/knapen_AOT/AOT_stimuli/rescaled_final/1670_rv.mp4	0.0	204.27760887145996	
31	177.15124988555908	fix_post	2		12	29.0	2.5	/experiments/knapen_AOT/AOT_stimuli/rescaled_final/1670_rv.mp4	0.0	205.59413480758667	0.10004091262817383
32	177.25129079818726	fix_pre	0		120	30.0	2.5	/experiments/knapen_AOT/AOT_stimuli/rescaled_final/0012_fw.mp4	0.0	205.69417572021484	1.0001029968261719
32	177.43495798110962	pulse	0	t		30.0	2.5	/experiments/knapen_AOT/AOT_stimuli/rescaled_final/0012_fw.mp4	0.0	205.8778429031372	
32	178.25139379501343	movie	1		244	30.0	2.5	/experiments/knapen_AOT/AOT_stimuli/rescaled_final/0012_fw.mp4	0.0	206.69427871704102	2.5003740787506104
32	179.035089969635	pulse	1	t		30.0	2.5	/experiments/knapen_AOT/AOT_stimuli/rescaled_final/0012_fw.mp4	0.0	207.4779748916626	
32	180.63525390625	pulse	1	t		30.0	2.5	/experiments/knapen_AOT/AOT_stimuli/rescaled_final/0012_fw.mp4	0.0	209.0781388282776	
32	180.75176787376404	fix_post	2		12	30.0	2.5	/experiments/knapen_AOT/AOT_stimuli/rescaled_final/0012_fw.mp4	0.0	209.19465279579163	0.09999608993530273
33	180.85176396369934	fix_pre	0		120	31.0	2.5	/experiments/knapen_AOT/AOT_stimuli/rescaled_final/0548_fw.mp4	0.0	209.29464888572693	1.0001499652862549
33	181.8519139289856	movie	1		244	31.0	2.5	/experiments/knapen_AOT/AOT_stimuli/rescaled_final/0548_fw.mp4	0.0	210.29479885101318	2.4920079708099365
33	182.23570895195007	pulse	1	t		31.0	2.5	/experiments/knapen_AOT/AOT_stimuli/rescaled_final/0548_fw.mp4	0.0	210.67859387397766	
33	183.8283498287201	pulse	1	t		31.0	2.5	/experiments/knapen_AOT/AOT_stimuli/rescaled_final/0548_fw.mp4	0.0	212.27123475074768	
33	184.34392189979553	fix_post	2		12	31.0	2.5	/experiments/knapen_AOT/AOT_stimuli/rescaled_final/0548_fw.mp4	0.0	212.78680682182312	0.10003304481506348
34	184.4439549446106	fix_pre	0		120	32.0	2.5	/experiments/knapen_AOT/AOT_stimuli/rescaled_final/0060_fw.mp4	0.0	212.88683986663818	1.0001559257507324
34	185.42858695983887	pulse	0	t		32.0	2.5	/experiments/knapen_AOT/AOT_stimuli/rescaled_final/0060_fw.mp4	0.0	213.87147188186646	
34	185.44411087036133	movie	1		245	32.0	2.5	/experiments/knapen_AOT/AOT_stimuli/rescaled_final/0060_fw.mp4	0.0	213.88699579238892	2.508704900741577
34	187.03674483299255	pulse	1	t		32.0	2.5	/experiments/knapen_AOT/AOT_stimuli/rescaled_final/0060_fw.mp4	0.0	215.47962975502014	
34	187.9528157711029	fix_post	2		12	32.0	2.5	/experiments/knapen_AOT/AOT_stimuli/rescaled_final/0060_fw.mp4	0.0	216.3957006931305	0.10001420974731445
35	188.05282998085022	fix_pre	0		120	33.0	2.5	/experiments/knapen_AOT/AOT_stimuli/rescaled_final/2157_fw.mp4	0.0	216.4957149028778	1.0001327991485596
35	188.62889289855957	pulse	0	t		33.0	2.5	/experiments/knapen_AOT/AOT_stimuli/rescaled_final/2157_fw.mp4	0.0	217.07177782058716	
35	189.05296277999878	movie	1		243	33.0	2.5	/experiments/knapen_AOT/AOT_stimuli/rescaled_final/2157_fw.mp4	0.0	217.49584770202637	2.5003771781921387
35	190.2288658618927	pulse	1	t		33.0	2.5	/experiments/knapen_AOT/AOT_stimuli/rescaled_final/2157_fw.mp4	0.0	218.6717507839203	
35	191.55333995819092	fix_post	2		12	33.0	2.5	/experiments/knapen_AOT/AOT_stimuli/rescaled_final/2157_fw.mp4	0.0	219.9962248802185	0.10009098052978516
36	191.6534309387207	fix_pre	0		120	34.0	2.5	/experiments/knapen_AOT/AOT_stimuli/rescaled_final/0085_fw.mp4	0.0	220.0963158607483	1.0000879764556885
36	191.8286008834839	pulse	0	t		34.0	2.5	/experiments/knapen_AOT/AOT_stimuli/rescaled_final/0085_fw.mp4	0.0	220.27148580551147	
36	192.6535189151764	movie	1		245	34.0	2.5	/experiments/knapen_AOT/AOT_stimuli/rescaled_final/0085_fw.mp4	0.0	221.09640383720398	2.500372886657715
36	193.42882895469666	pulse	1	t		34.0	2.5	/experiments/knapen_AOT/AOT_stimuli/rescaled_final/0085_fw.mp4	0.0	221.87171387672424	
36	195.02910685539246	pulse	1	t		34.0	2.5	/experiments/knapen_AOT/AOT_stimuli/rescaled_final/0085_fw.mp4	0.0	223.47199177742004	
36	195.1538918018341	fix_post	2		12	34.0	2.5	/experiments/knapen_AOT/AOT_stimuli/rescaled_final/0085_fw.mp4	0.0	223.5967767238617	0.10001707077026367
37	195.25390887260437	fix_pre	0		119	35.0	2.5	blank	1.0	223.69679379463196	0.9919149875640869
37	196.24582386016846	movie	1		300	35.0	2.5	blank	1.0	224.68870878219604	2.500307083129883
37	196.62941598892212	pulse	1	t		35.0	2.5	blank	1.0	225.0723009109497	
37	198.22951292991638	pulse	1	t		35.0	2.5	blank	1.0	226.67239785194397	
37	198.74613094329834	fix_post	2		12	35.0	2.5	blank	1.0	227.18901586532593	0.09998297691345215
38	198.8461139202118	fix_pre	0		119	36.0	2.5	/experiments/knapen_AOT/AOT_stimuli/rescaled_final/1423_rv.mp4	0.0	227.28899884223938	0.9918310642242432
38	199.8298637866974	pulse	0	t		36.0	2.5	/experiments/knapen_AOT/AOT_stimuli/rescaled_final/1423_rv.mp4	0.0	228.27274870872498	
38	199.83794498443604	movie	1		244	36.0	2.5	/experiments/knapen_AOT/AOT_stimuli/rescaled_final/1423_rv.mp4	0.0	228.28082990646362	2.508762836456299
38	201.4305498600006	pulse	1	t		36.0	2.5	/experiments/knapen_AOT/AOT_stimuli/rescaled_final/1423_rv.mp4	0.0	229.8734347820282	
38	202.34670782089233	fix_post	2		12	36.0	2.5	/experiments/knapen_AOT/AOT_stimuli/rescaled_final/1423_rv.mp4	0.0	230.78959274291992	0.09993910789489746
39	202.44664692878723	fix_pre	0		120	37.0	2.5	/experiments/knapen_AOT/AOT_stimuli/rescaled_final/1483_rv.mp4	0.0	230.88953185081482	1.0001318454742432
39	203.0302917957306	pulse	0	t		37.0	2.5	/experiments/knapen_AOT/AOT_stimuli/rescaled_final/1483_rv.mp4	0.0	231.47317671775818	
39	203.44677877426147	movie	1		243	37.0	2.5	/experiments/knapen_AOT/AOT_stimuli/rescaled_final/1483_rv.mp4	0.0	231.88966369628906	2.5003821849823
39	204.63063287734985	pulse	1	t		37.0	2.5	/experiments/knapen_AOT/AOT_stimuli/rescaled_final/1483_rv.mp4	0.0	233.07351779937744	
39	205.94716095924377	fix_post	2		12	37.0	2.5	/experiments/knapen_AOT/AOT_stimuli/rescaled_final/1483_rv.mp4	0.0	234.39004588127136	0.1000218391418457
40	206.04718279838562	fix_pre	0		120	38.0	2.5	/experiments/knapen_AOT/AOT_stimuli/rescaled_final/2095_fw.mp4	0.0	234.4900677204132	1.0001580715179443
40	206.2307209968567	pulse	0	t		38.0	2.5	/experiments/knapen_AOT/AOT_stimuli/rescaled_final/2095_fw.mp4	0.0	234.67360591888428	
40	207.04734086990356	movie	1		244	38.0	2.5	/experiments/knapen_AOT/AOT_stimuli/rescaled_final/2095_fw.mp4	0.0	235.49022579193115	2.5003700256347656
40	207.831072807312	pulse	1	t		38.0	2.5	/experiments/knapen_AOT/AOT_stimuli/rescaled_final/2095_fw.mp4	0.0	236.2739577293396	
40	209.43270587921143	pulse	1	t		38.0	2.5	/experiments/knapen_AOT/AOT_stimuli/rescaled_final/2095_fw.mp4	0.0	237.875590801239	
40	209.54771089553833	fix_post	2		12	38.0	2.5	/experiments/knapen_AOT/AOT_stimuli/rescaled_final/2095_fw.mp4	0.0	237.99059581756592	0.10001707077026367
41	209.6477279663086	fix_pre	0		119	39.0	2.5	/experiments/knapen_AOT/AOT_stimuli/rescaled_final/1093_rv.mp4	0.0	238.09061288833618	0.991844892501831
41	210.63957285881042	movie	1		245	39.0	2.5	/experiments/knapen_AOT/AOT_stimuli/rescaled_final/1093_rv.mp4	0.0	239.082457780838	2.5004680156707764
41	211.03162598609924	pulse	1	t		39.0	2.5	/experiments/knapen_AOT/AOT_stimuli/rescaled_final/1093_rv.mp4	0.0	239.47451090812683	
41	212.63170289993286	pulse	1	t		39.0	2.5	/experiments/knapen_AOT/AOT_stimuli/rescaled_final/1093_rv.mp4	0.0	241.07458782196045	
41	213.1400408744812	fix_post	2		12	39.0	2.5	/experiments/knapen_AOT/AOT_stimuli/rescaled_final/1093_rv.mp4	0.0	241.5829257965088	0.09989690780639648
42	213.2399377822876	fix_pre	0		120	40.0	2.5	/experiments/knapen_AOT/AOT_stimuli/rescaled_final/1361_fw.mp4	0.0	241.68282270431519	1.00018310546875
42	214.23197484016418	pulse	0	t		40.0	2.5	/experiments/knapen_AOT/AOT_stimuli/rescaled_final/1361_fw.mp4	0.0	242.67485976219177	
42	214.24012088775635	movie	1		244	40.0	2.5	/experiments/knapen_AOT/AOT_stimuli/rescaled_final/1361_fw.mp4	0.0	242.68300580978394	2.5086851119995117
42	215.83353281021118	pulse	1	t		40.0	2.5	/experiments/knapen_AOT/AOT_stimuli/rescaled_final/1361_fw.mp4	0.0	244.27641773223877	
42	216.74880599975586	fix_post	2		12	40.0	2.5	/experiments/knapen_AOT/AOT_stimuli/rescaled_final/1361_fw.mp4	0.0	245.19169092178345	0.10004281997680664
43	216.84884881973267	fix_pre	0		120	41.0	2.5	blank	1.0	245.29173374176025	1.0001029968261719
43	217.43252778053284	pulse	0	t		41.0	2.5	blank	1.0	245.87541270256042	
43	217.84895181655884	movie	1		300	41.0	2.5	blank	1.0	246.29183673858643	2.5004069805145264
43	219.03276181221008	pulse	1	t		41.0	2.5	blank	1.0	247.47564673423767	
43	220.34935879707336	fix_post	2		12	41.0	2.5	blank	1.0	248.79224371910095	0.1000220775604248
44	220.4493808746338	fix_pre	0		120	42.0	2.5	/experiments/knapen_AOT/AOT_stimuli/rescaled_final/1137_rv.mp4	0.0	248.89226579666138	1.000096082687378
44	220.63289380073547	pulse	0	t		42.0	2.5	/experiments/knapen_AOT/AOT_stimuli/rescaled_final/1137_rv.mp4	0.0	249.07577872276306	
44	221.44947695732117	movie	1		243	42.0	2.5	/experiments/knapen_AOT/AOT_stimuli/rescaled_final/1137_rv.mp4	0.0	249.89236187934875	2.5003888607025146
44	222.23314499855042	pulse	1	t		42.0	2.5	/experiments/knapen_AOT/AOT_stimuli/rescaled_final/1137_rv.mp4	0.0	250.676029920578	
44	223.8332109451294	pulse	1	t		42.0	2.5	/experiments/knapen_AOT/AOT_stimuli/rescaled_final/1137_rv.mp4	0.0	252.27609586715698	
44	223.94986581802368	fix_post	2		12	42.0	2.5	/experiments/knapen_AOT/AOT_stimuli/rescaled_final/1137_rv.mp4	0.0	252.39275074005127	0.09999418258666992
45	224.04986000061035	fix_pre	0		120	43.0	2.5	/experiments/knapen_AOT/AOT_stimuli/rescaled_final/0110_fw.mp4	0.0	252.49274492263794	1.0001559257507324
45	225.05001592636108	movie	1		242	43.0	2.5	/experiments/knapen_AOT/AOT_stimuli/rescaled_final/0110_fw.mp4	0.0	253.49290084838867	2.4921200275421143
45	225.43393278121948	pulse	1	t		43.0	2.5	/experiments/knapen_AOT/AOT_stimuli/rescaled_final/0110_fw.mp4	0.0	253.87681770324707	
45	227.0338578224182	pulse	1	t		43.0	2.5	/experiments/knapen_AOT/AOT_stimuli/rescaled_final/0110_fw.mp4	0.0	255.4767427444458	
45	227.5421359539032	fix_post	2		12	43.0	2.5	/experiments/knapen_AOT/AOT_stimuli/rescaled_final/0110_fw.mp4	0.0	255.9850208759308	0.09999799728393555
46	227.64213395118713	fix_pre	0		120	44.0	2.5	/experiments/knapen_AOT/AOT_stimuli/rescaled_final/1280_fw.mp4	0.0	256.0850188732147	1.0001189708709717
46	228.63405680656433	pulse	0	t		44.0	2.5	/experiments/knapen_AOT/AOT_stimuli/rescaled_final/1280_fw.mp4	0.0	257.0769417285919	
46	228.6422529220581	movie	1		245	44.0	2.5	/experiments/knapen_AOT/AOT_stimuli/rescaled_final/1280_fw.mp4	0.0	257.0851378440857	2.508687973022461
46	230.23478984832764	pulse	1	t		44.0	2.5	/experiments/knapen_AOT/AOT_stimuli/rescaled_final/1280_fw.mp4	0.0	258.6776747703552	
46	231.15094089508057	fix_post	2		12	44.0	2.5	/experiments/knapen_AOT/AOT_stimuli/rescaled_final/1280_fw.mp4	0.0	259.59382581710815	0.10002398490905762
47	231.25096487998962	fix_pre	0		120	45.0	2.5	/experiments/knapen_AOT/AOT_stimuli/rescaled_final/0976_fw.mp4	0.0	259.6938498020172	1.0001590251922607
47	231.8347339630127	pulse	0	t		45.0	2.5	/experiments/knapen_AOT/AOT_stimuli/rescaled_final/0976_fw.mp4	0.0	260.2776188850403	
47	232.25112390518188	movie	1		241	45.0	2.5	/experiments/knapen_AOT/AOT_stimuli/rescaled_final/0976_fw.mp4	0.0	260.6940088272095	2.500452995300293
47	233.43489384651184	pulse	1	t		45.0	2.5	/experiments/knapen_AOT/AOT_stimuli/rescaled_final/0976_fw.mp4	0.0	261.87777876853943	
47	234.75157690048218	fix_post	2		12	45.0	2.5	/experiments/knapen_AOT/AOT_stimuli/rescaled_final/0976_fw.mp4	0.0	263.19446182250977	0.09990501403808594
48	234.85148191452026	fix_pre	0		120	46.0	2.5	/experiments/knapen_AOT/AOT_stimuli/rescaled_final/2073_fw.mp4	0.0	263.29436683654785	1.0001559257507324
48	235.03503680229187	pulse	0	t		46.0	2.5	/experiments/knapen_AOT/AOT_stimuli/rescaled_final/2073_fw.mp4	0.0	263.47792172431946	
48	235.851637840271	movie	1		244	46.0	2.5	/experiments/knapen_AOT/AOT_stimuli/rescaled_final/2073_fw.mp4	0.0	264.2945227622986	2.5003609657287598
48	236.63530683517456	pulse	1	t		46.0	2.5	/experiments/knapen_AOT/AOT_stimuli/rescaled_final/2073_fw.mp4	0.0	265.07819175720215	
48	238.23543882369995	pulse	1	t		46.0	2.5	/experiments/knapen_AOT/AOT_stimuli/rescaled_final/2073_fw.mp4	0.0	266.67832374572754	
48	238.35199880599976	fix_post	2		12	46.0	2.5	/experiments/knapen_AOT/AOT_stimuli/rescaled_final/2073_fw.mp4	0.0	266.79488372802734	0.100006103515625
49	238.45200490951538	fix_pre	0		119	47.0	2.5	blank	1.0	266.89488983154297	0.9918160438537598
49	239.44382095336914	movie	1		300	47.0	2.5	blank	1.0	267.88670587539673	2.5003819465637207
49	239.82829189300537	pulse	1	t		47.0	2.5	blank	1.0	268.27117681503296	
49	241.4285957813263	pulse	1	t		47.0	2.5	blank	1.0	269.8714807033539	
49	241.94420289993286	fix_post	2		12	47.0	2.5	blank	1.0	270.38708782196045	0.10001206398010254
50	242.04421496391296	fix_pre	0		120	48.0	2.5	/experiments/knapen_AOT/AOT_stimuli/rescaled_final/1218_rv.mp4	0.0	270.48709988594055	1.000175952911377
50	243.02867889404297	pulse	0	t		48.0	2.5	/experiments/knapen_AOT/AOT_stimuli/rescaled_final/1218_rv.mp4	0.0	271.47156381607056	
50	243.04439091682434	movie	1		246	48.0	2.5	/experiments/knapen_AOT/AOT_stimuli/rescaled_final/1218_rv.mp4	0.0	271.48727583885193	2.508707046508789
50	244.628173828125	pulse	1	t		48.0	2.5	/experiments/knapen_AOT/AOT_stimuli/rescaled_final/1218_rv.mp4	0.0	273.0710587501526	
50	245.55309796333313	fix_post	2		12	48.0	2.5	/experiments/knapen_AOT/AOT_stimuli/rescaled_final/1218_rv.mp4	0.0	273.9959828853607	0.09997391700744629
51	245.65307188034058	fix_pre	0		120	49.0	2.5	/experiments/knapen_AOT/AOT_stimuli/rescaled_final/1680_rv.mp4	0.0	274.09595680236816	1.00018310546875
51	246.22835183143616	pulse	0	t		49.0	2.5	/experiments/knapen_AOT/AOT_stimuli/rescaled_final/1680_rv.mp4	0.0	274.67123675346375	
51	246.65325498580933	movie	1		243	49.0	2.5	/experiments/knapen_AOT/AOT_stimuli/rescaled_final/1680_rv.mp4	0.0	275.0961399078369	2.500351905822754
51	247.82974576950073	pulse	1	t		49.0	2.5	/experiments/knapen_AOT/AOT_stimuli/rescaled_final/1680_rv.mp4	0.0	276.2726306915283	
51	249.15360689163208	fix_post	2		12	49.0	2.5	/experiments/knapen_AOT/AOT_stimuli/rescaled_final/1680_rv.mp4	0.0	277.59649181365967	0.10004091262817383
52	249.25364780426025	fix_pre	0		120	50.0	2.5	/experiments/knapen_AOT/AOT_stimuli/rescaled_final/0847_rv.mp4	0.0	277.69653272628784	1.0001640319824219
52	249.42900896072388	pulse	0	t		50.0	2.5	/experiments/knapen_AOT/AOT_stimuli/rescaled_final/0847_rv.mp4	0.0	277.87189388275146	
52	250.25381183624268	movie	1		243	50.0	2.5	/experiments/knapen_AOT/AOT_stimuli/rescaled_final/0847_rv.mp4	0.0	278.69669675827026	2.4920051097869873
52	251.0290608406067	pulse	1	t		50.0	2.5	/experiments/knapen_AOT/AOT_stimuli/rescaled_final/0847_rv.mp4	0.0	279.4719457626343	
52	252.62935495376587	pulse	1	t		50.0	2.5	/experiments/knapen_AOT/AOT_stimuli/rescaled_final/0847_rv.mp4	0.0	281.07223987579346	
52	252.74581694602966	fix_post	2		12	50.0	2.5	/experiments/knapen_AOT/AOT_stimuli/rescaled_final/0847_rv.mp4	0.0	281.18870186805725	0.1000208854675293
53	252.8458378314972	fix_pre	0		120	51.0	2.5	/experiments/knapen_AOT/AOT_stimuli/rescaled_final/0194_rv.mp4	0.0	281.2887227535248	1.0001299381256104
53	253.8459677696228	movie	1		247	51.0	2.5	/experiments/knapen_AOT/AOT_stimuli/rescaled_final/0194_rv.mp4	0.0	282.2888526916504	2.5003931522369385
53	254.23068976402283	pulse	1	t		51.0	2.5	/experiments/knapen_AOT/AOT_stimuli/rescaled_final/0194_rv.mp4	0.0	282.6735746860504	
53	255.82985877990723	pulse	1	t		51.0	2.5	/experiments/knapen_AOT/AOT_stimuli/rescaled_final/0194_rv.mp4	0.0	284.2727437019348	
53	256.34636092185974	fix_post	2		12	51.0	2.5	/experiments/knapen_AOT/AOT_stimuli/rescaled_final/0194_rv.mp4	0.0	284.78924584388733	0.10000801086425781
54	256.446368932724	fix_pre	0		119	52.0	2.5	/experiments/knapen_AOT/AOT_stimuli/rescaled_final/2029_rv.mp4	0.0	284.8892538547516	0.9918620586395264
54	257.4300539493561	pulse	0	t		52.0	2.5	/experiments/knapen_AOT/AOT_stimuli/rescaled_final/2029_rv.mp4	0.0	285.87293887138367	
54	257.4382309913635	movie	1		246	52.0	2.5	/experiments/knapen_AOT/AOT_stimuli/rescaled_final/2029_rv.mp4	0.0	285.8811159133911	2.508641004562378
54	259.0309829711914	pulse	1	t		52.0	2.5	/experiments/knapen_AOT/AOT_stimuli/rescaled_final/2029_rv.mp4	0.0	287.473867893219	
54	259.9468719959259	fix_post	2		12	52.0	2.5	/experiments/knapen_AOT/AOT_stimuli/rescaled_final/2029_rv.mp4	0.0	288.3897569179535	0.10006093978881836
55	260.0469329357147	fix_pre	0		120	53.0	2.5	/experiments/knapen_AOT/AOT_stimuli/rescaled_final/0447_rv.mp4	0.0	288.4898178577423	1.0001330375671387
55	260.63059282302856	pulse	0	t		53.0	2.5	/experiments/knapen_AOT/AOT_stimuli/rescaled_final/0447_rv.mp4	0.0	289.07347774505615	
55	261.04706597328186	movie	1		245	53.0	2.5	/experiments/knapen_AOT/AOT_stimuli/rescaled_final/0447_rv.mp4	0.0	289.48995089530945	2.50032901763916
55	262.2310199737549	pulse	1	t		53.0	2.5	/experiments/knapen_AOT/AOT_stimuli/rescaled_final/0447_rv.mp4	0.0	290.67390489578247	
55	263.547394990921	fix_post	2		12	53.0	2.5	/experiments/knapen_AOT/AOT_stimuli/rescaled_final/0447_rv.mp4	0.0	291.9902799129486	0.10004377365112305
56	263.64743876457214	fix_pre	0		120	54.0	2.5	/experiments/knapen_AOT/AOT_stimuli/rescaled_final/0897_rv.mp4	0.0	292.09032368659973	1.000237226486206
56	263.83102679252625	pulse	0	t		54.0	2.5	/experiments/knapen_AOT/AOT_stimuli/rescaled_final/0897_rv.mp4	0.0	292.27391171455383	
56	264.64767599105835	movie	1		244	54.0	2.5	/experiments/knapen_AOT/AOT_stimuli/rescaled_final/0897_rv.mp4	0.0	293.09056091308594	2.5002658367156982
56	265.43121695518494	pulse	1	t		54.0	2.5	/experiments/knapen_AOT/AOT_stimuli/rescaled_final/0897_rv.mp4	0.0	293.8741018772125	
56	267.03471994400024	pulse	1	t		54.0	2.5	/experiments/knapen_AOT/AOT_stimuli/rescaled_final/0897_rv.mp4	0.0	295.47760486602783	
56	267.14794182777405	fix_post	2		12	54.0	2.5	/experiments/knapen_AOT/AOT_stimuli/rescaled_final/0897_rv.mp4	0.0	295.59082674980164	0.10005307197570801
57	267.24799489974976	fix_pre	0		119	55.0	2.5	/experiments/knapen_AOT/AOT_stimuli/rescaled_final/0520_fw.mp4	0.0	295.69087982177734	0.9918229579925537
57	268.2398178577423	movie	1		244	55.0	2.5	/experiments/knapen_AOT/AOT_stimuli/rescaled_final/0520_fw.mp4	0.0	296.6827027797699	2.5003280639648438
57	268.63192987442017	pulse	1	t		55.0	2.5	/experiments/knapen_AOT/AOT_stimuli/rescaled_final/0520_fw.mp4	0.0	297.07481479644775	
57	270.2321319580078	pulse	1	t		55.0	2.5	/experiments/knapen_AOT/AOT_stimuli/rescaled_final/0520_fw.mp4	0.0	298.6750168800354	
57	270.74014592170715	fix_post	2		12	55.0	2.5	/experiments/knapen_AOT/AOT_stimuli/rescaled_final/0520_fw.mp4	0.0	299.18303084373474	0.10006189346313477
58	270.8402078151703	fix_pre	0		120	56.0	2.5	blank	1.0	299.2830927371979	1.0001270771026611
58	271.83218479156494	pulse	0	t		56.0	2.5	blank	1.0	300.27506971359253	
58	271.84033489227295	movie	1		301	56.0	2.5	blank	1.0	300.28321981430054	2.508730888366699
58	273.4324719905853	pulse	1	t		56.0	2.5	blank	1.0	301.8753569126129	
58	274.34906578063965	fix_post	2		12	56.0	2.5	blank	1.0	302.79195070266724	0.09995603561401367
59	274.44902181625366	fix_pre	0		120	57.0	2.5	/experiments/knapen_AOT/AOT_stimuli/rescaled_final/1671_rv.mp4	0.0	302.89190673828125	1.0001511573791504
59	275.0328209400177	pulse	0	t		57.0	2.5	/experiments/knapen_AOT/AOT_stimuli/rescaled_final/1671_rv.mp4	0.0	303.4757058620453	
59	275.4491729736328	movie	1		243	57.0	2.5	/experiments/knapen_AOT/AOT_stimuli/rescaled_final/1671_rv.mp4	0.0	303.8920578956604	2.5003669261932373
59	276.6330997943878	pulse	1	t		57.0	2.5	/experiments/knapen_AOT/AOT_stimuli/rescaled_final/1671_rv.mp4	0.0	305.0759847164154	
59	277.94953989982605	fix_post	2		12	57.0	2.5	/experiments/knapen_AOT/AOT_stimuli/rescaled_final/1671_rv.mp4	0.0	306.39242482185364	0.1000828742980957
60	278.04962277412415	fix_pre	0		120	58.0	2.5	/experiments/knapen_AOT/AOT_stimuli/rescaled_final/0449_fw.mp4	0.0	306.49250769615173	1.0001330375671387
60	278.2331659793854	pulse	0	t		58.0	2.5	/experiments/knapen_AOT/AOT_stimuli/rescaled_final/0449_fw.mp4	0.0	306.67605090141296	
60	279.0497558116913	movie	1		244	58.0	2.5	/experiments/knapen_AOT/AOT_stimuli/rescaled_final/0449_fw.mp4	0.0	307.4926407337189	2.5003931522369385
60	279.8333959579468	pulse	1	t		58.0	2.5	/experiments/knapen_AOT/AOT_stimuli/rescaled_final/0449_fw.mp4	0.0	308.27628087997437	
60	281.43354296684265	pulse	1	t		58.0	2.5	/experiments/knapen_AOT/AOT_stimuli/rescaled_final/0449_fw.mp4	0.0	309.87642788887024	
60	281.5501489639282	fix_post	2		12	58.0	2.5	/experiments/knapen_AOT/AOT_stimuli/rescaled_final/0449_fw.mp4	0.0	309.9930338859558	0.10001397132873535
61	281.65016293525696	fix_pre	0		120	59.0	2.5	/experiments/knapen_AOT/AOT_stimuli/rescaled_final/0306_rv.mp4	0.0	310.09304785728455	1.000143051147461
61	282.6503059864044	movie	1		246	59.0	2.5	/experiments/knapen_AOT/AOT_stimuli/rescaled_final/0306_rv.mp4	0.0	311.093190908432	2.492008924484253
61	283.03412199020386	pulse	1	t		59.0	2.5	/experiments/knapen_AOT/AOT_stimuli/rescaled_final/0306_rv.mp4	0.0	311.47700691223145	
61	284.6341209411621	pulse	1	t		59.0	2.5	/experiments/knapen_AOT/AOT_stimuli/rescaled_final/0306_rv.mp4	0.0	313.0770058631897	
61	285.1423149108887	fix_post	2		12	59.0	2.5	/experiments/knapen_AOT/AOT_stimuli/rescaled_final/0306_rv.mp4	0.0	313.58519983291626	0.10001802444458008
62	285.24233293533325	fix_pre	0		120	60.0	2.5	/experiments/knapen_AOT/AOT_stimuli/rescaled_final/0697_fw.mp4	0.0	313.68521785736084	1.0001749992370605
62	286.23435378074646	pulse	0	t		60.0	2.5	/experiments/knapen_AOT/AOT_stimuli/rescaled_final/0697_fw.mp4	0.0	314.67723870277405	
62	286.2425079345703	movie	1		245	60.0	2.5	/experiments/knapen_AOT/AOT_stimuli/rescaled_final/0697_fw.mp4	0.0	314.6853928565979	2.508786916732788
62	287.8356719017029	pulse	1	t		60.0	2.5	/experiments/knapen_AOT/AOT_stimuli/rescaled_final/0697_fw.mp4	0.0	316.27855682373047	
62	288.7512948513031	fix_post	2		12	60.0	2.5	/experiments/knapen_AOT/AOT_stimuli/rescaled_final/0697_fw.mp4	0.0	317.1941797733307	0.09984707832336426
63	288.85114192962646	fix_pre	0		120	61.0	2.5	/experiments/knapen_AOT/AOT_stimuli/rescaled_final/0609_fw.mp4	0.0	317.29402685165405	1.000234842300415
63	289.4349148273468	pulse	0	t		61.0	2.5	/experiments/knapen_AOT/AOT_stimuli/rescaled_final/0609_fw.mp4	0.0	317.8777997493744	
63	289.8513767719269	movie	1		242	61.0	2.5	/experiments/knapen_AOT/AOT_stimuli/rescaled_final/0609_fw.mp4	0.0	318.29426169395447	2.5003020763397217
63	291.0279939174652	pulse	1	t		61.0	2.5	/experiments/knapen_AOT/AOT_stimuli/rescaled_final/0609_fw.mp4	0.0	319.4708788394928	
63	292.3516788482666	fix_post	2		12	61.0	2.5	/experiments/knapen_AOT/AOT_stimuli/rescaled_final/0609_fw.mp4	0.0	320.7945637702942	0.10007500648498535
64	292.4517538547516	fix_pre	0		120	62.0	2.5	blank	1.0	320.8946387767792	1.0000970363616943
64	292.6278507709503	pulse	0	t		62.0	2.5	blank	1.0	321.0707356929779	
64	293.4518508911133	movie	1		300	62.0	2.5	blank	1.0	321.89473581314087	2.500420093536377
64	294.22802782058716	pulse	1	t		62.0	2.5	blank	1.0	322.67091274261475	
64	295.8282608985901	pulse	1	t		62.0	2.5	blank	1.0	324.2711458206177	
64	295.95227098464966	fix_post	2		12	62.0	2.5	blank	1.0	324.39515590667725	0.09999299049377441
65	296.05226397514343	fix_pre	0		120	63.0	2.5	/experiments/knapen_AOT/AOT_stimuli/rescaled_final/1680_fw.mp4	0.0	324.495148897171	1.000187873840332
65	297.05245184898376	movie	1		242	63.0	2.5	/experiments/knapen_AOT/AOT_stimuli/rescaled_final/1680_fw.mp4	0.0	325.49533677101135	2.492017984390259
65	297.43681383132935	pulse	1	t		63.0	2.5	/experiments/knapen_AOT/AOT_stimuli/rescaled_final/1680_fw.mp4	0.0	325.87969875335693	
65	299.0279908180237	pulse	1	t		63.0	2.5	/experiments/knapen_AOT/AOT_stimuli/rescaled_final/1680_fw.mp4	0.0	327.47087574005127	
65	299.544469833374	fix_post	2		12	63.0	2.5	/experiments/knapen_AOT/AOT_stimuli/rescaled_final/1680_fw.mp4	0.0	327.9873547554016	0.10002899169921875
66	299.64449882507324	fix_pre	0		119	64.0	2.5	/experiments/knapen_AOT/AOT_stimuli/rescaled_final/0133_rv.mp4	0.0	328.08738374710083	0.9918200969696045
66	300.6280908584595	pulse	0	t		64.0	2.5	/experiments/knapen_AOT/AOT_stimuli/rescaled_final/0133_rv.mp4	0.0	329.07097578048706	
66	300.63631892204285	movie	1		244	64.0	2.5	/experiments/knapen_AOT/AOT_stimuli/rescaled_final/0133_rv.mp4	0.0	329.07920384407043	2.5086538791656494
66	302.22949481010437	pulse	1	t		64.0	2.5	/experiments/knapen_AOT/AOT_stimuli/rescaled_final/0133_rv.mp4	0.0	330.67237973213196	
66	303.1449728012085	fix_post	2		12	64.0	2.5	/experiments/knapen_AOT/AOT_stimuli/rescaled_final/0133_rv.mp4	0.0	331.5878577232361	0.1000370979309082
67	303.2450098991394	fix_pre	0		120	65.0	2.5	/experiments/knapen_AOT/AOT_stimuli/rescaled_final/0332_fw.mp4	0.0	331.687894821167	1.0002269744873047
67	303.8286597728729	pulse	0	t		65.0	2.5	/experiments/knapen_AOT/AOT_stimuli/rescaled_final/0332_fw.mp4	0.0	332.2715446949005	
67	304.2452368736267	movie	1		248	65.0	2.5	/experiments/knapen_AOT/AOT_stimuli/rescaled_final/0332_fw.mp4	0.0	332.6881217956543	2.5002870559692383
67	305.4289469718933	pulse	1	t		65.0	2.5	/experiments/knapen_AOT/AOT_stimuli/rescaled_final/0332_fw.mp4	0.0	333.8718318939209	
67	306.74552392959595	fix_post	2		12	65.0	2.5	/experiments/knapen_AOT/AOT_stimuli/rescaled_final/0332_fw.mp4	0.0	335.18840885162354	0.1000368595123291
68	306.8455607891083	fix_pre	0		120	66.0	2.5	/experiments/knapen_AOT/AOT_stimuli/rescaled_final/0376_rv.mp4	0.0	335.28844571113586	1.0001871585845947
68	307.0291659832001	pulse	0	t		66.0	2.5	/experiments/knapen_AOT/AOT_stimuli/rescaled_final/0376_rv.mp4	0.0	335.47205090522766	
68	307.84574794769287	movie	1		244	66.0	2.5	/experiments/knapen_AOT/AOT_stimuli/rescaled_final/0376_rv.mp4	0.0	336.28863286972046	2.5003268718719482
68	308.6294059753418	pulse	1	t		66.0	2.5	/experiments/knapen_AOT/AOT_stimuli/rescaled_final/0376_rv.mp4	0.0	337.0722908973694	
68	310.229829788208	pulse	1	t		66.0	2.5	/experiments/knapen_AOT/AOT_stimuli/rescaled_final/0376_rv.mp4	0.0	338.6727147102356	
68	310.3460748195648	fix_post	2		12	66.0	2.5	/experiments/knapen_AOT/AOT_stimuli/rescaled_final/0376_rv.mp4	0.0	338.7889597415924	0.10012602806091309
69	310.44620084762573	fix_pre	0		120	67.0	2.5	/experiments/knapen_AOT/AOT_stimuli/rescaled_final/1537_fw.mp4	0.0	338.8890857696533	1.0000269412994385
69	311.44622778892517	movie	1		242	67.0	2.5	/experiments/knapen_AOT/AOT_stimuli/rescaled_final/1537_fw.mp4	0.0	339.88911271095276	2.492042064666748
69	311.8345708847046	pulse	1	t		67.0	2.5	/experiments/knapen_AOT/AOT_stimuli/rescaled_final/1537_fw.mp4	0.0	340.2774558067322	
69	313.43002676963806	pulse	1	t		67.0	2.5	/experiments/knapen_AOT/AOT_stimuli/rescaled_final/1537_fw.mp4	0.0	341.87291169166565	
69	313.9382698535919	fix_post	2		12	67.0	2.5	/experiments/knapen_AOT/AOT_stimuli/rescaled_final/1537_fw.mp4	0.0	342.3811547756195	0.10005712509155273
70	314.0383269786835	fix_pre	0		120	68.0	2.5	/experiments/knapen_AOT/AOT_stimuli/rescaled_final/1937_rv.mp4	0.0	342.48121190071106	1.0001418590545654
70	315.03034377098083	pulse	0	t		68.0	2.5	/experiments/knapen_AOT/AOT_stimuli/rescaled_final/1937_rv.mp4	0.0	343.4732286930084	
70	315.03846883773804	movie	1		245	68.0	2.5	/experiments/knapen_AOT/AOT_stimuli/rescaled_final/1937_rv.mp4	0.0	343.4813537597656	2.5086679458618164
70	316.6310918331146	pulse	1	t		68.0	2.5	/experiments/knapen_AOT/AOT_stimuli/rescaled_final/1937_rv.mp4	0.0	345.0739767551422	
70	317.54713678359985	fix_post	2		12	68.0	2.5	/experiments/knapen_AOT/AOT_stimuli/rescaled_final/1937_rv.mp4	0.0	345.99002170562744	0.09998416900634766
71	317.6471209526062	fix_pre	0		120	69.0	2.5	/experiments/knapen_AOT/AOT_stimuli/rescaled_final/0697_rv.mp4	0.0	346.0900058746338	1.000180959701538
71	318.23083782196045	pulse	0	t		69.0	2.5	/experiments/knapen_AOT/AOT_stimuli/rescaled_final/0697_rv.mp4	0.0	346.67372274398804	
71	318.64730191230774	movie	1		243	69.0	2.5	/experiments/knapen_AOT/AOT_stimuli/rescaled_final/0697_rv.mp4	0.0	347.0901868343353	2.5003819465637207
71	319.831081867218	pulse	1	t		69.0	2.5	/experiments/knapen_AOT/AOT_stimuli/rescaled_final/0697_rv.mp4	0.0	348.2739667892456	
71	321.14768385887146	fix_post	2		12	69.0	2.5	/experiments/knapen_AOT/AOT_stimuli/rescaled_final/0697_rv.mp4	0.0	349.59056878089905	0.10001492500305176
72	321.2476987838745	fix_pre	0		120	70.0	2.5	blank	1.0	349.6905837059021	1.000150203704834
72	321.43132495880127	pulse	0	t		70.0	2.5	blank	1.0	349.87420988082886	
72	322.24784898757935	movie	1		300	70.0	2.5	blank	1.0	350.69073390960693	2.5003888607025146
72	323.03168988227844	pulse	1	t		70.0	2.5	blank	1.0	351.47457480430603	
72	324.6318027973175	pulse	1	t		70.0	2.5	blank	1.0	353.0746877193451	
72	324.74823784828186	fix_post	2		12	70.0	2.5	blank	1.0	353.19112277030945	0.10000014305114746
73	324.848237991333	fix_pre	0		120	71.0	2.5	/experiments/knapen_AOT/AOT_stimuli/rescaled_final/1312_fw.mp4	0.0	353.2911229133606	1.0001249313354492
73	325.84836292266846	movie	1		244	71.0	2.5	/experiments/knapen_AOT/AOT_stimuli/rescaled_final/1312_fw.mp4	0.0	354.29124784469604	2.4920568466186523
73	326.23257184028625	pulse	1	t		71.0	2.5	/experiments/knapen_AOT/AOT_stimuli/rescaled_final/1312_fw.mp4	0.0	354.67545676231384	
73	327.8321759700775	pulse	1	t		71.0	2.5	/experiments/knapen_AOT/AOT_stimuli/rescaled_final/1312_fw.mp4	0.0	356.2750608921051	
73	328.3404197692871	fix_post	2		12	71.0	2.5	/experiments/knapen_AOT/AOT_stimuli/rescaled_final/1312_fw.mp4	0.0	356.7833046913147	0.10001611709594727
74	328.44043588638306	fix_pre	0		120	72.0	2.5	/experiments/knapen_AOT/AOT_stimuli/rescaled_final/0390_fw.mp4	0.0	356.88332080841064	1.0001471042633057
74	329.4325108528137	pulse	0	t		72.0	2.5	/experiments/knapen_AOT/AOT_stimuli/rescaled_final/0390_fw.mp4	0.0	357.8753957748413	
74	329.44058299064636	movie	1		245	72.0	2.5	/experiments/knapen_AOT/AOT_stimuli/rescaled_final/0390_fw.mp4	0.0	357.88346791267395	2.5087080001831055
74	331.0332419872284	pulse	1	t		72.0	2.5	/experiments/knapen_AOT/AOT_stimuli/rescaled_final/0390_fw.mp4	0.0	359.476126909256	
74	331.94929099082947	fix_post	2		12	72.0	2.5	/experiments/knapen_AOT/AOT_stimuli/rescaled_final/0390_fw.mp4	0.0	360.39217591285706	0.10001778602600098
75	332.04930877685547	fix_pre	0		120	73.0	2.5	/experiments/knapen_AOT/AOT_stimuli/rescaled_final/2157_fw.mp4	0.0	360.49219369888306	1.0001552104949951
75	332.63300490379333	pulse	0	t		73.0	2.5	/experiments/knapen_AOT/AOT_stimuli/rescaled_final/2157_fw.mp4	0.0	361.0758898258209	
75	333.04946398735046	movie	1		243	73.0	2.5	/experiments/knapen_AOT/AOT_stimuli/rescaled_final/2157_fw.mp4	0.0	361.49234890937805	2.5003628730773926
75	334.2332389354706	pulse	1	t		73.0	2.5	/experiments/knapen_AOT/AOT_stimuli/rescaled_final/2157_fw.mp4	0.0	362.67612385749817	
75	335.54982686042786	fix_post	2		12	73.0	2.5	/experiments/knapen_AOT/AOT_stimuli/rescaled_final/2157_fw.mp4	0.0	363.99271178245544	0.10002398490905762
76	335.6498508453369	fix_pre	0		120	74.0	2.5	/experiments/knapen_AOT/AOT_stimuli/rescaled_final/0099_fw.mp4	0.0	364.0927357673645	1.0001509189605713
76	335.83350896835327	pulse	0	t		74.0	2.5	/experiments/knapen_AOT/AOT_stimuli/rescaled_final/0099_fw.mp4	0.0	364.27639389038086	
76	336.6500017642975	movie	1		244	74.0	2.5	/experiments/knapen_AOT/AOT_stimuli/rescaled_final/0099_fw.mp4	0.0	365.0928866863251	2.5004220008850098
76	337.4337668418884	pulse	1	t		74.0	2.5	/experiments/knapen_AOT/AOT_stimuli/rescaled_final/0099_fw.mp4	0.0	365.876651763916	
76	339.03382396698	pulse	1	t		74.0	2.5	/experiments/knapen_AOT/AOT_stimuli/rescaled_final/0099_fw.mp4	0.0	367.47670888900757	
76	339.1504237651825	fix_post	2		12	74.0	2.5	/experiments/knapen_AOT/AOT_stimuli/rescaled_final/0099_fw.mp4	0.0	367.5933086872101	0.09995102882385254
77	339.25037479400635	fix_pre	0		120	75.0	2.5	/experiments/knapen_AOT/AOT_stimuli/rescaled_final/1093_rv.mp4	0.0	367.69325971603394	1.0002191066741943
77	340.25059390068054	movie	1		244	75.0	2.5	/experiments/knapen_AOT/AOT_stimuli/rescaled_final/1093_rv.mp4	0.0	368.69347882270813	2.4919779300689697
77	340.6353769302368	pulse	1	t		75.0	2.5	/experiments/knapen_AOT/AOT_stimuli/rescaled_final/1093_rv.mp4	0.0	369.0782618522644	
77	342.23436999320984	pulse	1	t		75.0	2.5	/experiments/knapen_AOT/AOT_stimuli/rescaled_final/1093_rv.mp4	0.0	370.6772549152374	
77	342.7425718307495	fix_post	2		12	75.0	2.5	/experiments/knapen_AOT/AOT_stimuli/rescaled_final/1093_rv.mp4	0.0	371.1854567527771	0.09999704360961914
78	342.84256887435913	fix_pre	0		120	76.0	2.5	blank	1.0	371.2854537963867	1.0001859664916992
78	343.83474683761597	pulse	0	t		76.0	2.5	blank	1.0	372.27763175964355	
78	343.84275484085083	movie	1		301	76.0	2.5	blank	1.0	372.2856397628784	2.508686065673828
78	345.43496894836426	pulse	1	t		76.0	2.5	blank	1.0	373.87785387039185	
78	346.35144090652466	fix_post	2		12	76.0	2.5	blank	1.0	374.79432582855225	0.10000801086425781
79	346.4514489173889	fix_pre	0		120	77.0	2.5	/experiments/knapen_AOT/AOT_stimuli/rescaled_final/0996_fw.mp4	0.0	374.8943338394165	1.0001440048217773
79	347.0350477695465	pulse	0	t		77.0	2.5	/experiments/knapen_AOT/AOT_stimuli/rescaled_final/0996_fw.mp4	0.0	375.4779326915741	
79	347.4515929222107	movie	1		245	77.0	2.5	/experiments/knapen_AOT/AOT_stimuli/rescaled_final/0996_fw.mp4	0.0	375.8944778442383	2.500364065170288
79	348.6353747844696	pulse	1	t		77.0	2.5	/experiments/knapen_AOT/AOT_stimuli/rescaled_final/0996_fw.mp4	0.0	377.0782597064972	
79	349.951956987381	fix_post	2		12	77.0	2.5	/experiments/knapen_AOT/AOT_stimuli/rescaled_final/0996_fw.mp4	0.0	378.39484190940857	0.1000208854675293
80	350.0519778728485	fix_pre	0		120	78.0	2.5	/experiments/knapen_AOT/AOT_stimuli/rescaled_final/2157_rv.mp4	0.0	378.4948627948761	1.000157117843628
80	350.23565888404846	pulse	0	t		78.0	2.5	/experiments/knapen_AOT/AOT_stimuli/rescaled_final/2157_rv.mp4	0.0	378.67854380607605	
80	351.05213499069214	movie	1		243	78.0	2.5	/experiments/knapen_AOT/AOT_stimuli/rescaled_final/2157_rv.mp4	0.0	379.4950199127197	2.500342845916748
80	351.8284718990326	pulse	1	t		78.0	2.5	/experiments/knapen_AOT/AOT_stimuli/rescaled_final/2157_rv.mp4	0.0	380.2713568210602	
80	353.4361848831177	pulse	1	t		78.0	2.5	/experiments/knapen_AOT/AOT_stimuli/rescaled_final/2157_rv.mp4	0.0	381.87906980514526	
80	353.5524778366089	fix_post	2		9	78.0	2.5	/experiments/knapen_AOT/AOT_stimuli/rescaled_final/2157_rv.mp4	0.0	381.9953627586365	0.10004401206970215
81	353.6525218486786	fix_pre	0		120	79.0	2.5	/experiments/knapen_AOT/AOT_stimuli/rescaled_final/0797_rv.mp4	0.0	382.0954067707062	1.0001370906829834
81	354.6526589393616	movie	1		244	79.0	2.5	/experiments/knapen_AOT/AOT_stimuli/rescaled_final/0797_rv.mp4	0.0	383.09554386138916	2.492020845413208
81	355.03675985336304	pulse	1	t		79.0	2.5	/experiments/knapen_AOT/AOT_stimuli/rescaled_final/0797_rv.mp4	0.0	383.4796447753906	
81	356.6291718482971	pulse	1	t		79.0	2.5	/experiments/knapen_AOT/AOT_stimuli/rescaled_final/0797_rv.mp4	0.0	385.0720567703247	
81	357.1446797847748	fix_post	2		12	79.0	2.5	/experiments/knapen_AOT/AOT_stimuli/rescaled_final/0797_rv.mp4	0.0	385.58756470680237	0.10010910034179688
82	357.2447888851166	fix_pre	0		119	80.0	2.5	/experiments/knapen_AOT/AOT_stimuli/rescaled_final/0016_rv.mp4	0.0	385.68767380714417	0.9917480945587158
82	358.228551864624	pulse	0	t		80.0	2.5	/experiments/knapen_AOT/AOT_stimuli/rescaled_final/0016_rv.mp4	0.0	386.6714367866516	
82	358.2365369796753	movie	1		245	80.0	2.5	/experiments/knapen_AOT/AOT_stimuli/rescaled_final/0016_rv.mp4	0.0	386.6794219017029	2.508807897567749
82	359.82908177375793	pulse	1	t		80.0	2.5	/experiments/knapen_AOT/AOT_stimuli/rescaled_final/0016_rv.mp4	0.0	388.2719666957855	
82	360.74534487724304	fix_post	2		12	80.0	2.5	/experiments/knapen_AOT/AOT_stimuli/rescaled_final/0016_rv.mp4	0.0	389.18822979927063	0.09991097450256348
83	360.8452558517456	fix_pre	0		120	81.0	2.5	/experiments/knapen_AOT/AOT_stimuli/rescaled_final/0078_fw.mp4	0.0	389.2881407737732	1.0001521110534668
83	361.4290199279785	pulse	0	t		81.0	2.5	/experiments/knapen_AOT/AOT_stimuli/rescaled_final/0078_fw.mp4	0.0	389.8719048500061	
83	361.8454079627991	movie	1		245	81.0	2.5	/experiments/knapen_AOT/AOT_stimuli/rescaled_final/0078_fw.mp4	0.0	390.28829288482666	2.5003769397735596
83	363.02914476394653	pulse	1	t		81.0	2.5	/experiments/knapen_AOT/AOT_stimuli/rescaled_final/0078_fw.mp4	0.0	391.4720296859741	
83	364.34578490257263	fix_post	2		12	81.0	2.5	/experiments/knapen_AOT/AOT_stimuli/rescaled_final/0078_fw.mp4	0.0	392.7886698246002	0.10002803802490234
84	364.44581294059753	fix_pre	0		120	82.0	2.5	/experiments/knapen_AOT/AOT_stimuli/rescaled_final/1386_rv.mp4	0.0	392.8886978626251	1.000133991241455
84	364.62935090065	pulse	0	t		82.0	2.5	/experiments/knapen_AOT/AOT_stimuli/rescaled_final/1386_rv.mp4	0.0	393.0722358226776	
84	365.445946931839	movie	1		245	82.0	2.5	/experiments/knapen_AOT/AOT_stimuli/rescaled_final/1386_rv.mp4	0.0	393.8888318538666	2.5003550052642822
84	366.229603767395	pulse	1	t		82.0	2.5	/experiments/knapen_AOT/AOT_stimuli/rescaled_final/1386_rv.mp4	0.0	394.6724886894226	
84	367.8296058177948	pulse	1	t		82.0	2.5	/experiments/knapen_AOT/AOT_stimuli/rescaled_final/1386_rv.mp4	0.0	396.2724907398224	
84	367.94630193710327	fix_post	2		12	82.0	2.5	/experiments/knapen_AOT/AOT_stimuli/rescaled_final/1386_rv.mp4	0.0	396.38918685913086	0.10006284713745117
85	368.0463647842407	fix_pre	0		120	83.0	2.5	blank	1.0	396.4892497062683	1.0001771450042725
85	369.046541929245	movie	1		299	83.0	2.5	blank	1.0	397.4894268512726	2.4919750690460205
85	369.4300398826599	pulse	1	t		83.0	2.5	blank	1.0	397.8729248046875	
85	371.0303177833557	pulse	1	t		83.0	2.5	blank	1.0	399.4732027053833	
85	371.538516998291	fix_post	2		12	83.0	2.5	blank	1.0	399.9814019203186	0.10004091262817383
87	371.6385579109192	stim	0		1716					400.0814428329468	14.302270889282227
87	372.6305389404297	pulse	0	t						401.0734238624573	
87	374.23083877563477	pulse	0	t						402.67372369766235	
87	375.8309919834137	pulse	0	t						404.2738769054413	
87	377.43125581741333	pulse	0	t						405.8741407394409	
87	379.0314419269562	pulse	0	t						407.47432684898376	
87	380.6316797733307	pulse	0	t						409.0745646953583	
87	382.231969833374	pulse	0	t						410.6748547554016	
87	383.83215379714966	pulse	0	t						412.27503871917725	
87	385.4325428009033	pulse	0	t						413.8754277229309	
