trial_nr	onset	event_type	phase	response	nr_frames	movie_index	movie_duration	movie_file	blank	onset_abs	duration
0	0.14947795867919922	stim	0		18					22.088063955307007	0.1499948501586914
0	0.2914578914642334	response	0	space						22.23004388809204	
1	0.2994728088378906	stim	0		4924					22.2380588054657	41.03346610069275
1	41.32748579978943	pulse	0	t						63.266071796417236	
1	41.33293890953064	stim	1		1717					63.27152490615845	14.308396100997925
1	42.924906969070435	pulse	1	t						64.86349296569824	
1	44.524860858917236	pulse	1	t						66.46344685554504	
1	46.124755859375	pulse	1	t						68.06334185600281	
1	47.72481679916382	pulse	1	t						69.66340279579163	
1	49.32473397254944	pulse	1	t						71.26331996917725	
1	50.924776792526245	pulse	1	t						72.86336278915405	
1	52.5246798992157	pulse	1	t						74.4632658958435	
1	54.124691009521484	pulse	1	t						76.06327700614929	
2	55.641335010528564	fix_pre	0		11	0.0	2.5	/experiments/AOT/AOT_stimuli/rescaled_final/1172_rv.mp4	0.0	77.57992100715637	0.09164786338806152
2	55.7247838973999	pulse	0	t		0.0	2.5	/experiments/AOT/AOT_stimuli/rescaled_final/1172_rv.mp4	0.0	77.66336989402771	
2	55.732982873916626	movie	1		244	0.0	2.5	/experiments/AOT/AOT_stimuli/rescaled_final/1172_rv.mp4	0.0	77.67156887054443	2.508513927459717
2	57.32431387901306	pulse	1	t		0.0	2.5	/experiments/AOT/AOT_stimuli/rescaled_final/1172_rv.mp4	0.0	79.26289987564087	
2	58.24149680137634	fix_post	2		12	0.0	2.5	/experiments/AOT/AOT_stimuli/rescaled_final/1172_rv.mp4	0.0	80.18008279800415	0.10007500648498535
3	58.34157180786133	fix_pre	0		120	1.0	2.5	/experiments/AOT/AOT_stimuli/rescaled_final/0871_fw.mp4	0.0	80.28015780448914	0.9996151924133301
3	58.9246928691864	pulse	0	t		1.0	2.5	/experiments/AOT/AOT_stimuli/rescaled_final/0871_fw.mp4	0.0	80.86327886581421	
3	59.34118700027466	movie	1		244	1.0	2.5	/experiments/AOT/AOT_stimuli/rescaled_final/0871_fw.mp4	0.0	81.27977299690247	2.4996049404144287
3	60.5248498916626	pulse	1	t		1.0	2.5	/experiments/AOT/AOT_stimuli/rescaled_final/0871_fw.mp4	0.0	82.4634358882904	
3	61.84079194068909	fix_post	2		12	1.0	2.5	/experiments/AOT/AOT_stimuli/rescaled_final/0871_fw.mp4	0.0	83.7793779373169	0.10038089752197266
4	61.94117283821106	fix_pre	0		120	2.0	2.5	/experiments/AOT/AOT_stimuli/rescaled_final/1170_rv.mp4	0.0	83.87975883483887	1.0000300407409668
4	62.12467002868652	pulse	0	t		2.0	2.5	/experiments/AOT/AOT_stimuli/rescaled_final/1170_rv.mp4	0.0	84.06325602531433	
4	62.941202878952026	movie	1		244	2.0	2.5	/experiments/AOT/AOT_stimuli/rescaled_final/1170_rv.mp4	0.0	84.87978887557983	2.4996299743652344
4	63.72474479675293	pulse	1	t		2.0	2.5	/experiments/AOT/AOT_stimuli/rescaled_final/1170_rv.mp4	0.0	85.66333079338074	
4	65.3235239982605	pulse	1	t		2.0	2.5	/experiments/AOT/AOT_stimuli/rescaled_final/1170_rv.mp4	0.0	87.2621099948883	
4	65.44083285331726	fix_post	2		12	2.0	2.5	/experiments/AOT/AOT_stimuli/rescaled_final/1170_rv.mp4	0.0	87.37941884994507	0.10032916069030762
5	65.54116201400757	fix_pre	0		120	3.0	2.5	/experiments/AOT/AOT_stimuli/rescaled_final/0886_rv.mp4	0.0	87.47974801063538	1.0000388622283936
5	66.54120087623596	movie	1		244	3.0	2.5	/experiments/AOT/AOT_stimuli/rescaled_final/0886_rv.mp4	0.0	88.47978687286377	2.4999730587005615
5	66.9243049621582	pulse	1	t		3.0	2.5	/experiments/AOT/AOT_stimuli/rescaled_final/0886_rv.mp4	0.0	88.86289095878601	
5	68.5246160030365	pulse	1	t		3.0	2.5	/experiments/AOT/AOT_stimuli/rescaled_final/0886_rv.mp4	0.0	90.4632019996643	
5	69.04117393493652	fix_post	2		12	3.0	2.5	/experiments/AOT/AOT_stimuli/rescaled_final/0886_rv.mp4	0.0	90.97975993156433	0.09999299049377441
6	69.1411669254303	fix_pre	0		119	4.0	2.5	/experiments/AOT/AOT_stimuli/rescaled_final/1929_rv.mp4	0.0	91.0797529220581	0.9916589260101318
6	70.12462997436523	pulse	0	t		4.0	2.5	/experiments/AOT/AOT_stimuli/rescaled_final/1929_rv.mp4	0.0	92.06321597099304	
6	70.13282585144043	movie	1		246	4.0	2.5	/experiments/AOT/AOT_stimuli/rescaled_final/1929_rv.mp4	0.0	92.07141184806824	2.5082969665527344
6	71.72506880760193	pulse	1	t		4.0	2.5	/experiments/AOT/AOT_stimuli/rescaled_final/1929_rv.mp4	0.0	93.66365480422974	
6	72.64112281799316	fix_post	2		12	4.0	2.5	/experiments/AOT/AOT_stimuli/rescaled_final/1929_rv.mp4	0.0	94.57970881462097	0.10003399848937988
7	72.74115681648254	fix_pre	0		120	5.0	2.5	/experiments/AOT/AOT_stimuli/rescaled_final/2013_fw.mp4	0.0	94.67974281311035	1.0000131130218506
7	73.32467889785767	pulse	0	t		5.0	2.5	/experiments/AOT/AOT_stimuli/rescaled_final/2013_fw.mp4	0.0	95.26326489448547	
7	73.7411699295044	movie	1		244	5.0	2.5	/experiments/AOT/AOT_stimuli/rescaled_final/2013_fw.mp4	0.0	95.6797559261322	2.499574899673462
7	74.92472100257874	pulse	1	t		5.0	2.5	/experiments/AOT/AOT_stimuli/rescaled_final/2013_fw.mp4	0.0	96.86330699920654	
7	76.24074482917786	fix_post	2		12	5.0	2.5	/experiments/AOT/AOT_stimuli/rescaled_final/2013_fw.mp4	0.0	98.17933082580566	0.10038113594055176
8	76.34112596511841	fix_pre	0		120	6.0	2.5	blank	1.0	98.27971196174622	1.0
8	76.52464485168457	pulse	0	t		6.0	2.5	blank	1.0	98.46323084831238	
8	77.34112596511841	movie	1		300	6.0	2.5	blank	1.0	99.27971196174622	2.499948024749756
8	78.12465596199036	pulse	1	t		6.0	2.5	blank	1.0	100.06324195861816	
8	79.72458100318909	pulse	1	t		6.0	2.5	blank	1.0	101.6631669998169	
8	79.84107398986816	fix_post	2		12	6.0	2.5	blank	1.0	101.77965998649597	0.10010790824890137
9	79.94118189811707	fix_pre	0		120	7.0	2.5	/experiments/AOT/AOT_stimuli/rescaled_final/1688_fw.mp4	0.0	101.87976789474487	0.9998860359191895
9	80.94106793403625	movie	1		245	7.0	2.5	/experiments/AOT/AOT_stimuli/rescaled_final/1688_fw.mp4	0.0	102.87965393066406	2.499582052230835
9	81.32443284988403	pulse	1	t		7.0	2.5	/experiments/AOT/AOT_stimuli/rescaled_final/1688_fw.mp4	0.0	103.26301884651184	
9	82.92460489273071	pulse	1	t		7.0	2.5	/experiments/AOT/AOT_stimuli/rescaled_final/1688_fw.mp4	0.0	104.86319088935852	
9	83.44064998626709	fix_post	2		12	7.0	2.5	/experiments/AOT/AOT_stimuli/rescaled_final/1688_fw.mp4	0.0	105.3792359828949	0.1004018783569336
10	83.54105186462402	fix_pre	0		119	8.0	2.5	/experiments/AOT/AOT_stimuli/rescaled_final/0389_rv.mp4	0.0	105.47963786125183	0.9916591644287109
10	84.52461099624634	pulse	0	t		8.0	2.5	/experiments/AOT/AOT_stimuli/rescaled_final/0389_rv.mp4	0.0	106.46319699287415	
10	84.53271102905273	movie	1		248	8.0	2.5	/experiments/AOT/AOT_stimuli/rescaled_final/0389_rv.mp4	0.0	106.47129702568054	2.5083158016204834
10	86.12563586235046	pulse	1	t		8.0	2.5	/experiments/AOT/AOT_stimuli/rescaled_final/0389_rv.mp4	0.0	108.06422185897827	
10	87.04102683067322	fix_post	2		12	8.0	2.5	/experiments/AOT/AOT_stimuli/rescaled_final/0389_rv.mp4	0.0	108.97961282730103	0.10007715225219727
11	87.14110398292542	fix_pre	0		120	9.0	2.5	/experiments/AOT/AOT_stimuli/rescaled_final/2135_fw.mp4	0.0	109.07968997955322	0.9999899864196777
11	87.72455382347107	pulse	0	t		9.0	2.5	/experiments/AOT/AOT_stimuli/rescaled_final/2135_fw.mp4	0.0	109.66313982009888	
11	88.14109396934509	movie	1		246	9.0	2.5	/experiments/AOT/AOT_stimuli/rescaled_final/2135_fw.mp4	0.0	110.0796799659729	2.4999189376831055
11	89.32463598251343	pulse	1	t		9.0	2.5	/experiments/AOT/AOT_stimuli/rescaled_final/2135_fw.mp4	0.0	111.26322197914124	
11	90.6410129070282	fix_post	2		12	9.0	2.5	/experiments/AOT/AOT_stimuli/rescaled_final/2135_fw.mp4	0.0	112.579598903656	0.10001492500305176
12	90.74102783203125	fix_pre	0		120	10.0	2.5	/experiments/AOT/AOT_stimuli/rescaled_final/1449_fw.mp4	0.0	112.67961382865906	0.9999821186065674
12	90.92467284202576	pulse	0	t		10.0	2.5	/experiments/AOT/AOT_stimuli/rescaled_final/1449_fw.mp4	0.0	112.86325883865356	
12	91.74100995063782	movie	1		246	10.0	2.5	/experiments/AOT/AOT_stimuli/rescaled_final/1449_fw.mp4	0.0	113.67959594726562	2.5000579357147217
12	92.52449202537537	pulse	1	t		10.0	2.5	/experiments/AOT/AOT_stimuli/rescaled_final/1449_fw.mp4	0.0	114.46307802200317	
12	94.12457394599915	pulse	1	t		10.0	2.5	/experiments/AOT/AOT_stimuli/rescaled_final/1449_fw.mp4	0.0	116.06315994262695	
12	94.24106788635254	fix_post	2		12	10.0	2.5	/experiments/AOT/AOT_stimuli/rescaled_final/1449_fw.mp4	0.0	116.17965388298035	0.09994697570800781
13	94.34101486206055	fix_pre	0		120	11.0	2.5	/experiments/AOT/AOT_stimuli/rescaled_final/1449_rv.mp4	0.0	116.27960085868835	0.9996559619903564
13	95.3406708240509	movie	1		245	11.0	2.5	/experiments/AOT/AOT_stimuli/rescaled_final/1449_rv.mp4	0.0	117.27925682067871	2.500020980834961
13	95.72426891326904	pulse	1	t		11.0	2.5	/experiments/AOT/AOT_stimuli/rescaled_final/1449_rv.mp4	0.0	117.66285490989685	
13	97.32457494735718	pulse	1	t		11.0	2.5	/experiments/AOT/AOT_stimuli/rescaled_final/1449_rv.mp4	0.0	119.26316094398499	
13	97.84069180488586	fix_post	2		12	11.0	2.5	/experiments/AOT/AOT_stimuli/rescaled_final/1449_rv.mp4	0.0	119.77927780151367	0.10026311874389648
14	97.94095492362976	fix_pre	0		119	12.0	2.5	/experiments/AOT/AOT_stimuli/rescaled_final/1432_rv.mp4	0.0	119.87954092025757	0.9916889667510986
14	98.92451882362366	pulse	0	t		12.0	2.5	/experiments/AOT/AOT_stimuli/rescaled_final/1432_rv.mp4	0.0	120.86310482025146	
14	98.93264389038086	movie	1		246	12.0	2.5	/experiments/AOT/AOT_stimuli/rescaled_final/1432_rv.mp4	0.0	120.87122988700867	2.5083141326904297
14	100.52428984642029	pulse	1	t		12.0	2.5	/experiments/AOT/AOT_stimuli/rescaled_final/1432_rv.mp4	0.0	122.4628758430481	
14	101.44095802307129	fix_post	2		12	12.0	2.5	/experiments/AOT/AOT_stimuli/rescaled_final/1432_rv.mp4	0.0	123.3795440196991	0.10006189346313477
15	101.54101991653442	fix_pre	0		120	13.0	2.5	/experiments/AOT/AOT_stimuli/rescaled_final/1595_fw.mp4	0.0	123.47960591316223	0.9999330043792725
15	102.12453198432922	pulse	0	t		13.0	2.5	/experiments/AOT/AOT_stimuli/rescaled_final/1595_fw.mp4	0.0	124.06311798095703	
15	102.5409529209137	movie	1		244	13.0	2.5	/experiments/AOT/AOT_stimuli/rescaled_final/1595_fw.mp4	0.0	124.4795389175415	2.5000228881835938
15	103.72455787658691	pulse	1	t		13.0	2.5	/experiments/AOT/AOT_stimuli/rescaled_final/1595_fw.mp4	0.0	125.66314387321472	
15	105.04097580909729	fix_post	2		12	13.0	2.5	/experiments/AOT/AOT_stimuli/rescaled_final/1595_fw.mp4	0.0	126.9795618057251	0.09992313385009766
16	105.14089894294739	fix_pre	0		120	14.0	2.5	blank	1.0	127.0794849395752	1.0000219345092773
16	105.3245759010315	pulse	0	t		14.0	2.5	blank	1.0	127.2631618976593	
16	106.14092087745667	movie	1		300	14.0	2.5	blank	1.0	128.07950687408447	2.4996299743652344
16	106.92441582679749	pulse	1	t		14.0	2.5	blank	1.0	128.8630018234253	
16	108.52452993392944	pulse	1	t		14.0	2.5	blank	1.0	130.46311593055725	
16	108.6405508518219	fix_post	2		12	14.0	2.5	blank	1.0	130.5791368484497	0.10039114952087402
17	108.74094200134277	fix_pre	0		120	15.0	2.5	/experiments/AOT/AOT_stimuli/rescaled_final/1012_fw.mp4	0.0	130.67952799797058	1.0000059604644775
17	109.74094796180725	movie	1		244	15.0	2.5	/experiments/AOT/AOT_stimuli/rescaled_final/1012_fw.mp4	0.0	131.67953395843506	2.500030040740967
17	110.12391686439514	pulse	1	t		15.0	2.5	/experiments/AOT/AOT_stimuli/rescaled_final/1012_fw.mp4	0.0	132.06250286102295	
17	111.72434496879578	pulse	1	t		15.0	2.5	/experiments/AOT/AOT_stimuli/rescaled_final/1012_fw.mp4	0.0	133.66293096542358	
17	112.24097800254822	fix_post	2		12	15.0	2.5	/experiments/AOT/AOT_stimuli/rescaled_final/1012_fw.mp4	0.0	134.17956399917603	0.09959697723388672
18	112.3405749797821	fix_pre	0		119	16.0	2.5	/experiments/AOT/AOT_stimuli/rescaled_final/0173_rv.mp4	0.0	134.2791609764099	0.9917018413543701
18	113.32419300079346	pulse	0	t		16.0	2.5	/experiments/AOT/AOT_stimuli/rescaled_final/0173_rv.mp4	0.0	135.26277899742126	
18	113.33227682113647	movie	1		246	16.0	2.5	/experiments/AOT/AOT_stimuli/rescaled_final/0173_rv.mp4	0.0	135.27086281776428	2.50874400138855
18	114.92430996894836	pulse	1	t		16.0	2.5	/experiments/AOT/AOT_stimuli/rescaled_final/0173_rv.mp4	0.0	136.86289596557617	
18	115.84102082252502	fix_post	2		12	16.0	2.5	/experiments/AOT/AOT_stimuli/rescaled_final/0173_rv.mp4	0.0	137.77960681915283	0.09990906715393066
19	115.94092988967896	fix_pre	0		120	17.0	2.5	/experiments/AOT/AOT_stimuli/rescaled_final/1009_rv.mp4	0.0	137.87951588630676	1.000082015991211
19	116.52450180053711	pulse	0	t		17.0	2.5	/experiments/AOT/AOT_stimuli/rescaled_final/1009_rv.mp4	0.0	138.46308779716492	
19	116.94101190567017	movie	1		246	17.0	2.5	/experiments/AOT/AOT_stimuli/rescaled_final/1009_rv.mp4	0.0	138.87959790229797	2.4999899864196777
19	118.12441492080688	pulse	1	t		17.0	2.5	/experiments/AOT/AOT_stimuli/rescaled_final/1009_rv.mp4	0.0	140.0630009174347	
19	119.44100189208984	fix_post	2		12	17.0	2.5	/experiments/AOT/AOT_stimuli/rescaled_final/1009_rv.mp4	0.0	141.37958788871765	0.09985113143920898
20	119.54085302352905	fix_pre	0		120	18.0	2.5	/experiments/AOT/AOT_stimuli/rescaled_final/0586_fw.mp4	0.0	141.47943902015686	1.000072956085205
20	119.72429180145264	pulse	0	t		18.0	2.5	/experiments/AOT/AOT_stimuli/rescaled_final/0586_fw.mp4	0.0	141.66287779808044	
20	120.54092597961426	movie	1		243	18.0	2.5	/experiments/AOT/AOT_stimuli/rescaled_final/0586_fw.mp4	0.0	142.47951197624207	2.499959945678711
20	121.32437896728516	pulse	1	t		18.0	2.5	/experiments/AOT/AOT_stimuli/rescaled_final/0586_fw.mp4	0.0	143.26296496391296	
20	122.92279887199402	pulse	1	t		18.0	2.5	/experiments/AOT/AOT_stimuli/rescaled_final/0586_fw.mp4	0.0	144.86138486862183	
20	123.04088592529297	fix_post	2		12	18.0	2.5	/experiments/AOT/AOT_stimuli/rescaled_final/0586_fw.mp4	0.0	144.97947192192078	0.10000395774841309
21	123.14088988304138	fix_pre	0		120	19.0	2.5	/experiments/AOT/AOT_stimuli/rescaled_final/1980_rv.mp4	0.0	145.0794758796692	0.9999730587005615
21	124.14086294174194	movie	1		243	19.0	2.5	/experiments/AOT/AOT_stimuli/rescaled_final/1980_rv.mp4	0.0	146.07944893836975	2.50014591217041
21	124.52389693260193	pulse	1	t		19.0	2.5	/experiments/AOT/AOT_stimuli/rescaled_final/1980_rv.mp4	0.0	146.46248292922974	
21	126.12433886528015	pulse	1	t		19.0	2.5	/experiments/AOT/AOT_stimuli/rescaled_final/1980_rv.mp4	0.0	148.06292486190796	
21	126.64100885391235	fix_post	2		12	19.0	2.5	/experiments/AOT/AOT_stimuli/rescaled_final/1980_rv.mp4	0.0	148.57959485054016	0.099822998046875
22	126.74083185195923	fix_pre	0		119	20.0	2.5	/experiments/AOT/AOT_stimuli/rescaled_final/1139_fw.mp4	0.0	148.67941784858704	0.9917049407958984
22	127.72428393363953	pulse	0	t		20.0	2.5	/experiments/AOT/AOT_stimuli/rescaled_final/1139_fw.mp4	0.0	149.66286993026733	
22	127.73253679275513	movie	1		247	20.0	2.5	/experiments/AOT/AOT_stimuli/rescaled_final/1139_fw.mp4	0.0	149.67112278938293	2.5082762241363525
22	129.32366180419922	pulse	1	t		20.0	2.5	/experiments/AOT/AOT_stimuli/rescaled_final/1139_fw.mp4	0.0	151.26224780082703	
22	130.24081301689148	fix_post	2		12	20.0	2.5	/experiments/AOT/AOT_stimuli/rescaled_final/1139_fw.mp4	0.0	152.1793990135193	0.10007596015930176
23	130.34088897705078	fix_pre	0		120	21.0	2.5	blank	1.0	152.2794749736786	0.9999258518218994
23	130.9243288040161	pulse	0	t		21.0	2.5	blank	1.0	152.86291480064392	
23	131.34081482887268	movie	1		300	21.0	2.5	blank	1.0	153.2794008255005	2.499981164932251
23	132.52429294586182	pulse	1	t		21.0	2.5	blank	1.0	154.46287894248962	
23	133.84079599380493	fix_post	2		12	21.0	2.5	blank	1.0	155.77938199043274	0.10007095336914062
24	133.94086694717407	fix_pre	0		120	22.0	2.5	/experiments/AOT/AOT_stimuli/rescaled_final/1352_rv.mp4	0.0	155.87945294380188	1.0000309944152832
24	134.12426495552063	pulse	0	t		22.0	2.5	/experiments/AOT/AOT_stimuli/rescaled_final/1352_rv.mp4	0.0	156.06285095214844	
24	134.94089794158936	movie	1		243	22.0	2.5	/experiments/AOT/AOT_stimuli/rescaled_final/1352_rv.mp4	0.0	156.87948393821716	2.4999020099639893
24	135.72427201271057	pulse	1	t		22.0	2.5	/experiments/AOT/AOT_stimuli/rescaled_final/1352_rv.mp4	0.0	157.66285800933838	
24	137.3224048614502	pulse	1	t		22.0	2.5	/experiments/AOT/AOT_stimuli/rescaled_final/1352_rv.mp4	0.0	159.260990858078	
24	137.44079995155334	fix_post	2		12	22.0	2.5	/experiments/AOT/AOT_stimuli/rescaled_final/1352_rv.mp4	0.0	159.37938594818115	0.10012006759643555
25	137.54092001914978	fix_pre	0		120	23.0	2.5	/experiments/AOT/AOT_stimuli/rescaled_final/0687_fw.mp4	0.0	159.4795060157776	0.9999618530273438
25	138.54088187217712	movie	1		245	23.0	2.5	/experiments/AOT/AOT_stimuli/rescaled_final/0687_fw.mp4	0.0	160.47946786880493	2.4999570846557617
25	138.92379593849182	pulse	1	t		23.0	2.5	/experiments/AOT/AOT_stimuli/rescaled_final/0687_fw.mp4	0.0	160.86238193511963	
25	140.5242519378662	pulse	1	t		23.0	2.5	/experiments/AOT/AOT_stimuli/rescaled_final/0687_fw.mp4	0.0	162.46283793449402	
25	141.04083895683289	fix_post	2		12	23.0	2.5	/experiments/AOT/AOT_stimuli/rescaled_final/0687_fw.mp4	0.0	162.9794249534607	0.09966492652893066
26	141.14050388336182	fix_pre	0		119	24.0	2.5	/experiments/AOT/AOT_stimuli/rescaled_final/1209_rv.mp4	0.0	163.07908987998962	0.9919171333312988
26	142.12428879737854	pulse	0	t		24.0	2.5	/experiments/AOT/AOT_stimuli/rescaled_final/1209_rv.mp4	0.0	164.06287479400635	
26	142.13242101669312	movie	1		245	24.0	2.5	/experiments/AOT/AOT_stimuli/rescaled_final/1209_rv.mp4	0.0	164.07100701332092	2.5079548358917236
26	143.7237889766693	pulse	1	t		24.0	2.5	/experiments/AOT/AOT_stimuli/rescaled_final/1209_rv.mp4	0.0	165.66237497329712	
26	144.64037585258484	fix_post	2		12	24.0	2.5	/experiments/AOT/AOT_stimuli/rescaled_final/1209_rv.mp4	0.0	166.57896184921265	0.10035395622253418
27	144.74072980880737	fix_pre	0		120	25.0	2.5	/experiments/AOT/AOT_stimuli/rescaled_final/0069_fw.mp4	0.0	166.67931580543518	1.000101089477539
27	145.32420182228088	pulse	0	t		25.0	2.5	/experiments/AOT/AOT_stimuli/rescaled_final/0069_fw.mp4	0.0	167.2627878189087	
27	145.7408308982849	movie	1		245	25.0	2.5	/experiments/AOT/AOT_stimuli/rescaled_final/0069_fw.mp4	0.0	167.67941689491272	2.4999310970306396
27	146.9243140220642	pulse	1	t		25.0	2.5	/experiments/AOT/AOT_stimuli/rescaled_final/0069_fw.mp4	0.0	168.86290001869202	
27	148.24076199531555	fix_post	2		12	25.0	2.5	/experiments/AOT/AOT_stimuli/rescaled_final/0069_fw.mp4	0.0	170.17934799194336	0.09997296333312988
28	148.34073495864868	fix_pre	0		120	26.0	2.5	blank	1.0	170.2793209552765	1.0000369548797607
28	148.5242738723755	pulse	0	t		26.0	2.5	blank	1.0	170.4628598690033	
28	149.34077191352844	movie	1		300	26.0	2.5	blank	1.0	171.27935791015625	2.4999608993530273
28	150.12428879737854	pulse	1	t		26.0	2.5	blank	1.0	172.06287479400635	
28	151.7242419719696	pulse	1	t		26.0	2.5	blank	1.0	173.6628279685974	
28	151.84073281288147	fix_post	2		12	26.0	2.5	blank	1.0	173.77931880950928	0.0999300479888916
29	151.94066286087036	fix_pre	0		120	27.0	2.5	/experiments/AOT/AOT_stimuli/rescaled_final/1743_fw.mp4	0.0	173.87924885749817	1.0000550746917725
29	152.94071793556213	movie	1		245	27.0	2.5	/experiments/AOT/AOT_stimuli/rescaled_final/1743_fw.mp4	0.0	174.87930393218994	2.5000240802764893
29	153.3240349292755	pulse	1	t		27.0	2.5	/experiments/AOT/AOT_stimuli/rescaled_final/1743_fw.mp4	0.0	175.26262092590332	
29	154.92429494857788	pulse	1	t		27.0	2.5	/experiments/AOT/AOT_stimuli/rescaled_final/1743_fw.mp4	0.0	176.8628809452057	
29	155.44074201583862	fix_post	2		12	27.0	2.5	/experiments/AOT/AOT_stimuli/rescaled_final/1743_fw.mp4	0.0	177.37932801246643	0.10000491142272949
30	155.54074692726135	fix_pre	0		119	28.0	2.5	/experiments/AOT/AOT_stimuli/rescaled_final/0180_fw.mp4	0.0	177.47933292388916	0.9916260242462158
30	156.52414798736572	pulse	0	t		28.0	2.5	/experiments/AOT/AOT_stimuli/rescaled_final/0180_fw.mp4	0.0	178.46273398399353	
30	156.53237295150757	movie	1		244	28.0	2.5	/experiments/AOT/AOT_stimuli/rescaled_final/0180_fw.mp4	0.0	178.47095894813538	2.508302927017212
30	158.12562584877014	pulse	1	t		28.0	2.5	/experiments/AOT/AOT_stimuli/rescaled_final/0180_fw.mp4	0.0	180.06421184539795	
30	159.04067587852478	fix_post	2		12	28.0	2.5	/experiments/AOT/AOT_stimuli/rescaled_final/0180_fw.mp4	0.0	180.9792618751526	0.100067138671875
31	159.14074301719666	fix_pre	0		120	29.0	2.5	/experiments/AOT/AOT_stimuli/rescaled_final/0556_fw.mp4	0.0	181.07932901382446	0.9995288848876953
31	159.72414994239807	pulse	0	t		29.0	2.5	/experiments/AOT/AOT_stimuli/rescaled_final/0556_fw.mp4	0.0	181.66273593902588	
31	160.14027190208435	movie	1		244	29.0	2.5	/experiments/AOT/AOT_stimuli/rescaled_final/0556_fw.mp4	0.0	182.07885789871216	2.500458002090454
31	161.3242609500885	pulse	1	t		29.0	2.5	/experiments/AOT/AOT_stimuli/rescaled_final/0556_fw.mp4	0.0	183.2628469467163	
31	162.6407299041748	fix_post	2		12	29.0	2.5	/experiments/AOT/AOT_stimuli/rescaled_final/0556_fw.mp4	0.0	184.5793159008026	0.09990096092224121
32	162.74063086509705	fix_pre	0		120	30.0	2.5	/experiments/AOT/AOT_stimuli/rescaled_final/2155_fw.mp4	0.0	184.67921686172485	1.000096082687378
32	162.92425680160522	pulse	0	t		30.0	2.5	/experiments/AOT/AOT_stimuli/rescaled_final/2155_fw.mp4	0.0	184.86284279823303	
32	163.74072694778442	movie	1		244	30.0	2.5	/experiments/AOT/AOT_stimuli/rescaled_final/2155_fw.mp4	0.0	185.67931294441223	2.499945878982544
32	164.5242350101471	pulse	1	t		30.0	2.5	/experiments/AOT/AOT_stimuli/rescaled_final/2155_fw.mp4	0.0	186.4628210067749	
32	166.12288784980774	pulse	1	t		30.0	2.5	/experiments/AOT/AOT_stimuli/rescaled_final/2155_fw.mp4	0.0	188.06147384643555	
32	166.24067282676697	fix_post	2		12	30.0	2.5	/experiments/AOT/AOT_stimuli/rescaled_final/2155_fw.mp4	0.0	188.17925882339478	0.10000801086425781
33	166.34068083763123	fix_pre	0		120	31.0	2.5	/experiments/AOT/AOT_stimuli/rescaled_final/1083_fw.mp4	0.0	188.27926683425903	0.9999880790710449
33	167.34066891670227	movie	1		244	31.0	2.5	/experiments/AOT/AOT_stimuli/rescaled_final/1083_fw.mp4	0.0	189.27925491333008	2.4998109340667725
33	167.72340083122253	pulse	1	t		31.0	2.5	/experiments/AOT/AOT_stimuli/rescaled_final/1083_fw.mp4	0.0	189.66198682785034	
33	169.32426595687866	pulse	1	t		31.0	2.5	/experiments/AOT/AOT_stimuli/rescaled_final/1083_fw.mp4	0.0	191.26285195350647	
33	169.84047985076904	fix_post	2		12	31.0	2.5	/experiments/AOT/AOT_stimuli/rescaled_final/1083_fw.mp4	0.0	191.77906584739685	0.10002303123474121
34	169.94050288200378	fix_pre	0		119	32.0	2.5	/experiments/AOT/AOT_stimuli/rescaled_final/0038_fw.mp4	0.0	191.8790888786316	0.9917640686035156
34	170.9241178035736	pulse	0	t		32.0	2.5	/experiments/AOT/AOT_stimuli/rescaled_final/0038_fw.mp4	0.0	192.86270380020142	
34	170.9322669506073	movie	1		247	32.0	2.5	/experiments/AOT/AOT_stimuli/rescaled_final/0038_fw.mp4	0.0	192.8708529472351	2.5083889961242676
34	172.52444791793823	pulse	1	t		32.0	2.5	/experiments/AOT/AOT_stimuli/rescaled_final/0038_fw.mp4	0.0	194.46303391456604	
34	173.44065594673157	fix_post	2		12	32.0	2.5	/experiments/AOT/AOT_stimuli/rescaled_final/0038_fw.mp4	0.0	195.37924194335938	0.10002303123474121
35	173.5406789779663	fix_pre	0		120	33.0	2.5	/experiments/AOT/AOT_stimuli/rescaled_final/1209_rv.mp4	0.0	195.47926497459412	0.9999158382415771
35	174.1241250038147	pulse	0	t		33.0	2.5	/experiments/AOT/AOT_stimuli/rescaled_final/1209_rv.mp4	0.0	196.0627110004425	
35	174.54059481620789	movie	1		246	33.0	2.5	/experiments/AOT/AOT_stimuli/rescaled_final/1209_rv.mp4	0.0	196.4791808128357	2.5000200271606445
35	175.72434997558594	pulse	1	t		33.0	2.5	/experiments/AOT/AOT_stimuli/rescaled_final/1209_rv.mp4	0.0	197.66293597221375	
35	177.04061484336853	fix_post	2		12	33.0	2.5	/experiments/AOT/AOT_stimuli/rescaled_final/1209_rv.mp4	0.0	198.97920083999634	0.09996700286865234
36	177.14058184623718	fix_pre	0		120	34.0	2.5	blank	1.0	199.079167842865	1.0001060962677002
36	177.32408595085144	pulse	0	t		34.0	2.5	blank	1.0	199.26267194747925	
36	178.14068794250488	movie	1		300	34.0	2.5	blank	1.0	200.0792739391327	2.4999020099639893
36	178.9241168498993	pulse	1	t		34.0	2.5	blank	1.0	200.8627028465271	
36	180.52411890029907	pulse	1	t		34.0	2.5	blank	1.0	202.46270489692688	
36	180.64058995246887	fix_post	2		12	34.0	2.5	blank	1.0	202.57917594909668	0.10011601448059082
37	180.74070596694946	fix_pre	0		120	35.0	2.5	/experiments/AOT/AOT_stimuli/rescaled_final/0961_fw.mp4	0.0	202.67929196357727	0.9998979568481445
37	181.7406039237976	movie	1		243	35.0	2.5	/experiments/AOT/AOT_stimuli/rescaled_final/0961_fw.mp4	0.0	203.67918992042542	2.499638080596924
37	182.12361598014832	pulse	1	t		35.0	2.5	/experiments/AOT/AOT_stimuli/rescaled_final/0961_fw.mp4	0.0	204.06220197677612	
37	183.72406101226807	pulse	1	t		35.0	2.5	/experiments/AOT/AOT_stimuli/rescaled_final/0961_fw.mp4	0.0	205.66264700889587	
37	184.24024200439453	fix_post	2		12	35.0	2.5	/experiments/AOT/AOT_stimuli/rescaled_final/0961_fw.mp4	0.0	206.17882800102234	0.10032486915588379
38	184.34056687355042	fix_pre	0		119	36.0	2.5	/experiments/AOT/AOT_stimuli/rescaled_final/1294_fw.mp4	0.0	206.27915287017822	0.9916739463806152
38	185.32412195205688	pulse	0	t		36.0	2.5	/experiments/AOT/AOT_stimuli/rescaled_final/1294_fw.mp4	0.0	207.2627079486847	
38	185.33224081993103	movie	1		244	36.0	2.5	/experiments/AOT/AOT_stimuli/rescaled_final/1294_fw.mp4	0.0	207.27082681655884	2.5083041191101074
38	186.92424488067627	pulse	1	t		36.0	2.5	/experiments/AOT/AOT_stimuli/rescaled_final/1294_fw.mp4	0.0	208.86283087730408	
38	187.84054493904114	fix_post	2		12	36.0	2.5	/experiments/AOT/AOT_stimuli/rescaled_final/1294_fw.mp4	0.0	209.77913093566895	0.10004806518554688
39	187.94059300422668	fix_pre	0		120	37.0	2.5	/experiments/AOT/AOT_stimuli/rescaled_final/0903_fw.mp4	0.0	209.8791790008545	1.0000028610229492
39	188.5240797996521	pulse	0	t		37.0	2.5	/experiments/AOT/AOT_stimuli/rescaled_final/0903_fw.mp4	0.0	210.4626657962799	
39	188.94059586524963	movie	1		245	37.0	2.5	/experiments/AOT/AOT_stimuli/rescaled_final/0903_fw.mp4	0.0	210.87918186187744	2.499958038330078
39	190.12414002418518	pulse	1	t		37.0	2.5	/experiments/AOT/AOT_stimuli/rescaled_final/0903_fw.mp4	0.0	212.062726020813	
39	191.4405539035797	fix_post	2		12	37.0	2.5	/experiments/AOT/AOT_stimuli/rescaled_final/0903_fw.mp4	0.0	213.37913990020752	0.10001492500305176
40	191.54056882858276	fix_pre	0		120	38.0	2.5	/experiments/AOT/AOT_stimuli/rescaled_final/2032_rv.mp4	0.0	213.47915482521057	1.0000441074371338
40	191.72400879859924	pulse	0	t		38.0	2.5	/experiments/AOT/AOT_stimuli/rescaled_final/2032_rv.mp4	0.0	213.66259479522705	
40	192.5406129360199	movie	1		245	38.0	2.5	/experiments/AOT/AOT_stimuli/rescaled_final/2032_rv.mp4	0.0	214.4791989326477	2.499437093734741
40	193.32400488853455	pulse	1	t		38.0	2.5	/experiments/AOT/AOT_stimuli/rescaled_final/2032_rv.mp4	0.0	215.26259088516235	
40	194.92356300354004	pulse	1	t		38.0	2.5	/experiments/AOT/AOT_stimuli/rescaled_final/2032_rv.mp4	0.0	216.86214900016785	
40	195.04005002975464	fix_post	2		12	38.0	2.5	/experiments/AOT/AOT_stimuli/rescaled_final/2032_rv.mp4	0.0	216.97863602638245	0.10045599937438965
41	195.14050602912903	fix_pre	0		120	39.0	2.5	/experiments/AOT/AOT_stimuli/rescaled_final/0860_rv.mp4	0.0	217.07909202575684	0.9995667934417725
41	196.1400728225708	movie	1		246	39.0	2.5	/experiments/AOT/AOT_stimuli/rescaled_final/0860_rv.mp4	0.0	218.0786588191986	2.5000040531158447
41	196.5241458415985	pulse	1	t		39.0	2.5	/experiments/AOT/AOT_stimuli/rescaled_final/0860_rv.mp4	0.0	218.46273183822632	
41	198.12403082847595	pulse	1	t		39.0	2.5	/experiments/AOT/AOT_stimuli/rescaled_final/0860_rv.mp4	0.0	220.06261682510376	
41	198.64007687568665	fix_post	2		12	39.0	2.5	/experiments/AOT/AOT_stimuli/rescaled_final/0860_rv.mp4	0.0	220.57866287231445	0.10056304931640625
42	198.74063992500305	fix_pre	0		119	40.0	2.5	/experiments/AOT/AOT_stimuli/rescaled_final/0348_rv.mp4	0.0	220.67922592163086	0.9914910793304443
42	199.72406101226807	pulse	0	t		40.0	2.5	/experiments/AOT/AOT_stimuli/rescaled_final/0348_rv.mp4	0.0	221.66264700889587	
42	199.7321310043335	movie	1		246	40.0	2.5	/experiments/AOT/AOT_stimuli/rescaled_final/0348_rv.mp4	0.0	221.6707170009613	2.507920980453491
42	201.3236379623413	pulse	1	t		40.0	2.5	/experiments/AOT/AOT_stimuli/rescaled_final/0348_rv.mp4	0.0	223.26222395896912	
42	202.240051984787	fix_post	2		12	40.0	2.5	/experiments/AOT/AOT_stimuli/rescaled_final/0348_rv.mp4	0.0	224.1786379814148	0.10053896903991699
43	202.3405909538269	fix_pre	0		120	41.0	2.5	blank	1.0	224.2791769504547	0.9999568462371826
43	202.923987865448	pulse	0	t		41.0	2.5	blank	1.0	224.8625738620758	
43	203.3405478000641	movie	1		300	41.0	2.5	blank	1.0	225.2791337966919	2.499479055404663
43	204.52397084236145	pulse	1	t		41.0	2.5	blank	1.0	226.46255683898926	
43	205.84002685546875	fix_post	2		12	41.0	2.5	blank	1.0	227.77861285209656	0.10049295425415039
44	205.9405198097229	fix_pre	0		120	42.0	2.5	/experiments/AOT/AOT_stimuli/rescaled_final/0835_rv.mp4	0.0	227.8791058063507	1.0000050067901611
44	206.1239948272705	pulse	0	t		42.0	2.5	/experiments/AOT/AOT_stimuli/rescaled_final/0835_rv.mp4	0.0	228.06258082389832	
44	206.94052481651306	movie	1		244	42.0	2.5	/experiments/AOT/AOT_stimuli/rescaled_final/0835_rv.mp4	0.0	228.87911081314087	2.4995319843292236
44	207.7239499092102	pulse	1	t		42.0	2.5	/experiments/AOT/AOT_stimuli/rescaled_final/0835_rv.mp4	0.0	229.662535905838	
44	209.32267093658447	pulse	1	t		42.0	2.5	/experiments/AOT/AOT_stimuli/rescaled_final/0835_rv.mp4	0.0	231.26125693321228	
44	209.44005680084229	fix_post	2		12	42.0	2.5	/experiments/AOT/AOT_stimuli/rescaled_final/0835_rv.mp4	0.0	231.3786427974701	0.10036921501159668
45	209.54042601585388	fix_pre	0		120	43.0	2.5	/experiments/AOT/AOT_stimuli/rescaled_final/1199_fw.mp4	0.0	231.4790120124817	0.9995908737182617
45	210.54001688957214	movie	1		244	43.0	2.5	/experiments/AOT/AOT_stimuli/rescaled_final/1199_fw.mp4	0.0	232.47860288619995	2.500437021255493
45	210.92370891571045	pulse	1	t		43.0	2.5	/experiments/AOT/AOT_stimuli/rescaled_final/1199_fw.mp4	0.0	232.86229491233826	
45	212.52396082878113	pulse	1	t		43.0	2.5	/experiments/AOT/AOT_stimuli/rescaled_final/1199_fw.mp4	0.0	234.46254682540894	
45	213.04045391082764	fix_post	2		12	43.0	2.5	/experiments/AOT/AOT_stimuli/rescaled_final/1199_fw.mp4	0.0	234.97903990745544	0.09998297691345215
46	213.1404368877411	fix_pre	0		119	44.0	2.5	/experiments/AOT/AOT_stimuli/rescaled_final/1885_fw.mp4	0.0	235.0790228843689	0.9917330741882324
46	214.12405800819397	pulse	0	t		44.0	2.5	/experiments/AOT/AOT_stimuli/rescaled_final/1885_fw.mp4	0.0	236.06264400482178	
46	214.13216996192932	movie	1		245	44.0	2.5	/experiments/AOT/AOT_stimuli/rescaled_final/1885_fw.mp4	0.0	236.07075595855713	2.5082309246063232
46	215.72357392311096	pulse	1	t		44.0	2.5	/experiments/AOT/AOT_stimuli/rescaled_final/1885_fw.mp4	0.0	237.66215991973877	
46	216.64040088653564	fix_post	2		12	44.0	2.5	/experiments/AOT/AOT_stimuli/rescaled_final/1885_fw.mp4	0.0	238.57898688316345	0.10002994537353516
47	216.74043083190918	fix_pre	0		120	45.0	2.5	/experiments/AOT/AOT_stimuli/rescaled_final/0871_rv.mp4	0.0	238.679016828537	0.99996018409729
47	217.3240098953247	pulse	0	t		45.0	2.5	/experiments/AOT/AOT_stimuli/rescaled_final/0871_rv.mp4	0.0	239.26259589195251	
47	217.74039101600647	movie	1		244	45.0	2.5	/experiments/AOT/AOT_stimuli/rescaled_final/0871_rv.mp4	0.0	239.67897701263428	2.499725818634033
47	218.92398881912231	pulse	1	t		45.0	2.5	/experiments/AOT/AOT_stimuli/rescaled_final/0871_rv.mp4	0.0	240.86257481575012	
47	220.2401168346405	fix_post	2		12	45.0	2.5	/experiments/AOT/AOT_stimuli/rescaled_final/0871_rv.mp4	0.0	242.1787028312683	0.10027098655700684
48	220.3403878211975	fix_pre	0		120	46.0	2.5	/experiments/AOT/AOT_stimuli/rescaled_final/0571_fw.mp4	0.0	242.27897381782532	0.9999771118164062
48	220.52386283874512	pulse	0	t		46.0	2.5	/experiments/AOT/AOT_stimuli/rescaled_final/0571_fw.mp4	0.0	242.46244883537292	
48	221.34036493301392	movie	1		246	46.0	2.5	/experiments/AOT/AOT_stimuli/rescaled_final/0571_fw.mp4	0.0	243.27895092964172	2.4997200965881348
48	222.1238889694214	pulse	1	t		46.0	2.5	/experiments/AOT/AOT_stimuli/rescaled_final/0571_fw.mp4	0.0	244.0624749660492	
48	223.7236409187317	pulse	1	t		46.0	2.5	/experiments/AOT/AOT_stimuli/rescaled_final/0571_fw.mp4	0.0	245.6622269153595	
48	223.84008502960205	fix_post	2		12	46.0	2.5	/experiments/AOT/AOT_stimuli/rescaled_final/0571_fw.mp4	0.0	245.77867102622986	0.10043883323669434
49	223.94052386283875	fix_pre	0		120	47.0	2.5	blank	1.0	245.87910985946655	0.9999980926513672
49	224.9405219554901	movie	1		300	47.0	2.5	blank	1.0	246.87910795211792	2.499898910522461
49	225.3236529827118	pulse	1	t		47.0	2.5	blank	1.0	247.2622389793396	
49	226.92388796806335	pulse	1	t		47.0	2.5	blank	1.0	248.86247396469116	
49	227.44042086601257	fix_post	2		12	47.0	2.5	blank	1.0	249.37900686264038	0.10000109672546387
50	227.54042196273804	fix_pre	0		119	48.0	2.5	/experiments/AOT/AOT_stimuli/rescaled_final/0593_rv.mp4	0.0	249.47900795936584	0.9916839599609375
50	228.52385783195496	pulse	0	t		48.0	2.5	/experiments/AOT/AOT_stimuli/rescaled_final/0593_rv.mp4	0.0	250.46244382858276	
50	228.53210592269897	movie	1		244	48.0	2.5	/experiments/AOT/AOT_stimuli/rescaled_final/0593_rv.mp4	0.0	250.47069191932678	2.5083038806915283
50	230.12330389022827	pulse	1	t		48.0	2.5	/experiments/AOT/AOT_stimuli/rescaled_final/0593_rv.mp4	0.0	252.06188988685608	
50	231.0404098033905	fix_post	2		12	48.0	2.5	/experiments/AOT/AOT_stimuli/rescaled_final/0593_rv.mp4	0.0	252.9789958000183	0.09998416900634766
51	231.14039397239685	fix_pre	0		120	49.0	2.5	/experiments/AOT/AOT_stimuli/rescaled_final/1953_rv.mp4	0.0	253.07897996902466	0.9999589920043945
51	231.7239329814911	pulse	0	t		49.0	2.5	/experiments/AOT/AOT_stimuli/rescaled_final/1953_rv.mp4	0.0	253.6625189781189	
51	232.14035296440125	movie	1		243	49.0	2.5	/experiments/AOT/AOT_stimuli/rescaled_final/1953_rv.mp4	0.0	254.07893896102905	2.5000100135803223
51	233.32384085655212	pulse	1	t		49.0	2.5	/experiments/AOT/AOT_stimuli/rescaled_final/1953_rv.mp4	0.0	255.26242685317993	
51	234.64036297798157	fix_post	2		12	49.0	2.5	/experiments/AOT/AOT_stimuli/rescaled_final/1953_rv.mp4	0.0	256.5789489746094	0.1000518798828125
52	234.74041485786438	fix_pre	0		120	50.0	2.5	/experiments/AOT/AOT_stimuli/rescaled_final/0069_rv.mp4	0.0	256.6790008544922	0.9999251365661621
52	234.9238498210907	pulse	0	t		50.0	2.5	/experiments/AOT/AOT_stimuli/rescaled_final/0069_rv.mp4	0.0	256.8624358177185	
52	235.74033999443054	movie	1		246	50.0	2.5	/experiments/AOT/AOT_stimuli/rescaled_final/0069_rv.mp4	0.0	257.67892599105835	2.4999938011169434
52	236.52381682395935	pulse	1	t		50.0	2.5	/experiments/AOT/AOT_stimuli/rescaled_final/0069_rv.mp4	0.0	258.46240282058716	
52	238.12393379211426	pulse	1	t		50.0	2.5	/experiments/AOT/AOT_stimuli/rescaled_final/0069_rv.mp4	0.0	260.06251978874207	
52	238.24033379554749	fix_post	2		12	50.0	2.5	/experiments/AOT/AOT_stimuli/rescaled_final/0069_rv.mp4	0.0	260.1789197921753	0.09997320175170898
53	238.3403069972992	fix_pre	0		120	51.0	2.5	/experiments/AOT/AOT_stimuli/rescaled_final/2135_fw.mp4	0.0	260.278892993927	1.000128984451294
53	239.3404359817505	movie	1		246	51.0	2.5	/experiments/AOT/AOT_stimuli/rescaled_final/2135_fw.mp4	0.0	261.2790219783783	2.4998910427093506
53	239.72466492652893	pulse	1	t		51.0	2.5	/experiments/AOT/AOT_stimuli/rescaled_final/2135_fw.mp4	0.0	261.66325092315674	
53	241.32378888130188	pulse	1	t		51.0	2.5	/experiments/AOT/AOT_stimuli/rescaled_final/2135_fw.mp4	0.0	263.2623748779297	
53	241.84032702445984	fix_post	2		12	51.0	2.5	/experiments/AOT/AOT_stimuli/rescaled_final/2135_fw.mp4	0.0	263.77891302108765	0.09994196891784668
54	241.94026899337769	fix_pre	0		119	52.0	2.5	/experiments/AOT/AOT_stimuli/rescaled_final/0893_fw.mp4	0.0	263.8788549900055	0.9917049407958984
54	242.92383480072021	pulse	0	t		52.0	2.5	/experiments/AOT/AOT_stimuli/rescaled_final/0893_fw.mp4	0.0	264.862420797348	
54	242.93197393417358	movie	1		246	52.0	2.5	/experiments/AOT/AOT_stimuli/rescaled_final/0893_fw.mp4	0.0	264.8705599308014	2.508302927017212
54	244.52345895767212	pulse	1	t		52.0	2.5	/experiments/AOT/AOT_stimuli/rescaled_final/0893_fw.mp4	0.0	266.4620449542999	
54	245.4402768611908	fix_post	2		12	52.0	2.5	/experiments/AOT/AOT_stimuli/rescaled_final/0893_fw.mp4	0.0	267.3788628578186	0.09998703002929688
55	245.5402638912201	fix_pre	0		120	53.0	2.5	/experiments/AOT/AOT_stimuli/rescaled_final/1853_fw.mp4	0.0	267.4788498878479	0.9999840259552002
55	246.12370800971985	pulse	0	t		53.0	2.5	/experiments/AOT/AOT_stimuli/rescaled_final/1853_fw.mp4	0.0	268.06229400634766	
55	246.5402479171753	movie	1		243	53.0	2.5	/experiments/AOT/AOT_stimuli/rescaled_final/1853_fw.mp4	0.0	268.4788339138031	2.4995720386505127
55	247.72383499145508	pulse	1	t		53.0	2.5	/experiments/AOT/AOT_stimuli/rescaled_final/1853_fw.mp4	0.0	269.6624209880829	
55	249.0398199558258	fix_post	2		12	53.0	2.5	/experiments/AOT/AOT_stimuli/rescaled_final/1853_fw.mp4	0.0	270.9784059524536	0.10046505928039551
56	249.1402850151062	fix_pre	0		120	54.0	2.5	/experiments/AOT/AOT_stimuli/rescaled_final/0699_rv.mp4	0.0	271.078871011734	1.0
56	249.3238079547882	pulse	0	t		54.0	2.5	/experiments/AOT/AOT_stimuli/rescaled_final/0699_rv.mp4	0.0	271.262393951416	
56	250.1402850151062	movie	1		244	54.0	2.5	/experiments/AOT/AOT_stimuli/rescaled_final/0699_rv.mp4	0.0	272.078871011734	2.4999308586120605
56	250.92376685142517	pulse	1	t		54.0	2.5	/experiments/AOT/AOT_stimuli/rescaled_final/0699_rv.mp4	0.0	272.862352848053	
56	252.53212189674377	pulse	1	t		54.0	2.5	/experiments/AOT/AOT_stimuli/rescaled_final/0699_rv.mp4	0.0	274.4707078933716	
56	252.64021587371826	fix_post	2		12	54.0	2.5	/experiments/AOT/AOT_stimuli/rescaled_final/0699_rv.mp4	0.0	274.57880187034607	0.09997701644897461
57	252.74019289016724	fix_pre	0		120	55.0	2.5	blank	1.0	274.67877888679504	1.0000009536743164
57	253.74019384384155	movie	1		300	55.0	2.5	blank	1.0	275.67877984046936	2.5000410079956055
57	254.12391996383667	pulse	1	t		55.0	2.5	blank	1.0	276.0625059604645	
57	255.72370386123657	pulse	1	t		55.0	2.5	blank	1.0	277.6622898578644	
57	256.24023485183716	fix_post	2		12	55.0	2.5	blank	1.0	278.17882084846497	0.09994316101074219
58	256.3401780128479	fix_pre	0		119	56.0	2.5	/experiments/AOT/AOT_stimuli/rescaled_final/0302_fw.mp4	0.0	278.2787640094757	0.991743803024292
58	257.32361793518066	pulse	0	t		56.0	2.5	/experiments/AOT/AOT_stimuli/rescaled_final/0302_fw.mp4	0.0	279.2622039318085	
58	257.3319218158722	movie	1		245	56.0	2.5	/experiments/AOT/AOT_stimuli/rescaled_final/0302_fw.mp4	0.0	279.2705078125	2.508380174636841
58	258.92368602752686	pulse	1	t		56.0	2.5	/experiments/AOT/AOT_stimuli/rescaled_final/0302_fw.mp4	0.0	280.86227202415466	
58	259.84030199050903	fix_post	2		12	56.0	2.5	/experiments/AOT/AOT_stimuli/rescaled_final/0302_fw.mp4	0.0	281.77888798713684	0.09991002082824707
59	259.9402120113373	fix_pre	0		120	57.0	2.5	/experiments/AOT/AOT_stimuli/rescaled_final/0746_rv.mp4	0.0	281.8787980079651	1.0000309944152832
59	260.5237498283386	pulse	0	t		57.0	2.5	/experiments/AOT/AOT_stimuli/rescaled_final/0746_rv.mp4	0.0	282.46233582496643	
59	260.94024300575256	movie	1		245	57.0	2.5	/experiments/AOT/AOT_stimuli/rescaled_final/0746_rv.mp4	0.0	282.87882900238037	2.500018835067749
59	262.1237678527832	pulse	1	t		57.0	2.5	/experiments/AOT/AOT_stimuli/rescaled_final/0746_rv.mp4	0.0	284.062353849411	
59	263.4402618408203	fix_post	2		12	57.0	2.5	/experiments/AOT/AOT_stimuli/rescaled_final/0746_rv.mp4	0.0	285.3788478374481	0.0999000072479248
60	263.54016184806824	fix_pre	0		120	58.0	2.5	/experiments/AOT/AOT_stimuli/rescaled_final/2089_rv.mp4	0.0	285.47874784469604	0.9997279644012451
60	263.7237048149109	pulse	0	t		58.0	2.5	/experiments/AOT/AOT_stimuli/rescaled_final/2089_rv.mp4	0.0	285.6622908115387	
60	264.5398898124695	movie	1		243	58.0	2.5	/experiments/AOT/AOT_stimuli/rescaled_final/2089_rv.mp4	0.0	286.4784758090973	2.500279188156128
60	265.32367300987244	pulse	1	t		58.0	2.5	/experiments/AOT/AOT_stimuli/rescaled_final/2089_rv.mp4	0.0	287.26225900650024	
60	266.922367811203	pulse	1	t		58.0	2.5	/experiments/AOT/AOT_stimuli/rescaled_final/2089_rv.mp4	0.0	288.8609538078308	
60	267.0401690006256	fix_post	2		12	58.0	2.5	/experiments/AOT/AOT_stimuli/rescaled_final/2089_rv.mp4	0.0	288.9787549972534	0.0999758243560791
61	267.1401448249817	fix_pre	0		120	59.0	2.5	/experiments/AOT/AOT_stimuli/rescaled_final/1373_rv.mp4	0.0	289.0787308216095	0.9999971389770508
61	268.14014196395874	movie	1		243	59.0	2.5	/experiments/AOT/AOT_stimuli/rescaled_final/1373_rv.mp4	0.0	290.07872796058655	2.500027894973755
61	268.52371287345886	pulse	1	t		59.0	2.5	/experiments/AOT/AOT_stimuli/rescaled_final/1373_rv.mp4	0.0	290.46229887008667	
61	270.12367582321167	pulse	1	t		59.0	2.5	/experiments/AOT/AOT_stimuli/rescaled_final/1373_rv.mp4	0.0	292.0622618198395	
61	270.6401698589325	fix_post	2		12	59.0	2.5	/experiments/AOT/AOT_stimuli/rescaled_final/1373_rv.mp4	0.0	292.5787558555603	0.09963417053222656
62	270.7398040294647	fix_pre	0		119	60.0	2.5	/experiments/AOT/AOT_stimuli/rescaled_final/1012_rv.mp4	0.0	292.67839002609253	0.9920017719268799
62	271.7236897945404	pulse	0	t		60.0	2.5	/experiments/AOT/AOT_stimuli/rescaled_final/1012_rv.mp4	0.0	293.6622757911682	
62	271.7318058013916	movie	1		244	60.0	2.5	/experiments/AOT/AOT_stimuli/rescaled_final/1012_rv.mp4	0.0	293.6703917980194	2.5083110332489014
62	273.3235909938812	pulse	1	t		60.0	2.5	/experiments/AOT/AOT_stimuli/rescaled_final/1012_rv.mp4	0.0	295.26217699050903	
62	274.2401168346405	fix_post	2		12	60.0	2.5	/experiments/AOT/AOT_stimuli/rescaled_final/1012_rv.mp4	0.0	296.1787028312683	0.09998917579650879
63	274.340106010437	fix_pre	0		120	61.0	2.5	/experiments/AOT/AOT_stimuli/rescaled_final/0487_fw.mp4	0.0	296.2786920070648	1.0000629425048828
63	274.9236009120941	pulse	0	t		61.0	2.5	/experiments/AOT/AOT_stimuli/rescaled_final/0487_fw.mp4	0.0	296.8621869087219	
63	275.3401689529419	movie	1		246	61.0	2.5	/experiments/AOT/AOT_stimuli/rescaled_final/0487_fw.mp4	0.0	297.2787549495697	2.499933958053589
63	276.52379393577576	pulse	1	t		61.0	2.5	/experiments/AOT/AOT_stimuli/rescaled_final/0487_fw.mp4	0.0	298.46237993240356	
63	277.8401029109955	fix_post	2		12	61.0	2.5	/experiments/AOT/AOT_stimuli/rescaled_final/0487_fw.mp4	0.0	299.7786889076233	0.10015010833740234
64	277.9402530193329	fix_pre	0		120	62.0	2.5	/experiments/AOT/AOT_stimuli/rescaled_final/0805_rv.mp4	0.0	299.8788390159607	0.9994487762451172
64	278.12364983558655	pulse	0	t		62.0	2.5	/experiments/AOT/AOT_stimuli/rescaled_final/0805_rv.mp4	0.0	300.06223583221436	
64	278.939701795578	movie	1		244	62.0	2.5	/experiments/AOT/AOT_stimuli/rescaled_final/0805_rv.mp4	0.0	300.8782877922058	2.5007641315460205
64	279.72315192222595	pulse	1	t		62.0	2.5	/experiments/AOT/AOT_stimuli/rescaled_final/0805_rv.mp4	0.0	301.66173791885376	
64	281.3234648704529	pulse	1	t		62.0	2.5	/experiments/AOT/AOT_stimuli/rescaled_final/0805_rv.mp4	0.0	303.2620508670807	
64	281.440465927124	fix_post	2		12	62.0	2.5	/experiments/AOT/AOT_stimuli/rescaled_final/0805_rv.mp4	0.0	303.37905192375183	0.09985804557800293
65	281.540323972702	fix_pre	0		120	63.0	2.5	blank	1.0	303.47890996932983	0.9997289180755615
65	282.5400528907776	movie	1		300	63.0	2.5	blank	1.0	304.4786388874054	2.500054121017456
65	282.9237549304962	pulse	1	t		63.0	2.5	blank	1.0	304.862340927124	
65	284.523540019989	pulse	1	t		63.0	2.5	blank	1.0	306.4621260166168	
65	285.04010701179504	fix_post	2		12	63.0	2.5	blank	1.0	306.97869300842285	0.09994983673095703
66	285.140056848526	fix_pre	0		119	64.0	2.5	/experiments/AOT/AOT_stimuli/rescaled_final/0774_rv.mp4	0.0	307.0786428451538	0.9917430877685547
66	286.12353682518005	pulse	0	t		64.0	2.5	/experiments/AOT/AOT_stimuli/rescaled_final/0774_rv.mp4	0.0	308.06212282180786	
66	286.13179993629456	movie	1		249	64.0	2.5	/experiments/AOT/AOT_stimuli/rescaled_final/0774_rv.mp4	0.0	308.07038593292236	2.508220911026001
66	287.72296380996704	pulse	1	t		64.0	2.5	/experiments/AOT/AOT_stimuli/rescaled_final/0774_rv.mp4	0.0	309.66154980659485	
66	288.64002084732056	fix_post	2		12	64.0	2.5	/experiments/AOT/AOT_stimuli/rescaled_final/0774_rv.mp4	0.0	310.57860684394836	0.10004496574401855
67	288.7400658130646	fix_pre	0		120	65.0	2.5	/experiments/AOT/AOT_stimuli/rescaled_final/1172_fw.mp4	0.0	310.6786518096924	1.0000331401824951
67	289.3236348628998	pulse	0	t		65.0	2.5	/experiments/AOT/AOT_stimuli/rescaled_final/1172_fw.mp4	0.0	311.2622208595276	
67	289.74009895324707	movie	1		245	65.0	2.5	/experiments/AOT/AOT_stimuli/rescaled_final/1172_fw.mp4	0.0	311.6786849498749	2.4995779991149902
67	290.9236168861389	pulse	1	t		65.0	2.5	/experiments/AOT/AOT_stimuli/rescaled_final/1172_fw.mp4	0.0	312.8622028827667	
67	292.23967695236206	fix_post	2		12	65.0	2.5	/experiments/AOT/AOT_stimuli/rescaled_final/1172_fw.mp4	0.0	314.17826294898987	0.10034990310668945
68	292.34002685546875	fix_pre	0		120	66.0	2.5	/experiments/AOT/AOT_stimuli/rescaled_final/1175_fw.mp4	0.0	314.27861285209656	0.9999940395355225
68	292.5235438346863	pulse	0	t		66.0	2.5	/experiments/AOT/AOT_stimuli/rescaled_final/1175_fw.mp4	0.0	314.4621298313141	
68	293.3400208950043	movie	1		244	66.0	2.5	/experiments/AOT/AOT_stimuli/rescaled_final/1175_fw.mp4	0.0	315.2786068916321	2.5000269412994385
68	294.1235728263855	pulse	1	t		66.0	2.5	/experiments/AOT/AOT_stimuli/rescaled_final/1175_fw.mp4	0.0	316.0621588230133	
68	295.72353196144104	pulse	1	t		66.0	2.5	/experiments/AOT/AOT_stimuli/rescaled_final/1175_fw.mp4	0.0	317.66211795806885	
68	295.8400478363037	fix_post	2		12	66.0	2.5	/experiments/AOT/AOT_stimuli/rescaled_final/1175_fw.mp4	0.0	317.7786338329315	0.09999918937683105
69	295.94004702568054	fix_pre	0		120	67.0	2.5	/experiments/AOT/AOT_stimuli/rescaled_final/0756_fw.mp4	0.0	317.87863302230835	1.0000529289245605
69	296.9400999546051	movie	1		245	67.0	2.5	/experiments/AOT/AOT_stimuli/rescaled_final/0756_fw.mp4	0.0	318.8786859512329	2.499908924102783
69	297.3238399028778	pulse	1	t		67.0	2.5	/experiments/AOT/AOT_stimuli/rescaled_final/0756_fw.mp4	0.0	319.2624258995056	
69	298.9234869480133	pulse	1	t		67.0	2.5	/experiments/AOT/AOT_stimuli/rescaled_final/0756_fw.mp4	0.0	320.8620729446411	
69	299.4400088787079	fix_post	2		12	67.0	2.5	/experiments/AOT/AOT_stimuli/rescaled_final/0756_fw.mp4	0.0	321.3785948753357	0.0999751091003418
70	299.5399839878082	fix_pre	0		119	68.0	2.5	/experiments/AOT/AOT_stimuli/rescaled_final/0903_rv.mp4	0.0	321.47856998443604	0.9916648864746094
70	300.523530960083	pulse	0	t		68.0	2.5	/experiments/AOT/AOT_stimuli/rescaled_final/0903_rv.mp4	0.0	322.4621169567108	
70	300.53164887428284	movie	1		245	68.0	2.5	/experiments/AOT/AOT_stimuli/rescaled_final/0903_rv.mp4	0.0	322.47023487091064	2.5083401203155518
70	302.12346482276917	pulse	1	t		68.0	2.5	/experiments/AOT/AOT_stimuli/rescaled_final/0903_rv.mp4	0.0	324.062050819397	
70	303.0399889945984	fix_post	2		12	68.0	2.5	/experiments/AOT/AOT_stimuli/rescaled_final/0903_rv.mp4	0.0	324.9785749912262	0.10007882118225098
71	303.14006781578064	fix_pre	0		120	69.0	2.5	/experiments/AOT/AOT_stimuli/rescaled_final/1714_rv.mp4	0.0	325.07865381240845	0.9999020099639893
71	303.7236068248749	pulse	0	t		69.0	2.5	/experiments/AOT/AOT_stimuli/rescaled_final/1714_rv.mp4	0.0	325.6621928215027	
71	304.13996982574463	movie	1		243	69.0	2.5	/experiments/AOT/AOT_stimuli/rescaled_final/1714_rv.mp4	0.0	326.07855582237244	2.4996771812438965
71	305.3234839439392	pulse	1	t		69.0	2.5	/experiments/AOT/AOT_stimuli/rescaled_final/1714_rv.mp4	0.0	327.262069940567	
71	306.6396470069885	fix_post	2		12	69.0	2.5	/experiments/AOT/AOT_stimuli/rescaled_final/1714_rv.mp4	0.0	328.57823300361633	0.10035586357116699
72	306.7400028705597	fix_pre	0		120	70.0	2.5	blank	1.0	328.6785888671875	0.9999890327453613
72	306.92346382141113	pulse	0	t		70.0	2.5	blank	1.0	328.86204981803894	
72	307.73999190330505	movie	1		300	70.0	2.5	blank	1.0	329.67857789993286	2.4999310970306396
72	308.52346682548523	pulse	1	t		70.0	2.5	blank	1.0	330.46205282211304	
72	310.1234748363495	pulse	1	t		70.0	2.5	blank	1.0	332.0620608329773	
72	310.2399230003357	fix_post	2		12	70.0	2.5	blank	1.0	332.1785089969635	0.09975194931030273
73	310.339674949646	fix_pre	0		120	71.0	2.5	/experiments/AOT/AOT_stimuli/rescaled_final/0262_rv.mp4	0.0	332.2782609462738	1.0002410411834717
73	311.33991599082947	movie	1		247	71.0	2.5	/experiments/AOT/AOT_stimuli/rescaled_final/0262_rv.mp4	0.0	333.2785019874573	2.500002861022949
73	311.7231638431549	pulse	1	t		71.0	2.5	/experiments/AOT/AOT_stimuli/rescaled_final/0262_rv.mp4	0.0	333.6617498397827	
73	313.3234648704529	pulse	1	t		71.0	2.5	/experiments/AOT/AOT_stimuli/rescaled_final/0262_rv.mp4	0.0	335.2620508670807	
73	313.8399188518524	fix_post	2		12	71.0	2.5	/experiments/AOT/AOT_stimuli/rescaled_final/0262_rv.mp4	0.0	335.7785048484802	0.09997797012329102
74	313.9398968219757	fix_pre	0		119	72.0	2.5	/experiments/AOT/AOT_stimuli/rescaled_final/0774_fw.mp4	0.0	335.8784828186035	0.9917080402374268
74	314.92344880104065	pulse	0	t		72.0	2.5	/experiments/AOT/AOT_stimuli/rescaled_final/0774_fw.mp4	0.0	336.86203479766846	
74	314.93160486221313	movie	1		248	72.0	2.5	/experiments/AOT/AOT_stimuli/rescaled_final/0774_fw.mp4	0.0	336.87019085884094	2.5082690715789795
74	316.5234968662262	pulse	1	t		72.0	2.5	/experiments/AOT/AOT_stimuli/rescaled_final/0774_fw.mp4	0.0	338.462082862854	
74	317.4398739337921	fix_post	2		12	72.0	2.5	/experiments/AOT/AOT_stimuli/rescaled_final/0774_fw.mp4	0.0	339.3784599304199	0.10008788108825684
75	317.53996181488037	fix_pre	0		120	73.0	2.5	/experiments/AOT/AOT_stimuli/rescaled_final/0642_fw.mp4	0.0	339.4785478115082	0.9999330043792725
75	318.12480783462524	pulse	0	t		73.0	2.5	/experiments/AOT/AOT_stimuli/rescaled_final/0642_fw.mp4	0.0	340.06339383125305	
75	318.53989481925964	movie	1		243	73.0	2.5	/experiments/AOT/AOT_stimuli/rescaled_final/0642_fw.mp4	0.0	340.47848081588745	2.4999780654907227
75	319.7234389781952	pulse	1	t		73.0	2.5	/experiments/AOT/AOT_stimuli/rescaled_final/0642_fw.mp4	0.0	341.662024974823	
75	321.03987288475037	fix_post	2		12	73.0	2.5	/experiments/AOT/AOT_stimuli/rescaled_final/0642_fw.mp4	0.0	342.9784588813782	0.09997892379760742
76	321.139851808548	fix_pre	0		120	74.0	2.5	/experiments/AOT/AOT_stimuli/rescaled_final/0487_rv.mp4	0.0	343.0784378051758	1.0001020431518555
76	321.323392868042	pulse	0	t		74.0	2.5	/experiments/AOT/AOT_stimuli/rescaled_final/0487_rv.mp4	0.0	343.2619788646698	
76	322.13995385169983	movie	1		246	74.0	2.5	/experiments/AOT/AOT_stimuli/rescaled_final/0487_rv.mp4	0.0	344.07853984832764	2.4999160766601562
76	322.9233229160309	pulse	1	t		74.0	2.5	/experiments/AOT/AOT_stimuli/rescaled_final/0487_rv.mp4	0.0	344.8619089126587	
76	324.52299189567566	pulse	1	t		74.0	2.5	/experiments/AOT/AOT_stimuli/rescaled_final/0487_rv.mp4	0.0	346.46157789230347	
76	324.63986992836	fix_post	2		12	74.0	2.5	/experiments/AOT/AOT_stimuli/rescaled_final/0487_rv.mp4	0.0	346.5784559249878	0.1000220775604248
77	324.7398920059204	fix_pre	0		120	75.0	2.5	blank	1.0	346.6784780025482	1.0002808570861816
77	325.7401728630066	movie	1		300	75.0	2.5	blank	1.0	347.6787588596344	2.499691963195801
77	326.12347888946533	pulse	1	t		75.0	2.5	blank	1.0	348.06206488609314	
77	327.7233588695526	pulse	1	t		75.0	2.5	blank	1.0	349.6619448661804	
77	328.2398648262024	fix_post	2		12	75.0	2.5	blank	1.0	350.1784508228302	0.09968018531799316
78	328.3395450115204	fix_pre	0		119	76.0	2.5	/experiments/AOT/AOT_stimuli/rescaled_final/2069_rv.mp4	0.0	350.2781310081482	0.9919388294219971
78	329.3233768939972	pulse	0	t		76.0	2.5	/experiments/AOT/AOT_stimuli/rescaled_final/2069_rv.mp4	0.0	351.261962890625	
78	329.3314838409424	movie	1		246	76.0	2.5	/experiments/AOT/AOT_stimuli/rescaled_final/2069_rv.mp4	0.0	351.2700698375702	2.508193016052246
78	330.9245319366455	pulse	1	t		76.0	2.5	/experiments/AOT/AOT_stimuli/rescaled_final/2069_rv.mp4	0.0	352.8631179332733	
78	331.83967685699463	fix_post	2		12	76.0	2.5	/experiments/AOT/AOT_stimuli/rescaled_final/2069_rv.mp4	0.0	353.77826285362244	0.09972214698791504
79	331.93939900398254	fix_pre	0		120	77.0	2.5	/experiments/AOT/AOT_stimuli/rescaled_final/0075_fw.mp4	0.0	353.87798500061035	1.0004849433898926
79	332.5235779285431	pulse	0	t		77.0	2.5	/experiments/AOT/AOT_stimuli/rescaled_final/0075_fw.mp4	0.0	354.4621639251709	
79	332.93988394737244	movie	1		245	77.0	2.5	/experiments/AOT/AOT_stimuli/rescaled_final/0075_fw.mp4	0.0	354.87846994400024	2.4995949268341064
79	334.1234378814697	pulse	1	t		77.0	2.5	/experiments/AOT/AOT_stimuli/rescaled_final/0075_fw.mp4	0.0	356.06202387809753	
79	335.43947887420654	fix_post	2		12	77.0	2.5	/experiments/AOT/AOT_stimuli/rescaled_final/0075_fw.mp4	0.0	357.37806487083435	0.09998893737792969
80	335.5394678115845	fix_pre	0		120	78.0	2.5	/experiments/AOT/AOT_stimuli/rescaled_final/1605_fw.mp4	0.0	357.4780538082123	1.000089168548584
80	335.72305393218994	pulse	0	t		78.0	2.5	/experiments/AOT/AOT_stimuli/rescaled_final/1605_fw.mp4	0.0	357.66163992881775	
80	336.53955698013306	movie	1		244	78.0	2.5	/experiments/AOT/AOT_stimuli/rescaled_final/1605_fw.mp4	0.0	358.47814297676086	2.5003108978271484
80	337.323068857193	pulse	1	t		78.0	2.5	/experiments/AOT/AOT_stimuli/rescaled_final/1605_fw.mp4	0.0	359.2616548538208	
80	338.9317479133606	pulse	1	t		78.0	2.5	/experiments/AOT/AOT_stimuli/rescaled_final/1605_fw.mp4	0.0	360.8703339099884	
80	339.0398678779602	fix_post	2		12	78.0	2.5	/experiments/AOT/AOT_stimuli/rescaled_final/1605_fw.mp4	0.0	360.978453874588	0.10001397132873535
81	339.13988184928894	fix_pre	0		120	79.0	2.5	/experiments/AOT/AOT_stimuli/rescaled_final/1646_rv.mp4	0.0	361.07846784591675	0.9994781017303467
81	340.1393599510193	movie	1		243	79.0	2.5	/experiments/AOT/AOT_stimuli/rescaled_final/1646_rv.mp4	0.0	362.0779459476471	2.4999818801879883
81	340.52295684814453	pulse	1	t		79.0	2.5	/experiments/AOT/AOT_stimuli/rescaled_final/1646_rv.mp4	0.0	362.46154284477234	
81	342.1233158111572	pulse	1	t		79.0	2.5	/experiments/AOT/AOT_stimuli/rescaled_final/1646_rv.mp4	0.0	364.06190180778503	
81	342.6393418312073	fix_post	2		12	79.0	2.5	/experiments/AOT/AOT_stimuli/rescaled_final/1646_rv.mp4	0.0	364.5779278278351	0.10005712509155273
82	342.7393989562988	fix_pre	0		119	80.0	2.5	/experiments/AOT/AOT_stimuli/rescaled_final/1812_rv.mp4	0.0	364.67798495292664	0.9920868873596191
82	343.72322487831116	pulse	0	t		80.0	2.5	/experiments/AOT/AOT_stimuli/rescaled_final/1812_rv.mp4	0.0	365.66181087493896	
82	343.73148584365845	movie	1		245	80.0	2.5	/experiments/AOT/AOT_stimuli/rescaled_final/1812_rv.mp4	0.0	365.67007184028625	2.5079400539398193
82	345.3227620124817	pulse	1	t		80.0	2.5	/experiments/AOT/AOT_stimuli/rescaled_final/1812_rv.mp4	0.0	367.2613480091095	
82	346.23942589759827	fix_post	2		12	80.0	2.5	/experiments/AOT/AOT_stimuli/rescaled_final/1812_rv.mp4	0.0	368.1780118942261	0.10039401054382324
83	346.3398199081421	fix_pre	0		120	81.0	2.5	/experiments/AOT/AOT_stimuli/rescaled_final/0931_rv.mp4	0.0	368.2784059047699	0.9999198913574219
83	346.9232368469238	pulse	0	t		81.0	2.5	/experiments/AOT/AOT_stimuli/rescaled_final/0931_rv.mp4	0.0	368.86182284355164	
83	347.3397397994995	movie	1		244	81.0	2.5	/experiments/AOT/AOT_stimuli/rescaled_final/0931_rv.mp4	0.0	369.2783257961273	2.4995830059051514
83	348.5233428478241	pulse	1	t		81.0	2.5	/experiments/AOT/AOT_stimuli/rescaled_final/0931_rv.mp4	0.0	370.4619288444519	
83	349.83932280540466	fix_post	2		12	81.0	2.5	/experiments/AOT/AOT_stimuli/rescaled_final/0931_rv.mp4	0.0	371.77790880203247	0.10052800178527832
84	349.93985080718994	fix_pre	0		120	82.0	2.5	blank	1.0	371.87843680381775	0.9995272159576416
84	350.1232678890228	pulse	0	t		82.0	2.5	blank	1.0	372.06185388565063	
84	350.9393780231476	movie	1		300	82.0	2.5	blank	1.0	372.8779640197754	2.5003159046173096
84	351.7231240272522	pulse	1	t		82.0	2.5	blank	1.0	373.66171002388	
84	353.32327580451965	pulse	1	t		82.0	2.5	blank	1.0	375.26186180114746	
84	353.4396939277649	fix_post	2		12	82.0	2.5	blank	1.0	375.3782799243927	0.10006499290466309
85	353.53975892066956	fix_pre	0		119	83.0	2.5	/experiments/AOT/AOT_stimuli/rescaled_final/0804_fw.mp4	0.0	375.47834491729736	1.0000150203704834
85	354.53977394104004	movie	1		245	83.0	2.5	/experiments/AOT/AOT_stimuli/rescaled_final/0804_fw.mp4	0.0	376.47835993766785	2.499976873397827
85	354.9316098690033	pulse	1	t		83.0	2.5	/experiments/AOT/AOT_stimuli/rescaled_final/0804_fw.mp4	0.0	376.8701958656311	
85	356.5231969356537	pulse	1	t		83.0	2.5	/experiments/AOT/AOT_stimuli/rescaled_final/0804_fw.mp4	0.0	378.4617829322815	
85	357.03975081443787	fix_post	2		12	83.0	2.5	/experiments/AOT/AOT_stimuli/rescaled_final/0804_fw.mp4	0.0	378.9783368110657	0.09962821006774902
87	357.1393790245056	stim	0		1716					379.0779650211334	14.300341844558716
87	358.12326884269714	pulse	0	t						380.06185483932495	
87	359.72321581840515	pulse	0	t						381.66180181503296	
87	361.3232328891754	pulse	0	t						383.2618188858032	
87	362.92320585250854	pulse	0	t						384.86179184913635	
87	364.52316880226135	pulse	0	t						386.46175479888916	
87	366.12317180633545	pulse	0	t						388.06175780296326	
87	367.7231619358063	pulse	0	t						389.6617479324341	
87	369.32314586639404	pulse	0	t						391.26173186302185	
87	370.92313289642334	pulse	0	t						392.86171889305115	
