trial_nr	onset	event_type	phase	response	nr_frames	movie_index	movie_duration	movie_file	blank	onset_abs	duration
0	0.13384103775024414	stim	0		1132					761.0044751167297	9.43273401260376
0	9.558552026748657	response	0	space						770.4291861057281	
1	9.566575050354004	stim	0		57496					770.4372091293335	479.13106298446655
1	488.6917281150818	pulse	0	t						1249.5623621940613	
1	488.69763803482056	stim	1		1717					1249.5682721138	14.30823802947998
1	490.2894561290741	pulse	1	t						1251.1600902080536	
1	491.88947319984436	pulse	1	t						1252.7601072788239	
1	493.48942518234253	pulse	1	t						1254.360059261322	
1	495.0894911289215	pulse	1	t						1255.960125207901	
1	496.68944811820984	pulse	1	t						1257.5600821971893	
1	498.2894170284271	pulse	1	t						1259.1600511074066	
1	499.8893930912018	pulse	1	t						1260.7600271701813	
1	501.48936915397644	pulse	1	t						1262.360003232956	
2	503.00587606430054	fix_pre	0		11	0.0	2.5	/experiments/AOT/AOT_stimuli/rescaled_final/0211_fw.mp4	0.0	1263.87651014328	0.09964799880981445
2	503.0894432067871	pulse	0	t		0.0	2.5	/experiments/AOT/AOT_stimuli/rescaled_final/0211_fw.mp4	0.0	1263.9600772857666	
2	503.10552406311035	movie	1		242	0.0	2.5	/experiments/AOT/AOT_stimuli/rescaled_final/0211_fw.mp4	0.0	1263.9761581420898	2.5003509521484375
2	504.6907660961151	pulse	1	t		0.0	2.5	/experiments/AOT/AOT_stimuli/rescaled_final/0211_fw.mp4	0.0	1265.5614001750946	
2	505.6058750152588	fix_post	2		12	0.0	2.5	/experiments/AOT/AOT_stimuli/rescaled_final/0211_fw.mp4	0.0	1266.4765090942383	0.10004615783691406
3	505.7059211730957	fix_pre	0		120	1.0	2.5	/experiments/AOT/AOT_stimuli/rescaled_final/1223_rv.mp4	0.0	1266.5765552520752	1.000082015991211
3	506.28944516181946	pulse	0	t		1.0	2.5	/experiments/AOT/AOT_stimuli/rescaled_final/1223_rv.mp4	0.0	1267.160079240799	
3	506.7060031890869	movie	1		242	1.0	2.5	/experiments/AOT/AOT_stimuli/rescaled_final/1223_rv.mp4	0.0	1267.5766372680664	2.499595880508423
3	507.88950419425964	pulse	1	t		1.0	2.5	/experiments/AOT/AOT_stimuli/rescaled_final/1223_rv.mp4	0.0	1268.7601382732391	
3	509.20559906959534	fix_post	2		12	1.0	2.5	/experiments/AOT/AOT_stimuli/rescaled_final/1223_rv.mp4	0.0	1270.0762331485748	0.09995698928833008
4	509.30555605888367	fix_pre	0		120	2.0	2.5	/experiments/AOT/AOT_stimuli/rescaled_final/2057_rv.mp4	0.0	1270.1761901378632	1.0000810623168945
4	509.48903703689575	pulse	0	t		2.0	2.5	/experiments/AOT/AOT_stimuli/rescaled_final/2057_rv.mp4	0.0	1270.3596711158752	
4	510.30563712120056	movie	1		243	2.0	2.5	/experiments/AOT/AOT_stimuli/rescaled_final/2057_rv.mp4	0.0	1271.17627120018	2.499783992767334
4	511.08930921554565	pulse	1	t		2.0	2.5	/experiments/AOT/AOT_stimuli/rescaled_final/2057_rv.mp4	0.0	1271.9599432945251	
4	512.6874442100525	pulse	1	t		2.0	2.5	/experiments/AOT/AOT_stimuli/rescaled_final/2057_rv.mp4	0.0	1273.558078289032	
4	512.8054211139679	fix_post	2		12	2.0	2.5	/experiments/AOT/AOT_stimuli/rescaled_final/2057_rv.mp4	0.0	1273.6760551929474	0.10044097900390625
5	512.9058620929718	fix_pre	0		120	3.0	2.5	/experiments/AOT/AOT_stimuli/rescaled_final/1700_rv.mp4	0.0	1273.7764961719513	1.0000770092010498
5	513.9059391021729	movie	1		244	3.0	2.5	/experiments/AOT/AOT_stimuli/rescaled_final/1700_rv.mp4	0.0	1274.7765731811523	2.499829053878784
5	514.2905631065369	pulse	1	t		3.0	2.5	/experiments/AOT/AOT_stimuli/rescaled_final/1700_rv.mp4	0.0	1275.1611971855164	
5	515.8892691135406	pulse	1	t		3.0	2.5	/experiments/AOT/AOT_stimuli/rescaled_final/1700_rv.mp4	0.0	1276.7599031925201	
5	516.4057681560516	fix_post	2		12	3.0	2.5	/experiments/AOT/AOT_stimuli/rescaled_final/1700_rv.mp4	0.0	1277.2764022350311	0.10004806518554688
6	516.5058162212372	fix_pre	0		119	4.0	2.5	/experiments/AOT/AOT_stimuli/rescaled_final/1252_fw.mp4	0.0	1277.3764503002167	0.9917027950286865
6	517.4892630577087	pulse	0	t		4.0	2.5	/experiments/AOT/AOT_stimuli/rescaled_final/1252_fw.mp4	0.0	1278.3598971366882	
6	517.4975190162659	movie	1		245	4.0	2.5	/experiments/AOT/AOT_stimuli/rescaled_final/1252_fw.mp4	0.0	1278.3681530952454	2.5084400177001953
6	519.0889921188354	pulse	1	t		4.0	2.5	/experiments/AOT/AOT_stimuli/rescaled_final/1252_fw.mp4	0.0	1279.959626197815	
6	520.0059590339661	fix_post	2		12	4.0	2.5	/experiments/AOT/AOT_stimuli/rescaled_final/1252_fw.mp4	0.0	1280.8765931129456	0.09980916976928711
7	520.1057682037354	fix_pre	0		120	5.0	2.5	/experiments/AOT/AOT_stimuli/rescaled_final/0318_fw.mp4	0.0	1280.9764022827148	1.0001089572906494
7	520.6892421245575	pulse	0	t		5.0	2.5	/experiments/AOT/AOT_stimuli/rescaled_final/0318_fw.mp4	0.0	1281.559876203537	
7	521.105877161026	movie	1		245	5.0	2.5	/experiments/AOT/AOT_stimuli/rescaled_final/0318_fw.mp4	0.0	1281.9765112400055	2.4999148845672607
7	522.2893850803375	pulse	1	t		5.0	2.5	/experiments/AOT/AOT_stimuli/rescaled_final/0318_fw.mp4	0.0	1283.160019159317	
7	523.6057920455933	fix_post	2		12	5.0	2.5	/experiments/AOT/AOT_stimuli/rescaled_final/0318_fw.mp4	0.0	1284.4764261245728	0.10006213188171387
8	523.705854177475	fix_pre	0		120	6.0	2.5	blank	1.0	1284.5764882564545	0.9999649524688721
8	523.8892850875854	pulse	0	t		6.0	2.5	blank	1.0	1284.759919166565	
8	524.7058191299438	movie	1		300	6.0	2.5	blank	1.0	1285.5764532089233	2.499976873397827
8	525.4892590045929	pulse	1	t		6.0	2.5	blank	1.0	1286.3598930835724	
8	527.0891900062561	pulse	1	t		6.0	2.5	blank	1.0	1287.9598240852356	
8	527.2057960033417	fix_post	2		12	6.0	2.5	blank	1.0	1288.0764300823212	0.09999704360961914
9	527.3057930469513	fix_pre	0		120	7.0	2.5	/experiments/AOT/AOT_stimuli/rescaled_final/1010_fw.mp4	0.0	1288.1764271259308	1.0000700950622559
9	528.3058631420135	movie	1		242	7.0	2.5	/experiments/AOT/AOT_stimuli/rescaled_final/1010_fw.mp4	0.0	1289.176497220993	2.4998390674591064
9	528.688677072525	pulse	1	t		7.0	2.5	/experiments/AOT/AOT_stimuli/rescaled_final/1010_fw.mp4	0.0	1289.5593111515045	
9	530.2892010211945	pulse	1	t		7.0	2.5	/experiments/AOT/AOT_stimuli/rescaled_final/1010_fw.mp4	0.0	1291.159835100174	
9	530.8057022094727	fix_post	2		12	7.0	2.5	/experiments/AOT/AOT_stimuli/rescaled_final/1010_fw.mp4	0.0	1291.6763362884521	0.10019397735595703
10	530.9058961868286	fix_pre	0		111	8.0	2.5	/experiments/AOT/AOT_stimuli/rescaled_final/0004_rv.mp4	0.0	1291.776530265808	0.9916119575500488
10	531.8892312049866	pulse	0	t		8.0	2.5	/experiments/AOT/AOT_stimuli/rescaled_final/0004_rv.mp4	0.0	1292.759865283966	
10	531.8975081443787	movie	1		244	8.0	2.5	/experiments/AOT/AOT_stimuli/rescaled_final/0004_rv.mp4	0.0	1292.7681422233582	2.5083060264587402
10	533.4891710281372	pulse	1	t		8.0	2.5	/experiments/AOT/AOT_stimuli/rescaled_final/0004_rv.mp4	0.0	1294.3598051071167	
10	534.4058141708374	fix_post	2		12	8.0	2.5	/experiments/AOT/AOT_stimuli/rescaled_final/0004_rv.mp4	0.0	1295.276448249817	0.0999898910522461
11	534.5058040618896	fix_pre	0		120	9.0	2.5	/experiments/AOT/AOT_stimuli/rescaled_final/0267_rv.mp4	0.0	1295.3764381408691	0.999932050704956
11	535.0892832279205	pulse	0	t		9.0	2.5	/experiments/AOT/AOT_stimuli/rescaled_final/0267_rv.mp4	0.0	1295.9599173069	
11	535.5057361125946	movie	1		244	9.0	2.5	/experiments/AOT/AOT_stimuli/rescaled_final/0267_rv.mp4	0.0	1296.376370191574	2.4999821186065674
11	536.6893210411072	pulse	1	t		9.0	2.5	/experiments/AOT/AOT_stimuli/rescaled_final/0267_rv.mp4	0.0	1297.5599551200867	
11	538.0057182312012	fix_post	2		12	9.0	2.5	/experiments/AOT/AOT_stimuli/rescaled_final/0267_rv.mp4	0.0	1298.8763523101807	0.10007095336914062
12	538.1057891845703	fix_pre	0		120	10.0	2.5	/experiments/AOT/AOT_stimuli/rescaled_final/0666_rv.mp4	0.0	1298.9764232635498	0.9999959468841553
12	538.2892692089081	pulse	0	t		10.0	2.5	/experiments/AOT/AOT_stimuli/rescaled_final/0666_rv.mp4	0.0	1299.1599032878876	
12	539.1057851314545	movie	1		243	10.0	2.5	/experiments/AOT/AOT_stimuli/rescaled_final/0666_rv.mp4	0.0	1299.976419210434	2.499924898147583
12	539.8893361091614	pulse	1	t		10.0	2.5	/experiments/AOT/AOT_stimuli/rescaled_final/0666_rv.mp4	0.0	1300.7599701881409	
12	541.4878911972046	pulse	1	t		10.0	2.5	/experiments/AOT/AOT_stimuli/rescaled_final/0666_rv.mp4	0.0	1302.358525276184	
12	541.605710029602	fix_post	2		12	10.0	2.5	/experiments/AOT/AOT_stimuli/rescaled_final/0666_rv.mp4	0.0	1302.4763441085815	0.10001611709594727
13	541.705726146698	fix_pre	0		120	11.0	2.5	/experiments/AOT/AOT_stimuli/rescaled_final/2152_rv.mp4	0.0	1302.5763602256775	1.00006103515625
13	542.7057871818542	movie	1		243	11.0	2.5	/experiments/AOT/AOT_stimuli/rescaled_final/2152_rv.mp4	0.0	1303.5764212608337	2.499994993209839
13	543.0886950492859	pulse	1	t		11.0	2.5	/experiments/AOT/AOT_stimuli/rescaled_final/2152_rv.mp4	0.0	1303.9593291282654	
13	544.6891801357269	pulse	1	t		11.0	2.5	/experiments/AOT/AOT_stimuli/rescaled_final/2152_rv.mp4	0.0	1305.5598142147064	
13	545.2057821750641	fix_post	2		12	11.0	2.5	/experiments/AOT/AOT_stimuli/rescaled_final/2152_rv.mp4	0.0	1306.0764162540436	0.09999799728393555
14	545.305780172348	fix_pre	0		119	12.0	2.5	blank	1.0	1306.1764142513275	0.9915988445281982
14	546.2891871929169	pulse	0	t		12.0	2.5	blank	1.0	1307.1598212718964	
14	546.2973790168762	movie	1		301	12.0	2.5	blank	1.0	1307.1680130958557	2.508371114730835
14	547.8892390727997	pulse	1	t		12.0	2.5	blank	1.0	1308.7598731517792	
14	548.805750131607	fix_post	2		12	12.0	2.5	blank	1.0	1309.6763842105865	0.09998393058776855
15	548.9057340621948	fix_pre	0		120	13.0	2.5	/experiments/AOT/AOT_stimuli/rescaled_final/0265_fw.mp4	0.0	1309.7763681411743	1.0000300407409668
15	549.4892570972443	pulse	0	t		13.0	2.5	/experiments/AOT/AOT_stimuli/rescaled_final/0265_fw.mp4	0.0	1310.3598911762238	
15	549.9057641029358	movie	1		243	13.0	2.5	/experiments/AOT/AOT_stimuli/rescaled_final/0265_fw.mp4	0.0	1310.7763981819153	2.499972105026245
15	551.0892531871796	pulse	1	t		13.0	2.5	/experiments/AOT/AOT_stimuli/rescaled_final/0265_fw.mp4	0.0	1311.959887266159	
15	552.405736207962	fix_post	2		12	13.0	2.5	/experiments/AOT/AOT_stimuli/rescaled_final/0265_fw.mp4	0.0	1313.2763702869415	0.09997797012329102
16	552.5057141780853	fix_pre	0		120	14.0	2.5	/experiments/AOT/AOT_stimuli/rescaled_final/1331_rv.mp4	0.0	1313.3763482570648	1.0000109672546387
16	552.6892142295837	pulse	0	t		14.0	2.5	/experiments/AOT/AOT_stimuli/rescaled_final/1331_rv.mp4	0.0	1313.5598483085632	
16	553.50572514534	movie	1		243	14.0	2.5	/experiments/AOT/AOT_stimuli/rescaled_final/1331_rv.mp4	0.0	1314.3763592243195	2.499894857406616
16	554.2891662120819	pulse	1	t		14.0	2.5	/experiments/AOT/AOT_stimuli/rescaled_final/1331_rv.mp4	0.0	1315.1598002910614	
16	555.8892090320587	pulse	1	t		14.0	2.5	/experiments/AOT/AOT_stimuli/rescaled_final/1331_rv.mp4	0.0	1316.7598431110382	
16	556.0056200027466	fix_post	2		12	14.0	2.5	/experiments/AOT/AOT_stimuli/rescaled_final/1331_rv.mp4	0.0	1316.876254081726	0.09999608993530273
17	556.1056160926819	fix_pre	0		120	15.0	2.5	/experiments/AOT/AOT_stimuli/rescaled_final/0169_rv.mp4	0.0	1316.9762501716614	1.0001099109649658
17	557.1057260036469	movie	1		242	15.0	2.5	/experiments/AOT/AOT_stimuli/rescaled_final/0169_rv.mp4	0.0	1317.9763600826263	2.499885082244873
17	557.4901242256165	pulse	1	t		15.0	2.5	/experiments/AOT/AOT_stimuli/rescaled_final/0169_rv.mp4	0.0	1318.360758304596	
17	559.0891220569611	pulse	1	t		15.0	2.5	/experiments/AOT/AOT_stimuli/rescaled_final/0169_rv.mp4	0.0	1319.9597561359406	
17	559.6056110858917	fix_post	2		12	15.0	2.5	/experiments/AOT/AOT_stimuli/rescaled_final/0169_rv.mp4	0.0	1320.4762451648712	0.09994006156921387
18	559.7055511474609	fix_pre	0		119	16.0	2.5	/experiments/AOT/AOT_stimuli/rescaled_final/0251_rv.mp4	0.0	1320.5761852264404	0.9918498992919922
18	560.6892130374908	pulse	0	t		16.0	2.5	/experiments/AOT/AOT_stimuli/rescaled_final/0251_rv.mp4	0.0	1321.5598471164703	
18	560.6974010467529	movie	1		244	16.0	2.5	/experiments/AOT/AOT_stimuli/rescaled_final/0251_rv.mp4	0.0	1321.5680351257324	2.507796049118042
18	562.2891061306	pulse	1	t		16.0	2.5	/experiments/AOT/AOT_stimuli/rescaled_final/0251_rv.mp4	0.0	1323.1597402095795	
18	563.205197095871	fix_post	2		12	16.0	2.5	/experiments/AOT/AOT_stimuli/rescaled_final/0251_rv.mp4	0.0	1324.0758311748505	0.1004490852355957
19	563.3056461811066	fix_pre	0		120	17.0	2.5	/experiments/AOT/AOT_stimuli/rescaled_final/2042_fw.mp4	0.0	1324.176280260086	0.9995949268341064
19	563.8886740207672	pulse	0	t		17.0	2.5	/experiments/AOT/AOT_stimuli/rescaled_final/2042_fw.mp4	0.0	1324.7593080997467	
19	564.3052411079407	movie	1		248	17.0	2.5	/experiments/AOT/AOT_stimuli/rescaled_final/2042_fw.mp4	0.0	1325.1758751869202	2.5002639293670654
19	565.4893460273743	pulse	1	t		17.0	2.5	/experiments/AOT/AOT_stimuli/rescaled_final/2042_fw.mp4	0.0	1326.3599801063538	
19	566.8055050373077	fix_post	2		12	17.0	2.5	/experiments/AOT/AOT_stimuli/rescaled_final/2042_fw.mp4	0.0	1327.6761391162872	0.10048604011535645
20	566.9059910774231	fix_pre	0		120	18.0	2.5	/experiments/AOT/AOT_stimuli/rescaled_final/0986_rv.mp4	0.0	1327.7766251564026	0.9996161460876465
20	567.0889852046967	pulse	0	t		18.0	2.5	/experiments/AOT/AOT_stimuli/rescaled_final/0986_rv.mp4	0.0	1327.9596192836761	
20	567.9056072235107	movie	1		244	18.0	2.5	/experiments/AOT/AOT_stimuli/rescaled_final/0986_rv.mp4	0.0	1328.7762413024902	2.4999349117279053
20	568.6890652179718	pulse	1	t		18.0	2.5	/experiments/AOT/AOT_stimuli/rescaled_final/0986_rv.mp4	0.0	1329.5596992969513	
20	570.2875170707703	pulse	1	t		18.0	2.5	/experiments/AOT/AOT_stimuli/rescaled_final/0986_rv.mp4	0.0	1331.1581511497498	
20	570.4055421352386	fix_post	2		12	18.0	2.5	/experiments/AOT/AOT_stimuli/rescaled_final/0986_rv.mp4	0.0	1331.2761762142181	0.10004186630249023
21	570.5055840015411	fix_pre	0		120	19.0	2.5	/experiments/AOT/AOT_stimuli/rescaled_final/1979_rv.mp4	0.0	1331.3762180805206	0.9999761581420898
21	571.5055601596832	movie	1		242	19.0	2.5	/experiments/AOT/AOT_stimuli/rescaled_final/1979_rv.mp4	0.0	1332.3761942386627	2.500005006790161
21	571.8882551193237	pulse	1	t		19.0	2.5	/experiments/AOT/AOT_stimuli/rescaled_final/1979_rv.mp4	0.0	1332.7588891983032	
21	573.4890651702881	pulse	1	t		19.0	2.5	/experiments/AOT/AOT_stimuli/rescaled_final/1979_rv.mp4	0.0	1334.3596992492676	
21	574.0055651664734	fix_post	2		12	19.0	2.5	/experiments/AOT/AOT_stimuli/rescaled_final/1979_rv.mp4	0.0	1334.8761992454529	0.09992003440856934
22	574.105485200882	fix_pre	0		119	20.0	2.5	/experiments/AOT/AOT_stimuli/rescaled_final/1892_fw.mp4	0.0	1334.9761192798615	0.9917078018188477
22	575.0890412330627	pulse	0	t		20.0	2.5	/experiments/AOT/AOT_stimuli/rescaled_final/1892_fw.mp4	0.0	1335.9596753120422	
22	575.0971930027008	movie	1		244	20.0	2.5	/experiments/AOT/AOT_stimuli/rescaled_final/1892_fw.mp4	0.0	1335.9678270816803	2.5078890323638916
22	576.688579082489	pulse	1	t		20.0	2.5	/experiments/AOT/AOT_stimuli/rescaled_final/1892_fw.mp4	0.0	1337.5592131614685	
22	577.6050820350647	fix_post	2		12	20.0	2.5	/experiments/AOT/AOT_stimuli/rescaled_final/1892_fw.mp4	0.0	1338.4757161140442	0.10047698020935059
23	577.705559015274	fix_pre	0		120	21.0	2.5	blank	1.0	1338.5761930942535	0.9999091625213623
23	578.2890231609344	pulse	0	t		21.0	2.5	blank	1.0	1339.159657239914	
23	578.7054681777954	movie	1		300	21.0	2.5	blank	1.0	1339.576102256775	2.500201940536499
23	579.8889820575714	pulse	1	t		21.0	2.5	blank	1.0	1340.759616136551	
23	581.2056701183319	fix_post	2		12	21.0	2.5	blank	1.0	1342.0763041973114	0.09985089302062988
24	581.3055210113525	fix_pre	0		120	22.0	2.5	/experiments/AOT/AOT_stimuli/rescaled_final/0058_fw.mp4	0.0	1342.176155090332	1.0001130104064941
24	581.4889531135559	pulse	0	t		22.0	2.5	/experiments/AOT/AOT_stimuli/rescaled_final/0058_fw.mp4	0.0	1342.3595871925354	
24	582.305634021759	movie	1		246	22.0	2.5	/experiments/AOT/AOT_stimuli/rescaled_final/0058_fw.mp4	0.0	1343.1762681007385	2.499939203262329
24	583.0890312194824	pulse	1	t		22.0	2.5	/experiments/AOT/AOT_stimuli/rescaled_final/0058_fw.mp4	0.0	1343.959665298462	
24	584.6890079975128	pulse	1	t		22.0	2.5	/experiments/AOT/AOT_stimuli/rescaled_final/0058_fw.mp4	0.0	1345.5596420764923	
24	584.8055732250214	fix_post	2		12	22.0	2.5	/experiments/AOT/AOT_stimuli/rescaled_final/0058_fw.mp4	0.0	1345.6762073040009	0.10001993179321289
25	584.9055931568146	fix_pre	0		120	23.0	2.5	/experiments/AOT/AOT_stimuli/rescaled_final/1275_fw.mp4	0.0	1345.776227235794	0.9999339580535889
25	585.9055271148682	movie	1		245	23.0	2.5	/experiments/AOT/AOT_stimuli/rescaled_final/1275_fw.mp4	0.0	1346.7761611938477	2.5000131130218506
25	586.2900531291962	pulse	1	t		23.0	2.5	/experiments/AOT/AOT_stimuli/rescaled_final/1275_fw.mp4	0.0	1347.1606872081757	
25	587.8889291286469	pulse	1	t		23.0	2.5	/experiments/AOT/AOT_stimuli/rescaled_final/1275_fw.mp4	0.0	1348.7595632076263	
25	588.40554022789	fix_post	2		12	23.0	2.5	/experiments/AOT/AOT_stimuli/rescaled_final/1275_fw.mp4	0.0	1349.2761743068695	0.09995388984680176
26	588.5054941177368	fix_pre	0		119	24.0	2.5	/experiments/AOT/AOT_stimuli/rescaled_final/0040_rv.mp4	0.0	1349.3761281967163	0.9916989803314209
26	589.4888911247253	pulse	0	t		24.0	2.5	/experiments/AOT/AOT_stimuli/rescaled_final/0040_rv.mp4	0.0	1350.3595252037048	
26	589.4971930980682	movie	1		244	24.0	2.5	/experiments/AOT/AOT_stimuli/rescaled_final/0040_rv.mp4	0.0	1350.3678271770477	2.508225917816162
26	591.0886960029602	pulse	1	t		24.0	2.5	/experiments/AOT/AOT_stimuli/rescaled_final/0040_rv.mp4	0.0	1351.9593300819397	
26	592.0054190158844	fix_post	2		12	24.0	2.5	/experiments/AOT/AOT_stimuli/rescaled_final/0040_rv.mp4	0.0	1352.876053094864	0.10007715225219727
27	592.1054961681366	fix_pre	0		120	25.0	2.5	/experiments/AOT/AOT_stimuli/rescaled_final/1509_fw.mp4	0.0	1352.976130247116	1.0000078678131104
27	592.6888990402222	pulse	0	t		25.0	2.5	/experiments/AOT/AOT_stimuli/rescaled_final/1509_fw.mp4	0.0	1353.5595331192017	
27	593.1055040359497	movie	1		244	25.0	2.5	/experiments/AOT/AOT_stimuli/rescaled_final/1509_fw.mp4	0.0	1353.9761381149292	2.4999210834503174
27	594.2890260219574	pulse	1	t		25.0	2.5	/experiments/AOT/AOT_stimuli/rescaled_final/1509_fw.mp4	0.0	1355.159660100937	
27	595.6054251194	fix_post	2		12	25.0	2.5	/experiments/AOT/AOT_stimuli/rescaled_final/1509_fw.mp4	0.0	1356.4760591983795	0.10000991821289062
28	595.7054350376129	fix_pre	0		120	26.0	2.5	blank	1.0	1356.5760691165924	0.9999890327453613
28	595.8889632225037	pulse	0	t		26.0	2.5	blank	1.0	1356.7595973014832	
28	596.7054240703583	movie	1		300	26.0	2.5	blank	1.0	1357.5760581493378	2.5000529289245605
28	597.4888920783997	pulse	1	t		26.0	2.5	blank	1.0	1358.3595261573792	
28	599.0889801979065	pulse	1	t		26.0	2.5	blank	1.0	1359.959614276886	
28	599.2054769992828	fix_post	2		12	26.0	2.5	blank	1.0	1360.0761110782623	0.09991121292114258
29	599.305388212204	fix_pre	0		120	27.0	2.5	/experiments/AOT/AOT_stimuli/rescaled_final/1576_rv.mp4	0.0	1360.1760222911835	1.0079679489135742
29	600.3133561611176	movie	1		243	27.0	2.5	/experiments/AOT/AOT_stimuli/rescaled_final/1576_rv.mp4	0.0	1361.183990240097	2.4920530319213867
29	600.6886131763458	pulse	1	t		27.0	2.5	/experiments/AOT/AOT_stimuli/rescaled_final/1576_rv.mp4	0.0	1361.5592472553253	
29	602.2888572216034	pulse	1	t		27.0	2.5	/experiments/AOT/AOT_stimuli/rescaled_final/1576_rv.mp4	0.0	1363.1594913005829	
29	602.8054091930389	fix_post	2		12	27.0	2.5	/experiments/AOT/AOT_stimuli/rescaled_final/1576_rv.mp4	0.0	1363.6760432720184	0.10004687309265137
30	602.9054560661316	fix_pre	0		119	28.0	2.5	/experiments/AOT/AOT_stimuli/rescaled_final/1694_rv.mp4	0.0	1363.776090145111	0.9917030334472656
30	603.8889801502228	pulse	0	t		28.0	2.5	/experiments/AOT/AOT_stimuli/rescaled_final/1694_rv.mp4	0.0	1364.7596142292023	
30	603.8971590995789	movie	1		245	28.0	2.5	/experiments/AOT/AOT_stimuli/rescaled_final/1694_rv.mp4	0.0	1364.7677931785583	2.5082499980926514
30	605.488676071167	pulse	1	t		28.0	2.5	/experiments/AOT/AOT_stimuli/rescaled_final/1694_rv.mp4	0.0	1366.3593101501465	
30	606.4054090976715	fix_post	2		12	28.0	2.5	/experiments/AOT/AOT_stimuli/rescaled_final/1694_rv.mp4	0.0	1367.276043176651	0.09995412826538086
31	606.5053632259369	fix_pre	0		120	29.0	2.5	/experiments/AOT/AOT_stimuli/rescaled_final/0898_rv.mp4	0.0	1367.3759973049164	1.0000808238983154
31	607.0889401435852	pulse	0	t		29.0	2.5	/experiments/AOT/AOT_stimuli/rescaled_final/0898_rv.mp4	0.0	1367.9595742225647	
31	607.5054440498352	movie	1		243	29.0	2.5	/experiments/AOT/AOT_stimuli/rescaled_final/0898_rv.mp4	0.0	1368.3760781288147	2.4999470710754395
31	608.6889531612396	pulse	1	t		29.0	2.5	/experiments/AOT/AOT_stimuli/rescaled_final/0898_rv.mp4	0.0	1369.5595872402191	
31	610.0053911209106	fix_post	2		12	29.0	2.5	/experiments/AOT/AOT_stimuli/rescaled_final/0898_rv.mp4	0.0	1370.8760251998901	0.09996199607849121
32	610.1053531169891	fix_pre	0		120	30.0	2.5	/experiments/AOT/AOT_stimuli/rescaled_final/0168_rv.mp4	0.0	1370.9759871959686	1.0000190734863281
32	610.2888960838318	pulse	0	t		30.0	2.5	/experiments/AOT/AOT_stimuli/rescaled_final/0168_rv.mp4	0.0	1371.1595301628113	
32	611.1053721904755	movie	1		242	30.0	2.5	/experiments/AOT/AOT_stimuli/rescaled_final/0168_rv.mp4	0.0	1371.976006269455	2.5000228881835938
32	611.8890011310577	pulse	1	t		30.0	2.5	/experiments/AOT/AOT_stimuli/rescaled_final/0168_rv.mp4	0.0	1372.7596352100372	
32	613.487062215805	pulse	1	t		30.0	2.5	/experiments/AOT/AOT_stimuli/rescaled_final/0168_rv.mp4	0.0	1374.3576962947845	
32	613.6053950786591	fix_post	2		12	30.0	2.5	/experiments/AOT/AOT_stimuli/rescaled_final/0168_rv.mp4	0.0	1374.4760291576385	0.09997010231018066
33	613.7053651809692	fix_pre	0		120	31.0	2.5	/experiments/AOT/AOT_stimuli/rescaled_final/0549_fw.mp4	0.0	1374.5759992599487	1.0000338554382324
33	614.7053990364075	movie	1		242	31.0	2.5	/experiments/AOT/AOT_stimuli/rescaled_final/0549_fw.mp4	0.0	1375.576033115387	2.500070095062256
33	615.0897500514984	pulse	1	t		31.0	2.5	/experiments/AOT/AOT_stimuli/rescaled_final/0549_fw.mp4	0.0	1375.960384130478	
33	616.6888711452484	pulse	1	t		31.0	2.5	/experiments/AOT/AOT_stimuli/rescaled_final/0549_fw.mp4	0.0	1377.559505224228	
33	617.2054691314697	fix_post	2		12	31.0	2.5	/experiments/AOT/AOT_stimuli/rescaled_final/0549_fw.mp4	0.0	1378.0761032104492	0.09985089302062988
34	617.3053200244904	fix_pre	0		119	32.0	2.5	/experiments/AOT/AOT_stimuli/rescaled_final/1911_fw.mp4	0.0	1378.1759541034698	0.9917449951171875
34	618.2889001369476	pulse	0	t		32.0	2.5	/experiments/AOT/AOT_stimuli/rescaled_final/1911_fw.mp4	0.0	1379.1595342159271	
34	618.2970650196075	movie	1		243	32.0	2.5	/experiments/AOT/AOT_stimuli/rescaled_final/1911_fw.mp4	0.0	1379.167699098587	2.507916212081909
34	619.887903213501	pulse	1	t		32.0	2.5	/experiments/AOT/AOT_stimuli/rescaled_final/1911_fw.mp4	0.0	1380.7585372924805	
34	620.8049812316895	fix_post	2		12	32.0	2.5	/experiments/AOT/AOT_stimuli/rescaled_final/1911_fw.mp4	0.0	1381.675615310669	0.10002398490905762
35	620.9050052165985	fix_pre	0		120	33.0	2.5	/experiments/AOT/AOT_stimuli/rescaled_final/0422_rv.mp4	0.0	1381.775639295578	1.0001468658447266
35	621.4891171455383	pulse	0	t		33.0	2.5	/experiments/AOT/AOT_stimuli/rescaled_final/0422_rv.mp4	0.0	1382.3597512245178	
35	621.9051520824432	movie	1		243	33.0	2.5	/experiments/AOT/AOT_stimuli/rescaled_final/0422_rv.mp4	0.0	1382.7757861614227	2.5001649856567383
35	623.0888471603394	pulse	1	t		33.0	2.5	/experiments/AOT/AOT_stimuli/rescaled_final/0422_rv.mp4	0.0	1383.9594812393188	
35	624.4053170681	fix_post	2		12	33.0	2.5	/experiments/AOT/AOT_stimuli/rescaled_final/0422_rv.mp4	0.0	1385.2759511470795	0.10006213188171387
36	624.5053791999817	fix_pre	0		120	34.0	2.5	/experiments/AOT/AOT_stimuli/rescaled_final/1216_fw.mp4	0.0	1385.3760132789612	0.9999349117279053
36	624.6887881755829	pulse	0	t		34.0	2.5	/experiments/AOT/AOT_stimuli/rescaled_final/1216_fw.mp4	0.0	1385.5594222545624	
36	625.5053141117096	movie	1		242	34.0	2.5	/experiments/AOT/AOT_stimuli/rescaled_final/1216_fw.mp4	0.0	1386.375948190689	2.5000529289245605
36	626.2888641357422	pulse	1	t		34.0	2.5	/experiments/AOT/AOT_stimuli/rescaled_final/1216_fw.mp4	0.0	1387.1594982147217	
36	627.8872442245483	pulse	1	t		34.0	2.5	/experiments/AOT/AOT_stimuli/rescaled_final/1216_fw.mp4	0.0	1388.7578783035278	
36	628.0053670406342	fix_post	2		12	34.0	2.5	/experiments/AOT/AOT_stimuli/rescaled_final/1216_fw.mp4	0.0	1388.8760011196136	0.09986615180969238
37	628.1052331924438	fix_pre	0		120	35.0	2.5	blank	1.0	1388.9758672714233	1.000067949295044
37	629.1053011417389	movie	1		300	35.0	2.5	blank	1.0	1389.9759352207184	2.4999380111694336
37	629.4888000488281	pulse	1	t		35.0	2.5	blank	1.0	1390.3594341278076	
37	631.0887680053711	pulse	1	t		35.0	2.5	blank	1.0	1391.9594020843506	
37	631.6052391529083	fix_post	2		12	35.0	2.5	blank	1.0	1392.4758732318878	0.10001993179321289
38	631.7052590847015	fix_pre	0		119	36.0	2.5	/experiments/AOT/AOT_stimuli/rescaled_final/0351_rv.mp4	0.0	1392.575893163681	0.9916229248046875
38	632.6888430118561	pulse	0	t		36.0	2.5	/experiments/AOT/AOT_stimuli/rescaled_final/0351_rv.mp4	0.0	1393.5594770908356	
38	632.6968820095062	movie	1		246	36.0	2.5	/experiments/AOT/AOT_stimuli/rescaled_final/0351_rv.mp4	0.0	1393.5675160884857	2.508369207382202
38	634.2887871265411	pulse	1	t		36.0	2.5	/experiments/AOT/AOT_stimuli/rescaled_final/0351_rv.mp4	0.0	1395.1594212055206	
38	635.2052512168884	fix_post	2		12	36.0	2.5	/experiments/AOT/AOT_stimuli/rescaled_final/0351_rv.mp4	0.0	1396.075885295868	0.10001301765441895
39	635.3052642345428	fix_pre	0		120	37.0	2.5	/experiments/AOT/AOT_stimuli/rescaled_final/0348_fw.mp4	0.0	1396.1758983135223	0.9999608993530273
39	635.8887431621552	pulse	0	t		37.0	2.5	/experiments/AOT/AOT_stimuli/rescaled_final/0348_fw.mp4	0.0	1396.7593772411346	
39	636.3052251338959	movie	1		243	37.0	2.5	/experiments/AOT/AOT_stimuli/rescaled_final/0348_fw.mp4	0.0	1397.1758592128754	2.499964952468872
39	637.4887661933899	pulse	1	t		37.0	2.5	/experiments/AOT/AOT_stimuli/rescaled_final/0348_fw.mp4	0.0	1398.3594002723694	
39	638.8051900863647	fix_post	2		12	37.0	2.5	/experiments/AOT/AOT_stimuli/rescaled_final/0348_fw.mp4	0.0	1399.6758241653442	0.10000491142272949
40	638.9051949977875	fix_pre	0		120	38.0	2.5	/experiments/AOT/AOT_stimuli/rescaled_final/0168_rv.mp4	0.0	1399.775829076767	1.0000531673431396
40	639.0886960029602	pulse	0	t		38.0	2.5	/experiments/AOT/AOT_stimuli/rescaled_final/0168_rv.mp4	0.0	1399.9593300819397	
40	639.9052481651306	movie	1		243	38.0	2.5	/experiments/AOT/AOT_stimuli/rescaled_final/0168_rv.mp4	0.0	1400.77588224411	2.4999120235443115
40	640.6887440681458	pulse	1	t		38.0	2.5	/experiments/AOT/AOT_stimuli/rescaled_final/0168_rv.mp4	0.0	1401.5593781471252	
40	642.2869510650635	pulse	1	t		38.0	2.5	/experiments/AOT/AOT_stimuli/rescaled_final/0168_rv.mp4	0.0	1403.157585144043	
40	642.4051601886749	fix_post	2		12	38.0	2.5	/experiments/AOT/AOT_stimuli/rescaled_final/0168_rv.mp4	0.0	1403.2757942676544	0.10007882118225098
41	642.5052390098572	fix_pre	0		120	39.0	2.5	/experiments/AOT/AOT_stimuli/rescaled_final/1162_rv.mp4	0.0	1403.3758730888367	0.9999141693115234
41	643.5051531791687	movie	1		244	39.0	2.5	/experiments/AOT/AOT_stimuli/rescaled_final/1162_rv.mp4	0.0	1404.3757872581482	2.5001609325408936
41	643.8887150287628	pulse	1	t		39.0	2.5	/experiments/AOT/AOT_stimuli/rescaled_final/1162_rv.mp4	0.0	1404.7593491077423	
41	645.4886929988861	pulse	1	t		39.0	2.5	/experiments/AOT/AOT_stimuli/rescaled_final/1162_rv.mp4	0.0	1406.3593270778656	
41	646.0053141117096	fix_post	2		12	39.0	2.5	/experiments/AOT/AOT_stimuli/rescaled_final/1162_rv.mp4	0.0	1406.875948190689	0.09993910789489746
42	646.1052532196045	fix_pre	0		119	40.0	2.5	/experiments/AOT/AOT_stimuli/rescaled_final/1331_rv.mp4	0.0	1406.975887298584	0.9915809631347656
42	647.0887751579285	pulse	0	t		40.0	2.5	/experiments/AOT/AOT_stimuli/rescaled_final/1331_rv.mp4	0.0	1407.959409236908	
42	647.0968341827393	movie	1		245	40.0	2.5	/experiments/AOT/AOT_stimuli/rescaled_final/1331_rv.mp4	0.0	1407.9674682617188	2.508347988128662
42	648.6882650852203	pulse	1	t		40.0	2.5	/experiments/AOT/AOT_stimuli/rescaled_final/1331_rv.mp4	0.0	1409.5588991641998	
42	649.6051821708679	fix_post	2		12	40.0	2.5	/experiments/AOT/AOT_stimuli/rescaled_final/1331_rv.mp4	0.0	1410.4758162498474	0.10008096694946289
43	649.7052631378174	fix_pre	0		120	41.0	2.5	blank	1.0	1410.5758972167969	0.9998998641967773
43	650.2887580394745	pulse	0	t		41.0	2.5	blank	1.0	1411.159392118454	
43	650.7051630020142	movie	1		300	41.0	2.5	blank	1.0	1411.5757970809937	2.5000360012054443
43	651.88867020607	pulse	1	t		41.0	2.5	blank	1.0	1412.7593042850494	
43	653.2051990032196	fix_post	2		12	41.0	2.5	blank	1.0	1414.075833082199	0.100067138671875
44	653.3052661418915	fix_pre	0		120	42.0	2.5	/experiments/AOT/AOT_stimuli/rescaled_final/0116_rv.mp4	0.0	1414.175900220871	0.9999830722808838
44	653.4886322021484	pulse	0	t		42.0	2.5	/experiments/AOT/AOT_stimuli/rescaled_final/0116_rv.mp4	0.0	1414.359266281128	
44	654.3052492141724	movie	1		244	42.0	2.5	/experiments/AOT/AOT_stimuli/rescaled_final/0116_rv.mp4	0.0	1415.1758832931519	2.499976873397827
44	655.0886352062225	pulse	1	t		42.0	2.5	/experiments/AOT/AOT_stimuli/rescaled_final/0116_rv.mp4	0.0	1415.959269285202	
44	656.6881420612335	pulse	1	t		42.0	2.5	/experiments/AOT/AOT_stimuli/rescaled_final/0116_rv.mp4	0.0	1417.558776140213	
44	656.8052260875702	fix_post	2		12	42.0	2.5	/experiments/AOT/AOT_stimuli/rescaled_final/0116_rv.mp4	0.0	1417.6758601665497	0.09997200965881348
45	656.905198097229	fix_pre	0		120	43.0	2.5	/experiments/AOT/AOT_stimuli/rescaled_final/1241_rv.mp4	0.0	1417.7758321762085	1.000011920928955
45	657.905210018158	movie	1		244	43.0	2.5	/experiments/AOT/AOT_stimuli/rescaled_final/1241_rv.mp4	0.0	1418.7758440971375	2.499929189682007
45	658.2881410121918	pulse	1	t		43.0	2.5	/experiments/AOT/AOT_stimuli/rescaled_final/1241_rv.mp4	0.0	1419.1587750911713	
45	659.8886902332306	pulse	1	t		43.0	2.5	/experiments/AOT/AOT_stimuli/rescaled_final/1241_rv.mp4	0.0	1420.75932431221	
45	660.40513920784	fix_post	2		12	43.0	2.5	/experiments/AOT/AOT_stimuli/rescaled_final/1241_rv.mp4	0.0	1421.2757732868195	0.10004186630249023
46	660.5051810741425	fix_pre	0		119	44.0	2.5	/experiments/AOT/AOT_stimuli/rescaled_final/1236_fw.mp4	0.0	1421.375815153122	0.9917941093444824
46	661.4886682033539	pulse	0	t		44.0	2.5	/experiments/AOT/AOT_stimuli/rescaled_final/1236_fw.mp4	0.0	1422.3593022823334	
46	661.4969751834869	movie	1		244	44.0	2.5	/experiments/AOT/AOT_stimuli/rescaled_final/1236_fw.mp4	0.0	1422.3676092624664	2.508227825164795
46	663.0896332263947	pulse	1	t		44.0	2.5	/experiments/AOT/AOT_stimuli/rescaled_final/1236_fw.mp4	0.0	1423.9602673053741	
46	664.0052030086517	fix_post	2		12	44.0	2.5	/experiments/AOT/AOT_stimuli/rescaled_final/1236_fw.mp4	0.0	1424.8758370876312	0.0998990535736084
47	664.1051020622253	fix_pre	0		120	45.0	2.5	/experiments/AOT/AOT_stimuli/rescaled_final/1709_rv.mp4	0.0	1424.9757361412048	1.0000231266021729
47	664.6886460781097	pulse	0	t		45.0	2.5	/experiments/AOT/AOT_stimuli/rescaled_final/1709_rv.mp4	0.0	1425.5592801570892	
47	665.1051251888275	movie	1		242	45.0	2.5	/experiments/AOT/AOT_stimuli/rescaled_final/1709_rv.mp4	0.0	1425.975759267807	2.499614953994751
47	666.2886600494385	pulse	1	t		45.0	2.5	/experiments/AOT/AOT_stimuli/rescaled_final/1709_rv.mp4	0.0	1427.159294128418	
47	667.6047401428223	fix_post	2		12	45.0	2.5	/experiments/AOT/AOT_stimuli/rescaled_final/1709_rv.mp4	0.0	1428.4753742218018	0.1004638671875
48	667.7052040100098	fix_pre	0		120	46.0	2.5	/experiments/AOT/AOT_stimuli/rescaled_final/1303_rv.mp4	0.0	1428.5758380889893	0.999845027923584
48	667.8885869979858	pulse	0	t		46.0	2.5	/experiments/AOT/AOT_stimuli/rescaled_final/1303_rv.mp4	0.0	1428.7592210769653	
48	668.7050490379333	movie	1		241	46.0	2.5	/experiments/AOT/AOT_stimuli/rescaled_final/1303_rv.mp4	0.0	1429.5756831169128	2.500040054321289
48	669.4885520935059	pulse	1	t		46.0	2.5	/experiments/AOT/AOT_stimuli/rescaled_final/1303_rv.mp4	0.0	1430.3591861724854	
48	671.0969891548157	pulse	1	t		46.0	2.5	/experiments/AOT/AOT_stimuli/rescaled_final/1303_rv.mp4	0.0	1431.9676232337952	
48	671.2050890922546	fix_post	2		12	46.0	2.5	/experiments/AOT/AOT_stimuli/rescaled_final/1303_rv.mp4	0.0	1432.0757231712341	0.099945068359375
49	671.305034160614	fix_pre	0		120	47.0	2.5	/experiments/AOT/AOT_stimuli/rescaled_final/0477_rv.mp4	0.0	1432.1756682395935	0.9996929168701172
49	672.3047270774841	movie	1		243	47.0	2.5	/experiments/AOT/AOT_stimuli/rescaled_final/0477_rv.mp4	0.0	1433.1753611564636	2.50032901763916
49	672.6880700588226	pulse	1	t		47.0	2.5	/experiments/AOT/AOT_stimuli/rescaled_final/0477_rv.mp4	0.0	1433.5587041378021	
49	674.2884790897369	pulse	1	t		47.0	2.5	/experiments/AOT/AOT_stimuli/rescaled_final/0477_rv.mp4	0.0	1435.1591131687164	
49	674.8050560951233	fix_post	2		12	47.0	2.5	/experiments/AOT/AOT_stimuli/rescaled_final/0477_rv.mp4	0.0	1435.6756901741028	0.10005497932434082
50	674.9051110744476	fix_pre	0		119	48.0	2.5	/experiments/AOT/AOT_stimuli/rescaled_final/0472_rv.mp4	0.0	1435.7757451534271	0.9912481307983398
50	675.8881351947784	pulse	0	t		48.0	2.5	/experiments/AOT/AOT_stimuli/rescaled_final/0472_rv.mp4	0.0	1436.758769273758	
50	675.896359205246	movie	1		246	48.0	2.5	/experiments/AOT/AOT_stimuli/rescaled_final/0472_rv.mp4	0.0	1436.7669932842255	2.5085949897766113
50	677.488373041153	pulse	1	t		48.0	2.5	/experiments/AOT/AOT_stimuli/rescaled_final/0472_rv.mp4	0.0	1438.3590071201324	
50	678.4049541950226	fix_post	2		12	48.0	2.5	/experiments/AOT/AOT_stimuli/rescaled_final/0472_rv.mp4	0.0	1439.275588274002	0.10002994537353516
51	678.5049841403961	fix_pre	0		120	49.0	2.5	blank	1.0	1439.3756182193756	1.0001449584960938
51	679.0885171890259	pulse	0	t		49.0	2.5	blank	1.0	1439.9591512680054	
51	679.5051290988922	movie	1		300	49.0	2.5	blank	1.0	1440.3757631778717	2.4999289512634277
51	680.6885280609131	pulse	1	t		49.0	2.5	blank	1.0	1441.5591621398926	
51	682.0050580501556	fix_post	2		12	49.0	2.5	blank	1.0	1442.8756921291351	0.10008811950683594
52	682.1051461696625	fix_pre	0		120	50.0	2.5	/experiments/AOT/AOT_stimuli/rescaled_final/1303_fw.mp4	0.0	1442.975780248642	0.9999558925628662
52	682.2886562347412	pulse	0	t		50.0	2.5	/experiments/AOT/AOT_stimuli/rescaled_final/1303_fw.mp4	0.0	1443.1592903137207	
52	683.1051020622253	movie	1		242	50.0	2.5	/experiments/AOT/AOT_stimuli/rescaled_final/1303_fw.mp4	0.0	1443.9757361412048	2.499983072280884
52	683.8883981704712	pulse	1	t		50.0	2.5	/experiments/AOT/AOT_stimuli/rescaled_final/1303_fw.mp4	0.0	1444.7590322494507	
52	685.4869351387024	pulse	1	t		50.0	2.5	/experiments/AOT/AOT_stimuli/rescaled_final/1303_fw.mp4	0.0	1446.3575692176819	
52	685.6050851345062	fix_post	2		12	50.0	2.5	/experiments/AOT/AOT_stimuli/rescaled_final/1303_fw.mp4	0.0	1446.4757192134857	0.09992599487304688
53	685.7050111293793	fix_pre	0		120	51.0	2.5	/experiments/AOT/AOT_stimuli/rescaled_final/0738_fw.mp4	0.0	1446.5756452083588	0.999985933303833
53	686.7049970626831	movie	1		244	51.0	2.5	/experiments/AOT/AOT_stimuli/rescaled_final/0738_fw.mp4	0.0	1447.5756311416626	2.5000460147857666
53	687.0896301269531	pulse	1	t		51.0	2.5	/experiments/AOT/AOT_stimuli/rescaled_final/0738_fw.mp4	0.0	1447.9602642059326	
53	688.68847823143	pulse	1	t		51.0	2.5	/experiments/AOT/AOT_stimuli/rescaled_final/0738_fw.mp4	0.0	1449.5591123104095	
53	689.2050430774689	fix_post	2		12	51.0	2.5	/experiments/AOT/AOT_stimuli/rescaled_final/0738_fw.mp4	0.0	1450.0756771564484	0.0999441146850586
54	689.3049871921539	fix_pre	0		119	52.0	2.5	/experiments/AOT/AOT_stimuli/rescaled_final/1852_fw.mp4	0.0	1450.1756212711334	0.9917399883270264
54	690.2886021137238	pulse	0	t		52.0	2.5	/experiments/AOT/AOT_stimuli/rescaled_final/1852_fw.mp4	0.0	1451.1592361927032	
54	690.296727180481	movie	1		244	52.0	2.5	/experiments/AOT/AOT_stimuli/rescaled_final/1852_fw.mp4	0.0	1451.1673612594604	2.5083160400390625
54	691.8898022174835	pulse	1	t		52.0	2.5	/experiments/AOT/AOT_stimuli/rescaled_final/1852_fw.mp4	0.0	1452.760436296463	
54	692.80504322052	fix_post	2		12	52.0	2.5	/experiments/AOT/AOT_stimuli/rescaled_final/1852_fw.mp4	0.0	1453.6756772994995	0.09991788864135742
55	692.9049611091614	fix_pre	0		120	53.0	2.5	/experiments/AOT/AOT_stimuli/rescaled_final/0896_fw.mp4	0.0	1453.7755951881409	0.999985933303833
55	693.4884600639343	pulse	0	t		53.0	2.5	/experiments/AOT/AOT_stimuli/rescaled_final/0896_fw.mp4	0.0	1454.3590941429138	
55	693.9049470424652	movie	1		242	53.0	2.5	/experiments/AOT/AOT_stimuli/rescaled_final/0896_fw.mp4	0.0	1454.7755811214447	2.5000381469726562
55	695.0885000228882	pulse	1	t		53.0	2.5	/experiments/AOT/AOT_stimuli/rescaled_final/0896_fw.mp4	0.0	1455.9591341018677	
55	696.4049851894379	fix_post	2		12	53.0	2.5	/experiments/AOT/AOT_stimuli/rescaled_final/0896_fw.mp4	0.0	1457.2756192684174	0.09995698928833008
56	696.5049421787262	fix_pre	0		120	54.0	2.5	blank	1.0	1457.3755762577057	0.9999659061431885
56	696.6885411739349	pulse	0	t		54.0	2.5	blank	1.0	1457.5591752529144	
56	697.5049080848694	movie	1		300	54.0	2.5	blank	1.0	1458.3755421638489	2.500005006790161
56	698.2884790897369	pulse	1	t		54.0	2.5	blank	1.0	1459.1591131687164	
56	699.8885221481323	pulse	1	t		54.0	2.5	blank	1.0	1460.7591562271118	
56	700.0049130916595	fix_post	2		12	54.0	2.5	blank	1.0	1460.875547170639	0.09999394416809082
57	700.1049070358276	fix_pre	0		120	55.0	2.5	/experiments/AOT/AOT_stimuli/rescaled_final/1457_fw.mp4	0.0	1460.9755411148071	1.000082015991211
57	701.1049890518188	movie	1		244	55.0	2.5	/experiments/AOT/AOT_stimuli/rescaled_final/1457_fw.mp4	0.0	1461.9756231307983	2.4999029636383057
57	701.4881460666656	pulse	1	t		55.0	2.5	/experiments/AOT/AOT_stimuli/rescaled_final/1457_fw.mp4	0.0	1462.3587801456451	
57	703.0883409976959	pulse	1	t		55.0	2.5	/experiments/AOT/AOT_stimuli/rescaled_final/1457_fw.mp4	0.0	1463.9589750766754	
57	703.6048920154572	fix_post	2		12	55.0	2.5	/experiments/AOT/AOT_stimuli/rescaled_final/1457_fw.mp4	0.0	1464.4755260944366	0.10007500648498535
58	703.7049670219421	fix_pre	0		119	56.0	2.5	/experiments/AOT/AOT_stimuli/rescaled_final/0088_fw.mp4	0.0	1464.5756011009216	0.9916110038757324
58	704.6884291172028	pulse	0	t		56.0	2.5	/experiments/AOT/AOT_stimuli/rescaled_final/0088_fw.mp4	0.0	1465.5590631961823	
58	704.6965780258179	movie	1		247	56.0	2.5	/experiments/AOT/AOT_stimuli/rescaled_final/0088_fw.mp4	0.0	1465.5672121047974	2.508423089981079
58	706.2882120609283	pulse	1	t		56.0	2.5	/experiments/AOT/AOT_stimuli/rescaled_final/0088_fw.mp4	0.0	1467.1588461399078	
58	707.205001115799	fix_post	2		12	56.0	2.5	/experiments/AOT/AOT_stimuli/rescaled_final/0088_fw.mp4	0.0	1468.0756351947784	0.0999600887298584
59	707.3049612045288	fix_pre	0		120	57.0	2.5	/experiments/AOT/AOT_stimuli/rescaled_final/0983_fw.mp4	0.0	1468.1755952835083	0.9999339580535889
59	707.8884201049805	pulse	0	t		57.0	2.5	/experiments/AOT/AOT_stimuli/rescaled_final/0983_fw.mp4	0.0	1468.75905418396	
59	708.3048951625824	movie	1		243	57.0	2.5	/experiments/AOT/AOT_stimuli/rescaled_final/0983_fw.mp4	0.0	1469.175529241562	2.4999680519104004
59	709.4884581565857	pulse	1	t		57.0	2.5	/experiments/AOT/AOT_stimuli/rescaled_final/0983_fw.mp4	0.0	1470.3590922355652	
59	710.8048632144928	fix_post	2		12	57.0	2.5	/experiments/AOT/AOT_stimuli/rescaled_final/0983_fw.mp4	0.0	1471.6754972934723	0.10003280639648438
60	710.9048960208893	fix_pre	0		120	58.0	2.5	/experiments/AOT/AOT_stimuli/rescaled_final/1004_fw.mp4	0.0	1471.7755300998688	1.0000309944152832
60	711.0883600711823	pulse	0	t		58.0	2.5	/experiments/AOT/AOT_stimuli/rescaled_final/1004_fw.mp4	0.0	1471.9589941501617	
60	711.9049270153046	movie	1		243	58.0	2.5	/experiments/AOT/AOT_stimuli/rescaled_final/1004_fw.mp4	0.0	1472.775561094284	2.4999852180480957
60	712.6883890628815	pulse	1	t		58.0	2.5	/experiments/AOT/AOT_stimuli/rescaled_final/1004_fw.mp4	0.0	1473.559023141861	
60	714.2871060371399	pulse	1	t		58.0	2.5	/experiments/AOT/AOT_stimuli/rescaled_final/1004_fw.mp4	0.0	1475.1577401161194	
60	714.4049122333527	fix_post	2		12	58.0	2.5	/experiments/AOT/AOT_stimuli/rescaled_final/1004_fw.mp4	0.0	1475.2755463123322	0.09994792938232422
61	714.504860162735	fix_pre	0		120	59.0	2.5	/experiments/AOT/AOT_stimuli/rescaled_final/0040_fw.mp4	0.0	1475.3754942417145	1.0001280307769775
61	715.504988193512	movie	1		245	59.0	2.5	/experiments/AOT/AOT_stimuli/rescaled_final/0040_fw.mp4	0.0	1476.3756222724915	2.499910831451416
61	715.8885052204132	pulse	1	t		59.0	2.5	/experiments/AOT/AOT_stimuli/rescaled_final/0040_fw.mp4	0.0	1476.7591392993927	
61	717.488447189331	pulse	1	t		59.0	2.5	/experiments/AOT/AOT_stimuli/rescaled_final/0040_fw.mp4	0.0	1478.3590812683105	
61	718.0048990249634	fix_post	2		12	59.0	2.5	/experiments/AOT/AOT_stimuli/rescaled_final/0040_fw.mp4	0.0	1478.8755331039429	0.09999918937683105
62	718.1048982143402	fix_pre	0		118	60.0	2.5	/experiments/AOT/AOT_stimuli/rescaled_final/0190_rv.mp4	0.0	1478.9755322933197	0.9916479587554932
62	719.0883409976959	pulse	0	t		60.0	2.5	/experiments/AOT/AOT_stimuli/rescaled_final/0190_rv.mp4	0.0	1479.9589750766754	
62	719.0965461730957	movie	1		243	60.0	2.5	/experiments/AOT/AOT_stimuli/rescaled_final/0190_rv.mp4	0.0	1479.9671802520752	2.5080249309539795
62	720.6877181529999	pulse	1	t		60.0	2.5	/experiments/AOT/AOT_stimuli/rescaled_final/0190_rv.mp4	0.0	1481.5583522319794	
62	721.6045711040497	fix_post	2		12	60.0	2.5	/experiments/AOT/AOT_stimuli/rescaled_final/0190_rv.mp4	0.0	1482.4752051830292	0.10037612915039062
63	721.7049472332001	fix_pre	0		120	61.0	2.5	blank	1.0	1482.5755813121796	0.9999678134918213
63	722.2882840633392	pulse	0	t		61.0	2.5	blank	1.0	1483.1589181423187	
63	722.7049150466919	movie	1		300	61.0	2.5	blank	1.0	1483.5755491256714	2.5000181198120117
63	723.8883180618286	pulse	1	t		61.0	2.5	blank	1.0	1484.758952140808	
63	725.2049331665039	fix_post	2		12	61.0	2.5	blank	1.0	1486.0755672454834	0.09992790222167969
64	725.3048610687256	fix_pre	0		120	62.0	2.5	/experiments/AOT/AOT_stimuli/rescaled_final/1653_rv.mp4	0.0	1486.175495147705	1.000035047531128
64	725.4883110523224	pulse	0	t		62.0	2.5	/experiments/AOT/AOT_stimuli/rescaled_final/1653_rv.mp4	0.0	1486.3589451313019	
64	726.3048961162567	movie	1		242	62.0	2.5	/experiments/AOT/AOT_stimuli/rescaled_final/1653_rv.mp4	0.0	1487.1755301952362	2.5000030994415283
64	727.0883781909943	pulse	1	t		62.0	2.5	/experiments/AOT/AOT_stimuli/rescaled_final/1653_rv.mp4	0.0	1487.9590122699738	
64	728.6867020130157	pulse	1	t		62.0	2.5	/experiments/AOT/AOT_stimuli/rescaled_final/1653_rv.mp4	0.0	1489.5573360919952	
64	728.8048992156982	fix_post	2		12	62.0	2.5	/experiments/AOT/AOT_stimuli/rescaled_final/1653_rv.mp4	0.0	1489.6755332946777	0.09993481636047363
65	728.9048340320587	fix_pre	0		120	63.0	2.5	/experiments/AOT/AOT_stimuli/rescaled_final/0472_fw.mp4	0.0	1489.7754681110382	1.000002145767212
65	729.9048361778259	movie	1		246	63.0	2.5	/experiments/AOT/AOT_stimuli/rescaled_final/0472_fw.mp4	0.0	1490.7754702568054	2.499629020690918
65	730.2879600524902	pulse	1	t		63.0	2.5	/experiments/AOT/AOT_stimuli/rescaled_final/0472_fw.mp4	0.0	1491.1585941314697	
65	731.8879060745239	pulse	1	t		63.0	2.5	/experiments/AOT/AOT_stimuli/rescaled_final/0472_fw.mp4	0.0	1492.7585401535034	
65	732.4044651985168	fix_post	2		12	63.0	2.5	/experiments/AOT/AOT_stimuli/rescaled_final/0472_fw.mp4	0.0	1493.2750992774963	0.09995698928833008
66	732.5044221878052	fix_pre	0		119	64.0	2.5	/experiments/AOT/AOT_stimuli/rescaled_final/1400_fw.mp4	0.0	1493.3750562667847	0.9918169975280762
66	733.488055229187	pulse	0	t		64.0	2.5	/experiments/AOT/AOT_stimuli/rescaled_final/1400_fw.mp4	0.0	1494.3586893081665	
66	733.4962391853333	movie	1		246	64.0	2.5	/experiments/AOT/AOT_stimuli/rescaled_final/1400_fw.mp4	0.0	1494.3668732643127	2.5085690021514893
66	735.0879812240601	pulse	1	t		64.0	2.5	/experiments/AOT/AOT_stimuli/rescaled_final/1400_fw.mp4	0.0	1495.9586153030396	
66	736.0048081874847	fix_post	2		12	64.0	2.5	/experiments/AOT/AOT_stimuli/rescaled_final/1400_fw.mp4	0.0	1496.8754422664642	0.0999758243560791
67	736.1047840118408	fix_pre	0		120	65.0	2.5	/experiments/AOT/AOT_stimuli/rescaled_final/0006_rv.mp4	0.0	1496.9754180908203	1.0001330375671387
67	736.6882932186127	pulse	0	t		65.0	2.5	/experiments/AOT/AOT_stimuli/rescaled_final/0006_rv.mp4	0.0	1497.5589272975922	
67	737.104917049408	movie	1		242	65.0	2.5	/experiments/AOT/AOT_stimuli/rescaled_final/0006_rv.mp4	0.0	1497.9755511283875	2.4998090267181396
67	738.2882750034332	pulse	1	t		65.0	2.5	/experiments/AOT/AOT_stimuli/rescaled_final/0006_rv.mp4	0.0	1499.1589090824127	
67	739.6047260761261	fix_post	2		12	65.0	2.5	/experiments/AOT/AOT_stimuli/rescaled_final/0006_rv.mp4	0.0	1500.4753601551056	0.10001397132873535
68	739.7047400474548	fix_pre	0		120	66.0	2.5	/experiments/AOT/AOT_stimuli/rescaled_final/1747_rv.mp4	0.0	1500.5753741264343	1.0000131130218506
68	739.8881900310516	pulse	0	t		66.0	2.5	/experiments/AOT/AOT_stimuli/rescaled_final/1747_rv.mp4	0.0	1500.7588241100311	
68	740.7047531604767	movie	1		242	66.0	2.5	/experiments/AOT/AOT_stimuli/rescaled_final/1747_rv.mp4	0.0	1501.5753872394562	2.499647855758667
68	741.4881711006165	pulse	1	t		66.0	2.5	/experiments/AOT/AOT_stimuli/rescaled_final/1747_rv.mp4	0.0	1502.358805179596	
68	743.0867922306061	pulse	1	t		66.0	2.5	/experiments/AOT/AOT_stimuli/rescaled_final/1747_rv.mp4	0.0	1503.9574263095856	
68	743.2044010162354	fix_post	2		12	66.0	2.5	/experiments/AOT/AOT_stimuli/rescaled_final/1747_rv.mp4	0.0	1504.0750350952148	0.10029911994934082
69	743.3047001361847	fix_pre	0		120	67.0	2.5	/experiments/AOT/AOT_stimuli/rescaled_final/0364_rv.mp4	0.0	1504.1753342151642	1.0000619888305664
69	744.3047621250153	movie	1		243	67.0	2.5	/experiments/AOT/AOT_stimuli/rescaled_final/0364_rv.mp4	0.0	1505.1753962039948	2.499953031539917
69	744.6878230571747	pulse	1	t		67.0	2.5	/experiments/AOT/AOT_stimuli/rescaled_final/0364_rv.mp4	0.0	1505.5584571361542	
69	746.2882850170135	pulse	1	t		67.0	2.5	/experiments/AOT/AOT_stimuli/rescaled_final/0364_rv.mp4	0.0	1507.158919095993	
69	746.8047151565552	fix_post	2		12	67.0	2.5	/experiments/AOT/AOT_stimuli/rescaled_final/0364_rv.mp4	0.0	1507.6753492355347	0.09998393058776855
70	746.904699087143	fix_pre	0		119	68.0	2.5	/experiments/AOT/AOT_stimuli/rescaled_final/1182_rv.mp4	0.0	1507.7753331661224	0.9916601181030273
70	747.8882071971893	pulse	0	t		68.0	2.5	/experiments/AOT/AOT_stimuli/rescaled_final/1182_rv.mp4	0.0	1508.7588412761688	
70	747.896359205246	movie	1		244	68.0	2.5	/experiments/AOT/AOT_stimuli/rescaled_final/1182_rv.mp4	0.0	1508.7669932842255	2.5079398155212402
70	749.4878830909729	pulse	1	t		68.0	2.5	/experiments/AOT/AOT_stimuli/rescaled_final/1182_rv.mp4	0.0	1510.3585171699524	
70	750.4042990207672	fix_post	2		12	68.0	2.5	/experiments/AOT/AOT_stimuli/rescaled_final/1182_rv.mp4	0.0	1511.2749330997467	0.10040616989135742
71	750.5047051906586	fix_pre	0		120	69.0	2.5	/experiments/AOT/AOT_stimuli/rescaled_final/1303_rv.mp4	0.0	1511.375339269638	1.0000779628753662
71	751.0883162021637	pulse	0	t		69.0	2.5	/experiments/AOT/AOT_stimuli/rescaled_final/1303_rv.mp4	0.0	1511.9589502811432	
71	751.5047831535339	movie	1		245	69.0	2.5	/experiments/AOT/AOT_stimuli/rescaled_final/1303_rv.mp4	0.0	1512.3754172325134	2.4999969005584717
71	752.6882472038269	pulse	1	t		69.0	2.5	/experiments/AOT/AOT_stimuli/rescaled_final/1303_rv.mp4	0.0	1513.5588812828064	
71	754.0047800540924	fix_post	2		12	69.0	2.5	/experiments/AOT/AOT_stimuli/rescaled_final/1303_rv.mp4	0.0	1514.875414133072	0.0998849868774414
72	754.1046650409698	fix_pre	0		120	70.0	2.5	blank	1.0	1514.9752991199493	0.9999990463256836
72	754.2881841659546	pulse	0	t		70.0	2.5	blank	1.0	1515.158818244934	
72	755.1046640872955	movie	1		300	70.0	2.5	blank	1.0	1515.975298166275	2.499958038330078
72	755.8882582187653	pulse	1	t		70.0	2.5	blank	1.0	1516.7588922977448	
72	757.4881641864777	pulse	1	t		70.0	2.5	blank	1.0	1518.3587982654572	
72	757.6046221256256	fix_post	2		12	70.0	2.5	blank	1.0	1518.475256204605	0.10001492500305176
73	757.7046370506287	fix_pre	0		120	71.0	2.5	/experiments/AOT/AOT_stimuli/rescaled_final/0088_fw.mp4	0.0	1518.5752711296082	1.000020980834961
73	758.7046580314636	movie	1		244	71.0	2.5	/experiments/AOT/AOT_stimuli/rescaled_final/0088_fw.mp4	0.0	1519.5752921104431	2.5000221729278564
73	759.0880191326141	pulse	1	t		71.0	2.5	/experiments/AOT/AOT_stimuli/rescaled_final/0088_fw.mp4	0.0	1519.9586532115936	
73	760.6881380081177	pulse	1	t		71.0	2.5	/experiments/AOT/AOT_stimuli/rescaled_final/0088_fw.mp4	0.0	1521.5587720870972	
73	761.2046802043915	fix_post	2		12	71.0	2.5	/experiments/AOT/AOT_stimuli/rescaled_final/0088_fw.mp4	0.0	1522.075314283371	0.09993290901184082
74	761.3046131134033	fix_pre	0		119	72.0	2.5	/experiments/AOT/AOT_stimuli/rescaled_final/1867_rv.mp4	0.0	1522.1752471923828	0.9916999340057373
74	762.288244009018	pulse	0	t		72.0	2.5	/experiments/AOT/AOT_stimuli/rescaled_final/1867_rv.mp4	0.0	1523.1588780879974	
74	762.2963130474091	movie	1		244	72.0	2.5	/experiments/AOT/AOT_stimuli/rescaled_final/1867_rv.mp4	0.0	1523.1669471263885	2.5083391666412354
74	763.8876111507416	pulse	1	t		72.0	2.5	/experiments/AOT/AOT_stimuli/rescaled_final/1867_rv.mp4	0.0	1524.758245229721	
74	764.8046522140503	fix_post	2		12	72.0	2.5	/experiments/AOT/AOT_stimuli/rescaled_final/1867_rv.mp4	0.0	1525.6752862930298	0.10001897811889648
75	764.9046711921692	fix_pre	0		120	73.0	2.5	/experiments/AOT/AOT_stimuli/rescaled_final/1511_rv.mp4	0.0	1525.7753052711487	0.9998989105224609
75	765.4881432056427	pulse	0	t		73.0	2.5	/experiments/AOT/AOT_stimuli/rescaled_final/1511_rv.mp4	0.0	1526.3587772846222	
75	765.9045701026917	movie	1		242	73.0	2.5	/experiments/AOT/AOT_stimuli/rescaled_final/1511_rv.mp4	0.0	1526.7752041816711	2.500098943710327
75	767.088296175003	pulse	1	t		73.0	2.5	/experiments/AOT/AOT_stimuli/rescaled_final/1511_rv.mp4	0.0	1527.9589302539825	
75	768.404669046402	fix_post	2		12	73.0	2.5	/experiments/AOT/AOT_stimuli/rescaled_final/1511_rv.mp4	0.0	1529.2753031253815	0.10000300407409668
76	768.5046720504761	fix_pre	0		120	74.0	2.5	/experiments/AOT/AOT_stimuli/rescaled_final/1570_fw.mp4	0.0	1529.3753061294556	1.0000100135803223
76	768.6880531311035	pulse	0	t		74.0	2.5	/experiments/AOT/AOT_stimuli/rescaled_final/1570_fw.mp4	0.0	1529.558687210083	
76	769.5046820640564	movie	1		244	74.0	2.5	/experiments/AOT/AOT_stimuli/rescaled_final/1570_fw.mp4	0.0	1530.375316143036	2.499917984008789
76	770.2880430221558	pulse	1	t		74.0	2.5	/experiments/AOT/AOT_stimuli/rescaled_final/1570_fw.mp4	0.0	1531.1586771011353	
76	771.8881361484528	pulse	1	t		74.0	2.5	/experiments/AOT/AOT_stimuli/rescaled_final/1570_fw.mp4	0.0	1532.7587702274323	
76	772.0046000480652	fix_post	2		12	74.0	2.5	/experiments/AOT/AOT_stimuli/rescaled_final/1570_fw.mp4	0.0	1532.8752341270447	0.09997797012329102
77	772.1045780181885	fix_pre	0		120	75.0	2.5	/experiments/AOT/AOT_stimuli/rescaled_final/1543_rv.mp4	0.0	1532.975212097168	1.0000460147857666
77	773.1046240329742	movie	1		243	75.0	2.5	/experiments/AOT/AOT_stimuli/rescaled_final/1543_rv.mp4	0.0	1533.9752581119537	2.4998819828033447
77	773.4877002239227	pulse	1	t		75.0	2.5	/experiments/AOT/AOT_stimuli/rescaled_final/1543_rv.mp4	0.0	1534.3583343029022	
77	775.0880770683289	pulse	1	t		75.0	2.5	/experiments/AOT/AOT_stimuli/rescaled_final/1543_rv.mp4	0.0	1535.9587111473083	
77	775.6045060157776	fix_post	2		12	75.0	2.5	/experiments/AOT/AOT_stimuli/rescaled_final/1543_rv.mp4	0.0	1536.475140094757	0.10013198852539062
78	775.704638004303	fix_pre	0		119	76.0	2.5	blank	1.0	1536.5752720832825	0.9916160106658936
78	776.6880571842194	pulse	0	t		76.0	2.5	blank	1.0	1537.5586912631989	
78	776.6962540149689	movie	1		301	76.0	2.5	blank	1.0	1537.5668880939484	2.5083670616149902
78	778.2880671024323	pulse	1	t		76.0	2.5	blank	1.0	1539.1587011814117	
78	779.2046210765839	fix_post	2		12	76.0	2.5	blank	1.0	1540.0752551555634	0.09994006156921387
79	779.3045611381531	fix_pre	0		120	77.0	2.5	/experiments/AOT/AOT_stimuli/rescaled_final/0965_rv.mp4	0.0	1540.1751952171326	1.0000629425048828
79	779.8880610466003	pulse	0	t		77.0	2.5	/experiments/AOT/AOT_stimuli/rescaled_final/0965_rv.mp4	0.0	1540.7586951255798	
79	780.304624080658	movie	1		243	77.0	2.5	/experiments/AOT/AOT_stimuli/rescaled_final/0965_rv.mp4	0.0	1541.1752581596375	2.4998409748077393
79	781.4881520271301	pulse	1	t		77.0	2.5	/experiments/AOT/AOT_stimuli/rescaled_final/0965_rv.mp4	0.0	1542.3587861061096	
79	782.8044650554657	fix_post	2		12	77.0	2.5	/experiments/AOT/AOT_stimuli/rescaled_final/0965_rv.mp4	0.0	1543.6750991344452	0.1001591682434082
80	782.9046242237091	fix_pre	0		120	78.0	2.5	/experiments/AOT/AOT_stimuli/rescaled_final/0009_fw.mp4	0.0	1543.7752583026886	1.0000078678131104
80	783.0880761146545	pulse	0	t		78.0	2.5	/experiments/AOT/AOT_stimuli/rescaled_final/0009_fw.mp4	0.0	1543.958710193634	
80	783.9046320915222	movie	1		242	78.0	2.5	/experiments/AOT/AOT_stimuli/rescaled_final/0009_fw.mp4	0.0	1544.7752661705017	2.4999349117279053
80	784.6881091594696	pulse	1	t		78.0	2.5	/experiments/AOT/AOT_stimuli/rescaled_final/0009_fw.mp4	0.0	1545.558743238449	
80	786.2966561317444	pulse	1	t		78.0	2.5	/experiments/AOT/AOT_stimuli/rescaled_final/0009_fw.mp4	0.0	1547.1672902107239	
80	786.4045670032501	fix_post	2		12	78.0	2.5	/experiments/AOT/AOT_stimuli/rescaled_final/0009_fw.mp4	0.0	1547.2752010822296	0.10000920295715332
81	786.5045762062073	fix_pre	0		120	79.0	2.5	/experiments/AOT/AOT_stimuli/rescaled_final/2053_fw.mp4	0.0	1547.3752102851868	0.9996309280395508
81	787.5042071342468	movie	1		243	79.0	2.5	/experiments/AOT/AOT_stimuli/rescaled_final/2053_fw.mp4	0.0	1548.3748412132263	2.5001819133758545
81	787.8873951435089	pulse	1	t		79.0	2.5	/experiments/AOT/AOT_stimuli/rescaled_final/2053_fw.mp4	0.0	1548.7580292224884	
81	789.4882681369781	pulse	1	t		79.0	2.5	/experiments/AOT/AOT_stimuli/rescaled_final/2053_fw.mp4	0.0	1550.3589022159576	
81	790.0043890476227	fix_post	2		12	79.0	2.5	/experiments/AOT/AOT_stimuli/rescaled_final/2053_fw.mp4	0.0	1550.8750231266022	0.10011911392211914
82	790.1045081615448	fix_pre	0		119	80.0	2.5	/experiments/AOT/AOT_stimuli/rescaled_final/0896_fw.mp4	0.0	1550.9751422405243	0.9917850494384766
82	791.0880291461945	pulse	0	t		80.0	2.5	/experiments/AOT/AOT_stimuli/rescaled_final/0896_fw.mp4	0.0	1551.958663225174	
82	791.0962932109833	movie	1		245	80.0	2.5	/experiments/AOT/AOT_stimuli/rescaled_final/0896_fw.mp4	0.0	1551.9669272899628	2.5082149505615234
82	792.6875760555267	pulse	1	t		80.0	2.5	/experiments/AOT/AOT_stimuli/rescaled_final/0896_fw.mp4	0.0	1553.5582101345062	
82	793.6045081615448	fix_post	2		12	80.0	2.5	/experiments/AOT/AOT_stimuli/rescaled_final/0896_fw.mp4	0.0	1554.4751422405243	0.10001897811889648
83	793.7045271396637	fix_pre	0		120	81.0	2.5	/experiments/AOT/AOT_stimuli/rescaled_final/1634_rv.mp4	0.0	1554.5751612186432	0.9999639987945557
83	794.2879450321198	pulse	0	t		81.0	2.5	/experiments/AOT/AOT_stimuli/rescaled_final/1634_rv.mp4	0.0	1555.1585791110992	
83	794.7044911384583	movie	1		247	81.0	2.5	/experiments/AOT/AOT_stimuli/rescaled_final/1634_rv.mp4	0.0	1555.5751252174377	2.500001907348633
83	795.8880951404572	pulse	1	t		81.0	2.5	/experiments/AOT/AOT_stimuli/rescaled_final/1634_rv.mp4	0.0	1556.7587292194366	
83	797.2044930458069	fix_post	2		12	81.0	2.5	/experiments/AOT/AOT_stimuli/rescaled_final/1634_rv.mp4	0.0	1558.0751271247864	0.09999418258666992
84	797.3044872283936	fix_pre	0		120	82.0	2.5	/experiments/AOT/AOT_stimuli/rescaled_final/1227_rv.mp4	0.0	1558.175121307373	0.9999639987945557
84	797.4879741668701	pulse	0	t		82.0	2.5	/experiments/AOT/AOT_stimuli/rescaled_final/1227_rv.mp4	0.0	1558.3586082458496	
84	798.3044512271881	movie	1		244	82.0	2.5	/experiments/AOT/AOT_stimuli/rescaled_final/1227_rv.mp4	0.0	1559.1750853061676	2.499966859817505
84	799.0878920555115	pulse	1	t		82.0	2.5	/experiments/AOT/AOT_stimuli/rescaled_final/1227_rv.mp4	0.0	1559.958526134491	
84	800.6963081359863	pulse	1	t		82.0	2.5	/experiments/AOT/AOT_stimuli/rescaled_final/1227_rv.mp4	0.0	1561.5669422149658	
84	800.8044180870056	fix_post	2		12	82.0	2.5	/experiments/AOT/AOT_stimuli/rescaled_final/1227_rv.mp4	0.0	1561.675052165985	0.10000801086425781
85	800.9044260978699	fix_pre	0		120	83.0	2.5	blank	1.0	1561.7750601768494	1.000040054321289
85	801.9044661521912	movie	1		300	83.0	2.5	blank	1.0	1562.7751002311707	2.4999308586120605
85	802.2879440784454	pulse	1	t		83.0	2.5	blank	1.0	1563.158578157425	
85	803.8879652023315	pulse	1	t		83.0	2.5	blank	1.0	1564.758599281311	
85	804.4043970108032	fix_post	2		12	83.0	2.5	blank	1.0	1565.2750310897827	0.1000211238861084
87	804.5044181346893	stim	0		1716					1565.3750522136688	14.299988031387329
87	805.4879140853882	pulse	0	t						1566.3585481643677	
87	807.0879411697388	pulse	0	t						1567.9585752487183	
87	808.6878280639648	pulse	0	t						1569.5584621429443	
87	810.2880001068115	pulse	0	t						1571.158634185791	
87	811.8878390789032	pulse	0	t						1572.7584731578827	
87	813.4879331588745	pulse	0	t						1574.358567237854	
87	815.0878641605377	pulse	0	t						1575.9584982395172	
87	816.6878490447998	pulse	0	t						1577.5584831237793	
87	818.2878592014313	pulse	0	t						1579.1584932804108	
