trial_nr	onset	event_type	phase	response	nr_frames	movie_index	movie_duration	movie_file	blank	onset_abs	duration
0	0.15819025039672852	stim	0		1					16.612921476364136	0.008326530456542969
0	0.15961790084838867	response	0	space						16.614349126815796	
1	0.16651678085327148	stim	0		4708					16.62124800682068	39.25217962265015
1	39.40328526496887	pulse	0	t						55.85801649093628	
1	39.41869640350342	stim	1		1714					55.873427629470825	14.297517538070679
1	40.99788284301758	pulse	1	t						57.452614068984985	
1	42.59814786911011	pulse	1	t						59.052879095077515	
1	44.198285818099976	pulse	1	t						60.65301704406738	
1	45.79861783981323	pulse	1	t						62.25334906578064	
1	47.39891862869263	pulse	1	t						63.853649854660034	
1	48.99926280975342	pulse	1	t						65.45399403572083	
1	50.59935426712036	pulse	1	t						67.05408549308777	
1	52.19958710670471	pulse	1	t						68.65431833267212	
2	53.7162139415741	fix_pre	0		11	0.0	2.5	/experiments/Knapen_AOT/AOT_stimuli/rescaled_final/2066_rv.mp4	0.0	70.1709451675415	0.10836529731750488
2	53.7999746799469	pulse	0	t		0.0	2.5	/experiments/Knapen_AOT/AOT_stimuli/rescaled_final/2066_rv.mp4	0.0	70.2547059059143	
2	53.8245792388916	movie	1		274	0.0	2.5	/experiments/Knapen_AOT/AOT_stimuli/rescaled_final/2066_rv.mp4	0.0	70.27931046485901	2.492095470428467
2	55.40015745162964	pulse	1	t		0.0	2.5	/experiments/Knapen_AOT/AOT_stimuli/rescaled_final/2066_rv.mp4	0.0	71.85488867759705	
2	56.31667470932007	fix_post	2		12	0.0	2.5	/experiments/Knapen_AOT/AOT_stimuli/rescaled_final/2066_rv.mp4	0.0	72.77140593528748	0.10000920295715332
3	56.41668391227722	fix_pre	0		120	1.0	2.5	/experiments/Knapen_AOT/AOT_stimuli/rescaled_final/0815_rv.mp4	0.0	72.87141513824463	1.008425235748291
3	57.00020384788513	pulse	0	t		1.0	2.5	/experiments/Knapen_AOT/AOT_stimuli/rescaled_final/0815_rv.mp4	0.0	73.45493507385254	
3	57.42510914802551	movie	1		292	1.0	2.5	/experiments/Knapen_AOT/AOT_stimuli/rescaled_final/0815_rv.mp4	0.0	73.87984037399292	2.4919984340667725
3	58.59861707687378	pulse	1	t		1.0	2.5	/experiments/Knapen_AOT/AOT_stimuli/rescaled_final/0815_rv.mp4	0.0	75.05334830284119	
3	59.917107582092285	fix_post	2		12	1.0	2.5	/experiments/Knapen_AOT/AOT_stimuli/rescaled_final/0815_rv.mp4	0.0	76.37183880805969	0.10002851486206055
4	60.017136096954346	fix_pre	0		120	2.0	2.5	/experiments/Knapen_AOT/AOT_stimuli/rescaled_final/2068_rv.mp4	0.0	76.47186732292175	1.0085523128509521
4	60.20069932937622	pulse	0	t		2.0	2.5	/experiments/Knapen_AOT/AOT_stimuli/rescaled_final/2068_rv.mp4	0.0	76.65543055534363	
4	61.0256884098053	movie	1		289	2.0	2.5	/experiments/Knapen_AOT/AOT_stimuli/rescaled_final/2068_rv.mp4	0.0	77.4804196357727	2.4919660091400146
4	61.79864573478699	pulse	1	t		2.0	2.5	/experiments/Knapen_AOT/AOT_stimuli/rescaled_final/2068_rv.mp4	0.0	78.2533769607544	
4	63.39931559562683	pulse	1	t		2.0	2.5	/experiments/Knapen_AOT/AOT_stimuli/rescaled_final/2068_rv.mp4	0.0	79.85404682159424	
4	63.51765441894531	fix_post	2		12	2.0	2.5	/experiments/Knapen_AOT/AOT_stimuli/rescaled_final/2068_rv.mp4	0.0	79.97238564491272	0.1000211238861084
5	63.61767554283142	fix_pre	0		120	3.0	2.5	/experiments/Knapen_AOT/AOT_stimuli/rescaled_final/1126_rv.mp4	0.0	80.07240676879883	1.0085020065307617
5	64.62617754936218	movie	1		284	3.0	2.5	/experiments/Knapen_AOT/AOT_stimuli/rescaled_final/1126_rv.mp4	0.0	81.08090877532959	2.492021322250366
5	64.99951696395874	pulse	1	t		3.0	2.5	/experiments/Knapen_AOT/AOT_stimuli/rescaled_final/1126_rv.mp4	0.0	81.45424818992615	
5	66.59975051879883	pulse	1	t		3.0	2.5	/experiments/Knapen_AOT/AOT_stimuli/rescaled_final/1126_rv.mp4	0.0	83.05448174476624	
5	67.11819887161255	fix_post	2		12	3.0	2.5	/experiments/Knapen_AOT/AOT_stimuli/rescaled_final/1126_rv.mp4	0.0	83.57293009757996	0.10003113746643066
6	67.21823000907898	fix_pre	0		119	4.0	2.5	/experiments/Knapen_AOT/AOT_stimuli/rescaled_final/1792_rv.mp4	0.0	83.67296123504639	1.0001723766326904
6	68.20190453529358	pulse	0	t		4.0	2.5	/experiments/Knapen_AOT/AOT_stimuli/rescaled_final/1792_rv.mp4	0.0	84.65663576126099	
6	68.21840238571167	movie	1		284	4.0	2.5	/experiments/Knapen_AOT/AOT_stimuli/rescaled_final/1792_rv.mp4	0.0	84.67313361167908	2.500343084335327
6	69.80048727989197	pulse	1	t		4.0	2.5	/experiments/Knapen_AOT/AOT_stimuli/rescaled_final/1792_rv.mp4	0.0	86.25521850585938	
6	70.718745470047	fix_post	2		12	4.0	2.5	/experiments/Knapen_AOT/AOT_stimuli/rescaled_final/1792_rv.mp4	0.0	87.1734766960144	0.10005640983581543
7	70.81880187988281	fix_pre	0		120	5.0	2.5	blank	1.0	87.27353310585022	1.0000951290130615
7	71.40236592292786	pulse	0	t		5.0	2.5	blank	1.0	87.85709714889526	
7	71.81889700889587	movie	1		300	5.0	2.5	blank	1.0	88.27362823486328	2.500382661819458
7	73.00267481803894	pulse	1	t		5.0	2.5	blank	1.0	89.45740604400635	
7	74.31927967071533	fix_post	2		12	5.0	2.5	blank	1.0	90.77401089668274	0.10007596015930176
8	74.41935563087463	fix_pre	0		120	6.0	2.5	/experiments/Knapen_AOT/AOT_stimuli/rescaled_final/2019_rv.mp4	0.0	90.87408685684204	1.0085015296936035
8	74.6028504371643	pulse	0	t		6.0	2.5	/experiments/Knapen_AOT/AOT_stimuli/rescaled_final/2019_rv.mp4	0.0	91.05758166313171	
8	75.42785716056824	movie	1		286	6.0	2.5	/experiments/Knapen_AOT/AOT_stimuli/rescaled_final/2019_rv.mp4	0.0	91.88258838653564	2.491976737976074
8	76.20119023323059	pulse	1	t		6.0	2.5	/experiments/Knapen_AOT/AOT_stimuli/rescaled_final/2019_rv.mp4	0.0	92.655921459198	
8	77.8012011051178	pulse	1	t		6.0	2.5	/experiments/Knapen_AOT/AOT_stimuli/rescaled_final/2019_rv.mp4	0.0	94.2559323310852	
8	77.91983389854431	fix_post	2		12	6.0	2.5	/experiments/Knapen_AOT/AOT_stimuli/rescaled_final/2019_rv.mp4	0.0	94.37456512451172	0.1000361442565918
9	78.0198700428009	fix_pre	0		120	7.0	2.5	/experiments/Knapen_AOT/AOT_stimuli/rescaled_final/0042_fw.mp4	0.0	94.47460126876831	1.00848388671875
9	79.02835392951965	movie	1		283	7.0	2.5	/experiments/Knapen_AOT/AOT_stimuli/rescaled_final/0042_fw.mp4	0.0	95.48308515548706	2.4920318126678467
9	79.40181636810303	pulse	1	t		7.0	2.5	/experiments/Knapen_AOT/AOT_stimuli/rescaled_final/0042_fw.mp4	0.0	95.85654759407043	
9	81.00146555900574	pulse	1	t		7.0	2.5	/experiments/Knapen_AOT/AOT_stimuli/rescaled_final/0042_fw.mp4	0.0	97.45619678497314	
9	81.5203857421875	fix_post	2		12	7.0	2.5	/experiments/Knapen_AOT/AOT_stimuli/rescaled_final/0042_fw.mp4	0.0	97.97511696815491	0.10012221336364746
10	81.62050795555115	fix_pre	0		119	8.0	2.5	/experiments/Knapen_AOT/AOT_stimuli/rescaled_final/0776_rv.mp4	0.0	98.07523918151855	1.0000474452972412
10	82.6040472984314	pulse	0	t		8.0	2.5	/experiments/Knapen_AOT/AOT_stimuli/rescaled_final/0776_rv.mp4	0.0	99.0587785243988	
10	82.62055540084839	movie	1		292	8.0	2.5	/experiments/Knapen_AOT/AOT_stimuli/rescaled_final/0776_rv.mp4	0.0	99.0752866268158	2.500394821166992
10	84.20287775993347	pulse	1	t		8.0	2.5	/experiments/Knapen_AOT/AOT_stimuli/rescaled_final/0776_rv.mp4	0.0	100.65760898590088	
10	85.12095022201538	fix_post	2		12	8.0	2.5	/experiments/Knapen_AOT/AOT_stimuli/rescaled_final/0776_rv.mp4	0.0	101.57568144798279	0.10004305839538574
11	85.22099328041077	fix_pre	0		120	9.0	2.5	/experiments/Knapen_AOT/AOT_stimuli/rescaled_final/1477_rv.mp4	0.0	101.67572450637817	1.0084247589111328
11	85.80485892295837	pulse	0	t		9.0	2.5	/experiments/Knapen_AOT/AOT_stimuli/rescaled_final/1477_rv.mp4	0.0	102.25959014892578	
11	86.2294180393219	movie	1		292	9.0	2.5	/experiments/Knapen_AOT/AOT_stimuli/rescaled_final/1477_rv.mp4	0.0	102.6841492652893	2.4920382499694824
11	87.40300607681274	pulse	1	t		9.0	2.5	/experiments/Knapen_AOT/AOT_stimuli/rescaled_final/1477_rv.mp4	0.0	103.85773730278015	
11	88.72145628929138	fix_post	2		12	9.0	2.5	/experiments/Knapen_AOT/AOT_stimuli/rescaled_final/1477_rv.mp4	0.0	105.17618751525879	0.10000300407409668
12	88.82145929336548	fix_pre	0		120	10.0	2.5	/experiments/Knapen_AOT/AOT_stimuli/rescaled_final/1141_rv.mp4	0.0	105.27619051933289	1.0086472034454346
12	89.00502443313599	pulse	0	t		10.0	2.5	/experiments/Knapen_AOT/AOT_stimuli/rescaled_final/1141_rv.mp4	0.0	105.4597556591034	
12	89.83010649681091	movie	1		279	10.0	2.5	/experiments/Knapen_AOT/AOT_stimuli/rescaled_final/1141_rv.mp4	0.0	106.28483772277832	2.4918835163116455
12	90.60324048995972	pulse	1	t		10.0	2.5	/experiments/Knapen_AOT/AOT_stimuli/rescaled_final/1141_rv.mp4	0.0	107.05797171592712	
12	92.20362281799316	pulse	1	t		10.0	2.5	/experiments/Knapen_AOT/AOT_stimuli/rescaled_final/1141_rv.mp4	0.0	108.65835404396057	
12	92.32199001312256	fix_post	2		12	10.0	2.5	/experiments/Knapen_AOT/AOT_stimuli/rescaled_final/1141_rv.mp4	0.0	108.77672123908997	0.10002875328063965
13	92.4220187664032	fix_pre	0		120	11.0	2.5	/experiments/Knapen_AOT/AOT_stimuli/rescaled_final/2005_rv.mp4	0.0	108.8767499923706	1.0085020065307617
13	93.43052077293396	movie	1		272	11.0	2.5	/experiments/Knapen_AOT/AOT_stimuli/rescaled_final/2005_rv.mp4	0.0	109.88525199890137	2.492027759552002
13	93.80437803268433	pulse	1	t		11.0	2.5	/experiments/Knapen_AOT/AOT_stimuli/rescaled_final/2005_rv.mp4	0.0	110.25910925865173	
13	95.4040424823761	pulse	1	t		11.0	2.5	/experiments/Knapen_AOT/AOT_stimuli/rescaled_final/2005_rv.mp4	0.0	111.8587737083435	
13	95.92254853248596	fix_post	2		12	11.0	2.5	/experiments/Knapen_AOT/AOT_stimuli/rescaled_final/2005_rv.mp4	0.0	112.37727975845337	0.1000056266784668
14	96.02255415916443	fix_pre	0		118	12.0	2.5	blank	1.0	112.47728538513184	0.9834647178649902
14	96.99845600128174	pulse	0	t		12.0	2.5	blank	1.0	113.45318722724915	
14	97.00601887702942	movie	1		301	12.0	2.5	blank	1.0	113.46075010299683	2.508718490600586
14	98.59813833236694	pulse	1	t		12.0	2.5	blank	1.0	115.05286955833435	
14	99.51473736763	fix_post	2		12	12.0	2.5	blank	1.0	115.96946859359741	0.1000208854675293
15	99.61475825309753	fix_pre	0		120	13.0	2.5	/experiments/Knapen_AOT/AOT_stimuli/rescaled_final/2178_rv.mp4	0.0	116.06948947906494	1.0085020065307617
15	100.19844341278076	pulse	0	t		13.0	2.5	/experiments/Knapen_AOT/AOT_stimuli/rescaled_final/2178_rv.mp4	0.0	116.65317463874817	
15	100.6232602596283	movie	1		285	13.0	2.5	/experiments/Knapen_AOT/AOT_stimuli/rescaled_final/2178_rv.mp4	0.0	117.0779914855957	2.4920454025268555
15	101.79863095283508	pulse	1	t		13.0	2.5	/experiments/Knapen_AOT/AOT_stimuli/rescaled_final/2178_rv.mp4	0.0	118.25336217880249	
15	103.11530566215515	fix_post	2		12	13.0	2.5	/experiments/Knapen_AOT/AOT_stimuli/rescaled_final/2178_rv.mp4	0.0	119.57003688812256	0.0999898910522461
16	103.2152955532074	fix_pre	0		120	14.0	2.5	/experiments/Knapen_AOT/AOT_stimuli/rescaled_final/0224_fw.mp4	0.0	119.6700267791748	1.0085647106170654
16	103.39888095855713	pulse	0	t		14.0	2.5	/experiments/Knapen_AOT/AOT_stimuli/rescaled_final/0224_fw.mp4	0.0	119.85361218452454	
16	104.22386026382446	movie	1		283	14.0	2.5	/experiments/Knapen_AOT/AOT_stimuli/rescaled_final/0224_fw.mp4	0.0	120.67859148979187	2.4919638633728027
16	104.99908542633057	pulse	1	t		14.0	2.5	/experiments/Knapen_AOT/AOT_stimuli/rescaled_final/0224_fw.mp4	0.0	121.45381665229797	
16	106.59931683540344	pulse	1	t		14.0	2.5	/experiments/Knapen_AOT/AOT_stimuli/rescaled_final/0224_fw.mp4	0.0	123.05404806137085	
16	106.71582412719727	fix_post	2		12	14.0	2.5	/experiments/Knapen_AOT/AOT_stimuli/rescaled_final/0224_fw.mp4	0.0	123.17055535316467	0.10001063346862793
17	106.8158347606659	fix_pre	0		120	15.0	2.5	/experiments/Knapen_AOT/AOT_stimuli/rescaled_final/1009_rv.mp4	0.0	123.2705659866333	1.0085322856903076
17	107.8243670463562	movie	1		281	15.0	2.5	/experiments/Knapen_AOT/AOT_stimuli/rescaled_final/1009_rv.mp4	0.0	124.27909827232361	2.491983413696289
17	108.19987440109253	pulse	1	t		15.0	2.5	/experiments/Knapen_AOT/AOT_stimuli/rescaled_final/1009_rv.mp4	0.0	124.65460562705994	
17	109.79983067512512	pulse	1	t		15.0	2.5	/experiments/Knapen_AOT/AOT_stimuli/rescaled_final/1009_rv.mp4	0.0	126.25456190109253	
17	110.31635046005249	fix_post	2		12	15.0	2.5	/experiments/Knapen_AOT/AOT_stimuli/rescaled_final/1009_rv.mp4	0.0	126.7710816860199	0.10002374649047852
18	110.41637420654297	fix_pre	0		119	16.0	2.5	/experiments/Knapen_AOT/AOT_stimuli/rescaled_final/1680_rv.mp4	0.0	126.87110543251038	1.000166416168213
18	111.40007853507996	pulse	0	t		16.0	2.5	/experiments/Knapen_AOT/AOT_stimuli/rescaled_final/1680_rv.mp4	0.0	127.85480976104736	
18	111.41654062271118	movie	1		288	16.0	2.5	/experiments/Knapen_AOT/AOT_stimuli/rescaled_final/1680_rv.mp4	0.0	127.87127184867859	2.500398635864258
18	112.9988899230957	pulse	1	t		16.0	2.5	/experiments/Knapen_AOT/AOT_stimuli/rescaled_final/1680_rv.mp4	0.0	129.4536211490631	
18	113.91693925857544	fix_post	2		12	16.0	2.5	/experiments/Knapen_AOT/AOT_stimuli/rescaled_final/1680_rv.mp4	0.0	130.37167048454285	0.09999346733093262
19	114.01693272590637	fix_pre	0		120	17.0	2.5	/experiments/Knapen_AOT/AOT_stimuli/rescaled_final/1601_fw.mp4	0.0	130.47166395187378	1.0085082054138184
19	114.60052251815796	pulse	0	t		17.0	2.5	/experiments/Knapen_AOT/AOT_stimuli/rescaled_final/1601_fw.mp4	0.0	131.05525374412537	
19	115.02544093132019	movie	1		288	17.0	2.5	/experiments/Knapen_AOT/AOT_stimuli/rescaled_final/1601_fw.mp4	0.0	131.4801721572876	2.491999387741089
19	116.19890856742859	pulse	1	t		17.0	2.5	/experiments/Knapen_AOT/AOT_stimuli/rescaled_final/1601_fw.mp4	0.0	132.653639793396	
19	117.51744031906128	fix_post	2		12	17.0	2.5	/experiments/Knapen_AOT/AOT_stimuli/rescaled_final/1601_fw.mp4	0.0	133.9721715450287	0.10002398490905762
20	117.61746430397034	fix_pre	0		120	18.0	2.5	/experiments/Knapen_AOT/AOT_stimuli/rescaled_final/0509_rv.mp4	0.0	134.07219552993774	1.0084993839263916
20	117.8010950088501	pulse	0	t		18.0	2.5	/experiments/Knapen_AOT/AOT_stimuli/rescaled_final/0509_rv.mp4	0.0	134.2558262348175	
20	118.62596368789673	movie	1		281	18.0	2.5	/experiments/Knapen_AOT/AOT_stimuli/rescaled_final/0509_rv.mp4	0.0	135.08069491386414	2.4920036792755127
20	119.39906096458435	pulse	1	t		18.0	2.5	/experiments/Knapen_AOT/AOT_stimuli/rescaled_final/0509_rv.mp4	0.0	135.85379219055176	
20	120.999587059021	pulse	1	t		18.0	2.5	/experiments/Knapen_AOT/AOT_stimuli/rescaled_final/0509_rv.mp4	0.0	137.4543182849884	
20	121.11796736717224	fix_post	2		12	18.0	2.5	/experiments/Knapen_AOT/AOT_stimuli/rescaled_final/0509_rv.mp4	0.0	137.57269859313965	0.10003089904785156
21	121.21799826622009	fix_pre	0		120	19.0	2.5	/experiments/Knapen_AOT/AOT_stimuli/rescaled_final/0913_fw.mp4	0.0	137.6727294921875	1.0084969997406006
21	122.2264952659607	movie	1		284	19.0	2.5	/experiments/Knapen_AOT/AOT_stimuli/rescaled_final/0913_fw.mp4	0.0	138.6812264919281	2.49204421043396
21	122.60004448890686	pulse	1	t		19.0	2.5	/experiments/Knapen_AOT/AOT_stimuli/rescaled_final/0913_fw.mp4	0.0	139.05477571487427	
21	124.2002854347229	pulse	1	t		19.0	2.5	/experiments/Knapen_AOT/AOT_stimuli/rescaled_final/0913_fw.mp4	0.0	140.6550166606903	
21	124.71853947639465	fix_post	2		12	19.0	2.5	/experiments/Knapen_AOT/AOT_stimuli/rescaled_final/0913_fw.mp4	0.0	141.17327070236206	0.10003495216369629
22	124.81857442855835	fix_pre	0		119	20.0	2.5	/experiments/Knapen_AOT/AOT_stimuli/rescaled_final/1137_fw.mp4	0.0	141.27330565452576	1.0002949237823486
22	125.80232548713684	pulse	0	t		20.0	2.5	/experiments/Knapen_AOT/AOT_stimuli/rescaled_final/1137_fw.mp4	0.0	142.25705671310425	
22	125.8188693523407	movie	1		270	20.0	2.5	/experiments/Knapen_AOT/AOT_stimuli/rescaled_final/1137_fw.mp4	0.0	142.2736005783081	2.5002102851867676
22	127.40276074409485	pulse	1	t		20.0	2.5	/experiments/Knapen_AOT/AOT_stimuli/rescaled_final/1137_fw.mp4	0.0	143.85749197006226	
22	128.31907963752747	fix_post	2		12	20.0	2.5	/experiments/Knapen_AOT/AOT_stimuli/rescaled_final/1137_fw.mp4	0.0	144.77381086349487	0.10001039505004883
23	128.41909003257751	fix_pre	0		120	21.0	2.5	blank	1.0	144.87382125854492	1.0001435279846191
23	129.00289106369019	pulse	0	t		21.0	2.5	blank	1.0	145.4576222896576	
23	129.41923356056213	movie	1		300	21.0	2.5	blank	1.0	145.87396478652954	2.500387191772461
23	130.60301160812378	pulse	1	t		21.0	2.5	blank	1.0	147.0577428340912	
23	131.9196207523346	fix_post	2		12	21.0	2.5	blank	1.0	148.374351978302	0.10002589225769043
24	132.01964664459229	fix_pre	0		120	22.0	2.5	/experiments/Knapen_AOT/AOT_stimuli/rescaled_final/1416_rv.mp4	0.0	148.4743778705597	1.0084795951843262
24	132.2032446861267	pulse	0	t		22.0	2.5	/experiments/Knapen_AOT/AOT_stimuli/rescaled_final/1416_rv.mp4	0.0	148.65797591209412	
24	133.0281262397766	movie	1		284	22.0	2.5	/experiments/Knapen_AOT/AOT_stimuli/rescaled_final/1416_rv.mp4	0.0	149.48285746574402	2.492027759552002
24	133.80147242546082	pulse	1	t		22.0	2.5	/experiments/Knapen_AOT/AOT_stimuli/rescaled_final/1416_rv.mp4	0.0	150.25620365142822	
24	135.4014105796814	pulse	1	t		22.0	2.5	/experiments/Knapen_AOT/AOT_stimuli/rescaled_final/1416_rv.mp4	0.0	151.8561418056488	
24	135.5201539993286	fix_post	2		12	22.0	2.5	/experiments/Knapen_AOT/AOT_stimuli/rescaled_final/1416_rv.mp4	0.0	151.97488522529602	0.10001444816589355
25	135.6201684474945	fix_pre	0		120	23.0	2.5	/experiments/Knapen_AOT/AOT_stimuli/rescaled_final/0146_fw.mp4	0.0	152.0748996734619	1.0085227489471436
25	136.62869119644165	movie	1		276	23.0	2.5	/experiments/Knapen_AOT/AOT_stimuli/rescaled_final/0146_fw.mp4	0.0	153.08342242240906	2.491985321044922
25	137.00231266021729	pulse	1	t		23.0	2.5	/experiments/Knapen_AOT/AOT_stimuli/rescaled_final/0146_fw.mp4	0.0	153.4570438861847	
25	138.60236620903015	pulse	1	t		23.0	2.5	/experiments/Knapen_AOT/AOT_stimuli/rescaled_final/0146_fw.mp4	0.0	155.05709743499756	
25	139.12067651748657	fix_post	2		12	23.0	2.5	/experiments/Knapen_AOT/AOT_stimuli/rescaled_final/0146_fw.mp4	0.0	155.57540774345398	0.10002017021179199
26	139.22069668769836	fix_pre	0		119	24.0	2.5	/experiments/Knapen_AOT/AOT_stimuli/rescaled_final/2064_rv.mp4	0.0	155.67542791366577	1.0001883506774902
26	140.20438766479492	pulse	0	t		24.0	2.5	/experiments/Knapen_AOT/AOT_stimuli/rescaled_final/2064_rv.mp4	0.0	156.65911889076233	
26	140.22088503837585	movie	1		278	24.0	2.5	/experiments/Knapen_AOT/AOT_stimuli/rescaled_final/2064_rv.mp4	0.0	156.67561626434326	2.5003559589385986
26	141.80406379699707	pulse	1	t		24.0	2.5	/experiments/Knapen_AOT/AOT_stimuli/rescaled_final/2064_rv.mp4	0.0	158.25879502296448	
26	142.72124099731445	fix_post	2		12	24.0	2.5	/experiments/Knapen_AOT/AOT_stimuli/rescaled_final/2064_rv.mp4	0.0	159.17597222328186	0.10000205039978027
27	142.82124304771423	fix_pre	0		120	25.0	2.5	/experiments/Knapen_AOT/AOT_stimuli/rescaled_final/0523_fw.mp4	0.0	159.27597427368164	1.008512020111084
27	143.4049141407013	pulse	0	t		25.0	2.5	/experiments/Knapen_AOT/AOT_stimuli/rescaled_final/0523_fw.mp4	0.0	159.8596453666687	
27	143.82975506782532	movie	1		277	25.0	2.5	/experiments/Knapen_AOT/AOT_stimuli/rescaled_final/0523_fw.mp4	0.0	160.28448629379272	2.492013931274414
27	145.00317645072937	pulse	1	t		25.0	2.5	/experiments/Knapen_AOT/AOT_stimuli/rescaled_final/0523_fw.mp4	0.0	161.45790767669678	
27	146.32176899909973	fix_post	2		12	25.0	2.5	/experiments/Knapen_AOT/AOT_stimuli/rescaled_final/0523_fw.mp4	0.0	162.77650022506714	0.1000213623046875
28	146.42179036140442	fix_pre	0		120	26.0	2.5	/experiments/Knapen_AOT/AOT_stimuli/rescaled_final/0318_rv.mp4	0.0	162.87652158737183	1.0085022449493408
28	146.6053454875946	pulse	0	t		26.0	2.5	/experiments/Knapen_AOT/AOT_stimuli/rescaled_final/0318_rv.mp4	0.0	163.060076713562	
28	147.43029260635376	movie	1		277	26.0	2.5	/experiments/Knapen_AOT/AOT_stimuli/rescaled_final/0318_rv.mp4	0.0	163.88502383232117	2.4920172691345215
28	148.20466208457947	pulse	1	t		26.0	2.5	/experiments/Knapen_AOT/AOT_stimuli/rescaled_final/0318_rv.mp4	0.0	164.65939331054688	
28	149.80390858650208	pulse	1	t		26.0	2.5	/experiments/Knapen_AOT/AOT_stimuli/rescaled_final/0318_rv.mp4	0.0	166.25863981246948	
28	149.92230987548828	fix_post	2		12	26.0	2.5	/experiments/Knapen_AOT/AOT_stimuli/rescaled_final/0318_rv.mp4	0.0	166.3770411014557	0.10003089904785156
29	150.02234077453613	fix_pre	0		120	27.0	2.5	blank	1.0	166.47707200050354	1.000126600265503
29	151.02246737480164	movie	1		300	27.0	2.5	blank	1.0	167.47719860076904	2.5003750324249268
29	151.4063377380371	pulse	1	t		27.0	2.5	blank	1.0	167.86106896400452	
29	152.9986560344696	pulse	1	t		27.0	2.5	blank	1.0	169.453387260437	
29	153.52284240722656	fix_post	2		12	27.0	2.5	blank	1.0	169.97757363319397	0.10002422332763672
30	153.6228666305542	fix_pre	0		118	28.0	2.5	/experiments/Knapen_AOT/AOT_stimuli/rescaled_final/0402_fw.mp4	0.0	170.0775978565216	0.9918313026428223
30	154.5986840724945	pulse	0	t		28.0	2.5	/experiments/Knapen_AOT/AOT_stimuli/rescaled_final/0402_fw.mp4	0.0	171.0534152984619	
30	154.61469793319702	movie	1		286	28.0	2.5	/experiments/Knapen_AOT/AOT_stimuli/rescaled_final/0402_fw.mp4	0.0	171.06942915916443	2.5003626346588135
30	156.1986448764801	pulse	1	t		28.0	2.5	/experiments/Knapen_AOT/AOT_stimuli/rescaled_final/0402_fw.mp4	0.0	172.6533761024475	
30	157.11506056785583	fix_post	2		12	28.0	2.5	/experiments/Knapen_AOT/AOT_stimuli/rescaled_final/0402_fw.mp4	0.0	173.56979179382324	0.10001277923583984
31	157.21507334709167	fix_pre	0		120	29.0	2.5	/experiments/Knapen_AOT/AOT_stimuli/rescaled_final/1315_fw.mp4	0.0	173.66980457305908	1.0084805488586426
31	157.79874897003174	pulse	0	t		29.0	2.5	/experiments/Knapen_AOT/AOT_stimuli/rescaled_final/1315_fw.mp4	0.0	174.25348019599915	
31	158.22355389595032	movie	1		277	29.0	2.5	/experiments/Knapen_AOT/AOT_stimuli/rescaled_final/1315_fw.mp4	0.0	174.67828512191772	2.492095708847046
31	159.3991343975067	pulse	1	t		29.0	2.5	/experiments/Knapen_AOT/AOT_stimuli/rescaled_final/1315_fw.mp4	0.0	175.85386562347412	
31	160.71564960479736	fix_post	2		12	29.0	2.5	/experiments/Knapen_AOT/AOT_stimuli/rescaled_final/1315_fw.mp4	0.0	177.17038083076477	0.09998130798339844
32	160.81563091278076	fix_pre	0		120	30.0	2.5	/experiments/Knapen_AOT/AOT_stimuli/rescaled_final/1092_fw.mp4	0.0	177.27036213874817	1.008493185043335
32	160.99919271469116	pulse	0	t		30.0	2.5	/experiments/Knapen_AOT/AOT_stimuli/rescaled_final/1092_fw.mp4	0.0	177.45392394065857	
32	161.8241240978241	movie	1		279	30.0	2.5	/experiments/Knapen_AOT/AOT_stimuli/rescaled_final/1092_fw.mp4	0.0	178.2788553237915	2.4920151233673096
32	162.59941577911377	pulse	1	t		30.0	2.5	/experiments/Knapen_AOT/AOT_stimuli/rescaled_final/1092_fw.mp4	0.0	179.05414700508118	
32	164.19973993301392	pulse	1	t		30.0	2.5	/experiments/Knapen_AOT/AOT_stimuli/rescaled_final/1092_fw.mp4	0.0	180.65447115898132	
32	164.3161392211914	fix_post	2		12	30.0	2.5	/experiments/Knapen_AOT/AOT_stimuli/rescaled_final/1092_fw.mp4	0.0	180.7708704471588	0.10002422332763672
33	164.41616344451904	fix_pre	0		120	31.0	2.5	/experiments/Knapen_AOT/AOT_stimuli/rescaled_final/0333_rv.mp4	0.0	180.87089467048645	1.0084993839263916
33	165.42466282844543	movie	1		282	31.0	2.5	/experiments/Knapen_AOT/AOT_stimuli/rescaled_final/0333_rv.mp4	0.0	181.87939405441284	2.4920191764831543
33	165.80023837089539	pulse	1	t		31.0	2.5	/experiments/Knapen_AOT/AOT_stimuli/rescaled_final/0333_rv.mp4	0.0	182.2549695968628	
33	167.40032052993774	pulse	1	t		31.0	2.5	/experiments/Knapen_AOT/AOT_stimuli/rescaled_final/0333_rv.mp4	0.0	183.85505175590515	
33	167.9166820049286	fix_post	2		12	31.0	2.5	/experiments/Knapen_AOT/AOT_stimuli/rescaled_final/0333_rv.mp4	0.0	184.371413230896	0.1000220775604248
34	168.016704082489	fix_pre	0		119	32.0	2.5	/experiments/Knapen_AOT/AOT_stimuli/rescaled_final/0130_fw.mp4	0.0	184.47143530845642	1.0001604557037354
34	169.00049138069153	pulse	0	t		32.0	2.5	/experiments/Knapen_AOT/AOT_stimuli/rescaled_final/0130_fw.mp4	0.0	185.45522260665894	
34	169.01686453819275	movie	1		279	32.0	2.5	/experiments/Knapen_AOT/AOT_stimuli/rescaled_final/0130_fw.mp4	0.0	185.47159576416016	2.5003550052642822
34	170.5990149974823	pulse	1	t		32.0	2.5	/experiments/Knapen_AOT/AOT_stimuli/rescaled_final/0130_fw.mp4	0.0	187.0537462234497	
34	171.51721954345703	fix_post	2		12	32.0	2.5	/experiments/Knapen_AOT/AOT_stimuli/rescaled_final/0130_fw.mp4	0.0	187.97195076942444	0.10001850128173828
35	171.61723804473877	fix_pre	0		120	33.0	2.5	blank	1.0	188.07196927070618	1.0001537799835205
35	172.20099902153015	pulse	0	t		33.0	2.5	blank	1.0	188.65573024749756	
35	172.6173918247223	movie	1		300	33.0	2.5	blank	1.0	189.0721230506897	2.5004212856292725
35	173.80137848854065	pulse	1	t		33.0	2.5	blank	1.0	190.25610971450806	
35	175.11781311035156	fix_post	2		12	33.0	2.5	blank	1.0	191.57254433631897	0.09998011589050293
36	175.21779322624207	fix_pre	0		120	34.0	2.5	/experiments/Knapen_AOT/AOT_stimuli/rescaled_final/0484_fw.mp4	0.0	191.67252445220947	1.0084795951843262
36	175.40175771713257	pulse	0	t		34.0	2.5	/experiments/Knapen_AOT/AOT_stimuli/rescaled_final/0484_fw.mp4	0.0	191.85648894309998	
36	176.2262728214264	movie	1		288	34.0	2.5	/experiments/Knapen_AOT/AOT_stimuli/rescaled_final/0484_fw.mp4	0.0	192.6810040473938	2.4920294284820557
36	176.99974250793457	pulse	1	t		34.0	2.5	/experiments/Knapen_AOT/AOT_stimuli/rescaled_final/0484_fw.mp4	0.0	193.45447373390198	
36	178.6000497341156	pulse	1	t		34.0	2.5	/experiments/Knapen_AOT/AOT_stimuli/rescaled_final/0484_fw.mp4	0.0	195.054780960083	
36	178.71830224990845	fix_post	2		12	34.0	2.5	/experiments/Knapen_AOT/AOT_stimuli/rescaled_final/0484_fw.mp4	0.0	195.17303347587585	0.10002017021179199
37	178.81832242012024	fix_pre	0		120	35.0	2.5	/experiments/Knapen_AOT/AOT_stimuli/rescaled_final/1397_fw.mp4	0.0	195.27305364608765	1.0085482597351074
37	179.82687067985535	movie	1		284	35.0	2.5	/experiments/Knapen_AOT/AOT_stimuli/rescaled_final/1397_fw.mp4	0.0	196.28160190582275	2.4919850826263428
37	180.200745344162	pulse	1	t		35.0	2.5	/experiments/Knapen_AOT/AOT_stimuli/rescaled_final/1397_fw.mp4	0.0	196.6554765701294	
37	181.80061721801758	pulse	1	t		35.0	2.5	/experiments/Knapen_AOT/AOT_stimuli/rescaled_final/1397_fw.mp4	0.0	198.25534844398499	
37	182.3188557624817	fix_post	2		12	35.0	2.5	/experiments/Knapen_AOT/AOT_stimuli/rescaled_final/1397_fw.mp4	0.0	198.7735869884491	0.10007619857788086
38	182.41893196105957	fix_pre	0		119	36.0	2.5	/experiments/Knapen_AOT/AOT_stimuli/rescaled_final/1680_fw.mp4	0.0	198.87366318702698	1.0002069473266602
38	183.40282344818115	pulse	0	t		36.0	2.5	/experiments/Knapen_AOT/AOT_stimuli/rescaled_final/1680_fw.mp4	0.0	199.85755467414856	
38	183.41913890838623	movie	1		278	36.0	2.5	/experiments/Knapen_AOT/AOT_stimuli/rescaled_final/1680_fw.mp4	0.0	199.87387013435364	2.5002734661102295
38	185.0012128353119	pulse	1	t		36.0	2.5	/experiments/Knapen_AOT/AOT_stimuli/rescaled_final/1680_fw.mp4	0.0	201.4559440612793	
38	185.91941237449646	fix_post	2		12	36.0	2.5	/experiments/Knapen_AOT/AOT_stimuli/rescaled_final/1680_fw.mp4	0.0	202.37414360046387	0.1000525951385498
39	186.019464969635	fix_pre	0		120	37.0	2.5	/experiments/Knapen_AOT/AOT_stimuli/rescaled_final/0581_fw.mp4	0.0	202.47419619560242	1.0084598064422607
39	186.60305833816528	pulse	0	t		37.0	2.5	/experiments/Knapen_AOT/AOT_stimuli/rescaled_final/0581_fw.mp4	0.0	203.0577895641327	
39	187.02792477607727	movie	1		261	37.0	2.5	/experiments/Knapen_AOT/AOT_stimuli/rescaled_final/0581_fw.mp4	0.0	203.48265600204468	2.492017984390259
39	188.20140838623047	pulse	1	t		37.0	2.5	/experiments/Knapen_AOT/AOT_stimuli/rescaled_final/0581_fw.mp4	0.0	204.65613961219788	
39	189.51994276046753	fix_post	2		12	37.0	2.5	/experiments/Knapen_AOT/AOT_stimuli/rescaled_final/0581_fw.mp4	0.0	205.97467398643494	0.10005688667297363
40	189.6199996471405	fix_pre	0		120	38.0	2.5	/experiments/Knapen_AOT/AOT_stimuli/rescaled_final/0333_fw.mp4	0.0	206.0747308731079	1.0085277557373047
40	189.80352544784546	pulse	0	t		38.0	2.5	/experiments/Knapen_AOT/AOT_stimuli/rescaled_final/0333_fw.mp4	0.0	206.25825667381287	
40	190.6285274028778	movie	1		278	38.0	2.5	/experiments/Knapen_AOT/AOT_stimuli/rescaled_final/0333_fw.mp4	0.0	207.08325862884521	2.491931676864624
40	191.40211486816406	pulse	1	t		38.0	2.5	/experiments/Knapen_AOT/AOT_stimuli/rescaled_final/0333_fw.mp4	0.0	207.85684609413147	
40	193.00214266777039	pulse	1	t		38.0	2.5	/experiments/Knapen_AOT/AOT_stimuli/rescaled_final/0333_fw.mp4	0.0	209.4568738937378	
40	193.12045907974243	fix_post	2		12	38.0	2.5	/experiments/Knapen_AOT/AOT_stimuli/rescaled_final/0333_fw.mp4	0.0	209.57519030570984	0.10003328323364258
41	193.22049236297607	fix_pre	0		120	39.0	2.5	/experiments/Knapen_AOT/AOT_stimuli/rescaled_final/0747_fw.mp4	0.0	209.67522358894348	1.0085515975952148
41	194.2290439605713	movie	1		264	39.0	2.5	/experiments/Knapen_AOT/AOT_stimuli/rescaled_final/0747_fw.mp4	0.0	210.6837751865387	2.4919655323028564
41	194.60484433174133	pulse	1	t		39.0	2.5	/experiments/Knapen_AOT/AOT_stimuli/rescaled_final/0747_fw.mp4	0.0	211.05957555770874	
41	196.20281648635864	pulse	1	t		39.0	2.5	/experiments/Knapen_AOT/AOT_stimuli/rescaled_final/0747_fw.mp4	0.0	212.65754771232605	
41	196.72100949287415	fix_post	2		12	39.0	2.5	/experiments/Knapen_AOT/AOT_stimuli/rescaled_final/0747_fw.mp4	0.0	213.17574071884155	0.10004115104675293
42	196.8210506439209	fix_pre	0		119	40.0	2.5	blank	1.0	213.2757818698883	0.9917831420898438
42	197.80472469329834	pulse	0	t		40.0	2.5	blank	1.0	214.25945591926575	
42	197.81283378601074	movie	1		301	40.0	2.5	blank	1.0	214.26756501197815	2.50876784324646
42	199.4050166606903	pulse	1	t		40.0	2.5	blank	1.0	215.85974788665771	
42	200.3216016292572	fix_post	2		12	40.0	2.5	blank	1.0	216.7763328552246	0.10000729560852051
43	200.42160892486572	fix_pre	0		120	41.0	2.5	/experiments/Knapen_AOT/AOT_stimuli/rescaled_final/0676_rv.mp4	0.0	216.87634015083313	1.00858736038208
43	201.00539803504944	pulse	0	t		41.0	2.5	/experiments/Knapen_AOT/AOT_stimuli/rescaled_final/0676_rv.mp4	0.0	217.46012926101685	
43	201.4301962852478	movie	1		283	41.0	2.5	/experiments/Knapen_AOT/AOT_stimuli/rescaled_final/0676_rv.mp4	0.0	217.8849275112152	2.4918880462646484
43	202.603857755661	pulse	1	t		41.0	2.5	/experiments/Knapen_AOT/AOT_stimuli/rescaled_final/0676_rv.mp4	0.0	219.05858898162842	
43	203.92208433151245	fix_post	2		12	41.0	2.5	/experiments/Knapen_AOT/AOT_stimuli/rescaled_final/0676_rv.mp4	0.0	220.37681555747986	0.10001111030578613
44	204.02209544181824	fix_pre	0		120	42.0	2.5	/experiments/Knapen_AOT/AOT_stimuli/rescaled_final/1903_fw.mp4	0.0	220.47682666778564	1.0085771083831787
44	204.1980800628662	pulse	0	t		42.0	2.5	/experiments/Knapen_AOT/AOT_stimuli/rescaled_final/1903_fw.mp4	0.0	220.65281128883362	
44	205.03067255020142	movie	1		282	42.0	2.5	/experiments/Knapen_AOT/AOT_stimuli/rescaled_final/1903_fw.mp4	0.0	221.48540377616882	2.4920098781585693
44	205.80610585212708	pulse	1	t		42.0	2.5	/experiments/Knapen_AOT/AOT_stimuli/rescaled_final/1903_fw.mp4	0.0	222.26083707809448	
44	207.39831233024597	pulse	1	t		42.0	2.5	/experiments/Knapen_AOT/AOT_stimuli/rescaled_final/1903_fw.mp4	0.0	223.85304355621338	
44	207.52268242835999	fix_post	2		12	42.0	2.5	/experiments/Knapen_AOT/AOT_stimuli/rescaled_final/1903_fw.mp4	0.0	223.9774136543274	0.09996461868286133
45	207.62264704704285	fix_pre	0		120	43.0	2.5	/experiments/Knapen_AOT/AOT_stimuli/rescaled_final/0374_rv.mp4	0.0	224.07737827301025	1.0085151195526123
45	208.63116216659546	movie	1		275	43.0	2.5	/experiments/Knapen_AOT/AOT_stimuli/rescaled_final/0374_rv.mp4	0.0	225.08589339256287	2.4920079708099365
45	208.9979567527771	pulse	1	t		43.0	2.5	/experiments/Knapen_AOT/AOT_stimuli/rescaled_final/0374_rv.mp4	0.0	225.4526879787445	
45	210.59829545021057	pulse	1	t		43.0	2.5	/experiments/Knapen_AOT/AOT_stimuli/rescaled_final/0374_rv.mp4	0.0	227.05302667617798	
45	211.1231701374054	fix_post	2		12	43.0	2.5	/experiments/Knapen_AOT/AOT_stimuli/rescaled_final/0374_rv.mp4	0.0	227.5779013633728	0.10001873970031738
46	211.2231888771057	fix_pre	0		118	44.0	2.5	/experiments/Knapen_AOT/AOT_stimuli/rescaled_final/1103_rv.mp4	0.0	227.67792010307312	0.9918570518493652
46	212.19861698150635	pulse	0	t		44.0	2.5	/experiments/Knapen_AOT/AOT_stimuli/rescaled_final/1103_rv.mp4	0.0	228.65334820747375	
46	212.21504592895508	movie	1		284	44.0	2.5	/experiments/Knapen_AOT/AOT_stimuli/rescaled_final/1103_rv.mp4	0.0	228.66977715492249	2.5003323554992676
46	213.79887628555298	pulse	1	t		44.0	2.5	/experiments/Knapen_AOT/AOT_stimuli/rescaled_final/1103_rv.mp4	0.0	230.25360751152039	
46	214.71537828445435	fix_post	2		12	44.0	2.5	/experiments/Knapen_AOT/AOT_stimuli/rescaled_final/1103_rv.mp4	0.0	231.17010951042175	0.10002517700195312
47	214.8154034614563	fix_pre	0		120	45.0	2.5	/experiments/Knapen_AOT/AOT_stimuli/rescaled_final/0538_rv.mp4	0.0	231.2701346874237	1.008498191833496
47	215.3990614414215	pulse	0	t		45.0	2.5	/experiments/Knapen_AOT/AOT_stimuli/rescaled_final/0538_rv.mp4	0.0	231.85379266738892	
47	215.8239016532898	movie	1		285	45.0	2.5	/experiments/Knapen_AOT/AOT_stimuli/rescaled_final/0538_rv.mp4	0.0	232.2786328792572	2.4920027256011963
47	216.99932622909546	pulse	1	t		45.0	2.5	/experiments/Knapen_AOT/AOT_stimuli/rescaled_final/0538_rv.mp4	0.0	233.45405745506287	
47	218.315904378891	fix_post	2		12	45.0	2.5	/experiments/Knapen_AOT/AOT_stimuli/rescaled_final/0538_rv.mp4	0.0	234.7706356048584	0.10000395774841309
48	218.4159083366394	fix_pre	0		108	46.0	2.5	/experiments/Knapen_AOT/AOT_stimuli/rescaled_final/1074_rv.mp4	0.0	234.8706395626068	1.0085608959197998
48	218.5994930267334	pulse	0	t		46.0	2.5	/experiments/Knapen_AOT/AOT_stimuli/rescaled_final/1074_rv.mp4	0.0	235.0542242527008	
48	219.4244692325592	movie	1		294	46.0	2.5	/experiments/Knapen_AOT/AOT_stimuli/rescaled_final/1074_rv.mp4	0.0	235.8792004585266	2.4919793605804443
48	220.19970655441284	pulse	1	t		46.0	2.5	/experiments/Knapen_AOT/AOT_stimuli/rescaled_final/1074_rv.mp4	0.0	236.65443778038025	
48	221.80052947998047	pulse	1	t		46.0	2.5	/experiments/Knapen_AOT/AOT_stimuli/rescaled_final/1074_rv.mp4	0.0	238.25526070594788	
48	221.91644859313965	fix_post	2		12	46.0	2.5	/experiments/Knapen_AOT/AOT_stimuli/rescaled_final/1074_rv.mp4	0.0	238.37117981910706	0.10001254081726074
49	222.0164611339569	fix_pre	0		120	47.0	2.5	blank	1.0	238.47119235992432	1.0001332759857178
49	223.01659440994263	movie	1		300	47.0	2.5	blank	1.0	239.47132563591003	2.5003931522369385
49	223.40021395683289	pulse	1	t		47.0	2.5	blank	1.0	239.8549451828003	
49	225.0004322528839	pulse	1	t		47.0	2.5	blank	1.0	241.45516347885132	
49	225.51698756217957	fix_post	2		12	47.0	2.5	blank	1.0	241.97171878814697	0.10004758834838867
50	225.61703515052795	fix_pre	0		119	48.0	2.5	/experiments/Knapen_AOT/AOT_stimuli/rescaled_final/1438_fw.mp4	0.0	242.07176637649536	1.0086162090301514
50	226.60085797309875	pulse	0	t		48.0	2.5	/experiments/Knapen_AOT/AOT_stimuli/rescaled_final/1438_fw.mp4	0.0	243.05558919906616	
50	226.6256513595581	movie	1		284	48.0	2.5	/experiments/Knapen_AOT/AOT_stimuli/rescaled_final/1438_fw.mp4	0.0	243.0803825855255	2.491893768310547
50	228.19934725761414	pulse	1	t		48.0	2.5	/experiments/Knapen_AOT/AOT_stimuli/rescaled_final/1438_fw.mp4	0.0	244.65407848358154	
50	229.11754512786865	fix_post	2		12	48.0	2.5	/experiments/Knapen_AOT/AOT_stimuli/rescaled_final/1438_fw.mp4	0.0	245.57227635383606	0.10002660751342773
51	229.21757173538208	fix_pre	0		120	49.0	2.5	/experiments/Knapen_AOT/AOT_stimuli/rescaled_final/0042_rv.mp4	0.0	245.6723029613495	1.0084881782531738
51	229.80122184753418	pulse	0	t		49.0	2.5	/experiments/Knapen_AOT/AOT_stimuli/rescaled_final/0042_rv.mp4	0.0	246.2559530735016	
51	230.22605991363525	movie	1		276	49.0	2.5	/experiments/Knapen_AOT/AOT_stimuli/rescaled_final/0042_rv.mp4	0.0	246.68079113960266	2.4920284748077393
51	231.39985418319702	pulse	1	t		49.0	2.5	/experiments/Knapen_AOT/AOT_stimuli/rescaled_final/0042_rv.mp4	0.0	247.85458540916443	
51	232.718088388443	fix_post	2		12	49.0	2.5	/experiments/Knapen_AOT/AOT_stimuli/rescaled_final/0042_rv.mp4	0.0	249.1728196144104	0.10003089904785156
52	232.81811928749084	fix_pre	0		120	50.0	2.5	/experiments/Knapen_AOT/AOT_stimuli/rescaled_final/0152_fw.mp4	0.0	249.27285051345825	1.0084888935089111
52	233.001647233963	pulse	0	t		50.0	2.5	/experiments/Knapen_AOT/AOT_stimuli/rescaled_final/0152_fw.mp4	0.0	249.45637845993042	
52	233.82660818099976	movie	1		286	50.0	2.5	/experiments/Knapen_AOT/AOT_stimuli/rescaled_final/0152_fw.mp4	0.0	250.28133940696716	2.4920270442962646
52	234.60008239746094	pulse	1	t		50.0	2.5	/experiments/Knapen_AOT/AOT_stimuli/rescaled_final/0152_fw.mp4	0.0	251.05481362342834	
52	236.20042538642883	pulse	1	t		50.0	2.5	/experiments/Knapen_AOT/AOT_stimuli/rescaled_final/0152_fw.mp4	0.0	252.65515661239624	
52	236.31863522529602	fix_post	2		12	50.0	2.5	/experiments/Knapen_AOT/AOT_stimuli/rescaled_final/0152_fw.mp4	0.0	252.77336645126343	0.10003256797790527
53	236.41866779327393	fix_pre	0		120	51.0	2.5	/experiments/Knapen_AOT/AOT_stimuli/rescaled_final/1283_fw.mp4	0.0	252.87339901924133	1.00850510597229
53	237.42717289924622	movie	1		277	51.0	2.5	/experiments/Knapen_AOT/AOT_stimuli/rescaled_final/1283_fw.mp4	0.0	253.88190412521362	2.492244005203247
53	237.80070543289185	pulse	1	t		51.0	2.5	/experiments/Knapen_AOT/AOT_stimuli/rescaled_final/1283_fw.mp4	0.0	254.25543665885925	
53	239.40053486824036	pulse	1	t		51.0	2.5	/experiments/Knapen_AOT/AOT_stimuli/rescaled_final/1283_fw.mp4	0.0	255.85526609420776	
53	239.91941690444946	fix_post	2		12	51.0	2.5	/experiments/Knapen_AOT/AOT_stimuli/rescaled_final/1283_fw.mp4	0.0	256.37414813041687	0.09978032112121582
54	240.01919722557068	fix_pre	0		119	52.0	2.5	/experiments/Knapen_AOT/AOT_stimuli/rescaled_final/0683_fw.mp4	0.0	256.4739284515381	1.0001928806304932
54	241.00286865234375	pulse	0	t		52.0	2.5	/experiments/Knapen_AOT/AOT_stimuli/rescaled_final/0683_fw.mp4	0.0	257.45759987831116	
54	241.01939010620117	movie	1		276	52.0	2.5	/experiments/Knapen_AOT/AOT_stimuli/rescaled_final/0683_fw.mp4	0.0	257.4741213321686	2.500364303588867
54	242.60239124298096	pulse	1	t		52.0	2.5	/experiments/Knapen_AOT/AOT_stimuli/rescaled_final/0683_fw.mp4	0.0	259.05712246894836	
54	243.51975440979004	fix_post	2		12	52.0	2.5	/experiments/Knapen_AOT/AOT_stimuli/rescaled_final/0683_fw.mp4	0.0	259.97448563575745	0.10002374649047852
55	243.61977815628052	fix_pre	0		120	53.0	2.5	/experiments/Knapen_AOT/AOT_stimuli/rescaled_final/0842_fw.mp4	0.0	260.0745093822479	1.0084550380706787
55	244.2034146785736	pulse	0	t		53.0	2.5	/experiments/Knapen_AOT/AOT_stimuli/rescaled_final/0842_fw.mp4	0.0	260.658145904541	
55	244.6282331943512	movie	1		281	53.0	2.5	/experiments/Knapen_AOT/AOT_stimuli/rescaled_final/0842_fw.mp4	0.0	261.0829644203186	2.4920132160186768
55	245.80174851417542	pulse	1	t		53.0	2.5	/experiments/Knapen_AOT/AOT_stimuli/rescaled_final/0842_fw.mp4	0.0	262.2564797401428	
55	247.12024641036987	fix_post	2		11	53.0	2.5	/experiments/Knapen_AOT/AOT_stimuli/rescaled_final/0842_fw.mp4	0.0	263.5749776363373	0.10008406639099121
56	247.22033047676086	fix_pre	0		120	54.0	2.5	/experiments/Knapen_AOT/AOT_stimuli/rescaled_final/1009_fw.mp4	0.0	263.67506170272827	1.0084562301635742
56	247.40399956703186	pulse	0	t		54.0	2.5	/experiments/Knapen_AOT/AOT_stimuli/rescaled_final/1009_fw.mp4	0.0	263.85873079299927	
56	248.22878670692444	movie	1		272	54.0	2.5	/experiments/Knapen_AOT/AOT_stimuli/rescaled_final/1009_fw.mp4	0.0	264.68351793289185	2.4920129776000977
56	249.00196886062622	pulse	1	t		54.0	2.5	/experiments/Knapen_AOT/AOT_stimuli/rescaled_final/1009_fw.mp4	0.0	265.4567000865936	
56	250.60211634635925	pulse	1	t		54.0	2.5	/experiments/Knapen_AOT/AOT_stimuli/rescaled_final/1009_fw.mp4	0.0	267.05684757232666	
56	250.72079968452454	fix_post	2		12	54.0	2.5	/experiments/Knapen_AOT/AOT_stimuli/rescaled_final/1009_fw.mp4	0.0	267.17553091049194	0.10001492500305176
57	250.8208146095276	fix_pre	0		120	55.0	2.5	/experiments/Knapen_AOT/AOT_stimuli/rescaled_final/1608_rv.mp4	0.0	267.275545835495	1.008486270904541
57	251.82930088043213	movie	1		275	55.0	2.5	/experiments/Knapen_AOT/AOT_stimuli/rescaled_final/1608_rv.mp4	0.0	268.28403210639954	2.492081642150879
57	252.20368695259094	pulse	1	t		55.0	2.5	/experiments/Knapen_AOT/AOT_stimuli/rescaled_final/1608_rv.mp4	0.0	268.65841817855835	
57	253.80325865745544	pulse	1	t		55.0	2.5	/experiments/Knapen_AOT/AOT_stimuli/rescaled_final/1608_rv.mp4	0.0	270.25798988342285	
57	254.321382522583	fix_post	2		12	55.0	2.5	/experiments/Knapen_AOT/AOT_stimuli/rescaled_final/1608_rv.mp4	0.0	270.7761137485504	0.0999763011932373
58	254.42135882377625	fix_pre	0		119	56.0	2.5	blank	1.0	270.87609004974365	0.9917802810668945
58	255.4051070213318	pulse	0	t		56.0	2.5	blank	1.0	271.8598382472992	
58	255.41313910484314	movie	1		301	56.0	2.5	blank	1.0	271.86787033081055	2.5088000297546387
58	256.99861001968384	pulse	1	t		56.0	2.5	blank	1.0	273.45334124565125	
58	257.9219391345978	fix_post	2		12	56.0	2.5	blank	1.0	274.3766703605652	0.10013628005981445
59	258.0220754146576	fix_pre	0		120	57.0	2.5	/experiments/Knapen_AOT/AOT_stimuli/rescaled_final/1636_rv.mp4	0.0	274.476806640625	1.0083255767822266
59	258.60563015937805	pulse	0	t		57.0	2.5	/experiments/Knapen_AOT/AOT_stimuli/rescaled_final/1636_rv.mp4	0.0	275.06036138534546	
59	259.0304009914398	movie	1		285	57.0	2.5	/experiments/Knapen_AOT/AOT_stimuli/rescaled_final/1636_rv.mp4	0.0	275.4851322174072	2.492011070251465
59	260.2041642665863	pulse	1	t		57.0	2.5	/experiments/Knapen_AOT/AOT_stimuli/rescaled_final/1636_rv.mp4	0.0	276.6588954925537	
59	261.5224120616913	fix_post	2		12	57.0	2.5	/experiments/Knapen_AOT/AOT_stimuli/rescaled_final/1636_rv.mp4	0.0	277.9771432876587	0.10006189346313477
60	261.6224739551544	fix_pre	0		120	58.0	2.5	/experiments/Knapen_AOT/AOT_stimuli/rescaled_final/0123_rv.mp4	0.0	278.0772051811218	1.0085172653198242
60	261.79900336265564	pulse	0	t		58.0	2.5	/experiments/Knapen_AOT/AOT_stimuli/rescaled_final/0123_rv.mp4	0.0	278.25373458862305	
60	262.63099122047424	movie	1		266	58.0	2.5	/experiments/Knapen_AOT/AOT_stimuli/rescaled_final/0123_rv.mp4	0.0	279.08572244644165	2.492156505584717
60	263.4063341617584	pulse	1	t		58.0	2.5	/experiments/Knapen_AOT/AOT_stimuli/rescaled_final/0123_rv.mp4	0.0	279.86106538772583	
60	264.99836587905884	pulse	1	t		58.0	2.5	/experiments/Knapen_AOT/AOT_stimuli/rescaled_final/0123_rv.mp4	0.0	281.45309710502625	
60	265.12314772605896	fix_post	2		12	58.0	2.5	/experiments/Knapen_AOT/AOT_stimuli/rescaled_final/0123_rv.mp4	0.0	281.57787895202637	0.0998528003692627
61	265.2230005264282	fix_pre	0		120	59.0	2.5	/experiments/Knapen_AOT/AOT_stimuli/rescaled_final/0523_rv.mp4	0.0	281.67773175239563	1.0084481239318848
61	266.2314486503601	movie	1		277	59.0	2.5	/experiments/Knapen_AOT/AOT_stimuli/rescaled_final/0523_rv.mp4	0.0	282.6861798763275	2.4921133518218994
61	266.6070761680603	pulse	1	t		59.0	2.5	/experiments/Knapen_AOT/AOT_stimuli/rescaled_final/0523_rv.mp4	0.0	283.0618073940277	
61	268.1986699104309	pulse	1	t		59.0	2.5	/experiments/Knapen_AOT/AOT_stimuli/rescaled_final/0523_rv.mp4	0.0	284.6534011363983	
61	268.723562002182	fix_post	2		12	59.0	2.5	/experiments/Knapen_AOT/AOT_stimuli/rescaled_final/0523_rv.mp4	0.0	285.1782932281494	0.10000777244567871
62	268.8235697746277	fix_pre	0		118	60.0	2.5	/experiments/Knapen_AOT/AOT_stimuli/rescaled_final/0402_rv.mp4	0.0	285.2783010005951	0.9919514656066895
62	269.79893922805786	pulse	0	t		60.0	2.5	/experiments/Knapen_AOT/AOT_stimuli/rescaled_final/0402_rv.mp4	0.0	286.25367045402527	
62	269.8155212402344	movie	1		286	60.0	2.5	/experiments/Knapen_AOT/AOT_stimuli/rescaled_final/0402_rv.mp4	0.0	286.2702524662018	2.5001866817474365
62	271.3991868495941	pulse	1	t		60.0	2.5	/experiments/Knapen_AOT/AOT_stimuli/rescaled_final/0402_rv.mp4	0.0	287.8539180755615	
62	272.3157079219818	fix_post	2		12	60.0	2.5	/experiments/Knapen_AOT/AOT_stimuli/rescaled_final/0402_rv.mp4	0.0	288.7704391479492	0.10002303123474121
63	272.41573095321655	fix_pre	0		120	61.0	2.5	/experiments/Knapen_AOT/AOT_stimuli/rescaled_final/0740_rv.mp4	0.0	288.87046217918396	1.008486270904541
63	272.9993796348572	pulse	0	t		61.0	2.5	/experiments/Knapen_AOT/AOT_stimuli/rescaled_final/0740_rv.mp4	0.0	289.4541108608246	
63	273.4242172241211	movie	1		280	61.0	2.5	/experiments/Knapen_AOT/AOT_stimuli/rescaled_final/0740_rv.mp4	0.0	289.8789484500885	2.4920265674591064
63	274.59968638420105	pulse	1	t		61.0	2.5	/experiments/Knapen_AOT/AOT_stimuli/rescaled_final/0740_rv.mp4	0.0	291.05441761016846	
63	275.9162437915802	fix_post	2		12	61.0	2.5	/experiments/Knapen_AOT/AOT_stimuli/rescaled_final/0740_rv.mp4	0.0	292.3709750175476	0.10002470016479492
64	276.016268491745	fix_pre	0		120	62.0	2.5	/experiments/Knapen_AOT/AOT_stimuli/rescaled_final/2018_fw.mp4	0.0	292.4709997177124	1.0084834098815918
64	276.1998233795166	pulse	0	t		62.0	2.5	/experiments/Knapen_AOT/AOT_stimuli/rescaled_final/2018_fw.mp4	0.0	292.654554605484	
64	277.0247519016266	movie	1		280	62.0	2.5	/experiments/Knapen_AOT/AOT_stimuli/rescaled_final/2018_fw.mp4	0.0	293.479483127594	2.4920594692230225
64	277.8000783920288	pulse	1	t		62.0	2.5	/experiments/Knapen_AOT/AOT_stimuli/rescaled_final/2018_fw.mp4	0.0	294.2548096179962	
64	279.40128231048584	pulse	1	t		62.0	2.5	/experiments/Knapen_AOT/AOT_stimuli/rescaled_final/2018_fw.mp4	0.0	295.85601353645325	
64	279.5168113708496	fix_post	2		12	62.0	2.5	/experiments/Knapen_AOT/AOT_stimuli/rescaled_final/2018_fw.mp4	0.0	295.971542596817	0.0999917984008789
65	279.6168031692505	fix_pre	0		120	63.0	2.5	blank	1.0	296.0715343952179	1.000166654586792
65	280.6169698238373	movie	1		300	63.0	2.5	blank	1.0	297.0717010498047	2.5003719329833984
65	281.0006949901581	pulse	1	t		63.0	2.5	blank	1.0	297.4554262161255	
65	282.60081577301025	pulse	1	t		63.0	2.5	blank	1.0	299.05554699897766	
65	283.1173417568207	fix_post	2		12	63.0	2.5	blank	1.0	299.5720729827881	0.10002851486206055
66	283.21737027168274	fix_pre	0		119	64.0	2.5	/experiments/Knapen_AOT/AOT_stimuli/rescaled_final/0109_rv.mp4	0.0	299.67210149765015	1.0085031986236572
66	284.20107316970825	pulse	0	t		64.0	2.5	/experiments/Knapen_AOT/AOT_stimuli/rescaled_final/0109_rv.mp4	0.0	300.65580439567566	
66	284.2258734703064	movie	1		265	64.0	2.5	/experiments/Knapen_AOT/AOT_stimuli/rescaled_final/0109_rv.mp4	0.0	300.6806046962738	2.492018699645996
66	285.7998459339142	pulse	1	t		64.0	2.5	/experiments/Knapen_AOT/AOT_stimuli/rescaled_final/0109_rv.mp4	0.0	302.2545771598816	
66	286.7178921699524	fix_post	2		12	64.0	2.5	/experiments/Knapen_AOT/AOT_stimuli/rescaled_final/0109_rv.mp4	0.0	303.1726233959198	0.10007500648498535
67	286.8179671764374	fix_pre	0		120	65.0	2.5	/experiments/Knapen_AOT/AOT_stimuli/rescaled_final/0959_fw.mp4	0.0	303.2726984024048	1.0084288120269775
67	287.40153193473816	pulse	0	t		65.0	2.5	/experiments/Knapen_AOT/AOT_stimuli/rescaled_final/0959_fw.mp4	0.0	303.85626316070557	
67	287.82639598846436	movie	1		270	65.0	2.5	/experiments/Knapen_AOT/AOT_stimuli/rescaled_final/0959_fw.mp4	0.0	304.28112721443176	2.4920358657836914
67	289.0021245479584	pulse	1	t		65.0	2.5	/experiments/Knapen_AOT/AOT_stimuli/rescaled_final/0959_fw.mp4	0.0	305.4568557739258	
67	290.31843185424805	fix_post	2		12	65.0	2.5	/experiments/Knapen_AOT/AOT_stimuli/rescaled_final/0959_fw.mp4	0.0	306.77316308021545	0.10001754760742188
68	290.41844940185547	fix_pre	0		120	66.0	2.5	/experiments/Knapen_AOT/AOT_stimuli/rescaled_final/1929_rv.mp4	0.0	306.8731806278229	1.0084991455078125
68	290.60200929641724	pulse	0	t		66.0	2.5	/experiments/Knapen_AOT/AOT_stimuli/rescaled_final/1929_rv.mp4	0.0	307.05674052238464	
68	291.4269485473633	movie	1		265	66.0	2.5	/experiments/Knapen_AOT/AOT_stimuli/rescaled_final/1929_rv.mp4	0.0	307.8816797733307	2.4920694828033447
68	292.20192193984985	pulse	1	t		66.0	2.5	/experiments/Knapen_AOT/AOT_stimuli/rescaled_final/1929_rv.mp4	0.0	308.65665316581726	
68	293.80102276802063	pulse	1	t		66.0	2.5	/experiments/Knapen_AOT/AOT_stimuli/rescaled_final/1929_rv.mp4	0.0	310.25575399398804	
68	293.9190180301666	fix_post	2		12	66.0	2.5	/experiments/Knapen_AOT/AOT_stimuli/rescaled_final/1929_rv.mp4	0.0	310.37374925613403	0.09997987747192383
69	294.01899790763855	fix_pre	0		120	67.0	2.5	/experiments/Knapen_AOT/AOT_stimuli/rescaled_final/0749_fw.mp4	0.0	310.47372913360596	1.008465051651001
69	295.02746295928955	movie	1		269	67.0	2.5	/experiments/Knapen_AOT/AOT_stimuli/rescaled_final/0749_fw.mp4	0.0	311.48219418525696	2.492051362991333
69	295.4013977050781	pulse	1	t		67.0	2.5	/experiments/Knapen_AOT/AOT_stimuli/rescaled_final/0749_fw.mp4	0.0	311.85612893104553	
69	297.0008373260498	pulse	1	t		67.0	2.5	/experiments/Knapen_AOT/AOT_stimuli/rescaled_final/0749_fw.mp4	0.0	313.4555685520172	
69	297.5195143222809	fix_post	2		12	67.0	2.5	/experiments/Knapen_AOT/AOT_stimuli/rescaled_final/0749_fw.mp4	0.0	313.9742455482483	0.10000109672546387
70	297.61951541900635	fix_pre	0		119	68.0	2.5	blank	1.0	314.07424664497375	0.9917647838592529
70	298.60319662094116	pulse	0	t		68.0	2.5	blank	1.0	315.05792784690857	
70	298.6112802028656	movie	1		301	68.0	2.5	blank	1.0	315.066011428833	2.5088019371032715
70	300.20340609550476	pulse	1	t		68.0	2.5	blank	1.0	316.65813732147217	
70	301.1200821399689	fix_post	2		12	68.0	2.5	blank	1.0	317.5748133659363	0.1001119613647461
71	301.2201941013336	fix_pre	0		120	69.0	2.5	/experiments/Knapen_AOT/AOT_stimuli/rescaled_final/0468_rv.mp4	0.0	317.674925327301	1.0083885192871094
71	301.8036870956421	pulse	0	t		69.0	2.5	/experiments/Knapen_AOT/AOT_stimuli/rescaled_final/0468_rv.mp4	0.0	318.2584183216095	
71	302.2285826206207	movie	1		274	69.0	2.5	/experiments/Knapen_AOT/AOT_stimuli/rescaled_final/0468_rv.mp4	0.0	318.68331384658813	2.4920101165771484
71	303.4032242298126	pulse	1	t		69.0	2.5	/experiments/Knapen_AOT/AOT_stimuli/rescaled_final/0468_rv.mp4	0.0	319.85795545578003	
71	304.7205927371979	fix_post	2		12	69.0	2.5	/experiments/Knapen_AOT/AOT_stimuli/rescaled_final/0468_rv.mp4	0.0	321.1753239631653	0.10009002685546875
72	304.82068276405334	fix_pre	0		120	70.0	2.5	/experiments/Knapen_AOT/AOT_stimuli/rescaled_final/0416_fw.mp4	0.0	321.27541399002075	1.0083765983581543
72	305.00417923927307	pulse	0	t		70.0	2.5	/experiments/Knapen_AOT/AOT_stimuli/rescaled_final/0416_fw.mp4	0.0	321.4589104652405	
72	305.8290593624115	movie	1		288	70.0	2.5	/experiments/Knapen_AOT/AOT_stimuli/rescaled_final/0416_fw.mp4	0.0	322.2837905883789	2.492077350616455
72	306.6024305820465	pulse	1	t		70.0	2.5	/experiments/Knapen_AOT/AOT_stimuli/rescaled_final/0416_fw.mp4	0.0	323.0571618080139	
72	308.2025122642517	pulse	1	t		70.0	2.5	/experiments/Knapen_AOT/AOT_stimuli/rescaled_final/0416_fw.mp4	0.0	324.6572434902191	
72	308.32113671302795	fix_post	2		12	70.0	2.5	/experiments/Knapen_AOT/AOT_stimuli/rescaled_final/0416_fw.mp4	0.0	324.77586793899536	0.10007667541503906
73	308.421213388443	fix_pre	0		120	71.0	2.5	/experiments/Knapen_AOT/AOT_stimuli/rescaled_final/1307_fw.mp4	0.0	324.8759446144104	1.0084240436553955
73	309.4296374320984	movie	1		288	71.0	2.5	/experiments/Knapen_AOT/AOT_stimuli/rescaled_final/1307_fw.mp4	0.0	325.8843686580658	2.4920361042022705
73	309.8035991191864	pulse	1	t		71.0	2.5	/experiments/Knapen_AOT/AOT_stimuli/rescaled_final/1307_fw.mp4	0.0	326.2583303451538	
73	311.4033818244934	pulse	1	t		71.0	2.5	/experiments/Knapen_AOT/AOT_stimuli/rescaled_final/1307_fw.mp4	0.0	327.8581130504608	
73	311.92167353630066	fix_post	2		12	71.0	2.5	/experiments/Knapen_AOT/AOT_stimuli/rescaled_final/1307_fw.mp4	0.0	328.37640476226807	0.10000157356262207
74	312.0216751098633	fix_pre	0		119	72.0	2.5	/experiments/Knapen_AOT/AOT_stimuli/rescaled_final/1277_fw.mp4	0.0	328.4764063358307	1.0002703666687012
74	313.0055932998657	pulse	0	t		72.0	2.5	/experiments/Knapen_AOT/AOT_stimuli/rescaled_final/1277_fw.mp4	0.0	329.46032452583313	
74	313.021945476532	movie	1		278	72.0	2.5	/experiments/Knapen_AOT/AOT_stimuli/rescaled_final/1277_fw.mp4	0.0	329.4766767024994	2.5002927780151367
74	314.60397124290466	pulse	1	t		72.0	2.5	/experiments/Knapen_AOT/AOT_stimuli/rescaled_final/1277_fw.mp4	0.0	331.05870246887207	
74	315.5222382545471	fix_post	2		12	72.0	2.5	/experiments/Knapen_AOT/AOT_stimuli/rescaled_final/1277_fw.mp4	0.0	331.9769694805145	0.1000525951385498
75	315.62229084968567	fix_pre	0		120	73.0	2.5	/experiments/Knapen_AOT/AOT_stimuli/rescaled_final/0746_rv.mp4	0.0	332.0770220756531	1.0083897113800049
75	316.20608019828796	pulse	0	t		73.0	2.5	/experiments/Knapen_AOT/AOT_stimuli/rescaled_final/0746_rv.mp4	0.0	332.66081142425537	
75	316.6306805610657	movie	1		269	73.0	2.5	/experiments/Knapen_AOT/AOT_stimuli/rescaled_final/0746_rv.mp4	0.0	333.0854117870331	2.492058515548706
75	317.80430603027344	pulse	1	t		73.0	2.5	/experiments/Knapen_AOT/AOT_stimuli/rescaled_final/0746_rv.mp4	0.0	334.25903725624084	
75	319.1227390766144	fix_post	2		12	73.0	2.5	/experiments/Knapen_AOT/AOT_stimuli/rescaled_final/0746_rv.mp4	0.0	335.5774703025818	0.10004329681396484
76	319.22278237342834	fix_pre	0		120	74.0	2.5	/experiments/Knapen_AOT/AOT_stimuli/rescaled_final/0686_fw.mp4	0.0	335.67751359939575	1.008483648300171
76	319.4064049720764	pulse	0	t		74.0	2.5	/experiments/Knapen_AOT/AOT_stimuli/rescaled_final/0686_fw.mp4	0.0	335.8611361980438	
76	320.2312660217285	movie	1		273	74.0	2.5	/experiments/Knapen_AOT/AOT_stimuli/rescaled_final/0686_fw.mp4	0.0	336.6859972476959	2.492051839828491
76	321.00477600097656	pulse	1	t		74.0	2.5	/experiments/Knapen_AOT/AOT_stimuli/rescaled_final/0686_fw.mp4	0.0	337.45950722694397	
76	322.5990216732025	pulse	1	t		74.0	2.5	/experiments/Knapen_AOT/AOT_stimuli/rescaled_final/0686_fw.mp4	0.0	339.0537528991699	
76	322.723317861557	fix_post	2		12	74.0	2.5	/experiments/Knapen_AOT/AOT_stimuli/rescaled_final/0686_fw.mp4	0.0	339.1780490875244	0.10003161430358887
77	322.8233494758606	fix_pre	0		120	75.0	2.5	/experiments/Knapen_AOT/AOT_stimuli/rescaled_final/2018_fw.mp4	0.0	339.278080701828	1.0084600448608398
77	323.83180952072144	movie	1		281	75.0	2.5	/experiments/Knapen_AOT/AOT_stimuli/rescaled_final/2018_fw.mp4	0.0	340.28654074668884	2.4920928478240967
77	324.1990005970001	pulse	1	t		75.0	2.5	/experiments/Knapen_AOT/AOT_stimuli/rescaled_final/2018_fw.mp4	0.0	340.65373182296753	
77	325.7990665435791	pulse	1	t		75.0	2.5	/experiments/Knapen_AOT/AOT_stimuli/rescaled_final/2018_fw.mp4	0.0	342.2537977695465	
77	326.32390236854553	fix_post	2		12	75.0	2.5	/experiments/Knapen_AOT/AOT_stimuli/rescaled_final/2018_fw.mp4	0.0	342.77863359451294	0.09993720054626465
78	326.4238395690918	fix_pre	0		118	76.0	2.5	/experiments/Knapen_AOT/AOT_stimuli/rescaled_final/1024_fw.mp4	0.0	342.8785707950592	0.9918525218963623
78	327.39927911758423	pulse	0	t		76.0	2.5	/experiments/Knapen_AOT/AOT_stimuli/rescaled_final/1024_fw.mp4	0.0	343.85401034355164	
78	327.41569209098816	movie	1		271	76.0	2.5	/experiments/Knapen_AOT/AOT_stimuli/rescaled_final/1024_fw.mp4	0.0	343.87042331695557	2.500335454940796
78	328.99990820884705	pulse	1	t		76.0	2.5	/experiments/Knapen_AOT/AOT_stimuli/rescaled_final/1024_fw.mp4	0.0	345.45463943481445	
78	329.91602754592896	fix_post	2		12	76.0	2.5	/experiments/Knapen_AOT/AOT_stimuli/rescaled_final/1024_fw.mp4	0.0	346.37075877189636	0.10001516342163086
79	330.0160427093506	fix_pre	0		120	77.0	2.5	blank	1.0	346.470773935318	1.0001378059387207
79	330.5996949672699	pulse	0	t		77.0	2.5	blank	1.0	347.0544261932373	
79	331.0161805152893	movie	1		300	77.0	2.5	blank	1.0	347.4709117412567	2.5005486011505127
79	332.2000093460083	pulse	1	t		77.0	2.5	blank	1.0	348.6547405719757	
79	333.5167291164398	fix_post	2		12	77.0	2.5	blank	1.0	349.9714603424072	0.09990215301513672
80	333.61663126945496	fix_pre	0		120	78.0	2.5	/experiments/Knapen_AOT/AOT_stimuli/rescaled_final/2115_rv.mp4	0.0	350.07136249542236	1.0084469318389893
80	333.80021595954895	pulse	0	t		78.0	2.5	/experiments/Knapen_AOT/AOT_stimuli/rescaled_final/2115_rv.mp4	0.0	350.25494718551636	
80	334.62507820129395	movie	1		264	78.0	2.5	/experiments/Knapen_AOT/AOT_stimuli/rescaled_final/2115_rv.mp4	0.0	351.07980942726135	2.492037296295166
80	335.40081095695496	pulse	1	t		78.0	2.5	/experiments/Knapen_AOT/AOT_stimuli/rescaled_final/2115_rv.mp4	0.0	351.85554218292236	
80	337.0006287097931	pulse	1	t		78.0	2.5	/experiments/Knapen_AOT/AOT_stimuli/rescaled_final/2115_rv.mp4	0.0	353.4553599357605	
80	337.1171154975891	fix_post	2		12	78.0	2.5	/experiments/Knapen_AOT/AOT_stimuli/rescaled_final/2115_rv.mp4	0.0	353.5718467235565	0.10004425048828125
81	337.2171597480774	fix_pre	0		120	79.0	2.5	/experiments/Knapen_AOT/AOT_stimuli/rescaled_final/0728_fw.mp4	0.0	353.6718909740448	1.0085127353668213
81	338.2256724834442	movie	1		269	79.0	2.5	/experiments/Knapen_AOT/AOT_stimuli/rescaled_final/0728_fw.mp4	0.0	354.6804037094116	2.4920241832733154
81	338.5993437767029	pulse	1	t		79.0	2.5	/experiments/Knapen_AOT/AOT_stimuli/rescaled_final/0728_fw.mp4	0.0	355.0540750026703	
81	340.1996855735779	pulse	1	t		79.0	2.5	/experiments/Knapen_AOT/AOT_stimuli/rescaled_final/0728_fw.mp4	0.0	356.6544167995453	
81	340.71769666671753	fix_post	2		12	79.0	2.5	/experiments/Knapen_AOT/AOT_stimuli/rescaled_final/0728_fw.mp4	0.0	357.17242789268494	0.10000205039978027
82	340.8176987171173	fix_pre	0		119	80.0	2.5	/experiments/Knapen_AOT/AOT_stimuli/rescaled_final/1046_rv.mp4	0.0	357.2724299430847	1.0002388954162598
82	341.8014199733734	pulse	0	t		80.0	2.5	/experiments/Knapen_AOT/AOT_stimuli/rescaled_final/1046_rv.mp4	0.0	358.2561511993408	
82	341.81793761253357	movie	1		275	80.0	2.5	/experiments/Knapen_AOT/AOT_stimuli/rescaled_final/1046_rv.mp4	0.0	358.272668838501	2.5002622604370117
82	343.4003586769104	pulse	1	t		80.0	2.5	/experiments/Knapen_AOT/AOT_stimuli/rescaled_final/1046_rv.mp4	0.0	359.8550899028778	
82	344.3181998729706	fix_post	2		12	80.0	2.5	/experiments/Knapen_AOT/AOT_stimuli/rescaled_final/1046_rv.mp4	0.0	360.772931098938	0.10002684593200684
83	344.4182267189026	fix_pre	0		120	81.0	2.5	/experiments/Knapen_AOT/AOT_stimuli/rescaled_final/2071_rv.mp4	0.0	360.87295794487	1.008483648300171
83	345.001868724823	pulse	0	t		81.0	2.5	/experiments/Knapen_AOT/AOT_stimuli/rescaled_final/2071_rv.mp4	0.0	361.4565999507904	
83	345.42671036720276	movie	1		274	81.0	2.5	/experiments/Knapen_AOT/AOT_stimuli/rescaled_final/2071_rv.mp4	0.0	361.88144159317017	2.492048740386963
83	346.60022807121277	pulse	1	t		81.0	2.5	/experiments/Knapen_AOT/AOT_stimuli/rescaled_final/2071_rv.mp4	0.0	363.0549592971802	
83	347.9187591075897	fix_post	2		12	81.0	2.5	/experiments/Knapen_AOT/AOT_stimuli/rescaled_final/2071_rv.mp4	0.0	364.37349033355713	0.10000395774841309
84	348.01876306533813	fix_pre	0		120	82.0	2.5	/experiments/Knapen_AOT/AOT_stimuli/rescaled_final/0468_fw.mp4	0.0	364.47349429130554	1.0085153579711914
84	348.2023377418518	pulse	0	t		82.0	2.5	/experiments/Knapen_AOT/AOT_stimuli/rescaled_final/0468_fw.mp4	0.0	364.6570689678192	
84	349.0272784233093	movie	1		268	82.0	2.5	/experiments/Knapen_AOT/AOT_stimuli/rescaled_final/0468_fw.mp4	0.0	365.48200964927673	2.492006540298462
84	349.8007433414459	pulse	1	t		82.0	2.5	/experiments/Knapen_AOT/AOT_stimuli/rescaled_final/0468_fw.mp4	0.0	366.25547456741333	
84	351.400990486145	pulse	1	t		82.0	2.5	/experiments/Knapen_AOT/AOT_stimuli/rescaled_final/0468_fw.mp4	0.0	367.8557217121124	
84	351.5192849636078	fix_post	2		12	82.0	2.5	/experiments/Knapen_AOT/AOT_stimuli/rescaled_final/0468_fw.mp4	0.0	367.9740161895752	0.10003805160522461
85	351.619323015213	fix_pre	0		120	83.0	2.5	blank	1.0	368.0740542411804	1.000114917755127
85	352.61943793296814	movie	1		300	83.0	2.5	blank	1.0	369.07416915893555	2.5004143714904785
85	353.00305461883545	pulse	1	t		83.0	2.5	blank	1.0	369.45778584480286	
85	354.60340332984924	pulse	1	t		83.0	2.5	blank	1.0	371.05813455581665	
85	355.1198523044586	fix_post	2		12	83.0	2.5	blank	1.0	371.574583530426	0.09998130798339844
87	355.219833612442	stim	0		1716					371.6745648384094	14.302202939987183
87	356.20366168022156	pulse	0	t						372.65839290618896	
87	357.80376625061035	pulse	0	t						374.25849747657776	
87	359.4040422439575	pulse	0	t						375.8587734699249	
87	361.004234790802	pulse	0	t						377.4589660167694	
87	362.6044728755951	pulse	0	t						379.0592041015625	
87	364.20493507385254	pulse	0	t						380.65966629981995	
87	365.8049268722534	pulse	0	t						382.2596580982208	
87	367.40549778938293	pulse	0	t						383.86022901535034	
87	369.00550150871277	pulse	0	t						385.4602327346802	
