trial_nr	onset	event_type	phase	response	nr_frames	movie_index	movie_duration	movie_file	blank	onset_abs	duration
0	0.2083280086517334	stim	0		75					77.13757801055908	0.6250019073486328
0	0.8253109455108643	response	0	space						77.75456094741821	
1	0.8333299160003662	stim	0		4393					77.76257991790771	36.63305997848511
1	37.43631196022034	pulse	0	t						114.36556196212769	
1	37.466389894485474	stim	1		1716					114.39563989639282	14.29950213432312
1	39.030986070632935	pulse	1	t						115.96023607254028	
1	40.631041049957275	pulse	1	t						117.56029105186462	
1	42.23135304450989	pulse	1	t						119.16060304641724	
1	43.83163094520569	pulse	1	t						120.76088094711304	
1	45.43186092376709	pulse	1	t						122.36111092567444	
1	47.03191804885864	pulse	1	t						123.96116805076599	
1	48.632214069366455	pulse	1	t						125.5614640712738	
1	50.23254990577698	pulse	1	t						127.16179990768433	
2	51.765892028808594	fix_pre	0		9	0.0	2.5	/experiments/knapen_AOT/AOT_stimuli/rescaled_final/1759_rv.mp4	0.0	128.69514203071594	0.07500195503234863
2	51.83292102813721	pulse	0	t		0.0	2.5	/experiments/knapen_AOT/AOT_stimuli/rescaled_final/1759_rv.mp4	0.0	128.76217103004456	
2	51.84089398384094	movie	1		243	0.0	2.5	/experiments/knapen_AOT/AOT_stimuli/rescaled_final/1759_rv.mp4	0.0	128.7701439857483	2.5087099075317383
2	53.433547019958496	pulse	1	t		0.0	2.5	/experiments/knapen_AOT/AOT_stimuli/rescaled_final/1759_rv.mp4	0.0	130.36279702186584	
2	54.34960389137268	fix_post	2		12	0.0	2.5	/experiments/knapen_AOT/AOT_stimuli/rescaled_final/1759_rv.mp4	0.0	131.27885389328003	0.10017919540405273
3	54.44978308677673	fix_pre	0		120	1.0	2.5	/experiments/knapen_AOT/AOT_stimuli/rescaled_final/1430_rv.mp4	0.0	131.37903308868408	0.9999868869781494
3	55.033220052719116	pulse	0	t		1.0	2.5	/experiments/knapen_AOT/AOT_stimuli/rescaled_final/1430_rv.mp4	0.0	131.96247005462646	
3	55.44976997375488	movie	1		243	1.0	2.5	/experiments/knapen_AOT/AOT_stimuli/rescaled_final/1430_rv.mp4	0.0	132.37901997566223	2.5005199909210205
3	56.63372802734375	pulse	1	t		1.0	2.5	/experiments/knapen_AOT/AOT_stimuli/rescaled_final/1430_rv.mp4	0.0	133.5629780292511	
3	57.9502899646759	fix_post	2		12	1.0	2.5	/experiments/knapen_AOT/AOT_stimuli/rescaled_final/1430_rv.mp4	0.0	134.87953996658325	0.09985613822937012
4	58.05014610290527	fix_pre	0		120	2.0	2.5	/experiments/knapen_AOT/AOT_stimuli/rescaled_final/2148_fw.mp4	0.0	134.97939610481262	1.0001869201660156
4	58.23374605178833	pulse	0	t		2.0	2.5	/experiments/knapen_AOT/AOT_stimuli/rescaled_final/2148_fw.mp4	0.0	135.16299605369568	
4	59.05033302307129	movie	1		242	2.0	2.5	/experiments/knapen_AOT/AOT_stimuli/rescaled_final/2148_fw.mp4	0.0	135.97958302497864	2.5004868507385254
4	59.833921909332275	pulse	1	t		2.0	2.5	/experiments/knapen_AOT/AOT_stimuli/rescaled_final/2148_fw.mp4	0.0	136.76317191123962	
4	61.43449091911316	pulse	1	t		2.0	2.5	/experiments/knapen_AOT/AOT_stimuli/rescaled_final/2148_fw.mp4	0.0	138.3637409210205	
4	61.550819873809814	fix_post	2		12	2.0	2.5	/experiments/knapen_AOT/AOT_stimuli/rescaled_final/2148_fw.mp4	0.0	138.48006987571716	0.09996509552001953
5	61.650784969329834	fix_pre	0		120	3.0	2.5	/experiments/knapen_AOT/AOT_stimuli/rescaled_final/1519_fw.mp4	0.0	138.58003497123718	1.0000479221343994
5	62.65083289146423	movie	1		241	3.0	2.5	/experiments/knapen_AOT/AOT_stimuli/rescaled_final/1519_fw.mp4	0.0	139.58008289337158	2.4920949935913086
5	63.03507709503174	pulse	1	t		3.0	2.5	/experiments/knapen_AOT/AOT_stimuli/rescaled_final/1519_fw.mp4	0.0	139.9643270969391	
5	64.63479709625244	pulse	1	t		3.0	2.5	/experiments/knapen_AOT/AOT_stimuli/rescaled_final/1519_fw.mp4	0.0	141.5640470981598	
5	65.14292788505554	fix_post	2		12	3.0	2.5	/experiments/knapen_AOT/AOT_stimuli/rescaled_final/1519_fw.mp4	0.0	142.0721778869629	0.09997320175170898
6	65.24290108680725	fix_pre	0		120	4.0	2.5	/experiments/knapen_AOT/AOT_stimuli/rescaled_final/0860_fw.mp4	0.0	142.1721510887146	1.0002379417419434
6	66.23496007919312	pulse	0	t		4.0	2.5	/experiments/knapen_AOT/AOT_stimuli/rescaled_final/0860_fw.mp4	0.0	143.16421008110046	
6	66.2431390285492	movie	1		244	4.0	2.5	/experiments/knapen_AOT/AOT_stimuli/rescaled_final/0860_fw.mp4	0.0	143.17238903045654	2.508646011352539
6	67.8363618850708	pulse	1	t		4.0	2.5	/experiments/knapen_AOT/AOT_stimuli/rescaled_final/0860_fw.mp4	0.0	144.76561188697815	
6	68.75178503990173	fix_post	2		12	4.0	2.5	/experiments/knapen_AOT/AOT_stimuli/rescaled_final/0860_fw.mp4	0.0	145.68103504180908	0.10008502006530762
7	68.85187005996704	fix_pre	0		120	5.0	2.5	/experiments/knapen_AOT/AOT_stimuli/rescaled_final/1757_rv.mp4	0.0	145.7811200618744	1.0000848770141602
7	69.43538188934326	pulse	0	t		5.0	2.5	/experiments/knapen_AOT/AOT_stimuli/rescaled_final/1757_rv.mp4	0.0	146.3646318912506	
7	69.8519549369812	movie	1		242	5.0	2.5	/experiments/knapen_AOT/AOT_stimuli/rescaled_final/1757_rv.mp4	0.0	146.78120493888855	2.50046706199646
7	71.03577589988708	pulse	1	t		5.0	2.5	/experiments/knapen_AOT/AOT_stimuli/rescaled_final/1757_rv.mp4	0.0	147.96502590179443	
7	72.35242199897766	fix_post	2		12	5.0	2.5	/experiments/knapen_AOT/AOT_stimuli/rescaled_final/1757_rv.mp4	0.0	149.281672000885	0.09988808631896973
8	72.45231008529663	fix_pre	0		120	6.0	2.5	blank	1.0	149.38156008720398	1.0001649856567383
8	72.63596987724304	pulse	0	t		6.0	2.5	blank	1.0	149.5652198791504	
8	73.45247507095337	movie	1		300	6.0	2.5	blank	1.0	150.38172507286072	2.500351905822754
8	74.23607587814331	pulse	1	t		6.0	2.5	blank	1.0	151.16532588005066	
8	75.8362889289856	pulse	1	t		6.0	2.5	blank	1.0	152.76553893089294	
8	75.95282697677612	fix_post	2		12	6.0	2.5	blank	1.0	152.88207697868347	0.10000896453857422
9	76.0528359413147	fix_pre	0		120	7.0	2.5	/experiments/knapen_AOT/AOT_stimuli/rescaled_final/0696_rv.mp4	0.0	152.98208594322205	1.0001580715179443
9	77.05299401283264	movie	1		241	7.0	2.5	/experiments/knapen_AOT/AOT_stimuli/rescaled_final/0696_rv.mp4	0.0	153.98224401474	2.4921319484710693
9	77.437087059021	pulse	1	t		7.0	2.5	/experiments/knapen_AOT/AOT_stimuli/rescaled_final/0696_rv.mp4	0.0	154.36633706092834	
9	79.03688192367554	pulse	1	t		7.0	2.5	/experiments/knapen_AOT/AOT_stimuli/rescaled_final/0696_rv.mp4	0.0	155.96613192558289	
9	79.54512596130371	fix_post	2		12	7.0	2.5	/experiments/knapen_AOT/AOT_stimuli/rescaled_final/0696_rv.mp4	0.0	156.47437596321106	0.09993791580200195
10	79.64506387710571	fix_pre	0		116	8.0	2.5	/experiments/knapen_AOT/AOT_stimuli/rescaled_final/1162_rv.mp4	0.0	156.57431387901306	1.0001451969146729
10	80.63709998130798	pulse	0	t		8.0	2.5	/experiments/knapen_AOT/AOT_stimuli/rescaled_final/1162_rv.mp4	0.0	157.56634998321533	
10	80.64520907402039	movie	1		244	8.0	2.5	/experiments/knapen_AOT/AOT_stimuli/rescaled_final/1162_rv.mp4	0.0	157.57445907592773	2.5086958408355713
10	82.24198389053345	pulse	1	t		8.0	2.5	/experiments/knapen_AOT/AOT_stimuli/rescaled_final/1162_rv.mp4	0.0	159.1712338924408	
10	83.15390491485596	fix_post	2		12	8.0	2.5	/experiments/knapen_AOT/AOT_stimuli/rescaled_final/1162_rv.mp4	0.0	160.0831549167633	0.10008096694946289
11	83.25398588180542	fix_pre	0		120	9.0	2.5	/experiments/knapen_AOT/AOT_stimuli/rescaled_final/1094_fw.mp4	0.0	160.18323588371277	1.0000882148742676
11	83.83750009536743	pulse	0	t		9.0	2.5	/experiments/knapen_AOT/AOT_stimuli/rescaled_final/1094_fw.mp4	0.0	160.76675009727478	
11	84.25407409667969	movie	1		242	9.0	2.5	/experiments/knapen_AOT/AOT_stimuli/rescaled_final/1094_fw.mp4	0.0	161.18332409858704	2.5004608631134033
11	85.43792510032654	pulse	1	t		9.0	2.5	/experiments/knapen_AOT/AOT_stimuli/rescaled_final/1094_fw.mp4	0.0	162.3671751022339	
11	86.75453495979309	fix_post	2		12	9.0	2.5	/experiments/knapen_AOT/AOT_stimuli/rescaled_final/1094_fw.mp4	0.0	163.68378496170044	0.0999441146850586
12	86.85447907447815	fix_pre	0		120	10.0	2.5	/experiments/knapen_AOT/AOT_stimuli/rescaled_final/1203_fw.mp4	0.0	163.7837290763855	1.0001139640808105
12	87.03051710128784	pulse	0	t		10.0	2.5	/experiments/knapen_AOT/AOT_stimuli/rescaled_final/1203_fw.mp4	0.0	163.9597671031952	
12	87.85459303855896	movie	1		243	10.0	2.5	/experiments/knapen_AOT/AOT_stimuli/rescaled_final/1203_fw.mp4	0.0	164.7838430404663	2.500483989715576
12	88.63102293014526	pulse	1	t		10.0	2.5	/experiments/knapen_AOT/AOT_stimuli/rescaled_final/1203_fw.mp4	0.0	165.5602729320526	
12	90.23849105834961	pulse	1	t		10.0	2.5	/experiments/knapen_AOT/AOT_stimuli/rescaled_final/1203_fw.mp4	0.0	167.16774106025696	
12	90.35507702827454	fix_post	2		12	10.0	2.5	/experiments/knapen_AOT/AOT_stimuli/rescaled_final/1203_fw.mp4	0.0	167.28432703018188	0.09990406036376953
13	90.4549810886383	fix_pre	0		120	11.0	2.5	/experiments/knapen_AOT/AOT_stimuli/rescaled_final/0213_fw.mp4	0.0	167.38423109054565	1.0001559257507324
13	91.45513701438904	movie	1		243	11.0	2.5	/experiments/knapen_AOT/AOT_stimuli/rescaled_final/0213_fw.mp4	0.0	168.3843870162964	2.4920880794525146
13	91.83057498931885	pulse	1	t		11.0	2.5	/experiments/knapen_AOT/AOT_stimuli/rescaled_final/0213_fw.mp4	0.0	168.7598249912262	
13	93.43082594871521	pulse	1	t		11.0	2.5	/experiments/knapen_AOT/AOT_stimuli/rescaled_final/0213_fw.mp4	0.0	170.36007595062256	
13	93.94722509384155	fix_post	2		12	11.0	2.5	/experiments/knapen_AOT/AOT_stimuli/rescaled_final/0213_fw.mp4	0.0	170.8764750957489	0.09997677803039551
14	94.04720187187195	fix_pre	0		119	12.0	2.5	/experiments/knapen_AOT/AOT_stimuli/rescaled_final/1020_rv.mp4	0.0	170.9764518737793	0.9918761253356934
14	95.03083395957947	pulse	0	t		12.0	2.5	/experiments/knapen_AOT/AOT_stimuli/rescaled_final/1020_rv.mp4	0.0	171.96008396148682	
14	95.03907799720764	movie	1		245	12.0	2.5	/experiments/knapen_AOT/AOT_stimuli/rescaled_final/1020_rv.mp4	0.0	171.968327999115	2.5086679458618164
14	96.63173508644104	pulse	1	t		12.0	2.5	/experiments/knapen_AOT/AOT_stimuli/rescaled_final/1020_rv.mp4	0.0	173.5609850883484	
14	97.54774594306946	fix_post	2		12	12.0	2.5	/experiments/knapen_AOT/AOT_stimuli/rescaled_final/1020_rv.mp4	0.0	174.4769959449768	0.09999299049377441
15	97.64773893356323	fix_pre	0		120	13.0	2.5	blank	1.0	174.57698893547058	1.0001859664916992
15	98.23147892951965	pulse	0	t		13.0	2.5	blank	1.0	175.160728931427	
15	98.64792490005493	movie	1		300	13.0	2.5	blank	1.0	175.57717490196228	2.5003581047058105
15	99.83161306381226	pulse	1	t		13.0	2.5	blank	1.0	176.7608630657196	
15	101.14828300476074	fix_post	2		12	13.0	2.5	blank	1.0	178.0775330066681	0.10000801086425781
16	101.248291015625	fix_pre	0		120	14.0	2.5	/experiments/knapen_AOT/AOT_stimuli/rescaled_final/1932_rv.mp4	0.0	178.17754101753235	1.0001230239868164
16	101.43186497688293	pulse	0	t		14.0	2.5	/experiments/knapen_AOT/AOT_stimuli/rescaled_final/1932_rv.mp4	0.0	178.36111497879028	
16	102.24841403961182	movie	1		244	14.0	2.5	/experiments/knapen_AOT/AOT_stimuli/rescaled_final/1932_rv.mp4	0.0	179.17766404151917	2.5003929138183594
16	103.03201293945312	pulse	1	t		14.0	2.5	/experiments/knapen_AOT/AOT_stimuli/rescaled_final/1932_rv.mp4	0.0	179.96126294136047	
16	104.63240098953247	pulse	1	t		14.0	2.5	/experiments/knapen_AOT/AOT_stimuli/rescaled_final/1932_rv.mp4	0.0	181.56165099143982	
16	104.74880695343018	fix_post	2		12	14.0	2.5	/experiments/knapen_AOT/AOT_stimuli/rescaled_final/1932_rv.mp4	0.0	181.67805695533752	0.10003399848937988
17	104.84884095191956	fix_pre	0		119	15.0	2.5	/experiments/knapen_AOT/AOT_stimuli/rescaled_final/1710_rv.mp4	0.0	181.7780909538269	0.9918069839477539
17	105.84064793586731	movie	1		243	15.0	2.5	/experiments/knapen_AOT/AOT_stimuli/rescaled_final/1710_rv.mp4	0.0	182.76989793777466	2.500460147857666
17	106.23270297050476	pulse	1	t		15.0	2.5	/experiments/knapen_AOT/AOT_stimuli/rescaled_final/1710_rv.mp4	0.0	183.1619529724121	
17	107.83276391029358	pulse	1	t		15.0	2.5	/experiments/knapen_AOT/AOT_stimuli/rescaled_final/1710_rv.mp4	0.0	184.76201391220093	
17	108.34110808372498	fix_post	2		12	15.0	2.5	/experiments/knapen_AOT/AOT_stimuli/rescaled_final/1710_rv.mp4	0.0	185.27035808563232	0.09988880157470703
18	108.44099688529968	fix_pre	0		120	16.0	2.5	/experiments/knapen_AOT/AOT_stimuli/rescaled_final/0921_rv.mp4	0.0	185.37024688720703	1.000236988067627
18	109.43303394317627	pulse	0	t		16.0	2.5	/experiments/knapen_AOT/AOT_stimuli/rescaled_final/0921_rv.mp4	0.0	186.36228394508362	
18	109.44123387336731	movie	1		244	16.0	2.5	/experiments/knapen_AOT/AOT_stimuli/rescaled_final/0921_rv.mp4	0.0	186.37048387527466	2.5086212158203125
18	111.03370404243469	pulse	1	t		16.0	2.5	/experiments/knapen_AOT/AOT_stimuli/rescaled_final/0921_rv.mp4	0.0	187.96295404434204	
18	111.94985508918762	fix_post	2		12	16.0	2.5	/experiments/knapen_AOT/AOT_stimuli/rescaled_final/0921_rv.mp4	0.0	188.87910509109497	0.0999908447265625
19	112.04984593391418	fix_pre	0		120	17.0	2.5	/experiments/knapen_AOT/AOT_stimuli/rescaled_final/0580_fw.mp4	0.0	188.97909593582153	1.000223159790039
19	112.633553981781	pulse	0	t		17.0	2.5	/experiments/knapen_AOT/AOT_stimuli/rescaled_final/0580_fw.mp4	0.0	189.56280398368835	
19	113.05006909370422	movie	1		242	17.0	2.5	/experiments/knapen_AOT/AOT_stimuli/rescaled_final/0580_fw.mp4	0.0	189.97931909561157	2.500487804412842
19	114.23384308815002	pulse	1	t		17.0	2.5	/experiments/knapen_AOT/AOT_stimuli/rescaled_final/0580_fw.mp4	0.0	191.16309309005737	
19	115.55055689811707	fix_post	2		12	17.0	2.5	/experiments/knapen_AOT/AOT_stimuli/rescaled_final/0580_fw.mp4	0.0	192.4798069000244	0.09989500045776367
20	115.65045189857483	fix_pre	0		120	18.0	2.5	/experiments/knapen_AOT/AOT_stimuli/rescaled_final/1591_fw.mp4	0.0	192.57970190048218	1.0001020431518555
20	115.83397698402405	pulse	0	t		18.0	2.5	/experiments/knapen_AOT/AOT_stimuli/rescaled_final/1591_fw.mp4	0.0	192.7632269859314	
20	116.65055394172668	movie	1		243	18.0	2.5	/experiments/knapen_AOT/AOT_stimuli/rescaled_final/1591_fw.mp4	0.0	193.57980394363403	2.5004351139068604
20	117.43419694900513	pulse	1	t		18.0	2.5	/experiments/knapen_AOT/AOT_stimuli/rescaled_final/1591_fw.mp4	0.0	194.36344695091248	
20	119.03418588638306	pulse	1	t		18.0	2.5	/experiments/knapen_AOT/AOT_stimuli/rescaled_final/1591_fw.mp4	0.0	195.9634358882904	
20	119.15098905563354	fix_post	2		12	18.0	2.5	/experiments/knapen_AOT/AOT_stimuli/rescaled_final/1591_fw.mp4	0.0	196.0802390575409	0.09995698928833008
21	119.25094604492188	fix_pre	0		120	19.0	2.5	/experiments/knapen_AOT/AOT_stimuli/rescaled_final/0539_rv.mp4	0.0	196.18019604682922	1.000169038772583
21	120.25111508369446	movie	1		242	19.0	2.5	/experiments/knapen_AOT/AOT_stimuli/rescaled_final/0539_rv.mp4	0.0	197.1803650856018	2.4921798706054688
21	120.63900899887085	pulse	1	t		19.0	2.5	/experiments/knapen_AOT/AOT_stimuli/rescaled_final/0539_rv.mp4	0.0	197.5682590007782	
21	122.23491787910461	pulse	1	t		19.0	2.5	/experiments/knapen_AOT/AOT_stimuli/rescaled_final/0539_rv.mp4	0.0	199.16416788101196	
21	122.74329495429993	fix_post	2		12	19.0	2.5	/experiments/knapen_AOT/AOT_stimuli/rescaled_final/0539_rv.mp4	0.0	199.67254495620728	0.09992814064025879
22	122.84322309494019	fix_pre	0		120	20.0	2.5	blank	1.0	199.77247309684753	1.0000789165496826
22	123.83524298667908	pulse	0	t		20.0	2.5	blank	1.0	200.76449298858643	
22	123.84330201148987	movie	1		301	20.0	2.5	blank	1.0	200.77255201339722	2.508780002593994
22	125.43554592132568	pulse	1	t		20.0	2.5	blank	1.0	202.36479592323303	
22	126.35208201408386	fix_post	2		12	20.0	2.5	blank	1.0	203.2813320159912	0.09991788864135742
23	126.45199990272522	fix_pre	0		120	21.0	2.5	/experiments/knapen_AOT/AOT_stimuli/rescaled_final/1819_fw.mp4	0.0	203.38124990463257	1.000195026397705
23	127.0357871055603	pulse	0	t		21.0	2.5	/experiments/knapen_AOT/AOT_stimuli/rescaled_final/1819_fw.mp4	0.0	203.96503710746765	
23	127.45219492912292	movie	1		243	21.0	2.5	/experiments/knapen_AOT/AOT_stimuli/rescaled_final/1819_fw.mp4	0.0	204.38144493103027	2.5004971027374268
23	128.63600301742554	pulse	1	t		21.0	2.5	/experiments/knapen_AOT/AOT_stimuli/rescaled_final/1819_fw.mp4	0.0	205.56525301933289	
23	129.95269203186035	fix_post	2		12	21.0	2.5	/experiments/knapen_AOT/AOT_stimuli/rescaled_final/1819_fw.mp4	0.0	206.8819420337677	0.09987306594848633
24	130.05256509780884	fix_pre	0		120	22.0	2.5	/experiments/knapen_AOT/AOT_stimuli/rescaled_final/0422_rv.mp4	0.0	206.9818150997162	1.0001559257507324
24	130.23607802391052	pulse	0	t		22.0	2.5	/experiments/knapen_AOT/AOT_stimuli/rescaled_final/0422_rv.mp4	0.0	207.16532802581787	
24	131.05272102355957	movie	1		243	22.0	2.5	/experiments/knapen_AOT/AOT_stimuli/rescaled_final/0422_rv.mp4	0.0	207.98197102546692	2.5004830360412598
24	131.83651399612427	pulse	1	t		22.0	2.5	/experiments/knapen_AOT/AOT_stimuli/rescaled_final/0422_rv.mp4	0.0	208.76576399803162	
24	133.43635487556458	pulse	1	t		22.0	2.5	/experiments/knapen_AOT/AOT_stimuli/rescaled_final/0422_rv.mp4	0.0	210.36560487747192	
24	133.55320405960083	fix_post	2		12	22.0	2.5	/experiments/knapen_AOT/AOT_stimuli/rescaled_final/0422_rv.mp4	0.0	210.48245406150818	0.09990787506103516
25	133.65311193466187	fix_pre	0		120	23.0	2.5	/experiments/knapen_AOT/AOT_stimuli/rescaled_final/0764_fw.mp4	0.0	210.5823619365692	1.0001959800720215
25	134.6533079147339	movie	1		244	23.0	2.5	/experiments/knapen_AOT/AOT_stimuli/rescaled_final/0764_fw.mp4	0.0	211.58255791664124	2.5003139972686768
25	135.037437915802	pulse	1	t		23.0	2.5	/experiments/knapen_AOT/AOT_stimuli/rescaled_final/0764_fw.mp4	0.0	211.96668791770935	
25	136.63703393936157	pulse	1	t		23.0	2.5	/experiments/knapen_AOT/AOT_stimuli/rescaled_final/0764_fw.mp4	0.0	213.56628394126892	
25	137.15362191200256	fix_post	2		11	23.0	2.5	/experiments/knapen_AOT/AOT_stimuli/rescaled_final/0764_fw.mp4	0.0	214.0828719139099	0.09170198440551758
26	137.24532389640808	fix_pre	0		120	24.0	2.5	/experiments/knapen_AOT/AOT_stimuli/rescaled_final/1069_fw.mp4	0.0	214.17457389831543	1.0001201629638672
26	138.23745703697205	pulse	0	t		24.0	2.5	/experiments/knapen_AOT/AOT_stimuli/rescaled_final/1069_fw.mp4	0.0	215.1667070388794	
26	138.24544405937195	movie	1		243	24.0	2.5	/experiments/knapen_AOT/AOT_stimuli/rescaled_final/1069_fw.mp4	0.0	215.1746940612793	2.508720874786377
26	139.8379590511322	pulse	1	t		24.0	2.5	/experiments/knapen_AOT/AOT_stimuli/rescaled_final/1069_fw.mp4	0.0	216.76720905303955	
26	140.75416493415833	fix_post	2		10	24.0	2.5	/experiments/knapen_AOT/AOT_stimuli/rescaled_final/1069_fw.mp4	0.0	217.68341493606567	0.10012412071228027
27	140.8542890548706	fix_pre	0		120	25.0	2.5	/experiments/knapen_AOT/AOT_stimuli/rescaled_final/1335_rv.mp4	0.0	217.78353905677795	1.0000929832458496
27	141.4379050731659	pulse	0	t		25.0	2.5	/experiments/knapen_AOT/AOT_stimuli/rescaled_final/1335_rv.mp4	0.0	218.36715507507324	
27	141.85438203811646	movie	1		242	25.0	2.5	/experiments/knapen_AOT/AOT_stimuli/rescaled_final/1335_rv.mp4	0.0	218.7836320400238	2.5004758834838867
27	143.03806400299072	pulse	1	t		25.0	2.5	/experiments/knapen_AOT/AOT_stimuli/rescaled_final/1335_rv.mp4	0.0	219.96731400489807	
27	144.35485792160034	fix_post	2		12	25.0	2.5	/experiments/knapen_AOT/AOT_stimuli/rescaled_final/1335_rv.mp4	0.0	221.2841079235077	0.09985709190368652
28	144.45471501350403	fix_pre	0		120	26.0	2.5	/experiments/knapen_AOT/AOT_stimuli/rescaled_final/1256_fw.mp4	0.0	221.38396501541138	1.00016188621521
28	144.63825392723083	pulse	0	t		26.0	2.5	/experiments/knapen_AOT/AOT_stimuli/rescaled_final/1256_fw.mp4	0.0	221.56750392913818	
28	145.45487689971924	movie	1		245	26.0	2.5	/experiments/knapen_AOT/AOT_stimuli/rescaled_final/1256_fw.mp4	0.0	222.3841269016266	2.5003931522369385
28	146.2310230731964	pulse	1	t		26.0	2.5	/experiments/knapen_AOT/AOT_stimuli/rescaled_final/1256_fw.mp4	0.0	223.16027307510376	
28	147.83127689361572	pulse	1	t		26.0	2.5	/experiments/knapen_AOT/AOT_stimuli/rescaled_final/1256_fw.mp4	0.0	224.76052689552307	
28	147.95527005195618	fix_post	2		12	26.0	2.5	/experiments/knapen_AOT/AOT_stimuli/rescaled_final/1256_fw.mp4	0.0	224.88452005386353	0.10001397132873535
29	148.0552840232849	fix_pre	0		120	27.0	2.5	/experiments/knapen_AOT/AOT_stimuli/rescaled_final/2037_rv.mp4	0.0	224.98453402519226	1.0001120567321777
29	149.0553960800171	movie	1		242	27.0	2.5	/experiments/knapen_AOT/AOT_stimuli/rescaled_final/2037_rv.mp4	0.0	225.98464608192444	2.492036819458008
29	149.43973302841187	pulse	1	t		27.0	2.5	/experiments/knapen_AOT/AOT_stimuli/rescaled_final/2037_rv.mp4	0.0	226.3689830303192	
29	151.031986951828	pulse	1	t		27.0	2.5	/experiments/knapen_AOT/AOT_stimuli/rescaled_final/2037_rv.mp4	0.0	227.96123695373535	
29	151.5474328994751	fix_post	2		12	27.0	2.5	/experiments/knapen_AOT/AOT_stimuli/rescaled_final/2037_rv.mp4	0.0	228.47668290138245	0.10002303123474121
30	151.64745593070984	fix_pre	0		119	28.0	2.5	blank	1.0	228.5767059326172	0.9918780326843262
30	152.63127207756042	pulse	0	t		28.0	2.5	blank	1.0	229.56052207946777	
30	152.63933396339417	movie	1		301	28.0	2.5	blank	1.0	229.5685839653015	2.5086710453033447
30	154.23152804374695	pulse	1	t		28.0	2.5	blank	1.0	231.1607780456543	
30	155.1480050086975	fix_post	2		12	28.0	2.5	blank	1.0	232.07725501060486	0.10001492500305176
31	155.24801993370056	fix_pre	0		120	29.0	2.5	/experiments/knapen_AOT/AOT_stimuli/rescaled_final/1502_rv.mp4	0.0	232.1772699356079	1.0001389980316162
31	155.8315770626068	pulse	0	t		29.0	2.5	/experiments/knapen_AOT/AOT_stimuli/rescaled_final/1502_rv.mp4	0.0	232.76082706451416	
31	156.24815893173218	movie	1		244	29.0	2.5	/experiments/knapen_AOT/AOT_stimuli/rescaled_final/1502_rv.mp4	0.0	233.17740893363953	2.5003769397735596
31	157.4319670200348	pulse	1	t		29.0	2.5	/experiments/knapen_AOT/AOT_stimuli/rescaled_final/1502_rv.mp4	0.0	234.36121702194214	
31	158.74853587150574	fix_post	2		12	29.0	2.5	/experiments/knapen_AOT/AOT_stimuli/rescaled_final/1502_rv.mp4	0.0	235.6777858734131	0.09997820854187012
32	158.8485140800476	fix_pre	0		120	30.0	2.5	/experiments/knapen_AOT/AOT_stimuli/rescaled_final/1335_rv.mp4	0.0	235.77776408195496	1.0002069473266602
32	159.032084941864	pulse	0	t		30.0	2.5	/experiments/knapen_AOT/AOT_stimuli/rescaled_final/1335_rv.mp4	0.0	235.96133494377136	
32	159.84872102737427	movie	1		242	30.0	2.5	/experiments/knapen_AOT/AOT_stimuli/rescaled_final/1335_rv.mp4	0.0	236.77797102928162	2.500330924987793
32	160.6323959827423	pulse	1	t		30.0	2.5	/experiments/knapen_AOT/AOT_stimuli/rescaled_final/1335_rv.mp4	0.0	237.56164598464966	
32	162.23308205604553	pulse	1	t		30.0	2.5	/experiments/knapen_AOT/AOT_stimuli/rescaled_final/1335_rv.mp4	0.0	239.16233205795288	
32	162.34905195236206	fix_post	2		12	30.0	2.5	/experiments/knapen_AOT/AOT_stimuli/rescaled_final/1335_rv.mp4	0.0	239.2783019542694	0.10000205039978027
33	162.44905400276184	fix_pre	0		120	31.0	2.5	/experiments/knapen_AOT/AOT_stimuli/rescaled_final/1826_fw.mp4	0.0	239.3783040046692	1.0001890659332275
33	163.44924306869507	movie	1		243	31.0	2.5	/experiments/knapen_AOT/AOT_stimuli/rescaled_final/1826_fw.mp4	0.0	240.37849307060242	2.4920289516448975
33	163.8332450389862	pulse	1	t		31.0	2.5	/experiments/knapen_AOT/AOT_stimuli/rescaled_final/1826_fw.mp4	0.0	240.76249504089355	
33	165.43306589126587	pulse	1	t		31.0	2.5	/experiments/knapen_AOT/AOT_stimuli/rescaled_final/1826_fw.mp4	0.0	242.36231589317322	
33	165.94127202033997	fix_post	2		12	31.0	2.5	/experiments/knapen_AOT/AOT_stimuli/rescaled_final/1826_fw.mp4	0.0	242.87052202224731	0.10014104843139648
34	166.04141306877136	fix_pre	0		120	32.0	2.5	/experiments/knapen_AOT/AOT_stimuli/rescaled_final/1723_rv.mp4	0.0	242.9706630706787	1.000065803527832
34	167.033264875412	pulse	0	t		32.0	2.5	/experiments/knapen_AOT/AOT_stimuli/rescaled_final/1723_rv.mp4	0.0	243.96251487731934	
34	167.0414788722992	movie	1		243	32.0	2.5	/experiments/knapen_AOT/AOT_stimuli/rescaled_final/1723_rv.mp4	0.0	243.97072887420654	2.508634090423584
34	168.63409304618835	pulse	1	t		32.0	2.5	/experiments/knapen_AOT/AOT_stimuli/rescaled_final/1723_rv.mp4	0.0	245.5633430480957	
34	169.55011296272278	fix_post	2		12	32.0	2.5	/experiments/knapen_AOT/AOT_stimuli/rescaled_final/1723_rv.mp4	0.0	246.47936296463013	0.10002994537353516
35	169.6501429080963	fix_pre	0		120	33.0	2.5	/experiments/knapen_AOT/AOT_stimuli/rescaled_final/1964_rv.mp4	0.0	246.57939291000366	1.000176191329956
35	170.23378491401672	pulse	0	t		33.0	2.5	/experiments/knapen_AOT/AOT_stimuli/rescaled_final/1964_rv.mp4	0.0	247.16303491592407	
35	170.65031909942627	movie	1		244	33.0	2.5	/experiments/knapen_AOT/AOT_stimuli/rescaled_final/1964_rv.mp4	0.0	247.57956910133362	2.5002849102020264
35	171.83414888381958	pulse	1	t		33.0	2.5	/experiments/knapen_AOT/AOT_stimuli/rescaled_final/1964_rv.mp4	0.0	248.76339888572693	
35	173.1506040096283	fix_post	2		12	33.0	2.5	/experiments/knapen_AOT/AOT_stimuli/rescaled_final/1964_rv.mp4	0.0	250.07985401153564	0.1001129150390625
36	173.25071692466736	fix_pre	0		120	34.0	2.5	blank	1.0	250.1799669265747	1.0001270771026611
36	173.43420600891113	pulse	0	t		34.0	2.5	blank	1.0	250.36345601081848	
36	174.25084400177002	movie	1		300	34.0	2.5	blank	1.0	251.18009400367737	2.5003468990325928
36	175.03447794914246	pulse	1	t		34.0	2.5	blank	1.0	251.9637279510498	
36	176.63469791412354	pulse	1	t		34.0	2.5	blank	1.0	253.56394791603088	
36	176.7511909008026	fix_post	2		12	34.0	2.5	blank	1.0	253.68044090270996	0.10001897811889648
37	176.8512098789215	fix_pre	0		120	35.0	2.5	/experiments/knapen_AOT/AOT_stimuli/rescaled_final/0368_rv.mp4	0.0	253.78045988082886	1.0001811981201172
37	177.85139107704163	movie	1		242	35.0	2.5	/experiments/knapen_AOT/AOT_stimuli/rescaled_final/0368_rv.mp4	0.0	254.78064107894897	2.492008924484253
37	178.23560690879822	pulse	1	t		35.0	2.5	/experiments/knapen_AOT/AOT_stimuli/rescaled_final/0368_rv.mp4	0.0	255.16485691070557	
37	179.83523201942444	pulse	1	t		35.0	2.5	/experiments/knapen_AOT/AOT_stimuli/rescaled_final/0368_rv.mp4	0.0	256.7644820213318	
37	180.34340000152588	fix_post	2		12	35.0	2.5	/experiments/knapen_AOT/AOT_stimuli/rescaled_final/0368_rv.mp4	0.0	257.2726500034332	0.10001897811889648
38	180.44341897964478	fix_pre	0		120	36.0	2.5	/experiments/knapen_AOT/AOT_stimuli/rescaled_final/0417_rv.mp4	0.0	257.3726689815521	1.0001630783081055
38	181.43551301956177	pulse	0	t		36.0	2.5	/experiments/knapen_AOT/AOT_stimuli/rescaled_final/0417_rv.mp4	0.0	258.3647630214691	
38	181.44358205795288	movie	1		244	36.0	2.5	/experiments/knapen_AOT/AOT_stimuli/rescaled_final/0417_rv.mp4	0.0	258.37283205986023	2.5087509155273438
38	183.0364420413971	pulse	1	t		36.0	2.5	/experiments/knapen_AOT/AOT_stimuli/rescaled_final/0417_rv.mp4	0.0	259.96569204330444	
38	183.95233297348022	fix_post	2		12	36.0	2.5	/experiments/knapen_AOT/AOT_stimuli/rescaled_final/0417_rv.mp4	0.0	260.8815829753876	0.10006403923034668
39	184.05239701271057	fix_pre	0		120	37.0	2.5	/experiments/knapen_AOT/AOT_stimuli/rescaled_final/2032_rv.mp4	0.0	260.9816470146179	1.0000488758087158
39	184.63595604896545	pulse	0	t		37.0	2.5	/experiments/knapen_AOT/AOT_stimuli/rescaled_final/2032_rv.mp4	0.0	261.5652060508728	
39	185.0524458885193	movie	1		242	37.0	2.5	/experiments/knapen_AOT/AOT_stimuli/rescaled_final/2032_rv.mp4	0.0	261.98169589042664	2.5004470348358154
39	186.23226594924927	pulse	1	t		37.0	2.5	/experiments/knapen_AOT/AOT_stimuli/rescaled_final/2032_rv.mp4	0.0	263.1615159511566	
39	187.5528929233551	fix_post	2		12	37.0	2.5	/experiments/knapen_AOT/AOT_stimuli/rescaled_final/2032_rv.mp4	0.0	264.48214292526245	0.09995007514953613
40	187.65284299850464	fix_pre	0		120	38.0	2.5	/experiments/knapen_AOT/AOT_stimuli/rescaled_final/1788_fw.mp4	0.0	264.582093000412	1.0001559257507324
40	187.83634996414185	pulse	0	t		38.0	2.5	/experiments/knapen_AOT/AOT_stimuli/rescaled_final/1788_fw.mp4	0.0	264.7655999660492	
40	188.65299892425537	movie	1		243	38.0	2.5	/experiments/knapen_AOT/AOT_stimuli/rescaled_final/1788_fw.mp4	0.0	265.5822489261627	2.5003750324249268
40	189.43661403656006	pulse	1	t		38.0	2.5	/experiments/knapen_AOT/AOT_stimuli/rescaled_final/1788_fw.mp4	0.0	266.3658640384674	
40	191.0375189781189	pulse	1	t		38.0	2.5	/experiments/knapen_AOT/AOT_stimuli/rescaled_final/1788_fw.mp4	0.0	267.96676898002625	
40	191.1533739566803	fix_post	2		12	38.0	2.5	/experiments/knapen_AOT/AOT_stimuli/rescaled_final/1788_fw.mp4	0.0	268.08262395858765	0.09998703002929688
41	191.2533609867096	fix_pre	0		120	39.0	2.5	/experiments/knapen_AOT/AOT_stimuli/rescaled_final/0600_fw.mp4	0.0	268.18261098861694	1.0001709461212158
41	192.2535319328308	movie	1		242	39.0	2.5	/experiments/knapen_AOT/AOT_stimuli/rescaled_final/0600_fw.mp4	0.0	269.18278193473816	2.492122173309326
41	192.63773798942566	pulse	1	t		39.0	2.5	/experiments/knapen_AOT/AOT_stimuli/rescaled_final/0600_fw.mp4	0.0	269.566987991333	
41	194.23743987083435	pulse	1	t		39.0	2.5	/experiments/knapen_AOT/AOT_stimuli/rescaled_final/0600_fw.mp4	0.0	271.1666898727417	
41	194.74565410614014	fix_post	2		12	39.0	2.5	/experiments/knapen_AOT/AOT_stimuli/rescaled_final/0600_fw.mp4	0.0	271.6749041080475	0.09991288185119629
42	194.84556698799133	fix_pre	0		120	40.0	2.5	/experiments/knapen_AOT/AOT_stimuli/rescaled_final/1932_rv.mp4	0.0	271.7748169898987	1.000209093093872
42	195.83759307861328	pulse	0	t		40.0	2.5	/experiments/knapen_AOT/AOT_stimuli/rescaled_final/1932_rv.mp4	0.0	272.76684308052063	
42	195.8457760810852	movie	1		245	40.0	2.5	/experiments/knapen_AOT/AOT_stimuli/rescaled_final/1932_rv.mp4	0.0	272.77502608299255	2.5086679458618164
42	197.43856692314148	pulse	1	t		40.0	2.5	/experiments/knapen_AOT/AOT_stimuli/rescaled_final/1932_rv.mp4	0.0	274.3678169250488	
42	198.35444402694702	fix_post	2		12	40.0	2.5	/experiments/knapen_AOT/AOT_stimuli/rescaled_final/1932_rv.mp4	0.0	275.28369402885437	0.10002684593200684
43	198.45447087287903	fix_pre	0		120	41.0	2.5	/experiments/knapen_AOT/AOT_stimuli/rescaled_final/0236_fw.mp4	0.0	275.3837208747864	1.0001330375671387
43	199.0380539894104	pulse	0	t		41.0	2.5	/experiments/knapen_AOT/AOT_stimuli/rescaled_final/0236_fw.mp4	0.0	275.96730399131775	
43	199.45460391044617	movie	1		244	41.0	2.5	/experiments/knapen_AOT/AOT_stimuli/rescaled_final/0236_fw.mp4	0.0	276.3838539123535	2.500368118286133
43	200.6383719444275	pulse	1	t		41.0	2.5	/experiments/knapen_AOT/AOT_stimuli/rescaled_final/0236_fw.mp4	0.0	277.56762194633484	
43	201.9549720287323	fix_post	2		12	41.0	2.5	/experiments/knapen_AOT/AOT_stimuli/rescaled_final/0236_fw.mp4	0.0	278.88422203063965	0.10002994537353516
44	202.05500197410583	fix_pre	0		120	42.0	2.5	blank	1.0	278.9842519760132	1.000128984451294
44	202.23115801811218	pulse	0	t		42.0	2.5	blank	1.0	279.16040802001953	
44	203.05513095855713	movie	1		297	42.0	2.5	blank	1.0	279.9843809604645	2.500368118286133
44	203.8313798904419	pulse	1	t		42.0	2.5	blank	1.0	280.76062989234924	
44	205.4315059185028	pulse	1	t		42.0	2.5	blank	1.0	282.36075592041016	
44	205.55549907684326	fix_post	2		12	42.0	2.5	blank	1.0	282.4847490787506	0.10003781318664551
45	205.6555368900299	fix_pre	0		120	43.0	2.5	/experiments/knapen_AOT/AOT_stimuli/rescaled_final/0104_rv.mp4	0.0	282.58478689193726	1.0001301765441895
45	206.6556670665741	movie	1		241	43.0	2.5	/experiments/knapen_AOT/AOT_stimuli/rescaled_final/0104_rv.mp4	0.0	283.58491706848145	2.4921138286590576
45	207.0310230255127	pulse	1	t		43.0	2.5	/experiments/knapen_AOT/AOT_stimuli/rescaled_final/0104_rv.mp4	0.0	283.96027302742004	
45	208.63118696212769	pulse	1	t		43.0	2.5	/experiments/knapen_AOT/AOT_stimuli/rescaled_final/0104_rv.mp4	0.0	285.56043696403503	
45	209.14778089523315	fix_post	2		12	43.0	2.5	/experiments/knapen_AOT/AOT_stimuli/rescaled_final/0104_rv.mp4	0.0	286.0770308971405	0.09997105598449707
46	209.24775195121765	fix_pre	0		119	44.0	2.5	/experiments/knapen_AOT/AOT_stimuli/rescaled_final/0669_fw.mp4	0.0	286.177001953125	0.9918241500854492
46	210.23137187957764	pulse	0	t		44.0	2.5	/experiments/knapen_AOT/AOT_stimuli/rescaled_final/0669_fw.mp4	0.0	287.160621881485	
46	210.2395761013031	movie	1		244	44.0	2.5	/experiments/knapen_AOT/AOT_stimuli/rescaled_final/0669_fw.mp4	0.0	287.16882610321045	2.5087499618530273
46	211.83291792869568	pulse	1	t		44.0	2.5	/experiments/knapen_AOT/AOT_stimuli/rescaled_final/0669_fw.mp4	0.0	288.762167930603	
46	212.74832606315613	fix_post	2		12	44.0	2.5	/experiments/knapen_AOT/AOT_stimuli/rescaled_final/0669_fw.mp4	0.0	289.6775760650635	0.09997200965881348
47	212.84829807281494	fix_pre	0		120	45.0	2.5	/experiments/knapen_AOT/AOT_stimuli/rescaled_final/1091_rv.mp4	0.0	289.7775480747223	1.000108003616333
47	213.43190908432007	pulse	0	t		45.0	2.5	/experiments/knapen_AOT/AOT_stimuli/rescaled_final/1091_rv.mp4	0.0	290.3611590862274	
47	213.84840607643127	movie	1		243	45.0	2.5	/experiments/knapen_AOT/AOT_stimuli/rescaled_final/1091_rv.mp4	0.0	290.7776560783386	2.500432014465332
47	215.032222032547	pulse	1	t		45.0	2.5	/experiments/knapen_AOT/AOT_stimuli/rescaled_final/1091_rv.mp4	0.0	291.96147203445435	
47	216.3488380908966	fix_post	2		12	45.0	2.5	/experiments/knapen_AOT/AOT_stimuli/rescaled_final/1091_rv.mp4	0.0	293.27808809280396	0.09997987747192383
48	216.44881796836853	fix_pre	0		120	46.0	2.5	/experiments/knapen_AOT/AOT_stimuli/rescaled_final/0745_rv.mp4	0.0	293.3780679702759	1.0001370906829834
48	216.63238191604614	pulse	0	t		46.0	2.5	/experiments/knapen_AOT/AOT_stimuli/rescaled_final/0745_rv.mp4	0.0	293.5616319179535	
48	217.4489550590515	movie	1		244	46.0	2.5	/experiments/knapen_AOT/AOT_stimuli/rescaled_final/0745_rv.mp4	0.0	294.37820506095886	2.5004098415374756
48	218.23267006874084	pulse	1	t		46.0	2.5	/experiments/knapen_AOT/AOT_stimuli/rescaled_final/0745_rv.mp4	0.0	295.1619200706482	
48	219.83289289474487	pulse	1	t		46.0	2.5	/experiments/knapen_AOT/AOT_stimuli/rescaled_final/0745_rv.mp4	0.0	296.7621428966522	
48	219.949364900589	fix_post	2		12	46.0	2.5	/experiments/knapen_AOT/AOT_stimuli/rescaled_final/0745_rv.mp4	0.0	296.87861490249634	0.09998297691345215
49	220.04934787750244	fix_pre	0		120	47.0	2.5	/experiments/knapen_AOT/AOT_stimuli/rescaled_final/0258_rv.mp4	0.0	296.9785978794098	1.0001320838928223
49	221.04947996139526	movie	1		243	47.0	2.5	/experiments/knapen_AOT/AOT_stimuli/rescaled_final/0258_rv.mp4	0.0	297.9787299633026	2.492032051086426
49	221.43436002731323	pulse	1	t		47.0	2.5	/experiments/knapen_AOT/AOT_stimuli/rescaled_final/0258_rv.mp4	0.0	298.3636100292206	
49	223.03341388702393	pulse	1	t		47.0	2.5	/experiments/knapen_AOT/AOT_stimuli/rescaled_final/0258_rv.mp4	0.0	299.9626638889313	
49	223.5415120124817	fix_post	2		12	47.0	2.5	/experiments/knapen_AOT/AOT_stimuli/rescaled_final/0258_rv.mp4	0.0	300.47076201438904	0.10001301765441895
50	223.6415250301361	fix_pre	0		120	48.0	2.5	blank	1.0	300.57077503204346	1.0001678466796875
50	224.63360905647278	pulse	0	t		48.0	2.5	blank	1.0	301.5628590583801	
50	224.6416928768158	movie	1		301	48.0	2.5	blank	1.0	301.57094287872314	2.5087130069732666
50	226.23376297950745	pulse	1	t		48.0	2.5	blank	1.0	303.1630129814148	
50	227.15040588378906	fix_post	2		12	48.0	2.5	blank	1.0	304.0796558856964	0.10004401206970215
51	227.25044989585876	fix_pre	0		120	49.0	2.5	/experiments/knapen_AOT/AOT_stimuli/rescaled_final/1091_rv.mp4	0.0	304.1796998977661	1.0001001358032227
51	227.83396291732788	pulse	0	t		49.0	2.5	/experiments/knapen_AOT/AOT_stimuli/rescaled_final/1091_rv.mp4	0.0	304.76321291923523	
51	228.250550031662	movie	1		243	49.0	2.5	/experiments/knapen_AOT/AOT_stimuli/rescaled_final/1091_rv.mp4	0.0	305.17980003356934	2.5003838539123535
51	229.434387922287	pulse	1	t		49.0	2.5	/experiments/knapen_AOT/AOT_stimuli/rescaled_final/1091_rv.mp4	0.0	306.36363792419434	
51	230.75093388557434	fix_post	2		12	49.0	2.5	/experiments/knapen_AOT/AOT_stimuli/rescaled_final/1091_rv.mp4	0.0	307.6801838874817	0.09999513626098633
52	230.85092902183533	fix_pre	0		120	50.0	2.5	/experiments/knapen_AOT/AOT_stimuli/rescaled_final/1613_rv.mp4	0.0	307.7801790237427	1.0001599788665771
52	231.03460001945496	pulse	0	t		50.0	2.5	/experiments/knapen_AOT/AOT_stimuli/rescaled_final/1613_rv.mp4	0.0	307.9638500213623	
52	231.8510890007019	movie	1		244	50.0	2.5	/experiments/knapen_AOT/AOT_stimuli/rescaled_final/1613_rv.mp4	0.0	308.78033900260925	2.50042986869812
52	232.63490509986877	pulse	1	t		50.0	2.5	/experiments/knapen_AOT/AOT_stimuli/rescaled_final/1613_rv.mp4	0.0	309.5641551017761	
52	234.23688006401062	pulse	1	t		50.0	2.5	/experiments/knapen_AOT/AOT_stimuli/rescaled_final/1613_rv.mp4	0.0	311.16613006591797	
52	234.35151886940002	fix_post	2		12	50.0	2.5	/experiments/knapen_AOT/AOT_stimuli/rescaled_final/1613_rv.mp4	0.0	311.2807688713074	0.09995913505554199
53	234.45147800445557	fix_pre	0		120	51.0	2.5	/experiments/knapen_AOT/AOT_stimuli/rescaled_final/1932_fw.mp4	0.0	311.3807280063629	1.0001780986785889
53	235.45165610313416	movie	1		243	51.0	2.5	/experiments/knapen_AOT/AOT_stimuli/rescaled_final/1932_fw.mp4	0.0	312.3809061050415	2.492048978805542
53	235.83646702766418	pulse	1	t		51.0	2.5	/experiments/knapen_AOT/AOT_stimuli/rescaled_final/1932_fw.mp4	0.0	312.76571702957153	
53	237.43550610542297	pulse	1	t		51.0	2.5	/experiments/knapen_AOT/AOT_stimuli/rescaled_final/1932_fw.mp4	0.0	314.3647561073303	
53	237.9437050819397	fix_post	2		12	51.0	2.5	/experiments/knapen_AOT/AOT_stimuli/rescaled_final/1932_fw.mp4	0.0	314.87295508384705	0.1000058650970459
54	238.04371094703674	fix_pre	0		120	52.0	2.5	/experiments/knapen_AOT/AOT_stimuli/rescaled_final/0569_rv.mp4	0.0	314.9729609489441	1.0001330375671387
54	239.03582096099854	pulse	0	t		52.0	2.5	/experiments/knapen_AOT/AOT_stimuli/rescaled_final/0569_rv.mp4	0.0	315.9650709629059	
54	239.04384398460388	movie	1		244	52.0	2.5	/experiments/knapen_AOT/AOT_stimuli/rescaled_final/0569_rv.mp4	0.0	315.97309398651123	2.508699893951416
54	240.6402440071106	pulse	1	t		52.0	2.5	/experiments/knapen_AOT/AOT_stimuli/rescaled_final/0569_rv.mp4	0.0	317.56949400901794	
54	241.5525438785553	fix_post	2		12	52.0	2.5	/experiments/knapen_AOT/AOT_stimuli/rescaled_final/0569_rv.mp4	0.0	318.48179388046265	0.09999608993530273
55	241.6525399684906	fix_pre	0		120	53.0	2.5	/experiments/knapen_AOT/AOT_stimuli/rescaled_final/0053_fw.mp4	0.0	318.58178997039795	1.000162124633789
55	242.23612093925476	pulse	0	t		53.0	2.5	/experiments/knapen_AOT/AOT_stimuli/rescaled_final/0053_fw.mp4	0.0	319.1653709411621	
55	242.6527020931244	movie	1		243	53.0	2.5	/experiments/knapen_AOT/AOT_stimuli/rescaled_final/0053_fw.mp4	0.0	319.58195209503174	2.5003678798675537
55	243.83646607398987	pulse	1	t		53.0	2.5	/experiments/knapen_AOT/AOT_stimuli/rescaled_final/0053_fw.mp4	0.0	320.7657160758972	
55	245.15306997299194	fix_post	2		12	53.0	2.5	/experiments/knapen_AOT/AOT_stimuli/rescaled_final/0053_fw.mp4	0.0	322.0823199748993	0.10002493858337402
56	245.25309491157532	fix_pre	0		120	54.0	2.5	/experiments/knapen_AOT/AOT_stimuli/rescaled_final/0829_fw.mp4	0.0	322.18234491348267	1.0001590251922607
56	245.43675208091736	pulse	0	t		54.0	2.5	/experiments/knapen_AOT/AOT_stimuli/rescaled_final/0829_fw.mp4	0.0	322.3660020828247	
56	246.25325393676758	movie	1		242	54.0	2.5	/experiments/knapen_AOT/AOT_stimuli/rescaled_final/0829_fw.mp4	0.0	323.1825039386749	2.500519037246704
56	247.0370180606842	pulse	1	t		54.0	2.5	/experiments/knapen_AOT/AOT_stimuli/rescaled_final/0829_fw.mp4	0.0	323.96626806259155	
56	248.63693809509277	pulse	1	t		54.0	2.5	/experiments/knapen_AOT/AOT_stimuli/rescaled_final/0829_fw.mp4	0.0	325.5661880970001	
56	248.75377297401428	fix_post	2		12	54.0	2.5	/experiments/knapen_AOT/AOT_stimuli/rescaled_final/0829_fw.mp4	0.0	325.68302297592163	0.09991097450256348
57	248.85368394851685	fix_pre	0		120	55.0	2.5	blank	1.0	325.7829339504242	1.0000879764556885
57	249.85377192497253	movie	1		299	55.0	2.5	blank	1.0	326.7830219268799	2.4920461177825928
57	250.23736190795898	pulse	1	t		55.0	2.5	blank	1.0	327.16661190986633	
57	251.83762001991272	pulse	1	t		55.0	2.5	blank	1.0	328.76687002182007	
57	252.34581804275513	fix_post	2		12	55.0	2.5	blank	1.0	329.2750680446625	0.10001206398010254
58	252.44583010673523	fix_pre	0		120	56.0	2.5	/experiments/knapen_AOT/AOT_stimuli/rescaled_final/1256_rv.mp4	0.0	329.3750801086426	1.0001327991485596
58	253.43794989585876	pulse	0	t		56.0	2.5	/experiments/knapen_AOT/AOT_stimuli/rescaled_final/1256_rv.mp4	0.0	330.3671998977661	
58	253.4459629058838	movie	1		245	56.0	2.5	/experiments/knapen_AOT/AOT_stimuli/rescaled_final/1256_rv.mp4	0.0	330.37521290779114	2.508794069290161
58	255.03877997398376	pulse	1	t		56.0	2.5	/experiments/knapen_AOT/AOT_stimuli/rescaled_final/1256_rv.mp4	0.0	331.9680299758911	
58	255.95475697517395	fix_post	2		12	56.0	2.5	/experiments/knapen_AOT/AOT_stimuli/rescaled_final/1256_rv.mp4	0.0	332.8840069770813	0.09998893737792969
59	256.0547459125519	fix_pre	0		120	57.0	2.5	/experiments/knapen_AOT/AOT_stimuli/rescaled_final/0422_fw.mp4	0.0	332.98399591445923	1.0000979900360107
59	256.63831901550293	pulse	0	t		57.0	2.5	/experiments/knapen_AOT/AOT_stimuli/rescaled_final/0422_fw.mp4	0.0	333.5675690174103	
59	257.0548439025879	movie	1		243	57.0	2.5	/experiments/knapen_AOT/AOT_stimuli/rescaled_final/0422_fw.mp4	0.0	333.98409390449524	2.5004611015319824
59	258.2343020439148	pulse	1	t		57.0	2.5	/experiments/knapen_AOT/AOT_stimuli/rescaled_final/0422_fw.mp4	0.0	335.16355204582214	
59	259.5553050041199	fix_post	2		12	57.0	2.5	/experiments/knapen_AOT/AOT_stimuli/rescaled_final/0422_fw.mp4	0.0	336.4845550060272	0.09994387626647949
60	259.65524888038635	fix_pre	0		120	58.0	2.5	/experiments/knapen_AOT/AOT_stimuli/rescaled_final/0658_rv.mp4	0.0	336.5844988822937	1.0001070499420166
60	259.8388509750366	pulse	0	t		58.0	2.5	/experiments/knapen_AOT/AOT_stimuli/rescaled_final/0658_rv.mp4	0.0	336.76810097694397	
60	260.65535593032837	movie	1		242	58.0	2.5	/experiments/knapen_AOT/AOT_stimuli/rescaled_final/0658_rv.mp4	0.0	337.5846059322357	2.5004401206970215
60	261.4316289424896	pulse	1	t		58.0	2.5	/experiments/knapen_AOT/AOT_stimuli/rescaled_final/0658_rv.mp4	0.0	338.360878944397	
60	263.039155960083	pulse	1	t		58.0	2.5	/experiments/knapen_AOT/AOT_stimuli/rescaled_final/0658_rv.mp4	0.0	339.96840596199036	
60	263.1557960510254	fix_post	2		12	58.0	2.5	/experiments/knapen_AOT/AOT_stimuli/rescaled_final/0658_rv.mp4	0.0	340.08504605293274	0.10001993179321289
61	263.2558159828186	fix_pre	0		120	59.0	2.5	/experiments/knapen_AOT/AOT_stimuli/rescaled_final/0600_rv.mp4	0.0	340.18506598472595	1.0001261234283447
61	264.25594210624695	movie	1		241	59.0	2.5	/experiments/knapen_AOT/AOT_stimuli/rescaled_final/0600_rv.mp4	0.0	341.1851921081543	2.492034912109375
61	264.63998007774353	pulse	1	t		59.0	2.5	/experiments/knapen_AOT/AOT_stimuli/rescaled_final/0600_rv.mp4	0.0	341.5692300796509	
61	266.23247504234314	pulse	1	t		59.0	2.5	/experiments/knapen_AOT/AOT_stimuli/rescaled_final/0600_rv.mp4	0.0	343.1617250442505	
61	266.7479770183563	fix_post	2		12	59.0	2.5	/experiments/knapen_AOT/AOT_stimuli/rescaled_final/0600_rv.mp4	0.0	343.6772270202637	0.09999895095825195
62	266.8479759693146	fix_pre	0		119	60.0	2.5	/experiments/knapen_AOT/AOT_stimuli/rescaled_final/1826_rv.mp4	0.0	343.7772259712219	0.9918310642242432
62	267.8317198753357	pulse	0	t		60.0	2.5	/experiments/knapen_AOT/AOT_stimuli/rescaled_final/1826_rv.mp4	0.0	344.76096987724304	
62	267.8398070335388	movie	1		245	60.0	2.5	/experiments/knapen_AOT/AOT_stimuli/rescaled_final/1826_rv.mp4	0.0	344.76905703544617	2.5086898803710938
62	269.4326009750366	pulse	1	t		60.0	2.5	/experiments/knapen_AOT/AOT_stimuli/rescaled_final/1826_rv.mp4	0.0	346.36185097694397	
62	270.3484969139099	fix_post	2		12	60.0	2.5	/experiments/knapen_AOT/AOT_stimuli/rescaled_final/1826_rv.mp4	0.0	347.27774691581726	0.10001301765441895
63	270.44850993156433	fix_pre	0		120	61.0	2.5	/experiments/knapen_AOT/AOT_stimuli/rescaled_final/0206_fw.mp4	0.0	347.3777599334717	1.0001640319824219
63	271.0321478843689	pulse	0	t		61.0	2.5	/experiments/knapen_AOT/AOT_stimuli/rescaled_final/0206_fw.mp4	0.0	347.96139788627625	
63	271.44867396354675	movie	1		242	61.0	2.5	/experiments/knapen_AOT/AOT_stimuli/rescaled_final/0206_fw.mp4	0.0	348.3779239654541	2.500437021255493
63	272.6324439048767	pulse	1	t		61.0	2.5	/experiments/knapen_AOT/AOT_stimuli/rescaled_final/0206_fw.mp4	0.0	349.56169390678406	
63	273.94911098480225	fix_post	2		12	61.0	2.5	/experiments/knapen_AOT/AOT_stimuli/rescaled_final/0206_fw.mp4	0.0	350.8783609867096	0.09995508193969727
64	274.04906606674194	fix_pre	0		120	62.0	2.5	blank	1.0	350.9783160686493	1.0001378059387207
64	274.2325930595398	pulse	0	t		62.0	2.5	blank	1.0	351.16184306144714	
64	275.04920387268066	movie	1		300	62.0	2.5	blank	1.0	351.978453874588	2.5004780292510986
64	275.8328490257263	pulse	1	t		62.0	2.5	blank	1.0	352.76209902763367	
64	277.4329979419708	pulse	1	t		62.0	2.5	blank	1.0	354.3622479438782	
64	277.54968190193176	fix_post	2		12	62.0	2.5	blank	1.0	354.4789319038391	0.09993314743041992
65	277.6496150493622	fix_pre	0		120	63.0	2.5	/experiments/knapen_AOT/AOT_stimuli/rescaled_final/0506_rv.mp4	0.0	354.57886505126953	1.0001459121704102
65	278.6497609615326	movie	1		242	63.0	2.5	/experiments/knapen_AOT/AOT_stimuli/rescaled_final/0506_rv.mp4	0.0	355.57901096343994	2.4920060634613037
65	279.038635969162	pulse	1	t		63.0	2.5	/experiments/knapen_AOT/AOT_stimuli/rescaled_final/0506_rv.mp4	0.0	355.96788597106934	
65	280.6336319446564	pulse	1	t		63.0	2.5	/experiments/knapen_AOT/AOT_stimuli/rescaled_final/0506_rv.mp4	0.0	357.5628819465637	
65	281.1417670249939	fix_post	2		12	63.0	2.5	/experiments/knapen_AOT/AOT_stimuli/rescaled_final/0506_rv.mp4	0.0	358.07101702690125	0.10004806518554688
66	281.24181509017944	fix_pre	0		120	64.0	2.5	/experiments/knapen_AOT/AOT_stimuli/rescaled_final/0907_fw.mp4	0.0	358.1710650920868	1.0001389980316162
66	282.2337689399719	pulse	0	t		64.0	2.5	/experiments/knapen_AOT/AOT_stimuli/rescaled_final/0907_fw.mp4	0.0	359.1630189418793	
66	282.24195408821106	movie	1		244	64.0	2.5	/experiments/knapen_AOT/AOT_stimuli/rescaled_final/0907_fw.mp4	0.0	359.1712040901184	2.508762836456299
66	283.8382680416107	pulse	1	t		64.0	2.5	/experiments/knapen_AOT/AOT_stimuli/rescaled_final/0907_fw.mp4	0.0	360.76751804351807	
66	284.75071692466736	fix_post	2		12	64.0	2.5	/experiments/knapen_AOT/AOT_stimuli/rescaled_final/0907_fw.mp4	0.0	361.6799669265747	0.09996199607849121
67	284.85067892074585	fix_pre	0		120	65.0	2.5	/experiments/knapen_AOT/AOT_stimuli/rescaled_final/2107_fw.mp4	0.0	361.7799289226532	1.000136137008667
67	285.4343829154968	pulse	0	t		65.0	2.5	/experiments/knapen_AOT/AOT_stimuli/rescaled_final/2107_fw.mp4	0.0	362.3636329174042	
67	285.8508150577545	movie	1		247	65.0	2.5	/experiments/knapen_AOT/AOT_stimuli/rescaled_final/2107_fw.mp4	0.0	362.78006505966187	2.5003838539123535
67	287.034707069397	pulse	1	t		65.0	2.5	/experiments/knapen_AOT/AOT_stimuli/rescaled_final/2107_fw.mp4	0.0	363.9639570713043	
67	288.35119891166687	fix_post	2		12	65.0	2.5	/experiments/knapen_AOT/AOT_stimuli/rescaled_final/2107_fw.mp4	0.0	365.2804489135742	0.10004305839538574
68	288.45124197006226	fix_pre	0		120	66.0	2.5	/experiments/knapen_AOT/AOT_stimuli/rescaled_final/0764_rv.mp4	0.0	365.3804919719696	1.000196933746338
68	288.63471698760986	pulse	0	t		66.0	2.5	/experiments/knapen_AOT/AOT_stimuli/rescaled_final/0764_rv.mp4	0.0	365.5639669895172	
68	289.4514389038086	movie	1		244	66.0	2.5	/experiments/knapen_AOT/AOT_stimuli/rescaled_final/0764_rv.mp4	0.0	366.38068890571594	2.500308036804199
68	290.23499298095703	pulse	1	t		66.0	2.5	/experiments/knapen_AOT/AOT_stimuli/rescaled_final/0764_rv.mp4	0.0	367.1642429828644	
68	291.8354070186615	pulse	1	t		66.0	2.5	/experiments/knapen_AOT/AOT_stimuli/rescaled_final/0764_rv.mp4	0.0	368.76465702056885	
68	291.9517469406128	fix_post	2		12	66.0	2.5	/experiments/knapen_AOT/AOT_stimuli/rescaled_final/0764_rv.mp4	0.0	368.88099694252014	0.09999799728393555
69	292.05174493789673	fix_pre	0		119	67.0	2.5	/experiments/knapen_AOT/AOT_stimuli/rescaled_final/1839_rv.mp4	0.0	368.9809949398041	0.991771936416626
69	293.04351687431335	movie	1		242	67.0	2.5	/experiments/knapen_AOT/AOT_stimuli/rescaled_final/1839_rv.mp4	0.0	369.9727668762207	2.5004260540008545
69	293.4356610774994	pulse	1	t		67.0	2.5	/experiments/knapen_AOT/AOT_stimuli/rescaled_final/1839_rv.mp4	0.0	370.36491107940674	
69	295.0357129573822	pulse	1	t		67.0	2.5	/experiments/knapen_AOT/AOT_stimuli/rescaled_final/1839_rv.mp4	0.0	371.96496295928955	
69	295.5439429283142	fix_post	2		12	67.0	2.5	/experiments/knapen_AOT/AOT_stimuli/rescaled_final/1839_rv.mp4	0.0	372.47319293022156	0.0999901294708252
70	295.64393305778503	fix_pre	0		120	68.0	2.5	/experiments/knapen_AOT/AOT_stimuli/rescaled_final/1759_rv.mp4	0.0	372.5731830596924	1.0002310276031494
70	296.63592195510864	pulse	0	t		68.0	2.5	/experiments/knapen_AOT/AOT_stimuli/rescaled_final/1759_rv.mp4	0.0	373.565171957016	
70	296.6441640853882	movie	1		244	68.0	2.5	/experiments/knapen_AOT/AOT_stimuli/rescaled_final/1759_rv.mp4	0.0	373.57341408729553	2.5086419582366943
70	298.23655009269714	pulse	1	t		68.0	2.5	/experiments/knapen_AOT/AOT_stimuli/rescaled_final/1759_rv.mp4	0.0	375.1658000946045	
70	299.1528060436249	fix_post	2		12	68.0	2.5	/experiments/knapen_AOT/AOT_stimuli/rescaled_final/1759_rv.mp4	0.0	376.0820560455322	0.10002303123474121
71	299.2528290748596	fix_pre	0		120	69.0	2.5	/experiments/knapen_AOT/AOT_stimuli/rescaled_final/0539_fw.mp4	0.0	376.18207907676697	1.000119924545288
71	299.8366119861603	pulse	0	t		69.0	2.5	/experiments/knapen_AOT/AOT_stimuli/rescaled_final/0539_fw.mp4	0.0	376.7658619880676	
71	300.2529489994049	movie	1		244	69.0	2.5	/experiments/knapen_AOT/AOT_stimuli/rescaled_final/0539_fw.mp4	0.0	377.18219900131226	2.500385046005249
71	301.4369020462036	pulse	1	t		69.0	2.5	/experiments/knapen_AOT/AOT_stimuli/rescaled_final/0539_fw.mp4	0.0	378.36615204811096	
71	302.75333404541016	fix_post	2		12	69.0	2.5	/experiments/knapen_AOT/AOT_stimuli/rescaled_final/0539_fw.mp4	0.0	379.6825840473175	0.1000669002532959
72	302.85340094566345	fix_pre	0		120	70.0	2.5	blank	1.0	379.7826509475708	1.0001230239868164
72	303.0368709564209	pulse	0	t		70.0	2.5	blank	1.0	379.96612095832825	
72	303.85352396965027	movie	1		300	70.0	2.5	blank	1.0	380.7827739715576	2.5003609657287598
72	304.6372129917145	pulse	1	t		70.0	2.5	blank	1.0	381.5664629936218	
72	306.2373299598694	pulse	1	t		70.0	2.5	blank	1.0	383.16657996177673	
72	306.353884935379	fix_post	2		12	70.0	2.5	blank	1.0	383.2831349372864	0.09998202323913574
73	306.45386695861816	fix_pre	0		119	71.0	2.5	/experiments/knapen_AOT/AOT_stimuli/rescaled_final/1246_fw.mp4	0.0	383.3831169605255	0.991826057434082
73	307.44569301605225	movie	1		243	71.0	2.5	/experiments/knapen_AOT/AOT_stimuli/rescaled_final/1246_fw.mp4	0.0	384.3749430179596	2.5005578994750977
73	307.83769392967224	pulse	1	t		71.0	2.5	/experiments/knapen_AOT/AOT_stimuli/rescaled_final/1246_fw.mp4	0.0	384.7669439315796	
73	309.43788290023804	pulse	1	t		71.0	2.5	/experiments/knapen_AOT/AOT_stimuli/rescaled_final/1246_fw.mp4	0.0	386.3671329021454	
73	309.94625091552734	fix_post	2		12	71.0	2.5	/experiments/knapen_AOT/AOT_stimuli/rescaled_final/1246_fw.mp4	0.0	386.8755009174347	0.09984111785888672
74	310.04609203338623	fix_pre	0		120	72.0	2.5	/experiments/knapen_AOT/AOT_stimuli/rescaled_final/1392_rv.mp4	0.0	386.9753420352936	1.000213861465454
74	311.03803396224976	pulse	0	t		72.0	2.5	/experiments/knapen_AOT/AOT_stimuli/rescaled_final/1392_rv.mp4	0.0	387.9672839641571	
74	311.0463058948517	movie	1		244	72.0	2.5	/experiments/knapen_AOT/AOT_stimuli/rescaled_final/1392_rv.mp4	0.0	387.97555589675903	2.50862717628479
74	312.63890409469604	pulse	1	t		72.0	2.5	/experiments/knapen_AOT/AOT_stimuli/rescaled_final/1392_rv.mp4	0.0	389.5681540966034	
74	313.5549330711365	fix_post	2		12	72.0	2.5	/experiments/knapen_AOT/AOT_stimuli/rescaled_final/1392_rv.mp4	0.0	390.4841830730438	0.10004687309265137
75	313.6549799442291	fix_pre	0		120	73.0	2.5	/experiments/knapen_AOT/AOT_stimuli/rescaled_final/1069_rv.mp4	0.0	390.5842299461365	1.0001740455627441
75	314.2311899662018	pulse	0	t		73.0	2.5	/experiments/knapen_AOT/AOT_stimuli/rescaled_final/1069_rv.mp4	0.0	391.16043996810913	
75	314.65515398979187	movie	1		242	73.0	2.5	/experiments/knapen_AOT/AOT_stimuli/rescaled_final/1069_rv.mp4	0.0	391.5844039916992	2.5004959106445312
75	315.8344609737396	pulse	1	t		73.0	2.5	/experiments/knapen_AOT/AOT_stimuli/rescaled_final/1069_rv.mp4	0.0	392.763710975647	
75	317.1556499004364	fix_post	2		12	73.0	2.5	/experiments/knapen_AOT/AOT_stimuli/rescaled_final/1069_rv.mp4	0.0	394.08489990234375	0.09984207153320312
76	317.2554919719696	fix_pre	0		120	74.0	2.5	/experiments/knapen_AOT/AOT_stimuli/rescaled_final/0884_rv.mp4	0.0	394.18474197387695	1.000180959701538
76	317.43151688575745	pulse	0	t		74.0	2.5	/experiments/knapen_AOT/AOT_stimuli/rescaled_final/0884_rv.mp4	0.0	394.3607668876648	
76	318.25567293167114	movie	1		243	74.0	2.5	/experiments/knapen_AOT/AOT_stimuli/rescaled_final/0884_rv.mp4	0.0	395.1849229335785	2.500478982925415
76	319.0317978858948	pulse	1	t		74.0	2.5	/experiments/knapen_AOT/AOT_stimuli/rescaled_final/0884_rv.mp4	0.0	395.9610478878021	
76	320.6313591003418	pulse	1	t		74.0	2.5	/experiments/knapen_AOT/AOT_stimuli/rescaled_final/0884_rv.mp4	0.0	397.56060910224915	
76	320.75615191459656	fix_post	2		12	74.0	2.5	/experiments/knapen_AOT/AOT_stimuli/rescaled_final/0884_rv.mp4	0.0	397.6854019165039	0.0999901294708252
77	320.8561420440674	fix_pre	0		119	75.0	2.5	/experiments/knapen_AOT/AOT_stimuli/rescaled_final/0717_fw.mp4	0.0	397.78539204597473	0.9917159080505371
77	321.8478579521179	movie	1		244	75.0	2.5	/experiments/knapen_AOT/AOT_stimuli/rescaled_final/0717_fw.mp4	0.0	398.77710795402527	2.5028369426727295
77	322.23270893096924	pulse	1	t		75.0	2.5	/experiments/knapen_AOT/AOT_stimuli/rescaled_final/0717_fw.mp4	0.0	399.1619589328766	
77	323.8316569328308	pulse	1	t		75.0	2.5	/experiments/knapen_AOT/AOT_stimuli/rescaled_final/0717_fw.mp4	0.0	400.76090693473816	
77	324.35069489479065	fix_post	2		9	75.0	2.5	/experiments/knapen_AOT/AOT_stimuli/rescaled_final/0717_fw.mp4	0.0	401.279944896698	0.09754419326782227
78	324.4482390880585	fix_pre	0		119	76.0	2.5	/experiments/knapen_AOT/AOT_stimuli/rescaled_final/0136_rv.mp4	0.0	401.3774890899658	0.9919228553771973
78	325.4319169521332	pulse	0	t		76.0	2.5	/experiments/knapen_AOT/AOT_stimuli/rescaled_final/0136_rv.mp4	0.0	402.3611669540405	
78	325.44016194343567	movie	1		243	76.0	2.5	/experiments/knapen_AOT/AOT_stimuli/rescaled_final/0136_rv.mp4	0.0	402.369411945343	2.508604049682617
78	327.0325050354004	pulse	1	t		76.0	2.5	/experiments/knapen_AOT/AOT_stimuli/rescaled_final/0136_rv.mp4	0.0	403.96175503730774	
78	327.9487659931183	fix_post	2		12	76.0	2.5	/experiments/knapen_AOT/AOT_stimuli/rescaled_final/0136_rv.mp4	0.0	404.87801599502563	0.10001111030578613
79	328.0487771034241	fix_pre	0		120	77.0	2.5	blank	1.0	404.9780271053314	1.0001537799835205
79	328.63242292404175	pulse	0	t		77.0	2.5	blank	1.0	405.5616729259491	
79	329.0489308834076	movie	1		300	77.0	2.5	blank	1.0	405.97818088531494	2.5003821849823
79	330.2326900959015	pulse	1	t		77.0	2.5	blank	1.0	407.16194009780884	
79	331.5493130683899	fix_post	2		12	77.0	2.5	blank	1.0	408.47856307029724	0.10002398490905762
80	331.64933705329895	fix_pre	0		120	78.0	2.5	/experiments/knapen_AOT/AOT_stimuli/rescaled_final/0220_rv.mp4	0.0	408.5785870552063	1.0001559257507324
80	331.83284187316895	pulse	0	t		78.0	2.5	/experiments/knapen_AOT/AOT_stimuli/rescaled_final/0220_rv.mp4	0.0	408.7620918750763	
80	332.6494929790497	movie	1		243	78.0	2.5	/experiments/knapen_AOT/AOT_stimuli/rescaled_final/0220_rv.mp4	0.0	409.57874298095703	2.5004220008850098
80	333.43304991722107	pulse	1	t		78.0	2.5	/experiments/knapen_AOT/AOT_stimuli/rescaled_final/0220_rv.mp4	0.0	410.3622999191284	
80	335.0330228805542	pulse	1	t		78.0	2.5	/experiments/knapen_AOT/AOT_stimuli/rescaled_final/0220_rv.mp4	0.0	411.96227288246155	
80	335.1499149799347	fix_post	2		12	78.0	2.5	/experiments/knapen_AOT/AOT_stimuli/rescaled_final/0220_rv.mp4	0.0	412.07916498184204	0.09995698928833008
81	335.249871969223	fix_pre	0		119	79.0	2.5	/experiments/knapen_AOT/AOT_stimuli/rescaled_final/1829_rv.mp4	0.0	412.17912197113037	0.9917869567871094
81	336.24165892601013	movie	1		244	79.0	2.5	/experiments/knapen_AOT/AOT_stimuli/rescaled_final/1829_rv.mp4	0.0	413.1709089279175	2.5003771781921387
81	336.63379192352295	pulse	1	t		79.0	2.5	/experiments/knapen_AOT/AOT_stimuli/rescaled_final/1829_rv.mp4	0.0	413.5630419254303	
81	338.2339520454407	pulse	1	t		79.0	2.5	/experiments/knapen_AOT/AOT_stimuli/rescaled_final/1829_rv.mp4	0.0	415.163202047348	
81	338.74203610420227	fix_post	2		12	79.0	2.5	/experiments/knapen_AOT/AOT_stimuli/rescaled_final/1829_rv.mp4	0.0	415.6712861061096	0.10007190704345703
82	338.8421080112457	fix_pre	0		120	80.0	2.5	/experiments/knapen_AOT/AOT_stimuli/rescaled_final/0529_fw.mp4	0.0	415.7713580131531	1.0001540184020996
82	339.83404088020325	pulse	0	t		80.0	2.5	/experiments/knapen_AOT/AOT_stimuli/rescaled_final/0529_fw.mp4	0.0	416.7632908821106	
82	339.8422620296478	movie	1		243	80.0	2.5	/experiments/knapen_AOT/AOT_stimuli/rescaled_final/0529_fw.mp4	0.0	416.7715120315552	2.5086450576782227
82	341.4348499774933	pulse	1	t		80.0	2.5	/experiments/knapen_AOT/AOT_stimuli/rescaled_final/0529_fw.mp4	0.0	418.36409997940063	
82	342.35090708732605	fix_post	2		12	80.0	2.5	/experiments/knapen_AOT/AOT_stimuli/rescaled_final/0529_fw.mp4	0.0	419.2801570892334	0.10002589225769043
83	342.45093297958374	fix_pre	0		120	81.0	2.5	/experiments/knapen_AOT/AOT_stimuli/rescaled_final/0140_rv.mp4	0.0	419.3801829814911	1.0001471042633057
83	343.0345690250397	pulse	0	t		81.0	2.5	/experiments/knapen_AOT/AOT_stimuli/rescaled_final/0140_rv.mp4	0.0	419.963819026947	
83	343.45108008384705	movie	1		243	81.0	2.5	/experiments/knapen_AOT/AOT_stimuli/rescaled_final/0140_rv.mp4	0.0	420.3803300857544	2.5004079341888428
83	344.63497400283813	pulse	1	t		81.0	2.5	/experiments/knapen_AOT/AOT_stimuli/rescaled_final/0140_rv.mp4	0.0	421.5642240047455	
83	345.9514880180359	fix_post	2		12	81.0	2.5	/experiments/knapen_AOT/AOT_stimuli/rescaled_final/0140_rv.mp4	0.0	422.88073801994324	0.09998893737792969
84	346.0514769554138	fix_pre	0		120	82.0	2.5	blank	1.0	422.98072695732117	1.0001990795135498
84	346.2349979877472	pulse	0	t		82.0	2.5	blank	1.0	423.16424798965454	
84	347.05167603492737	movie	1		300	82.0	2.5	blank	1.0	423.9809260368347	2.500319004058838
84	347.83521008491516	pulse	1	t		82.0	2.5	blank	1.0	424.7644600868225	
84	349.43555903434753	pulse	1	t		82.0	2.5	blank	1.0	426.3648090362549	
84	349.5519950389862	fix_post	2		12	82.0	2.5	blank	1.0	426.48124504089355	0.10000205039978027
85	349.651997089386	fix_pre	0		119	83.0	2.5	/experiments/knapen_AOT/AOT_stimuli/rescaled_final/0582_rv.mp4	0.0	426.58124709129333	0.9918088912963867
85	350.6438059806824	movie	1		243	83.0	2.5	/experiments/knapen_AOT/AOT_stimuli/rescaled_final/0582_rv.mp4	0.0	427.5730559825897	2.500339984893799
85	351.0358819961548	pulse	1	t		83.0	2.5	/experiments/knapen_AOT/AOT_stimuli/rescaled_final/0582_rv.mp4	0.0	427.96513199806213	
85	352.6360230445862	pulse	1	t		83.0	2.5	/experiments/knapen_AOT/AOT_stimuli/rescaled_final/0582_rv.mp4	0.0	429.56527304649353	
85	353.1441459655762	fix_post	2		12	83.0	2.5	/experiments/knapen_AOT/AOT_stimuli/rescaled_final/0582_rv.mp4	0.0	430.0733959674835	0.10004591941833496
87	353.2441918849945	stim	0		1716					430.17344188690186	14.302272081375122
87	354.2362370491028	pulse	0	t						431.16548705101013	
87	355.8364191055298	pulse	0	t						432.76566910743713	
87	357.4366600513458	pulse	0	t						434.3659100532532	
87	359.03704595565796	pulse	0	t						435.9662959575653	
87	360.6371569633484	pulse	0	t						437.56640696525574	
87	362.23743987083435	pulse	0	t						439.1666898727417	
87	363.83760690689087	pulse	0	t						440.7668569087982	
87	365.4379370212555	pulse	0	t						442.36718702316284	
87	367.0306990146637	pulse	0	t						443.95994901657104	
