trial_nr	onset	event_type	phase	response	nr_frames	movie_index	movie_duration	movie_file	blank	onset_abs	duration
0	0.14989900588989258	stim	0		122					21.690608978271484	1.016577959060669
0	1.1585381031036377	response	0	space						22.69924807548523	
1	1.1664769649505615	stim	0		4582					22.707186937332153	38.1832799911499
1	39.343762159347534	pulse	0	t						60.884472131729126	
1	39.349756956100464	stim	1		1717					60.890466928482056	14.307920217514038
1	40.94140696525574	pulse	1	t						62.48211693763733	
1	42.541447162628174	pulse	1	t						64.08215713500977	
1	44.14139795303345	pulse	1	t						65.68210792541504	
1	45.741443157196045	pulse	1	t						67.28215312957764	
1	47.341444969177246	pulse	1	t						68.88215494155884	
1	48.94134497642517	pulse	1	t						70.48205494880676	
1	50.541409969329834	pulse	1	t						72.08211994171143	
1	52.1410870552063	pulse	1	t						73.68179702758789	
2	53.6576771736145	fix_pre	0		11	0.0	2.5	/experiments/AOT/AOT_stimuli/rescaled_final/0458_rv.mp4	0.0	75.1983871459961	0.09171581268310547
2	53.74159812927246	pulse	0	t		0.0	2.5	/experiments/AOT/AOT_stimuli/rescaled_final/0458_rv.mp4	0.0	75.28230810165405	
2	53.74939298629761	movie	1		244	0.0	2.5	/experiments/AOT/AOT_stimuli/rescaled_final/0458_rv.mp4	0.0	75.2901029586792	2.508481025695801
2	55.340957164764404	pulse	1	t		0.0	2.5	/experiments/AOT/AOT_stimuli/rescaled_final/0458_rv.mp4	0.0	76.881667137146	
2	56.25787401199341	fix_post	2		12	0.0	2.5	/experiments/AOT/AOT_stimuli/rescaled_final/0458_rv.mp4	0.0	77.798583984375	0.09994101524353027
3	56.35781502723694	fix_pre	0		120	1.0	2.5	/experiments/AOT/AOT_stimuli/rescaled_final/1686_fw.mp4	0.0	77.89852499961853	1.0000879764556885
3	56.941429138183594	pulse	0	t		1.0	2.5	/experiments/AOT/AOT_stimuli/rescaled_final/1686_fw.mp4	0.0	78.48213911056519	
3	57.35790300369263	movie	1		244	1.0	2.5	/experiments/AOT/AOT_stimuli/rescaled_final/1686_fw.mp4	0.0	78.89861297607422	2.4998550415039062
3	58.54142713546753	pulse	1	t		1.0	2.5	/experiments/AOT/AOT_stimuli/rescaled_final/1686_fw.mp4	0.0	80.08213710784912	
3	59.85775804519653	fix_post	2		12	1.0	2.5	/experiments/AOT/AOT_stimuli/rescaled_final/1686_fw.mp4	0.0	81.39846801757812	0.10005712509155273
4	59.957815170288086	fix_pre	0		120	2.0	2.5	/experiments/AOT/AOT_stimuli/rescaled_final/0983_rv.mp4	0.0	81.49852514266968	1.0000050067901611
4	60.14131307601929	pulse	0	t		2.0	2.5	/experiments/AOT/AOT_stimuli/rescaled_final/0983_rv.mp4	0.0	81.68202304840088	
4	60.95782017707825	movie	1		243	2.0	2.5	/experiments/AOT/AOT_stimuli/rescaled_final/0983_rv.mp4	0.0	82.49853014945984	2.5000078678131104
4	61.74127411842346	pulse	1	t		2.0	2.5	/experiments/AOT/AOT_stimuli/rescaled_final/0983_rv.mp4	0.0	83.28198409080505	
4	63.339916944503784	pulse	1	t		2.0	2.5	/experiments/AOT/AOT_stimuli/rescaled_final/0983_rv.mp4	0.0	84.88062691688538	
4	63.45782804489136	fix_post	2		12	2.0	2.5	/experiments/AOT/AOT_stimuli/rescaled_final/0983_rv.mp4	0.0	84.99853801727295	0.09997797012329102
5	63.55780601501465	fix_pre	0		120	3.0	2.5	/experiments/AOT/AOT_stimuli/rescaled_final/1514_fw.mp4	0.0	85.09851598739624	1.0001230239868164
5	64.55792903900146	movie	1		245	3.0	2.5	/experiments/AOT/AOT_stimuli/rescaled_final/1514_fw.mp4	0.0	86.09863901138306	2.499830961227417
5	64.94096612930298	pulse	1	t		3.0	2.5	/experiments/AOT/AOT_stimuli/rescaled_final/1514_fw.mp4	0.0	86.48167610168457	
5	66.54131507873535	pulse	1	t		3.0	2.5	/experiments/AOT/AOT_stimuli/rescaled_final/1514_fw.mp4	0.0	88.08202505111694	
5	67.05776000022888	fix_post	2		12	3.0	2.5	/experiments/AOT/AOT_stimuli/rescaled_final/1514_fw.mp4	0.0	88.59846997261047	0.10004305839538574
6	67.15780305862427	fix_pre	0		119	4.0	2.5	/experiments/AOT/AOT_stimuli/rescaled_final/1649_fw.mp4	0.0	88.69851303100586	0.991689920425415
6	68.14136695861816	pulse	0	t		4.0	2.5	/experiments/AOT/AOT_stimuli/rescaled_final/1649_fw.mp4	0.0	89.68207693099976	
6	68.14949297904968	movie	1		248	4.0	2.5	/experiments/AOT/AOT_stimuli/rescaled_final/1649_fw.mp4	0.0	89.69020295143127	2.5083019733428955
6	69.7414870262146	pulse	1	t		4.0	2.5	/experiments/AOT/AOT_stimuli/rescaled_final/1649_fw.mp4	0.0	91.28219699859619	
6	70.65779495239258	fix_post	2		12	4.0	2.5	/experiments/AOT/AOT_stimuli/rescaled_final/1649_fw.mp4	0.0	92.19850492477417	0.09993505477905273
7	70.75773000717163	fix_pre	0		120	5.0	2.5	/experiments/AOT/AOT_stimuli/rescaled_final/1937_rv.mp4	0.0	92.29843997955322	1.0000720024108887
7	71.34133410453796	pulse	0	t		5.0	2.5	/experiments/AOT/AOT_stimuli/rescaled_final/1937_rv.mp4	0.0	92.88204407691956	
7	71.75780200958252	movie	1		243	5.0	2.5	/experiments/AOT/AOT_stimuli/rescaled_final/1937_rv.mp4	0.0	93.29851198196411	2.4999899864196777
7	72.94140100479126	pulse	1	t		5.0	2.5	/experiments/AOT/AOT_stimuli/rescaled_final/1937_rv.mp4	0.0	94.48211097717285	
7	74.2577919960022	fix_post	2		12	5.0	2.5	/experiments/AOT/AOT_stimuli/rescaled_final/1937_rv.mp4	0.0	95.79850196838379	0.10004210472106934
8	74.35783410072327	fix_pre	0		120	6.0	2.5	/experiments/AOT/AOT_stimuli/rescaled_final/1351_rv.mp4	0.0	95.89854407310486	0.9999868869781494
8	74.5413269996643	pulse	0	t		6.0	2.5	/experiments/AOT/AOT_stimuli/rescaled_final/1351_rv.mp4	0.0	96.0820369720459	
8	75.35782098770142	movie	1		244	6.0	2.5	/experiments/AOT/AOT_stimuli/rescaled_final/1351_rv.mp4	0.0	96.89853096008301	2.4999921321868896
8	76.14125394821167	pulse	1	t		6.0	2.5	/experiments/AOT/AOT_stimuli/rescaled_final/1351_rv.mp4	0.0	97.68196392059326	
8	77.73995208740234	pulse	1	t		6.0	2.5	/experiments/AOT/AOT_stimuli/rescaled_final/1351_rv.mp4	0.0	99.28066205978394	
8	77.8578131198883	fix_post	2		12	6.0	2.5	/experiments/AOT/AOT_stimuli/rescaled_final/1351_rv.mp4	0.0	99.3985230922699	0.09989690780639648
9	77.9577100276947	fix_pre	0		120	7.0	2.5	blank	1.0	99.4984200000763	1.0000309944152832
9	78.95774102210999	movie	1		300	7.0	2.5	blank	1.0	100.49845099449158	2.500030994415283
9	79.34126114845276	pulse	1	t		7.0	2.5	blank	1.0	100.88197112083435	
9	80.94121503829956	pulse	1	t		7.0	2.5	blank	1.0	102.48192501068115	
9	81.45777201652527	fix_post	2		12	7.0	2.5	blank	1.0	102.99848198890686	0.09997415542602539
10	81.5577461719513	fix_pre	0		119	8.0	2.5	/experiments/AOT/AOT_stimuli/rescaled_final/0581_rv.mp4	0.0	103.09845614433289	0.9916849136352539
10	82.54124116897583	pulse	0	t		8.0	2.5	/experiments/AOT/AOT_stimuli/rescaled_final/0581_rv.mp4	0.0	104.08195114135742	
10	82.54943108558655	movie	1		245	8.0	2.5	/experiments/AOT/AOT_stimuli/rescaled_final/0581_rv.mp4	0.0	104.09014105796814	2.508312940597534
10	84.14096403121948	pulse	1	t		8.0	2.5	/experiments/AOT/AOT_stimuli/rescaled_final/0581_rv.mp4	0.0	105.68167400360107	
10	85.05774402618408	fix_post	2		12	8.0	2.5	/experiments/AOT/AOT_stimuli/rescaled_final/0581_rv.mp4	0.0	106.59845399856567	0.09991097450256348
11	85.15765500068665	fix_pre	0		120	9.0	2.5	/experiments/AOT/AOT_stimuli/rescaled_final/0877_fw.mp4	0.0	106.69836497306824	1.0000879764556885
11	85.74116396903992	pulse	0	t		9.0	2.5	/experiments/AOT/AOT_stimuli/rescaled_final/0877_fw.mp4	0.0	107.28187394142151	
11	86.15774297714233	movie	1		243	9.0	2.5	/experiments/AOT/AOT_stimuli/rescaled_final/0877_fw.mp4	0.0	107.69845294952393	2.4995620250701904
11	87.34124612808228	pulse	1	t		9.0	2.5	/experiments/AOT/AOT_stimuli/rescaled_final/0877_fw.mp4	0.0	108.88195610046387	
11	88.65730500221252	fix_post	2		12	9.0	2.5	/experiments/AOT/AOT_stimuli/rescaled_final/0877_fw.mp4	0.0	110.19801497459412	0.10033917427062988
12	88.75764417648315	fix_pre	0		120	10.0	2.5	/experiments/AOT/AOT_stimuli/rescaled_final/1782_fw.mp4	0.0	110.29835414886475	1.0000739097595215
12	88.94124102592468	pulse	0	t		10.0	2.5	/experiments/AOT/AOT_stimuli/rescaled_final/1782_fw.mp4	0.0	110.48195099830627	
12	89.75771808624268	movie	1		243	10.0	2.5	/experiments/AOT/AOT_stimuli/rescaled_final/1782_fw.mp4	0.0	111.29842805862427	2.5000479221343994
12	90.54126501083374	pulse	1	t		10.0	2.5	/experiments/AOT/AOT_stimuli/rescaled_final/1782_fw.mp4	0.0	112.08197498321533	
12	92.13965010643005	pulse	1	t		10.0	2.5	/experiments/AOT/AOT_stimuli/rescaled_final/1782_fw.mp4	0.0	113.68036007881165	
12	92.25776600837708	fix_post	2		12	10.0	2.5	/experiments/AOT/AOT_stimuli/rescaled_final/1782_fw.mp4	0.0	113.79847598075867	0.09998106956481934
13	92.3577470779419	fix_pre	0		120	11.0	2.5	/experiments/AOT/AOT_stimuli/rescaled_final/1624_rv.mp4	0.0	113.89845705032349	1.000020980834961
13	93.35776805877686	movie	1		244	11.0	2.5	/experiments/AOT/AOT_stimuli/rescaled_final/1624_rv.mp4	0.0	114.89847803115845	2.4999990463256836
13	93.74092698097229	pulse	1	t		11.0	2.5	/experiments/AOT/AOT_stimuli/rescaled_final/1624_rv.mp4	0.0	115.28163695335388	
13	95.34120011329651	pulse	1	t		11.0	2.5	/experiments/AOT/AOT_stimuli/rescaled_final/1624_rv.mp4	0.0	116.8819100856781	
13	95.85776710510254	fix_post	2		12	11.0	2.5	/experiments/AOT/AOT_stimuli/rescaled_final/1624_rv.mp4	0.0	117.39847707748413	0.09989595413208008
14	95.95766305923462	fix_pre	0		119	12.0	2.5	blank	1.0	117.49837303161621	0.9916050434112549
14	96.94120001792908	pulse	0	t		12.0	2.5	blank	1.0	118.48190999031067	
14	96.94926810264587	movie	1		301	12.0	2.5	blank	1.0	118.48997807502747	2.5084328651428223
14	98.54117012023926	pulse	1	t		12.0	2.5	blank	1.0	120.08188009262085	
14	99.4577009677887	fix_post	2		12	12.0	2.5	blank	1.0	120.99841094017029	0.10003209114074707
15	99.55773305892944	fix_pre	0		120	13.0	2.5	/experiments/AOT/AOT_stimuli/rescaled_final/0983_rv.mp4	0.0	121.09844303131104	0.9999349117279053
15	100.14113998413086	pulse	0	t		13.0	2.5	/experiments/AOT/AOT_stimuli/rescaled_final/0983_rv.mp4	0.0	121.68184995651245	
15	100.55766797065735	movie	1		243	13.0	2.5	/experiments/AOT/AOT_stimuli/rescaled_final/0983_rv.mp4	0.0	122.09837794303894	2.4999520778656006
15	101.74125599861145	pulse	1	t		13.0	2.5	/experiments/AOT/AOT_stimuli/rescaled_final/0983_rv.mp4	0.0	123.28196597099304	
15	103.05762004852295	fix_post	2		12	13.0	2.5	/experiments/AOT/AOT_stimuli/rescaled_final/0983_rv.mp4	0.0	124.59833002090454	0.10006308555603027
16	103.15768313407898	fix_pre	0		120	14.0	2.5	/experiments/AOT/AOT_stimuli/rescaled_final/1685_rv.mp4	0.0	124.69839310646057	0.9999308586120605
16	103.34110903739929	pulse	0	t		14.0	2.5	/experiments/AOT/AOT_stimuli/rescaled_final/1685_rv.mp4	0.0	124.88181900978088	
16	104.15761399269104	movie	1		243	14.0	2.5	/experiments/AOT/AOT_stimuli/rescaled_final/1685_rv.mp4	0.0	125.69832396507263	2.50004506111145
16	104.94114303588867	pulse	1	t		14.0	2.5	/experiments/AOT/AOT_stimuli/rescaled_final/1685_rv.mp4	0.0	126.48185300827026	
16	106.5392701625824	pulse	1	t		14.0	2.5	/experiments/AOT/AOT_stimuli/rescaled_final/1685_rv.mp4	0.0	128.079980134964	
16	106.65765905380249	fix_post	2		12	14.0	2.5	/experiments/AOT/AOT_stimuli/rescaled_final/1685_rv.mp4	0.0	128.19836902618408	0.10008597373962402
17	106.75774502754211	fix_pre	0		120	15.0	2.5	/experiments/AOT/AOT_stimuli/rescaled_final/1233_fw.mp4	0.0	128.2984549999237	0.999891996383667
17	107.75763702392578	movie	1		246	15.0	2.5	/experiments/AOT/AOT_stimuli/rescaled_final/1233_fw.mp4	0.0	129.29834699630737	2.4998791217803955
17	108.14036798477173	pulse	1	t		15.0	2.5	/experiments/AOT/AOT_stimuli/rescaled_final/1233_fw.mp4	0.0	129.68107795715332	
17	109.74131512641907	pulse	1	t		15.0	2.5	/experiments/AOT/AOT_stimuli/rescaled_final/1233_fw.mp4	0.0	131.28202509880066	
17	110.25751614570618	fix_post	2		12	15.0	2.5	/experiments/AOT/AOT_stimuli/rescaled_final/1233_fw.mp4	0.0	131.79822611808777	0.09996390342712402
18	110.3574800491333	fix_pre	0		119	16.0	2.5	/experiments/AOT/AOT_stimuli/rescaled_final/0778_rv.mp4	0.0	131.8981900215149	0.9918301105499268
18	111.34119009971619	pulse	0	t		16.0	2.5	/experiments/AOT/AOT_stimuli/rescaled_final/0778_rv.mp4	0.0	132.88190007209778	
18	111.34931015968323	movie	1		246	16.0	2.5	/experiments/AOT/AOT_stimuli/rescaled_final/0778_rv.mp4	0.0	132.89002013206482	2.508211851119995
18	112.94078397750854	pulse	1	t		16.0	2.5	/experiments/AOT/AOT_stimuli/rescaled_final/0778_rv.mp4	0.0	134.48149394989014	
18	113.85752201080322	fix_post	2		12	16.0	2.5	/experiments/AOT/AOT_stimuli/rescaled_final/0778_rv.mp4	0.0	135.39823198318481	0.10004997253417969
19	113.9575719833374	fix_pre	0		120	17.0	2.5	/experiments/AOT/AOT_stimuli/rescaled_final/1490_rv.mp4	0.0	135.498281955719	0.9999330043792725
19	114.5410749912262	pulse	0	t		17.0	2.5	/experiments/AOT/AOT_stimuli/rescaled_final/1490_rv.mp4	0.0	136.0817849636078	
19	114.95750498771667	movie	1		244	17.0	2.5	/experiments/AOT/AOT_stimuli/rescaled_final/1490_rv.mp4	0.0	136.49821496009827	2.500023126602173
19	116.14134407043457	pulse	1	t		17.0	2.5	/experiments/AOT/AOT_stimuli/rescaled_final/1490_rv.mp4	0.0	137.68205404281616	
19	117.45752811431885	fix_post	2		12	17.0	2.5	/experiments/AOT/AOT_stimuli/rescaled_final/1490_rv.mp4	0.0	138.99823808670044	0.09993505477905273
20	117.5574631690979	fix_pre	0		120	18.0	2.5	/experiments/AOT/AOT_stimuli/rescaled_final/0618_fw.mp4	0.0	139.0981731414795	1.00022292137146
20	117.7410340309143	pulse	0	t		18.0	2.5	/experiments/AOT/AOT_stimuli/rescaled_final/0618_fw.mp4	0.0	139.2817440032959	
20	118.55768609046936	movie	1		246	18.0	2.5	/experiments/AOT/AOT_stimuli/rescaled_final/0618_fw.mp4	0.0	140.09839606285095	2.499856948852539
20	119.34106206893921	pulse	1	t		18.0	2.5	/experiments/AOT/AOT_stimuli/rescaled_final/0618_fw.mp4	0.0	140.8817720413208	
20	120.94102811813354	pulse	1	t		18.0	2.5	/experiments/AOT/AOT_stimuli/rescaled_final/0618_fw.mp4	0.0	142.48173809051514	
20	121.0575430393219	fix_post	2		12	18.0	2.5	/experiments/AOT/AOT_stimuli/rescaled_final/0618_fw.mp4	0.0	142.5982530117035	0.09999990463256836
21	121.15754294395447	fix_pre	0		120	19.0	2.5	blank	1.0	142.69825291633606	1.0000100135803223
21	122.15755295753479	movie	1		300	19.0	2.5	blank	1.0	143.69826292991638	2.4999520778656006
21	122.54100012779236	pulse	1	t		19.0	2.5	blank	1.0	144.08171010017395	
21	124.14109802246094	pulse	1	t		19.0	2.5	blank	1.0	145.68180799484253	
21	124.65750503540039	fix_post	2		12	19.0	2.5	blank	1.0	146.19821500778198	0.10001397132873535
22	124.75751900672913	fix_pre	0		119	20.0	2.5	/experiments/AOT/AOT_stimuli/rescaled_final/0943_fw.mp4	0.0	146.29822897911072	0.9916660785675049
22	125.74101114273071	pulse	0	t		20.0	2.5	/experiments/AOT/AOT_stimuli/rescaled_final/0943_fw.mp4	0.0	147.2817211151123	
22	125.74918508529663	movie	1		244	20.0	2.5	/experiments/AOT/AOT_stimuli/rescaled_final/0943_fw.mp4	0.0	147.28989505767822	2.508378028869629
22	127.34119200706482	pulse	1	t		20.0	2.5	/experiments/AOT/AOT_stimuli/rescaled_final/0943_fw.mp4	0.0	148.8819019794464	
22	128.25756311416626	fix_post	2		12	20.0	2.5	/experiments/AOT/AOT_stimuli/rescaled_final/0943_fw.mp4	0.0	149.79827308654785	0.10003805160522461
23	128.35760116577148	fix_pre	0		120	21.0	2.5	/experiments/AOT/AOT_stimuli/rescaled_final/0264_fw.mp4	0.0	149.89831113815308	0.9999568462371826
23	128.94105315208435	pulse	0	t		21.0	2.5	/experiments/AOT/AOT_stimuli/rescaled_final/0264_fw.mp4	0.0	150.48176312446594	
23	129.35755801200867	movie	1		245	21.0	2.5	/experiments/AOT/AOT_stimuli/rescaled_final/0264_fw.mp4	0.0	150.89826798439026	2.499911069869995
23	130.54103994369507	pulse	1	t		21.0	2.5	/experiments/AOT/AOT_stimuli/rescaled_final/0264_fw.mp4	0.0	152.08174991607666	
23	131.85746908187866	fix_post	2		12	21.0	2.5	/experiments/AOT/AOT_stimuli/rescaled_final/0264_fw.mp4	0.0	153.39817905426025	0.10003805160522461
24	131.9575071334839	fix_pre	0		120	22.0	2.5	/experiments/AOT/AOT_stimuli/rescaled_final/0350_fw.mp4	0.0	153.49821710586548	1.0000319480895996
24	132.14099097251892	pulse	0	t		22.0	2.5	/experiments/AOT/AOT_stimuli/rescaled_final/0350_fw.mp4	0.0	153.6817009449005	
24	132.9575390815735	movie	1		245	22.0	2.5	/experiments/AOT/AOT_stimuli/rescaled_final/0350_fw.mp4	0.0	154.49824905395508	2.5000290870666504
24	133.7409851551056	pulse	1	t		22.0	2.5	/experiments/AOT/AOT_stimuli/rescaled_final/0350_fw.mp4	0.0	155.28169512748718	
24	135.3390851020813	pulse	1	t		22.0	2.5	/experiments/AOT/AOT_stimuli/rescaled_final/0350_fw.mp4	0.0	156.8797950744629	
24	135.45756816864014	fix_post	2		12	22.0	2.5	/experiments/AOT/AOT_stimuli/rescaled_final/0350_fw.mp4	0.0	156.99827814102173	0.0999288558959961
25	135.55749702453613	fix_pre	0		120	23.0	2.5	/experiments/AOT/AOT_stimuli/rescaled_final/1624_fw.mp4	0.0	157.09820699691772	0.9999110698699951
25	136.55740809440613	movie	1		245	23.0	2.5	/experiments/AOT/AOT_stimuli/rescaled_final/1624_fw.mp4	0.0	158.09811806678772	2.5000689029693604
25	136.94051098823547	pulse	1	t		23.0	2.5	/experiments/AOT/AOT_stimuli/rescaled_final/1624_fw.mp4	0.0	158.48122096061707	
25	138.54104208946228	pulse	1	t		23.0	2.5	/experiments/AOT/AOT_stimuli/rescaled_final/1624_fw.mp4	0.0	160.08175206184387	
25	139.0574769973755	fix_post	2		12	23.0	2.5	/experiments/AOT/AOT_stimuli/rescaled_final/1624_fw.mp4	0.0	160.59818696975708	0.09998607635498047
26	139.15746307373047	fix_pre	0		119	24.0	2.5	/experiments/AOT/AOT_stimuli/rescaled_final/1937_fw.mp4	0.0	160.69817304611206	0.991692066192627
26	140.14103603363037	pulse	0	t		24.0	2.5	/experiments/AOT/AOT_stimuli/rescaled_final/1937_fw.mp4	0.0	161.68174600601196	
26	140.1491551399231	movie	1		245	24.0	2.5	/experiments/AOT/AOT_stimuli/rescaled_final/1937_fw.mp4	0.0	161.6898651123047	2.508309841156006
26	141.74043703079224	pulse	1	t		24.0	2.5	/experiments/AOT/AOT_stimuli/rescaled_final/1937_fw.mp4	0.0	163.28114700317383	
26	142.6574649810791	fix_post	2		12	24.0	2.5	/experiments/AOT/AOT_stimuli/rescaled_final/1937_fw.mp4	0.0	164.1981749534607	0.09996604919433594
27	142.75743103027344	fix_pre	0		120	25.0	2.5	/experiments/AOT/AOT_stimuli/rescaled_final/0530_rv.mp4	0.0	164.29814100265503	1.0000340938568115
27	143.34093499183655	pulse	0	t		25.0	2.5	/experiments/AOT/AOT_stimuli/rescaled_final/0530_rv.mp4	0.0	164.88164496421814	
27	143.75746512413025	movie	1		243	25.0	2.5	/experiments/AOT/AOT_stimuli/rescaled_final/0530_rv.mp4	0.0	165.29817509651184	2.4999630451202393
27	144.94098496437073	pulse	1	t		25.0	2.5	/experiments/AOT/AOT_stimuli/rescaled_final/0530_rv.mp4	0.0	166.48169493675232	
27	146.2574281692505	fix_post	2		12	25.0	2.5	/experiments/AOT/AOT_stimuli/rescaled_final/0530_rv.mp4	0.0	167.79813814163208	0.10001993179321289
28	146.3574481010437	fix_pre	0		120	26.0	2.5	blank	1.0	167.8981580734253	0.9999179840087891
28	146.5409290790558	pulse	0	t		26.0	2.5	blank	1.0	168.08163905143738	
28	147.3573660850525	movie	1		300	26.0	2.5	blank	1.0	168.89807605743408	2.5001120567321777
28	148.14098596572876	pulse	1	t		26.0	2.5	blank	1.0	169.68169593811035	
28	149.740895986557	pulse	1	t		26.0	2.5	blank	1.0	171.2816059589386	
28	149.85747814178467	fix_post	2		12	26.0	2.5	blank	1.0	171.39818811416626	0.09995698928833008
29	149.957435131073	fix_pre	0		120	27.0	2.5	/experiments/AOT/AOT_stimuli/rescaled_final/1244_rv.mp4	0.0	171.4981451034546	1.0000178813934326
29	150.95745301246643	movie	1		244	27.0	2.5	/experiments/AOT/AOT_stimuli/rescaled_final/1244_rv.mp4	0.0	172.49816298484802	2.4999799728393555
29	151.34061312675476	pulse	1	t		27.0	2.5	/experiments/AOT/AOT_stimuli/rescaled_final/1244_rv.mp4	0.0	172.88132309913635	
29	152.94090914726257	pulse	1	t		27.0	2.5	/experiments/AOT/AOT_stimuli/rescaled_final/1244_rv.mp4	0.0	174.48161911964417	
29	153.4574329853058	fix_post	2		12	27.0	2.5	/experiments/AOT/AOT_stimuli/rescaled_final/1244_rv.mp4	0.0	174.99814295768738	0.10003900527954102
30	153.55747199058533	fix_pre	0		119	28.0	2.5	/experiments/AOT/AOT_stimuli/rescaled_final/0114_fw.mp4	0.0	175.09818196296692	0.9915590286254883
30	154.54085898399353	pulse	0	t		28.0	2.5	/experiments/AOT/AOT_stimuli/rescaled_final/0114_fw.mp4	0.0	176.08156895637512	
30	154.54903101921082	movie	1		245	28.0	2.5	/experiments/AOT/AOT_stimuli/rescaled_final/0114_fw.mp4	0.0	176.0897409915924	2.50846004486084
30	156.14090013504028	pulse	1	t		28.0	2.5	/experiments/AOT/AOT_stimuli/rescaled_final/0114_fw.mp4	0.0	177.68161010742188	
30	157.05749106407166	fix_post	2		12	28.0	2.5	/experiments/AOT/AOT_stimuli/rescaled_final/0114_fw.mp4	0.0	178.59820103645325	0.09995388984680176
31	157.15744495391846	fix_pre	0		120	29.0	2.5	/experiments/AOT/AOT_stimuli/rescaled_final/1127_fw.mp4	0.0	178.69815492630005	1.0000081062316895
31	157.74089312553406	pulse	0	t		29.0	2.5	/experiments/AOT/AOT_stimuli/rescaled_final/1127_fw.mp4	0.0	179.28160309791565	
31	158.15745306015015	movie	1		244	29.0	2.5	/experiments/AOT/AOT_stimuli/rescaled_final/1127_fw.mp4	0.0	179.69816303253174	2.500093936920166
31	159.34092211723328	pulse	1	t		29.0	2.5	/experiments/AOT/AOT_stimuli/rescaled_final/1127_fw.mp4	0.0	180.88163208961487	
31	160.6575469970703	fix_post	2		12	29.0	2.5	/experiments/AOT/AOT_stimuli/rescaled_final/1127_fw.mp4	0.0	182.1982569694519	0.09987711906433105
32	160.75742411613464	fix_pre	0		120	30.0	2.5	/experiments/AOT/AOT_stimuli/rescaled_final/0402_rv.mp4	0.0	182.29813408851624	1.000035047531128
32	160.94092106819153	pulse	0	t		30.0	2.5	/experiments/AOT/AOT_stimuli/rescaled_final/0402_rv.mp4	0.0	182.48163104057312	
32	161.75745916366577	movie	1		245	30.0	2.5	/experiments/AOT/AOT_stimuli/rescaled_final/0402_rv.mp4	0.0	183.29816913604736	2.4996118545532227
32	162.54083704948425	pulse	1	t		30.0	2.5	/experiments/AOT/AOT_stimuli/rescaled_final/0402_rv.mp4	0.0	184.08154702186584	
32	164.1391041278839	pulse	1	t		30.0	2.5	/experiments/AOT/AOT_stimuli/rescaled_final/0402_rv.mp4	0.0	185.6798141002655	
32	164.257071018219	fix_post	2		12	30.0	2.5	/experiments/AOT/AOT_stimuli/rescaled_final/0402_rv.mp4	0.0	185.7977809906006	0.10042810440063477
33	164.35749912261963	fix_pre	0		120	31.0	2.5	/experiments/AOT/AOT_stimuli/rescaled_final/0898_rv.mp4	0.0	185.89820909500122	0.9997169971466064
33	165.35721611976624	movie	1		244	31.0	2.5	/experiments/AOT/AOT_stimuli/rescaled_final/0898_rv.mp4	0.0	186.89792609214783	2.5002028942108154
33	165.74039101600647	pulse	1	t		31.0	2.5	/experiments/AOT/AOT_stimuli/rescaled_final/0898_rv.mp4	0.0	187.28110098838806	
33	167.34089016914368	pulse	1	t		31.0	2.5	/experiments/AOT/AOT_stimuli/rescaled_final/0898_rv.mp4	0.0	188.88160014152527	
33	167.85741901397705	fix_post	2		12	31.0	2.5	/experiments/AOT/AOT_stimuli/rescaled_final/0898_rv.mp4	0.0	189.39812898635864	0.09994912147521973
34	167.95736813545227	fix_pre	0		119	32.0	2.5	/experiments/AOT/AOT_stimuli/rescaled_final/0567_rv.mp4	0.0	189.49807810783386	0.991602897644043
34	168.94086408615112	pulse	0	t		32.0	2.5	/experiments/AOT/AOT_stimuli/rescaled_final/0567_rv.mp4	0.0	190.48157405853271	
34	168.9489710330963	movie	1		245	32.0	2.5	/experiments/AOT/AOT_stimuli/rescaled_final/0567_rv.mp4	0.0	190.4896810054779	2.5083141326904297
34	170.54054617881775	pulse	1	t		32.0	2.5	/experiments/AOT/AOT_stimuli/rescaled_final/0567_rv.mp4	0.0	192.08125615119934	
34	171.45728516578674	fix_post	2		12	32.0	2.5	/experiments/AOT/AOT_stimuli/rescaled_final/0567_rv.mp4	0.0	192.99799513816833	0.09999394416809082
35	171.55727910995483	fix_pre	0		120	33.0	2.5	/experiments/AOT/AOT_stimuli/rescaled_final/0937_fw.mp4	0.0	193.09798908233643	1.0000150203704834
35	172.14076900482178	pulse	0	t		33.0	2.5	/experiments/AOT/AOT_stimuli/rescaled_final/0937_fw.mp4	0.0	193.68147897720337	
35	172.55729413032532	movie	1		243	33.0	2.5	/experiments/AOT/AOT_stimuli/rescaled_final/0937_fw.mp4	0.0	194.0980041027069	2.500037908554077
35	173.74081110954285	pulse	1	t		33.0	2.5	/experiments/AOT/AOT_stimuli/rescaled_final/0937_fw.mp4	0.0	195.28152108192444	
35	175.0573320388794	fix_post	2		12	33.0	2.5	/experiments/AOT/AOT_stimuli/rescaled_final/0937_fw.mp4	0.0	196.598042011261	0.0999910831451416
36	175.15732312202454	fix_pre	0		120	34.0	2.5	/experiments/AOT/AOT_stimuli/rescaled_final/0230_fw.mp4	0.0	196.69803309440613	0.9999949932098389
36	175.34080410003662	pulse	0	t		34.0	2.5	/experiments/AOT/AOT_stimuli/rescaled_final/0230_fw.mp4	0.0	196.8815140724182	
36	176.15731811523438	movie	1		243	34.0	2.5	/experiments/AOT/AOT_stimuli/rescaled_final/0230_fw.mp4	0.0	197.69802808761597	2.499929904937744
36	176.94077515602112	pulse	1	t		34.0	2.5	/experiments/AOT/AOT_stimuli/rescaled_final/0230_fw.mp4	0.0	198.4814851284027	
36	178.53936910629272	pulse	1	t		34.0	2.5	/experiments/AOT/AOT_stimuli/rescaled_final/0230_fw.mp4	0.0	200.08007907867432	
36	178.65724802017212	fix_post	2		12	34.0	2.5	/experiments/AOT/AOT_stimuli/rescaled_final/0230_fw.mp4	0.0	200.1979579925537	0.10009193420410156
37	178.75733995437622	fix_pre	0		120	35.0	2.5	blank	1.0	200.2980499267578	0.9999182224273682
37	179.7572581768036	movie	1		300	35.0	2.5	blank	1.0	201.29796814918518	2.500079870223999
37	180.14079117774963	pulse	1	t		35.0	2.5	blank	1.0	201.68150115013123	
37	181.74078011512756	pulse	1	t		35.0	2.5	blank	1.0	203.28149008750916	
37	182.2573380470276	fix_post	2		12	35.0	2.5	blank	1.0	203.79804801940918	0.09990692138671875
38	182.3572449684143	fix_pre	0		119	36.0	2.5	/experiments/AOT/AOT_stimuli/rescaled_final/1453_fw.mp4	0.0	203.8979549407959	0.9917111396789551
38	183.34074211120605	pulse	0	t		36.0	2.5	/experiments/AOT/AOT_stimuli/rescaled_final/1453_fw.mp4	0.0	204.88145208358765	
38	183.34895610809326	movie	1		246	36.0	2.5	/experiments/AOT/AOT_stimuli/rescaled_final/1453_fw.mp4	0.0	204.88966608047485	2.508340835571289
38	184.9402310848236	pulse	1	t		36.0	2.5	/experiments/AOT/AOT_stimuli/rescaled_final/1453_fw.mp4	0.0	206.4809410572052	
38	185.85729694366455	fix_post	2		12	36.0	2.5	/experiments/AOT/AOT_stimuli/rescaled_final/1453_fw.mp4	0.0	207.39800691604614	0.09993410110473633
39	185.9572310447693	fix_pre	0		120	37.0	2.5	/experiments/AOT/AOT_stimuli/rescaled_final/1564_rv.mp4	0.0	207.49794101715088	0.9999830722808838
39	186.54074096679688	pulse	0	t		37.0	2.5	/experiments/AOT/AOT_stimuli/rescaled_final/1564_rv.mp4	0.0	208.08145093917847	
39	186.95721411705017	movie	1		245	37.0	2.5	/experiments/AOT/AOT_stimuli/rescaled_final/1564_rv.mp4	0.0	208.49792408943176	2.5000250339508057
39	188.14090394973755	pulse	1	t		37.0	2.5	/experiments/AOT/AOT_stimuli/rescaled_final/1564_rv.mp4	0.0	209.68161392211914	
39	189.45723915100098	fix_post	2		12	37.0	2.5	/experiments/AOT/AOT_stimuli/rescaled_final/1564_rv.mp4	0.0	210.99794912338257	0.0999748706817627
40	189.55721402168274	fix_pre	0		120	38.0	2.5	/experiments/AOT/AOT_stimuli/rescaled_final/0118_rv.mp4	0.0	211.09792399406433	1.0000569820404053
40	189.74067497253418	pulse	0	t		38.0	2.5	/experiments/AOT/AOT_stimuli/rescaled_final/0118_rv.mp4	0.0	211.28138494491577	
40	190.55727100372314	movie	1		242	38.0	2.5	/experiments/AOT/AOT_stimuli/rescaled_final/0118_rv.mp4	0.0	212.09798097610474	2.4999401569366455
40	191.34072303771973	pulse	1	t		38.0	2.5	/experiments/AOT/AOT_stimuli/rescaled_final/0118_rv.mp4	0.0	212.88143301010132	
40	192.93899416923523	pulse	1	t		38.0	2.5	/experiments/AOT/AOT_stimuli/rescaled_final/0118_rv.mp4	0.0	214.47970414161682	
40	193.0572111606598	fix_post	2		12	38.0	2.5	/experiments/AOT/AOT_stimuli/rescaled_final/0118_rv.mp4	0.0	214.59792113304138	0.09992384910583496
41	193.15713500976562	fix_pre	0		120	39.0	2.5	/experiments/AOT/AOT_stimuli/rescaled_final/1113_rv.mp4	0.0	214.69784498214722	1.000046968460083
41	194.1571819782257	movie	1		243	39.0	2.5	/experiments/AOT/AOT_stimuli/rescaled_final/1113_rv.mp4	0.0	215.6978919506073	2.500051975250244
41	194.54061698913574	pulse	1	t		39.0	2.5	/experiments/AOT/AOT_stimuli/rescaled_final/1113_rv.mp4	0.0	216.08132696151733	
41	196.14066815376282	pulse	1	t		39.0	2.5	/experiments/AOT/AOT_stimuli/rescaled_final/1113_rv.mp4	0.0	217.6813781261444	
41	196.65723395347595	fix_post	2		12	39.0	2.5	/experiments/AOT/AOT_stimuli/rescaled_final/1113_rv.mp4	0.0	218.19794392585754	0.09999299049377441
42	196.75722694396973	fix_pre	0		119	40.0	2.5	/experiments/AOT/AOT_stimuli/rescaled_final/1453_rv.mp4	0.0	218.29793691635132	0.9916090965270996
42	197.74069499969482	pulse	0	t		40.0	2.5	/experiments/AOT/AOT_stimuli/rescaled_final/1453_rv.mp4	0.0	219.28140497207642	
42	197.74883604049683	movie	1		245	40.0	2.5	/experiments/AOT/AOT_stimuli/rescaled_final/1453_rv.mp4	0.0	219.28954601287842	2.5084269046783447
42	199.3403651714325	pulse	1	t		40.0	2.5	/experiments/AOT/AOT_stimuli/rescaled_final/1453_rv.mp4	0.0	220.8810751438141	
42	200.25726294517517	fix_post	2		12	40.0	2.5	/experiments/AOT/AOT_stimuli/rescaled_final/1453_rv.mp4	0.0	221.79797291755676	0.09995913505554199
43	200.3572220802307	fix_pre	0		120	41.0	2.5	/experiments/AOT/AOT_stimuli/rescaled_final/1323_fw.mp4	0.0	221.8979320526123	1.0001139640808105
43	200.9406361579895	pulse	0	t		41.0	2.5	/experiments/AOT/AOT_stimuli/rescaled_final/1323_fw.mp4	0.0	222.4813461303711	
43	201.35733604431152	movie	1		243	41.0	2.5	/experiments/AOT/AOT_stimuli/rescaled_final/1323_fw.mp4	0.0	222.89804601669312	2.4998650550842285
43	202.5407280921936	pulse	1	t		41.0	2.5	/experiments/AOT/AOT_stimuli/rescaled_final/1323_fw.mp4	0.0	224.0814380645752	
43	203.85720109939575	fix_post	2		12	41.0	2.5	/experiments/AOT/AOT_stimuli/rescaled_final/1323_fw.mp4	0.0	225.39791107177734	0.10000300407409668
44	203.95720410346985	fix_pre	0		120	42.0	2.5	blank	1.0	225.49791407585144	0.9999768733978271
44	204.1406581401825	pulse	0	t		42.0	2.5	blank	1.0	225.6813681125641	
44	204.95718097686768	movie	1		300	42.0	2.5	blank	1.0	226.49789094924927	2.4999191761016846
44	205.74064016342163	pulse	1	t		42.0	2.5	blank	1.0	227.28135013580322	
44	207.34063601493835	pulse	1	t		42.0	2.5	blank	1.0	228.88134598731995	
44	207.45710015296936	fix_post	2		12	42.0	2.5	blank	1.0	228.99781012535095	0.10004687309265137
45	207.557147026062	fix_pre	0		120	43.0	2.5	/experiments/AOT/AOT_stimuli/rescaled_final/0795_fw.mp4	0.0	229.0978569984436	1.0000219345092773
45	208.5571689605713	movie	1		244	43.0	2.5	/experiments/AOT/AOT_stimuli/rescaled_final/0795_fw.mp4	0.0	230.09787893295288	2.4999589920043945
45	208.94087195396423	pulse	1	t		43.0	2.5	/experiments/AOT/AOT_stimuli/rescaled_final/0795_fw.mp4	0.0	230.48158192634583	
45	210.54052209854126	pulse	1	t		43.0	2.5	/experiments/AOT/AOT_stimuli/rescaled_final/0795_fw.mp4	0.0	232.08123207092285	
45	211.05712795257568	fix_post	2		12	43.0	2.5	/experiments/AOT/AOT_stimuli/rescaled_final/0795_fw.mp4	0.0	232.59783792495728	0.1000051498413086
46	211.157133102417	fix_pre	0		119	44.0	2.5	/experiments/AOT/AOT_stimuli/rescaled_final/0963_fw.mp4	0.0	232.69784307479858	0.9915978908538818
46	212.14063096046448	pulse	0	t		44.0	2.5	/experiments/AOT/AOT_stimuli/rescaled_final/0963_fw.mp4	0.0	233.68134093284607	
46	212.14873099327087	movie	1		245	44.0	2.5	/experiments/AOT/AOT_stimuli/rescaled_final/0963_fw.mp4	0.0	233.68944096565247	2.508376121520996
46	213.74164605140686	pulse	1	t		44.0	2.5	/experiments/AOT/AOT_stimuli/rescaled_final/0963_fw.mp4	0.0	235.28235602378845	
46	214.65710711479187	fix_post	2		12	44.0	2.5	/experiments/AOT/AOT_stimuli/rescaled_final/0963_fw.mp4	0.0	236.19781708717346	0.09994697570800781
47	214.75705409049988	fix_pre	0		120	45.0	2.5	/experiments/AOT/AOT_stimuli/rescaled_final/1855_rv.mp4	0.0	236.29776406288147	0.9999990463256836
47	215.34065914154053	pulse	0	t		45.0	2.5	/experiments/AOT/AOT_stimuli/rescaled_final/1855_rv.mp4	0.0	236.88136911392212	
47	215.75705313682556	movie	1		242	45.0	2.5	/experiments/AOT/AOT_stimuli/rescaled_final/1855_rv.mp4	0.0	237.29776310920715	2.5001020431518555
47	216.94065809249878	pulse	1	t		45.0	2.5	/experiments/AOT/AOT_stimuli/rescaled_final/1855_rv.mp4	0.0	238.48136806488037	
47	218.25715517997742	fix_post	2		12	45.0	2.5	/experiments/AOT/AOT_stimuli/rescaled_final/1855_rv.mp4	0.0	239.797865152359	0.10006093978881836
48	218.35721611976624	fix_pre	0		120	46.0	2.5	/experiments/AOT/AOT_stimuli/rescaled_final/0520_fw.mp4	0.0	239.89792609214783	0.9995360374450684
48	218.54018807411194	pulse	0	t		46.0	2.5	/experiments/AOT/AOT_stimuli/rescaled_final/0520_fw.mp4	0.0	240.08089804649353	
48	219.3567521572113	movie	1		244	46.0	2.5	/experiments/AOT/AOT_stimuli/rescaled_final/0520_fw.mp4	0.0	240.8974621295929	2.500264883041382
48	220.14025402069092	pulse	1	t		46.0	2.5	/experiments/AOT/AOT_stimuli/rescaled_final/0520_fw.mp4	0.0	241.6809639930725	
48	221.73929715156555	pulse	1	t		46.0	2.5	/experiments/AOT/AOT_stimuli/rescaled_final/0520_fw.mp4	0.0	243.28000712394714	
48	221.85701704025269	fix_post	2		12	46.0	2.5	/experiments/AOT/AOT_stimuli/rescaled_final/0520_fw.mp4	0.0	243.39772701263428	0.09995603561401367
49	221.9569730758667	fix_pre	0		120	47.0	2.5	/experiments/AOT/AOT_stimuli/rescaled_final/1444_fw.mp4	0.0	243.4976830482483	1.0001530647277832
49	222.95712614059448	movie	1		243	47.0	2.5	/experiments/AOT/AOT_stimuli/rescaled_final/1444_fw.mp4	0.0	244.49783611297607	2.499971866607666
49	223.34144496917725	pulse	1	t		47.0	2.5	/experiments/AOT/AOT_stimuli/rescaled_final/1444_fw.mp4	0.0	244.88215494155884	
49	224.94051504135132	pulse	1	t		47.0	2.5	/experiments/AOT/AOT_stimuli/rescaled_final/1444_fw.mp4	0.0	246.4812250137329	
49	225.45709800720215	fix_post	2		12	47.0	2.5	/experiments/AOT/AOT_stimuli/rescaled_final/1444_fw.mp4	0.0	246.99780797958374	0.09996795654296875
50	225.55706596374512	fix_pre	0		119	48.0	2.5	/experiments/AOT/AOT_stimuli/rescaled_final/1914_fw.mp4	0.0	247.0977759361267	0.9916081428527832
50	226.5406379699707	pulse	0	t		48.0	2.5	/experiments/AOT/AOT_stimuli/rescaled_final/1914_fw.mp4	0.0	248.0813479423523	
50	226.5486741065979	movie	1		248	48.0	2.5	/experiments/AOT/AOT_stimuli/rescaled_final/1914_fw.mp4	0.0	248.0893840789795	2.5083658695220947
50	228.14007997512817	pulse	1	t		48.0	2.5	/experiments/AOT/AOT_stimuli/rescaled_final/1914_fw.mp4	0.0	249.68078994750977	
50	229.05703997612	fix_post	2		12	48.0	2.5	/experiments/AOT/AOT_stimuli/rescaled_final/1914_fw.mp4	0.0	250.5977499485016	0.10000205039978027
51	229.15704202651978	fix_pre	0		120	49.0	2.5	blank	1.0	250.69775199890137	0.9999539852142334
51	229.74050307273865	pulse	0	t		49.0	2.5	blank	1.0	251.28121304512024	
51	230.156996011734	movie	1		300	49.0	2.5	blank	1.0	251.6977059841156	2.500051975250244
51	231.3405361175537	pulse	1	t		49.0	2.5	blank	1.0	252.8812460899353	
51	232.65704798698425	fix_post	2		12	49.0	2.5	blank	1.0	254.19775795936584	0.09995102882385254
52	232.7569990158081	fix_pre	0		120	50.0	2.5	/experiments/AOT/AOT_stimuli/rescaled_final/1827_rv.mp4	0.0	254.2977089881897	1.0000529289245605
52	232.9404900074005	pulse	0	t		50.0	2.5	/experiments/AOT/AOT_stimuli/rescaled_final/1827_rv.mp4	0.0	254.4811999797821	
52	233.75705194473267	movie	1		244	50.0	2.5	/experiments/AOT/AOT_stimuli/rescaled_final/1827_rv.mp4	0.0	255.29776191711426	2.4999561309814453
52	234.54051113128662	pulse	1	t		50.0	2.5	/experiments/AOT/AOT_stimuli/rescaled_final/1827_rv.mp4	0.0	256.0812211036682	
52	236.13894200325012	pulse	1	t		50.0	2.5	/experiments/AOT/AOT_stimuli/rescaled_final/1827_rv.mp4	0.0	257.6796519756317	
52	236.2570080757141	fix_post	2		12	50.0	2.5	/experiments/AOT/AOT_stimuli/rescaled_final/1827_rv.mp4	0.0	257.7977180480957	0.09999203681945801
53	236.35700011253357	fix_pre	0		120	51.0	2.5	/experiments/AOT/AOT_stimuli/rescaled_final/0193_rv.mp4	0.0	257.89771008491516	1.000014066696167
53	237.35701417922974	movie	1		244	51.0	2.5	/experiments/AOT/AOT_stimuli/rescaled_final/0193_rv.mp4	0.0	258.8977241516113	2.500046968460083
53	237.7404670715332	pulse	1	t		51.0	2.5	/experiments/AOT/AOT_stimuli/rescaled_final/0193_rv.mp4	0.0	259.2811770439148	
53	239.34044003486633	pulse	1	t		51.0	2.5	/experiments/AOT/AOT_stimuli/rescaled_final/0193_rv.mp4	0.0	260.8811500072479	
53	239.85706114768982	fix_post	2		12	51.0	2.5	/experiments/AOT/AOT_stimuli/rescaled_final/0193_rv.mp4	0.0	261.3977711200714	0.09994196891784668
54	239.95700311660767	fix_pre	0		119	52.0	2.5	/experiments/AOT/AOT_stimuli/rescaled_final/1623_rv.mp4	0.0	261.49771308898926	0.9916579723358154
54	240.94054007530212	pulse	0	t		52.0	2.5	/experiments/AOT/AOT_stimuli/rescaled_final/1623_rv.mp4	0.0	262.4812500476837	
54	240.94866108894348	movie	1		245	52.0	2.5	/experiments/AOT/AOT_stimuli/rescaled_final/1623_rv.mp4	0.0	262.4893710613251	2.508388042449951
54	242.5401210784912	pulse	1	t		52.0	2.5	/experiments/AOT/AOT_stimuli/rescaled_final/1623_rv.mp4	0.0	264.0808310508728	
54	243.45704913139343	fix_post	2		12	52.0	2.5	/experiments/AOT/AOT_stimuli/rescaled_final/1623_rv.mp4	0.0	264.997759103775	0.09990882873535156
55	243.55695796012878	fix_pre	0		120	53.0	2.5	/experiments/AOT/AOT_stimuli/rescaled_final/0691_fw.mp4	0.0	265.0976679325104	1.0000011920928955
55	244.14042711257935	pulse	0	t		53.0	2.5	/experiments/AOT/AOT_stimuli/rescaled_final/0691_fw.mp4	0.0	265.68113708496094	
55	244.55695915222168	movie	1		243	53.0	2.5	/experiments/AOT/AOT_stimuli/rescaled_final/0691_fw.mp4	0.0	266.09766912460327	2.5000298023223877
55	245.74057006835938	pulse	1	t		53.0	2.5	/experiments/AOT/AOT_stimuli/rescaled_final/0691_fw.mp4	0.0	267.28128004074097	
55	247.05698895454407	fix_post	2		12	53.0	2.5	/experiments/AOT/AOT_stimuli/rescaled_final/0691_fw.mp4	0.0	268.59769892692566	0.10008907318115234
56	247.15707802772522	fix_pre	0		120	54.0	2.5	blank	1.0	268.6977880001068	0.9999239444732666
56	247.34051299095154	pulse	0	t		54.0	2.5	blank	1.0	268.88122296333313	
56	248.1570019721985	movie	1		300	54.0	2.5	blank	1.0	269.6977119445801	2.4999279975891113
56	248.940425157547	pulse	1	t		54.0	2.5	blank	1.0	270.4811351299286	
56	250.54045796394348	pulse	1	t		54.0	2.5	blank	1.0	272.0811679363251	
56	250.6569299697876	fix_post	2		12	54.0	2.5	blank	1.0	272.1976399421692	0.10004520416259766
57	250.7569751739502	fix_pre	0		120	55.0	2.5	/experiments/AOT/AOT_stimuli/rescaled_final/0458_fw.mp4	0.0	272.2976851463318	1.0000159740447998
57	251.756991147995	movie	1		245	55.0	2.5	/experiments/AOT/AOT_stimuli/rescaled_final/0458_fw.mp4	0.0	273.2977011203766	2.4999189376831055
57	252.14049196243286	pulse	1	t		55.0	2.5	/experiments/AOT/AOT_stimuli/rescaled_final/0458_fw.mp4	0.0	273.68120193481445	
57	253.74043917655945	pulse	1	t		55.0	2.5	/experiments/AOT/AOT_stimuli/rescaled_final/0458_fw.mp4	0.0	275.28114914894104	
57	254.2569100856781	fix_post	2		12	55.0	2.5	/experiments/AOT/AOT_stimuli/rescaled_final/0458_fw.mp4	0.0	275.7976200580597	0.10003900527954102
58	254.35694909095764	fix_pre	0		119	56.0	2.5	/experiments/AOT/AOT_stimuli/rescaled_final/0509_rv.mp4	0.0	275.89765906333923	0.9916598796844482
58	255.34048295021057	pulse	0	t		56.0	2.5	/experiments/AOT/AOT_stimuli/rescaled_final/0509_rv.mp4	0.0	276.88119292259216	
58	255.3486089706421	movie	1		246	56.0	2.5	/experiments/AOT/AOT_stimuli/rescaled_final/0509_rv.mp4	0.0	276.8893189430237	2.5083210468292236
58	256.9400601387024	pulse	1	t		56.0	2.5	/experiments/AOT/AOT_stimuli/rescaled_final/0509_rv.mp4	0.0	278.480770111084	
58	257.8569300174713	fix_post	2		12	56.0	2.5	/experiments/AOT/AOT_stimuli/rescaled_final/0509_rv.mp4	0.0	279.3976399898529	0.0999000072479248
59	257.95683002471924	fix_pre	0		120	57.0	2.5	/experiments/AOT/AOT_stimuli/rescaled_final/0894_fw.mp4	0.0	279.49753999710083	1.0000879764556885
59	258.54174613952637	pulse	0	t		57.0	2.5	/experiments/AOT/AOT_stimuli/rescaled_final/0894_fw.mp4	0.0	280.08245611190796	
59	258.9569180011749	movie	1		243	57.0	2.5	/experiments/AOT/AOT_stimuli/rescaled_final/0894_fw.mp4	0.0	280.4976279735565	2.5000481605529785
59	260.1403751373291	pulse	1	t		57.0	2.5	/experiments/AOT/AOT_stimuli/rescaled_final/0894_fw.mp4	0.0	281.6810851097107	
59	261.4569661617279	fix_post	2		12	57.0	2.5	/experiments/AOT/AOT_stimuli/rescaled_final/0894_fw.mp4	0.0	282.9976761341095	0.09998893737792969
60	261.55695509910583	fix_pre	0		120	58.0	2.5	/experiments/AOT/AOT_stimuli/rescaled_final/0696_rv.mp4	0.0	283.0976650714874	1.000025987625122
60	261.7404291629791	pulse	0	t		58.0	2.5	/experiments/AOT/AOT_stimuli/rescaled_final/0696_rv.mp4	0.0	283.2811391353607	
60	262.55698108673096	movie	1		242	58.0	2.5	/experiments/AOT/AOT_stimuli/rescaled_final/0696_rv.mp4	0.0	284.09769105911255	2.499906063079834
60	263.3403830528259	pulse	1	t		58.0	2.5	/experiments/AOT/AOT_stimuli/rescaled_final/0696_rv.mp4	0.0	284.8810930252075	
60	264.93948316574097	pulse	1	t		58.0	2.5	/experiments/AOT/AOT_stimuli/rescaled_final/0696_rv.mp4	0.0	286.48019313812256	
60	265.0568871498108	fix_post	2		12	58.0	2.5	/experiments/AOT/AOT_stimuli/rescaled_final/0696_rv.mp4	0.0	286.5975971221924	0.0999298095703125
61	265.1568169593811	fix_pre	0		120	59.0	2.5	/experiments/AOT/AOT_stimuli/rescaled_final/0515_fw.mp4	0.0	286.6975269317627	1.0001170635223389
61	266.15693402290344	movie	1		245	59.0	2.5	/experiments/AOT/AOT_stimuli/rescaled_final/0515_fw.mp4	0.0	287.69764399528503	2.5000100135803223
61	266.54017400741577	pulse	1	t		59.0	2.5	/experiments/AOT/AOT_stimuli/rescaled_final/0515_fw.mp4	0.0	288.08088397979736	
61	268.1403970718384	pulse	1	t		59.0	2.5	/experiments/AOT/AOT_stimuli/rescaled_final/0515_fw.mp4	0.0	289.68110704421997	
61	268.65694403648376	fix_post	2		12	59.0	2.5	/experiments/AOT/AOT_stimuli/rescaled_final/0515_fw.mp4	0.0	290.19765400886536	0.0998690128326416
62	268.7568130493164	fix_pre	0		119	60.0	2.5	/experiments/AOT/AOT_stimuli/rescaled_final/1401_fw.mp4	0.0	290.297523021698	0.9917030334472656
62	269.740345954895	pulse	0	t		60.0	2.5	/experiments/AOT/AOT_stimuli/rescaled_final/1401_fw.mp4	0.0	291.2810559272766	
62	269.7485160827637	movie	1		244	60.0	2.5	/experiments/AOT/AOT_stimuli/rescaled_final/1401_fw.mp4	0.0	291.28922605514526	2.5083420276641846
62	271.34040999412537	pulse	1	t		60.0	2.5	/experiments/AOT/AOT_stimuli/rescaled_final/1401_fw.mp4	0.0	292.88111996650696	
62	272.25685811042786	fix_post	2		12	60.0	2.5	/experiments/AOT/AOT_stimuli/rescaled_final/1401_fw.mp4	0.0	293.79756808280945	0.10006093978881836
63	272.3569190502167	fix_pre	0		120	61.0	2.5	blank	1.0	293.89762902259827	0.9999840259552002
63	272.94034910202026	pulse	0	t		61.0	2.5	blank	1.0	294.48105907440186	
63	273.3569030761719	movie	1		300	61.0	2.5	blank	1.0	294.89761304855347	2.4995579719543457
63	274.54032611846924	pulse	1	t		61.0	2.5	blank	1.0	296.08103609085083	
63	275.8564610481262	fix_post	2		12	61.0	2.5	blank	1.0	297.3971710205078	0.10040497779846191
64	275.9568660259247	fix_pre	0		120	62.0	2.5	/experiments/AOT/AOT_stimuli/rescaled_final/1108_fw.mp4	0.0	297.4975759983063	1.000169038772583
64	276.14036798477173	pulse	0	t		62.0	2.5	/experiments/AOT/AOT_stimuli/rescaled_final/1108_fw.mp4	0.0	297.6810779571533	
64	276.95703506469727	movie	1		243	62.0	2.5	/experiments/AOT/AOT_stimuli/rescaled_final/1108_fw.mp4	0.0	298.49774503707886	2.4997971057891846
64	277.7402460575104	pulse	1	t		62.0	2.5	/experiments/AOT/AOT_stimuli/rescaled_final/1108_fw.mp4	0.0	299.28095602989197	
64	279.3487160205841	pulse	1	t		62.0	2.5	/experiments/AOT/AOT_stimuli/rescaled_final/1108_fw.mp4	0.0	300.8894259929657	
64	279.45683217048645	fix_post	2		12	62.0	2.5	/experiments/AOT/AOT_stimuli/rescaled_final/1108_fw.mp4	0.0	300.99754214286804	0.10001778602600098
65	279.55684995651245	fix_pre	0		120	63.0	2.5	/experiments/AOT/AOT_stimuli/rescaled_final/1892_fw.mp4	0.0	301.09755992889404	0.9999921321868896
65	280.55684208869934	movie	1		244	63.0	2.5	/experiments/AOT/AOT_stimuli/rescaled_final/1892_fw.mp4	0.0	302.09755206108093	2.499876022338867
65	280.93995904922485	pulse	1	t		63.0	2.5	/experiments/AOT/AOT_stimuli/rescaled_final/1892_fw.mp4	0.0	302.48066902160645	
65	282.54021406173706	pulse	1	t		63.0	2.5	/experiments/AOT/AOT_stimuli/rescaled_final/1892_fw.mp4	0.0	304.08092403411865	
65	283.0567181110382	fix_post	2		12	63.0	2.5	/experiments/AOT/AOT_stimuli/rescaled_final/1892_fw.mp4	0.0	304.5974280834198	0.09999299049377441
66	283.156711101532	fix_pre	0		119	64.0	2.5	/experiments/AOT/AOT_stimuli/rescaled_final/1623_fw.mp4	0.0	304.6974210739136	0.9917099475860596
66	284.1402151584625	pulse	0	t		64.0	2.5	/experiments/AOT/AOT_stimuli/rescaled_final/1623_fw.mp4	0.0	305.6809251308441	
66	284.14842104911804	movie	1		246	64.0	2.5	/experiments/AOT/AOT_stimuli/rescaled_final/1623_fw.mp4	0.0	305.68913102149963	2.508352041244507
66	285.7397150993347	pulse	1	t		64.0	2.5	/experiments/AOT/AOT_stimuli/rescaled_final/1623_fw.mp4	0.0	307.2804250717163	
66	286.65677309036255	fix_post	2		12	64.0	2.5	/experiments/AOT/AOT_stimuli/rescaled_final/1623_fw.mp4	0.0	308.19748306274414	0.09997391700744629
67	286.75674700737	fix_pre	0		120	65.0	2.5	/experiments/AOT/AOT_stimuli/rescaled_final/0041_fw.mp4	0.0	308.2974569797516	1.0001130104064941
67	287.3401679992676	pulse	0	t		65.0	2.5	/experiments/AOT/AOT_stimuli/rescaled_final/0041_fw.mp4	0.0	308.88087797164917	
67	287.7568600177765	movie	1		248	65.0	2.5	/experiments/AOT/AOT_stimuli/rescaled_final/0041_fw.mp4	0.0	309.2975699901581	2.499906063079834
67	288.94022011756897	pulse	1	t		65.0	2.5	/experiments/AOT/AOT_stimuli/rescaled_final/0041_fw.mp4	0.0	310.48093008995056	
67	290.2567660808563	fix_post	2		12	65.0	2.5	/experiments/AOT/AOT_stimuli/rescaled_final/0041_fw.mp4	0.0	311.7974760532379	0.10011601448059082
68	290.3568820953369	fix_pre	0		120	66.0	2.5	/experiments/AOT/AOT_stimuli/rescaled_final/2085_fw.mp4	0.0	311.8975920677185	0.9998538494110107
68	290.54030299186707	pulse	0	t		66.0	2.5	/experiments/AOT/AOT_stimuli/rescaled_final/2085_fw.mp4	0.0	312.08101296424866	
68	291.3567359447479	movie	1		246	66.0	2.5	/experiments/AOT/AOT_stimuli/rescaled_final/2085_fw.mp4	0.0	312.8974459171295	2.5000710487365723
68	292.14013504981995	pulse	1	t		66.0	2.5	/experiments/AOT/AOT_stimuli/rescaled_final/2085_fw.mp4	0.0	313.68084502220154	
68	293.7389860153198	pulse	1	t		66.0	2.5	/experiments/AOT/AOT_stimuli/rescaled_final/2085_fw.mp4	0.0	315.2796959877014	
68	293.8568069934845	fix_post	2		12	66.0	2.5	/experiments/AOT/AOT_stimuli/rescaled_final/2085_fw.mp4	0.0	315.3975169658661	0.09982514381408691
69	293.9566321372986	fix_pre	0		120	67.0	2.5	/experiments/AOT/AOT_stimuli/rescaled_final/0692_fw.mp4	0.0	315.4973421096802	1.0001208782196045
69	294.9567530155182	movie	1		246	67.0	2.5	/experiments/AOT/AOT_stimuli/rescaled_final/0692_fw.mp4	0.0	316.4974629878998	2.499897003173828
69	295.3397970199585	pulse	1	t		67.0	2.5	/experiments/AOT/AOT_stimuli/rescaled_final/0692_fw.mp4	0.0	316.8805069923401	
69	296.9402160644531	pulse	1	t		67.0	2.5	/experiments/AOT/AOT_stimuli/rescaled_final/0692_fw.mp4	0.0	318.4809260368347	
69	297.456650018692	fix_post	2		12	67.0	2.5	/experiments/AOT/AOT_stimuli/rescaled_final/0692_fw.mp4	0.0	318.9973599910736	0.10004305839538574
70	297.5566930770874	fix_pre	0		119	68.0	2.5	/experiments/AOT/AOT_stimuli/rescaled_final/1071_fw.mp4	0.0	319.097403049469	0.9917020797729492
70	298.5401771068573	pulse	0	t		68.0	2.5	/experiments/AOT/AOT_stimuli/rescaled_final/1071_fw.mp4	0.0	320.0808870792389	
70	298.54839515686035	movie	1		245	68.0	2.5	/experiments/AOT/AOT_stimuli/rescaled_final/1071_fw.mp4	0.0	320.08910512924194	2.508347988128662
70	300.14013409614563	pulse	1	t		68.0	2.5	/experiments/AOT/AOT_stimuli/rescaled_final/1071_fw.mp4	0.0	321.6808440685272	
70	301.056743144989	fix_post	2		12	68.0	2.5	/experiments/AOT/AOT_stimuli/rescaled_final/1071_fw.mp4	0.0	322.5974531173706	0.10001897811889648
71	301.1567621231079	fix_pre	0		120	69.0	2.5	blank	1.0	322.6974720954895	0.9999270439147949
71	301.74035716056824	pulse	0	t		69.0	2.5	blank	1.0	323.28106713294983	
71	302.1566891670227	movie	1		300	69.0	2.5	blank	1.0	323.6973991394043	2.499966859817505
71	303.340136051178	pulse	1	t		69.0	2.5	blank	1.0	324.88084602355957	
71	304.6566560268402	fix_post	2		12	69.0	2.5	blank	1.0	326.1973659992218	0.1000521183013916
72	304.7567081451416	fix_pre	0		120	70.0	2.5	/experiments/AOT/AOT_stimuli/rescaled_final/0402_rv.mp4	0.0	326.2974181175232	0.9999408721923828
72	304.9401979446411	pulse	0	t		70.0	2.5	/experiments/AOT/AOT_stimuli/rescaled_final/0402_rv.mp4	0.0	326.4809079170227	
72	305.756649017334	movie	1		244	70.0	2.5	/experiments/AOT/AOT_stimuli/rescaled_final/0402_rv.mp4	0.0	327.2973589897156	2.500009059906006
72	306.540146112442	pulse	1	t		70.0	2.5	/experiments/AOT/AOT_stimuli/rescaled_final/0402_rv.mp4	0.0	328.0808560848236	
72	308.14859795570374	pulse	1	t		70.0	2.5	/experiments/AOT/AOT_stimuli/rescaled_final/0402_rv.mp4	0.0	329.6893079280853	
72	308.25665807724	fix_post	2		12	70.0	2.5	/experiments/AOT/AOT_stimuli/rescaled_final/0402_rv.mp4	0.0	329.7973680496216	0.10001993179321289
73	308.3566780090332	fix_pre	0		120	71.0	2.5	/experiments/AOT/AOT_stimuli/rescaled_final/0176_rv.mp4	0.0	329.8973879814148	0.9999830722808838
73	309.3566610813141	movie	1		244	71.0	2.5	/experiments/AOT/AOT_stimuli/rescaled_final/0176_rv.mp4	0.0	330.8973710536957	2.500066041946411
73	309.74001002311707	pulse	1	t		71.0	2.5	/experiments/AOT/AOT_stimuli/rescaled_final/0176_rv.mp4	0.0	331.28071999549866	
73	311.34011912345886	pulse	1	t		71.0	2.5	/experiments/AOT/AOT_stimuli/rescaled_final/0176_rv.mp4	0.0	332.88082909584045	
73	311.8567271232605	fix_post	2		12	71.0	2.5	/experiments/AOT/AOT_stimuli/rescaled_final/0176_rv.mp4	0.0	333.3974370956421	0.09986495971679688
74	311.9565920829773	fix_pre	0		119	72.0	2.5	/experiments/AOT/AOT_stimuli/rescaled_final/1717_fw.mp4	0.0	333.4973020553589	0.9916849136352539
74	312.94016098976135	pulse	0	t		72.0	2.5	/experiments/AOT/AOT_stimuli/rescaled_final/1717_fw.mp4	0.0	334.48087096214294	
74	312.94827699661255	movie	1		246	72.0	2.5	/experiments/AOT/AOT_stimuli/rescaled_final/1717_fw.mp4	0.0	334.48898696899414	2.5083701610565186
74	314.53962802886963	pulse	1	t		72.0	2.5	/experiments/AOT/AOT_stimuli/rescaled_final/1717_fw.mp4	0.0	336.0803380012512	
74	315.45664715766907	fix_post	2		12	72.0	2.5	/experiments/AOT/AOT_stimuli/rescaled_final/1717_fw.mp4	0.0	336.99735713005066	0.09999394416809082
75	315.55664110183716	fix_pre	0		120	73.0	2.5	/experiments/AOT/AOT_stimuli/rescaled_final/1892_rv.mp4	0.0	337.09735107421875	0.9999539852142334
75	316.1400980949402	pulse	0	t		73.0	2.5	/experiments/AOT/AOT_stimuli/rescaled_final/1892_rv.mp4	0.0	337.6808080673218	
75	316.5565950870514	movie	1		247	73.0	2.5	/experiments/AOT/AOT_stimuli/rescaled_final/1892_rv.mp4	0.0	338.097305059433	2.500391960144043
75	317.74010396003723	pulse	1	t		73.0	2.5	/experiments/AOT/AOT_stimuli/rescaled_final/1892_rv.mp4	0.0	339.2808139324188	
75	319.05698704719543	fix_post	2		12	73.0	2.5	/experiments/AOT/AOT_stimuli/rescaled_final/1892_rv.mp4	0.0	340.597697019577	0.09955692291259766
76	319.15654397010803	fix_pre	0		120	74.0	2.5	/experiments/AOT/AOT_stimuli/rescaled_final/0193_rv.mp4	0.0	340.6972539424896	1.0000331401824951
76	319.34009408950806	pulse	0	t		74.0	2.5	/experiments/AOT/AOT_stimuli/rescaled_final/0193_rv.mp4	0.0	340.88080406188965	
76	320.1565771102905	movie	1		245	74.0	2.5	/experiments/AOT/AOT_stimuli/rescaled_final/0193_rv.mp4	0.0	341.6972870826721	2.5001919269561768
76	320.94007205963135	pulse	1	t		74.0	2.5	/experiments/AOT/AOT_stimuli/rescaled_final/0193_rv.mp4	0.0	342.48078203201294	
76	322.54006814956665	pulse	1	t		74.0	2.5	/experiments/AOT/AOT_stimuli/rescaled_final/0193_rv.mp4	0.0	344.08077812194824	
76	322.6567690372467	fix_post	2		12	74.0	2.5	/experiments/AOT/AOT_stimuli/rescaled_final/0193_rv.mp4	0.0	344.1974790096283	0.09978914260864258
77	322.75655817985535	fix_pre	0		120	75.0	2.5	/experiments/AOT/AOT_stimuli/rescaled_final/1591_fw.mp4	0.0	344.29726815223694	1.0000078678131104
77	323.75656604766846	movie	1		245	75.0	2.5	/experiments/AOT/AOT_stimuli/rescaled_final/1591_fw.mp4	0.0	345.29727602005005	2.500044107437134
77	324.1409900188446	pulse	1	t		75.0	2.5	/experiments/AOT/AOT_stimuli/rescaled_final/1591_fw.mp4	0.0	345.6816999912262	
77	325.7400691509247	pulse	1	t		75.0	2.5	/experiments/AOT/AOT_stimuli/rescaled_final/1591_fw.mp4	0.0	347.2807791233063	
77	326.2566101551056	fix_post	2		12	75.0	2.5	/experiments/AOT/AOT_stimuli/rescaled_final/1591_fw.mp4	0.0	347.7973201274872	0.09990501403808594
78	326.3565151691437	fix_pre	0		119	76.0	2.5	blank	1.0	347.89722514152527	0.9917149543762207
78	327.3401520252228	pulse	0	t		76.0	2.5	blank	1.0	348.88086199760437	
78	327.3482301235199	movie	1		301	76.0	2.5	blank	1.0	348.8889400959015	2.5078718662261963
78	328.94010400772095	pulse	1	t		76.0	2.5	blank	1.0	350.48081398010254	
78	329.8561019897461	fix_post	2		12	76.0	2.5	blank	1.0	351.3968119621277	0.1005551815032959
79	329.9566571712494	fix_pre	0		120	77.0	2.5	/experiments/AOT/AOT_stimuli/rescaled_final/2000_fw.mp4	0.0	351.497367143631	0.9995028972625732
79	330.5401520729065	pulse	0	t		77.0	2.5	/experiments/AOT/AOT_stimuli/rescaled_final/2000_fw.mp4	0.0	352.0808620452881	
79	330.95616006851196	movie	1		243	77.0	2.5	/experiments/AOT/AOT_stimuli/rescaled_final/2000_fw.mp4	0.0	352.49687004089355	2.5007081031799316
79	332.13978815078735	pulse	1	t		77.0	2.5	/experiments/AOT/AOT_stimuli/rescaled_final/2000_fw.mp4	0.0	353.68049812316895	
79	333.4568681716919	fix_post	2		12	77.0	2.5	/experiments/AOT/AOT_stimuli/rescaled_final/2000_fw.mp4	0.0	354.9975781440735	0.09961581230163574
80	333.55648398399353	fix_pre	0		120	78.0	2.5	/experiments/AOT/AOT_stimuli/rescaled_final/0972_fw.mp4	0.0	355.0971939563751	1.000054121017456
80	333.73994612693787	pulse	0	t		78.0	2.5	/experiments/AOT/AOT_stimuli/rescaled_final/0972_fw.mp4	0.0	355.28065609931946	
80	334.556538105011	movie	1		246	78.0	2.5	/experiments/AOT/AOT_stimuli/rescaled_final/0972_fw.mp4	0.0	356.0972480773926	2.4999539852142334
80	335.34002208709717	pulse	1	t		78.0	2.5	/experiments/AOT/AOT_stimuli/rescaled_final/0972_fw.mp4	0.0	356.88073205947876	
80	336.93951416015625	pulse	1	t		78.0	2.5	/experiments/AOT/AOT_stimuli/rescaled_final/0972_fw.mp4	0.0	358.48022413253784	
80	337.0564920902252	fix_post	2		12	78.0	2.5	/experiments/AOT/AOT_stimuli/rescaled_final/0972_fw.mp4	0.0	358.5972020626068	0.10001993179321289
81	337.15651202201843	fix_pre	0		120	79.0	2.5	/experiments/AOT/AOT_stimuli/rescaled_final/1135_rv.mp4	0.0	358.6972219944	0.9999539852142334
81	338.15646600723267	movie	1		246	79.0	2.5	/experiments/AOT/AOT_stimuli/rescaled_final/1135_rv.mp4	0.0	359.69717597961426	2.5000131130218506
81	338.5400040149689	pulse	1	t		79.0	2.5	/experiments/AOT/AOT_stimuli/rescaled_final/1135_rv.mp4	0.0	360.08071398735046	
81	340.14000701904297	pulse	1	t		79.0	2.5	/experiments/AOT/AOT_stimuli/rescaled_final/1135_rv.mp4	0.0	361.68071699142456	
81	340.6564791202545	fix_post	2		12	79.0	2.5	/experiments/AOT/AOT_stimuli/rescaled_final/1135_rv.mp4	0.0	362.1971890926361	0.09997701644897461
82	340.7564561367035	fix_pre	0		119	80.0	2.5	/experiments/AOT/AOT_stimuli/rescaled_final/1415_rv.mp4	0.0	362.2971661090851	0.9917049407958984
82	341.7399561405182	pulse	0	t		80.0	2.5	/experiments/AOT/AOT_stimuli/rescaled_final/1415_rv.mp4	0.0	363.2806661128998	
82	341.7481610774994	movie	1		246	80.0	2.5	/experiments/AOT/AOT_stimuli/rescaled_final/1415_rv.mp4	0.0	363.288871049881	2.508307933807373
82	343.3397719860077	pulse	1	t		80.0	2.5	/experiments/AOT/AOT_stimuli/rescaled_final/1415_rv.mp4	0.0	364.8804819583893	
82	344.25646901130676	fix_post	2		12	80.0	2.5	/experiments/AOT/AOT_stimuli/rescaled_final/1415_rv.mp4	0.0	365.79717898368835	0.10004711151123047
83	344.356516122818	fix_pre	0		120	81.0	2.5	/experiments/AOT/AOT_stimuli/rescaled_final/1680_rv.mp4	0.0	365.8972260951996	0.999924898147583
83	344.940092086792	pulse	0	t		81.0	2.5	/experiments/AOT/AOT_stimuli/rescaled_final/1680_rv.mp4	0.0	366.4808020591736	
83	345.3564410209656	movie	1		246	81.0	2.5	/experiments/AOT/AOT_stimuli/rescaled_final/1680_rv.mp4	0.0	366.89715099334717	2.5001060962677
83	346.5400011539459	pulse	1	t		81.0	2.5	/experiments/AOT/AOT_stimuli/rescaled_final/1680_rv.mp4	0.0	368.0807111263275	
83	347.8565471172333	fix_post	2		12	81.0	2.5	/experiments/AOT/AOT_stimuli/rescaled_final/1680_rv.mp4	0.0	369.39725708961487	0.09992504119873047
84	347.956472158432	fix_pre	0		120	82.0	2.5	/experiments/AOT/AOT_stimuli/rescaled_final/0801_fw.mp4	0.0	369.4971821308136	1.0000128746032715
84	348.13990211486816	pulse	0	t		82.0	2.5	/experiments/AOT/AOT_stimuli/rescaled_final/0801_fw.mp4	0.0	369.68061208724976	
84	348.9564850330353	movie	1		243	82.0	2.5	/experiments/AOT/AOT_stimuli/rescaled_final/0801_fw.mp4	0.0	370.49719500541687	2.5005381107330322
84	349.73988008499146	pulse	1	t		82.0	2.5	/experiments/AOT/AOT_stimuli/rescaled_final/0801_fw.mp4	0.0	371.28059005737305	
84	351.3483610153198	pulse	1	t		82.0	2.5	/experiments/AOT/AOT_stimuli/rescaled_final/0801_fw.mp4	0.0	372.8890709877014	
84	351.4570231437683	fix_post	2		12	82.0	2.5	/experiments/AOT/AOT_stimuli/rescaled_final/0801_fw.mp4	0.0	372.9977331161499	0.09953999519348145
85	351.5565631389618	fix_pre	0		120	83.0	2.5	blank	1.0	373.0972731113434	0.9999098777770996
85	352.5564730167389	movie	1		300	83.0	2.5	blank	1.0	374.0971829891205	2.5000481605529785
85	352.9399311542511	pulse	1	t		83.0	2.5	blank	1.0	374.4806411266327	
85	354.5399899482727	pulse	1	t		83.0	2.5	blank	1.0	376.0806999206543	
85	355.05652117729187	fix_post	2		12	83.0	2.5	blank	1.0	376.59723114967346	0.0999288558959961
87	355.15645003318787	stim	0		1716					376.69716000556946	14.299992084503174
87	356.1399199962616	pulse	0	t						377.6806299686432	
87	357.73991107940674	pulse	0	t						379.28062105178833	
87	359.3399450778961	pulse	0	t						380.8806550502777	
87	360.93991899490356	pulse	0	t						382.48062896728516	
87	362.5398790836334	pulse	0	t						384.080589056015	
87	364.1398961544037	pulse	0	t						385.6806061267853	
87	365.7399260997772	pulse	0	t						387.2806360721588	
87	367.3398461341858	pulse	0	t						388.8805561065674	
87	368.93979716300964	pulse	0	t						390.48050713539124	
