trial_nr	onset	event_type	phase	response	nr_frames	movie_index	movie_duration	movie_file	blank	onset_abs	duration
0	0.15773487091064453	stim	0		13					21.392943859100342	0.10880017280578613
0	0.25841498374938965	response	0	space						21.493623971939087	
1	0.26653504371643066	stim	0		4937					21.501744031906128	41.1414258480072
1	41.397050857543945	pulse	0	t						62.63225984573364	
1	41.40796089172363	stim	1		1717					62.64316987991333	14.308277130126953
1	42.99133801460266	pulse	1	t						64.22654700279236	
1	44.59138894081116	pulse	1	t						65.82659792900085	
1	46.191303968429565	pulse	1	t						67.42651295661926	
1	47.79138803482056	pulse	1	t						69.02659702301025	
1	49.39150404930115	pulse	1	t						70.62671303749084	
1	50.9913809299469	pulse	1	t						72.2265899181366	
1	52.59138607978821	pulse	1	t						73.8265950679779	
1	54.191359996795654	pulse	1	t						75.42656898498535	
2	55.716238021850586	fix_pre	0		10	0.0	2.5	/experiments/AOT/AOT_stimuli/rescaled_final/0691_rv.mp4	0.0	76.95144701004028	0.0833740234375
2	55.791378021240234	pulse	0	t		0.0	2.5	/experiments/AOT/AOT_stimuli/rescaled_final/0691_rv.mp4	0.0	77.02658700942993	
2	55.799612045288086	movie	1		245	0.0	2.5	/experiments/AOT/AOT_stimuli/rescaled_final/0691_rv.mp4	0.0	77.03482103347778	2.5078189373016357
2	57.39186692237854	pulse	1	t		0.0	2.5	/experiments/AOT/AOT_stimuli/rescaled_final/0691_rv.mp4	0.0	78.62707591056824	
2	58.30743098258972	fix_post	2		12	0.0	2.5	/experiments/AOT/AOT_stimuli/rescaled_final/0691_rv.mp4	0.0	79.54263997077942	0.10039401054382324
3	58.407824993133545	fix_pre	0		120	1.0	2.5	/experiments/AOT/AOT_stimuli/rescaled_final/1739_fw.mp4	0.0	79.64303398132324	1.0001590251922607
3	58.991410970687866	pulse	0	t		1.0	2.5	/experiments/AOT/AOT_stimuli/rescaled_final/1739_fw.mp4	0.0	80.22661995887756	
3	59.407984018325806	movie	1		245	1.0	2.5	/experiments/AOT/AOT_stimuli/rescaled_final/1739_fw.mp4	0.0	80.6431930065155	2.4994359016418457
3	60.591506004333496	pulse	1	t		1.0	2.5	/experiments/AOT/AOT_stimuli/rescaled_final/1739_fw.mp4	0.0	81.8267149925232	
3	61.90741991996765	fix_post	2		12	1.0	2.5	/experiments/AOT/AOT_stimuli/rescaled_final/1739_fw.mp4	0.0	83.14262890815735	0.10044097900390625
4	62.00786089897156	fix_pre	0		120	2.0	2.5	/experiments/AOT/AOT_stimuli/rescaled_final/1521_rv.mp4	0.0	83.24306988716125	1.000072956085205
4	62.19135499000549	pulse	0	t		2.0	2.5	/experiments/AOT/AOT_stimuli/rescaled_final/1521_rv.mp4	0.0	83.42656397819519	
4	63.00793385505676	movie	1		245	2.0	2.5	/experiments/AOT/AOT_stimuli/rescaled_final/1521_rv.mp4	0.0	84.24314284324646	2.499859094619751
4	63.79148197174072	pulse	1	t		2.0	2.5	/experiments/AOT/AOT_stimuli/rescaled_final/1521_rv.mp4	0.0	85.02669095993042	
4	65.39091801643372	pulse	1	t		2.0	2.5	/experiments/AOT/AOT_stimuli/rescaled_final/1521_rv.mp4	0.0	86.62612700462341	
4	65.50779294967651	fix_post	2		12	2.0	2.5	/experiments/AOT/AOT_stimuli/rescaled_final/1521_rv.mp4	0.0	86.74300193786621	0.10007405281066895
5	65.60786700248718	fix_pre	0		120	3.0	2.5	/experiments/AOT/AOT_stimuli/rescaled_final/0001_rv.mp4	0.0	86.84307599067688	1.0000250339508057
5	66.60789203643799	movie	1		244	3.0	2.5	/experiments/AOT/AOT_stimuli/rescaled_final/0001_rv.mp4	0.0	87.84310102462769	2.499945878982544
5	66.99167990684509	pulse	1	t		3.0	2.5	/experiments/AOT/AOT_stimuli/rescaled_final/0001_rv.mp4	0.0	88.22688889503479	
5	68.59136700630188	pulse	1	t		3.0	2.5	/experiments/AOT/AOT_stimuli/rescaled_final/0001_rv.mp4	0.0	89.82657599449158	
5	69.10783791542053	fix_post	2		12	3.0	2.5	/experiments/AOT/AOT_stimuli/rescaled_final/0001_rv.mp4	0.0	90.34304690361023	0.10001802444458008
6	69.20785593986511	fix_pre	0		119	4.0	2.5	/experiments/AOT/AOT_stimuli/rescaled_final/1602_fw.mp4	0.0	90.44306492805481	0.991671085357666
6	70.19143390655518	pulse	0	t		4.0	2.5	/experiments/AOT/AOT_stimuli/rescaled_final/1602_fw.mp4	0.0	91.42664289474487	
6	70.19952702522278	movie	1		245	4.0	2.5	/experiments/AOT/AOT_stimuli/rescaled_final/1602_fw.mp4	0.0	91.43473601341248	2.5081939697265625
6	71.79130005836487	pulse	1	t		4.0	2.5	/experiments/AOT/AOT_stimuli/rescaled_final/1602_fw.mp4	0.0	93.02650904655457	
6	72.70772099494934	fix_post	2		12	4.0	2.5	/experiments/AOT/AOT_stimuli/rescaled_final/1602_fw.mp4	0.0	93.94292998313904	0.10014200210571289
7	72.80786299705505	fix_pre	0		120	5.0	2.5	/experiments/AOT/AOT_stimuli/rescaled_final/0969_rv.mp4	0.0	94.04307198524475	0.999932050704956
7	73.39222693443298	pulse	0	t		5.0	2.5	/experiments/AOT/AOT_stimuli/rescaled_final/0969_rv.mp4	0.0	94.62743592262268	
7	73.80779504776001	movie	1		244	5.0	2.5	/experiments/AOT/AOT_stimuli/rescaled_final/0969_rv.mp4	0.0	95.0430040359497	2.5000438690185547
7	74.99144387245178	pulse	1	t		5.0	2.5	/experiments/AOT/AOT_stimuli/rescaled_final/0969_rv.mp4	0.0	96.22665286064148	
7	76.30783891677856	fix_post	2		12	5.0	2.5	/experiments/AOT/AOT_stimuli/rescaled_final/0969_rv.mp4	0.0	97.54304790496826	0.09998297691345215
8	76.40782189369202	fix_pre	0		120	6.0	2.5	/experiments/AOT/AOT_stimuli/rescaled_final/1587_rv.mp4	0.0	97.64303088188171	1.000014066696167
8	76.59128999710083	pulse	0	t		6.0	2.5	/experiments/AOT/AOT_stimuli/rescaled_final/1587_rv.mp4	0.0	97.82649898529053	
8	77.40783596038818	movie	1		244	6.0	2.5	/experiments/AOT/AOT_stimuli/rescaled_final/1587_rv.mp4	0.0	98.64304494857788	2.499917984008789
8	78.19142198562622	pulse	1	t		6.0	2.5	/experiments/AOT/AOT_stimuli/rescaled_final/1587_rv.mp4	0.0	99.42663097381592	
8	79.7913248538971	pulse	1	t		6.0	2.5	/experiments/AOT/AOT_stimuli/rescaled_final/1587_rv.mp4	0.0	101.02653384208679	
8	79.90775394439697	fix_post	2		12	6.0	2.5	/experiments/AOT/AOT_stimuli/rescaled_final/1587_rv.mp4	0.0	101.14296293258667	0.09994912147521973
9	80.00770306587219	fix_pre	0		120	7.0	2.5	blank	1.0	101.24291205406189	1.0000998973846436
9	81.00780296325684	movie	1		300	7.0	2.5	blank	1.0	102.24301195144653	2.499969005584717
9	81.39127492904663	pulse	1	t		7.0	2.5	blank	1.0	102.62648391723633	
9	82.99129295349121	pulse	1	t		7.0	2.5	blank	1.0	104.22650194168091	
9	83.50777196884155	fix_post	2		12	7.0	2.5	blank	1.0	104.74298095703125	0.09959006309509277
10	83.60736203193665	fix_pre	0		119	8.0	2.5	/experiments/AOT/AOT_stimuli/rescaled_final/1572_rv.mp4	0.0	104.84257102012634	0.9920308589935303
10	84.5912709236145	pulse	0	t		8.0	2.5	/experiments/AOT/AOT_stimuli/rescaled_final/1572_rv.mp4	0.0	105.8264799118042	
10	84.59939289093018	movie	1		244	8.0	2.5	/experiments/AOT/AOT_stimuli/rescaled_final/1572_rv.mp4	0.0	105.83460187911987	2.508385181427002
10	86.19099998474121	pulse	1	t		8.0	2.5	/experiments/AOT/AOT_stimuli/rescaled_final/1572_rv.mp4	0.0	107.42620897293091	
10	87.10777807235718	fix_post	2		12	8.0	2.5	/experiments/AOT/AOT_stimuli/rescaled_final/1572_rv.mp4	0.0	108.34298706054688	0.09996485710144043
11	87.20774292945862	fix_pre	0		120	9.0	2.5	/experiments/AOT/AOT_stimuli/rescaled_final/0619_fw.mp4	0.0	108.44295191764832	0.9999959468841553
11	87.7921769618988	pulse	0	t		9.0	2.5	/experiments/AOT/AOT_stimuli/rescaled_final/0619_fw.mp4	0.0	109.0273859500885	
11	88.20773887634277	movie	1		245	9.0	2.5	/experiments/AOT/AOT_stimuli/rescaled_final/0619_fw.mp4	0.0	109.44294786453247	2.49961519241333
11	89.39226603507996	pulse	1	t		9.0	2.5	/experiments/AOT/AOT_stimuli/rescaled_final/0619_fw.mp4	0.0	110.62747502326965	
11	90.7073540687561	fix_post	2		12	9.0	2.5	/experiments/AOT/AOT_stimuli/rescaled_final/0619_fw.mp4	0.0	111.9425630569458	0.10001897811889648
12	90.807373046875	fix_pre	0		120	10.0	2.5	/experiments/AOT/AOT_stimuli/rescaled_final/1777_fw.mp4	0.0	112.0425820350647	1.000520944595337
12	90.99174284934998	pulse	0	t		10.0	2.5	/experiments/AOT/AOT_stimuli/rescaled_final/1777_fw.mp4	0.0	112.22695183753967	
12	91.80789399147034	movie	1		244	10.0	2.5	/experiments/AOT/AOT_stimuli/rescaled_final/1777_fw.mp4	0.0	113.04310297966003	2.4998230934143066
12	92.59197998046875	pulse	1	t		10.0	2.5	/experiments/AOT/AOT_stimuli/rescaled_final/1777_fw.mp4	0.0	113.82718896865845	
12	94.19125890731812	pulse	1	t		10.0	2.5	/experiments/AOT/AOT_stimuli/rescaled_final/1777_fw.mp4	0.0	115.42646789550781	
12	94.30771708488464	fix_post	2		12	10.0	2.5	/experiments/AOT/AOT_stimuli/rescaled_final/1777_fw.mp4	0.0	115.54292607307434	0.09996485710144043
13	94.40768194198608	fix_pre	0		120	11.0	2.5	/experiments/AOT/AOT_stimuli/rescaled_final/1030_fw.mp4	0.0	115.64289093017578	1.0000131130218506
13	95.40769505500793	movie	1		243	11.0	2.5	/experiments/AOT/AOT_stimuli/rescaled_final/1030_fw.mp4	0.0	116.64290404319763	2.4995620250701904
13	95.79957985877991	pulse	1	t		11.0	2.5	/experiments/AOT/AOT_stimuli/rescaled_final/1030_fw.mp4	0.0	117.0347888469696	
13	97.39113903045654	pulse	1	t		11.0	2.5	/experiments/AOT/AOT_stimuli/rescaled_final/1030_fw.mp4	0.0	118.62634801864624	
13	97.90725708007812	fix_post	2		12	11.0	2.5	/experiments/AOT/AOT_stimuli/rescaled_final/1030_fw.mp4	0.0	119.14246606826782	0.1003718376159668
14	98.00762891769409	fix_pre	0		119	12.0	2.5	/experiments/AOT/AOT_stimuli/rescaled_final/0369_fw.mp4	0.0	119.24283790588379	0.9917171001434326
14	98.99113607406616	pulse	0	t		12.0	2.5	/experiments/AOT/AOT_stimuli/rescaled_final/0369_fw.mp4	0.0	120.22634506225586	
14	98.99934601783752	movie	1		245	12.0	2.5	/experiments/AOT/AOT_stimuli/rescaled_final/0369_fw.mp4	0.0	120.23455500602722	2.5083320140838623
14	100.59127998352051	pulse	1	t		12.0	2.5	/experiments/AOT/AOT_stimuli/rescaled_final/0369_fw.mp4	0.0	121.8264889717102	
14	101.50767803192139	fix_post	2		12	12.0	2.5	/experiments/AOT/AOT_stimuli/rescaled_final/0369_fw.mp4	0.0	122.74288702011108	0.10003805160522461
15	101.60771608352661	fix_pre	0		120	13.0	2.5	blank	1.0	122.84292507171631	0.9999468326568604
15	102.19110989570618	pulse	0	t		13.0	2.5	blank	1.0	123.42631888389587	
15	102.60766291618347	movie	1		300	13.0	2.5	blank	1.0	123.84287190437317	2.499994993209839
15	103.79116201400757	pulse	1	t		13.0	2.5	blank	1.0	125.02637100219727	
15	105.10765790939331	fix_post	2		12	13.0	2.5	blank	1.0	126.34286689758301	0.09956598281860352
16	105.20722389221191	fix_pre	0		120	14.0	2.5	/experiments/AOT/AOT_stimuli/rescaled_final/0641_fw.mp4	0.0	126.44243288040161	1.0004470348358154
16	105.39210891723633	pulse	0	t		14.0	2.5	/experiments/AOT/AOT_stimuli/rescaled_final/0641_fw.mp4	0.0	126.62731790542603	
16	106.20767092704773	movie	1		246	14.0	2.5	/experiments/AOT/AOT_stimuli/rescaled_final/0641_fw.mp4	0.0	127.44287991523743	2.4995040893554688
16	106.99203395843506	pulse	1	t		14.0	2.5	/experiments/AOT/AOT_stimuli/rescaled_final/0641_fw.mp4	0.0	128.22724294662476	
16	108.59944701194763	pulse	1	t		14.0	2.5	/experiments/AOT/AOT_stimuli/rescaled_final/0641_fw.mp4	0.0	129.83465600013733	
16	108.7071750164032	fix_post	2		12	14.0	2.5	/experiments/AOT/AOT_stimuli/rescaled_final/0641_fw.mp4	0.0	129.9423840045929	0.10046005249023438
17	108.80763506889343	fix_pre	0		120	15.0	2.5	/experiments/AOT/AOT_stimuli/rescaled_final/0539_fw.mp4	0.0	130.04284405708313	0.9995648860931396
17	109.80719995498657	movie	1		245	15.0	2.5	/experiments/AOT/AOT_stimuli/rescaled_final/0539_fw.mp4	0.0	131.04240894317627	2.500375986099243
17	110.19954204559326	pulse	1	t		15.0	2.5	/experiments/AOT/AOT_stimuli/rescaled_final/0539_fw.mp4	0.0	131.43475103378296	
17	111.79108905792236	pulse	1	t		15.0	2.5	/experiments/AOT/AOT_stimuli/rescaled_final/0539_fw.mp4	0.0	133.02629804611206	
17	112.30757594108582	fix_post	2		12	15.0	2.5	/experiments/AOT/AOT_stimuli/rescaled_final/0539_fw.mp4	0.0	133.5427849292755	0.10001397132873535
18	112.40758991241455	fix_pre	0		119	16.0	2.5	/experiments/AOT/AOT_stimuli/rescaled_final/1602_fw.mp4	0.0	133.64279890060425	0.9916281700134277
18	113.39111185073853	pulse	0	t		16.0	2.5	/experiments/AOT/AOT_stimuli/rescaled_final/1602_fw.mp4	0.0	134.62632083892822	
18	113.39921808242798	movie	1		244	16.0	2.5	/experiments/AOT/AOT_stimuli/rescaled_final/1602_fw.mp4	0.0	134.63442707061768	2.5083467960357666
18	114.99115991592407	pulse	1	t		16.0	2.5	/experiments/AOT/AOT_stimuli/rescaled_final/1602_fw.mp4	0.0	136.22636890411377	
18	115.90756487846375	fix_post	2		12	16.0	2.5	/experiments/AOT/AOT_stimuli/rescaled_final/1602_fw.mp4	0.0	137.14277386665344	0.09998011589050293
19	116.00754499435425	fix_pre	0		120	17.0	2.5	/experiments/AOT/AOT_stimuli/rescaled_final/0261_rv.mp4	0.0	137.24275398254395	1.0000519752502441
19	116.59107303619385	pulse	0	t		17.0	2.5	/experiments/AOT/AOT_stimuli/rescaled_final/0261_rv.mp4	0.0	137.82628202438354	
19	117.00759696960449	movie	1		245	17.0	2.5	/experiments/AOT/AOT_stimuli/rescaled_final/0261_rv.mp4	0.0	138.2428059577942	2.5000460147857666
19	118.19112586975098	pulse	1	t		17.0	2.5	/experiments/AOT/AOT_stimuli/rescaled_final/0261_rv.mp4	0.0	139.42633485794067	
19	119.50764298439026	fix_post	2		12	17.0	2.5	/experiments/AOT/AOT_stimuli/rescaled_final/0261_rv.mp4	0.0	140.74285197257996	0.09990596771240234
20	119.60754895210266	fix_pre	0		120	18.0	2.5	/experiments/AOT/AOT_stimuli/rescaled_final/2059_rv.mp4	0.0	140.84275794029236	0.9999840259552002
20	119.7911479473114	pulse	0	t		18.0	2.5	/experiments/AOT/AOT_stimuli/rescaled_final/2059_rv.mp4	0.0	141.0263569355011	
20	120.60753297805786	movie	1		245	18.0	2.5	/experiments/AOT/AOT_stimuli/rescaled_final/2059_rv.mp4	0.0	141.84274196624756	2.4995970726013184
20	121.39201498031616	pulse	1	t		18.0	2.5	/experiments/AOT/AOT_stimuli/rescaled_final/2059_rv.mp4	0.0	142.62722396850586	
20	122.99591398239136	pulse	1	t		18.0	2.5	/experiments/AOT/AOT_stimuli/rescaled_final/2059_rv.mp4	0.0	144.23112297058105	
20	123.10713005065918	fix_post	2		12	18.0	2.5	/experiments/AOT/AOT_stimuli/rescaled_final/2059_rv.mp4	0.0	144.34233903884888	0.10041189193725586
21	123.20754194259644	fix_pre	0		120	19.0	2.5	/experiments/AOT/AOT_stimuli/rescaled_final/0369_rv.mp4	0.0	144.44275093078613	1.0001249313354492
21	124.20766687393188	movie	1		245	19.0	2.5	/experiments/AOT/AOT_stimuli/rescaled_final/0369_rv.mp4	0.0	145.44287586212158	2.499866008758545
21	124.59200286865234	pulse	1	t		19.0	2.5	/experiments/AOT/AOT_stimuli/rescaled_final/0369_rv.mp4	0.0	145.82721185684204	
21	126.1910948753357	pulse	1	t		19.0	2.5	/experiments/AOT/AOT_stimuli/rescaled_final/0369_rv.mp4	0.0	147.4263038635254	
21	126.70753288269043	fix_post	2		12	19.0	2.5	/experiments/AOT/AOT_stimuli/rescaled_final/0369_rv.mp4	0.0	147.94274187088013	0.10005807876586914
22	126.8075909614563	fix_pre	0		120	20.0	2.5	/experiments/AOT/AOT_stimuli/rescaled_final/1117_fw.mp4	0.0	148.042799949646	0.9998939037322998
22	127.79182887077332	pulse	0	t		20.0	2.5	/experiments/AOT/AOT_stimuli/rescaled_final/1117_fw.mp4	0.0	149.027037858963	
22	127.8074848651886	movie	1		246	20.0	2.5	/experiments/AOT/AOT_stimuli/rescaled_final/1117_fw.mp4	0.0	149.0426938533783	2.5084171295166016
22	129.3910529613495	pulse	1	t		20.0	2.5	/experiments/AOT/AOT_stimuli/rescaled_final/1117_fw.mp4	0.0	150.62626194953918	
22	130.3159019947052	fix_post	2		12	20.0	2.5	/experiments/AOT/AOT_stimuli/rescaled_final/1117_fw.mp4	0.0	151.5511109828949	0.09992408752441406
23	130.41582608222961	fix_pre	0		120	21.0	2.5	blank	1.0	151.6510350704193	0.99997878074646
23	130.99098896980286	pulse	0	t		21.0	2.5	blank	1.0	152.22619795799255	
23	131.41580486297607	movie	1		300	21.0	2.5	blank	1.0	152.65101385116577	2.500084161758423
23	132.59096598625183	pulse	1	t		21.0	2.5	blank	1.0	153.82617497444153	
23	133.9158890247345	fix_post	2		12	21.0	2.5	blank	1.0	155.1510980129242	0.10001492500305176
24	134.01590394973755	fix_pre	0		120	22.0	2.5	/experiments/AOT/AOT_stimuli/rescaled_final/0382_rv.mp4	0.0	155.25111293792725	0.9995009899139404
24	134.1909830570221	pulse	0	t		22.0	2.5	/experiments/AOT/AOT_stimuli/rescaled_final/0382_rv.mp4	0.0	155.4261920452118	
24	135.0154049396515	movie	1		245	22.0	2.5	/experiments/AOT/AOT_stimuli/rescaled_final/0382_rv.mp4	0.0	156.2506139278412	2.500404119491577
24	135.79097390174866	pulse	1	t		22.0	2.5	/experiments/AOT/AOT_stimuli/rescaled_final/0382_rv.mp4	0.0	157.02618288993835	
24	137.39780807495117	pulse	1	t		22.0	2.5	/experiments/AOT/AOT_stimuli/rescaled_final/0382_rv.mp4	0.0	158.63301706314087	
24	137.51580905914307	fix_post	2		12	22.0	2.5	/experiments/AOT/AOT_stimuli/rescaled_final/0382_rv.mp4	0.0	158.75101804733276	0.09958481788635254
25	137.61539387702942	fix_pre	0		120	23.0	2.5	/experiments/AOT/AOT_stimuli/rescaled_final/0512_fw.mp4	0.0	158.85060286521912	1.0004651546478271
25	138.61585903167725	movie	1		244	23.0	2.5	/experiments/AOT/AOT_stimuli/rescaled_final/0512_fw.mp4	0.0	159.85106801986694	2.4999489784240723
25	138.99897599220276	pulse	1	t		23.0	2.5	/experiments/AOT/AOT_stimuli/rescaled_final/0512_fw.mp4	0.0	160.23418498039246	
25	140.59182691574097	pulse	1	t		23.0	2.5	/experiments/AOT/AOT_stimuli/rescaled_final/0512_fw.mp4	0.0	161.82703590393066	
25	141.11580801010132	fix_post	2		12	23.0	2.5	/experiments/AOT/AOT_stimuli/rescaled_final/0512_fw.mp4	0.0	162.35101699829102	0.10007905960083008
26	141.21588706970215	fix_pre	0		119	24.0	2.5	/experiments/AOT/AOT_stimuli/rescaled_final/0002_fw.mp4	0.0	162.45109605789185	0.9916048049926758
26	142.1918749809265	pulse	0	t		24.0	2.5	/experiments/AOT/AOT_stimuli/rescaled_final/0002_fw.mp4	0.0	163.4270839691162	
26	142.20749187469482	movie	1		244	24.0	2.5	/experiments/AOT/AOT_stimuli/rescaled_final/0002_fw.mp4	0.0	163.44270086288452	2.5079851150512695
26	143.79879307746887	pulse	1	t		24.0	2.5	/experiments/AOT/AOT_stimuli/rescaled_final/0002_fw.mp4	0.0	165.03400206565857	
26	144.7154769897461	fix_post	2		12	24.0	2.5	/experiments/AOT/AOT_stimuli/rescaled_final/0002_fw.mp4	0.0	165.9506859779358	0.10033702850341797
27	144.8158140182495	fix_pre	0		120	25.0	2.5	/experiments/AOT/AOT_stimuli/rescaled_final/1358_fw.mp4	0.0	166.0510230064392	1.000006914138794
27	145.39185500144958	pulse	0	t		25.0	2.5	/experiments/AOT/AOT_stimuli/rescaled_final/1358_fw.mp4	0.0	166.62706398963928	
27	145.8158209323883	movie	1		243	25.0	2.5	/experiments/AOT/AOT_stimuli/rescaled_final/1358_fw.mp4	0.0	167.051029920578	2.4999449253082275
27	146.99169206619263	pulse	1	t		25.0	2.5	/experiments/AOT/AOT_stimuli/rescaled_final/1358_fw.mp4	0.0	168.22690105438232	
27	148.31576585769653	fix_post	2		12	25.0	2.5	/experiments/AOT/AOT_stimuli/rescaled_final/1358_fw.mp4	0.0	169.55097484588623	0.10027503967285156
28	148.41604089736938	fix_pre	0		120	26.0	2.5	/experiments/AOT/AOT_stimuli/rescaled_final/0663_fw.mp4	0.0	169.65124988555908	0.9997210502624512
28	148.5912299156189	pulse	0	t		26.0	2.5	/experiments/AOT/AOT_stimuli/rescaled_final/0663_fw.mp4	0.0	169.8264389038086	
28	149.41576194763184	movie	1		243	26.0	2.5	/experiments/AOT/AOT_stimuli/rescaled_final/0663_fw.mp4	0.0	170.65097093582153	2.4995930194854736
28	150.19091200828552	pulse	1	t		26.0	2.5	/experiments/AOT/AOT_stimuli/rescaled_final/0663_fw.mp4	0.0	171.42612099647522	
28	151.79087591171265	pulse	1	t		26.0	2.5	/experiments/AOT/AOT_stimuli/rescaled_final/0663_fw.mp4	0.0	173.02608489990234	
28	151.9153549671173	fix_post	2		12	26.0	2.5	/experiments/AOT/AOT_stimuli/rescaled_final/0663_fw.mp4	0.0	173.150563955307	0.10041189193725586
29	152.01576685905457	fix_pre	0		120	27.0	2.5	/experiments/AOT/AOT_stimuli/rescaled_final/1314_fw.mp4	0.0	173.25097584724426	1.0000271797180176
29	153.01579403877258	movie	1		244	27.0	2.5	/experiments/AOT/AOT_stimuli/rescaled_final/1314_fw.mp4	0.0	174.25100302696228	2.499509811401367
29	153.39876294136047	pulse	1	t		27.0	2.5	/experiments/AOT/AOT_stimuli/rescaled_final/1314_fw.mp4	0.0	174.63397192955017	
29	154.99191188812256	pulse	1	t		27.0	2.5	/experiments/AOT/AOT_stimuli/rescaled_final/1314_fw.mp4	0.0	176.22712087631226	
29	155.51530385017395	fix_post	2		12	27.0	2.5	/experiments/AOT/AOT_stimuli/rescaled_final/1314_fw.mp4	0.0	176.75051283836365	0.10045313835144043
30	155.6157569885254	fix_pre	0		119	28.0	2.5	blank	1.0	176.8509659767151	0.9915890693664551
30	156.59164595603943	pulse	0	t		28.0	2.5	blank	1.0	177.82685494422913	
30	156.60734605789185	movie	1		301	28.0	2.5	blank	1.0	177.84255504608154	2.5083069801330566
30	158.1916868686676	pulse	1	t		28.0	2.5	blank	1.0	179.4268958568573	
30	159.1156530380249	fix_post	2		12	28.0	2.5	blank	1.0	180.3508620262146	0.10002303123474121
31	159.21567606925964	fix_pre	0		120	29.0	2.5	/experiments/AOT/AOT_stimuli/rescaled_final/0855_rv.mp4	0.0	180.45088505744934	1.0000698566436768
31	159.79166507720947	pulse	0	t		29.0	2.5	/experiments/AOT/AOT_stimuli/rescaled_final/0855_rv.mp4	0.0	181.02687406539917	
31	160.21574592590332	movie	1		245	29.0	2.5	/experiments/AOT/AOT_stimuli/rescaled_final/0855_rv.mp4	0.0	181.45095491409302	2.499511957168579
31	161.39938402175903	pulse	1	t		29.0	2.5	/experiments/AOT/AOT_stimuli/rescaled_final/0855_rv.mp4	0.0	182.63459300994873	
31	162.7152578830719	fix_post	2		12	29.0	2.5	/experiments/AOT/AOT_stimuli/rescaled_final/0855_rv.mp4	0.0	183.9504668712616	0.10036802291870117
32	162.8156259059906	fix_pre	0		120	30.0	2.5	/experiments/AOT/AOT_stimuli/rescaled_final/0759_fw.mp4	0.0	184.0508348941803	1.0001020431518555
32	162.9917938709259	pulse	0	t		30.0	2.5	/experiments/AOT/AOT_stimuli/rescaled_final/0759_fw.mp4	0.0	184.2270028591156	
32	163.81572794914246	movie	1		245	30.0	2.5	/experiments/AOT/AOT_stimuli/rescaled_final/0759_fw.mp4	0.0	185.05093693733215	2.4999420642852783
32	164.590961933136	pulse	1	t		30.0	2.5	/experiments/AOT/AOT_stimuli/rescaled_final/0759_fw.mp4	0.0	185.82617092132568	
32	166.1907889842987	pulse	1	t		30.0	2.5	/experiments/AOT/AOT_stimuli/rescaled_final/0759_fw.mp4	0.0	187.4259979724884	
32	166.31567001342773	fix_post	2		12	30.0	2.5	/experiments/AOT/AOT_stimuli/rescaled_final/0759_fw.mp4	0.0	187.55087900161743	0.09995889663696289
33	166.4156289100647	fix_pre	0		120	31.0	2.5	/experiments/AOT/AOT_stimuli/rescaled_final/1446_fw.mp4	0.0	187.6508378982544	1.0000171661376953
33	167.4156460762024	movie	1		243	31.0	2.5	/experiments/AOT/AOT_stimuli/rescaled_final/1446_fw.mp4	0.0	188.6508550643921	2.4995977878570557
33	167.79082798957825	pulse	1	t		31.0	2.5	/experiments/AOT/AOT_stimuli/rescaled_final/1446_fw.mp4	0.0	189.02603697776794	
33	169.3918058872223	pulse	1	t		31.0	2.5	/experiments/AOT/AOT_stimuli/rescaled_final/1446_fw.mp4	0.0	190.627014875412	
33	169.91524386405945	fix_post	2		12	31.0	2.5	/experiments/AOT/AOT_stimuli/rescaled_final/1446_fw.mp4	0.0	191.15045285224915	0.09998703002929688
34	170.01523089408875	fix_pre	0		119	32.0	2.5	/experiments/AOT/AOT_stimuli/rescaled_final/1403_fw.mp4	0.0	191.25043988227844	0.9920799732208252
34	170.99164199829102	pulse	0	t		32.0	2.5	/experiments/AOT/AOT_stimuli/rescaled_final/1403_fw.mp4	0.0	192.2268509864807	
34	171.00731086730957	movie	1		247	32.0	2.5	/experiments/AOT/AOT_stimuli/rescaled_final/1403_fw.mp4	0.0	192.24251985549927	2.507899045944214
34	172.59886503219604	pulse	1	t		32.0	2.5	/experiments/AOT/AOT_stimuli/rescaled_final/1403_fw.mp4	0.0	193.83407402038574	
34	173.51520991325378	fix_post	2		12	32.0	2.5	/experiments/AOT/AOT_stimuli/rescaled_final/1403_fw.mp4	0.0	194.75041890144348	0.10036516189575195
35	173.61557507514954	fix_pre	0		120	33.0	2.5	blank	1.0	194.85078406333923	1.000091791152954
35	174.19161200523376	pulse	0	t		33.0	2.5	blank	1.0	195.42682099342346	
35	174.6156668663025	movie	1		300	33.0	2.5	blank	1.0	195.8508758544922	2.500059127807617
35	175.7915699481964	pulse	1	t		33.0	2.5	blank	1.0	197.0267789363861	
35	177.1157259941101	fix_post	2		12	33.0	2.5	blank	1.0	198.3509349822998	0.09985685348510742
36	177.21558284759521	fix_pre	0		120	34.0	2.5	/experiments/AOT/AOT_stimuli/rescaled_final/2029_fw.mp4	0.0	198.4507918357849	1.0000360012054443
36	177.3915729522705	pulse	0	t		34.0	2.5	/experiments/AOT/AOT_stimuli/rescaled_final/2029_fw.mp4	0.0	198.6267819404602	
36	178.21561884880066	movie	1		243	34.0	2.5	/experiments/AOT/AOT_stimuli/rescaled_final/2029_fw.mp4	0.0	199.45082783699036	2.50006103515625
36	178.99164485931396	pulse	1	t		34.0	2.5	/experiments/AOT/AOT_stimuli/rescaled_final/2029_fw.mp4	0.0	200.22685384750366	
36	180.59087896347046	pulse	1	t		34.0	2.5	/experiments/AOT/AOT_stimuli/rescaled_final/2029_fw.mp4	0.0	201.82608795166016	
36	180.7156798839569	fix_post	2		12	34.0	2.5	/experiments/AOT/AOT_stimuli/rescaled_final/2029_fw.mp4	0.0	201.9508888721466	0.09990310668945312
37	180.81558299064636	fix_pre	0		120	35.0	2.5	/experiments/AOT/AOT_stimuli/rescaled_final/0271_fw.mp4	0.0	202.05079197883606	1.0000770092010498
37	181.8156599998474	movie	1		245	35.0	2.5	/experiments/AOT/AOT_stimuli/rescaled_final/0271_fw.mp4	0.0	203.0508689880371	2.499898910522461
37	182.19078493118286	pulse	1	t		35.0	2.5	/experiments/AOT/AOT_stimuli/rescaled_final/0271_fw.mp4	0.0	203.42599391937256	
37	183.79084992408752	pulse	1	t		35.0	2.5	/experiments/AOT/AOT_stimuli/rescaled_final/0271_fw.mp4	0.0	205.02605891227722	
37	184.31555891036987	fix_post	2		12	35.0	2.5	/experiments/AOT/AOT_stimuli/rescaled_final/0271_fw.mp4	0.0	205.55076789855957	0.10007810592651367
38	184.4156370162964	fix_pre	0		119	36.0	2.5	/experiments/AOT/AOT_stimuli/rescaled_final/1278_rv.mp4	0.0	205.65084600448608	0.9916470050811768
38	185.39159893989563	pulse	0	t		36.0	2.5	/experiments/AOT/AOT_stimuli/rescaled_final/1278_rv.mp4	0.0	206.62680792808533	
38	185.40728402137756	movie	1		246	36.0	2.5	/experiments/AOT/AOT_stimuli/rescaled_final/1278_rv.mp4	0.0	206.64249300956726	2.508328914642334
38	186.99906086921692	pulse	1	t		36.0	2.5	/experiments/AOT/AOT_stimuli/rescaled_final/1278_rv.mp4	0.0	208.23426985740662	
38	187.9156129360199	fix_post	2		12	36.0	2.5	/experiments/AOT/AOT_stimuli/rescaled_final/1278_rv.mp4	0.0	209.1508219242096	0.10000014305114746
39	188.01561307907104	fix_pre	0		120	37.0	2.5	/experiments/AOT/AOT_stimuli/rescaled_final/1358_rv.mp4	0.0	209.25082206726074	1.0000438690185547
39	188.5915629863739	pulse	0	t		37.0	2.5	/experiments/AOT/AOT_stimuli/rescaled_final/1358_rv.mp4	0.0	209.8267719745636	
39	189.0156569480896	movie	1		243	37.0	2.5	/experiments/AOT/AOT_stimuli/rescaled_final/1358_rv.mp4	0.0	210.2508659362793	2.5000109672546387
39	190.19194793701172	pulse	1	t		37.0	2.5	/experiments/AOT/AOT_stimuli/rescaled_final/1358_rv.mp4	0.0	211.42715692520142	
39	191.51566791534424	fix_post	2		12	37.0	2.5	/experiments/AOT/AOT_stimuli/rescaled_final/1358_rv.mp4	0.0	212.75087690353394	0.0994710922241211
40	191.61513900756836	fix_pre	0		120	38.0	2.5	/experiments/AOT/AOT_stimuli/rescaled_final/0234_fw.mp4	0.0	212.85034799575806	1.0004968643188477
40	191.7914559841156	pulse	0	t		38.0	2.5	/experiments/AOT/AOT_stimuli/rescaled_final/0234_fw.mp4	0.0	213.0266649723053	
40	192.6156358718872	movie	1		244	38.0	2.5	/experiments/AOT/AOT_stimuli/rescaled_final/0234_fw.mp4	0.0	213.8508448600769	2.499861001968384
40	193.39163899421692	pulse	1	t		38.0	2.5	/experiments/AOT/AOT_stimuli/rescaled_final/0234_fw.mp4	0.0	214.62684798240662	
40	194.9974720478058	pulse	1	t		38.0	2.5	/experiments/AOT/AOT_stimuli/rescaled_final/0234_fw.mp4	0.0	216.23268103599548	
40	195.1154968738556	fix_post	2		12	38.0	2.5	/experiments/AOT/AOT_stimuli/rescaled_final/0234_fw.mp4	0.0	216.3507058620453	0.10000801086425781
41	195.21550488471985	fix_pre	0		120	39.0	2.5	/experiments/AOT/AOT_stimuli/rescaled_final/1777_rv.mp4	0.0	216.45071387290955	1.0000190734863281
41	196.21552395820618	movie	1		244	39.0	2.5	/experiments/AOT/AOT_stimuli/rescaled_final/1777_rv.mp4	0.0	217.45073294639587	2.4995739459991455
41	196.59858393669128	pulse	1	t		39.0	2.5	/experiments/AOT/AOT_stimuli/rescaled_final/1777_rv.mp4	0.0	217.83379292488098	
41	198.19082498550415	pulse	1	t		39.0	2.5	/experiments/AOT/AOT_stimuli/rescaled_final/1777_rv.mp4	0.0	219.42603397369385	
41	198.71509790420532	fix_post	2		12	39.0	2.5	/experiments/AOT/AOT_stimuli/rescaled_final/1777_rv.mp4	0.0	219.95030689239502	0.10046100616455078
42	198.81555891036987	fix_pre	0		119	40.0	2.5	blank	1.0	220.05076789855957	0.9916360378265381
42	199.79157090187073	pulse	0	t		40.0	2.5	blank	1.0	221.02677989006042	
42	199.8071949481964	movie	1		301	40.0	2.5	blank	1.0	221.0424039363861	2.5079050064086914
42	201.39152789115906	pulse	1	t		40.0	2.5	blank	1.0	222.62673687934875	
42	202.3150999546051	fix_post	2		12	40.0	2.5	blank	1.0	223.5503089427948	0.10004401206970215
43	202.4151439666748	fix_pre	0		120	41.0	2.5	/experiments/AOT/AOT_stimuli/rescaled_final/2156_fw.mp4	0.0	223.6503529548645	1.0001490116119385
43	202.99869799613953	pulse	0	t		41.0	2.5	/experiments/AOT/AOT_stimuli/rescaled_final/2156_fw.mp4	0.0	224.23390698432922	
43	203.41529297828674	movie	1		244	41.0	2.5	/experiments/AOT/AOT_stimuli/rescaled_final/2156_fw.mp4	0.0	224.65050196647644	2.5001869201660156
43	204.598965883255	pulse	1	t		41.0	2.5	/experiments/AOT/AOT_stimuli/rescaled_final/2156_fw.mp4	0.0	225.8341748714447	
43	205.91547989845276	fix_post	2		12	41.0	2.5	/experiments/AOT/AOT_stimuli/rescaled_final/2156_fw.mp4	0.0	227.15068888664246	0.10014510154724121
44	206.015625	fix_pre	0		120	42.0	2.5	/experiments/AOT/AOT_stimuli/rescaled_final/1097_fw.mp4	0.0	227.2508339881897	0.9999010562896729
44	206.19157695770264	pulse	0	t		42.0	2.5	/experiments/AOT/AOT_stimuli/rescaled_final/1097_fw.mp4	0.0	227.42678594589233	
44	207.01552605628967	movie	1		245	42.0	2.5	/experiments/AOT/AOT_stimuli/rescaled_final/1097_fw.mp4	0.0	228.25073504447937	2.499552011489868
44	207.7914650440216	pulse	1	t		42.0	2.5	/experiments/AOT/AOT_stimuli/rescaled_final/1097_fw.mp4	0.0	229.0266740322113	
44	209.39752101898193	pulse	1	t		42.0	2.5	/experiments/AOT/AOT_stimuli/rescaled_final/1097_fw.mp4	0.0	230.63273000717163	
44	209.51507806777954	fix_post	2		12	42.0	2.5	/experiments/AOT/AOT_stimuli/rescaled_final/1097_fw.mp4	0.0	230.75028705596924	0.10045480728149414
45	209.61553287506104	fix_pre	0		120	43.0	2.5	/experiments/AOT/AOT_stimuli/rescaled_final/1029_fw.mp4	0.0	230.85074186325073	0.9999010562896729
45	210.6154339313507	movie	1		242	43.0	2.5	/experiments/AOT/AOT_stimuli/rescaled_final/1029_fw.mp4	0.0	231.8506429195404	2.499983072280884
45	210.99828505516052	pulse	1	t		43.0	2.5	/experiments/AOT/AOT_stimuli/rescaled_final/1029_fw.mp4	0.0	232.23349404335022	
45	212.5915379524231	pulse	1	t		43.0	2.5	/experiments/AOT/AOT_stimuli/rescaled_final/1029_fw.mp4	0.0	233.8267469406128	
45	213.1154170036316	fix_post	2		12	43.0	2.5	/experiments/AOT/AOT_stimuli/rescaled_final/1029_fw.mp4	0.0	234.3506259918213	0.10009503364562988
46	213.21551203727722	fix_pre	0		119	44.0	2.5	/experiments/AOT/AOT_stimuli/rescaled_final/1482_fw.mp4	0.0	234.45072102546692	0.9915649890899658
46	214.19143795967102	pulse	0	t		44.0	2.5	/experiments/AOT/AOT_stimuli/rescaled_final/1482_fw.mp4	0.0	235.42664694786072	
46	214.2070770263672	movie	1		246	44.0	2.5	/experiments/AOT/AOT_stimuli/rescaled_final/1482_fw.mp4	0.0	235.44228601455688	2.5084660053253174
46	215.79849696159363	pulse	1	t		44.0	2.5	/experiments/AOT/AOT_stimuli/rescaled_final/1482_fw.mp4	0.0	237.03370594978333	
46	216.7155430316925	fix_post	2		12	44.0	2.5	/experiments/AOT/AOT_stimuli/rescaled_final/1482_fw.mp4	0.0	237.9507520198822	0.0999460220336914
47	216.8154890537262	fix_pre	0		120	45.0	2.5	/experiments/AOT/AOT_stimuli/rescaled_final/1000_rv.mp4	0.0	238.0506980419159	0.9995479583740234
47	217.3988950252533	pulse	0	t		45.0	2.5	/experiments/AOT/AOT_stimuli/rescaled_final/1000_rv.mp4	0.0	238.634104013443	
47	217.81503701210022	movie	1		244	45.0	2.5	/experiments/AOT/AOT_stimuli/rescaled_final/1000_rv.mp4	0.0	239.05024600028992	2.5004310607910156
47	218.9990119934082	pulse	1	t		45.0	2.5	/experiments/AOT/AOT_stimuli/rescaled_final/1000_rv.mp4	0.0	240.2342209815979	
47	220.31546807289124	fix_post	2		12	45.0	2.5	/experiments/AOT/AOT_stimuli/rescaled_final/1000_rv.mp4	0.0	241.55067706108093	0.09997200965881348
48	220.41544008255005	fix_pre	0		120	46.0	2.5	/experiments/AOT/AOT_stimuli/rescaled_final/1661_rv.mp4	0.0	241.65064907073975	0.9995968341827393
48	220.59141397476196	pulse	0	t		46.0	2.5	/experiments/AOT/AOT_stimuli/rescaled_final/1661_rv.mp4	0.0	241.82662296295166	
48	221.4150369167328	movie	1		246	46.0	2.5	/experiments/AOT/AOT_stimuli/rescaled_final/1661_rv.mp4	0.0	242.65024590492249	2.4998841285705566
48	222.19149494171143	pulse	1	t		46.0	2.5	/experiments/AOT/AOT_stimuli/rescaled_final/1661_rv.mp4	0.0	243.42670392990112	
48	223.79745888710022	pulse	1	t		46.0	2.5	/experiments/AOT/AOT_stimuli/rescaled_final/1661_rv.mp4	0.0	245.03266787528992	
48	223.91492104530334	fix_post	2		12	46.0	2.5	/experiments/AOT/AOT_stimuli/rescaled_final/1661_rv.mp4	0.0	245.15013003349304	0.10008883476257324
49	224.01500988006592	fix_pre	0		120	47.0	2.5	blank	1.0	245.25021886825562	1.0003790855407715
49	225.0153889656067	movie	1		300	47.0	2.5	blank	1.0	246.2505979537964	2.499967098236084
49	225.39141297340393	pulse	1	t		47.0	2.5	blank	1.0	246.62662196159363	
49	226.99142694473267	pulse	1	t		47.0	2.5	blank	1.0	248.22663593292236	
49	227.51535606384277	fix_post	2		12	47.0	2.5	blank	1.0	248.75056505203247	0.10006880760192871
50	227.6154248714447	fix_pre	0		119	48.0	2.5	/experiments/AOT/AOT_stimuli/rescaled_final/1452_fw.mp4	0.0	248.8506338596344	0.9916071891784668
50	228.59127688407898	pulse	0	t		48.0	2.5	/experiments/AOT/AOT_stimuli/rescaled_final/1452_fw.mp4	0.0	249.82648587226868	
50	228.60703206062317	movie	1		244	48.0	2.5	/experiments/AOT/AOT_stimuli/rescaled_final/1452_fw.mp4	0.0	249.84224104881287	2.5079309940338135
50	230.1984748840332	pulse	1	t		48.0	2.5	/experiments/AOT/AOT_stimuli/rescaled_final/1452_fw.mp4	0.0	251.4336838722229	
50	231.11496305465698	fix_post	2		12	48.0	2.5	/experiments/AOT/AOT_stimuli/rescaled_final/1452_fw.mp4	0.0	252.35017204284668	0.10034489631652832
51	231.2153079509735	fix_pre	0		120	49.0	2.5	/experiments/AOT/AOT_stimuli/rescaled_final/1729_fw.mp4	0.0	252.4505169391632	1.000096082687378
51	231.79129791259766	pulse	0	t		49.0	2.5	/experiments/AOT/AOT_stimuli/rescaled_final/1729_fw.mp4	0.0	253.02650690078735	
51	232.2154040336609	movie	1		244	49.0	2.5	/experiments/AOT/AOT_stimuli/rescaled_final/1729_fw.mp4	0.0	253.4506130218506	2.499894857406616
51	233.39899396896362	pulse	1	t		49.0	2.5	/experiments/AOT/AOT_stimuli/rescaled_final/1729_fw.mp4	0.0	254.63420295715332	
51	234.7152988910675	fix_post	2		12	49.0	2.5	/experiments/AOT/AOT_stimuli/rescaled_final/1729_fw.mp4	0.0	255.9505078792572	0.09965205192565918
52	234.81495094299316	fix_pre	0		120	50.0	2.5	/experiments/AOT/AOT_stimuli/rescaled_final/1723_rv.mp4	0.0	256.05015993118286	1.0004191398620605
52	234.99892497062683	pulse	0	t		50.0	2.5	/experiments/AOT/AOT_stimuli/rescaled_final/1723_rv.mp4	0.0	256.2341339588165	
52	235.81537008285522	movie	1		244	50.0	2.5	/experiments/AOT/AOT_stimuli/rescaled_final/1723_rv.mp4	0.0	257.0505790710449	2.499553918838501
52	236.59888291358948	pulse	1	t		50.0	2.5	/experiments/AOT/AOT_stimuli/rescaled_final/1723_rv.mp4	0.0	257.8340919017792	
52	238.1973168849945	pulse	1	t		50.0	2.5	/experiments/AOT/AOT_stimuli/rescaled_final/1723_rv.mp4	0.0	259.4325258731842	
52	238.31492400169373	fix_post	2		12	50.0	2.5	/experiments/AOT/AOT_stimuli/rescaled_final/1723_rv.mp4	0.0	259.5501329898834	0.10039401054382324
53	238.41531801223755	fix_pre	0		120	51.0	2.5	/experiments/AOT/AOT_stimuli/rescaled_final/1661_fw.mp4	0.0	259.65052700042725	0.9995739459991455
53	239.4148919582367	movie	1		246	51.0	2.5	/experiments/AOT/AOT_stimuli/rescaled_final/1661_fw.mp4	0.0	260.6501009464264	2.5003910064697266
53	239.79847502708435	pulse	1	t		51.0	2.5	/experiments/AOT/AOT_stimuli/rescaled_final/1661_fw.mp4	0.0	261.03368401527405	
53	241.39135885238647	pulse	1	t		51.0	2.5	/experiments/AOT/AOT_stimuli/rescaled_final/1661_fw.mp4	0.0	262.6265678405762	
53	241.91528296470642	fix_post	2		12	51.0	2.5	/experiments/AOT/AOT_stimuli/rescaled_final/1661_fw.mp4	0.0	263.1504919528961	0.10001492500305176
54	242.01529788970947	fix_pre	0		119	52.0	2.5	/experiments/AOT/AOT_stimuli/rescaled_final/1704_rv.mp4	0.0	263.25050687789917	0.9916591644287109
54	242.99136686325073	pulse	0	t		52.0	2.5	/experiments/AOT/AOT_stimuli/rescaled_final/1704_rv.mp4	0.0	264.22657585144043	
54	243.00695705413818	movie	1		246	52.0	2.5	/experiments/AOT/AOT_stimuli/rescaled_final/1704_rv.mp4	0.0	264.2421660423279	2.5079150199890137
54	244.59874606132507	pulse	1	t		52.0	2.5	/experiments/AOT/AOT_stimuli/rescaled_final/1704_rv.mp4	0.0	265.83395504951477	
54	245.5148720741272	fix_post	2		12	52.0	2.5	/experiments/AOT/AOT_stimuli/rescaled_final/1704_rv.mp4	0.0	266.7500810623169	0.10044598579406738
55	245.61531805992126	fix_pre	0		120	53.0	2.5	/experiments/AOT/AOT_stimuli/rescaled_final/0821_rv.mp4	0.0	266.85052704811096	0.99953293800354
55	246.19132089614868	pulse	0	t		53.0	2.5	/experiments/AOT/AOT_stimuli/rescaled_final/0821_rv.mp4	0.0	267.4265298843384	
55	246.6148509979248	movie	1		244	53.0	2.5	/experiments/AOT/AOT_stimuli/rescaled_final/0821_rv.mp4	0.0	267.8500599861145	2.5003929138183594
55	247.79164099693298	pulse	1	t		53.0	2.5	/experiments/AOT/AOT_stimuli/rescaled_final/0821_rv.mp4	0.0	269.0268499851227	
55	249.11524391174316	fix_post	2		12	53.0	2.5	/experiments/AOT/AOT_stimuli/rescaled_final/0821_rv.mp4	0.0	270.35045289993286	0.10001397132873535
56	249.2152578830719	fix_pre	0		120	54.0	2.5	blank	1.0	270.4504668712616	0.9999840259552002
56	249.39877605438232	pulse	0	t		54.0	2.5	blank	1.0	270.633985042572	
56	250.2152419090271	movie	1		300	54.0	2.5	blank	1.0	271.4504508972168	2.5000650882720947
56	250.99881100654602	pulse	1	t		54.0	2.5	blank	1.0	272.2340199947357	
56	252.59874606132507	pulse	1	t		54.0	2.5	blank	1.0	273.83395504951477	
56	252.7153069972992	fix_post	2		12	54.0	2.5	blank	1.0	273.9505159854889	0.09993505477905273
57	252.81524205207825	fix_pre	0		120	55.0	2.5	/experiments/AOT/AOT_stimuli/rescaled_final/1857_rv.mp4	0.0	274.05045104026794	0.9996438026428223
57	253.81488585472107	movie	1		243	55.0	2.5	/experiments/AOT/AOT_stimuli/rescaled_final/1857_rv.mp4	0.0	275.05009484291077	2.4999780654907227
57	254.1982719898224	pulse	1	t		55.0	2.5	/experiments/AOT/AOT_stimuli/rescaled_final/1857_rv.mp4	0.0	275.4334809780121	
57	255.7913680076599	pulse	1	t		55.0	2.5	/experiments/AOT/AOT_stimuli/rescaled_final/1857_rv.mp4	0.0	277.0265769958496	
57	256.3148639202118	fix_post	2		12	55.0	2.5	/experiments/AOT/AOT_stimuli/rescaled_final/1857_rv.mp4	0.0	277.5500729084015	0.10039401054382324
58	256.4152579307556	fix_pre	0		119	56.0	2.5	/experiments/AOT/AOT_stimuli/rescaled_final/0014_fw.mp4	0.0	277.6504669189453	0.9912459850311279
58	257.398316860199	pulse	0	t		56.0	2.5	/experiments/AOT/AOT_stimuli/rescaled_final/0014_fw.mp4	0.0	278.6335258483887	
58	257.40650391578674	movie	1		245	56.0	2.5	/experiments/AOT/AOT_stimuli/rescaled_final/0014_fw.mp4	0.0	278.64171290397644	2.508634090423584
58	258.99804496765137	pulse	1	t		56.0	2.5	/experiments/AOT/AOT_stimuli/rescaled_final/0014_fw.mp4	0.0	280.23325395584106	
58	259.9151380062103	fix_post	2		12	56.0	2.5	/experiments/AOT/AOT_stimuli/rescaled_final/0014_fw.mp4	0.0	281.1503469944	0.10031795501708984
59	260.0154559612274	fix_pre	0		120	57.0	2.5	/experiments/AOT/AOT_stimuli/rescaled_final/1084_rv.mp4	0.0	281.2506649494171	0.9998071193695068
59	260.5911030769348	pulse	0	t		57.0	2.5	/experiments/AOT/AOT_stimuli/rescaled_final/1084_rv.mp4	0.0	281.8263120651245	
59	261.0152630805969	movie	1		246	57.0	2.5	/experiments/AOT/AOT_stimuli/rescaled_final/1084_rv.mp4	0.0	282.2504720687866	2.499924898147583
59	262.1988060474396	pulse	1	t		57.0	2.5	/experiments/AOT/AOT_stimuli/rescaled_final/1084_rv.mp4	0.0	283.4340150356293	
59	263.5151879787445	fix_post	2		12	57.0	2.5	/experiments/AOT/AOT_stimuli/rescaled_final/1084_rv.mp4	0.0	284.7503969669342	0.10004997253417969
60	263.6152379512787	fix_pre	0		120	58.0	2.5	/experiments/AOT/AOT_stimuli/rescaled_final/0003_rv.mp4	0.0	284.8504469394684	0.9999189376831055
60	263.7911880016327	pulse	0	t		58.0	2.5	/experiments/AOT/AOT_stimuli/rescaled_final/0003_rv.mp4	0.0	285.0263969898224	
60	264.6151568889618	movie	1		244	58.0	2.5	/experiments/AOT/AOT_stimuli/rescaled_final/0003_rv.mp4	0.0	285.8503658771515	2.500066041946411
60	265.39874792099	pulse	1	t		58.0	2.5	/experiments/AOT/AOT_stimuli/rescaled_final/0003_rv.mp4	0.0	286.6339569091797	
60	266.99745202064514	pulse	1	t		58.0	2.5	/experiments/AOT/AOT_stimuli/rescaled_final/0003_rv.mp4	0.0	288.23266100883484	
60	267.1152229309082	fix_post	2		12	58.0	2.5	/experiments/AOT/AOT_stimuli/rescaled_final/0003_rv.mp4	0.0	288.3504319190979	0.10000991821289062
61	267.2152328491211	fix_pre	0		120	59.0	2.5	/experiments/AOT/AOT_stimuli/rescaled_final/2103_fw.mp4	0.0	288.4504418373108	0.9999082088470459
61	268.21514105796814	movie	1		244	59.0	2.5	/experiments/AOT/AOT_stimuli/rescaled_final/2103_fw.mp4	0.0	289.45035004615784	2.5000128746032715
61	268.59815096855164	pulse	1	t		59.0	2.5	/experiments/AOT/AOT_stimuli/rescaled_final/2103_fw.mp4	0.0	289.83335995674133	
61	270.19880294799805	pulse	1	t		59.0	2.5	/experiments/AOT/AOT_stimuli/rescaled_final/2103_fw.mp4	0.0	291.43401193618774	
61	270.7151539325714	fix_post	2		12	59.0	2.5	/experiments/AOT/AOT_stimuli/rescaled_final/2103_fw.mp4	0.0	291.9503629207611	0.09961104393005371
62	270.81476497650146	fix_pre	0		119	60.0	2.5	/experiments/AOT/AOT_stimuli/rescaled_final/0131_fw.mp4	0.0	292.04997396469116	0.9920289516448975
62	271.7986569404602	pulse	0	t		60.0	2.5	/experiments/AOT/AOT_stimuli/rescaled_final/0131_fw.mp4	0.0	293.0338659286499	
62	271.80679392814636	movie	1		244	60.0	2.5	/experiments/AOT/AOT_stimuli/rescaled_final/0131_fw.mp4	0.0	293.04200291633606	2.5085020065307617
62	273.39816093444824	pulse	1	t		60.0	2.5	/experiments/AOT/AOT_stimuli/rescaled_final/0131_fw.mp4	0.0	294.63336992263794	
62	274.3152959346771	fix_post	2		12	60.0	2.5	/experiments/AOT/AOT_stimuli/rescaled_final/0131_fw.mp4	0.0	295.5505049228668	0.09991312026977539
63	274.4152090549469	fix_pre	0		120	61.0	2.5	/experiments/AOT/AOT_stimuli/rescaled_final/0772_rv.mp4	0.0	295.6504180431366	0.9999690055847168
63	274.99125599861145	pulse	0	t		61.0	2.5	/experiments/AOT/AOT_stimuli/rescaled_final/0772_rv.mp4	0.0	296.22646498680115	
63	275.4151780605316	movie	1		243	61.0	2.5	/experiments/AOT/AOT_stimuli/rescaled_final/0772_rv.mp4	0.0	296.6503870487213	2.499987840652466
63	276.59870886802673	pulse	1	t		61.0	2.5	/experiments/AOT/AOT_stimuli/rescaled_final/0772_rv.mp4	0.0	297.83391785621643	
63	277.9151659011841	fix_post	2		12	61.0	2.5	/experiments/AOT/AOT_stimuli/rescaled_final/0772_rv.mp4	0.0	299.1503748893738	0.09998202323913574
64	278.0151479244232	fix_pre	0		120	62.0	2.5	blank	1.0	299.2503569126129	1.0000009536743164
64	278.19117188453674	pulse	0	t		62.0	2.5	blank	1.0	299.42638087272644	
64	279.01514887809753	movie	1		300	62.0	2.5	blank	1.0	300.25035786628723	2.4999570846557617
64	279.7911729812622	pulse	1	t		62.0	2.5	blank	1.0	301.0263819694519	
64	281.39859890937805	pulse	1	t		62.0	2.5	blank	1.0	302.63380789756775	
64	281.5151059627533	fix_post	2		12	62.0	2.5	blank	1.0	302.750314950943	0.10002708435058594
65	281.6151330471039	fix_pre	0		120	63.0	2.5	/experiments/AOT/AOT_stimuli/rescaled_final/1035_fw.mp4	0.0	302.8503420352936	1.0000998973846436
65	282.6152329444885	movie	1		247	63.0	2.5	/experiments/AOT/AOT_stimuli/rescaled_final/1035_fw.mp4	0.0	303.8504419326782	2.4994559288024902
65	282.99849486351013	pulse	1	t		63.0	2.5	/experiments/AOT/AOT_stimuli/rescaled_final/1035_fw.mp4	0.0	304.23370385169983	
65	284.59861493110657	pulse	1	t		63.0	2.5	/experiments/AOT/AOT_stimuli/rescaled_final/1035_fw.mp4	0.0	305.83382391929626	
65	285.114688873291	fix_post	2		12	63.0	2.5	/experiments/AOT/AOT_stimuli/rescaled_final/1035_fw.mp4	0.0	306.3498978614807	0.10037612915039062
66	285.2150650024414	fix_pre	0		119	64.0	2.5	/experiments/AOT/AOT_stimuli/rescaled_final/2004_rv.mp4	0.0	306.4502739906311	0.9916708469390869
66	286.1986229419708	pulse	0	t		64.0	2.5	/experiments/AOT/AOT_stimuli/rescaled_final/2004_rv.mp4	0.0	307.4338319301605	
66	286.2067358493805	movie	1		245	64.0	2.5	/experiments/AOT/AOT_stimuli/rescaled_final/2004_rv.mp4	0.0	307.4419448375702	2.508280038833618
66	287.79844999313354	pulse	1	t		64.0	2.5	/experiments/AOT/AOT_stimuli/rescaled_final/2004_rv.mp4	0.0	309.03365898132324	
66	288.7150158882141	fix_post	2		12	64.0	2.5	/experiments/AOT/AOT_stimuli/rescaled_final/2004_rv.mp4	0.0	309.9502248764038	0.10010600090026855
67	288.8151218891144	fix_pre	0		120	65.0	2.5	/experiments/AOT/AOT_stimuli/rescaled_final/1314_rv.mp4	0.0	310.0503308773041	0.9998719692230225
67	289.3985390663147	pulse	0	t		65.0	2.5	/experiments/AOT/AOT_stimuli/rescaled_final/1314_rv.mp4	0.0	310.6337480545044	
67	289.8149938583374	movie	1		243	65.0	2.5	/experiments/AOT/AOT_stimuli/rescaled_final/1314_rv.mp4	0.0	311.0502028465271	2.500033140182495
67	290.9986479282379	pulse	1	t		65.0	2.5	/experiments/AOT/AOT_stimuli/rescaled_final/1314_rv.mp4	0.0	312.2338569164276	
67	292.3150269985199	fix_post	2		12	65.0	2.5	/experiments/AOT/AOT_stimuli/rescaled_final/1314_rv.mp4	0.0	313.5502359867096	0.10001993179321289
68	292.4150469303131	fix_pre	0		120	66.0	2.5	/experiments/AOT/AOT_stimuli/rescaled_final/1521_rv.mp4	0.0	313.6502559185028	1.0000360012054443
68	292.5911650657654	pulse	0	t		66.0	2.5	/experiments/AOT/AOT_stimuli/rescaled_final/1521_rv.mp4	0.0	313.8263740539551	
68	293.41508293151855	movie	1		244	66.0	2.5	/experiments/AOT/AOT_stimuli/rescaled_final/1521_rv.mp4	0.0	314.65029191970825	2.5001890659332275
68	294.19124603271484	pulse	1	t		66.0	2.5	/experiments/AOT/AOT_stimuli/rescaled_final/1521_rv.mp4	0.0	315.42645502090454	
68	295.7909519672394	pulse	1	t		66.0	2.5	/experiments/AOT/AOT_stimuli/rescaled_final/1521_rv.mp4	0.0	317.0261609554291	
68	295.9152719974518	fix_post	2		12	66.0	2.5	/experiments/AOT/AOT_stimuli/rescaled_final/1521_rv.mp4	0.0	317.1504809856415	0.09978389739990234
69	296.0150558948517	fix_pre	0		120	67.0	2.5	/experiments/AOT/AOT_stimuli/rescaled_final/0382_rv.mp4	0.0	317.2502648830414	0.9999921321868896
69	297.0150480270386	movie	1		244	67.0	2.5	/experiments/AOT/AOT_stimuli/rescaled_final/0382_rv.mp4	0.0	318.25025701522827	2.4995229244232178
69	297.3997609615326	pulse	1	t		67.0	2.5	/experiments/AOT/AOT_stimuli/rescaled_final/0382_rv.mp4	0.0	318.6349699497223	
69	298.9984860420227	pulse	1	t		67.0	2.5	/experiments/AOT/AOT_stimuli/rescaled_final/0382_rv.mp4	0.0	320.2336950302124	
69	299.5145709514618	fix_post	2		12	67.0	2.5	/experiments/AOT/AOT_stimuli/rescaled_final/0382_rv.mp4	0.0	320.7497799396515	0.10050511360168457
70	299.6150760650635	fix_pre	0		119	68.0	2.5	/experiments/AOT/AOT_stimuli/rescaled_final/0300_rv.mp4	0.0	320.8502850532532	0.9915997982025146
70	300.5985178947449	pulse	0	t		68.0	2.5	/experiments/AOT/AOT_stimuli/rescaled_final/0300_rv.mp4	0.0	321.83372688293457	
70	300.606675863266	movie	1		244	68.0	2.5	/experiments/AOT/AOT_stimuli/rescaled_final/0300_rv.mp4	0.0	321.8418848514557	2.507909059524536
70	302.19983291625977	pulse	1	t		68.0	2.5	/experiments/AOT/AOT_stimuli/rescaled_final/0300_rv.mp4	0.0	323.43504190444946	
70	303.1145849227905	fix_post	2		12	68.0	2.5	/experiments/AOT/AOT_stimuli/rescaled_final/0300_rv.mp4	0.0	324.3497939109802	0.10042810440063477
71	303.21501302719116	fix_pre	0		120	69.0	2.5	blank	1.0	324.45022201538086	0.9999759197235107
71	303.79848194122314	pulse	0	t		69.0	2.5	blank	1.0	325.03369092941284	
71	304.2149889469147	movie	1		300	69.0	2.5	blank	1.0	325.45019793510437	2.5000460147857666
71	305.39848804473877	pulse	1	t		69.0	2.5	blank	1.0	326.63369703292847	
71	306.71503496170044	fix_post	2		12	69.0	2.5	blank	1.0	327.95024394989014	0.09994912147521973
72	306.81498408317566	fix_pre	0		120	70.0	2.5	/experiments/AOT/AOT_stimuli/rescaled_final/0717_fw.mp4	0.0	328.05019307136536	0.9999568462371826
72	306.99859404563904	pulse	0	t		70.0	2.5	/experiments/AOT/AOT_stimuli/rescaled_final/0717_fw.mp4	0.0	328.23380303382874	
72	307.81494092941284	movie	1		244	70.0	2.5	/experiments/AOT/AOT_stimuli/rescaled_final/0717_fw.mp4	0.0	329.05014991760254	2.4999959468841553
72	308.5911719799042	pulse	1	t		70.0	2.5	/experiments/AOT/AOT_stimuli/rescaled_final/0717_fw.mp4	0.0	329.8263809680939	
72	310.194433927536	pulse	1	t		70.0	2.5	/experiments/AOT/AOT_stimuli/rescaled_final/0717_fw.mp4	0.0	331.4296429157257	
72	310.314936876297	fix_post	2		12	70.0	2.5	/experiments/AOT/AOT_stimuli/rescaled_final/0717_fw.mp4	0.0	331.5501458644867	0.10001206398010254
73	310.4149489402771	fix_pre	0		120	71.0	2.5	/experiments/AOT/AOT_stimuli/rescaled_final/0472_rv.mp4	0.0	331.6501579284668	0.9995999336242676
73	311.41454887390137	movie	1		247	71.0	2.5	/experiments/AOT/AOT_stimuli/rescaled_final/0472_rv.mp4	0.0	332.64975786209106	2.500387191772461
73	311.7983238697052	pulse	1	t		71.0	2.5	/experiments/AOT/AOT_stimuli/rescaled_final/0472_rv.mp4	0.0	333.0335328578949	
73	313.39797806739807	pulse	1	t		71.0	2.5	/experiments/AOT/AOT_stimuli/rescaled_final/0472_rv.mp4	0.0	334.63318705558777	
73	313.9149360656738	fix_post	2		12	71.0	2.5	/experiments/AOT/AOT_stimuli/rescaled_final/0472_rv.mp4	0.0	335.1501450538635	0.10006880760192871
74	314.01500487327576	fix_pre	0		119	72.0	2.5	/experiments/AOT/AOT_stimuli/rescaled_final/1866_fw.mp4	0.0	335.25021386146545	0.9918701648712158
74	314.9981858730316	pulse	0	t		72.0	2.5	/experiments/AOT/AOT_stimuli/rescaled_final/1866_fw.mp4	0.0	336.2333948612213	
74	315.006875038147	movie	1		246	72.0	2.5	/experiments/AOT/AOT_stimuli/rescaled_final/1866_fw.mp4	0.0	336.24208402633667	2.507817029953003
74	316.5978639125824	pulse	1	t		72.0	2.5	/experiments/AOT/AOT_stimuli/rescaled_final/1866_fw.mp4	0.0	337.8330729007721	
74	317.5146920681	fix_post	2		12	72.0	2.5	/experiments/AOT/AOT_stimuli/rescaled_final/1866_fw.mp4	0.0	338.7499010562897	0.10034298896789551
75	317.61503505706787	fix_pre	0		120	73.0	2.5	/experiments/AOT/AOT_stimuli/rescaled_final/0382_fw.mp4	0.0	338.85024404525757	0.9994709491729736
75	318.1984360218048	pulse	0	t		73.0	2.5	/experiments/AOT/AOT_stimuli/rescaled_final/0382_fw.mp4	0.0	339.4336450099945	
75	318.61450600624084	movie	1		245	73.0	2.5	/experiments/AOT/AOT_stimuli/rescaled_final/0382_fw.mp4	0.0	339.84971499443054	2.499979019165039
75	319.79851388931274	pulse	1	t		73.0	2.5	/experiments/AOT/AOT_stimuli/rescaled_final/0382_fw.mp4	0.0	341.03372287750244	
75	321.1144850254059	fix_post	2		12	73.0	2.5	/experiments/AOT/AOT_stimuli/rescaled_final/0382_fw.mp4	0.0	342.3496940135956	0.10048985481262207
76	321.2149748802185	fix_pre	0		120	74.0	2.5	/experiments/AOT/AOT_stimuli/rescaled_final/1661_rv.mp4	0.0	342.4501838684082	0.9995369911193848
76	321.3984980583191	pulse	0	t		74.0	2.5	/experiments/AOT/AOT_stimuli/rescaled_final/1661_rv.mp4	0.0	342.6337070465088	
76	322.2145118713379	movie	1		244	74.0	2.5	/experiments/AOT/AOT_stimuli/rescaled_final/1661_rv.mp4	0.0	343.4497208595276	2.5003809928894043
76	322.99854493141174	pulse	1	t		74.0	2.5	/experiments/AOT/AOT_stimuli/rescaled_final/1661_rv.mp4	0.0	344.23375391960144	
76	324.59704303741455	pulse	1	t		74.0	2.5	/experiments/AOT/AOT_stimuli/rescaled_final/1661_rv.mp4	0.0	345.83225202560425	
76	324.7148928642273	fix_post	2		12	74.0	2.5	/experiments/AOT/AOT_stimuli/rescaled_final/1661_rv.mp4	0.0	345.950101852417	0.09996509552001953
77	324.8148579597473	fix_pre	0		120	75.0	2.5	/experiments/AOT/AOT_stimuli/rescaled_final/2059_fw.mp4	0.0	346.050066947937	0.9995989799499512
77	325.81445693969727	movie	1		245	75.0	2.5	/experiments/AOT/AOT_stimuli/rescaled_final/2059_fw.mp4	0.0	347.04966592788696	2.5004589557647705
77	326.1982820034027	pulse	1	t		75.0	2.5	/experiments/AOT/AOT_stimuli/rescaled_final/2059_fw.mp4	0.0	347.4334909915924	
77	327.7910430431366	pulse	1	t		75.0	2.5	/experiments/AOT/AOT_stimuli/rescaled_final/2059_fw.mp4	0.0	349.0262520313263	
77	328.31491589546204	fix_post	2		12	75.0	2.5	/experiments/AOT/AOT_stimuli/rescaled_final/2059_fw.mp4	0.0	349.55012488365173	0.09991717338562012
78	328.41483306884766	fix_pre	0		119	76.0	2.5	blank	1.0	349.65004205703735	0.991710901260376
78	329.3984079360962	pulse	0	t		76.0	2.5	blank	1.0	350.6336169242859	
78	329.40654397010803	movie	1		301	76.0	2.5	blank	1.0	350.64175295829773	2.508331060409546
78	330.99838185310364	pulse	1	t		76.0	2.5	blank	1.0	352.23359084129333	
78	331.9148750305176	fix_post	2		12	76.0	2.5	blank	1.0	353.1500840187073	0.09999990463256836
79	332.01487493515015	fix_pre	0		120	77.0	2.5	/experiments/AOT/AOT_stimuli/rescaled_final/1503_rv.mp4	0.0	353.25008392333984	1.0000090599060059
79	332.5983829498291	pulse	0	t		77.0	2.5	/experiments/AOT/AOT_stimuli/rescaled_final/1503_rv.mp4	0.0	353.8335919380188	
79	333.01488399505615	movie	1		245	77.0	2.5	/experiments/AOT/AOT_stimuli/rescaled_final/1503_rv.mp4	0.0	354.25009298324585	2.5000429153442383
79	334.1984519958496	pulse	1	t		77.0	2.5	/experiments/AOT/AOT_stimuli/rescaled_final/1503_rv.mp4	0.0	355.4336609840393	
79	335.5149269104004	fix_post	2		12	77.0	2.5	/experiments/AOT/AOT_stimuli/rescaled_final/1503_rv.mp4	0.0	356.7501358985901	0.09990215301513672
80	335.6148290634155	fix_pre	0		120	78.0	2.5	/experiments/AOT/AOT_stimuli/rescaled_final/0334_rv.mp4	0.0	356.8500380516052	0.9996168613433838
80	335.79836201667786	pulse	0	t		78.0	2.5	/experiments/AOT/AOT_stimuli/rescaled_final/0334_rv.mp4	0.0	357.03357100486755	
80	336.6144459247589	movie	1		246	78.0	2.5	/experiments/AOT/AOT_stimuli/rescaled_final/0334_rv.mp4	0.0	357.8496549129486	2.50034499168396
80	337.39840292930603	pulse	1	t		78.0	2.5	/experiments/AOT/AOT_stimuli/rescaled_final/0334_rv.mp4	0.0	358.6336119174957	
80	338.99793791770935	pulse	1	t		78.0	2.5	/experiments/AOT/AOT_stimuli/rescaled_final/0334_rv.mp4	0.0	360.23314690589905	
80	339.11479091644287	fix_post	2		12	78.0	2.5	/experiments/AOT/AOT_stimuli/rescaled_final/0334_rv.mp4	0.0	360.34999990463257	0.10001897811889648
81	339.21480989456177	fix_pre	0		120	79.0	2.5	/experiments/AOT/AOT_stimuli/rescaled_final/1830_fw.mp4	0.0	360.45001888275146	1.0000641345977783
81	340.21487402915955	movie	1		244	79.0	2.5	/experiments/AOT/AOT_stimuli/rescaled_final/1830_fw.mp4	0.0	361.45008301734924	2.4999148845672607
81	340.59866189956665	pulse	1	t		79.0	2.5	/experiments/AOT/AOT_stimuli/rescaled_final/1830_fw.mp4	0.0	361.83387088775635	
81	342.19829392433167	pulse	1	t		79.0	2.5	/experiments/AOT/AOT_stimuli/rescaled_final/1830_fw.mp4	0.0	363.43350291252136	
81	342.7147889137268	fix_post	2		12	79.0	2.5	/experiments/AOT/AOT_stimuli/rescaled_final/1830_fw.mp4	0.0	363.9499979019165	0.10002017021179199
82	342.8148090839386	fix_pre	0		119	80.0	2.5	/experiments/AOT/AOT_stimuli/rescaled_final/1219_rv.mp4	0.0	364.0500180721283	0.991722822189331
82	343.79835200309753	pulse	0	t		80.0	2.5	/experiments/AOT/AOT_stimuli/rescaled_final/1219_rv.mp4	0.0	365.03356099128723	
82	343.80653190612793	movie	1		246	80.0	2.5	/experiments/AOT/AOT_stimuli/rescaled_final/1219_rv.mp4	0.0	365.0417408943176	2.507857084274292
82	345.3977839946747	pulse	1	t		80.0	2.5	/experiments/AOT/AOT_stimuli/rescaled_final/1219_rv.mp4	0.0	366.6329929828644	
82	346.3143889904022	fix_post	2		12	80.0	2.5	/experiments/AOT/AOT_stimuli/rescaled_final/1219_rv.mp4	0.0	367.5495979785919	0.10002708435058594
83	346.4144160747528	fix_pre	0		120	81.0	2.5	/experiments/AOT/AOT_stimuli/rescaled_final/0772_rv.mp4	0.0	367.6496250629425	0.9999549388885498
83	346.9996199607849	pulse	0	t		81.0	2.5	/experiments/AOT/AOT_stimuli/rescaled_final/0772_rv.mp4	0.0	368.2348289489746	
83	347.41437101364136	movie	1		245	81.0	2.5	/experiments/AOT/AOT_stimuli/rescaled_final/0772_rv.mp4	0.0	368.64958000183105	2.500638008117676
83	348.59838604927063	pulse	1	t		81.0	2.5	/experiments/AOT/AOT_stimuli/rescaled_final/0772_rv.mp4	0.0	369.8335950374603	
83	349.91500902175903	fix_post	2		12	81.0	2.5	/experiments/AOT/AOT_stimuli/rescaled_final/0772_rv.mp4	0.0	371.15021800994873	0.09981298446655273
84	350.0148220062256	fix_pre	0		120	82.0	2.5	/experiments/AOT/AOT_stimuli/rescaled_final/1925_fw.mp4	0.0	371.2500309944153	0.9996068477630615
84	350.19829297065735	pulse	0	t		82.0	2.5	/experiments/AOT/AOT_stimuli/rescaled_final/1925_fw.mp4	0.0	371.43350195884705	
84	351.01442885398865	movie	1		245	82.0	2.5	/experiments/AOT/AOT_stimuli/rescaled_final/1925_fw.mp4	0.0	372.24963784217834	2.500277042388916
84	351.7982680797577	pulse	1	t		82.0	2.5	/experiments/AOT/AOT_stimuli/rescaled_final/1925_fw.mp4	0.0	373.0334770679474	
84	353.3969769477844	pulse	1	t		82.0	2.5	/experiments/AOT/AOT_stimuli/rescaled_final/1925_fw.mp4	0.0	374.6321859359741	
84	353.51470589637756	fix_post	2		12	82.0	2.5	/experiments/AOT/AOT_stimuli/rescaled_final/1925_fw.mp4	0.0	374.74991488456726	0.09970211982727051
85	353.61440801620483	fix_pre	0		120	83.0	2.5	blank	1.0	374.84961700439453	1.0003089904785156
85	354.61471700668335	movie	1		300	83.0	2.5	blank	1.0	375.84992599487305	2.500067949295044
85	354.99826097488403	pulse	1	t		83.0	2.5	blank	1.0	376.23346996307373	
85	356.59825801849365	pulse	1	t		83.0	2.5	blank	1.0	377.83346700668335	
85	357.1147849559784	fix_post	2		12	83.0	2.5	blank	1.0	378.3499939441681	0.09998607635498047
87	357.2147710323334	stim	0		1716					378.44998002052307	14.299742937088013
87	358.1983070373535	pulse	0	t						379.4335160255432	
87	359.7908339500427	pulse	0	t						381.0260429382324	
87	361.3983268737793	pulse	0	t						382.633535861969	
87	362.99819588661194	pulse	0	t						384.23340487480164	
87	364.59823393821716	pulse	0	t						385.83344292640686	
87	366.1982250213623	pulse	0	t						387.433434009552	
87	367.79833698272705	pulse	0	t						389.03354597091675	
87	369.39778089523315	pulse	0	t						390.63298988342285	
87	370.99788093566895	pulse	0	t						392.23308992385864	
