trial_nr	onset	event_type	phase	response	nr_frames	movie_index	movie_duration	movie_file	blank	onset_abs	duration
0	0.1498699188232422	stim	0		145					21.454376935958862	1.208353042602539
0	1.3503289222717285	response	0	space						22.65483593940735	
1	1.3582229614257812	stim	0		5286					22.6627299785614	44.058440923690796
1	45.40497803688049	pulse	0	t						66.70948505401611	
1	45.41666388511658	stim	1		1716					66.7211709022522	14.299305200576782
1	46.99978590011597	pulse	1	t						68.30429291725159	
1	48.59976100921631	pulse	1	t						69.90426802635193	
1	50.199759006500244	pulse	1	t						71.50426602363586	
1	51.80057096481323	pulse	1	t						73.10507798194885	
1	53.400476932525635	pulse	1	t						74.70498394966125	
1	54.99969291687012	pulse	1	t						76.30419993400574	
1	56.59971308708191	pulse	1	t						77.90422010421753	
1	58.19970703125	pulse	1	t						79.50421404838562	
2	59.71596908569336	fix_pre	0		11	0.0	2.5	/experiments/AOT/AOT_stimuli/rescaled_final/0582_rv.mp4	0.0	81.02047610282898	0.09197497367858887
2	59.79977202415466	pulse	0	t		0.0	2.5	/experiments/AOT/AOT_stimuli/rescaled_final/0582_rv.mp4	0.0	81.10427904129028	
2	59.80794405937195	movie	1		244	0.0	2.5	/experiments/AOT/AOT_stimuli/rescaled_final/0582_rv.mp4	0.0	81.11245107650757	2.508370876312256
2	61.39966297149658	pulse	1	t		0.0	2.5	/experiments/AOT/AOT_stimuli/rescaled_final/0582_rv.mp4	0.0	82.7041699886322	
2	62.316314935684204	fix_post	2		12	0.0	2.5	/experiments/AOT/AOT_stimuli/rescaled_final/0582_rv.mp4	0.0	83.62082195281982	0.1000070571899414
3	62.416321992874146	fix_pre	0		120	1.0	2.5	/experiments/AOT/AOT_stimuli/rescaled_final/1992_fw.mp4	0.0	83.72082901000977	0.9998989105224609
3	62.9997820854187	pulse	0	t		1.0	2.5	/experiments/AOT/AOT_stimuli/rescaled_final/1992_fw.mp4	0.0	84.30428910255432	
3	63.416220903396606	movie	1		245	1.0	2.5	/experiments/AOT/AOT_stimuli/rescaled_final/1992_fw.mp4	0.0	84.72072792053223	2.5000569820404053
3	64.59984803199768	pulse	1	t		1.0	2.5	/experiments/AOT/AOT_stimuli/rescaled_final/1992_fw.mp4	0.0	85.9043550491333	
3	65.91627788543701	fix_post	2		12	1.0	2.5	/experiments/AOT/AOT_stimuli/rescaled_final/1992_fw.mp4	0.0	87.22078490257263	0.09992504119873047
4	66.01620292663574	fix_pre	0		120	2.0	2.5	/experiments/AOT/AOT_stimuli/rescaled_final/0407_fw.mp4	0.0	87.32070994377136	1.0000150203704834
4	66.19975590705872	pulse	0	t		2.0	2.5	/experiments/AOT/AOT_stimuli/rescaled_final/0407_fw.mp4	0.0	87.50426292419434	
4	67.01621794700623	movie	1		245	2.0	2.5	/experiments/AOT/AOT_stimuli/rescaled_final/0407_fw.mp4	0.0	88.32072496414185	2.4995291233062744
4	67.80053496360779	pulse	1	t		2.0	2.5	/experiments/AOT/AOT_stimuli/rescaled_final/0407_fw.mp4	0.0	89.10504198074341	
4	69.400563955307	pulse	1	t		2.0	2.5	/experiments/AOT/AOT_stimuli/rescaled_final/0407_fw.mp4	0.0	90.70507097244263	
4	69.5157470703125	fix_post	2		12	2.0	2.5	/experiments/AOT/AOT_stimuli/rescaled_final/0407_fw.mp4	0.0	90.82025408744812	0.10042786598205566
5	69.61617493629456	fix_pre	0		120	3.0	2.5	/experiments/AOT/AOT_stimuli/rescaled_final/2039_rv.mp4	0.0	90.92068195343018	0.9999330043792725
5	70.61610794067383	movie	1		243	3.0	2.5	/experiments/AOT/AOT_stimuli/rescaled_final/2039_rv.mp4	0.0	91.92061495780945	2.5000691413879395
5	71.00801992416382	pulse	1	t		3.0	2.5	/experiments/AOT/AOT_stimuli/rescaled_final/2039_rv.mp4	0.0	92.31252694129944	
5	72.60060000419617	pulse	1	t		3.0	2.5	/experiments/AOT/AOT_stimuli/rescaled_final/2039_rv.mp4	0.0	93.90510702133179	
5	73.11617708206177	fix_post	2		12	3.0	2.5	/experiments/AOT/AOT_stimuli/rescaled_final/2039_rv.mp4	0.0	94.42068409919739	0.09994888305664062
6	73.21612596511841	fix_pre	0		120	4.0	2.5	/experiments/AOT/AOT_stimuli/rescaled_final/1008_rv.mp4	0.0	94.52063298225403	1.000011920928955
6	74.2005500793457	pulse	0	t		4.0	2.5	/experiments/AOT/AOT_stimuli/rescaled_final/1008_rv.mp4	0.0	95.50505709648132	
6	74.21613788604736	movie	1		244	4.0	2.5	/experiments/AOT/AOT_stimuli/rescaled_final/1008_rv.mp4	0.0	95.52064490318298	2.508378028869629
6	75.79956102371216	pulse	1	t		4.0	2.5	/experiments/AOT/AOT_stimuli/rescaled_final/1008_rv.mp4	0.0	97.10406804084778	
6	76.72451591491699	fix_post	2		12	4.0	2.5	/experiments/AOT/AOT_stimuli/rescaled_final/1008_rv.mp4	0.0	98.02902293205261	0.09993314743041992
7	76.82444906234741	fix_pre	0		120	5.0	2.5	blank	1.0	98.12895607948303	1.0001189708709717
7	77.39963793754578	pulse	0	t		5.0	2.5	blank	1.0	98.7041449546814	
7	77.82456803321838	movie	1		300	5.0	2.5	blank	1.0	99.129075050354	2.499969005584717
7	78.99964904785156	pulse	1	t		5.0	2.5	blank	1.0	100.30415606498718	
7	80.3245370388031	fix_post	2		12	5.0	2.5	blank	1.0	101.62904405593872	0.0999288558959961
8	80.4244658946991	fix_pre	0		120	6.0	2.5	/experiments/AOT/AOT_stimuli/rescaled_final/0712_rv.mp4	0.0	101.72897291183472	1.000040054321289
8	80.59957695007324	pulse	0	t		6.0	2.5	/experiments/AOT/AOT_stimuli/rescaled_final/0712_rv.mp4	0.0	101.90408396720886	
8	81.42450594902039	movie	1		246	6.0	2.5	/experiments/AOT/AOT_stimuli/rescaled_final/0712_rv.mp4	0.0	102.729012966156	2.5001280307769775
8	82.19972205162048	pulse	1	t		6.0	2.5	/experiments/AOT/AOT_stimuli/rescaled_final/0712_rv.mp4	0.0	103.5042290687561	
8	83.80653405189514	pulse	1	t		6.0	2.5	/experiments/AOT/AOT_stimuli/rescaled_final/0712_rv.mp4	0.0	105.11104106903076	
8	83.92463397979736	fix_post	2		12	6.0	2.5	/experiments/AOT/AOT_stimuli/rescaled_final/0712_rv.mp4	0.0	105.22914099693298	0.09984707832336426
9	84.02448105812073	fix_pre	0		120	7.0	2.5	/experiments/AOT/AOT_stimuli/rescaled_final/0361_fw.mp4	0.0	105.32898807525635	0.9999690055847168
9	85.02445006370544	movie	1		245	7.0	2.5	/experiments/AOT/AOT_stimuli/rescaled_final/0361_fw.mp4	0.0	106.32895708084106	2.500016927719116
9	85.40896606445312	pulse	1	t		7.0	2.5	/experiments/AOT/AOT_stimuli/rescaled_final/0361_fw.mp4	0.0	106.71347308158875	
9	87.00046992301941	pulse	1	t		7.0	2.5	/experiments/AOT/AOT_stimuli/rescaled_final/0361_fw.mp4	0.0	108.30497694015503	
9	87.52446699142456	fix_post	2		12	7.0	2.5	/experiments/AOT/AOT_stimuli/rescaled_final/0361_fw.mp4	0.0	108.82897400856018	0.09998607635498047
10	87.62445306777954	fix_pre	0		119	8.0	2.5	/experiments/AOT/AOT_stimuli/rescaled_final/1042_rv.mp4	0.0	108.92896008491516	0.9916629791259766
10	88.6004889011383	pulse	0	t		8.0	2.5	/experiments/AOT/AOT_stimuli/rescaled_final/1042_rv.mp4	0.0	109.90499591827393	
10	88.61611604690552	movie	1		246	8.0	2.5	/experiments/AOT/AOT_stimuli/rescaled_final/1042_rv.mp4	0.0	109.92062306404114	2.508323907852173
10	90.20792388916016	pulse	1	t		8.0	2.5	/experiments/AOT/AOT_stimuli/rescaled_final/1042_rv.mp4	0.0	111.51243090629578	
10	91.12443995475769	fix_post	2		12	8.0	2.5	/experiments/AOT/AOT_stimuli/rescaled_final/1042_rv.mp4	0.0	112.42894697189331	0.10005402565002441
11	91.22449398040771	fix_pre	0		120	9.0	2.5	/experiments/AOT/AOT_stimuli/rescaled_final/0119_rv.mp4	0.0	112.52900099754333	0.9999029636383057
11	91.7996129989624	pulse	0	t		9.0	2.5	/experiments/AOT/AOT_stimuli/rescaled_final/0119_rv.mp4	0.0	113.10412001609802	
11	92.22439694404602	movie	1		242	9.0	2.5	/experiments/AOT/AOT_stimuli/rescaled_final/0119_rv.mp4	0.0	113.52890396118164	2.499624013900757
11	93.40797305107117	pulse	1	t		9.0	2.5	/experiments/AOT/AOT_stimuli/rescaled_final/0119_rv.mp4	0.0	114.71248006820679	
11	94.72402095794678	fix_post	2		12	9.0	2.5	/experiments/AOT/AOT_stimuli/rescaled_final/0119_rv.mp4	0.0	116.0285279750824	0.10030007362365723
12	94.82432103157043	fix_pre	0		120	10.0	2.5	/experiments/AOT/AOT_stimuli/rescaled_final/0837_rv.mp4	0.0	116.12882804870605	1.0001330375671387
12	94.99957489967346	pulse	0	t		10.0	2.5	/experiments/AOT/AOT_stimuli/rescaled_final/0837_rv.mp4	0.0	116.30408191680908	
12	95.82445406913757	movie	1		243	10.0	2.5	/experiments/AOT/AOT_stimuli/rescaled_final/0837_rv.mp4	0.0	117.1289610862732	2.4999289512634277
12	96.599524974823	pulse	1	t		10.0	2.5	/experiments/AOT/AOT_stimuli/rescaled_final/0837_rv.mp4	0.0	117.90403199195862	
12	98.19952201843262	pulse	1	t		10.0	2.5	/experiments/AOT/AOT_stimuli/rescaled_final/0837_rv.mp4	0.0	119.50402903556824	
12	98.324383020401	fix_post	2		12	10.0	2.5	/experiments/AOT/AOT_stimuli/rescaled_final/0837_rv.mp4	0.0	119.62889003753662	0.09999299049377441
13	98.42437601089478	fix_pre	0		120	11.0	2.5	/experiments/AOT/AOT_stimuli/rescaled_final/1028_fw.mp4	0.0	119.7288830280304	0.9999890327453613
13	99.42436504364014	movie	1		246	11.0	2.5	/experiments/AOT/AOT_stimuli/rescaled_final/1028_fw.mp4	0.0	120.72887206077576	2.4999518394470215
13	99.80743408203125	pulse	1	t		11.0	2.5	/experiments/AOT/AOT_stimuli/rescaled_final/1028_fw.mp4	0.0	121.11194109916687	
13	101.40051698684692	pulse	1	t		11.0	2.5	/experiments/AOT/AOT_stimuli/rescaled_final/1028_fw.mp4	0.0	122.70502400398254	
13	101.92431688308716	fix_post	2		12	11.0	2.5	/experiments/AOT/AOT_stimuli/rescaled_final/1028_fw.mp4	0.0	123.22882390022278	0.10006999969482422
14	102.02438688278198	fix_pre	0		119	12.0	2.5	blank	1.0	123.3288938999176	0.9916110038757324
14	103.00034689903259	pulse	0	t		12.0	2.5	blank	1.0	124.30485391616821	
14	103.01599788665771	movie	1		301	12.0	2.5	blank	1.0	124.32050490379333	2.5085201263427734
14	104.60028004646301	pulse	1	t		12.0	2.5	blank	1.0	125.90478706359863	
14	105.52451801300049	fix_post	2		12	12.0	2.5	blank	1.0	126.82902503013611	0.09985995292663574
15	105.62437796592712	fix_pre	0		120	13.0	2.5	/experiments/AOT/AOT_stimuli/rescaled_final/1558_rv.mp4	0.0	126.92888498306274	1.0000300407409668
15	106.20031690597534	pulse	0	t		13.0	2.5	/experiments/AOT/AOT_stimuli/rescaled_final/1558_rv.mp4	0.0	127.50482392311096	
15	106.62440800666809	movie	1		245	13.0	2.5	/experiments/AOT/AOT_stimuli/rescaled_final/1558_rv.mp4	0.0	127.92891502380371	2.4998550415039062
15	107.80794191360474	pulse	1	t		13.0	2.5	/experiments/AOT/AOT_stimuli/rescaled_final/1558_rv.mp4	0.0	129.11244893074036	
15	109.124263048172	fix_post	2		12	13.0	2.5	/experiments/AOT/AOT_stimuli/rescaled_final/1558_rv.mp4	0.0	130.42877006530762	0.10022306442260742
16	109.2244861125946	fix_pre	0		120	14.0	2.5	/experiments/AOT/AOT_stimuli/rescaled_final/1645_rv.mp4	0.0	130.52899312973022	0.9998519420623779
16	109.40029406547546	pulse	0	t		14.0	2.5	/experiments/AOT/AOT_stimuli/rescaled_final/1645_rv.mp4	0.0	130.70480108261108	
16	110.22433805465698	movie	1		245	14.0	2.5	/experiments/AOT/AOT_stimuli/rescaled_final/1645_rv.mp4	0.0	131.5288450717926	2.500048875808716
16	110.99951004981995	pulse	1	t		14.0	2.5	/experiments/AOT/AOT_stimuli/rescaled_final/1645_rv.mp4	0.0	132.30401706695557	
16	112.5998649597168	pulse	1	t		14.0	2.5	/experiments/AOT/AOT_stimuli/rescaled_final/1645_rv.mp4	0.0	133.90437197685242	
16	112.7243869304657	fix_post	2		12	14.0	2.5	/experiments/AOT/AOT_stimuli/rescaled_final/1645_rv.mp4	0.0	134.02889394760132	0.0999300479888916
17	112.82431697845459	fix_pre	0		120	15.0	2.5	/experiments/AOT/AOT_stimuli/rescaled_final/1625_rv.mp4	0.0	134.1288239955902	1.0000560283660889
17	113.82437300682068	movie	1		244	15.0	2.5	/experiments/AOT/AOT_stimuli/rescaled_final/1625_rv.mp4	0.0	135.1288800239563	2.4996891021728516
17	114.20823311805725	pulse	1	t		15.0	2.5	/experiments/AOT/AOT_stimuli/rescaled_final/1625_rv.mp4	0.0	135.51274013519287	
17	115.80044889450073	pulse	1	t		15.0	2.5	/experiments/AOT/AOT_stimuli/rescaled_final/1625_rv.mp4	0.0	137.10495591163635	
17	116.32406210899353	fix_post	2		12	15.0	2.5	/experiments/AOT/AOT_stimuli/rescaled_final/1625_rv.mp4	0.0	137.62856912612915	0.10043191909790039
18	116.42449402809143	fix_pre	0		119	16.0	2.5	/experiments/AOT/AOT_stimuli/rescaled_final/1802_rv.mp4	0.0	137.72900104522705	0.9913289546966553
18	117.40064597129822	pulse	0	t		16.0	2.5	/experiments/AOT/AOT_stimuli/rescaled_final/1802_rv.mp4	0.0	138.70515298843384	
18	117.41582298278809	movie	1		244	16.0	2.5	/experiments/AOT/AOT_stimuli/rescaled_final/1802_rv.mp4	0.0	138.7203299999237	2.50846004486084
18	119.00721907615662	pulse	1	t		16.0	2.5	/experiments/AOT/AOT_stimuli/rescaled_final/1802_rv.mp4	0.0	140.31172609329224	
18	119.92428302764893	fix_post	2		12	16.0	2.5	/experiments/AOT/AOT_stimuli/rescaled_final/1802_rv.mp4	0.0	141.22879004478455	0.09995889663696289
19	120.02424192428589	fix_pre	0		120	17.0	2.5	/experiments/AOT/AOT_stimuli/rescaled_final/0238_rv.mp4	0.0	141.3287489414215	1.0000150203704834
19	120.60028195381165	pulse	0	t		17.0	2.5	/experiments/AOT/AOT_stimuli/rescaled_final/0238_rv.mp4	0.0	141.90478897094727	
19	121.02425694465637	movie	1		244	17.0	2.5	/experiments/AOT/AOT_stimuli/rescaled_final/0238_rv.mp4	0.0	142.328763961792	2.499983072280884
19	122.20788598060608	pulse	1	t		17.0	2.5	/experiments/AOT/AOT_stimuli/rescaled_final/0238_rv.mp4	0.0	143.5123929977417	
19	123.52424001693726	fix_post	2		12	17.0	2.5	/experiments/AOT/AOT_stimuli/rescaled_final/0238_rv.mp4	0.0	144.82874703407288	0.09999203681945801
20	123.62423205375671	fix_pre	0		120	18.0	2.5	/experiments/AOT/AOT_stimuli/rescaled_final/2089_fw.mp4	0.0	144.92873907089233	1.0000059604644775
20	123.80017900466919	pulse	0	t		18.0	2.5	/experiments/AOT/AOT_stimuli/rescaled_final/2089_fw.mp4	0.0	145.1046860218048	
20	124.62423801422119	movie	1		243	18.0	2.5	/experiments/AOT/AOT_stimuli/rescaled_final/2089_fw.mp4	0.0	145.9287450313568	2.499579906463623
20	125.40023303031921	pulse	1	t		18.0	2.5	/experiments/AOT/AOT_stimuli/rescaled_final/2089_fw.mp4	0.0	146.70474004745483	
20	127.00598001480103	pulse	1	t		18.0	2.5	/experiments/AOT/AOT_stimuli/rescaled_final/2089_fw.mp4	0.0	148.31048703193665	
20	127.12381792068481	fix_post	2		12	18.0	2.5	/experiments/AOT/AOT_stimuli/rescaled_final/2089_fw.mp4	0.0	148.42832493782043	0.10035204887390137
21	127.22416996955872	fix_pre	0		120	19.0	2.5	blank	1.0	148.52867698669434	1.0000340938568115
21	128.22420406341553	movie	1		300	19.0	2.5	blank	1.0	149.52871108055115	2.500040054321289
21	128.60022902488708	pulse	1	t		19.0	2.5	blank	1.0	149.9047360420227	
21	130.1993110179901	pulse	1	t		19.0	2.5	blank	1.0	151.50381803512573	
21	130.72424411773682	fix_post	2		12	19.0	2.5	blank	1.0	152.02875113487244	0.09996485710144043
22	130.82420897483826	fix_pre	0		119	20.0	2.5	/experiments/AOT/AOT_stimuli/rescaled_final/2150_fw.mp4	0.0	152.12871599197388	0.991671085357666
22	131.80035305023193	pulse	0	t		20.0	2.5	/experiments/AOT/AOT_stimuli/rescaled_final/2150_fw.mp4	0.0	153.10486006736755	
22	131.81588006019592	movie	1		245	20.0	2.5	/experiments/AOT/AOT_stimuli/rescaled_final/2150_fw.mp4	0.0	153.12038707733154	2.5083789825439453
22	133.40722489356995	pulse	1	t		20.0	2.5	/experiments/AOT/AOT_stimuli/rescaled_final/2150_fw.mp4	0.0	154.71173191070557	
22	134.32425904273987	fix_post	2		12	20.0	2.5	/experiments/AOT/AOT_stimuli/rescaled_final/2150_fw.mp4	0.0	155.6287660598755	0.09995293617248535
23	134.42421197891235	fix_pre	0		120	21.0	2.5	/experiments/AOT/AOT_stimuli/rescaled_final/1008_rv.mp4	0.0	155.72871899604797	1.0000479221343994
23	135.00014901161194	pulse	0	t		21.0	2.5	/experiments/AOT/AOT_stimuli/rescaled_final/1008_rv.mp4	0.0	156.30465602874756	
23	135.42425990104675	movie	1		243	21.0	2.5	/experiments/AOT/AOT_stimuli/rescaled_final/1008_rv.mp4	0.0	156.72876691818237	2.4998691082000732
23	136.60779809951782	pulse	1	t		21.0	2.5	/experiments/AOT/AOT_stimuli/rescaled_final/1008_rv.mp4	0.0	157.91230511665344	
23	137.92412900924683	fix_post	2		12	21.0	2.5	/experiments/AOT/AOT_stimuli/rescaled_final/1008_rv.mp4	0.0	159.22863602638245	0.10004901885986328
24	138.0241780281067	fix_pre	0		120	22.0	2.5	/experiments/AOT/AOT_stimuli/rescaled_final/1197_fw.mp4	0.0	159.3286850452423	1.0000128746032715
24	138.20008993148804	pulse	0	t		22.0	2.5	/experiments/AOT/AOT_stimuli/rescaled_final/1197_fw.mp4	0.0	159.50459694862366	
24	139.02419090270996	movie	1		243	22.0	2.5	/experiments/AOT/AOT_stimuli/rescaled_final/1197_fw.mp4	0.0	160.32869791984558	2.5000250339508057
24	139.80020093917847	pulse	1	t		22.0	2.5	/experiments/AOT/AOT_stimuli/rescaled_final/1197_fw.mp4	0.0	161.1047079563141	
24	141.4060139656067	pulse	1	t		22.0	2.5	/experiments/AOT/AOT_stimuli/rescaled_final/1197_fw.mp4	0.0	162.7105209827423	
24	141.52421593666077	fix_post	2		12	22.0	2.5	/experiments/AOT/AOT_stimuli/rescaled_final/1197_fw.mp4	0.0	162.8287229537964	0.09995698928833008
25	141.6241729259491	fix_pre	0		120	23.0	2.5	/experiments/AOT/AOT_stimuli/rescaled_final/1673_fw.mp4	0.0	162.92867994308472	1.0000331401824951
25	142.6242060661316	movie	1		243	23.0	2.5	/experiments/AOT/AOT_stimuli/rescaled_final/1673_fw.mp4	0.0	163.9287130832672	2.4999189376831055
25	143.00883793830872	pulse	1	t		23.0	2.5	/experiments/AOT/AOT_stimuli/rescaled_final/1673_fw.mp4	0.0	164.31334495544434	
25	144.6002640724182	pulse	1	t		23.0	2.5	/experiments/AOT/AOT_stimuli/rescaled_final/1673_fw.mp4	0.0	165.90477108955383	
25	145.1241250038147	fix_post	2		12	23.0	2.5	/experiments/AOT/AOT_stimuli/rescaled_final/1673_fw.mp4	0.0	166.42863202095032	0.10006093978881836
26	145.22418594360352	fix_pre	0		118	24.0	2.5	/experiments/AOT/AOT_stimuli/rescaled_final/1232_fw.mp4	0.0	166.52869296073914	0.983302116394043
26	146.19934511184692	pulse	0	t		24.0	2.5	/experiments/AOT/AOT_stimuli/rescaled_final/1232_fw.mp4	0.0	167.50385212898254	
26	146.20748805999756	movie	1		247	24.0	2.5	/experiments/AOT/AOT_stimuli/rescaled_final/1232_fw.mp4	0.0	167.51199507713318	2.508430004119873
26	147.80777502059937	pulse	1	t		24.0	2.5	/experiments/AOT/AOT_stimuli/rescaled_final/1232_fw.mp4	0.0	169.11228203773499	
26	148.71591806411743	fix_post	2		12	24.0	2.5	/experiments/AOT/AOT_stimuli/rescaled_final/1232_fw.mp4	0.0	170.02042508125305	0.09997987747192383
27	148.81589794158936	fix_pre	0		120	25.0	2.5	/experiments/AOT/AOT_stimuli/rescaled_final/2038_rv.mp4	0.0	170.12040495872498	0.9999699592590332
27	149.40767002105713	pulse	0	t		25.0	2.5	/experiments/AOT/AOT_stimuli/rescaled_final/2038_rv.mp4	0.0	170.71217703819275	
27	149.8158679008484	movie	1		246	25.0	2.5	/experiments/AOT/AOT_stimuli/rescaled_final/2038_rv.mp4	0.0	171.120374917984	2.499988079071045
27	151.00025391578674	pulse	1	t		25.0	2.5	/experiments/AOT/AOT_stimuli/rescaled_final/2038_rv.mp4	0.0	172.30476093292236	
27	152.31585597991943	fix_post	2		12	25.0	2.5	/experiments/AOT/AOT_stimuli/rescaled_final/2038_rv.mp4	0.0	173.62036299705505	0.10000491142272949
28	152.41586089134216	fix_pre	0		120	26.0	2.5	/experiments/AOT/AOT_stimuli/rescaled_final/0853_fw.mp4	0.0	173.72036790847778	0.9998631477355957
28	152.60020303726196	pulse	0	t		26.0	2.5	/experiments/AOT/AOT_stimuli/rescaled_final/0853_fw.mp4	0.0	173.90471005439758	
28	153.41572403907776	movie	1		246	26.0	2.5	/experiments/AOT/AOT_stimuli/rescaled_final/0853_fw.mp4	0.0	174.72023105621338	2.5000689029693604
28	154.20025491714478	pulse	1	t		26.0	2.5	/experiments/AOT/AOT_stimuli/rescaled_final/0853_fw.mp4	0.0	175.5047619342804	
28	155.80769109725952	pulse	1	t		26.0	2.5	/experiments/AOT/AOT_stimuli/rescaled_final/0853_fw.mp4	0.0	177.11219811439514	
28	155.91579294204712	fix_post	2		12	26.0	2.5	/experiments/AOT/AOT_stimuli/rescaled_final/0853_fw.mp4	0.0	177.22029995918274	0.09998917579650879
29	156.01578211784363	fix_pre	0		120	27.0	2.5	blank	1.0	177.32028913497925	0.9999618530273438
29	157.01574397087097	movie	1		300	27.0	2.5	blank	1.0	178.3202509880066	2.500102996826172
29	157.40025806427002	pulse	1	t		27.0	2.5	blank	1.0	178.70476508140564	
29	159.00011897087097	pulse	1	t		27.0	2.5	blank	1.0	180.3046259880066	
29	159.51584696769714	fix_post	2		12	27.0	2.5	blank	1.0	180.82035398483276	0.09991812705993652
30	159.61576509475708	fix_pre	0		120	28.0	2.5	/experiments/AOT/AOT_stimuli/rescaled_final/1566_rv.mp4	0.0	180.9202721118927	0.9999887943267822
30	160.60012888908386	pulse	0	t		28.0	2.5	/experiments/AOT/AOT_stimuli/rescaled_final/1566_rv.mp4	0.0	181.90463590621948	
30	160.61575388908386	movie	1		245	28.0	2.5	/experiments/AOT/AOT_stimuli/rescaled_final/1566_rv.mp4	0.0	181.92026090621948	2.5082790851593018
30	162.2073519229889	pulse	1	t		28.0	2.5	/experiments/AOT/AOT_stimuli/rescaled_final/1566_rv.mp4	0.0	183.5118589401245	
30	163.12403297424316	fix_post	2		12	28.0	2.5	/experiments/AOT/AOT_stimuli/rescaled_final/1566_rv.mp4	0.0	184.42853999137878	0.100067138671875
31	163.22410011291504	fix_pre	0		120	29.0	2.5	/experiments/AOT/AOT_stimuli/rescaled_final/2150_fw.mp4	0.0	184.52860713005066	0.9999709129333496
31	163.79996800422668	pulse	0	t		29.0	2.5	/experiments/AOT/AOT_stimuli/rescaled_final/2150_fw.mp4	0.0	185.1044750213623	
31	164.2240710258484	movie	1		243	29.0	2.5	/experiments/AOT/AOT_stimuli/rescaled_final/2150_fw.mp4	0.0	185.528578042984	2.499983072280884
31	165.40763401985168	pulse	1	t		29.0	2.5	/experiments/AOT/AOT_stimuli/rescaled_final/2150_fw.mp4	0.0	186.7121410369873	
31	166.72405409812927	fix_post	2		12	29.0	2.5	/experiments/AOT/AOT_stimuli/rescaled_final/2150_fw.mp4	0.0	188.0285611152649	0.09999394416809082
32	166.82404804229736	fix_pre	0		120	30.0	2.5	/experiments/AOT/AOT_stimuli/rescaled_final/1149_fw.mp4	0.0	188.12855505943298	1.0001299381256104
32	167.00005888938904	pulse	0	t		30.0	2.5	/experiments/AOT/AOT_stimuli/rescaled_final/1149_fw.mp4	0.0	188.30456590652466	
32	167.82417798042297	movie	1		244	30.0	2.5	/experiments/AOT/AOT_stimuli/rescaled_final/1149_fw.mp4	0.0	189.1286849975586	2.4998340606689453
32	168.60001611709595	pulse	1	t		30.0	2.5	/experiments/AOT/AOT_stimuli/rescaled_final/1149_fw.mp4	0.0	189.90452313423157	
32	170.2058401107788	pulse	1	t		30.0	2.5	/experiments/AOT/AOT_stimuli/rescaled_final/1149_fw.mp4	0.0	191.51034712791443	
32	170.32401204109192	fix_post	2		12	30.0	2.5	/experiments/AOT/AOT_stimuli/rescaled_final/1149_fw.mp4	0.0	191.62851905822754	0.10004401206970215
33	170.42405605316162	fix_pre	0		120	31.0	2.5	/experiments/AOT/AOT_stimuli/rescaled_final/0061_fw.mp4	0.0	191.72856307029724	0.9999740123748779
33	171.4240300655365	movie	1		246	31.0	2.5	/experiments/AOT/AOT_stimuli/rescaled_final/0061_fw.mp4	0.0	192.72853708267212	2.5000059604644775
33	171.80866408348083	pulse	1	t		31.0	2.5	/experiments/AOT/AOT_stimuli/rescaled_final/0061_fw.mp4	0.0	193.11317110061646	
33	173.4004590511322	pulse	1	t		31.0	2.5	/experiments/AOT/AOT_stimuli/rescaled_final/0061_fw.mp4	0.0	194.70496606826782	
33	173.92403602600098	fix_post	2		12	31.0	2.5	/experiments/AOT/AOT_stimuli/rescaled_final/0061_fw.mp4	0.0	195.2285430431366	0.09997200965881348
34	174.0240080356598	fix_pre	0		119	32.0	2.5	/experiments/AOT/AOT_stimuli/rescaled_final/0001_fw.mp4	0.0	195.3285150527954	0.9917199611663818
34	174.99994802474976	pulse	0	t		32.0	2.5	/experiments/AOT/AOT_stimuli/rescaled_final/0001_fw.mp4	0.0	196.30445504188538	
34	175.01572799682617	movie	1		247	32.0	2.5	/experiments/AOT/AOT_stimuli/rescaled_final/0001_fw.mp4	0.0	196.3202350139618	2.508310079574585
34	176.60701394081116	pulse	1	t		32.0	2.5	/experiments/AOT/AOT_stimuli/rescaled_final/0001_fw.mp4	0.0	197.91152095794678	
34	177.52403807640076	fix_post	2		12	32.0	2.5	/experiments/AOT/AOT_stimuli/rescaled_final/0001_fw.mp4	0.0	198.82854509353638	0.09998798370361328
35	177.62402606010437	fix_pre	0		120	33.0	2.5	/experiments/AOT/AOT_stimuli/rescaled_final/2093_fw.mp4	0.0	198.92853307724	0.9999139308929443
35	178.19988203048706	pulse	0	t		33.0	2.5	/experiments/AOT/AOT_stimuli/rescaled_final/2093_fw.mp4	0.0	199.50438904762268	
35	178.62393999099731	movie	1		243	33.0	2.5	/experiments/AOT/AOT_stimuli/rescaled_final/2093_fw.mp4	0.0	199.92844700813293	2.5000669956207275
35	179.80749011039734	pulse	1	t		33.0	2.5	/experiments/AOT/AOT_stimuli/rescaled_final/2093_fw.mp4	0.0	201.11199712753296	
35	181.12400698661804	fix_post	2		12	33.0	2.5	/experiments/AOT/AOT_stimuli/rescaled_final/2093_fw.mp4	0.0	202.42851400375366	0.09995698928833008
36	181.22396397590637	fix_pre	0		120	34.0	2.5	blank	1.0	202.528470993042	1.0001020431518555
36	181.40746903419495	pulse	0	t		34.0	2.5	blank	1.0	202.71197605133057	
36	182.22406601905823	movie	1		300	34.0	2.5	blank	1.0	203.52857303619385	2.499845027923584
36	183.00754189491272	pulse	1	t		34.0	2.5	blank	1.0	204.31204891204834	
36	184.59989500045776	pulse	1	t		34.0	2.5	blank	1.0	205.90440201759338	
36	184.7239110469818	fix_post	2		12	34.0	2.5	blank	1.0	206.02841806411743	0.09998297691345215
37	184.82389402389526	fix_pre	0		120	35.0	2.5	/experiments/AOT/AOT_stimuli/rescaled_final/1005_fw.mp4	0.0	206.12840104103088	1.0001399517059326
37	185.8240339756012	movie	1		244	35.0	2.5	/experiments/AOT/AOT_stimuli/rescaled_final/1005_fw.mp4	0.0	207.12854099273682	2.499911069869995
37	186.20704293251038	pulse	1	t		35.0	2.5	/experiments/AOT/AOT_stimuli/rescaled_final/1005_fw.mp4	0.0	207.511549949646	
37	187.8001000881195	pulse	1	t		35.0	2.5	/experiments/AOT/AOT_stimuli/rescaled_final/1005_fw.mp4	0.0	209.10460710525513	
37	188.3239450454712	fix_post	2		12	35.0	2.5	/experiments/AOT/AOT_stimuli/rescaled_final/1005_fw.mp4	0.0	209.6284520626068	0.1000070571899414
38	188.42395210266113	fix_pre	0		119	36.0	2.5	/experiments/AOT/AOT_stimuli/rescaled_final/0266_rv.mp4	0.0	209.72845911979675	0.9916689395904541
38	189.39998507499695	pulse	0	t		36.0	2.5	/experiments/AOT/AOT_stimuli/rescaled_final/0266_rv.mp4	0.0	210.70449209213257	
38	189.4156210422516	movie	1		246	36.0	2.5	/experiments/AOT/AOT_stimuli/rescaled_final/0266_rv.mp4	0.0	210.7201280593872	2.508293867111206
38	191.00851798057556	pulse	1	t		36.0	2.5	/experiments/AOT/AOT_stimuli/rescaled_final/0266_rv.mp4	0.0	212.31302499771118	
38	191.9239149093628	fix_post	2		12	36.0	2.5	/experiments/AOT/AOT_stimuli/rescaled_final/0266_rv.mp4	0.0	213.2284219264984	0.10007214546203613
39	192.02398705482483	fix_pre	0		120	37.0	2.5	/experiments/AOT/AOT_stimuli/rescaled_final/1399_fw.mp4	0.0	213.32849407196045	0.9999499320983887
39	192.59993410110474	pulse	0	t		37.0	2.5	/experiments/AOT/AOT_stimuli/rescaled_final/1399_fw.mp4	0.0	213.90444111824036	
39	193.02393698692322	movie	1		245	37.0	2.5	/experiments/AOT/AOT_stimuli/rescaled_final/1399_fw.mp4	0.0	214.32844400405884	2.5001111030578613
39	194.2075490951538	pulse	1	t		37.0	2.5	/experiments/AOT/AOT_stimuli/rescaled_final/1399_fw.mp4	0.0	215.51205611228943	
39	195.52404808998108	fix_post	2		12	37.0	2.5	/experiments/AOT/AOT_stimuli/rescaled_final/1399_fw.mp4	0.0	216.8285551071167	0.0999150276184082
40	195.6239631175995	fix_pre	0		120	38.0	2.5	/experiments/AOT/AOT_stimuli/rescaled_final/0557_fw.mp4	0.0	216.9284701347351	1.0
40	195.79992389678955	pulse	0	t		38.0	2.5	/experiments/AOT/AOT_stimuli/rescaled_final/0557_fw.mp4	0.0	217.10443091392517	
40	196.6239631175995	movie	1		244	38.0	2.5	/experiments/AOT/AOT_stimuli/rescaled_final/0557_fw.mp4	0.0	217.9284701347351	2.4999539852142334
40	197.40731406211853	pulse	1	t		38.0	2.5	/experiments/AOT/AOT_stimuli/rescaled_final/0557_fw.mp4	0.0	218.71182107925415	
40	199.00545191764832	pulse	1	t		38.0	2.5	/experiments/AOT/AOT_stimuli/rescaled_final/0557_fw.mp4	0.0	220.30995893478394	
40	199.12391710281372	fix_post	2		12	38.0	2.5	/experiments/AOT/AOT_stimuli/rescaled_final/0557_fw.mp4	0.0	220.42842411994934	0.10006594657897949
41	199.2239830493927	fix_pre	0		120	39.0	2.5	/experiments/AOT/AOT_stimuli/rescaled_final/0061_rv.mp4	0.0	220.52849006652832	0.9999659061431885
41	200.2239489555359	movie	1		244	39.0	2.5	/experiments/AOT/AOT_stimuli/rescaled_final/0061_rv.mp4	0.0	221.5284559726715	2.4999940395355225
41	200.6070261001587	pulse	1	t		39.0	2.5	/experiments/AOT/AOT_stimuli/rescaled_final/0061_rv.mp4	0.0	221.9115331172943	
41	202.20001792907715	pulse	1	t		39.0	2.5	/experiments/AOT/AOT_stimuli/rescaled_final/0061_rv.mp4	0.0	223.50452494621277	
41	202.7239429950714	fix_post	2		12	39.0	2.5	/experiments/AOT/AOT_stimuli/rescaled_final/0061_rv.mp4	0.0	224.02845001220703	0.10001206398010254
42	202.8239550590515	fix_pre	0		119	40.0	2.5	blank	1.0	224.12846207618713	0.9915640354156494
42	203.79979991912842	pulse	0	t		40.0	2.5	blank	1.0	225.10430693626404	
42	203.81551909446716	movie	1		301	40.0	2.5	blank	1.0	225.12002611160278	2.508435010910034
42	205.3998510837555	pulse	1	t		40.0	2.5	blank	1.0	226.7043581008911	
42	206.3239541053772	fix_post	2		12	40.0	2.5	blank	1.0	227.62846112251282	0.0998837947845459
43	206.42383790016174	fix_pre	0		120	41.0	2.5	/experiments/AOT/AOT_stimuli/rescaled_final/1551_rv.mp4	0.0	227.72834491729736	0.9995841979980469
43	206.9998369216919	pulse	0	t		41.0	2.5	/experiments/AOT/AOT_stimuli/rescaled_final/1551_rv.mp4	0.0	228.30434393882751	
43	207.4234220981598	movie	1		244	41.0	2.5	/experiments/AOT/AOT_stimuli/rescaled_final/1551_rv.mp4	0.0	228.7279291152954	2.5004827976226807
43	208.5998730659485	pulse	1	t		41.0	2.5	/experiments/AOT/AOT_stimuli/rescaled_final/1551_rv.mp4	0.0	229.9043800830841	
43	209.92390489578247	fix_post	2		12	41.0	2.5	/experiments/AOT/AOT_stimuli/rescaled_final/1551_rv.mp4	0.0	231.2284119129181	0.09990119934082031
44	210.0238060951233	fix_pre	0		120	42.0	2.5	/experiments/AOT/AOT_stimuli/rescaled_final/2043_fw.mp4	0.0	231.3283131122589	1.0000059604644775
44	210.19984889030457	pulse	0	t		42.0	2.5	/experiments/AOT/AOT_stimuli/rescaled_final/2043_fw.mp4	0.0	231.50435590744019	
44	211.02381205558777	movie	1		246	42.0	2.5	/experiments/AOT/AOT_stimuli/rescaled_final/2043_fw.mp4	0.0	232.3283190727234	2.5001258850097656
44	211.79990410804749	pulse	1	t		42.0	2.5	/experiments/AOT/AOT_stimuli/rescaled_final/2043_fw.mp4	0.0	233.1044111251831	
44	213.405935049057	pulse	1	t		42.0	2.5	/experiments/AOT/AOT_stimuli/rescaled_final/2043_fw.mp4	0.0	234.71044206619263	
44	213.52393794059753	fix_post	2		12	42.0	2.5	/experiments/AOT/AOT_stimuli/rescaled_final/2043_fw.mp4	0.0	234.82844495773315	0.09988117218017578
45	213.6238191127777	fix_pre	0		120	43.0	2.5	/experiments/AOT/AOT_stimuli/rescaled_final/0981_rv.mp4	0.0	234.92832612991333	1.000044822692871
45	214.62386393547058	movie	1		244	43.0	2.5	/experiments/AOT/AOT_stimuli/rescaled_final/0981_rv.mp4	0.0	235.9283709526062	2.5
45	215.0067799091339	pulse	1	t		43.0	2.5	/experiments/AOT/AOT_stimuli/rescaled_final/0981_rv.mp4	0.0	236.31128692626953	
45	216.60749793052673	pulse	1	t		43.0	2.5	/experiments/AOT/AOT_stimuli/rescaled_final/0981_rv.mp4	0.0	237.91200494766235	
45	217.12386393547058	fix_post	2		12	43.0	2.5	/experiments/AOT/AOT_stimuli/rescaled_final/0981_rv.mp4	0.0	238.4283709526062	0.10002017021179199
46	217.22388410568237	fix_pre	0		119	44.0	2.5	/experiments/AOT/AOT_stimuli/rescaled_final/1849_rv.mp4	0.0	238.528391122818	0.9916379451751709
46	218.20728707313538	pulse	0	t		44.0	2.5	/experiments/AOT/AOT_stimuli/rescaled_final/1849_rv.mp4	0.0	239.511794090271	
46	218.21552205085754	movie	1		243	44.0	2.5	/experiments/AOT/AOT_stimuli/rescaled_final/1849_rv.mp4	0.0	239.52002906799316	2.5083940029144287
46	219.80692410469055	pulse	1	t		44.0	2.5	/experiments/AOT/AOT_stimuli/rescaled_final/1849_rv.mp4	0.0	241.11143112182617	
46	220.72391605377197	fix_post	2		12	44.0	2.5	/experiments/AOT/AOT_stimuli/rescaled_final/1849_rv.mp4	0.0	242.0284230709076	0.09995794296264648
47	220.82387399673462	fix_pre	0		120	45.0	2.5	/experiments/AOT/AOT_stimuli/rescaled_final/0316_rv.mp4	0.0	242.12838101387024	0.9999430179595947
47	221.3997540473938	pulse	0	t		45.0	2.5	/experiments/AOT/AOT_stimuli/rescaled_final/0316_rv.mp4	0.0	242.70426106452942	
47	221.8238170146942	movie	1		245	45.0	2.5	/experiments/AOT/AOT_stimuli/rescaled_final/0316_rv.mp4	0.0	243.12832403182983	2.4999380111694336
47	223.00735998153687	pulse	1	t		45.0	2.5	/experiments/AOT/AOT_stimuli/rescaled_final/0316_rv.mp4	0.0	244.31186699867249	
47	224.32375502586365	fix_post	2		12	45.0	2.5	/experiments/AOT/AOT_stimuli/rescaled_final/0316_rv.mp4	0.0	245.62826204299927	0.10002493858337402
48	224.42377996444702	fix_pre	0		120	46.0	2.5	/experiments/AOT/AOT_stimuli/rescaled_final/0347_rv.mp4	0.0	245.72828698158264	1.0001721382141113
48	224.5998411178589	pulse	0	t		46.0	2.5	/experiments/AOT/AOT_stimuli/rescaled_final/0347_rv.mp4	0.0	245.9043481349945	
48	225.42395210266113	movie	1		243	46.0	2.5	/experiments/AOT/AOT_stimuli/rescaled_final/0347_rv.mp4	0.0	246.72845911979675	2.499508857727051
48	226.20680689811707	pulse	1	t		46.0	2.5	/experiments/AOT/AOT_stimuli/rescaled_final/0347_rv.mp4	0.0	247.51131391525269	
48	227.80538606643677	pulse	1	t		46.0	2.5	/experiments/AOT/AOT_stimuli/rescaled_final/0347_rv.mp4	0.0	249.1098930835724	
48	227.92346096038818	fix_post	2		12	46.0	2.5	/experiments/AOT/AOT_stimuli/rescaled_final/0347_rv.mp4	0.0	249.2279679775238	0.10007214546203613
49	228.02353310585022	fix_pre	0		120	47.0	2.5	blank	1.0	249.32804012298584	1.0001227855682373
49	229.02365589141846	movie	1		300	47.0	2.5	blank	1.0	250.32816290855408	2.4996421337127686
49	229.4072289466858	pulse	1	t		47.0	2.5	blank	1.0	250.7117359638214	
49	231.00733304023743	pulse	1	t		47.0	2.5	blank	1.0	252.31184005737305	
49	231.52329802513123	fix_post	2		12	47.0	2.5	blank	1.0	252.82780504226685	0.1004948616027832
50	231.623792886734	fix_pre	0		119	48.0	2.5	/experiments/AOT/AOT_stimuli/rescaled_final/1000_rv.mp4	0.0	252.92829990386963	0.9916160106658936
50	232.60725903511047	pulse	0	t		48.0	2.5	/experiments/AOT/AOT_stimuli/rescaled_final/1000_rv.mp4	0.0	253.9117660522461	
50	232.6154088973999	movie	1		245	48.0	2.5	/experiments/AOT/AOT_stimuli/rescaled_final/1000_rv.mp4	0.0	253.91991591453552	2.508355140686035
50	234.20863890647888	pulse	1	t		48.0	2.5	/experiments/AOT/AOT_stimuli/rescaled_final/1000_rv.mp4	0.0	255.5131459236145	
50	235.12376403808594	fix_post	2		12	48.0	2.5	/experiments/AOT/AOT_stimuli/rescaled_final/1000_rv.mp4	0.0	256.42827105522156	0.09992384910583496
51	235.22368788719177	fix_pre	0		120	49.0	2.5	/experiments/AOT/AOT_stimuli/rescaled_final/0743_rv.mp4	0.0	256.5281949043274	1.0000710487365723
51	235.80730390548706	pulse	0	t		49.0	2.5	/experiments/AOT/AOT_stimuli/rescaled_final/0743_rv.mp4	0.0	257.1118109226227	
51	236.22375893592834	movie	1		245	49.0	2.5	/experiments/AOT/AOT_stimuli/rescaled_final/0743_rv.mp4	0.0	257.52826595306396	2.49992299079895
51	237.40723299980164	pulse	1	t		49.0	2.5	/experiments/AOT/AOT_stimuli/rescaled_final/0743_rv.mp4	0.0	258.71174001693726	
51	238.7236819267273	fix_post	2		12	49.0	2.5	/experiments/AOT/AOT_stimuli/rescaled_final/0743_rv.mp4	0.0	260.0281889438629	0.09997797012329102
52	238.8236598968506	fix_pre	0		120	50.0	2.5	/experiments/AOT/AOT_stimuli/rescaled_final/0584_rv.mp4	0.0	260.1281669139862	0.9999511241912842
52	239.00718998908997	pulse	0	t		50.0	2.5	/experiments/AOT/AOT_stimuli/rescaled_final/0584_rv.mp4	0.0	260.3116970062256	
52	239.82361102104187	movie	1		247	50.0	2.5	/experiments/AOT/AOT_stimuli/rescaled_final/0584_rv.mp4	0.0	261.1281180381775	2.5000860691070557
52	240.59967803955078	pulse	1	t		50.0	2.5	/experiments/AOT/AOT_stimuli/rescaled_final/0584_rv.mp4	0.0	261.9041850566864	
52	242.20548510551453	pulse	1	t		50.0	2.5	/experiments/AOT/AOT_stimuli/rescaled_final/0584_rv.mp4	0.0	263.50999212265015	
52	242.32369709014893	fix_post	2		12	50.0	2.5	/experiments/AOT/AOT_stimuli/rescaled_final/0584_rv.mp4	0.0	263.62820410728455	0.09994292259216309
53	242.4236400127411	fix_pre	0		120	51.0	2.5	/experiments/AOT/AOT_stimuli/rescaled_final/1615_rv.mp4	0.0	263.7281470298767	1.0001020431518555
53	243.42374205589294	movie	1		246	51.0	2.5	/experiments/AOT/AOT_stimuli/rescaled_final/1615_rv.mp4	0.0	264.72824907302856	2.4999349117279053
53	243.8066909313202	pulse	1	t		51.0	2.5	/experiments/AOT/AOT_stimuli/rescaled_final/1615_rv.mp4	0.0	265.1111979484558	
53	245.40716695785522	pulse	1	t		51.0	2.5	/experiments/AOT/AOT_stimuli/rescaled_final/1615_rv.mp4	0.0	266.71167397499084	
53	245.92367696762085	fix_post	2		12	51.0	2.5	/experiments/AOT/AOT_stimuli/rescaled_final/1615_rv.mp4	0.0	267.22818398475647	0.09997797012329102
54	246.02365493774414	fix_pre	0		119	52.0	2.5	/experiments/AOT/AOT_stimuli/rescaled_final/1299_rv.mp4	0.0	267.32816195487976	0.9917521476745605
54	247.00718593597412	pulse	0	t		52.0	2.5	/experiments/AOT/AOT_stimuli/rescaled_final/1299_rv.mp4	0.0	268.31169295310974	
54	247.0154070854187	movie	1		244	52.0	2.5	/experiments/AOT/AOT_stimuli/rescaled_final/1299_rv.mp4	0.0	268.3199141025543	2.5082828998565674
54	248.60830807685852	pulse	1	t		52.0	2.5	/experiments/AOT/AOT_stimuli/rescaled_final/1299_rv.mp4	0.0	269.91281509399414	
54	249.52368998527527	fix_post	2		12	52.0	2.5	/experiments/AOT/AOT_stimuli/rescaled_final/1299_rv.mp4	0.0	270.8281970024109	0.0999760627746582
55	249.62366604804993	fix_pre	0		120	53.0	2.5	/experiments/AOT/AOT_stimuli/rescaled_final/1512_rv.mp4	0.0	270.92817306518555	1.0000379085540771
55	250.20714688301086	pulse	0	t		53.0	2.5	/experiments/AOT/AOT_stimuli/rescaled_final/1512_rv.mp4	0.0	271.5116539001465	
55	250.623703956604	movie	1		243	53.0	2.5	/experiments/AOT/AOT_stimuli/rescaled_final/1512_rv.mp4	0.0	271.9282109737396	2.499904155731201
55	251.80720210075378	pulse	1	t		53.0	2.5	/experiments/AOT/AOT_stimuli/rescaled_final/1512_rv.mp4	0.0	273.1117091178894	
55	253.1236081123352	fix_post	2		12	53.0	2.5	/experiments/AOT/AOT_stimuli/rescaled_final/1512_rv.mp4	0.0	274.4281151294708	0.09995889663696289
56	253.22356700897217	fix_pre	0		120	54.0	2.5	blank	1.0	274.5280740261078	1.0000429153442383
56	253.40726804733276	pulse	0	t		54.0	2.5	blank	1.0	274.7117750644684	
56	254.2236099243164	movie	1		300	54.0	2.5	blank	1.0	275.528116941452	2.500041961669922
56	255.00725388526917	pulse	1	t		54.0	2.5	blank	1.0	276.3117609024048	
56	256.60710096359253	pulse	1	t		54.0	2.5	blank	1.0	277.91160798072815	
56	256.7236518859863	fix_post	2		12	54.0	2.5	blank	1.0	278.02815890312195	0.09994101524353027
57	256.82359290122986	fix_pre	0		120	55.0	2.5	/experiments/AOT/AOT_stimuli/rescaled_final/1129_rv.mp4	0.0	278.1280999183655	1.0000882148742676
57	257.8236811161041	movie	1		245	55.0	2.5	/experiments/AOT/AOT_stimuli/rescaled_final/1129_rv.mp4	0.0	279.12818813323975	2.5000059604644775
57	258.2066431045532	pulse	1	t		55.0	2.5	/experiments/AOT/AOT_stimuli/rescaled_final/1129_rv.mp4	0.0	279.51115012168884	
57	259.7998309135437	pulse	1	t		55.0	2.5	/experiments/AOT/AOT_stimuli/rescaled_final/1129_rv.mp4	0.0	281.1043379306793	
57	260.3236870765686	fix_post	2		12	55.0	2.5	/experiments/AOT/AOT_stimuli/rescaled_final/1129_rv.mp4	0.0	281.6281940937042	0.09999299049377441
58	260.4236800670624	fix_pre	0		119	56.0	2.5	/experiments/AOT/AOT_stimuli/rescaled_final/1062_fw.mp4	0.0	281.728187084198	0.9915988445281982
58	261.4071319103241	pulse	0	t		56.0	2.5	/experiments/AOT/AOT_stimuli/rescaled_final/1062_fw.mp4	0.0	282.7116389274597	
58	261.4152789115906	movie	1		247	56.0	2.5	/experiments/AOT/AOT_stimuli/rescaled_final/1062_fw.mp4	0.0	282.7197859287262	2.5083839893341064
58	263.0066430568695	pulse	1	t		56.0	2.5	/experiments/AOT/AOT_stimuli/rescaled_final/1062_fw.mp4	0.0	284.3111500740051	
58	263.9236629009247	fix_post	2		12	56.0	2.5	/experiments/AOT/AOT_stimuli/rescaled_final/1062_fw.mp4	0.0	285.2281699180603	0.10001516342163086
59	264.0236780643463	fix_pre	0		120	57.0	2.5	/experiments/AOT/AOT_stimuli/rescaled_final/1263_fw.mp4	0.0	285.32818508148193	0.9999158382415771
59	264.60706305503845	pulse	0	t		57.0	2.5	/experiments/AOT/AOT_stimuli/rescaled_final/1263_fw.mp4	0.0	285.9115700721741	
59	265.0235939025879	movie	1		245	57.0	2.5	/experiments/AOT/AOT_stimuli/rescaled_final/1263_fw.mp4	0.0	286.3281009197235	2.500005006790161
59	266.2071940898895	pulse	1	t		57.0	2.5	/experiments/AOT/AOT_stimuli/rescaled_final/1263_fw.mp4	0.0	287.51170110702515	
59	267.52359890937805	fix_post	2		12	57.0	2.5	/experiments/AOT/AOT_stimuli/rescaled_final/1263_fw.mp4	0.0	288.8281059265137	0.09998106956481934
60	267.62357997894287	fix_pre	0		120	58.0	2.5	/experiments/AOT/AOT_stimuli/rescaled_final/0791_fw.mp4	0.0	288.9280869960785	1.0000059604644775
60	267.8070011138916	pulse	0	t		58.0	2.5	/experiments/AOT/AOT_stimuli/rescaled_final/0791_fw.mp4	0.0	289.1115081310272	
60	268.62358593940735	movie	1		243	58.0	2.5	/experiments/AOT/AOT_stimuli/rescaled_final/0791_fw.mp4	0.0	289.92809295654297	2.5000109672546387
60	269.4070761203766	pulse	1	t		58.0	2.5	/experiments/AOT/AOT_stimuli/rescaled_final/0791_fw.mp4	0.0	290.7115831375122	
60	271.00558495521545	pulse	1	t		58.0	2.5	/experiments/AOT/AOT_stimuli/rescaled_final/0791_fw.mp4	0.0	292.3100919723511	
60	271.123596906662	fix_post	2		12	58.0	2.5	/experiments/AOT/AOT_stimuli/rescaled_final/0791_fw.mp4	0.0	292.4281039237976	0.10000920295715332
61	271.22360610961914	fix_pre	0		120	59.0	2.5	/experiments/AOT/AOT_stimuli/rescaled_final/1357_rv.mp4	0.0	292.52811312675476	0.9999978542327881
61	272.22360396385193	movie	1		243	59.0	2.5	/experiments/AOT/AOT_stimuli/rescaled_final/1357_rv.mp4	0.0	293.52811098098755	2.4999890327453613
61	272.60644602775574	pulse	1	t		59.0	2.5	/experiments/AOT/AOT_stimuli/rescaled_final/1357_rv.mp4	0.0	293.91095304489136	
61	274.19971895217896	pulse	1	t		59.0	2.5	/experiments/AOT/AOT_stimuli/rescaled_final/1357_rv.mp4	0.0	295.5042259693146	
61	274.7235929965973	fix_post	2		12	59.0	2.5	/experiments/AOT/AOT_stimuli/rescaled_final/1357_rv.mp4	0.0	296.0281000137329	0.09997701644897461
62	274.82357001304626	fix_pre	0		119	60.0	2.5	/experiments/AOT/AOT_stimuli/rescaled_final/1192_fw.mp4	0.0	296.1280770301819	0.9915270805358887
62	275.79961705207825	pulse	0	t		60.0	2.5	/experiments/AOT/AOT_stimuli/rescaled_final/1192_fw.mp4	0.0	297.10412406921387	
62	275.81509709358215	movie	1		244	60.0	2.5	/experiments/AOT/AOT_stimuli/rescaled_final/1192_fw.mp4	0.0	297.1196041107178	2.508450984954834
62	277.4071409702301	pulse	1	t		60.0	2.5	/experiments/AOT/AOT_stimuli/rescaled_final/1192_fw.mp4	0.0	298.7116479873657	
62	278.323548078537	fix_post	2		12	60.0	2.5	/experiments/AOT/AOT_stimuli/rescaled_final/1192_fw.mp4	0.0	299.6280550956726	0.09994292259216309
63	278.42349100112915	fix_pre	0		120	61.0	2.5	/experiments/AOT/AOT_stimuli/rescaled_final/1751_rv.mp4	0.0	299.72799801826477	1.0001039505004883
63	279.007150888443	pulse	0	t		61.0	2.5	/experiments/AOT/AOT_stimuli/rescaled_final/1751_rv.mp4	0.0	300.3116579055786	
63	279.42359495162964	movie	1		245	61.0	2.5	/experiments/AOT/AOT_stimuli/rescaled_final/1751_rv.mp4	0.0	300.72810196876526	2.4995150566101074
63	280.6071639060974	pulse	1	t		61.0	2.5	/experiments/AOT/AOT_stimuli/rescaled_final/1751_rv.mp4	0.0	301.91167092323303	
63	281.92311000823975	fix_post	2		12	61.0	2.5	/experiments/AOT/AOT_stimuli/rescaled_final/1751_rv.mp4	0.0	303.22761702537537	0.1003561019897461
64	282.0234661102295	fix_pre	0		120	62.0	2.5	blank	1.0	303.3279731273651	0.9996578693389893
64	282.20657110214233	pulse	0	t		62.0	2.5	blank	1.0	303.51107811927795	
64	283.0231239795685	movie	1		300	62.0	2.5	blank	1.0	304.3276309967041	2.5002799034118652
64	283.8071069717407	pulse	1	t		62.0	2.5	blank	1.0	305.11161398887634	
64	285.40707206726074	pulse	1	t		62.0	2.5	blank	1.0	306.71157908439636	
64	285.52340388298035	fix_post	2		12	62.0	2.5	blank	1.0	306.82791090011597	0.10005712509155273
65	285.6234610080719	fix_pre	0		120	63.0	2.5	/experiments/AOT/AOT_stimuli/rescaled_final/0008_rv.mp4	0.0	306.9279680252075	1.0000839233398438
65	286.62354493141174	movie	1		244	63.0	2.5	/experiments/AOT/AOT_stimuli/rescaled_final/0008_rv.mp4	0.0	307.92805194854736	2.4999921321868896
65	287.00622296333313	pulse	1	t		63.0	2.5	/experiments/AOT/AOT_stimuli/rescaled_final/0008_rv.mp4	0.0	308.31072998046875	
65	288.6069281101227	pulse	1	t		63.0	2.5	/experiments/AOT/AOT_stimuli/rescaled_final/0008_rv.mp4	0.0	309.9114351272583	
65	289.12353706359863	fix_post	2		12	63.0	2.5	/experiments/AOT/AOT_stimuli/rescaled_final/0008_rv.mp4	0.0	310.42804408073425	0.09989404678344727
66	289.2234311103821	fix_pre	0		119	64.0	2.5	/experiments/AOT/AOT_stimuli/rescaled_final/0005_rv.mp4	0.0	310.5279381275177	0.991703987121582
66	290.2069261074066	pulse	0	t		64.0	2.5	/experiments/AOT/AOT_stimuli/rescaled_final/0005_rv.mp4	0.0	311.51143312454224	
66	290.21513509750366	movie	1		245	64.0	2.5	/experiments/AOT/AOT_stimuli/rescaled_final/0005_rv.mp4	0.0	311.5196421146393	2.5083279609680176
66	291.80658292770386	pulse	1	t		64.0	2.5	/experiments/AOT/AOT_stimuli/rescaled_final/0005_rv.mp4	0.0	313.1110899448395	
66	292.7234630584717	fix_post	2		12	64.0	2.5	/experiments/AOT/AOT_stimuli/rescaled_final/0005_rv.mp4	0.0	314.0279700756073	0.1000969409942627
67	292.82355999946594	fix_pre	0		120	65.0	2.5	/experiments/AOT/AOT_stimuli/rescaled_final/0212_fw.mp4	0.0	314.12806701660156	0.9998950958251953
67	293.4069380760193	pulse	0	t		65.0	2.5	/experiments/AOT/AOT_stimuli/rescaled_final/0212_fw.mp4	0.0	314.7114450931549	
67	293.82345509529114	movie	1		244	65.0	2.5	/experiments/AOT/AOT_stimuli/rescaled_final/0212_fw.mp4	0.0	315.12796211242676	2.5000109672546387
67	295.0069739818573	pulse	1	t		65.0	2.5	/experiments/AOT/AOT_stimuli/rescaled_final/0212_fw.mp4	0.0	316.3114809989929	
67	296.3234660625458	fix_post	2		12	65.0	2.5	/experiments/AOT/AOT_stimuli/rescaled_final/0212_fw.mp4	0.0	317.6279730796814	0.09998893737792969
68	296.4234549999237	fix_pre	0		120	66.0	2.5	/experiments/AOT/AOT_stimuli/rescaled_final/0837_fw.mp4	0.0	317.7279620170593	0.9999680519104004
68	296.6069669723511	pulse	0	t		66.0	2.5	/experiments/AOT/AOT_stimuli/rescaled_final/0837_fw.mp4	0.0	317.9114739894867	
68	297.4234230518341	movie	1		243	66.0	2.5	/experiments/AOT/AOT_stimuli/rescaled_final/0837_fw.mp4	0.0	318.7279300689697	2.5000100135803223
68	298.2068989276886	pulse	1	t		66.0	2.5	/experiments/AOT/AOT_stimuli/rescaled_final/0837_fw.mp4	0.0	319.5114059448242	
68	299.80498790740967	pulse	1	t		66.0	2.5	/experiments/AOT/AOT_stimuli/rescaled_final/0837_fw.mp4	0.0	321.1094949245453	
68	299.92343306541443	fix_post	2		12	66.0	2.5	/experiments/AOT/AOT_stimuli/rescaled_final/0837_fw.mp4	0.0	321.22794008255005	0.09995698928833008
69	300.02339005470276	fix_pre	0		120	67.0	2.5	/experiments/AOT/AOT_stimuli/rescaled_final/1512_fw.mp4	0.0	321.3278970718384	1.0000309944152832
69	301.02342104911804	movie	1		243	67.0	2.5	/experiments/AOT/AOT_stimuli/rescaled_final/1512_fw.mp4	0.0	322.32792806625366	2.500020980834961
69	301.4063529968262	pulse	1	t		67.0	2.5	/experiments/AOT/AOT_stimuli/rescaled_final/1512_fw.mp4	0.0	322.7108600139618	
69	303.00690603256226	pulse	1	t		67.0	2.5	/experiments/AOT/AOT_stimuli/rescaled_final/1512_fw.mp4	0.0	324.3114130496979	
69	303.523442029953	fix_post	2		12	67.0	2.5	/experiments/AOT/AOT_stimuli/rescaled_final/1512_fw.mp4	0.0	324.8279490470886	0.10000991821289062
70	303.6234519481659	fix_pre	0		119	68.0	2.5	/experiments/AOT/AOT_stimuli/rescaled_final/0810_fw.mp4	0.0	324.9279589653015	0.9916150569915771
70	304.60686898231506	pulse	0	t		68.0	2.5	/experiments/AOT/AOT_stimuli/rescaled_final/0810_fw.mp4	0.0	325.9113759994507	
70	304.61506700515747	movie	1		245	68.0	2.5	/experiments/AOT/AOT_stimuli/rescaled_final/0810_fw.mp4	0.0	325.9195740222931	2.5082650184631348
70	306.20637798309326	pulse	1	t		68.0	2.5	/experiments/AOT/AOT_stimuli/rescaled_final/0810_fw.mp4	0.0	327.5108850002289	
70	307.1233320236206	fix_post	2		12	68.0	2.5	/experiments/AOT/AOT_stimuli/rescaled_final/0810_fw.mp4	0.0	328.4278390407562	0.09995198249816895
71	307.2232840061188	fix_pre	0		120	69.0	2.5	/experiments/AOT/AOT_stimuli/rescaled_final/0582_rv.mp4	0.0	328.5277910232544	1.0000829696655273
71	307.806902885437	pulse	0	t		69.0	2.5	/experiments/AOT/AOT_stimuli/rescaled_final/0582_rv.mp4	0.0	329.11140990257263	
71	308.2233669757843	movie	1		245	69.0	2.5	/experiments/AOT/AOT_stimuli/rescaled_final/0582_rv.mp4	0.0	329.5278739929199	2.4999210834503174
71	309.4069049358368	pulse	1	t		69.0	2.5	/experiments/AOT/AOT_stimuli/rescaled_final/0582_rv.mp4	0.0	330.7114119529724	
71	310.7232880592346	fix_post	2		12	69.0	2.5	/experiments/AOT/AOT_stimuli/rescaled_final/0582_rv.mp4	0.0	332.02779507637024	0.1000678539276123
72	310.82335591316223	fix_pre	0		120	70.0	2.5	blank	1.0	332.12786293029785	0.9999611377716064
72	311.0068919658661	pulse	0	t		70.0	2.5	blank	1.0	332.3113989830017	
72	311.82331705093384	movie	1		300	70.0	2.5	blank	1.0	333.12782406806946	2.500095844268799
72	312.6068859100342	pulse	1	t		70.0	2.5	blank	1.0	333.9113929271698	
72	314.2068119049072	pulse	1	t		70.0	2.5	blank	1.0	335.51131892204285	
72	314.32341289520264	fix_post	2		12	70.0	2.5	blank	1.0	335.62791991233826	0.09994912147521973
73	314.42336201667786	fix_pre	0		120	71.0	2.5	/experiments/AOT/AOT_stimuli/rescaled_final/1565_rv.mp4	0.0	335.7278690338135	1.0000009536743164
73	315.4233629703522	movie	1		245	71.0	2.5	/experiments/AOT/AOT_stimuli/rescaled_final/1565_rv.mp4	0.0	336.7278699874878	2.4999899864196777
73	315.8071711063385	pulse	1	t		71.0	2.5	/experiments/AOT/AOT_stimuli/rescaled_final/1565_rv.mp4	0.0	337.1116781234741	
73	317.4069039821625	pulse	1	t		71.0	2.5	/experiments/AOT/AOT_stimuli/rescaled_final/1565_rv.mp4	0.0	338.7114109992981	
73	317.92335295677185	fix_post	2		12	71.0	2.5	/experiments/AOT/AOT_stimuli/rescaled_final/1565_rv.mp4	0.0	339.22785997390747	0.09991908073425293
74	318.0232720375061	fix_pre	0		119	72.0	2.5	/experiments/AOT/AOT_stimuli/rescaled_final/1700_fw.mp4	0.0	339.3277790546417	0.9916739463806152
74	319.0068039894104	pulse	0	t		72.0	2.5	/experiments/AOT/AOT_stimuli/rescaled_final/1700_fw.mp4	0.0	340.311311006546	
74	319.0149459838867	movie	1		244	72.0	2.5	/experiments/AOT/AOT_stimuli/rescaled_final/1700_fw.mp4	0.0	340.31945300102234	2.508441925048828
74	320.60652899742126	pulse	1	t		72.0	2.5	/experiments/AOT/AOT_stimuli/rescaled_final/1700_fw.mp4	0.0	341.9110360145569	
74	321.52338790893555	fix_post	2		12	72.0	2.5	/experiments/AOT/AOT_stimuli/rescaled_final/1700_fw.mp4	0.0	342.82789492607117	0.0999300479888916
75	321.62331795692444	fix_pre	0		120	73.0	2.5	/experiments/AOT/AOT_stimuli/rescaled_final/0397_fw.mp4	0.0	342.92782497406006	0.9999880790710449
75	322.2068090438843	pulse	0	t		73.0	2.5	/experiments/AOT/AOT_stimuli/rescaled_final/0397_fw.mp4	0.0	343.5113160610199	
75	322.6233060359955	movie	1		244	73.0	2.5	/experiments/AOT/AOT_stimuli/rescaled_final/0397_fw.mp4	0.0	343.9278130531311	2.5000150203704834
75	323.80688095092773	pulse	1	t		73.0	2.5	/experiments/AOT/AOT_stimuli/rescaled_final/0397_fw.mp4	0.0	345.11138796806335	
75	325.12332105636597	fix_post	2		12	73.0	2.5	/experiments/AOT/AOT_stimuli/rescaled_final/0397_fw.mp4	0.0	346.4278280735016	0.10005497932434082
76	325.2233760356903	fix_pre	0		120	74.0	2.5	/experiments/AOT/AOT_stimuli/rescaled_final/0701_rv.mp4	0.0	346.5278830528259	0.9999470710754395
76	325.40682792663574	pulse	0	t		74.0	2.5	/experiments/AOT/AOT_stimuli/rescaled_final/0701_rv.mp4	0.0	346.71133494377136	
76	326.22332310676575	movie	1		243	74.0	2.5	/experiments/AOT/AOT_stimuli/rescaled_final/0701_rv.mp4	0.0	347.52783012390137	2.500081777572632
76	327.0068440437317	pulse	1	t		74.0	2.5	/experiments/AOT/AOT_stimuli/rescaled_final/0701_rv.mp4	0.0	348.3113510608673	
76	328.6050748825073	pulse	1	t		74.0	2.5	/experiments/AOT/AOT_stimuli/rescaled_final/0701_rv.mp4	0.0	349.90958189964294	
76	328.7234048843384	fix_post	2		12	74.0	2.5	/experiments/AOT/AOT_stimuli/rescaled_final/0701_rv.mp4	0.0	350.027911901474	0.09986615180969238
77	328.82327103614807	fix_pre	0		120	75.0	2.5	blank	1.0	350.1277780532837	1.0001089572906494
77	329.8233799934387	movie	1		300	75.0	2.5	blank	1.0	351.12788701057434	2.4999289512634277
77	330.2067759037018	pulse	1	t		75.0	2.5	blank	1.0	351.5112829208374	
77	331.80668091773987	pulse	1	t		75.0	2.5	blank	1.0	353.1111879348755	
77	332.32330894470215	fix_post	2		12	75.0	2.5	blank	1.0	353.62781596183777	0.09999203681945801
78	332.4233009815216	fix_pre	0		119	76.0	2.5	/experiments/AOT/AOT_stimuli/rescaled_final/0398_fw.mp4	0.0	353.7278079986572	0.9916551113128662
78	333.4066960811615	pulse	0	t		76.0	2.5	/experiments/AOT/AOT_stimuli/rescaled_final/0398_fw.mp4	0.0	354.7112030982971	
78	333.4149560928345	movie	1		245	76.0	2.5	/experiments/AOT/AOT_stimuli/rescaled_final/0398_fw.mp4	0.0	354.7194631099701	2.5082509517669678
78	335.00643396377563	pulse	1	t		76.0	2.5	/experiments/AOT/AOT_stimuli/rescaled_final/0398_fw.mp4	0.0	356.31094098091125	
78	335.92320704460144	fix_post	2		12	76.0	2.5	/experiments/AOT/AOT_stimuli/rescaled_final/0398_fw.mp4	0.0	357.22771406173706	0.09996485710144043
79	336.0231719017029	fix_pre	0		120	77.0	2.5	/experiments/AOT/AOT_stimuli/rescaled_final/1600_rv.mp4	0.0	357.3276789188385	1.0000920295715332
79	336.606684923172	pulse	0	t		77.0	2.5	/experiments/AOT/AOT_stimuli/rescaled_final/1600_rv.mp4	0.0	357.9111919403076	
79	337.0232639312744	movie	1		246	77.0	2.5	/experiments/AOT/AOT_stimuli/rescaled_final/1600_rv.mp4	0.0	358.32777094841003	2.499657154083252
79	338.20675897598267	pulse	1	t		77.0	2.5	/experiments/AOT/AOT_stimuli/rescaled_final/1600_rv.mp4	0.0	359.5112659931183	
79	339.52292108535767	fix_post	2		12	77.0	2.5	/experiments/AOT/AOT_stimuli/rescaled_final/1600_rv.mp4	0.0	360.8274281024933	0.10007691383361816
80	339.6229979991913	fix_pre	0		120	78.0	2.5	/experiments/AOT/AOT_stimuli/rescaled_final/1396_rv.mp4	0.0	360.9275050163269	1.0000898838043213
80	339.8065481185913	pulse	0	t		78.0	2.5	/experiments/AOT/AOT_stimuli/rescaled_final/1396_rv.mp4	0.0	361.11105513572693	
80	340.6230878829956	movie	1		246	78.0	2.5	/experiments/AOT/AOT_stimuli/rescaled_final/1396_rv.mp4	0.0	361.9275949001312	2.500150203704834
80	341.40666103363037	pulse	1	t		78.0	2.5	/experiments/AOT/AOT_stimuli/rescaled_final/1396_rv.mp4	0.0	362.711168050766	
80	343.00284600257874	pulse	1	t		78.0	2.5	/experiments/AOT/AOT_stimuli/rescaled_final/1396_rv.mp4	0.0	364.30735301971436	
80	343.12323808670044	fix_post	2		12	78.0	2.5	/experiments/AOT/AOT_stimuli/rescaled_final/1396_rv.mp4	0.0	364.42774510383606	0.09999299049377441
81	343.2232310771942	fix_pre	0		120	79.0	2.5	/experiments/AOT/AOT_stimuli/rescaled_final/1032_fw.mp4	0.0	364.52773809432983	1.000011920928955
81	344.22324299812317	movie	1		243	79.0	2.5	/experiments/AOT/AOT_stimuli/rescaled_final/1032_fw.mp4	0.0	365.5277500152588	2.4999279975891113
81	344.6061460971832	pulse	1	t		79.0	2.5	/experiments/AOT/AOT_stimuli/rescaled_final/1032_fw.mp4	0.0	365.91065311431885	
81	346.2066059112549	pulse	1	t		79.0	2.5	/experiments/AOT/AOT_stimuli/rescaled_final/1032_fw.mp4	0.0	367.5111129283905	
81	346.7231709957123	fix_post	2		12	79.0	2.5	/experiments/AOT/AOT_stimuli/rescaled_final/1032_fw.mp4	0.0	368.0276780128479	0.09995508193969727
82	346.823126077652	fix_pre	0		119	80.0	2.5	/experiments/AOT/AOT_stimuli/rescaled_final/0382_fw.mp4	0.0	368.1276330947876	0.9917049407958984
82	347.80669689178467	pulse	0	t		80.0	2.5	/experiments/AOT/AOT_stimuli/rescaled_final/0382_fw.mp4	0.0	369.1112039089203	
82	347.8148310184479	movie	1		245	80.0	2.5	/experiments/AOT/AOT_stimuli/rescaled_final/0382_fw.mp4	0.0	369.1193380355835	2.508359909057617
82	349.40626406669617	pulse	1	t		80.0	2.5	/experiments/AOT/AOT_stimuli/rescaled_final/0382_fw.mp4	0.0	370.7107710838318	
82	350.3231909275055	fix_post	2		12	80.0	2.5	/experiments/AOT/AOT_stimuli/rescaled_final/0382_fw.mp4	0.0	371.6276979446411	0.09995007514953613
83	350.42314100265503	fix_pre	0		120	81.0	2.5	/experiments/AOT/AOT_stimuli/rescaled_final/0070_rv.mp4	0.0	371.72764801979065	0.9999740123748779
83	351.0066559314728	pulse	0	t		81.0	2.5	/experiments/AOT/AOT_stimuli/rescaled_final/0070_rv.mp4	0.0	372.3111629486084	
83	351.4231150150299	movie	1		245	81.0	2.5	/experiments/AOT/AOT_stimuli/rescaled_final/0070_rv.mp4	0.0	372.7276220321655	2.5000360012054443
83	352.60672307014465	pulse	1	t		81.0	2.5	/experiments/AOT/AOT_stimuli/rescaled_final/0070_rv.mp4	0.0	373.9112300872803	
83	353.92315101623535	fix_post	2		12	81.0	2.5	/experiments/AOT/AOT_stimuli/rescaled_final/0070_rv.mp4	0.0	375.227658033371	0.09993600845336914
84	354.0230870246887	fix_pre	0		120	82.0	2.5	/experiments/AOT/AOT_stimuli/rescaled_final/0397_fw.mp4	0.0	375.32759404182434	1.0000109672546387
84	354.20659494400024	pulse	0	t		82.0	2.5	/experiments/AOT/AOT_stimuli/rescaled_final/0397_fw.mp4	0.0	375.51110196113586	
84	355.02309799194336	movie	1		246	82.0	2.5	/experiments/AOT/AOT_stimuli/rescaled_final/0397_fw.mp4	0.0	376.327605009079	2.4999730587005615
84	355.80655002593994	pulse	1	t		82.0	2.5	/experiments/AOT/AOT_stimuli/rescaled_final/0397_fw.mp4	0.0	377.11105704307556	
84	357.4051299095154	pulse	1	t		82.0	2.5	/experiments/AOT/AOT_stimuli/rescaled_final/0397_fw.mp4	0.0	378.709636926651	
84	357.5230710506439	fix_post	2		12	82.0	2.5	/experiments/AOT/AOT_stimuli/rescaled_final/0397_fw.mp4	0.0	378.82757806777954	0.10002303123474121
85	357.62309408187866	fix_pre	0		120	83.0	2.5	blank	1.0	378.9276010990143	0.9999878406524658
85	358.6230819225311	movie	1		300	83.0	2.5	blank	1.0	379.92758893966675	2.50004506111145
85	359.00676798820496	pulse	1	t		83.0	2.5	blank	1.0	380.3112750053406	
85	360.60658597946167	pulse	1	t		83.0	2.5	blank	1.0	381.9110929965973	
85	361.1231269836426	fix_post	2		12	83.0	2.5	blank	1.0	382.4276340007782	0.09993600845336914
87	361.22306299209595	stim	0		1716					382.52757000923157	14.29993200302124
87	362.20656299591064	pulse	0	t						383.51107001304626	
87	363.80655002593994	pulse	0	t						385.11105704307556	
87	365.40652894973755	pulse	0	t						386.71103596687317	
87	367.0066909790039	pulse	0	t						388.3111979961395	
87	368.60664105415344	pulse	0	t						389.91114807128906	
87	370.2065849304199	pulse	0	t						391.51109194755554	
87	371.8065490722656	pulse	0	t						393.11105608940125	
87	373.4065029621124	pulse	0	t						394.71100997924805	
87	375.0065960884094	pulse	0	t						396.31110310554504	
