trial_nr	onset	event_type	phase	response	nr_frames	movie_index	movie_duration	movie_file	blank	onset_abs	duration
0	0.14146208763122559	stim	0		17					26.432520866394043	0.14158320426940918
0	0.27527737617492676	response	0	space						26.566336154937744	
1	0.28304529190063477	stim	0		5658					26.574104070663452	47.159101247787476
1	47.43238282203674	pulse	0	t						73.72344160079956	
1	47.44214653968811	stim	1		1715					73.73320531845093	14.308534145355225
1	49.0322368144989	pulse	1	t						75.32329559326172	
1	50.63254952430725	pulse	1	t						76.92360830307007	
1	52.23283410072327	pulse	1	t						78.52389287948608	
1	53.83293175697327	pulse	1	t						80.12399053573608	
1	55.433470726013184	pulse	1	t						81.724529504776	
1	57.03343176841736	pulse	1	t						83.32449054718018	
1	58.63374900817871	pulse	1	t						84.92480778694153	
1	60.23412203788757	pulse	1	t						86.52518081665039	
2	61.750680685043335	fix_pre	0		11	0.0	2.5	/experiments/Knapen_AOT/AOT_stimuli/rescaled_final/2060_fw.mp4	0.0	88.04173946380615	0.10851764678955078
2	61.834171772003174	pulse	0	t		0.0	2.5	/experiments/Knapen_AOT/AOT_stimuli/rescaled_final/2060_fw.mp4	0.0	88.12523055076599	
2	61.859198331832886	movie	1		277	0.0	2.5	/experiments/Knapen_AOT/AOT_stimuli/rescaled_final/2060_fw.mp4	0.0	88.1502571105957	2.4918277263641357
2	63.432732582092285	pulse	1	t		0.0	2.5	/experiments/Knapen_AOT/AOT_stimuli/rescaled_final/2060_fw.mp4	0.0	89.7237913608551	
2	64.35102605819702	fix_post	2		12	0.0	2.5	/experiments/Knapen_AOT/AOT_stimuli/rescaled_final/2060_fw.mp4	0.0	90.64208483695984	0.10002803802490234
3	64.45105409622192	fix_pre	0		120	1.0	2.5	/experiments/Knapen_AOT/AOT_stimuli/rescaled_final/1522_fw.mp4	0.0	90.74211287498474	1.0085198879241943
3	65.03465461730957	pulse	0	t		1.0	2.5	/experiments/Knapen_AOT/AOT_stimuli/rescaled_final/1522_fw.mp4	0.0	91.32571339607239	
3	65.45957398414612	movie	1		292	1.0	2.5	/experiments/Knapen_AOT/AOT_stimuli/rescaled_final/1522_fw.mp4	0.0	91.75063276290894	2.4919886589050293
3	66.63281536102295	pulse	1	t		1.0	2.5	/experiments/Knapen_AOT/AOT_stimuli/rescaled_final/1522_fw.mp4	0.0	92.92387413978577	
3	67.95156264305115	fix_post	2		12	1.0	2.5	/experiments/Knapen_AOT/AOT_stimuli/rescaled_final/1522_fw.mp4	0.0	94.24262142181396	0.10000920295715332
4	68.0515718460083	fix_pre	0		120	2.0	2.5	/experiments/Knapen_AOT/AOT_stimuli/rescaled_final/0462_fw.mp4	0.0	94.34263062477112	1.0085842609405518
4	68.23509669303894	pulse	0	t		2.0	2.5	/experiments/Knapen_AOT/AOT_stimuli/rescaled_final/0462_fw.mp4	0.0	94.52615547180176	
4	69.06015610694885	movie	1		293	2.0	2.5	/experiments/Knapen_AOT/AOT_stimuli/rescaled_final/0462_fw.mp4	0.0	95.35121488571167	2.4919676780700684
4	69.83537340164185	pulse	1	t		2.0	2.5	/experiments/Knapen_AOT/AOT_stimuli/rescaled_final/0462_fw.mp4	0.0	96.12643218040466	
4	71.43215465545654	pulse	1	t		2.0	2.5	/experiments/Knapen_AOT/AOT_stimuli/rescaled_final/0462_fw.mp4	0.0	97.72321343421936	
4	71.55212378501892	fix_post	2		12	2.0	2.5	/experiments/Knapen_AOT/AOT_stimuli/rescaled_final/0462_fw.mp4	0.0	97.84318256378174	0.09997344017028809
5	71.65209722518921	fix_pre	0		120	3.0	2.5	/experiments/Knapen_AOT/AOT_stimuli/rescaled_final/1980_fw.mp4	0.0	97.94315600395203	1.008579969406128
5	72.66067719459534	movie	1		295	3.0	2.5	/experiments/Knapen_AOT/AOT_stimuli/rescaled_final/1980_fw.mp4	0.0	98.95173597335815	2.4919629096984863
5	73.03185439109802	pulse	1	t		3.0	2.5	/experiments/Knapen_AOT/AOT_stimuli/rescaled_final/1980_fw.mp4	0.0	99.32291316986084	
5	74.63332676887512	pulse	1	t		3.0	2.5	/experiments/Knapen_AOT/AOT_stimuli/rescaled_final/1980_fw.mp4	0.0	100.92438554763794	
5	75.15264010429382	fix_post	2		12	3.0	2.5	/experiments/Knapen_AOT/AOT_stimuli/rescaled_final/1980_fw.mp4	0.0	101.44369888305664	0.10001850128173828
6	75.25265860557556	fix_pre	0		119	4.0	2.5	/experiments/Knapen_AOT/AOT_stimuli/rescaled_final/2099_rv.mp4	0.0	101.54371738433838	1.0003061294555664
6	76.22863483428955	pulse	0	t		4.0	2.5	/experiments/Knapen_AOT/AOT_stimuli/rescaled_final/2099_rv.mp4	0.0	102.51969361305237	
6	76.25296473503113	movie	1		289	4.0	2.5	/experiments/Knapen_AOT/AOT_stimuli/rescaled_final/2099_rv.mp4	0.0	102.54402351379395	2.50022554397583
6	77.82839488983154	pulse	1	t		4.0	2.5	/experiments/Knapen_AOT/AOT_stimuli/rescaled_final/2099_rv.mp4	0.0	104.11945366859436	
6	78.75319027900696	fix_post	2		12	4.0	2.5	/experiments/Knapen_AOT/AOT_stimuli/rescaled_final/2099_rv.mp4	0.0	105.04424905776978	0.10000276565551758
7	78.85319304466248	fix_pre	0		120	5.0	2.5	blank	1.0	105.1442518234253	1.0002236366271973
7	79.42861819267273	pulse	0	t		5.0	2.5	blank	1.0	105.71967697143555	
7	79.85341668128967	movie	1		300	5.0	2.5	blank	1.0	106.14447546005249	2.500328779220581
7	81.02880859375	pulse	1	t		5.0	2.5	blank	1.0	107.31986737251282	
7	82.35374546051025	fix_post	2		12	5.0	2.5	blank	1.0	108.64480423927307	0.10001015663146973
8	82.45375561714172	fix_pre	0		120	6.0	2.5	/experiments/Knapen_AOT/AOT_stimuli/rescaled_final/1266_fw.mp4	0.0	108.74481439590454	1.0086076259613037
8	82.62907361984253	pulse	0	t		6.0	2.5	/experiments/Knapen_AOT/AOT_stimuli/rescaled_final/1266_fw.mp4	0.0	108.92013239860535	
8	83.46236324310303	movie	1		284	6.0	2.5	/experiments/Knapen_AOT/AOT_stimuli/rescaled_final/1266_fw.mp4	0.0	109.75342202186584	2.491910934448242
8	84.22926020622253	pulse	1	t		6.0	2.5	/experiments/Knapen_AOT/AOT_stimuli/rescaled_final/1266_fw.mp4	0.0	110.52031898498535	
8	85.82945013046265	pulse	1	t		6.0	2.5	/experiments/Knapen_AOT/AOT_stimuli/rescaled_final/1266_fw.mp4	0.0	112.12050890922546	
8	85.95427417755127	fix_post	2		12	6.0	2.5	/experiments/Knapen_AOT/AOT_stimuli/rescaled_final/1266_fw.mp4	0.0	112.24533295631409	0.10004162788391113
9	86.05431580543518	fix_pre	0		120	7.0	2.5	/experiments/Knapen_AOT/AOT_stimuli/rescaled_final/0183_fw.mp4	0.0	112.345374584198	1.0084915161132812
9	87.06280732154846	movie	1		274	7.0	2.5	/experiments/Knapen_AOT/AOT_stimuli/rescaled_final/0183_fw.mp4	0.0	113.35386610031128	2.492025852203369
9	87.42987370491028	pulse	1	t		7.0	2.5	/experiments/Knapen_AOT/AOT_stimuli/rescaled_final/0183_fw.mp4	0.0	113.7209324836731	
9	89.02999091148376	pulse	1	t		7.0	2.5	/experiments/Knapen_AOT/AOT_stimuli/rescaled_final/0183_fw.mp4	0.0	115.32104969024658	
9	89.55483317375183	fix_post	2		12	7.0	2.5	/experiments/Knapen_AOT/AOT_stimuli/rescaled_final/0183_fw.mp4	0.0	115.84589195251465	0.10004520416259766
10	89.65487837791443	fix_pre	0		118	8.0	2.5	/experiments/Knapen_AOT/AOT_stimuli/rescaled_final/1953_rv.mp4	0.0	115.94593715667725	0.9917912483215332
10	90.63019227981567	pulse	0	t		8.0	2.5	/experiments/Knapen_AOT/AOT_stimuli/rescaled_final/1953_rv.mp4	0.0	116.92125105857849	
10	90.64666962623596	movie	1		293	8.0	2.5	/experiments/Knapen_AOT/AOT_stimuli/rescaled_final/1953_rv.mp4	0.0	116.93772840499878	2.5004007816314697
10	92.2286868095398	pulse	1	t		8.0	2.5	/experiments/Knapen_AOT/AOT_stimuli/rescaled_final/1953_rv.mp4	0.0	118.51974558830261	
10	93.14707040786743	fix_post	2		12	8.0	2.5	/experiments/Knapen_AOT/AOT_stimuli/rescaled_final/1953_rv.mp4	0.0	119.43812918663025	0.09998917579650879
11	93.24705958366394	fix_pre	0		120	9.0	2.5	/experiments/Knapen_AOT/AOT_stimuli/rescaled_final/1048_fw.mp4	0.0	119.53811836242676	1.0085058212280273
11	93.83069372177124	pulse	0	t		9.0	2.5	/experiments/Knapen_AOT/AOT_stimuli/rescaled_final/1048_fw.mp4	0.0	120.12175250053406	
11	94.25556540489197	movie	1		282	9.0	2.5	/experiments/Knapen_AOT/AOT_stimuli/rescaled_final/1048_fw.mp4	0.0	120.54662418365479	2.4920246601104736
11	95.42923545837402	pulse	1	t		9.0	2.5	/experiments/Knapen_AOT/AOT_stimuli/rescaled_final/1048_fw.mp4	0.0	121.72029423713684	
11	96.74759006500244	fix_post	2		12	9.0	2.5	/experiments/Knapen_AOT/AOT_stimuli/rescaled_final/1048_fw.mp4	0.0	123.03864884376526	0.0999908447265625
12	96.847580909729	fix_pre	0		120	10.0	2.5	/experiments/Knapen_AOT/AOT_stimuli/rescaled_final/0194_rv.mp4	0.0	123.13863968849182	1.0085673332214355
12	97.03145503997803	pulse	0	t		10.0	2.5	/experiments/Knapen_AOT/AOT_stimuli/rescaled_final/0194_rv.mp4	0.0	123.32251381874084	
12	97.85614824295044	movie	1		284	10.0	2.5	/experiments/Knapen_AOT/AOT_stimuli/rescaled_final/0194_rv.mp4	0.0	124.14720702171326	2.491987466812134
12	98.62908411026001	pulse	1	t		10.0	2.5	/experiments/Knapen_AOT/AOT_stimuli/rescaled_final/0194_rv.mp4	0.0	124.92014288902283	
12	100.22949147224426	pulse	1	t		10.0	2.5	/experiments/Knapen_AOT/AOT_stimuli/rescaled_final/0194_rv.mp4	0.0	126.52055025100708	
12	100.34813570976257	fix_post	2		12	10.0	2.5	/experiments/Knapen_AOT/AOT_stimuli/rescaled_final/0194_rv.mp4	0.0	126.63919448852539	0.10001301765441895
13	100.44814872741699	fix_pre	0		120	11.0	2.5	/experiments/Knapen_AOT/AOT_stimuli/rescaled_final/0082_fw.mp4	0.0	126.73920750617981	1.0084834098815918
13	101.45663213729858	movie	1		293	11.0	2.5	/experiments/Knapen_AOT/AOT_stimuli/rescaled_final/0082_fw.mp4	0.0	127.7476909160614	2.4921634197235107
13	101.83012461662292	pulse	1	t		11.0	2.5	/experiments/Knapen_AOT/AOT_stimuli/rescaled_final/0082_fw.mp4	0.0	128.12118339538574	
13	103.43010544776917	pulse	1	t		11.0	2.5	/experiments/Knapen_AOT/AOT_stimuli/rescaled_final/0082_fw.mp4	0.0	129.72116422653198	
13	103.9487955570221	fix_post	2		12	11.0	2.5	/experiments/Knapen_AOT/AOT_stimuli/rescaled_final/0082_fw.mp4	0.0	130.2398543357849	0.09988212585449219
14	104.04867768287659	fix_pre	0		119	12.0	2.5	/experiments/Knapen_AOT/AOT_stimuli/rescaled_final/1115_rv.mp4	0.0	130.3397364616394	1.0001473426818848
14	105.03232645988464	pulse	0	t		12.0	2.5	/experiments/Knapen_AOT/AOT_stimuli/rescaled_final/1115_rv.mp4	0.0	131.32338523864746	
14	105.04882502555847	movie	1		287	12.0	2.5	/experiments/Knapen_AOT/AOT_stimuli/rescaled_final/1115_rv.mp4	0.0	131.3398838043213	2.5005390644073486
14	106.63095164299011	pulse	1	t		12.0	2.5	/experiments/Knapen_AOT/AOT_stimuli/rescaled_final/1115_rv.mp4	0.0	132.92201042175293	
14	107.54936408996582	fix_post	2		12	12.0	2.5	/experiments/Knapen_AOT/AOT_stimuli/rescaled_final/1115_rv.mp4	0.0	133.84042286872864	0.09992432594299316
15	107.64928841590881	fix_pre	0		120	13.0	2.5	/experiments/Knapen_AOT/AOT_stimuli/rescaled_final/0356_fw.mp4	0.0	133.94034719467163	1.0084600448608398
15	108.23296976089478	pulse	0	t		13.0	2.5	/experiments/Knapen_AOT/AOT_stimuli/rescaled_final/0356_fw.mp4	0.0	134.5240285396576	
15	108.65774846076965	movie	1		279	13.0	2.5	/experiments/Knapen_AOT/AOT_stimuli/rescaled_final/0356_fw.mp4	0.0	134.94880723953247	2.492023229598999
15	109.83128499984741	pulse	1	t		13.0	2.5	/experiments/Knapen_AOT/AOT_stimuli/rescaled_final/0356_fw.mp4	0.0	136.12234377861023	
15	111.14977169036865	fix_post	2		12	13.0	2.5	/experiments/Knapen_AOT/AOT_stimuli/rescaled_final/0356_fw.mp4	0.0	137.44083046913147	0.09998893737792969
16	111.24976062774658	fix_pre	0		120	14.0	2.5	blank	1.0	137.5408194065094	1.0001921653747559
16	111.4333279132843	pulse	0	t		14.0	2.5	blank	1.0	137.72438669204712	
16	112.24995279312134	movie	1		300	14.0	2.5	blank	1.0	138.54101157188416	2.500357151031494
16	113.03350973129272	pulse	1	t		14.0	2.5	blank	1.0	139.32456851005554	
16	114.63378691673279	pulse	1	t		14.0	2.5	blank	1.0	140.9248456954956	
16	114.75030994415283	fix_post	2		12	14.0	2.5	blank	1.0	141.04136872291565	0.1000053882598877
17	114.85031533241272	fix_pre	0		120	15.0	2.5	/experiments/Knapen_AOT/AOT_stimuli/rescaled_final/0491_fw.mp4	0.0	141.14137411117554	1.0084762573242188
17	115.85879158973694	movie	1		287	15.0	2.5	/experiments/Knapen_AOT/AOT_stimuli/rescaled_final/0491_fw.mp4	0.0	142.14985036849976	2.4920575618743896
17	116.23254799842834	pulse	1	t		15.0	2.5	/experiments/Knapen_AOT/AOT_stimuli/rescaled_final/0491_fw.mp4	0.0	142.52360677719116	
17	117.83323764801025	pulse	1	t		15.0	2.5	/experiments/Knapen_AOT/AOT_stimuli/rescaled_final/0491_fw.mp4	0.0	144.12429642677307	
17	118.35084915161133	fix_post	2		12	15.0	2.5	/experiments/Knapen_AOT/AOT_stimuli/rescaled_final/0491_fw.mp4	0.0	144.64190793037415	0.10001730918884277
18	118.45086646080017	fix_pre	0		119	16.0	2.5	/experiments/Knapen_AOT/AOT_stimuli/rescaled_final/0517_fw.mp4	0.0	144.741925239563	1.000133752822876
18	119.43477821350098	pulse	0	t		16.0	2.5	/experiments/Knapen_AOT/AOT_stimuli/rescaled_final/0517_fw.mp4	0.0	145.7258369922638	
18	119.45100021362305	movie	1		290	16.0	2.5	/experiments/Knapen_AOT/AOT_stimuli/rescaled_final/0517_fw.mp4	0.0	145.74205899238586	2.500393867492676
18	121.03316020965576	pulse	1	t		16.0	2.5	/experiments/Knapen_AOT/AOT_stimuli/rescaled_final/0517_fw.mp4	0.0	147.32421898841858	
18	121.95139408111572	fix_post	2		12	16.0	2.5	/experiments/Knapen_AOT/AOT_stimuli/rescaled_final/0517_fw.mp4	0.0	148.24245285987854	0.09999489784240723
19	122.05138897895813	fix_pre	0		120	17.0	2.5	/experiments/Knapen_AOT/AOT_stimuli/rescaled_final/1411_rv.mp4	0.0	148.34244775772095	1.008500337600708
19	122.63507676124573	pulse	0	t		17.0	2.5	/experiments/Knapen_AOT/AOT_stimuli/rescaled_final/1411_rv.mp4	0.0	148.92613554000854	
19	123.05988931655884	movie	1		276	17.0	2.5	/experiments/Knapen_AOT/AOT_stimuli/rescaled_final/1411_rv.mp4	0.0	149.35094809532166	2.492021322250366
19	124.23340058326721	pulse	1	t		17.0	2.5	/experiments/Knapen_AOT/AOT_stimuli/rescaled_final/1411_rv.mp4	0.0	150.52445936203003	
19	125.5519106388092	fix_post	2		12	17.0	2.5	/experiments/Knapen_AOT/AOT_stimuli/rescaled_final/1411_rv.mp4	0.0	151.84296941757202	0.10007691383361816
20	125.65198755264282	fix_pre	0		120	18.0	2.5	/experiments/Knapen_AOT/AOT_stimuli/rescaled_final/0952_rv.mp4	0.0	151.94304633140564	1.0084624290466309
20	125.83547759056091	pulse	0	t		18.0	2.5	/experiments/Knapen_AOT/AOT_stimuli/rescaled_final/0952_rv.mp4	0.0	152.12653636932373	
20	126.66044998168945	movie	1		273	18.0	2.5	/experiments/Knapen_AOT/AOT_stimuli/rescaled_final/0952_rv.mp4	0.0	152.95150876045227	2.492036819458008
20	127.43472695350647	pulse	1	t		18.0	2.5	/experiments/Knapen_AOT/AOT_stimuli/rescaled_final/0952_rv.mp4	0.0	153.7257857322693	
20	129.0343680381775	pulse	1	t		18.0	2.5	/experiments/Knapen_AOT/AOT_stimuli/rescaled_final/0952_rv.mp4	0.0	155.3254268169403	
20	129.15248680114746	fix_post	2		12	18.0	2.5	/experiments/Knapen_AOT/AOT_stimuli/rescaled_final/0952_rv.mp4	0.0	155.44354557991028	0.0999908447265625
21	129.25247764587402	fix_pre	0		120	19.0	2.5	/experiments/Knapen_AOT/AOT_stimuli/rescaled_final/0994_fw.mp4	0.0	155.54353642463684	1.0084755420684814
21	130.2609531879425	movie	1		284	19.0	2.5	/experiments/Knapen_AOT/AOT_stimuli/rescaled_final/0994_fw.mp4	0.0	156.55201196670532	2.492156744003296
21	130.63502955436707	pulse	1	t		19.0	2.5	/experiments/Knapen_AOT/AOT_stimuli/rescaled_final/0994_fw.mp4	0.0	156.92608833312988	
21	132.2343122959137	pulse	1	t		19.0	2.5	/experiments/Knapen_AOT/AOT_stimuli/rescaled_final/0994_fw.mp4	0.0	158.5253710746765	
21	132.7531099319458	fix_post	2		12	19.0	2.5	/experiments/Knapen_AOT/AOT_stimuli/rescaled_final/0994_fw.mp4	0.0	159.04416871070862	0.09989762306213379
22	132.85300755500793	fix_pre	0		119	20.0	2.5	/experiments/Knapen_AOT/AOT_stimuli/rescaled_final/1239_rv.mp4	0.0	159.14406633377075	1.000169277191162
22	133.82886934280396	pulse	0	t		20.0	2.5	/experiments/Knapen_AOT/AOT_stimuli/rescaled_final/1239_rv.mp4	0.0	160.11992812156677	
22	133.8531768321991	movie	1		276	20.0	2.5	/experiments/Knapen_AOT/AOT_stimuli/rescaled_final/1239_rv.mp4	0.0	160.1442356109619	2.50039005279541
22	135.42924046516418	pulse	1	t		20.0	2.5	/experiments/Knapen_AOT/AOT_stimuli/rescaled_final/1239_rv.mp4	0.0	161.720299243927	
22	136.3535668849945	fix_post	2		12	20.0	2.5	/experiments/Knapen_AOT/AOT_stimuli/rescaled_final/1239_rv.mp4	0.0	162.64462566375732	0.10008668899536133
23	136.45365357398987	fix_pre	0		120	21.0	2.5	blank	1.0	162.74471235275269	1.000077247619629
23	137.02895760536194	pulse	0	t		21.0	2.5	blank	1.0	163.32001638412476	
23	137.4537308216095	movie	1		300	21.0	2.5	blank	1.0	163.74478960037231	2.500338554382324
23	138.62910342216492	pulse	1	t		21.0	2.5	blank	1.0	164.92016220092773	
23	139.95406937599182	fix_post	2		12	21.0	2.5	blank	1.0	166.24512815475464	0.10003924369812012
24	140.05410861968994	fix_pre	0		120	22.0	2.5	/experiments/Knapen_AOT/AOT_stimuli/rescaled_final/1142_fw.mp4	0.0	166.34516739845276	1.0084989070892334
24	140.2293803691864	pulse	0	t		22.0	2.5	/experiments/Knapen_AOT/AOT_stimuli/rescaled_final/1142_fw.mp4	0.0	166.52043914794922	
24	141.06260752677917	movie	1		280	22.0	2.5	/experiments/Knapen_AOT/AOT_stimuli/rescaled_final/1142_fw.mp4	0.0	167.353666305542	2.492032289505005
24	141.8295726776123	pulse	1	t		22.0	2.5	/experiments/Knapen_AOT/AOT_stimuli/rescaled_final/1142_fw.mp4	0.0	168.12063145637512	
24	143.43012762069702	pulse	1	t		22.0	2.5	/experiments/Knapen_AOT/AOT_stimuli/rescaled_final/1142_fw.mp4	0.0	169.72118639945984	
24	143.55463981628418	fix_post	2		12	22.0	2.5	/experiments/Knapen_AOT/AOT_stimuli/rescaled_final/1142_fw.mp4	0.0	169.845698595047	0.10004162788391113
25	143.6546814441681	fix_pre	0		120	23.0	2.5	/experiments/Knapen_AOT/AOT_stimuli/rescaled_final/1237_rv.mp4	0.0	169.9457402229309	1.0085210800170898
25	144.66320252418518	movie	1		278	23.0	2.5	/experiments/Knapen_AOT/AOT_stimuli/rescaled_final/1237_rv.mp4	0.0	170.954261302948	2.4919722080230713
25	145.03012704849243	pulse	1	t		23.0	2.5	/experiments/Knapen_AOT/AOT_stimuli/rescaled_final/1237_rv.mp4	0.0	171.32118582725525	
25	146.63049244880676	pulse	1	t		23.0	2.5	/experiments/Knapen_AOT/AOT_stimuli/rescaled_final/1237_rv.mp4	0.0	172.92155122756958	
25	147.15517473220825	fix_post	2		12	23.0	2.5	/experiments/Knapen_AOT/AOT_stimuli/rescaled_final/1237_rv.mp4	0.0	173.44623351097107	0.10000324249267578
26	147.25517797470093	fix_pre	0		118	24.0	2.5	/experiments/Knapen_AOT/AOT_stimuli/rescaled_final/0795_fw.mp4	0.0	173.54623675346375	0.9918324947357178
26	148.23054766654968	pulse	0	t		24.0	2.5	/experiments/Knapen_AOT/AOT_stimuli/rescaled_final/0795_fw.mp4	0.0	174.5216064453125	
26	148.24701046943665	movie	1		279	24.0	2.5	/experiments/Knapen_AOT/AOT_stimuli/rescaled_final/0795_fw.mp4	0.0	174.53806924819946	2.500366687774658
26	149.82920217514038	pulse	1	t		24.0	2.5	/experiments/Knapen_AOT/AOT_stimuli/rescaled_final/0795_fw.mp4	0.0	176.1202609539032	
26	150.7473771572113	fix_post	2		12	24.0	2.5	/experiments/Knapen_AOT/AOT_stimuli/rescaled_final/0795_fw.mp4	0.0	177.03843593597412	0.10001039505004883
27	150.84738755226135	fix_pre	0		120	25.0	2.5	/experiments/Knapen_AOT/AOT_stimuli/rescaled_final/0615_fw.mp4	0.0	177.13844633102417	1.0085082054138184
27	151.43109464645386	pulse	0	t		25.0	2.5	/experiments/Knapen_AOT/AOT_stimuli/rescaled_final/0615_fw.mp4	0.0	177.72215342521667	
27	151.85589575767517	movie	1		286	25.0	2.5	/experiments/Knapen_AOT/AOT_stimuli/rescaled_final/0615_fw.mp4	0.0	178.146954536438	2.4920194149017334
27	153.02930665016174	pulse	1	t		25.0	2.5	/experiments/Knapen_AOT/AOT_stimuli/rescaled_final/0615_fw.mp4	0.0	179.32036542892456	
27	154.3479151725769	fix_post	2		12	25.0	2.5	/experiments/Knapen_AOT/AOT_stimuli/rescaled_final/0615_fw.mp4	0.0	180.63897395133972	0.10003304481506348
28	154.44794821739197	fix_pre	0		120	26.0	2.5	/experiments/Knapen_AOT/AOT_stimuli/rescaled_final/0868_rv.mp4	0.0	180.73900699615479	1.008467197418213
28	154.63175082206726	pulse	0	t		26.0	2.5	/experiments/Knapen_AOT/AOT_stimuli/rescaled_final/0868_rv.mp4	0.0	180.92280960083008	
28	155.45641541481018	movie	1		284	26.0	2.5	/experiments/Knapen_AOT/AOT_stimuli/rescaled_final/0868_rv.mp4	0.0	181.747474193573	2.4920339584350586
28	156.22972869873047	pulse	1	t		26.0	2.5	/experiments/Knapen_AOT/AOT_stimuli/rescaled_final/0868_rv.mp4	0.0	182.5207874774933	
28	157.8300576210022	pulse	1	t		26.0	2.5	/experiments/Knapen_AOT/AOT_stimuli/rescaled_final/0868_rv.mp4	0.0	184.12111639976501	
28	157.94844937324524	fix_post	2		12	26.0	2.5	/experiments/Knapen_AOT/AOT_stimuli/rescaled_final/0868_rv.mp4	0.0	184.23950815200806	0.10003018379211426
29	158.04847955703735	fix_pre	0		120	27.0	2.5	blank	1.0	184.33953833580017	1.0001552104949951
29	159.04863476753235	movie	1		300	27.0	2.5	blank	1.0	185.33969354629517	2.500352621078491
29	159.43219137191772	pulse	1	t		27.0	2.5	blank	1.0	185.72325015068054	
29	161.03240966796875	pulse	1	t		27.0	2.5	blank	1.0	187.32346844673157	
29	161.54898738861084	fix_post	2		12	27.0	2.5	blank	1.0	187.84004616737366	0.10003829002380371
30	161.64902567863464	fix_pre	0		119	28.0	2.5	/experiments/Knapen_AOT/AOT_stimuli/rescaled_final/0336_fw.mp4	0.0	187.94008445739746	1.0001435279846191
30	162.63281631469727	pulse	0	t		28.0	2.5	/experiments/Knapen_AOT/AOT_stimuli/rescaled_final/0336_fw.mp4	0.0	188.92387509346008	
30	162.64916920661926	movie	1		284	28.0	2.5	/experiments/Knapen_AOT/AOT_stimuli/rescaled_final/0336_fw.mp4	0.0	188.94022798538208	2.5004050731658936
30	164.2312285900116	pulse	1	t		28.0	2.5	/experiments/Knapen_AOT/AOT_stimuli/rescaled_final/0336_fw.mp4	0.0	190.5222873687744	
30	165.14957427978516	fix_post	2		12	28.0	2.5	/experiments/Knapen_AOT/AOT_stimuli/rescaled_final/0336_fw.mp4	0.0	191.44063305854797	0.09998464584350586
31	165.24955892562866	fix_pre	0		120	29.0	2.5	/experiments/Knapen_AOT/AOT_stimuli/rescaled_final/0571_rv.mp4	0.0	191.54061770439148	1.0084867477416992
31	165.83319401741028	pulse	0	t		29.0	2.5	/experiments/Knapen_AOT/AOT_stimuli/rescaled_final/0571_rv.mp4	0.0	192.1242527961731	
31	166.25804567337036	movie	1		279	29.0	2.5	/experiments/Knapen_AOT/AOT_stimuli/rescaled_final/0571_rv.mp4	0.0	192.54910445213318	2.4920976161956787
31	167.43163228034973	pulse	1	t		29.0	2.5	/experiments/Knapen_AOT/AOT_stimuli/rescaled_final/0571_rv.mp4	0.0	193.72269105911255	
31	168.75014328956604	fix_post	2		12	29.0	2.5	/experiments/Knapen_AOT/AOT_stimuli/rescaled_final/0571_rv.mp4	0.0	195.04120206832886	0.09998250007629395
32	168.85012578964233	fix_pre	0		120	30.0	2.5	/experiments/Knapen_AOT/AOT_stimuli/rescaled_final/0400_fw.mp4	0.0	195.14118456840515	1.0084748268127441
32	169.03366088867188	pulse	0	t		30.0	2.5	/experiments/Knapen_AOT/AOT_stimuli/rescaled_final/0400_fw.mp4	0.0	195.3247196674347	
32	169.85860061645508	movie	1		272	30.0	2.5	/experiments/Knapen_AOT/AOT_stimuli/rescaled_final/0400_fw.mp4	0.0	196.1496593952179	2.4920387268066406
32	170.63391304016113	pulse	1	t		30.0	2.5	/experiments/Knapen_AOT/AOT_stimuli/rescaled_final/0400_fw.mp4	0.0	196.92497181892395	
32	172.23207116127014	pulse	1	t		30.0	2.5	/experiments/Knapen_AOT/AOT_stimuli/rescaled_final/0400_fw.mp4	0.0	198.52312994003296	
32	172.35063934326172	fix_post	2		12	30.0	2.5	/experiments/Knapen_AOT/AOT_stimuli/rescaled_final/0400_fw.mp4	0.0	198.64169812202454	0.10003209114074707
33	172.45067143440247	fix_pre	0		120	31.0	2.5	/experiments/Knapen_AOT/AOT_stimuli/rescaled_final/0298_rv.mp4	0.0	198.74173021316528	1.0085937976837158
33	173.45926523208618	movie	1		287	31.0	2.5	/experiments/Knapen_AOT/AOT_stimuli/rescaled_final/0298_rv.mp4	0.0	199.750324010849	2.491910219192505
33	173.83462643623352	pulse	1	t		31.0	2.5	/experiments/Knapen_AOT/AOT_stimuli/rescaled_final/0298_rv.mp4	0.0	200.12568521499634	
33	175.4323446750641	pulse	1	t		31.0	2.5	/experiments/Knapen_AOT/AOT_stimuli/rescaled_final/0298_rv.mp4	0.0	201.7234034538269	
33	175.9511754512787	fix_post	2		12	31.0	2.5	/experiments/Knapen_AOT/AOT_stimuli/rescaled_final/0298_rv.mp4	0.0	202.2422342300415	0.1000053882598877
34	176.05118083953857	fix_pre	0		119	32.0	2.5	/experiments/Knapen_AOT/AOT_stimuli/rescaled_final/1684_rv.mp4	0.0	202.3422396183014	1.0002832412719727
34	177.03486561775208	pulse	0	t		32.0	2.5	/experiments/Knapen_AOT/AOT_stimuli/rescaled_final/1684_rv.mp4	0.0	203.3259243965149	
34	177.05146408081055	movie	1		277	32.0	2.5	/experiments/Knapen_AOT/AOT_stimuli/rescaled_final/1684_rv.mp4	0.0	203.34252285957336	2.500241279602051
34	178.6337034702301	pulse	1	t		32.0	2.5	/experiments/Knapen_AOT/AOT_stimuli/rescaled_final/1684_rv.mp4	0.0	204.92476224899292	
34	179.5517053604126	fix_post	2		12	32.0	2.5	/experiments/Knapen_AOT/AOT_stimuli/rescaled_final/1684_rv.mp4	0.0	205.84276413917542	0.10016226768493652
35	179.65186762809753	fix_pre	0		120	33.0	2.5	blank	1.0	205.94292640686035	0.9999985694885254
35	180.2354166507721	pulse	0	t		33.0	2.5	blank	1.0	206.5264754295349	
35	180.65186619758606	movie	1		300	33.0	2.5	blank	1.0	206.94292497634888	2.5003812313079834
35	181.83567595481873	pulse	1	t		33.0	2.5	blank	1.0	208.12673473358154	
35	183.15224742889404	fix_post	2		12	33.0	2.5	blank	1.0	209.44330620765686	0.10004401206970215
36	183.25229144096375	fix_pre	0		120	34.0	2.5	/experiments/Knapen_AOT/AOT_stimuli/rescaled_final/0011_rv.mp4	0.0	209.54335021972656	1.0084924697875977
36	183.436017036438	pulse	0	t		34.0	2.5	/experiments/Knapen_AOT/AOT_stimuli/rescaled_final/0011_rv.mp4	0.0	209.7270758152008	
36	184.26078391075134	movie	1		278	34.0	2.5	/experiments/Knapen_AOT/AOT_stimuli/rescaled_final/0011_rv.mp4	0.0	210.55184268951416	2.4919979572296143
36	185.03418970108032	pulse	1	t		34.0	2.5	/experiments/Knapen_AOT/AOT_stimuli/rescaled_final/0011_rv.mp4	0.0	211.32524847984314	
36	186.6345682144165	pulse	1	t		34.0	2.5	/experiments/Knapen_AOT/AOT_stimuli/rescaled_final/0011_rv.mp4	0.0	212.92562699317932	
36	186.75278186798096	fix_post	2		12	34.0	2.5	/experiments/Knapen_AOT/AOT_stimuli/rescaled_final/0011_rv.mp4	0.0	213.04384064674377	0.10002660751342773
37	186.85280847549438	fix_pre	0		120	35.0	2.5	/experiments/Knapen_AOT/AOT_stimuli/rescaled_final/0955_fw.mp4	0.0	213.1438672542572	1.0085527896881104
37	187.8613612651825	movie	1		277	35.0	2.5	/experiments/Knapen_AOT/AOT_stimuli/rescaled_final/0955_fw.mp4	0.0	214.1524200439453	2.491973638534546
37	188.23580837249756	pulse	1	t		35.0	2.5	/experiments/Knapen_AOT/AOT_stimuli/rescaled_final/0955_fw.mp4	0.0	214.52686715126038	
37	189.83484268188477	pulse	1	t		35.0	2.5	/experiments/Knapen_AOT/AOT_stimuli/rescaled_final/0955_fw.mp4	0.0	216.12590146064758	
37	190.35333490371704	fix_post	2		12	35.0	2.5	/experiments/Knapen_AOT/AOT_stimuli/rescaled_final/0955_fw.mp4	0.0	216.64439368247986	0.10003447532653809
38	190.45336937904358	fix_pre	0		119	36.0	2.5	/experiments/Knapen_AOT/AOT_stimuli/rescaled_final/0946_rv.mp4	0.0	216.7444281578064	1.0002176761627197
38	191.43062233924866	pulse	0	t		36.0	2.5	/experiments/Knapen_AOT/AOT_stimuli/rescaled_final/0946_rv.mp4	0.0	217.72168111801147	
38	191.4535870552063	movie	1		286	36.0	2.5	/experiments/Knapen_AOT/AOT_stimuli/rescaled_final/0946_rv.mp4	0.0	217.74464583396912	2.5002894401550293
38	193.03563261032104	pulse	1	t		36.0	2.5	/experiments/Knapen_AOT/AOT_stimuli/rescaled_final/0946_rv.mp4	0.0	219.32669138908386	
38	193.95387649536133	fix_post	2		12	36.0	2.5	/experiments/Knapen_AOT/AOT_stimuli/rescaled_final/0946_rv.mp4	0.0	220.24493527412415	0.10001826286315918
39	194.0538947582245	fix_pre	0		120	37.0	2.5	/experiments/Knapen_AOT/AOT_stimuli/rescaled_final/0883_fw.mp4	0.0	220.3449535369873	1.0085139274597168
39	194.62937211990356	pulse	0	t		37.0	2.5	/experiments/Knapen_AOT/AOT_stimuli/rescaled_final/0883_fw.mp4	0.0	220.92043089866638	
39	195.0624086856842	movie	1		284	37.0	2.5	/experiments/Knapen_AOT/AOT_stimuli/rescaled_final/0883_fw.mp4	0.0	221.35346746444702	2.492018222808838
39	196.229572057724	pulse	1	t		37.0	2.5	/experiments/Knapen_AOT/AOT_stimuli/rescaled_final/0883_fw.mp4	0.0	222.52063083648682	
39	197.55442690849304	fix_post	2		12	37.0	2.5	/experiments/Knapen_AOT/AOT_stimuli/rescaled_final/0883_fw.mp4	0.0	223.84548568725586	0.10002613067626953
40	197.6544530391693	fix_pre	0		120	38.0	2.5	/experiments/Knapen_AOT/AOT_stimuli/rescaled_final/0687_fw.mp4	0.0	223.94551181793213	1.008490800857544
40	197.82998514175415	pulse	0	t		38.0	2.5	/experiments/Knapen_AOT/AOT_stimuli/rescaled_final/0687_fw.mp4	0.0	224.12104392051697	
40	198.66294384002686	movie	1		264	38.0	2.5	/experiments/Knapen_AOT/AOT_stimuli/rescaled_final/0687_fw.mp4	0.0	224.95400261878967	2.491997003555298
40	199.4304277896881	pulse	1	t		38.0	2.5	/experiments/Knapen_AOT/AOT_stimuli/rescaled_final/0687_fw.mp4	0.0	225.72148656845093	
40	201.03022456169128	pulse	1	t		38.0	2.5	/experiments/Knapen_AOT/AOT_stimuli/rescaled_final/0687_fw.mp4	0.0	227.3212833404541	
40	201.15494084358215	fix_post	2		12	38.0	2.5	/experiments/Knapen_AOT/AOT_stimuli/rescaled_final/0687_fw.mp4	0.0	227.44599962234497	0.10000872611999512
41	201.25494956970215	fix_pre	0		120	39.0	2.5	/experiments/Knapen_AOT/AOT_stimuli/rescaled_final/2048_rv.mp4	0.0	227.54600834846497	1.0085666179656982
41	202.26351618766785	movie	1		277	39.0	2.5	/experiments/Knapen_AOT/AOT_stimuli/rescaled_final/2048_rv.mp4	0.0	228.55457496643066	2.4920151233673096
41	202.63043093681335	pulse	1	t		39.0	2.5	/experiments/Knapen_AOT/AOT_stimuli/rescaled_final/2048_rv.mp4	0.0	228.92148971557617	
41	204.22941946983337	pulse	1	t		39.0	2.5	/experiments/Knapen_AOT/AOT_stimuli/rescaled_final/2048_rv.mp4	0.0	230.5204782485962	
41	204.75553131103516	fix_post	2		12	39.0	2.5	/experiments/Knapen_AOT/AOT_stimuli/rescaled_final/2048_rv.mp4	0.0	231.04659008979797	0.09998822212219238
42	204.85551953315735	fix_pre	0		118	40.0	2.5	blank	1.0	231.14657831192017	0.9835050106048584
42	205.83112812042236	pulse	0	t		40.0	2.5	blank	1.0	232.12218689918518	
42	205.8390245437622	movie	1		301	40.0	2.5	blank	1.0	232.13008332252502	2.5086829662323
42	207.43111062049866	pulse	1	t		40.0	2.5	blank	1.0	233.72216939926147	
42	208.3477075099945	fix_post	2		12	40.0	2.5	blank	1.0	234.63876628875732	0.1000218391418457
43	208.44772934913635	fix_pre	0		120	41.0	2.5	/experiments/Knapen_AOT/AOT_stimuli/rescaled_final/0424_rv.mp4	0.0	234.73878812789917	1.008495807647705
43	209.03136610984802	pulse	0	t		41.0	2.5	/experiments/Knapen_AOT/AOT_stimuli/rescaled_final/0424_rv.mp4	0.0	235.32242488861084	
43	209.45622515678406	movie	1		292	41.0	2.5	/experiments/Knapen_AOT/AOT_stimuli/rescaled_final/0424_rv.mp4	0.0	235.74728393554688	2.492058515548706
43	210.6300711631775	pulse	1	t		41.0	2.5	/experiments/Knapen_AOT/AOT_stimuli/rescaled_final/0424_rv.mp4	0.0	236.9211299419403	
43	211.94828367233276	fix_post	2		12	41.0	2.5	/experiments/Knapen_AOT/AOT_stimuli/rescaled_final/0424_rv.mp4	0.0	238.23934245109558	0.09998917579650879
44	212.04827284812927	fix_pre	0		120	42.0	2.5	/experiments/Knapen_AOT/AOT_stimuli/rescaled_final/0088_fw.mp4	0.0	238.3393316268921	1.0085551738739014
44	212.23182654380798	pulse	0	t		42.0	2.5	/experiments/Knapen_AOT/AOT_stimuli/rescaled_final/0088_fw.mp4	0.0	238.5228853225708	
44	213.05682802200317	movie	1		287	42.0	2.5	/experiments/Knapen_AOT/AOT_stimuli/rescaled_final/0088_fw.mp4	0.0	239.347886800766	2.4919586181640625
44	213.83033514022827	pulse	1	t		42.0	2.5	/experiments/Knapen_AOT/AOT_stimuli/rescaled_final/0088_fw.mp4	0.0	240.1213939189911	
44	215.43039917945862	pulse	1	t		42.0	2.5	/experiments/Knapen_AOT/AOT_stimuli/rescaled_final/0088_fw.mp4	0.0	241.72145795822144	
44	215.54878664016724	fix_post	2		12	42.0	2.5	/experiments/Knapen_AOT/AOT_stimuli/rescaled_final/0088_fw.mp4	0.0	241.83984541893005	0.10002470016479492
45	215.64881134033203	fix_pre	0		120	43.0	2.5	/experiments/Knapen_AOT/AOT_stimuli/rescaled_final/2001_fw.mp4	0.0	241.93987011909485	1.008500099182129
45	216.65731143951416	movie	1		252	43.0	2.5	/experiments/Knapen_AOT/AOT_stimuli/rescaled_final/2001_fw.mp4	0.0	242.94837021827698	2.4920644760131836
45	217.0308895111084	pulse	1	t		43.0	2.5	/experiments/Knapen_AOT/AOT_stimuli/rescaled_final/2001_fw.mp4	0.0	243.32194828987122	
45	218.63266777992249	pulse	1	t		43.0	2.5	/experiments/Knapen_AOT/AOT_stimuli/rescaled_final/2001_fw.mp4	0.0	244.9237265586853	
45	219.14937591552734	fix_post	2		12	43.0	2.5	/experiments/Knapen_AOT/AOT_stimuli/rescaled_final/2001_fw.mp4	0.0	245.44043469429016	0.09997677803039551
46	219.24935269355774	fix_pre	0		119	44.0	2.5	/experiments/Knapen_AOT/AOT_stimuli/rescaled_final/1748_rv.mp4	0.0	245.54041147232056	1.0001931190490723
46	220.23315525054932	pulse	0	t		44.0	2.5	/experiments/Knapen_AOT/AOT_stimuli/rescaled_final/1748_rv.mp4	0.0	246.52421402931213	
46	220.2495458126068	movie	1		293	44.0	2.5	/experiments/Knapen_AOT/AOT_stimuli/rescaled_final/1748_rv.mp4	0.0	246.54060459136963	2.5003180503845215
46	221.83180904388428	pulse	1	t		44.0	2.5	/experiments/Knapen_AOT/AOT_stimuli/rescaled_final/1748_rv.mp4	0.0	248.1228678226471	
46	222.74986386299133	fix_post	2		12	44.0	2.5	/experiments/Knapen_AOT/AOT_stimuli/rescaled_final/1748_rv.mp4	0.0	249.04092264175415	0.10002875328063965
47	222.84989261627197	fix_pre	0		120	45.0	2.5	/experiments/Knapen_AOT/AOT_stimuli/rescaled_final/0010_rv.mp4	0.0	249.1409513950348	1.0085089206695557
47	223.43349194526672	pulse	0	t		45.0	2.5	/experiments/Knapen_AOT/AOT_stimuli/rescaled_final/0010_rv.mp4	0.0	249.72455072402954	
47	223.85840153694153	movie	1		281	45.0	2.5	/experiments/Knapen_AOT/AOT_stimuli/rescaled_final/0010_rv.mp4	0.0	250.14946031570435	2.4920217990875244
47	225.0339937210083	pulse	1	t		45.0	2.5	/experiments/Knapen_AOT/AOT_stimuli/rescaled_final/0010_rv.mp4	0.0	251.32505249977112	
47	226.35042333602905	fix_post	2		12	45.0	2.5	/experiments/Knapen_AOT/AOT_stimuli/rescaled_final/0010_rv.mp4	0.0	252.64148211479187	0.10000729560852051
48	226.45043063163757	fix_pre	0		120	46.0	2.5	/experiments/Knapen_AOT/AOT_stimuli/rescaled_final/0440_fw.mp4	0.0	252.7414894104004	1.008514165878296
48	226.63402938842773	pulse	0	t		46.0	2.5	/experiments/Knapen_AOT/AOT_stimuli/rescaled_final/0440_fw.mp4	0.0	252.92508816719055	
48	227.45894479751587	movie	1		289	46.0	2.5	/experiments/Knapen_AOT/AOT_stimuli/rescaled_final/0440_fw.mp4	0.0	253.7500035762787	2.492016077041626
48	228.23228311538696	pulse	1	t		46.0	2.5	/experiments/Knapen_AOT/AOT_stimuli/rescaled_final/0440_fw.mp4	0.0	254.52334189414978	
48	229.8325002193451	pulse	1	t		46.0	2.5	/experiments/Knapen_AOT/AOT_stimuli/rescaled_final/0440_fw.mp4	0.0	256.1235589981079	
48	229.9509608745575	fix_post	2		12	46.0	2.5	/experiments/Knapen_AOT/AOT_stimuli/rescaled_final/0440_fw.mp4	0.0	256.2420196533203	0.10004425048828125
49	230.05100512504578	fix_pre	0		120	47.0	2.5	/experiments/Knapen_AOT/AOT_stimuli/rescaled_final/1048_rv.mp4	0.0	256.3420639038086	1.0084753036499023
49	231.05948042869568	movie	1		266	47.0	2.5	/experiments/Knapen_AOT/AOT_stimuli/rescaled_final/1048_rv.mp4	0.0	257.3505392074585	2.4920079708099365
49	231.43348217010498	pulse	1	t		47.0	2.5	/experiments/Knapen_AOT/AOT_stimuli/rescaled_final/1048_rv.mp4	0.0	257.7245409488678	
49	233.03312849998474	pulse	1	t		47.0	2.5	/experiments/Knapen_AOT/AOT_stimuli/rescaled_final/1048_rv.mp4	0.0	259.32418727874756	
49	233.55148839950562	fix_post	2		12	47.0	2.5	/experiments/Knapen_AOT/AOT_stimuli/rescaled_final/1048_rv.mp4	0.0	259.84254717826843	0.10002636909484863
50	233.65151476860046	fix_pre	0		119	48.0	2.5	blank	1.0	259.9425735473633	0.9918084144592285
50	234.63524961471558	pulse	0	t		48.0	2.5	blank	1.0	260.9263083934784	
50	234.6433231830597	movie	1		301	48.0	2.5	blank	1.0	260.9343819618225	2.508741617202759
50	236.23549675941467	pulse	1	t		48.0	2.5	blank	1.0	262.5265555381775	
50	237.15206480026245	fix_post	2		12	48.0	2.5	blank	1.0	263.44312357902527	0.09998750686645508
51	237.2520523071289	fix_pre	0		120	49.0	2.5	/experiments/Knapen_AOT/AOT_stimuli/rescaled_final/1234_rv.mp4	0.0	263.5431110858917	1.0085773468017578
51	237.8357880115509	pulse	0	t		49.0	2.5	/experiments/Knapen_AOT/AOT_stimuli/rescaled_final/1234_rv.mp4	0.0	264.1268467903137	
51	238.26062965393066	movie	1		275	49.0	2.5	/experiments/Knapen_AOT/AOT_stimuli/rescaled_final/1234_rv.mp4	0.0	264.5516884326935	2.4919791221618652
51	239.43486404418945	pulse	1	t		49.0	2.5	/experiments/Knapen_AOT/AOT_stimuli/rescaled_final/1234_rv.mp4	0.0	265.72592282295227	
51	240.75260877609253	fix_post	2		12	49.0	2.5	/experiments/Knapen_AOT/AOT_stimuli/rescaled_final/1234_rv.mp4	0.0	267.04366755485535	0.10001015663146973
52	240.852618932724	fix_pre	0		120	50.0	2.5	/experiments/Knapen_AOT/AOT_stimuli/rescaled_final/0235_fw.mp4	0.0	267.1436777114868	1.0084643363952637
52	241.0361635684967	pulse	0	t		50.0	2.5	/experiments/Knapen_AOT/AOT_stimuli/rescaled_final/0235_fw.mp4	0.0	267.3272223472595	
52	241.86108326911926	movie	1		291	50.0	2.5	/experiments/Knapen_AOT/AOT_stimuli/rescaled_final/0235_fw.mp4	0.0	268.1521420478821	2.4921116828918457
52	242.63463616371155	pulse	1	t		50.0	2.5	/experiments/Knapen_AOT/AOT_stimuli/rescaled_final/0235_fw.mp4	0.0	268.92569494247437	
52	244.23459672927856	pulse	1	t		50.0	2.5	/experiments/Knapen_AOT/AOT_stimuli/rescaled_final/0235_fw.mp4	0.0	270.5256555080414	
52	244.3531949520111	fix_post	2		12	50.0	2.5	/experiments/Knapen_AOT/AOT_stimuli/rescaled_final/0235_fw.mp4	0.0	270.6442537307739	0.09995460510253906
53	244.45314955711365	fix_pre	0		120	51.0	2.5	/experiments/Knapen_AOT/AOT_stimuli/rescaled_final/2048_fw.mp4	0.0	270.74420833587646	1.0085113048553467
53	245.461660861969	movie	1		282	51.0	2.5	/experiments/Knapen_AOT/AOT_stimuli/rescaled_final/2048_fw.mp4	0.0	271.7527196407318	2.4920060634613037
53	245.83711767196655	pulse	1	t		51.0	2.5	/experiments/Knapen_AOT/AOT_stimuli/rescaled_final/2048_fw.mp4	0.0	272.12817645072937	
53	247.4288260936737	pulse	1	t		51.0	2.5	/experiments/Knapen_AOT/AOT_stimuli/rescaled_final/2048_fw.mp4	0.0	273.7198848724365	
53	247.9536669254303	fix_post	2		12	51.0	2.5	/experiments/Knapen_AOT/AOT_stimuli/rescaled_final/2048_fw.mp4	0.0	274.2447257041931	0.1000204086303711
54	248.05368733406067	fix_pre	0		118	52.0	2.5	/experiments/Knapen_AOT/AOT_stimuli/rescaled_final/0201_rv.mp4	0.0	274.3447461128235	0.9918067455291748
54	249.02950859069824	pulse	0	t		52.0	2.5	/experiments/Knapen_AOT/AOT_stimuli/rescaled_final/0201_rv.mp4	0.0	275.32056736946106	
54	249.04549407958984	movie	1		278	52.0	2.5	/experiments/Knapen_AOT/AOT_stimuli/rescaled_final/0201_rv.mp4	0.0	275.33655285835266	2.5003867149353027
54	250.62945413589478	pulse	1	t		52.0	2.5	/experiments/Knapen_AOT/AOT_stimuli/rescaled_final/0201_rv.mp4	0.0	276.9205129146576	
54	251.54588079452515	fix_post	2		12	52.0	2.5	/experiments/Knapen_AOT/AOT_stimuli/rescaled_final/0201_rv.mp4	0.0	277.83693957328796	0.10001492500305176
55	251.6458957195282	fix_pre	0		120	53.0	2.5	/experiments/Knapen_AOT/AOT_stimuli/rescaled_final/0575_fw.mp4	0.0	277.936954498291	1.0085082054138184
55	252.22955632209778	pulse	0	t		53.0	2.5	/experiments/Knapen_AOT/AOT_stimuli/rescaled_final/0575_fw.mp4	0.0	278.5206151008606	
55	252.65440392494202	movie	1		290	53.0	2.5	/experiments/Knapen_AOT/AOT_stimuli/rescaled_final/0575_fw.mp4	0.0	278.94546270370483	2.492009162902832
55	253.8297803401947	pulse	1	t		53.0	2.5	/experiments/Knapen_AOT/AOT_stimuli/rescaled_final/0575_fw.mp4	0.0	280.1208391189575	
55	255.14641308784485	fix_post	2		12	53.0	2.5	/experiments/Knapen_AOT/AOT_stimuli/rescaled_final/0575_fw.mp4	0.0	281.43747186660767	0.10001921653747559
56	255.24643230438232	fix_pre	0		120	54.0	2.5	/experiments/Knapen_AOT/AOT_stimuli/rescaled_final/2105_rv.mp4	0.0	281.53749108314514	1.0085186958312988
56	255.4300148487091	pulse	0	t		54.0	2.5	/experiments/Knapen_AOT/AOT_stimuli/rescaled_final/2105_rv.mp4	0.0	281.7210736274719	
56	256.2549510002136	movie	1		266	54.0	2.5	/experiments/Knapen_AOT/AOT_stimuli/rescaled_final/2105_rv.mp4	0.0	282.54600977897644	2.492094039916992
56	257.03038358688354	pulse	1	t		54.0	2.5	/experiments/Knapen_AOT/AOT_stimuli/rescaled_final/2105_rv.mp4	0.0	283.32144236564636	
56	258.62882804870605	pulse	1	t		54.0	2.5	/experiments/Knapen_AOT/AOT_stimuli/rescaled_final/2105_rv.mp4	0.0	284.9198868274689	
56	258.7470450401306	fix_post	2		12	54.0	2.5	/experiments/Knapen_AOT/AOT_stimuli/rescaled_final/2105_rv.mp4	0.0	285.03810381889343	0.09992551803588867
57	258.8469705581665	fix_pre	0		120	55.0	2.5	blank	1.0	285.1380293369293	1.0001606941223145
57	259.8471312522888	movie	1		300	55.0	2.5	blank	1.0	286.13819003105164	2.500357151031494
57	260.2308304309845	pulse	1	t		55.0	2.5	blank	1.0	286.5218892097473	
57	261.830935716629	pulse	1	t		55.0	2.5	blank	1.0	288.12199449539185	
57	262.3474884033203	fix_post	2		12	55.0	2.5	blank	1.0	288.63854718208313	0.10012531280517578
58	262.4476137161255	fix_pre	0		119	56.0	2.5	/experiments/Knapen_AOT/AOT_stimuli/rescaled_final/0217_rv.mp4	0.0	288.7386724948883	1.0000874996185303
58	263.4313814640045	pulse	0	t		56.0	2.5	/experiments/Knapen_AOT/AOT_stimuli/rescaled_final/0217_rv.mp4	0.0	289.72244024276733	
58	263.447701215744	movie	1		273	56.0	2.5	/experiments/Knapen_AOT/AOT_stimuli/rescaled_final/0217_rv.mp4	0.0	289.73875999450684	2.5003249645233154
58	265.03160429000854	pulse	1	t		56.0	2.5	/experiments/Knapen_AOT/AOT_stimuli/rescaled_final/0217_rv.mp4	0.0	291.32266306877136	
58	265.94802618026733	fix_post	2		12	56.0	2.5	/experiments/Knapen_AOT/AOT_stimuli/rescaled_final/0217_rv.mp4	0.0	292.23908495903015	0.10002326965332031
59	266.04804944992065	fix_pre	0		120	57.0	2.5	/experiments/Knapen_AOT/AOT_stimuli/rescaled_final/0519_fw.mp4	0.0	292.3391082286835	1.008521318435669
59	266.631719827652	pulse	0	t		57.0	2.5	/experiments/Knapen_AOT/AOT_stimuli/rescaled_final/0519_fw.mp4	0.0	292.9227786064148	
59	267.0565707683563	movie	1		273	57.0	2.5	/experiments/Knapen_AOT/AOT_stimuli/rescaled_final/0519_fw.mp4	0.0	293.34762954711914	2.4919891357421875
59	268.23001766204834	pulse	1	t		57.0	2.5	/experiments/Knapen_AOT/AOT_stimuli/rescaled_final/0519_fw.mp4	0.0	294.52107644081116	
59	269.5485599040985	fix_post	2		12	57.0	2.5	/experiments/Knapen_AOT/AOT_stimuli/rescaled_final/0519_fw.mp4	0.0	295.8396186828613	0.10008525848388672
60	269.6486451625824	fix_pre	0		120	58.0	2.5	/experiments/Knapen_AOT/AOT_stimuli/rescaled_final/1847_fw.mp4	0.0	295.9397039413452	1.0084688663482666
60	269.83225297927856	pulse	0	t		58.0	2.5	/experiments/Knapen_AOT/AOT_stimuli/rescaled_final/1847_fw.mp4	0.0	296.1233117580414	
60	270.65711402893066	movie	1		272	58.0	2.5	/experiments/Knapen_AOT/AOT_stimuli/rescaled_final/1847_fw.mp4	0.0	296.9481728076935	2.4920923709869385
60	271.43115496635437	pulse	1	t		58.0	2.5	/experiments/Knapen_AOT/AOT_stimuli/rescaled_final/1847_fw.mp4	0.0	297.7222137451172	
60	273.03067421913147	pulse	1	t		58.0	2.5	/experiments/Knapen_AOT/AOT_stimuli/rescaled_final/1847_fw.mp4	0.0	299.3217329978943	
60	273.1492063999176	fix_post	2		12	58.0	2.5	/experiments/Knapen_AOT/AOT_stimuli/rescaled_final/1847_fw.mp4	0.0	299.4402651786804	0.09993791580200195
61	273.2491443157196	fix_pre	0		120	59.0	2.5	/experiments/Knapen_AOT/AOT_stimuli/rescaled_final/0424_fw.mp4	0.0	299.5402030944824	1.0085158348083496
61	274.25766015052795	movie	1		269	59.0	2.5	/experiments/Knapen_AOT/AOT_stimuli/rescaled_final/0424_fw.mp4	0.0	300.54871892929077	2.4920105934143066
61	274.6313352584839	pulse	1	t		59.0	2.5	/experiments/Knapen_AOT/AOT_stimuli/rescaled_final/0424_fw.mp4	0.0	300.9223940372467	
61	276.231463432312	pulse	1	t		59.0	2.5	/experiments/Knapen_AOT/AOT_stimuli/rescaled_final/0424_fw.mp4	0.0	302.52252221107483	
61	276.74967074394226	fix_post	2		12	59.0	2.5	/experiments/Knapen_AOT/AOT_stimuli/rescaled_final/0424_fw.mp4	0.0	303.0407295227051	0.10007190704345703
62	276.8497426509857	fix_pre	0		119	60.0	2.5	/experiments/Knapen_AOT/AOT_stimuli/rescaled_final/0876_fw.mp4	0.0	303.14080142974854	1.0000965595245361
62	277.83346223831177	pulse	0	t		60.0	2.5	/experiments/Knapen_AOT/AOT_stimuli/rescaled_final/0876_fw.mp4	0.0	304.1245210170746	
62	277.84983921051025	movie	1		269	60.0	2.5	/experiments/Knapen_AOT/AOT_stimuli/rescaled_final/0876_fw.mp4	0.0	304.14089798927307	2.5087695121765137
62	279.43386363983154	pulse	1	t		60.0	2.5	/experiments/Knapen_AOT/AOT_stimuli/rescaled_final/0876_fw.mp4	0.0	305.72492241859436	
62	280.35860872268677	fix_post	2		11	60.0	2.5	/experiments/Knapen_AOT/AOT_stimuli/rescaled_final/0876_fw.mp4	0.0	306.6496675014496	0.09161019325256348
63	280.45021891593933	fix_pre	0		120	61.0	2.5	/experiments/Knapen_AOT/AOT_stimuli/rescaled_final/0255_rv.mp4	0.0	306.74127769470215	1.0085365772247314
63	281.03383564949036	pulse	0	t		61.0	2.5	/experiments/Knapen_AOT/AOT_stimuli/rescaled_final/0255_rv.mp4	0.0	307.3248944282532	
63	281.45875549316406	movie	1		282	61.0	2.5	/experiments/Knapen_AOT/AOT_stimuli/rescaled_final/0255_rv.mp4	0.0	307.7498142719269	2.4919958114624023
63	282.6324861049652	pulse	1	t		61.0	2.5	/experiments/Knapen_AOT/AOT_stimuli/rescaled_final/0255_rv.mp4	0.0	308.923544883728	
63	283.95075130462646	fix_post	2		12	61.0	2.5	/experiments/Knapen_AOT/AOT_stimuli/rescaled_final/0255_rv.mp4	0.0	310.2418100833893	0.10001611709594727
64	284.0507674217224	fix_pre	0		120	62.0	2.5	/experiments/Knapen_AOT/AOT_stimuli/rescaled_final/0249_rv.mp4	0.0	310.34182620048523	1.0085043907165527
64	284.234388589859	pulse	0	t		62.0	2.5	/experiments/Knapen_AOT/AOT_stimuli/rescaled_final/0249_rv.mp4	0.0	310.5254473686218	
64	285.05927181243896	movie	1		280	62.0	2.5	/experiments/Knapen_AOT/AOT_stimuli/rescaled_final/0249_rv.mp4	0.0	311.3503305912018	2.4920196533203125
64	285.8335711956024	pulse	1	t		62.0	2.5	/experiments/Knapen_AOT/AOT_stimuli/rescaled_final/0249_rv.mp4	0.0	312.12462997436523	
64	287.432822227478	pulse	1	t		62.0	2.5	/experiments/Knapen_AOT/AOT_stimuli/rescaled_final/0249_rv.mp4	0.0	313.72388100624084	
64	287.5512914657593	fix_post	2		12	62.0	2.5	/experiments/Knapen_AOT/AOT_stimuli/rescaled_final/0249_rv.mp4	0.0	313.8423502445221	0.10001707077026367
65	287.65130853652954	fix_pre	0		120	63.0	2.5	blank	1.0	313.94236731529236	1.0001561641693115
65	288.65146470069885	movie	1		300	63.0	2.5	blank	1.0	314.94252347946167	2.5003607273101807
65	289.0350525379181	pulse	1	t		63.0	2.5	blank	1.0	315.3261113166809	
65	290.63542580604553	pulse	1	t		63.0	2.5	blank	1.0	316.92648458480835	
65	291.15182542800903	fix_post	2		12	63.0	2.5	blank	1.0	317.44288420677185	0.10008525848388672
66	291.2519106864929	fix_pre	0		119	64.0	2.5	/experiments/Knapen_AOT/AOT_stimuli/rescaled_final/1113_rv.mp4	0.0	317.54296946525574	1.008707046508789
66	292.23557448387146	pulse	0	t		64.0	2.5	/experiments/Knapen_AOT/AOT_stimuli/rescaled_final/1113_rv.mp4	0.0	318.5266332626343	
66	292.2606177330017	movie	1		274	64.0	2.5	/experiments/Knapen_AOT/AOT_stimuli/rescaled_final/1113_rv.mp4	0.0	318.5516765117645	2.4917654991149902
66	293.83532881736755	pulse	1	t		64.0	2.5	/experiments/Knapen_AOT/AOT_stimuli/rescaled_final/1113_rv.mp4	0.0	320.12638759613037	
66	294.7523832321167	fix_post	2		12	64.0	2.5	/experiments/Knapen_AOT/AOT_stimuli/rescaled_final/1113_rv.mp4	0.0	321.0434420108795	0.10000133514404297
67	294.85238456726074	fix_pre	0		120	65.0	2.5	/experiments/Knapen_AOT/AOT_stimuli/rescaled_final/1599_rv.mp4	0.0	321.14344334602356	1.008509874343872
67	295.4360809326172	pulse	0	t		65.0	2.5	/experiments/Knapen_AOT/AOT_stimuli/rescaled_final/1599_rv.mp4	0.0	321.72713971138	
67	295.8608944416046	movie	1		265	65.0	2.5	/experiments/Knapen_AOT/AOT_stimuli/rescaled_final/1599_rv.mp4	0.0	322.15195322036743	2.4920144081115723
67	297.03501057624817	pulse	1	t		65.0	2.5	/experiments/Knapen_AOT/AOT_stimuli/rescaled_final/1599_rv.mp4	0.0	323.326069355011	
67	298.3529088497162	fix_post	2		12	65.0	2.5	/experiments/Knapen_AOT/AOT_stimuli/rescaled_final/1599_rv.mp4	0.0	324.643967628479	0.10001707077026367
68	298.45292592048645	fix_pre	0		120	66.0	2.5	/experiments/Knapen_AOT/AOT_stimuli/rescaled_final/0422_fw.mp4	0.0	324.74398469924927	1.0085475444793701
68	298.6290590763092	pulse	0	t		66.0	2.5	/experiments/Knapen_AOT/AOT_stimuli/rescaled_final/0422_fw.mp4	0.0	324.920117855072	
68	299.4614734649658	movie	1		285	66.0	2.5	/experiments/Knapen_AOT/AOT_stimuli/rescaled_final/0422_fw.mp4	0.0	325.75253224372864	2.4919850826263428
68	300.2349054813385	pulse	1	t		66.0	2.5	/experiments/Knapen_AOT/AOT_stimuli/rescaled_final/0422_fw.mp4	0.0	326.5259642601013	
68	301.8351562023163	pulse	1	t		66.0	2.5	/experiments/Knapen_AOT/AOT_stimuli/rescaled_final/0422_fw.mp4	0.0	328.1262149810791	
68	301.95345854759216	fix_post	2		12	66.0	2.5	/experiments/Knapen_AOT/AOT_stimuli/rescaled_final/0422_fw.mp4	0.0	328.244517326355	0.10012054443359375
69	302.05357909202576	fix_pre	0		120	67.0	2.5	/experiments/Knapen_AOT/AOT_stimuli/rescaled_final/1470_rv.mp4	0.0	328.3446378707886	1.0083866119384766
69	303.06196570396423	movie	1		284	67.0	2.5	/experiments/Knapen_AOT/AOT_stimuli/rescaled_final/1470_rv.mp4	0.0	329.35302448272705	2.492065906524658
69	303.42939496040344	pulse	1	t		67.0	2.5	/experiments/Knapen_AOT/AOT_stimuli/rescaled_final/1470_rv.mp4	0.0	329.72045373916626	
69	305.0292432308197	pulse	1	t		67.0	2.5	/experiments/Knapen_AOT/AOT_stimuli/rescaled_final/1470_rv.mp4	0.0	331.3203020095825	
69	305.5540316104889	fix_post	2		12	67.0	2.5	/experiments/Knapen_AOT/AOT_stimuli/rescaled_final/1470_rv.mp4	0.0	331.8450903892517	0.10006046295166016
70	305.65409207344055	fix_pre	0		118	68.0	2.5	blank	1.0	331.94515085220337	0.9833858013153076
70	306.62943053245544	pulse	0	t		68.0	2.5	blank	1.0	332.92048931121826	
70	306.63747787475586	movie	1		301	68.0	2.5	blank	1.0	332.9285366535187	2.5087263584136963
70	308.22972869873047	pulse	1	t		68.0	2.5	blank	1.0	334.5207874774933	
70	309.14620423316956	fix_post	2		12	68.0	2.5	blank	1.0	335.4372630119324	0.10003066062927246
71	309.2462348937988	fix_pre	0		120	69.0	2.5	/experiments/Knapen_AOT/AOT_stimuli/rescaled_final/0885_fw.mp4	0.0	335.53729367256165	1.0084967613220215
71	309.83007979393005	pulse	0	t		69.0	2.5	/experiments/Knapen_AOT/AOT_stimuli/rescaled_final/0885_fw.mp4	0.0	336.12113857269287	
71	310.25473165512085	movie	1		279	69.0	2.5	/experiments/Knapen_AOT/AOT_stimuli/rescaled_final/0885_fw.mp4	0.0	336.54579043388367	2.492033004760742
71	311.43069195747375	pulse	1	t		69.0	2.5	/experiments/Knapen_AOT/AOT_stimuli/rescaled_final/0885_fw.mp4	0.0	337.7217507362366	
71	312.7467646598816	fix_post	2		12	69.0	2.5	/experiments/Knapen_AOT/AOT_stimuli/rescaled_final/0885_fw.mp4	0.0	339.0378234386444	0.10002398490905762
72	312.84678864479065	fix_pre	0		120	70.0	2.5	/experiments/Knapen_AOT/AOT_stimuli/rescaled_final/0782_fw.mp4	0.0	339.13784742355347	1.0084941387176514
72	313.03044867515564	pulse	0	t		70.0	2.5	/experiments/Knapen_AOT/AOT_stimuli/rescaled_final/0782_fw.mp4	0.0	339.32150745391846	
72	313.8552827835083	movie	1		272	70.0	2.5	/experiments/Knapen_AOT/AOT_stimuli/rescaled_final/0782_fw.mp4	0.0	340.1463415622711	2.4920058250427246
72	314.6307735443115	pulse	1	t		70.0	2.5	/experiments/Knapen_AOT/AOT_stimuli/rescaled_final/0782_fw.mp4	0.0	340.92183232307434	
72	316.2308385372162	pulse	1	t		70.0	2.5	/experiments/Knapen_AOT/AOT_stimuli/rescaled_final/0782_fw.mp4	0.0	342.521897315979	
72	316.347288608551	fix_post	2		12	70.0	2.5	/experiments/Knapen_AOT/AOT_stimuli/rescaled_final/0782_fw.mp4	0.0	342.63834738731384	0.10003161430358887
73	316.4473202228546	fix_pre	0		120	71.0	2.5	/experiments/Knapen_AOT/AOT_stimuli/rescaled_final/1326_rv.mp4	0.0	342.73837900161743	1.0084943771362305
73	317.45581459999084	movie	1		279	71.0	2.5	/experiments/Knapen_AOT/AOT_stimuli/rescaled_final/1326_rv.mp4	0.0	343.74687337875366	2.492036819458008
73	317.83133482933044	pulse	1	t		71.0	2.5	/experiments/Knapen_AOT/AOT_stimuli/rescaled_final/1326_rv.mp4	0.0	344.12239360809326	
73	319.4313066005707	pulse	1	t		71.0	2.5	/experiments/Knapen_AOT/AOT_stimuli/rescaled_final/1326_rv.mp4	0.0	345.7223653793335	
73	319.94785141944885	fix_post	2		12	71.0	2.5	/experiments/Knapen_AOT/AOT_stimuli/rescaled_final/1326_rv.mp4	0.0	346.23891019821167	0.09996151924133301
74	320.0478129386902	fix_pre	0		119	72.0	2.5	/experiments/Knapen_AOT/AOT_stimuli/rescaled_final/2039_rv.mp4	0.0	346.338871717453	1.000211238861084
74	321.0315532684326	pulse	0	t		72.0	2.5	/experiments/Knapen_AOT/AOT_stimuli/rescaled_final/2039_rv.mp4	0.0	347.32261204719543	
74	321.04802417755127	movie	1		283	72.0	2.5	/experiments/Knapen_AOT/AOT_stimuli/rescaled_final/2039_rv.mp4	0.0	347.3390829563141	2.5003490447998047
74	322.6304016113281	pulse	1	t		72.0	2.5	/experiments/Knapen_AOT/AOT_stimuli/rescaled_final/2039_rv.mp4	0.0	348.92146039009094	
74	323.5483732223511	fix_post	2		12	72.0	2.5	/experiments/Knapen_AOT/AOT_stimuli/rescaled_final/2039_rv.mp4	0.0	349.8394320011139	0.10005712509155273
75	323.6484303474426	fix_pre	0		120	73.0	2.5	/experiments/Knapen_AOT/AOT_stimuli/rescaled_final/0373_fw.mp4	0.0	349.93948912620544	1.008467197418213
75	324.2320771217346	pulse	0	t		73.0	2.5	/experiments/Knapen_AOT/AOT_stimuli/rescaled_final/0373_fw.mp4	0.0	350.52313590049744	
75	324.65689754486084	movie	1		276	73.0	2.5	/experiments/Knapen_AOT/AOT_stimuli/rescaled_final/0373_fw.mp4	0.0	350.94795632362366	2.4920272827148438
75	325.83058619499207	pulse	1	t		73.0	2.5	/experiments/Knapen_AOT/AOT_stimuli/rescaled_final/0373_fw.mp4	0.0	352.1216449737549	
75	327.1489248275757	fix_post	2		12	73.0	2.5	/experiments/Knapen_AOT/AOT_stimuli/rescaled_final/0373_fw.mp4	0.0	353.4399836063385	0.10002899169921875
76	327.2489538192749	fix_pre	0		120	74.0	2.5	/experiments/Knapen_AOT/AOT_stimuli/rescaled_final/0952_rv.mp4	0.0	353.5400125980377	1.0085034370422363
76	327.432559967041	pulse	0	t		74.0	2.5	/experiments/Knapen_AOT/AOT_stimuli/rescaled_final/0952_rv.mp4	0.0	353.72361874580383	
76	328.25745725631714	movie	1		270	74.0	2.5	/experiments/Knapen_AOT/AOT_stimuli/rescaled_final/0952_rv.mp4	0.0	354.54851603507996	2.491976737976074
76	329.0324854850769	pulse	1	t		74.0	2.5	/experiments/Knapen_AOT/AOT_stimuli/rescaled_final/0952_rv.mp4	0.0	355.3235442638397	
76	330.6311948299408	pulse	1	t		74.0	2.5	/experiments/Knapen_AOT/AOT_stimuli/rescaled_final/0952_rv.mp4	0.0	356.9222536087036	
76	330.7494339942932	fix_post	2		12	74.0	2.5	/experiments/Knapen_AOT/AOT_stimuli/rescaled_final/0952_rv.mp4	0.0	357.04049277305603	0.10004281997680664
77	330.84947681427	fix_pre	0		120	75.0	2.5	/experiments/Knapen_AOT/AOT_stimuli/rescaled_final/0273_rv.mp4	0.0	357.14053559303284	1.008518934249878
77	331.8579957485199	movie	1		274	75.0	2.5	/experiments/Knapen_AOT/AOT_stimuli/rescaled_final/0273_rv.mp4	0.0	358.1490545272827	2.4920051097869873
77	332.23334288597107	pulse	1	t		75.0	2.5	/experiments/Knapen_AOT/AOT_stimuli/rescaled_final/0273_rv.mp4	0.0	358.5244016647339	
77	333.8318512439728	pulse	1	t		75.0	2.5	/experiments/Knapen_AOT/AOT_stimuli/rescaled_final/0273_rv.mp4	0.0	360.1229100227356	
77	334.3500008583069	fix_post	2		12	75.0	2.5	/experiments/Knapen_AOT/AOT_stimuli/rescaled_final/0273_rv.mp4	0.0	360.6410596370697	0.09999203681945801
78	334.44999289512634	fix_pre	0		119	76.0	2.5	blank	1.0	360.74105167388916	0.9917893409729004
78	335.4336814880371	pulse	0	t		76.0	2.5	blank	1.0	361.7247402667999	
78	335.44178223609924	movie	1		301	76.0	2.5	blank	1.0	361.73284101486206	2.508765935897827
78	337.03400778770447	pulse	1	t		76.0	2.5	blank	1.0	363.3250665664673	
78	337.95054817199707	fix_post	2		12	76.0	2.5	blank	1.0	364.2416069507599	0.10003662109375
79	338.0505847930908	fix_pre	0		120	77.0	2.5	/experiments/Knapen_AOT/AOT_stimuli/rescaled_final/1184_rv.mp4	0.0	364.34164357185364	1.0085036754608154
79	338.6341755390167	pulse	0	t		77.0	2.5	/experiments/Knapen_AOT/AOT_stimuli/rescaled_final/1184_rv.mp4	0.0	364.92523431777954	
79	339.05908846855164	movie	1		262	77.0	2.5	/experiments/Knapen_AOT/AOT_stimuli/rescaled_final/1184_rv.mp4	0.0	365.35014724731445	2.492004871368408
79	340.2326443195343	pulse	1	t		77.0	2.5	/experiments/Knapen_AOT/AOT_stimuli/rescaled_final/1184_rv.mp4	0.0	366.5237030982971	
79	341.55109333992004	fix_post	2		12	77.0	2.5	/experiments/Knapen_AOT/AOT_stimuli/rescaled_final/1184_rv.mp4	0.0	367.84215211868286	0.10000491142272949
80	341.6510982513428	fix_pre	0		120	78.0	2.5	/experiments/Knapen_AOT/AOT_stimuli/rescaled_final/0571_fw.mp4	0.0	367.9421570301056	1.0085365772247314
80	341.83465051651	pulse	0	t		78.0	2.5	/experiments/Knapen_AOT/AOT_stimuli/rescaled_final/0571_fw.mp4	0.0	368.1257092952728	
80	342.6596348285675	movie	1		261	78.0	2.5	/experiments/Knapen_AOT/AOT_stimuli/rescaled_final/0571_fw.mp4	0.0	368.9506936073303	2.4920098781585693
80	343.4335901737213	pulse	1	t		78.0	2.5	/experiments/Knapen_AOT/AOT_stimuli/rescaled_final/0571_fw.mp4	0.0	369.72464895248413	
80	345.0346565246582	pulse	1	t		78.0	2.5	/experiments/Knapen_AOT/AOT_stimuli/rescaled_final/0571_fw.mp4	0.0	371.325715303421	
80	345.1516447067261	fix_post	2		12	78.0	2.5	/experiments/Knapen_AOT/AOT_stimuli/rescaled_final/0571_fw.mp4	0.0	371.4427034854889	0.1000223159790039
81	345.2516670227051	fix_pre	0		120	79.0	2.5	/experiments/Knapen_AOT/AOT_stimuli/rescaled_final/0663_fw.mp4	0.0	371.5427258014679	1.0084636211395264
81	346.2601306438446	movie	1		279	79.0	2.5	/experiments/Knapen_AOT/AOT_stimuli/rescaled_final/0663_fw.mp4	0.0	372.5511894226074	2.4920525550842285
81	346.6341383457184	pulse	1	t		79.0	2.5	/experiments/Knapen_AOT/AOT_stimuli/rescaled_final/0663_fw.mp4	0.0	372.9251971244812	
81	348.2336814403534	pulse	1	t		79.0	2.5	/experiments/Knapen_AOT/AOT_stimuli/rescaled_final/0663_fw.mp4	0.0	374.5247402191162	
81	348.75218319892883	fix_post	2		12	79.0	2.5	/experiments/Knapen_AOT/AOT_stimuli/rescaled_final/0663_fw.mp4	0.0	375.04324197769165	0.1000206470489502
82	348.8522038459778	fix_pre	0		119	80.0	2.5	/experiments/Knapen_AOT/AOT_stimuli/rescaled_final/1521_fw.mp4	0.0	375.1432626247406	1.0002176761627197
82	349.8359725475311	pulse	0	t		80.0	2.5	/experiments/Knapen_AOT/AOT_stimuli/rescaled_final/1521_fw.mp4	0.0	376.12703132629395	
82	349.8524215221405	movie	1		277	80.0	2.5	/experiments/Knapen_AOT/AOT_stimuli/rescaled_final/1521_fw.mp4	0.0	376.1434803009033	2.5002834796905518
82	351.435667514801	pulse	1	t		80.0	2.5	/experiments/Knapen_AOT/AOT_stimuli/rescaled_final/1521_fw.mp4	0.0	377.72672629356384	
82	352.35270500183105	fix_post	2		12	80.0	2.5	/experiments/Knapen_AOT/AOT_stimuli/rescaled_final/1521_fw.mp4	0.0	378.6437637805939	0.10005331039428711
83	352.45275831222534	fix_pre	0		120	81.0	2.5	/experiments/Knapen_AOT/AOT_stimuli/rescaled_final/1504_rv.mp4	0.0	378.74381709098816	1.008453130722046
83	353.0365147590637	pulse	0	t		81.0	2.5	/experiments/Knapen_AOT/AOT_stimuli/rescaled_final/1504_rv.mp4	0.0	379.32757353782654	
83	353.4612114429474	movie	1		270	81.0	2.5	/experiments/Knapen_AOT/AOT_stimuli/rescaled_final/1504_rv.mp4	0.0	379.7522702217102	2.492058515548706
83	354.6362085342407	pulse	1	t		81.0	2.5	/experiments/Knapen_AOT/AOT_stimuli/rescaled_final/1504_rv.mp4	0.0	380.92726731300354	
83	355.9532699584961	fix_post	2		12	81.0	2.5	/experiments/Knapen_AOT/AOT_stimuli/rescaled_final/1504_rv.mp4	0.0	382.2443287372589	0.10001063346862793
84	356.0532805919647	fix_pre	0		120	82.0	2.5	/experiments/Knapen_AOT/AOT_stimuli/rescaled_final/1457_rv.mp4	0.0	382.34433937072754	1.0084941387176514
84	356.2368242740631	pulse	0	t		82.0	2.5	/experiments/Knapen_AOT/AOT_stimuli/rescaled_final/1457_rv.mp4	0.0	382.5278830528259	
84	357.0617747306824	movie	1		275	82.0	2.5	/experiments/Knapen_AOT/AOT_stimuli/rescaled_final/1457_rv.mp4	0.0	383.3528335094452	2.4920220375061035
84	357.8351957798004	pulse	1	t		82.0	2.5	/experiments/Knapen_AOT/AOT_stimuli/rescaled_final/1457_rv.mp4	0.0	384.12625455856323	
84	359.4361217021942	pulse	1	t		82.0	2.5	/experiments/Knapen_AOT/AOT_stimuli/rescaled_final/1457_rv.mp4	0.0	385.72718048095703	
84	359.5537967681885	fix_post	2		12	82.0	2.5	/experiments/Knapen_AOT/AOT_stimuli/rescaled_final/1457_rv.mp4	0.0	385.8448555469513	0.10024833679199219
85	359.65404510498047	fix_pre	0		120	83.0	2.5	blank	1.0	385.9451038837433	0.9999105930328369
85	360.6539556980133	movie	1		300	83.0	2.5	blank	1.0	386.9450144767761	2.5003881454467773
85	361.02957916259766	pulse	1	t		83.0	2.5	blank	1.0	387.3206379413605	
85	362.6296615600586	pulse	1	t		83.0	2.5	blank	1.0	388.9207203388214	
85	363.1543438434601	fix_post	2		12	83.0	2.5	blank	1.0	389.4454026222229	0.1083674430847168
87	363.2627112865448	stim	0		1714					389.5537700653076	14.285472631454468
87	364.22975611686707	pulse	0	t						390.5208148956299	
87	365.8299882411957	pulse	0	t						392.1210470199585	
87	367.4302101135254	pulse	0	t						393.7212688922882	
87	369.03056240081787	pulse	0	t						395.3216211795807	
87	370.6309006214142	pulse	0	t						396.921959400177	
87	372.23095631599426	pulse	0	t						398.5220150947571	
87	373.8311822414398	pulse	0	t						400.12224102020264	
87	375.43165946006775	pulse	0	t						401.72271823883057	
87	377.0316433906555	pulse	0	t						403.32270216941833	
