trial_nr	onset	event_type	phase	response	nr_frames	movie_index	movie_duration	movie_file	blank	onset_abs	duration
0	0.158278226852417	stim	0		1					14.291157484054565	0.008385419845581055
0	0.14671897888183594	response	0	space						14.279598236083984	
1	0.16666364669799805	stim	0		4088					14.299542903900146	34.08295154571533
1	34.239585638046265	pulse	0	t						48.37246489524841	
1	34.24961519241333	stim	1		1715					48.38249444961548	14.299133062362671
1	35.8303382396698	pulse	1	t						49.96321749687195	
1	37.43060636520386	pulse	1	t						51.563485622406006	
1	39.03075170516968	pulse	1	t						53.163630962371826	
1	40.63101005554199	pulse	1	t						54.76388931274414	
1	42.23127818107605	pulse	1	t						56.3641574382782	
1	43.83151912689209	pulse	1	t						57.96439838409424	
1	45.43173122406006	pulse	1	t						59.56461048126221	
1	47.03200840950012	pulse	1	t						61.16488766670227	
2	48.548748254776	fix_pre	0		11	0.0	2.5	/experiments/Knapen_AOT/AOT_stimuli/rescaled_final/1200_fw.mp4	0.0	62.68162751197815	0.1000669002532959
2	48.6322603225708	pulse	0	t		0.0	2.5	/experiments/Knapen_AOT/AOT_stimuli/rescaled_final/1200_fw.mp4	0.0	62.76513957977295	
2	48.6488151550293	movie	1		300	0.0	2.5	/experiments/Knapen_AOT/AOT_stimuli/rescaled_final/1200_fw.mp4	0.0	62.781694412231445	2.500326633453369
2	50.228787899017334	pulse	1	t		0.0	2.5	/experiments/Knapen_AOT/AOT_stimuli/rescaled_final/1200_fw.mp4	0.0	64.36166715621948	
2	51.149141788482666	fix_post	2		12	0.0	2.5	/experiments/Knapen_AOT/AOT_stimuli/rescaled_final/1200_fw.mp4	0.0	65.28202104568481	0.10000872611999512
3	51.24915051460266	fix_pre	0		120	1.0	2.5	/experiments/Knapen_AOT/AOT_stimuli/rescaled_final/1034_fw.mp4	0.0	65.38202977180481	1.000166893005371
3	51.832744121551514	pulse	0	t		1.0	2.5	/experiments/Knapen_AOT/AOT_stimuli/rescaled_final/1034_fw.mp4	0.0	65.96562337875366	
3	52.24931740760803	movie	1		300	1.0	2.5	/experiments/Knapen_AOT/AOT_stimuli/rescaled_final/1034_fw.mp4	0.0	66.38219666481018	2.500387668609619
3	53.42874217033386	pulse	1	t		1.0	2.5	/experiments/Knapen_AOT/AOT_stimuli/rescaled_final/1034_fw.mp4	0.0	67.56162142753601	
3	54.74970507621765	fix_post	2		12	1.0	2.5	/experiments/Knapen_AOT/AOT_stimuli/rescaled_final/1034_fw.mp4	0.0	68.8825843334198	0.10004711151123047
4	54.84975218772888	fix_pre	0		120	2.0	2.5	/experiments/Knapen_AOT/AOT_stimuli/rescaled_final/0113_fw.mp4	0.0	68.98263144493103	1.000119686126709
4	55.03322625160217	pulse	0	t		2.0	2.5	/experiments/Knapen_AOT/AOT_stimuli/rescaled_final/0113_fw.mp4	0.0	69.16610550880432	
4	55.84987187385559	movie	1		300	2.0	2.5	/experiments/Knapen_AOT/AOT_stimuli/rescaled_final/0113_fw.mp4	0.0	69.98275113105774	2.500354051589966
4	56.62913942337036	pulse	1	t		2.0	2.5	/experiments/Knapen_AOT/AOT_stimuli/rescaled_final/0113_fw.mp4	0.0	70.76201868057251	
4	58.229286193847656	pulse	1	t		2.0	2.5	/experiments/Knapen_AOT/AOT_stimuli/rescaled_final/0113_fw.mp4	0.0	72.3621654510498	
4	58.35022592544556	fix_post	2		12	2.0	2.5	/experiments/Knapen_AOT/AOT_stimuli/rescaled_final/0113_fw.mp4	0.0	72.4831051826477	0.10001444816589355
5	58.45024037361145	fix_pre	0		120	3.0	2.5	/experiments/Knapen_AOT/AOT_stimuli/rescaled_final/0574_fw.mp4	0.0	72.5831196308136	1.0001327991485596
5	59.45037317276001	movie	1		298	3.0	2.5	/experiments/Knapen_AOT/AOT_stimuli/rescaled_final/0574_fw.mp4	0.0	73.58325242996216	2.4920663833618164
5	59.82989168167114	pulse	1	t		3.0	2.5	/experiments/Knapen_AOT/AOT_stimuli/rescaled_final/0574_fw.mp4	0.0	73.96277093887329	
5	61.42984390258789	pulse	1	t		3.0	2.5	/experiments/Knapen_AOT/AOT_stimuli/rescaled_final/0574_fw.mp4	0.0	75.56272315979004	
5	61.942439556121826	fix_post	2		12	3.0	2.5	/experiments/Knapen_AOT/AOT_stimuli/rescaled_final/0574_fw.mp4	0.0	76.07531881332397	0.10006332397460938
6	62.042502880096436	fix_pre	0		120	4.0	2.5	/experiments/Knapen_AOT/AOT_stimuli/rescaled_final/0406_rv.mp4	0.0	76.17538213729858	1.000105619430542
6	63.03437805175781	pulse	0	t		4.0	2.5	/experiments/Knapen_AOT/AOT_stimuli/rescaled_final/0406_rv.mp4	0.0	77.16725730895996	
6	63.04260849952698	movie	1		301	4.0	2.5	/experiments/Knapen_AOT/AOT_stimuli/rescaled_final/0406_rv.mp4	0.0	77.17548775672913	2.5087103843688965
6	64.63108086585999	pulse	1	t		4.0	2.5	/experiments/Knapen_AOT/AOT_stimuli/rescaled_final/0406_rv.mp4	0.0	78.76396012306213	
6	65.55131888389587	fix_post	2		12	4.0	2.5	/experiments/Knapen_AOT/AOT_stimuli/rescaled_final/0406_rv.mp4	0.0	79.68419814109802	0.10006022453308105
7	65.65137910842896	fix_pre	0		120	5.0	2.5	/experiments/Knapen_AOT/AOT_stimuli/rescaled_final/1814_fw.mp4	0.0	79.7842583656311	1.00010085105896
7	66.23500108718872	pulse	0	t		5.0	2.5	/experiments/Knapen_AOT/AOT_stimuli/rescaled_final/1814_fw.mp4	0.0	80.36788034439087	
7	66.65147995948792	movie	1		299	5.0	2.5	/experiments/Knapen_AOT/AOT_stimuli/rescaled_final/1814_fw.mp4	0.0	80.78435921669006	2.5003788471221924
7	67.83095836639404	pulse	1	t		5.0	2.5	/experiments/Knapen_AOT/AOT_stimuli/rescaled_final/1814_fw.mp4	0.0	81.96383762359619	
7	69.15185880661011	fix_post	2		12	5.0	2.5	/experiments/Knapen_AOT/AOT_stimuli/rescaled_final/1814_fw.mp4	0.0	83.28473806381226	0.1000218391418457
8	69.25188064575195	fix_pre	0		120	6.0	2.5	blank	1.0	83.3847599029541	1.0001494884490967
8	69.4353506565094	pulse	0	t		6.0	2.5	blank	1.0	83.56822991371155	
8	70.25203013420105	movie	1		300	6.0	2.5	blank	1.0	84.3849093914032	2.500382661819458
8	71.035635471344	pulse	1	t		6.0	2.5	blank	1.0	85.16851472854614	
8	72.63586330413818	pulse	1	t		6.0	2.5	blank	1.0	86.76874256134033	
8	72.75241279602051	fix_post	2		12	6.0	2.5	blank	1.0	86.88529205322266	0.10000824928283691
9	72.85242104530334	fix_pre	0		120	7.0	2.5	/experiments/Knapen_AOT/AOT_stimuli/rescaled_final/0824_rv.mp4	0.0	86.9853003025055	1.0003409385681152
9	73.85276198387146	movie	1		299	7.0	2.5	/experiments/Knapen_AOT/AOT_stimuli/rescaled_final/0824_rv.mp4	0.0	87.98564124107361	2.491837978363037
9	74.23212194442749	pulse	1	t		7.0	2.5	/experiments/Knapen_AOT/AOT_stimuli/rescaled_final/0824_rv.mp4	0.0	88.36500120162964	
9	75.83202123641968	pulse	1	t		7.0	2.5	/experiments/Knapen_AOT/AOT_stimuli/rescaled_final/0824_rv.mp4	0.0	89.96490049362183	
9	76.3445999622345	fix_post	2		12	7.0	2.5	/experiments/Knapen_AOT/AOT_stimuli/rescaled_final/0824_rv.mp4	0.0	90.47747921943665	0.10002446174621582
10	76.44462442398071	fix_pre	0		120	8.0	2.5	/experiments/Knapen_AOT/AOT_stimuli/rescaled_final/2069_fw.mp4	0.0	90.57750368118286	1.0003232955932617
10	77.43661403656006	pulse	0	t		8.0	2.5	/experiments/Knapen_AOT/AOT_stimuli/rescaled_final/2069_fw.mp4	0.0	91.5694932937622	
10	77.44494771957397	movie	1		301	8.0	2.5	/experiments/Knapen_AOT/AOT_stimuli/rescaled_final/2069_fw.mp4	0.0	91.57782697677612	2.5085349082946777
10	79.03326869010925	pulse	1	t		8.0	2.5	/experiments/Knapen_AOT/AOT_stimuli/rescaled_final/2069_fw.mp4	0.0	93.1661479473114	
10	79.95348262786865	fix_post	2		12	8.0	2.5	/experiments/Knapen_AOT/AOT_stimuli/rescaled_final/2069_fw.mp4	0.0	94.0863618850708	0.10001873970031738
11	80.05350136756897	fix_pre	0		120	9.0	2.5	/experiments/Knapen_AOT/AOT_stimuli/rescaled_final/1076_rv.mp4	0.0	94.18638062477112	1.0001518726348877
11	80.62870240211487	pulse	0	t		9.0	2.5	/experiments/Knapen_AOT/AOT_stimuli/rescaled_final/1076_rv.mp4	0.0	94.76158165931702	
11	81.05365324020386	movie	1		300	9.0	2.5	/experiments/Knapen_AOT/AOT_stimuli/rescaled_final/1076_rv.mp4	0.0	95.186532497406	2.5003745555877686
11	82.22897338867188	pulse	1	t		9.0	2.5	/experiments/Knapen_AOT/AOT_stimuli/rescaled_final/1076_rv.mp4	0.0	96.36185264587402	
11	83.55402779579163	fix_post	2		12	9.0	2.5	/experiments/Knapen_AOT/AOT_stimuli/rescaled_final/1076_rv.mp4	0.0	97.68690705299377	0.10001897811889648
12	83.65404677391052	fix_pre	0		120	10.0	2.5	/experiments/Knapen_AOT/AOT_stimuli/rescaled_final/2144_fw.mp4	0.0	97.78692603111267	1.0001463890075684
12	83.82920098304749	pulse	0	t		10.0	2.5	/experiments/Knapen_AOT/AOT_stimuli/rescaled_final/2144_fw.mp4	0.0	97.96208024024963	
12	84.65419316291809	movie	1		300	10.0	2.5	/experiments/Knapen_AOT/AOT_stimuli/rescaled_final/2144_fw.mp4	0.0	98.78707242012024	2.500364065170288
12	85.42943978309631	pulse	1	t		10.0	2.5	/experiments/Knapen_AOT/AOT_stimuli/rescaled_final/2144_fw.mp4	0.0	99.56231904029846	
12	87.02967071533203	pulse	1	t		10.0	2.5	/experiments/Knapen_AOT/AOT_stimuli/rescaled_final/2144_fw.mp4	0.0	101.16254997253418	
12	87.15455722808838	fix_post	2		12	10.0	2.5	/experiments/Knapen_AOT/AOT_stimuli/rescaled_final/2144_fw.mp4	0.0	101.28743648529053	0.1000220775604248
13	87.2545793056488	fix_pre	0		120	11.0	2.5	/experiments/Knapen_AOT/AOT_stimuli/rescaled_final/0387_fw.mp4	0.0	101.38745856285095	1.0001490116119385
13	88.25472831726074	movie	1		299	11.0	2.5	/experiments/Knapen_AOT/AOT_stimuli/rescaled_final/0387_fw.mp4	0.0	102.38760757446289	2.4920380115509033
13	88.63014888763428	pulse	1	t		11.0	2.5	/experiments/Knapen_AOT/AOT_stimuli/rescaled_final/0387_fw.mp4	0.0	102.76302814483643	
13	90.23017835617065	pulse	1	t		11.0	2.5	/experiments/Knapen_AOT/AOT_stimuli/rescaled_final/0387_fw.mp4	0.0	104.3630576133728	
13	90.74676632881165	fix_post	2		12	11.0	2.5	/experiments/Knapen_AOT/AOT_stimuli/rescaled_final/0387_fw.mp4	0.0	104.8796455860138	0.10002708435058594
14	90.84679341316223	fix_pre	0		119	12.0	2.5	blank	1.0	104.97967267036438	0.9918110370635986
14	91.83039569854736	pulse	0	t		12.0	2.5	blank	1.0	105.96327495574951	
14	91.83860445022583	movie	1		301	12.0	2.5	blank	1.0	105.97148370742798	2.508694887161255
14	93.43061852455139	pulse	1	t		12.0	2.5	blank	1.0	107.56349778175354	
14	94.34729933738708	fix_post	2		12	12.0	2.5	blank	1.0	108.48017859458923	0.10004162788391113
15	94.447340965271	fix_pre	0		120	13.0	2.5	/experiments/Knapen_AOT/AOT_stimuli/rescaled_final/1008_rv.mp4	0.0	108.58022022247314	1.0001418590545654
15	95.03087067604065	pulse	0	t		13.0	2.5	/experiments/Knapen_AOT/AOT_stimuli/rescaled_final/1008_rv.mp4	0.0	109.1637499332428	
15	95.44748282432556	movie	1		300	13.0	2.5	/experiments/Knapen_AOT/AOT_stimuli/rescaled_final/1008_rv.mp4	0.0	109.58036208152771	2.5003597736358643
15	96.63114285469055	pulse	1	t		13.0	2.5	/experiments/Knapen_AOT/AOT_stimuli/rescaled_final/1008_rv.mp4	0.0	110.7640221118927	
15	97.94784259796143	fix_post	2		12	13.0	2.5	/experiments/Knapen_AOT/AOT_stimuli/rescaled_final/1008_rv.mp4	0.0	112.08072185516357	0.1000211238861084
16	98.04786372184753	fix_pre	0		120	14.0	2.5	/experiments/Knapen_AOT/AOT_stimuli/rescaled_final/2144_fw.mp4	0.0	112.18074297904968	1.0002171993255615
16	98.23137736320496	pulse	0	t		14.0	2.5	/experiments/Knapen_AOT/AOT_stimuli/rescaled_final/2144_fw.mp4	0.0	112.3642566204071	
16	99.0480809211731	movie	1		299	14.0	2.5	/experiments/Knapen_AOT/AOT_stimuli/rescaled_final/2144_fw.mp4	0.0	113.18096017837524	2.500307321548462
16	99.83162665367126	pulse	1	t		14.0	2.5	/experiments/Knapen_AOT/AOT_stimuli/rescaled_final/2144_fw.mp4	0.0	113.96450591087341	
16	101.43184185028076	pulse	1	t		14.0	2.5	/experiments/Knapen_AOT/AOT_stimuli/rescaled_final/2144_fw.mp4	0.0	115.56472110748291	
16	101.54838824272156	fix_post	2		12	14.0	2.5	/experiments/Knapen_AOT/AOT_stimuli/rescaled_final/2144_fw.mp4	0.0	115.6812674999237	0.10003519058227539
17	101.64842343330383	fix_pre	0		120	15.0	2.5	/experiments/Knapen_AOT/AOT_stimuli/rescaled_final/2037_rv.mp4	0.0	115.78130269050598	1.0001633167266846
17	102.64858675003052	movie	1		299	15.0	2.5	/experiments/Knapen_AOT/AOT_stimuli/rescaled_final/2037_rv.mp4	0.0	116.78146600723267	2.4920132160186768
17	103.03224444389343	pulse	1	t		15.0	2.5	/experiments/Knapen_AOT/AOT_stimuli/rescaled_final/2037_rv.mp4	0.0	117.16512370109558	
17	104.6323356628418	pulse	1	t		15.0	2.5	/experiments/Knapen_AOT/AOT_stimuli/rescaled_final/2037_rv.mp4	0.0	118.76521492004395	
17	105.1405999660492	fix_post	2		12	15.0	2.5	/experiments/Knapen_AOT/AOT_stimuli/rescaled_final/2037_rv.mp4	0.0	119.27347922325134	0.10001754760742188
18	105.24061751365662	fix_pre	0		120	16.0	2.5	/experiments/Knapen_AOT/AOT_stimuli/rescaled_final/1144_fw.mp4	0.0	119.37349677085876	1.000128984451294
18	106.2326033115387	pulse	0	t		16.0	2.5	/experiments/Knapen_AOT/AOT_stimuli/rescaled_final/1144_fw.mp4	0.0	120.36548256874084	
18	106.24074649810791	movie	1		301	16.0	2.5	/experiments/Knapen_AOT/AOT_stimuli/rescaled_final/1144_fw.mp4	0.0	120.37362575531006	2.5087547302246094
18	107.82891726493835	pulse	1	t		16.0	2.5	/experiments/Knapen_AOT/AOT_stimuli/rescaled_final/1144_fw.mp4	0.0	121.9617965221405	
18	108.74950122833252	fix_post	2		12	16.0	2.5	/experiments/Knapen_AOT/AOT_stimuli/rescaled_final/1144_fw.mp4	0.0	122.88238048553467	0.10001182556152344
19	108.84951305389404	fix_pre	0		120	17.0	2.5	/experiments/Knapen_AOT/AOT_stimuli/rescaled_final/0268_rv.mp4	0.0	122.98239231109619	1.000164270401001
19	109.43301510810852	pulse	0	t		17.0	2.5	/experiments/Knapen_AOT/AOT_stimuli/rescaled_final/0268_rv.mp4	0.0	123.56589436531067	
19	109.84967732429504	movie	1		299	17.0	2.5	/experiments/Knapen_AOT/AOT_stimuli/rescaled_final/0268_rv.mp4	0.0	123.98255658149719	2.5003366470336914
19	111.0290834903717	pulse	1	t		17.0	2.5	/experiments/Knapen_AOT/AOT_stimuli/rescaled_final/0268_rv.mp4	0.0	125.16196274757385	
19	112.35001397132874	fix_post	2		12	17.0	2.5	/experiments/Knapen_AOT/AOT_stimuli/rescaled_final/0268_rv.mp4	0.0	126.48289322853088	0.10001540184020996
20	112.45002937316895	fix_pre	0		120	18.0	2.5	/experiments/Knapen_AOT/AOT_stimuli/rescaled_final/0716_fw.mp4	0.0	126.5829086303711	1.0001559257507324
20	112.63352632522583	pulse	0	t		18.0	2.5	/experiments/Knapen_AOT/AOT_stimuli/rescaled_final/0716_fw.mp4	0.0	126.76640558242798	
20	113.45018529891968	movie	1		300	18.0	2.5	/experiments/Knapen_AOT/AOT_stimuli/rescaled_final/0716_fw.mp4	0.0	127.58306455612183	2.500361204147339
20	114.22928261756897	pulse	1	t		18.0	2.5	/experiments/Knapen_AOT/AOT_stimuli/rescaled_final/0716_fw.mp4	0.0	128.36216187477112	
20	115.82966709136963	pulse	1	t		18.0	2.5	/experiments/Knapen_AOT/AOT_stimuli/rescaled_final/0716_fw.mp4	0.0	129.96254634857178	
20	115.95054650306702	fix_post	2		12	18.0	2.5	/experiments/Knapen_AOT/AOT_stimuli/rescaled_final/0716_fw.mp4	0.0	130.08342576026917	0.10002994537353516
21	116.05057644844055	fix_pre	0		120	19.0	2.5	/experiments/Knapen_AOT/AOT_stimuli/rescaled_final/0574_fw.mp4	0.0	130.1834557056427	1.000169038772583
21	117.05074548721313	movie	1		299	19.0	2.5	/experiments/Knapen_AOT/AOT_stimuli/rescaled_final/0574_fw.mp4	0.0	131.18362474441528	2.492018938064575
21	117.43014693260193	pulse	1	t		19.0	2.5	/experiments/Knapen_AOT/AOT_stimuli/rescaled_final/0574_fw.mp4	0.0	131.56302618980408	
21	119.03007912635803	pulse	1	t		19.0	2.5	/experiments/Knapen_AOT/AOT_stimuli/rescaled_final/0574_fw.mp4	0.0	133.16295838356018	
21	119.54276442527771	fix_post	2		12	19.0	2.5	/experiments/Knapen_AOT/AOT_stimuli/rescaled_final/0574_fw.mp4	0.0	133.67564368247986	0.10002565383911133
22	119.64279007911682	fix_pre	0		120	20.0	2.5	/experiments/Knapen_AOT/AOT_stimuli/rescaled_final/2144_rv.mp4	0.0	133.77566933631897	1.0005321502685547
22	120.63480305671692	pulse	0	t		20.0	2.5	/experiments/Knapen_AOT/AOT_stimuli/rescaled_final/2144_rv.mp4	0.0	134.76768231391907	
22	120.64332222938538	movie	1		301	20.0	2.5	/experiments/Knapen_AOT/AOT_stimuli/rescaled_final/2144_rv.mp4	0.0	134.77620148658752	2.5083117485046387
22	122.23101544380188	pulse	1	t		20.0	2.5	/experiments/Knapen_AOT/AOT_stimuli/rescaled_final/2144_rv.mp4	0.0	136.36389470100403	
22	123.15163397789001	fix_post	2		12	20.0	2.5	/experiments/Knapen_AOT/AOT_stimuli/rescaled_final/2144_rv.mp4	0.0	137.28451323509216	0.10005044937133789
23	123.25168442726135	fix_pre	0		120	21.0	2.5	blank	1.0	137.3845636844635	1.0001294612884521
23	123.83520221710205	pulse	0	t		21.0	2.5	blank	1.0	137.9680814743042	
23	124.2518138885498	movie	1		300	21.0	2.5	blank	1.0	138.38469314575195	2.500372886657715
23	125.4354498386383	pulse	1	t		21.0	2.5	blank	1.0	139.56832909584045	
23	126.75218677520752	fix_post	2		12	21.0	2.5	blank	1.0	140.88506603240967	0.1000516414642334
24	126.85223841667175	fix_pre	0		120	22.0	2.5	/experiments/Knapen_AOT/AOT_stimuli/rescaled_final/1442_rv.mp4	0.0	140.9851176738739	1.000253677368164
24	127.03571224212646	pulse	0	t		22.0	2.5	/experiments/Knapen_AOT/AOT_stimuli/rescaled_final/1442_rv.mp4	0.0	141.1685914993286	
24	127.85249209403992	movie	1		300	22.0	2.5	/experiments/Knapen_AOT/AOT_stimuli/rescaled_final/1442_rv.mp4	0.0	141.98537135124207	2.500248670578003
24	128.6319136619568	pulse	1	t		22.0	2.5	/experiments/Knapen_AOT/AOT_stimuli/rescaled_final/1442_rv.mp4	0.0	142.76479291915894	
24	130.2317991256714	pulse	1	t		22.0	2.5	/experiments/Knapen_AOT/AOT_stimuli/rescaled_final/1442_rv.mp4	0.0	144.36467838287354	
24	130.35274076461792	fix_post	2		12	22.0	2.5	/experiments/Knapen_AOT/AOT_stimuli/rescaled_final/1442_rv.mp4	0.0	144.48562002182007	0.10001468658447266
25	130.4527554512024	fix_pre	0		120	23.0	2.5	/experiments/Knapen_AOT/AOT_stimuli/rescaled_final/0194_rv.mp4	0.0	144.58563470840454	1.0001301765441895
25	131.45288562774658	movie	1		299	23.0	2.5	/experiments/Knapen_AOT/AOT_stimuli/rescaled_final/0194_rv.mp4	0.0	145.58576488494873	2.4920523166656494
25	131.83232355117798	pulse	1	t		23.0	2.5	/experiments/Knapen_AOT/AOT_stimuli/rescaled_final/0194_rv.mp4	0.0	145.96520280838013	
25	133.43238806724548	pulse	1	t		23.0	2.5	/experiments/Knapen_AOT/AOT_stimuli/rescaled_final/0194_rv.mp4	0.0	147.56526732444763	
25	133.94493794441223	fix_post	2		12	23.0	2.5	/experiments/Knapen_AOT/AOT_stimuli/rescaled_final/0194_rv.mp4	0.0	148.07781720161438	0.10003376007080078
26	134.04497170448303	fix_pre	0		120	24.0	2.5	/experiments/Knapen_AOT/AOT_stimuli/rescaled_final/1318_fw.mp4	0.0	148.17785096168518	1.0001380443572998
26	135.0290174484253	pulse	0	t		24.0	2.5	/experiments/Knapen_AOT/AOT_stimuli/rescaled_final/1318_fw.mp4	0.0	149.16189670562744	
26	135.04510974884033	movie	1		301	24.0	2.5	/experiments/Knapen_AOT/AOT_stimuli/rescaled_final/1318_fw.mp4	0.0	149.17798900604248	2.5087027549743652
26	136.6357398033142	pulse	1	t		24.0	2.5	/experiments/Knapen_AOT/AOT_stimuli/rescaled_final/1318_fw.mp4	0.0	150.76861906051636	
26	137.5538125038147	fix_post	2		12	24.0	2.5	/experiments/Knapen_AOT/AOT_stimuli/rescaled_final/1318_fw.mp4	0.0	151.68669176101685	0.10001754760742188
27	137.65383005142212	fix_pre	0		120	25.0	2.5	/experiments/Knapen_AOT/AOT_stimuli/rescaled_final/1255_fw.mp4	0.0	151.78670930862427	1.0001533031463623
27	138.2290654182434	pulse	0	t		25.0	2.5	/experiments/Knapen_AOT/AOT_stimuli/rescaled_final/1255_fw.mp4	0.0	152.36194467544556	
27	138.65398335456848	movie	1		300	25.0	2.5	/experiments/Knapen_AOT/AOT_stimuli/rescaled_final/1255_fw.mp4	0.0	152.78686261177063	2.5003693103790283
27	139.82941055297852	pulse	1	t		25.0	2.5	/experiments/Knapen_AOT/AOT_stimuli/rescaled_final/1255_fw.mp4	0.0	153.96228981018066	
27	141.1543526649475	fix_post	2		12	25.0	2.5	/experiments/Knapen_AOT/AOT_stimuli/rescaled_final/1255_fw.mp4	0.0	155.28723192214966	0.10001945495605469
28	141.25437211990356	fix_pre	0		120	26.0	2.5	/experiments/Knapen_AOT/AOT_stimuli/rescaled_final/1262_rv.mp4	0.0	155.3872513771057	1.0001428127288818
28	141.42951941490173	pulse	0	t		26.0	2.5	/experiments/Knapen_AOT/AOT_stimuli/rescaled_final/1262_rv.mp4	0.0	155.56239867210388	
28	142.25451493263245	movie	1		300	26.0	2.5	/experiments/Knapen_AOT/AOT_stimuli/rescaled_final/1262_rv.mp4	0.0	156.3873941898346	2.500398635864258
28	143.02980136871338	pulse	1	t		26.0	2.5	/experiments/Knapen_AOT/AOT_stimuli/rescaled_final/1262_rv.mp4	0.0	157.16268062591553	
28	144.63004565238953	pulse	1	t		26.0	2.5	/experiments/Knapen_AOT/AOT_stimuli/rescaled_final/1262_rv.mp4	0.0	158.76292490959167	
28	144.7549135684967	fix_post	2		12	26.0	2.5	/experiments/Knapen_AOT/AOT_stimuli/rescaled_final/1262_rv.mp4	0.0	158.88779282569885	0.09999704360961914
29	144.85491061210632	fix_pre	0		120	27.0	2.5	blank	1.0	158.98778986930847	1.0001459121704102
29	145.85505652427673	movie	1		299	27.0	2.5	blank	1.0	159.98793578147888	2.4920356273651123
29	146.2302324771881	pulse	1	t		27.0	2.5	blank	1.0	160.36311173439026	
29	147.83044934272766	pulse	1	t		27.0	2.5	blank	1.0	161.9633285999298	
29	148.34709215164185	fix_post	2		12	27.0	2.5	blank	1.0	162.479971408844	0.10003304481506348
30	148.4471251964569	fix_pre	0		119	28.0	2.5	/experiments/Knapen_AOT/AOT_stimuli/rescaled_final/1055_rv.mp4	0.0	162.58000445365906	1.0001554489135742
30	149.43072628974915	pulse	0	t		28.0	2.5	/experiments/Knapen_AOT/AOT_stimuli/rescaled_final/1055_rv.mp4	0.0	163.5636055469513	
30	149.44728064537048	movie	1		300	28.0	2.5	/experiments/Knapen_AOT/AOT_stimuli/rescaled_final/1055_rv.mp4	0.0	163.58015990257263	2.500361442565918
30	151.03106951713562	pulse	1	t		28.0	2.5	/experiments/Knapen_AOT/AOT_stimuli/rescaled_final/1055_rv.mp4	0.0	165.16394877433777	
30	151.9476420879364	fix_post	2		12	28.0	2.5	/experiments/Knapen_AOT/AOT_stimuli/rescaled_final/1055_rv.mp4	0.0	166.08052134513855	0.10001754760742188
31	152.04765963554382	fix_pre	0		120	29.0	2.5	/experiments/Knapen_AOT/AOT_stimuli/rescaled_final/0470_fw.mp4	0.0	166.18053889274597	1.0001301765441895
31	152.6312141418457	pulse	0	t		29.0	2.5	/experiments/Knapen_AOT/AOT_stimuli/rescaled_final/0470_fw.mp4	0.0	166.76409339904785	
31	153.047789812088	movie	1		299	29.0	2.5	/experiments/Knapen_AOT/AOT_stimuli/rescaled_final/0470_fw.mp4	0.0	167.18066906929016	2.500391960144043
31	154.23153162002563	pulse	1	t		29.0	2.5	/experiments/Knapen_AOT/AOT_stimuli/rescaled_final/0470_fw.mp4	0.0	168.36441087722778	
31	155.54818177223206	fix_post	2		12	29.0	2.5	/experiments/Knapen_AOT/AOT_stimuli/rescaled_final/0470_fw.mp4	0.0	169.6810610294342	0.10001540184020996
32	155.64819717407227	fix_pre	0		120	30.0	2.5	/experiments/Knapen_AOT/AOT_stimuli/rescaled_final/0944_rv.mp4	0.0	169.7810764312744	1.0001304149627686
32	155.83166241645813	pulse	0	t		30.0	2.5	/experiments/Knapen_AOT/AOT_stimuli/rescaled_final/0944_rv.mp4	0.0	169.96454167366028	
32	156.64832758903503	movie	1		299	30.0	2.5	/experiments/Knapen_AOT/AOT_stimuli/rescaled_final/0944_rv.mp4	0.0	170.78120684623718	2.5003881454467773
32	157.43194389343262	pulse	1	t		30.0	2.5	/experiments/Knapen_AOT/AOT_stimuli/rescaled_final/0944_rv.mp4	0.0	171.56482315063477	
32	159.03218293190002	pulse	1	t		30.0	2.5	/experiments/Knapen_AOT/AOT_stimuli/rescaled_final/0944_rv.mp4	0.0	173.16506218910217	
32	159.1487157344818	fix_post	2		12	30.0	2.5	/experiments/Knapen_AOT/AOT_stimuli/rescaled_final/0944_rv.mp4	0.0	173.28159499168396	0.10001254081726074
33	159.24872827529907	fix_pre	0		120	31.0	2.5	/experiments/Knapen_AOT/AOT_stimuli/rescaled_final/1367_fw.mp4	0.0	173.38160753250122	1.0001611709594727
33	160.24888944625854	movie	1		299	31.0	2.5	/experiments/Knapen_AOT/AOT_stimuli/rescaled_final/1367_fw.mp4	0.0	174.3817687034607	2.4920506477355957
33	160.63244342803955	pulse	1	t		31.0	2.5	/experiments/Knapen_AOT/AOT_stimuli/rescaled_final/1367_fw.mp4	0.0	174.7653226852417	
33	162.23265647888184	pulse	1	t		31.0	2.5	/experiments/Knapen_AOT/AOT_stimuli/rescaled_final/1367_fw.mp4	0.0	176.36553573608398	
33	162.74094009399414	fix_post	2		12	31.0	2.5	/experiments/Knapen_AOT/AOT_stimuli/rescaled_final/1367_fw.mp4	0.0	176.8738193511963	0.10000872611999512
34	162.84094882011414	fix_pre	0		120	32.0	2.5	/experiments/Knapen_AOT/AOT_stimuli/rescaled_final/1461_rv.mp4	0.0	176.97382807731628	1.0085053443908691
34	163.83292961120605	pulse	0	t		32.0	2.5	/experiments/Knapen_AOT/AOT_stimuli/rescaled_final/1461_rv.mp4	0.0	177.9658088684082	
34	163.849454164505	movie	1		299	32.0	2.5	/experiments/Knapen_AOT/AOT_stimuli/rescaled_final/1461_rv.mp4	0.0	177.98233342170715	2.500347375869751
34	165.43321084976196	pulse	1	t		32.0	2.5	/experiments/Knapen_AOT/AOT_stimuli/rescaled_final/1461_rv.mp4	0.0	179.5660901069641	
34	166.34980154037476	fix_post	2		12	32.0	2.5	/experiments/Knapen_AOT/AOT_stimuli/rescaled_final/1461_rv.mp4	0.0	180.4826807975769	0.10004138946533203
35	166.4498429298401	fix_pre	0		120	33.0	2.5	/experiments/Knapen_AOT/AOT_stimuli/rescaled_final/0023_fw.mp4	0.0	180.58272218704224	1.0001592636108398
35	167.03335642814636	pulse	0	t		33.0	2.5	/experiments/Knapen_AOT/AOT_stimuli/rescaled_final/0023_fw.mp4	0.0	181.1662356853485	
35	167.45000219345093	movie	1		300	33.0	2.5	/experiments/Knapen_AOT/AOT_stimuli/rescaled_final/0023_fw.mp4	0.0	181.58288145065308	2.5003392696380615
35	168.6336944103241	pulse	1	t		33.0	2.5	/experiments/Knapen_AOT/AOT_stimuli/rescaled_final/0023_fw.mp4	0.0	182.76657366752625	
35	169.950341463089	fix_post	2		12	33.0	2.5	/experiments/Knapen_AOT/AOT_stimuli/rescaled_final/0023_fw.mp4	0.0	184.08322072029114	0.10001468658447266
36	170.05035614967346	fix_pre	0		120	34.0	2.5	blank	1.0	184.1832354068756	1.000164270401001
36	170.2338593006134	pulse	0	t		34.0	2.5	blank	1.0	184.36673855781555	
36	171.05052042007446	movie	1		300	34.0	2.5	blank	1.0	185.1833996772766	2.5003597736358643
36	171.83410811424255	pulse	1	t		34.0	2.5	blank	1.0	185.9669873714447	
36	173.4343078136444	pulse	1	t		34.0	2.5	blank	1.0	187.56718707084656	
36	173.55088019371033	fix_post	2		12	34.0	2.5	blank	1.0	187.68375945091248	0.10001420974731445
37	173.65089440345764	fix_pre	0		120	35.0	2.5	/experiments/Knapen_AOT/AOT_stimuli/rescaled_final/1143_rv.mp4	0.0	187.7837736606598	1.0004305839538574
37	174.6513249874115	movie	1		299	35.0	2.5	/experiments/Knapen_AOT/AOT_stimuli/rescaled_final/1143_rv.mp4	0.0	188.78420424461365	2.4917855262756348
37	175.0306899547577	pulse	1	t		35.0	2.5	/experiments/Knapen_AOT/AOT_stimuli/rescaled_final/1143_rv.mp4	0.0	189.16356921195984	
37	176.63074207305908	pulse	1	t		35.0	2.5	/experiments/Knapen_AOT/AOT_stimuli/rescaled_final/1143_rv.mp4	0.0	190.76362133026123	
37	177.14311051368713	fix_post	2		12	35.0	2.5	/experiments/Knapen_AOT/AOT_stimuli/rescaled_final/1143_rv.mp4	0.0	191.27598977088928	0.1000058650970459
38	177.24311637878418	fix_pre	0		120	36.0	2.5	/experiments/Knapen_AOT/AOT_stimuli/rescaled_final/1221_fw.mp4	0.0	191.37599563598633	1.0085275173187256
38	178.23508763313293	pulse	0	t		36.0	2.5	/experiments/Knapen_AOT/AOT_stimuli/rescaled_final/1221_fw.mp4	0.0	192.36796689033508	
38	178.2516438961029	movie	1		300	36.0	2.5	/experiments/Knapen_AOT/AOT_stimuli/rescaled_final/1221_fw.mp4	0.0	192.38452315330505	2.500317335128784
38	179.83161306381226	pulse	1	t		36.0	2.5	/experiments/Knapen_AOT/AOT_stimuli/rescaled_final/1221_fw.mp4	0.0	193.9644923210144	
38	180.7519612312317	fix_post	2		12	36.0	2.5	/experiments/Knapen_AOT/AOT_stimuli/rescaled_final/1221_fw.mp4	0.0	194.88484048843384	0.10002470016479492
39	180.85198593139648	fix_pre	0		120	37.0	2.5	/experiments/Knapen_AOT/AOT_stimuli/rescaled_final/1231_rv.mp4	0.0	194.98486518859863	1.0001420974731445
39	181.43553519248962	pulse	0	t		37.0	2.5	/experiments/Knapen_AOT/AOT_stimuli/rescaled_final/1231_rv.mp4	0.0	195.56841444969177	
39	181.85212802886963	movie	1		300	37.0	2.5	/experiments/Knapen_AOT/AOT_stimuli/rescaled_final/1231_rv.mp4	0.0	195.98500728607178	2.5003912448883057
39	183.03153109550476	pulse	1	t		37.0	2.5	/experiments/Knapen_AOT/AOT_stimuli/rescaled_final/1231_rv.mp4	0.0	197.1644103527069	
39	184.35251927375793	fix_post	2		12	37.0	2.5	/experiments/Knapen_AOT/AOT_stimuli/rescaled_final/1231_rv.mp4	0.0	198.48539853096008	0.10004925727844238
40	184.45256853103638	fix_pre	0		120	38.0	2.5	/experiments/Knapen_AOT/AOT_stimuli/rescaled_final/1288_rv.mp4	0.0	198.58544778823853	1.000103235244751
40	184.63607168197632	pulse	0	t		38.0	2.5	/experiments/Knapen_AOT/AOT_stimuli/rescaled_final/1288_rv.mp4	0.0	198.76895093917847	
40	185.45267176628113	movie	1		300	38.0	2.5	/experiments/Knapen_AOT/AOT_stimuli/rescaled_final/1288_rv.mp4	0.0	199.58555102348328	2.5004007816314697
40	186.23184823989868	pulse	1	t		38.0	2.5	/experiments/Knapen_AOT/AOT_stimuli/rescaled_final/1288_rv.mp4	0.0	200.36472749710083	
40	187.83203029632568	pulse	1	t		38.0	2.5	/experiments/Knapen_AOT/AOT_stimuli/rescaled_final/1288_rv.mp4	0.0	201.96490955352783	
40	187.9530725479126	fix_post	2		12	38.0	2.5	/experiments/Knapen_AOT/AOT_stimuli/rescaled_final/1288_rv.mp4	0.0	202.08595180511475	0.10003066062927246
41	188.05310320854187	fix_pre	0		120	39.0	2.5	/experiments/Knapen_AOT/AOT_stimuli/rescaled_final/1795_rv.mp4	0.0	202.18598246574402	1.0001246929168701
41	189.05322790145874	movie	1		298	39.0	2.5	/experiments/Knapen_AOT/AOT_stimuli/rescaled_final/1795_rv.mp4	0.0	203.1861071586609	2.492050886154175
41	189.43283796310425	pulse	1	t		39.0	2.5	/experiments/Knapen_AOT/AOT_stimuli/rescaled_final/1795_rv.mp4	0.0	203.5657172203064	
41	191.03259706497192	pulse	1	t		39.0	2.5	/experiments/Knapen_AOT/AOT_stimuli/rescaled_final/1795_rv.mp4	0.0	205.16547632217407	
41	191.54527878761292	fix_post	2		12	39.0	2.5	/experiments/Knapen_AOT/AOT_stimuli/rescaled_final/1795_rv.mp4	0.0	205.67815804481506	0.1000053882598877
42	191.6452841758728	fix_pre	0		120	40.0	2.5	/experiments/Knapen_AOT/AOT_stimuli/rescaled_final/2061_rv.mp4	0.0	205.77816343307495	1.0084941387176514
42	192.63721871376038	pulse	0	t		40.0	2.5	/experiments/Knapen_AOT/AOT_stimuli/rescaled_final/2061_rv.mp4	0.0	206.77009797096252	
42	192.65377831459045	movie	1		300	40.0	2.5	/experiments/Knapen_AOT/AOT_stimuli/rescaled_final/2061_rv.mp4	0.0	206.7866575717926	2.500370740890503
42	194.23389148712158	pulse	1	t		40.0	2.5	/experiments/Knapen_AOT/AOT_stimuli/rescaled_final/2061_rv.mp4	0.0	208.36677074432373	
42	195.15414905548096	fix_post	2		12	40.0	2.5	/experiments/Knapen_AOT/AOT_stimuli/rescaled_final/2061_rv.mp4	0.0	209.2870283126831	0.10000920295715332
43	195.2541582584381	fix_pre	0		120	41.0	2.5	/experiments/Knapen_AOT/AOT_stimuli/rescaled_final/1231_rv.mp4	0.0	209.38703751564026	1.0001928806304932
43	195.82952737808228	pulse	0	t		41.0	2.5	/experiments/Knapen_AOT/AOT_stimuli/rescaled_final/1231_rv.mp4	0.0	209.96240663528442	
43	196.2543511390686	movie	1		300	41.0	2.5	/experiments/Knapen_AOT/AOT_stimuli/rescaled_final/1231_rv.mp4	0.0	210.38723039627075	2.5003323554992676
43	197.42962861061096	pulse	1	t		41.0	2.5	/experiments/Knapen_AOT/AOT_stimuli/rescaled_final/1231_rv.mp4	0.0	211.5625078678131	
43	198.75468349456787	fix_post	2		12	41.0	2.5	/experiments/Knapen_AOT/AOT_stimuli/rescaled_final/1231_rv.mp4	0.0	212.88756275177002	0.1000204086303711
44	198.85470390319824	fix_pre	0		120	42.0	2.5	blank	1.0	212.9875831604004	1.0001652240753174
44	199.02983260154724	pulse	0	t		42.0	2.5	blank	1.0	213.1627118587494	
44	199.85486912727356	movie	1		300	42.0	2.5	blank	1.0	213.9877483844757	2.500375509262085
44	200.63007760047913	pulse	1	t		42.0	2.5	blank	1.0	214.76295685768127	
44	202.23029828071594	pulse	1	t		42.0	2.5	blank	1.0	216.3631775379181	
44	202.35524463653564	fix_post	2		12	42.0	2.5	blank	1.0	216.4881238937378	0.10000228881835938
45	202.455246925354	fix_pre	0		120	43.0	2.5	/experiments/Knapen_AOT/AOT_stimuli/rescaled_final/0383_fw.mp4	0.0	216.58812618255615	1.0002212524414062
45	203.4554681777954	movie	1		299	43.0	2.5	/experiments/Knapen_AOT/AOT_stimuli/rescaled_final/0383_fw.mp4	0.0	217.58834743499756	2.4920003414154053
45	203.83070826530457	pulse	1	t		43.0	2.5	/experiments/Knapen_AOT/AOT_stimuli/rescaled_final/0383_fw.mp4	0.0	217.9635875225067	
45	205.43083572387695	pulse	1	t		43.0	2.5	/experiments/Knapen_AOT/AOT_stimuli/rescaled_final/0383_fw.mp4	0.0	219.5637149810791	
45	205.94746851921082	fix_post	2		12	43.0	2.5	/experiments/Knapen_AOT/AOT_stimuli/rescaled_final/0383_fw.mp4	0.0	220.08034777641296	0.09997916221618652
46	206.047447681427	fix_pre	0		119	44.0	2.5	/experiments/Knapen_AOT/AOT_stimuli/rescaled_final/1917_rv.mp4	0.0	220.18032693862915	0.9921717643737793
46	207.03110814094543	pulse	0	t		44.0	2.5	/experiments/Knapen_AOT/AOT_stimuli/rescaled_final/1917_rv.mp4	0.0	221.16398739814758	
46	207.03961944580078	movie	1		301	44.0	2.5	/experiments/Knapen_AOT/AOT_stimuli/rescaled_final/1917_rv.mp4	0.0	221.17249870300293	2.508368492126465
46	208.6314218044281	pulse	1	t		44.0	2.5	/experiments/Knapen_AOT/AOT_stimuli/rescaled_final/1917_rv.mp4	0.0	222.76430106163025	
46	209.54798793792725	fix_post	2		12	44.0	2.5	/experiments/Knapen_AOT/AOT_stimuli/rescaled_final/1917_rv.mp4	0.0	223.6808671951294	0.10003876686096191
47	209.6480267047882	fix_pre	0		120	45.0	2.5	/experiments/Knapen_AOT/AOT_stimuli/rescaled_final/2037_fw.mp4	0.0	223.78090596199036	1.0001139640808105
47	210.2315320968628	pulse	0	t		45.0	2.5	/experiments/Knapen_AOT/AOT_stimuli/rescaled_final/2037_fw.mp4	0.0	224.36441135406494	
47	210.64814066886902	movie	1		289	45.0	2.5	/experiments/Knapen_AOT/AOT_stimuli/rescaled_final/2037_fw.mp4	0.0	224.78101992607117	2.5004775524139404
47	211.83179664611816	pulse	1	t		45.0	2.5	/experiments/Knapen_AOT/AOT_stimuli/rescaled_final/2037_fw.mp4	0.0	225.9646759033203	
47	213.14861822128296	fix_post	2		12	45.0	2.5	/experiments/Knapen_AOT/AOT_stimuli/rescaled_final/2037_fw.mp4	0.0	227.2814974784851	0.09992480278015137
48	213.2485430240631	fix_pre	0		120	46.0	2.5	/experiments/Knapen_AOT/AOT_stimuli/rescaled_final/1701_fw.mp4	0.0	227.38142228126526	1.0001428127288818
48	213.4320240020752	pulse	0	t		46.0	2.5	/experiments/Knapen_AOT/AOT_stimuli/rescaled_final/1701_fw.mp4	0.0	227.56490325927734	
48	214.248685836792	movie	1		299	46.0	2.5	/experiments/Knapen_AOT/AOT_stimuli/rescaled_final/1701_fw.mp4	0.0	228.38156509399414	2.5003585815429688
48	215.03228783607483	pulse	1	t		46.0	2.5	/experiments/Knapen_AOT/AOT_stimuli/rescaled_final/1701_fw.mp4	0.0	229.16516709327698	
48	216.63250517845154	pulse	1	t		46.0	2.5	/experiments/Knapen_AOT/AOT_stimuli/rescaled_final/1701_fw.mp4	0.0	230.7653844356537	
48	216.74904441833496	fix_post	2		12	46.0	2.5	/experiments/Knapen_AOT/AOT_stimuli/rescaled_final/1701_fw.mp4	0.0	230.8819236755371	0.1000211238861084
49	216.84906554222107	fix_pre	0		120	47.0	2.5	blank	1.0	230.98194479942322	1.0001492500305176
49	217.8492147922516	movie	1		299	47.0	2.5	blank	1.0	231.98209404945374	2.4920551776885986
49	218.23274278640747	pulse	1	t		47.0	2.5	blank	1.0	232.36562204360962	
49	219.83299136161804	pulse	1	t		47.0	2.5	blank	1.0	233.9658706188202	
49	220.34126996994019	fix_post	2		12	47.0	2.5	blank	1.0	234.47414922714233	0.10001039505004883
50	220.44128036499023	fix_pre	0		120	48.0	2.5	/experiments/Knapen_AOT/AOT_stimuli/rescaled_final/1049_rv.mp4	0.0	234.57415962219238	1.0084834098815918
50	221.43324756622314	pulse	0	t		48.0	2.5	/experiments/Knapen_AOT/AOT_stimuli/rescaled_final/1049_rv.mp4	0.0	235.5661268234253	
50	221.44976377487183	movie	1		300	48.0	2.5	/experiments/Knapen_AOT/AOT_stimuli/rescaled_final/1049_rv.mp4	0.0	235.58264303207397	2.5004451274871826
50	223.0299973487854	pulse	1	t		48.0	2.5	/experiments/Knapen_AOT/AOT_stimuli/rescaled_final/1049_rv.mp4	0.0	237.16287660598755	
50	223.950208902359	fix_post	2		12	48.0	2.5	/experiments/Knapen_AOT/AOT_stimuli/rescaled_final/1049_rv.mp4	0.0	238.08308815956116	0.09993886947631836
51	224.05014777183533	fix_pre	0		120	49.0	2.5	/experiments/Knapen_AOT/AOT_stimuli/rescaled_final/0257_fw.mp4	0.0	238.18302702903748	1.0001590251922607
51	224.63369059562683	pulse	0	t		49.0	2.5	/experiments/Knapen_AOT/AOT_stimuli/rescaled_final/0257_fw.mp4	0.0	238.76656985282898	
51	225.0503067970276	movie	1		300	49.0	2.5	/experiments/Knapen_AOT/AOT_stimuli/rescaled_final/0257_fw.mp4	0.0	239.18318605422974	2.500371217727661
51	226.22972989082336	pulse	1	t		49.0	2.5	/experiments/Knapen_AOT/AOT_stimuli/rescaled_final/0257_fw.mp4	0.0	240.3626091480255	
51	227.55067801475525	fix_post	2		12	49.0	2.5	/experiments/Knapen_AOT/AOT_stimuli/rescaled_final/0257_fw.mp4	0.0	241.6835572719574	0.1000223159790039
52	227.65070033073425	fix_pre	0		120	50.0	2.5	/experiments/Knapen_AOT/AOT_stimuli/rescaled_final/0568_fw.mp4	0.0	241.7835795879364	1.0001378059387207
52	227.83420181274414	pulse	0	t		50.0	2.5	/experiments/Knapen_AOT/AOT_stimuli/rescaled_final/0568_fw.mp4	0.0	241.9670810699463	
52	228.65083813667297	movie	1		300	50.0	2.5	/experiments/Knapen_AOT/AOT_stimuli/rescaled_final/0568_fw.mp4	0.0	242.78371739387512	2.5003795623779297
52	229.43016862869263	pulse	1	t		50.0	2.5	/experiments/Knapen_AOT/AOT_stimuli/rescaled_final/0568_fw.mp4	0.0	243.56304788589478	
52	231.03058505058289	pulse	1	t		50.0	2.5	/experiments/Knapen_AOT/AOT_stimuli/rescaled_final/0568_fw.mp4	0.0	245.16346430778503	
52	231.1512176990509	fix_post	2		12	50.0	2.5	/experiments/Knapen_AOT/AOT_stimuli/rescaled_final/0568_fw.mp4	0.0	245.28409695625305	0.10003781318664551
53	231.25125551223755	fix_pre	0		120	51.0	2.5	/experiments/Knapen_AOT/AOT_stimuli/rescaled_final/0376_rv.mp4	0.0	245.3841347694397	1.0001671314239502
53	232.2514226436615	movie	1		299	51.0	2.5	/experiments/Knapen_AOT/AOT_stimuli/rescaled_final/0376_rv.mp4	0.0	246.38430190086365	2.492011547088623
53	232.63071084022522	pulse	1	t		51.0	2.5	/experiments/Knapen_AOT/AOT_stimuli/rescaled_final/0376_rv.mp4	0.0	246.76359009742737	
53	234.23079442977905	pulse	1	t		51.0	2.5	/experiments/Knapen_AOT/AOT_stimuli/rescaled_final/0376_rv.mp4	0.0	248.3636736869812	
53	234.74343419075012	fix_post	2		12	51.0	2.5	/experiments/Knapen_AOT/AOT_stimuli/rescaled_final/0376_rv.mp4	0.0	248.87631344795227	0.10001063346862793
54	234.84344482421875	fix_pre	0		120	52.0	2.5	/experiments/Knapen_AOT/AOT_stimuli/rescaled_final/1367_fw.mp4	0.0	248.9763240814209	1.0084905624389648
54	235.83545637130737	pulse	0	t		52.0	2.5	/experiments/Knapen_AOT/AOT_stimuli/rescaled_final/1367_fw.mp4	0.0	249.96833562850952	
54	235.85193538665771	movie	1		300	52.0	2.5	/experiments/Knapen_AOT/AOT_stimuli/rescaled_final/1367_fw.mp4	0.0	249.98481464385986	2.5003550052642822
54	237.43183636665344	pulse	1	t		52.0	2.5	/experiments/Knapen_AOT/AOT_stimuli/rescaled_final/1367_fw.mp4	0.0	251.5647156238556	
54	238.352290391922	fix_post	2		12	52.0	2.5	/experiments/Knapen_AOT/AOT_stimuli/rescaled_final/1367_fw.mp4	0.0	252.48516964912415	0.1000216007232666
55	238.45231199264526	fix_pre	0		120	53.0	2.5	/experiments/Knapen_AOT/AOT_stimuli/rescaled_final/0761_fw.mp4	0.0	252.5851912498474	1.0001652240753174
55	239.03586506843567	pulse	0	t		53.0	2.5	/experiments/Knapen_AOT/AOT_stimuli/rescaled_final/0761_fw.mp4	0.0	253.16874432563782	
55	239.45247721672058	movie	1		300	53.0	2.5	/experiments/Knapen_AOT/AOT_stimuli/rescaled_final/0761_fw.mp4	0.0	253.58535647392273	2.500370502471924
55	240.63177919387817	pulse	1	t		53.0	2.5	/experiments/Knapen_AOT/AOT_stimuli/rescaled_final/0761_fw.mp4	0.0	254.76465845108032	
55	241.9528477191925	fix_post	2		12	53.0	2.5	/experiments/Knapen_AOT/AOT_stimuli/rescaled_final/0761_fw.mp4	0.0	256.08572697639465	0.10001039505004883
56	242.05285811424255	fix_pre	0		120	54.0	2.5	/experiments/Knapen_AOT/AOT_stimuli/rescaled_final/0314_rv.mp4	0.0	256.1857373714447	1.000159740447998
56	242.236337184906	pulse	0	t		54.0	2.5	/experiments/Knapen_AOT/AOT_stimuli/rescaled_final/0314_rv.mp4	0.0	256.36921644210815	
56	243.05301785469055	movie	1		300	54.0	2.5	/experiments/Knapen_AOT/AOT_stimuli/rescaled_final/0314_rv.mp4	0.0	257.1858971118927	2.500382900238037
56	243.83244943618774	pulse	1	t		54.0	2.5	/experiments/Knapen_AOT/AOT_stimuli/rescaled_final/0314_rv.mp4	0.0	257.9653286933899	
56	245.43264436721802	pulse	1	t		54.0	2.5	/experiments/Knapen_AOT/AOT_stimuli/rescaled_final/0314_rv.mp4	0.0	259.56552362442017	
56	245.5534007549286	fix_post	2		12	54.0	2.5	/experiments/Knapen_AOT/AOT_stimuli/rescaled_final/0314_rv.mp4	0.0	259.68628001213074	0.09999966621398926
57	245.65340042114258	fix_pre	0		120	55.0	2.5	blank	1.0	259.7862796783447	1.0001614093780518
57	246.65356183052063	movie	1		299	55.0	2.5	blank	1.0	260.7864410877228	2.492034912109375
57	247.02890753746033	pulse	1	t		55.0	2.5	blank	1.0	261.1617867946625	
57	248.62896513938904	pulse	1	t		55.0	2.5	blank	1.0	262.7618443965912	
57	249.14559674263	fix_post	2		12	55.0	2.5	blank	1.0	263.27847599983215	0.10001349449157715
58	249.24561023712158	fix_pre	0		119	56.0	2.5	/experiments/Knapen_AOT/AOT_stimuli/rescaled_final/1255_rv.mp4	0.0	263.37848949432373	1.000166654586792
58	250.22923254966736	pulse	0	t		56.0	2.5	/experiments/Knapen_AOT/AOT_stimuli/rescaled_final/1255_rv.mp4	0.0	264.3621118068695	
58	250.24577689170837	movie	1		300	56.0	2.5	/experiments/Knapen_AOT/AOT_stimuli/rescaled_final/1255_rv.mp4	0.0	264.3786561489105	2.5003509521484375
58	251.82956528663635	pulse	1	t		56.0	2.5	/experiments/Knapen_AOT/AOT_stimuli/rescaled_final/1255_rv.mp4	0.0	265.9624445438385	
58	252.7461278438568	fix_post	2		12	56.0	2.5	/experiments/Knapen_AOT/AOT_stimuli/rescaled_final/1255_rv.mp4	0.0	266.87900710105896	0.10003161430358887
59	252.8461594581604	fix_pre	0		120	57.0	2.5	/experiments/Knapen_AOT/AOT_stimuli/rescaled_final/1767_rv.mp4	0.0	266.97903871536255	1.0001397132873535
59	253.4297046661377	pulse	0	t		57.0	2.5	/experiments/Knapen_AOT/AOT_stimuli/rescaled_final/1767_rv.mp4	0.0	267.56258392333984	
59	253.84629917144775	movie	1		300	57.0	2.5	/experiments/Knapen_AOT/AOT_stimuli/rescaled_final/1767_rv.mp4	0.0	267.9791784286499	2.5003714561462402
59	255.02995824813843	pulse	1	t		57.0	2.5	/experiments/Knapen_AOT/AOT_stimuli/rescaled_final/1767_rv.mp4	0.0	269.1628375053406	
59	256.346670627594	fix_post	2		12	57.0	2.5	/experiments/Knapen_AOT/AOT_stimuli/rescaled_final/1767_rv.mp4	0.0	270.47954988479614	0.10002541542053223
60	256.4466960430145	fix_pre	0		120	58.0	2.5	/experiments/Knapen_AOT/AOT_stimuli/rescaled_final/1358_rv.mp4	0.0	270.5795753002167	1.0001423358917236
60	256.63020277023315	pulse	0	t		58.0	2.5	/experiments/Knapen_AOT/AOT_stimuli/rescaled_final/1358_rv.mp4	0.0	270.7630820274353	
60	257.44683837890625	movie	1		300	58.0	2.5	/experiments/Knapen_AOT/AOT_stimuli/rescaled_final/1358_rv.mp4	0.0	271.5797176361084	2.5003662109375
60	258.2304389476776	pulse	1	t		58.0	2.5	/experiments/Knapen_AOT/AOT_stimuli/rescaled_final/1358_rv.mp4	0.0	272.36331820487976	
60	259.83071756362915	pulse	1	t		58.0	2.5	/experiments/Knapen_AOT/AOT_stimuli/rescaled_final/1358_rv.mp4	0.0	273.9635968208313	
60	259.94720458984375	fix_post	2		12	58.0	2.5	/experiments/Knapen_AOT/AOT_stimuli/rescaled_final/1358_rv.mp4	0.0	274.0800838470459	0.10006046295166016
61	260.0472650527954	fix_pre	0		120	59.0	2.5	/experiments/Knapen_AOT/AOT_stimuli/rescaled_final/1758_rv.mp4	0.0	274.18014430999756	1.0001106262207031
61	261.0473756790161	movie	1		299	59.0	2.5	/experiments/Knapen_AOT/AOT_stimuli/rescaled_final/1758_rv.mp4	0.0	275.18025493621826	2.4920496940612793
61	261.43097376823425	pulse	1	t		59.0	2.5	/experiments/Knapen_AOT/AOT_stimuli/rescaled_final/1758_rv.mp4	0.0	275.5638530254364	
61	263.0311985015869	pulse	1	t		59.0	2.5	/experiments/Knapen_AOT/AOT_stimuli/rescaled_final/1758_rv.mp4	0.0	277.16407775878906	
61	263.5394253730774	fix_post	2		12	59.0	2.5	/experiments/Knapen_AOT/AOT_stimuli/rescaled_final/1758_rv.mp4	0.0	277.67230463027954	0.10000824928283691
62	263.63943362236023	fix_pre	0		120	60.0	2.5	/experiments/Knapen_AOT/AOT_stimuli/rescaled_final/0461_rv.mp4	0.0	277.7723128795624	1.0001680850982666
62	264.6313695907593	pulse	0	t		60.0	2.5	/experiments/Knapen_AOT/AOT_stimuli/rescaled_final/0461_rv.mp4	0.0	278.7642488479614	
62	264.6396017074585	movie	1		301	60.0	2.5	/experiments/Knapen_AOT/AOT_stimuli/rescaled_final/0461_rv.mp4	0.0	278.77248096466064	2.5086967945098877
62	266.23169708251953	pulse	1	t		60.0	2.5	/experiments/Knapen_AOT/AOT_stimuli/rescaled_final/0461_rv.mp4	0.0	280.3645763397217	
62	267.1482985019684	fix_post	2		12	60.0	2.5	/experiments/Knapen_AOT/AOT_stimuli/rescaled_final/0461_rv.mp4	0.0	281.28117775917053	0.10009980201721191
63	267.2483983039856	fix_pre	0		120	61.0	2.5	blank	1.0	281.38127756118774	1.0000641345977783
63	267.8318552970886	pulse	0	t		61.0	2.5	blank	1.0	281.96473455429077	
63	268.2484624385834	movie	1		300	61.0	2.5	blank	1.0	282.3813416957855	2.5003738403320312
63	269.4321587085724	pulse	1	t		61.0	2.5	blank	1.0	283.56503796577454	
63	270.7488362789154	fix_post	2		12	61.0	2.5	blank	1.0	284.88171553611755	0.10004043579101562
64	270.8488767147064	fix_pre	0		120	62.0	2.5	/experiments/Knapen_AOT/AOT_stimuli/rescaled_final/0277_fw.mp4	0.0	284.98175597190857	1.0001649856567383
64	271.03233218193054	pulse	0	t		62.0	2.5	/experiments/Knapen_AOT/AOT_stimuli/rescaled_final/0277_fw.mp4	0.0	285.1652114391327	
64	271.84904170036316	movie	1		300	62.0	2.5	/experiments/Knapen_AOT/AOT_stimuli/rescaled_final/0277_fw.mp4	0.0	285.9819209575653	2.5003244876861572
64	272.6326789855957	pulse	1	t		62.0	2.5	/experiments/Knapen_AOT/AOT_stimuli/rescaled_final/0277_fw.mp4	0.0	286.76555824279785	
64	274.2328391075134	pulse	1	t		62.0	2.5	/experiments/Knapen_AOT/AOT_stimuli/rescaled_final/0277_fw.mp4	0.0	288.3657183647156	
64	274.3493661880493	fix_post	2		12	62.0	2.5	/experiments/Knapen_AOT/AOT_stimuli/rescaled_final/0277_fw.mp4	0.0	288.48224544525146	0.10000467300415039
65	274.44937086105347	fix_pre	0		120	63.0	2.5	/experiments/Knapen_AOT/AOT_stimuli/rescaled_final/1519_fw.mp4	0.0	288.5822501182556	1.000175952911377
65	275.44954681396484	movie	1		298	63.0	2.5	/experiments/Knapen_AOT/AOT_stimuli/rescaled_final/1519_fw.mp4	0.0	289.582426071167	2.492043972015381
65	275.8330891132355	pulse	1	t		63.0	2.5	/experiments/Knapen_AOT/AOT_stimuli/rescaled_final/1519_fw.mp4	0.0	289.9659683704376	
65	277.43331241607666	pulse	1	t		63.0	2.5	/experiments/Knapen_AOT/AOT_stimuli/rescaled_final/1519_fw.mp4	0.0	291.5661916732788	
65	277.9415907859802	fix_post	2		12	63.0	2.5	/experiments/Knapen_AOT/AOT_stimuli/rescaled_final/1519_fw.mp4	0.0	292.0744700431824	0.10001420974731445
66	278.04160499572754	fix_pre	0		120	64.0	2.5	/experiments/Knapen_AOT/AOT_stimuli/rescaled_final/1655_fw.mp4	0.0	292.1744842529297	1.0004746913909912
66	279.0335383415222	pulse	0	t		64.0	2.5	/experiments/Knapen_AOT/AOT_stimuli/rescaled_final/1655_fw.mp4	0.0	293.16641759872437	
66	279.04207968711853	movie	1		301	64.0	2.5	/experiments/Knapen_AOT/AOT_stimuli/rescaled_final/1655_fw.mp4	0.0	293.1749589443207	2.508371591567993
66	280.62985706329346	pulse	1	t		64.0	2.5	/experiments/Knapen_AOT/AOT_stimuli/rescaled_final/1655_fw.mp4	0.0	294.7627363204956	
66	281.5504512786865	fix_post	2		12	64.0	2.5	/experiments/Knapen_AOT/AOT_stimuli/rescaled_final/1655_fw.mp4	0.0	295.6833305358887	0.10001897811889648
67	281.6504702568054	fix_pre	0		120	65.0	2.5	/experiments/Knapen_AOT/AOT_stimuli/rescaled_final/0372_fw.mp4	0.0	295.78334951400757	1.0001378059387207
67	282.2341067790985	pulse	0	t		65.0	2.5	/experiments/Knapen_AOT/AOT_stimuli/rescaled_final/0372_fw.mp4	0.0	296.36698603630066	
67	282.65060806274414	movie	1		299	65.0	2.5	/experiments/Knapen_AOT/AOT_stimuli/rescaled_final/0372_fw.mp4	0.0	296.7834873199463	2.5003817081451416
67	283.82998871803284	pulse	1	t		65.0	2.5	/experiments/Knapen_AOT/AOT_stimuli/rescaled_final/0372_fw.mp4	0.0	297.962867975235	
67	285.1509897708893	fix_post	2		12	65.0	2.5	/experiments/Knapen_AOT/AOT_stimuli/rescaled_final/0372_fw.mp4	0.0	299.28386902809143	0.10005617141723633
68	285.2510459423065	fix_pre	0		120	66.0	2.5	/experiments/Knapen_AOT/AOT_stimuli/rescaled_final/0344_rv.mp4	0.0	299.38392519950867	1.0001349449157715
68	285.4345009326935	pulse	0	t		66.0	2.5	/experiments/Knapen_AOT/AOT_stimuli/rescaled_final/0344_rv.mp4	0.0	299.56738018989563	
68	286.2511808872223	movie	1		299	66.0	2.5	/experiments/Knapen_AOT/AOT_stimuli/rescaled_final/0344_rv.mp4	0.0	300.38406014442444	2.5003724098205566
68	287.0302836894989	pulse	1	t		66.0	2.5	/experiments/Knapen_AOT/AOT_stimuli/rescaled_final/0344_rv.mp4	0.0	301.16316294670105	
68	288.63060569763184	pulse	1	t		66.0	2.5	/experiments/Knapen_AOT/AOT_stimuli/rescaled_final/0344_rv.mp4	0.0	302.763484954834	
68	288.75155329704285	fix_post	2		12	66.0	2.5	/experiments/Knapen_AOT/AOT_stimuli/rescaled_final/0344_rv.mp4	0.0	302.884432554245	0.10000276565551758
69	288.85155606269836	fix_pre	0		120	67.0	2.5	/experiments/Knapen_AOT/AOT_stimuli/rescaled_final/1001_rv.mp4	0.0	302.9844353199005	1.0001635551452637
69	289.8517196178436	movie	1		299	67.0	2.5	/experiments/Knapen_AOT/AOT_stimuli/rescaled_final/1001_rv.mp4	0.0	303.9845988750458	2.492037296295166
69	290.2312457561493	pulse	1	t		67.0	2.5	/experiments/Knapen_AOT/AOT_stimuli/rescaled_final/1001_rv.mp4	0.0	304.36412501335144	
69	291.83118724823	pulse	1	t		67.0	2.5	/experiments/Knapen_AOT/AOT_stimuli/rescaled_final/1001_rv.mp4	0.0	305.96406650543213	
69	292.3437569141388	fix_post	2		12	67.0	2.5	/experiments/Knapen_AOT/AOT_stimuli/rescaled_final/1001_rv.mp4	0.0	306.47663617134094	0.10002470016479492
70	292.4437816143036	fix_pre	0		120	68.0	2.5	blank	1.0	306.57666087150574	1.0001916885375977
70	293.4357259273529	pulse	0	t		68.0	2.5	blank	1.0	307.56860518455505	
70	293.4439733028412	movie	1		301	68.0	2.5	blank	1.0	307.57685256004333	2.50864839553833
70	295.03594279289246	pulse	1	t		68.0	2.5	blank	1.0	309.1688220500946	
70	295.9526216983795	fix_post	2		12	68.0	2.5	blank	1.0	310.08550095558167	0.10001707077026367
71	296.0526387691498	fix_pre	0		120	69.0	2.5	/experiments/Knapen_AOT/AOT_stimuli/rescaled_final/1655_fw.mp4	0.0	310.18551802635193	1.0005228519439697
71	296.6361930370331	pulse	0	t		69.0	2.5	/experiments/Knapen_AOT/AOT_stimuli/rescaled_final/1655_fw.mp4	0.0	310.76907229423523	
71	297.05316162109375	movie	1		300	69.0	2.5	/experiments/Knapen_AOT/AOT_stimuli/rescaled_final/1655_fw.mp4	0.0	311.1860408782959	2.5001041889190674
71	298.2323319911957	pulse	1	t		69.0	2.5	/experiments/Knapen_AOT/AOT_stimuli/rescaled_final/1655_fw.mp4	0.0	312.3652112483978	
71	299.5532658100128	fix_post	2		12	69.0	2.5	/experiments/Knapen_AOT/AOT_stimuli/rescaled_final/1655_fw.mp4	0.0	313.68614506721497	0.09992122650146484
72	299.6531870365143	fix_pre	0		120	70.0	2.5	/experiments/Knapen_AOT/AOT_stimuli/rescaled_final/0736_fw.mp4	0.0	313.78606629371643	1.0001335144042969
72	299.8367304801941	pulse	0	t		70.0	2.5	/experiments/Knapen_AOT/AOT_stimuli/rescaled_final/0736_fw.mp4	0.0	313.96960973739624	
72	300.6533205509186	movie	1		300	70.0	2.5	/experiments/Knapen_AOT/AOT_stimuli/rescaled_final/0736_fw.mp4	0.0	314.7861998081207	2.5003933906555176
72	301.4328758716583	pulse	1	t		70.0	2.5	/experiments/Knapen_AOT/AOT_stimuli/rescaled_final/0736_fw.mp4	0.0	315.5657551288605	
72	303.03299927711487	pulse	1	t		70.0	2.5	/experiments/Knapen_AOT/AOT_stimuli/rescaled_final/0736_fw.mp4	0.0	317.165878534317	
72	303.1537139415741	fix_post	2		12	70.0	2.5	/experiments/Knapen_AOT/AOT_stimuli/rescaled_final/0736_fw.mp4	0.0	317.28659319877625	0.10001349449157715
73	303.2537274360657	fix_pre	0		120	71.0	2.5	/experiments/Knapen_AOT/AOT_stimuli/rescaled_final/1123_fw.mp4	0.0	317.3866066932678	1.0001366138458252
73	304.2538640499115	movie	1		299	71.0	2.5	/experiments/Knapen_AOT/AOT_stimuli/rescaled_final/1123_fw.mp4	0.0	318.38674330711365	2.492063045501709
73	304.6334812641144	pulse	1	t		71.0	2.5	/experiments/Knapen_AOT/AOT_stimuli/rescaled_final/1123_fw.mp4	0.0	318.7663605213165	
73	306.22946071624756	pulse	1	t		71.0	2.5	/experiments/Knapen_AOT/AOT_stimuli/rescaled_final/1123_fw.mp4	0.0	320.3623399734497	
73	306.7459270954132	fix_post	2		12	71.0	2.5	/experiments/Knapen_AOT/AOT_stimuli/rescaled_final/1123_fw.mp4	0.0	320.87880635261536	0.10001730918884277
74	306.84594440460205	fix_pre	0		119	72.0	2.5	/experiments/Knapen_AOT/AOT_stimuli/rescaled_final/0461_fw.mp4	0.0	320.9788236618042	1.0001819133758545
74	307.8295884132385	pulse	0	t		72.0	2.5	/experiments/Knapen_AOT/AOT_stimuli/rescaled_final/0461_fw.mp4	0.0	321.9624676704407	
74	307.8461263179779	movie	1		300	72.0	2.5	/experiments/Knapen_AOT/AOT_stimuli/rescaled_final/0461_fw.mp4	0.0	321.97900557518005	2.500337839126587
74	309.4298632144928	pulse	1	t		72.0	2.5	/experiments/Knapen_AOT/AOT_stimuli/rescaled_final/0461_fw.mp4	0.0	323.56274247169495	
74	310.3464641571045	fix_post	2		12	72.0	2.5	/experiments/Knapen_AOT/AOT_stimuli/rescaled_final/0461_fw.mp4	0.0	324.47934341430664	0.10002684593200684
75	310.4464910030365	fix_pre	0		120	73.0	2.5	/experiments/Knapen_AOT/AOT_stimuli/rescaled_final/1262_fw.mp4	0.0	324.57937026023865	1.000166654586792
75	311.0300965309143	pulse	0	t		73.0	2.5	/experiments/Knapen_AOT/AOT_stimuli/rescaled_final/1262_fw.mp4	0.0	325.16297578811646	
75	311.4466576576233	movie	1		300	73.0	2.5	/experiments/Knapen_AOT/AOT_stimuli/rescaled_final/1262_fw.mp4	0.0	325.57953691482544	2.5003504753112793
75	312.63039326667786	pulse	1	t		73.0	2.5	/experiments/Knapen_AOT/AOT_stimuli/rescaled_final/1262_fw.mp4	0.0	326.76327252388	
75	313.94700813293457	fix_post	2		12	73.0	2.5	/experiments/Knapen_AOT/AOT_stimuli/rescaled_final/1262_fw.mp4	0.0	328.0798873901367	0.10001349449157715
76	314.04702162742615	fix_pre	0		120	74.0	2.5	/experiments/Knapen_AOT/AOT_stimuli/rescaled_final/0434_rv.mp4	0.0	328.1799008846283	1.0001325607299805
76	314.2305533885956	pulse	0	t		74.0	2.5	/experiments/Knapen_AOT/AOT_stimuli/rescaled_final/0434_rv.mp4	0.0	328.36343264579773	
76	315.0471541881561	movie	1		300	74.0	2.5	/experiments/Knapen_AOT/AOT_stimuli/rescaled_final/0434_rv.mp4	0.0	329.1800334453583	2.500408887863159
76	315.8308217525482	pulse	1	t		74.0	2.5	/experiments/Knapen_AOT/AOT_stimuli/rescaled_final/0434_rv.mp4	0.0	329.96370100975037	
76	317.43100571632385	pulse	1	t		74.0	2.5	/experiments/Knapen_AOT/AOT_stimuli/rescaled_final/0434_rv.mp4	0.0	331.563884973526	
76	317.5475630760193	fix_post	2		12	74.0	2.5	/experiments/Knapen_AOT/AOT_stimuli/rescaled_final/0434_rv.mp4	0.0	331.68044233322144	0.1000065803527832
77	317.64756965637207	fix_pre	0		120	75.0	2.5	blank	1.0	331.7804489135742	1.0001485347747803
77	318.64771819114685	movie	1		299	75.0	2.5	blank	1.0	332.780597448349	2.4920334815979004
77	319.031286239624	pulse	1	t		75.0	2.5	blank	1.0	333.1641654968262	
77	320.6314721107483	pulse	1	t		75.0	2.5	blank	1.0	334.76435136795044	
77	321.13975167274475	fix_post	2		12	75.0	2.5	blank	1.0	335.2726309299469	0.10007953643798828
78	321.23983120918274	fix_pre	0		120	76.0	2.5	/experiments/Knapen_AOT/AOT_stimuli/rescaled_final/1636_fw.mp4	0.0	335.3727104663849	1.0084400177001953
78	322.2317359447479	pulse	0	t		76.0	2.5	/experiments/Knapen_AOT/AOT_stimuli/rescaled_final/1636_fw.mp4	0.0	336.3646152019501	
78	322.24827122688293	movie	1		300	76.0	2.5	/experiments/Knapen_AOT/AOT_stimuli/rescaled_final/1636_fw.mp4	0.0	336.3811504840851	2.500398635864258
78	323.83207297325134	pulse	1	t		76.0	2.5	/experiments/Knapen_AOT/AOT_stimuli/rescaled_final/1636_fw.mp4	0.0	337.9649522304535	
78	324.7486698627472	fix_post	2		12	76.0	2.5	/experiments/Knapen_AOT/AOT_stimuli/rescaled_final/1636_fw.mp4	0.0	338.88154911994934	0.09999918937683105
79	324.848669052124	fix_pre	0		120	77.0	2.5	/experiments/Knapen_AOT/AOT_stimuli/rescaled_final/0845_fw.mp4	0.0	338.9815483093262	1.0001285076141357
79	325.43218064308167	pulse	0	t		77.0	2.5	/experiments/Knapen_AOT/AOT_stimuli/rescaled_final/0845_fw.mp4	0.0	339.5650599002838	
79	325.84879755973816	movie	1		299	77.0	2.5	/experiments/Knapen_AOT/AOT_stimuli/rescaled_final/0845_fw.mp4	0.0	339.9816768169403	2.5004000663757324
79	327.0325107574463	pulse	1	t		77.0	2.5	/experiments/Knapen_AOT/AOT_stimuli/rescaled_final/0845_fw.mp4	0.0	341.16539001464844	
79	328.3491976261139	fix_post	2		12	77.0	2.5	/experiments/Knapen_AOT/AOT_stimuli/rescaled_final/0845_fw.mp4	0.0	342.48207688331604	0.0999908447265625
80	328.44918847084045	fix_pre	0		120	78.0	2.5	/experiments/Knapen_AOT/AOT_stimuli/rescaled_final/0210_fw.mp4	0.0	342.5820677280426	1.0001537799835205
80	328.6326823234558	pulse	0	t		78.0	2.5	/experiments/Knapen_AOT/AOT_stimuli/rescaled_final/0210_fw.mp4	0.0	342.76556158065796	
80	329.449342250824	movie	1		300	78.0	2.5	/experiments/Knapen_AOT/AOT_stimuli/rescaled_final/0210_fw.mp4	0.0	343.5822215080261	2.5003890991210938
80	330.23293137550354	pulse	1	t		78.0	2.5	/experiments/Knapen_AOT/AOT_stimuli/rescaled_final/0210_fw.mp4	0.0	344.3658106327057	
80	331.8332607746124	pulse	1	t		78.0	2.5	/experiments/Knapen_AOT/AOT_stimuli/rescaled_final/0210_fw.mp4	0.0	345.9661400318146	
80	331.94973134994507	fix_post	2		12	78.0	2.5	/experiments/Knapen_AOT/AOT_stimuli/rescaled_final/0210_fw.mp4	0.0	346.0826106071472	0.10001587867736816
81	332.04974722862244	fix_pre	0		120	79.0	2.5	/experiments/Knapen_AOT/AOT_stimuli/rescaled_final/1967_fw.mp4	0.0	346.1826264858246	1.0001518726348877
81	333.0498991012573	movie	1		299	79.0	2.5	/experiments/Knapen_AOT/AOT_stimuli/rescaled_final/1967_fw.mp4	0.0	347.1827783584595	2.492039203643799
81	333.4334337711334	pulse	1	t		79.0	2.5	/experiments/Knapen_AOT/AOT_stimuli/rescaled_final/1967_fw.mp4	0.0	347.56631302833557	
81	335.03365445137024	pulse	1	t		79.0	2.5	/experiments/Knapen_AOT/AOT_stimuli/rescaled_final/1967_fw.mp4	0.0	349.1665337085724	
81	335.5419383049011	fix_post	2		12	79.0	2.5	/experiments/Knapen_AOT/AOT_stimuli/rescaled_final/1967_fw.mp4	0.0	349.67481756210327	0.1000213623046875
82	335.6419596672058	fix_pre	0		120	80.0	2.5	/experiments/Knapen_AOT/AOT_stimuli/rescaled_final/1156_fw.mp4	0.0	349.77483892440796	1.0084655284881592
82	336.63390040397644	pulse	0	t		80.0	2.5	/experiments/Knapen_AOT/AOT_stimuli/rescaled_final/1156_fw.mp4	0.0	350.7667796611786	
82	336.65042519569397	movie	1		300	80.0	2.5	/experiments/Knapen_AOT/AOT_stimuli/rescaled_final/1156_fw.mp4	0.0	350.7833044528961	2.500434637069702
82	338.2311623096466	pulse	1	t		80.0	2.5	/experiments/Knapen_AOT/AOT_stimuli/rescaled_final/1156_fw.mp4	0.0	352.36404156684875	
82	339.1508598327637	fix_post	2		12	80.0	2.5	/experiments/Knapen_AOT/AOT_stimuli/rescaled_final/1156_fw.mp4	0.0	353.2837390899658	0.09993910789489746
83	339.25079894065857	fix_pre	0		120	81.0	2.5	/experiments/Knapen_AOT/AOT_stimuli/rescaled_final/0314_rv.mp4	0.0	353.3836781978607	1.000159740447998
83	339.83439469337463	pulse	0	t		81.0	2.5	/experiments/Knapen_AOT/AOT_stimuli/rescaled_final/0314_rv.mp4	0.0	353.9672739505768	
83	340.25095868110657	movie	1		300	81.0	2.5	/experiments/Knapen_AOT/AOT_stimuli/rescaled_final/0314_rv.mp4	0.0	354.3838379383087	2.5003724098205566
83	341.43040704727173	pulse	1	t		81.0	2.5	/experiments/Knapen_AOT/AOT_stimuli/rescaled_final/0314_rv.mp4	0.0	355.5632863044739	
83	342.7513310909271	fix_post	2		12	81.0	2.5	/experiments/Knapen_AOT/AOT_stimuli/rescaled_final/0314_rv.mp4	0.0	356.8842103481293	0.10001206398010254
84	342.8513431549072	fix_pre	0		120	82.0	2.5	/experiments/Knapen_AOT/AOT_stimuli/rescaled_final/1688_fw.mp4	0.0	356.9842224121094	1.0001516342163086
84	343.03486824035645	pulse	0	t		82.0	2.5	/experiments/Knapen_AOT/AOT_stimuli/rescaled_final/1688_fw.mp4	0.0	357.1677474975586	
84	343.85149478912354	movie	1		300	82.0	2.5	/experiments/Knapen_AOT/AOT_stimuli/rescaled_final/1688_fw.mp4	0.0	357.9843740463257	2.500372886657715
84	344.6307623386383	pulse	1	t		82.0	2.5	/experiments/Knapen_AOT/AOT_stimuli/rescaled_final/1688_fw.mp4	0.0	358.76364159584045	
84	346.2310755252838	pulse	1	t		82.0	2.5	/experiments/Knapen_AOT/AOT_stimuli/rescaled_final/1688_fw.mp4	0.0	360.36395478248596	
84	346.35186767578125	fix_post	2		12	82.0	2.5	/experiments/Knapen_AOT/AOT_stimuli/rescaled_final/1688_fw.mp4	0.0	360.4847469329834	0.1000223159790039
85	346.45188999176025	fix_pre	0		120	83.0	2.5	blank	1.0	360.5847692489624	1.000138521194458
85	347.4520285129547	movie	1		299	83.0	2.5	blank	1.0	361.58490777015686	2.4920594692230225
85	347.835556268692	pulse	1	t		83.0	2.5	blank	1.0	361.96843552589417	
85	349.43577456474304	pulse	1	t		83.0	2.5	blank	1.0	363.5686538219452	
85	349.94408798217773	fix_post	2		12	83.0	2.5	blank	1.0	364.0769672393799	0.1251542568206787
87	350.0692422389984	stim	0		1713					364.20212149620056	14.277003288269043
87	351.0360507965088	pulse	0	t						365.16893005371094	
87	352.63634967803955	pulse	0	t						366.7692289352417	
87	354.2365143299103	pulse	0	t						368.3693935871124	
87	355.8367643356323	pulse	0	t						369.9696435928345	
87	357.436993598938	pulse	0	t						371.56987285614014	
87	359.03723883628845	pulse	0	t						373.1701180934906	
87	360.6375353336334	pulse	0	t						374.77041459083557	
87	362.2299106121063	pulse	0	t						376.3627898693085	
87	363.8297815322876	pulse	0	t						377.96266078948975	
