trial_nr	onset	event_type	phase	response	nr_frames	movie_index	movie_duration	movie_file	blank	onset_abs	duration
0	0.13280415534973145	stim	0		40					35.76292896270752	0.3337428569793701
0	0.4584941864013672	response	0	space						36.088618993759155	
1	0.46654701232910156	stim	0		12421					36.09667181968689	103.50786113739014
1	103.9680860042572	pulse	0	t						139.598210811615	
1	103.97440814971924	stim	1		1717					139.60453295707703	14.308290004730225
1	105.566162109375	pulse	1	t						141.1962869167328	
1	107.16615915298462	pulse	1	t						142.7962839603424	
1	108.76615118980408	pulse	1	t						144.39627599716187	
1	110.36620211601257	pulse	1	t						145.99632692337036	
1	111.96611309051514	pulse	1	t						147.59623789787292	
1	113.56615710258484	pulse	1	t						149.19628190994263	
1	115.16615509986877	pulse	1	t						150.79627990722656	
1	116.76610207557678	pulse	1	t						152.39622688293457	
2	118.28269815444946	fix_pre	0		11	0.0	2.5	/experiments/AOT/AOT_stimuli/rescaled_final/0971_fw.mp4	0.0	153.91282296180725	0.09161591529846191
2	118.36616516113281	pulse	0	t		0.0	2.5	/experiments/AOT/AOT_stimuli/rescaled_final/0971_fw.mp4	0.0	153.9962899684906	
2	118.37431406974792	movie	1		245	0.0	2.5	/experiments/AOT/AOT_stimuli/rescaled_final/0971_fw.mp4	0.0	154.0044388771057	2.5082881450653076
2	119.96566414833069	pulse	1	t		0.0	2.5	/experiments/AOT/AOT_stimuli/rescaled_final/0971_fw.mp4	0.0	155.59578895568848	
2	120.88260221481323	fix_post	2		12	0.0	2.5	/experiments/AOT/AOT_stimuli/rescaled_final/0971_fw.mp4	0.0	156.51272702217102	0.10000395774841309
3	120.98260617256165	fix_pre	0		120	1.0	2.5	/experiments/AOT/AOT_stimuli/rescaled_final/1904_rv.mp4	0.0	156.61273097991943	1.0001189708709717
3	121.56628608703613	pulse	0	t		1.0	2.5	/experiments/AOT/AOT_stimuli/rescaled_final/1904_rv.mp4	0.0	157.19641089439392	
3	121.98272514343262	movie	1		244	1.0	2.5	/experiments/AOT/AOT_stimuli/rescaled_final/1904_rv.mp4	0.0	157.6128499507904	2.4998018741607666
3	123.16624617576599	pulse	1	t		1.0	2.5	/experiments/AOT/AOT_stimuli/rescaled_final/1904_rv.mp4	0.0	158.79637098312378	
3	124.48252701759338	fix_post	2		12	1.0	2.5	/experiments/AOT/AOT_stimuli/rescaled_final/1904_rv.mp4	0.0	160.11265182495117	0.10007905960083008
4	124.58260607719421	fix_pre	0		120	2.0	2.5	/experiments/AOT/AOT_stimuli/rescaled_final/0204_rv.mp4	0.0	160.212730884552	0.9999289512634277
4	124.7661521434784	pulse	0	t		2.0	2.5	/experiments/AOT/AOT_stimuli/rescaled_final/0204_rv.mp4	0.0	160.39627695083618	
4	125.58253502845764	movie	1		243	2.0	2.5	/experiments/AOT/AOT_stimuli/rescaled_final/0204_rv.mp4	0.0	161.21265983581543	2.5000290870666504
4	126.36612200737	pulse	1	t		2.0	2.5	/experiments/AOT/AOT_stimuli/rescaled_final/0204_rv.mp4	0.0	161.99624681472778	
4	127.96464109420776	pulse	1	t		2.0	2.5	/experiments/AOT/AOT_stimuli/rescaled_final/0204_rv.mp4	0.0	163.59476590156555	
4	128.0825641155243	fix_post	2		12	2.0	2.5	/experiments/AOT/AOT_stimuli/rescaled_final/0204_rv.mp4	0.0	163.71268892288208	0.10007905960083008
5	128.18264317512512	fix_pre	0		120	3.0	2.5	/experiments/AOT/AOT_stimuli/rescaled_final/1478_fw.mp4	0.0	163.8127679824829	1.000032901763916
5	129.18267607688904	movie	1		245	3.0	2.5	/experiments/AOT/AOT_stimuli/rescaled_final/1478_fw.mp4	0.0	164.81280088424683	2.4994730949401855
5	129.565838098526	pulse	1	t		3.0	2.5	/experiments/AOT/AOT_stimuli/rescaled_final/1478_fw.mp4	0.0	165.1959629058838	
5	131.16610717773438	pulse	1	t		3.0	2.5	/experiments/AOT/AOT_stimuli/rescaled_final/1478_fw.mp4	0.0	166.79623198509216	
5	131.68214917182922	fix_post	2		12	3.0	2.5	/experiments/AOT/AOT_stimuli/rescaled_final/1478_fw.mp4	0.0	167.312273979187	0.10040903091430664
6	131.78255820274353	fix_pre	0		119	4.0	2.5	/experiments/AOT/AOT_stimuli/rescaled_final/1114_fw.mp4	0.0	167.41268301010132	0.9916989803314209
6	132.76609921455383	pulse	0	t		4.0	2.5	/experiments/AOT/AOT_stimuli/rescaled_final/1114_fw.mp4	0.0	168.39622402191162	
6	132.77425718307495	movie	1		244	4.0	2.5	/experiments/AOT/AOT_stimuli/rescaled_final/1114_fw.mp4	0.0	168.40438199043274	2.508286952972412
6	134.367418050766	pulse	1	t		4.0	2.5	/experiments/AOT/AOT_stimuli/rescaled_final/1114_fw.mp4	0.0	169.99754285812378	
6	135.28254413604736	fix_post	2		12	4.0	2.5	/experiments/AOT/AOT_stimuli/rescaled_final/1114_fw.mp4	0.0	170.91266894340515	0.09999489784240723
7	135.38253903388977	fix_pre	0		120	5.0	2.5	blank	1.0	171.01266384124756	1.0000240802764893
7	135.96612811088562	pulse	0	t		5.0	2.5	blank	1.0	171.5962529182434	
7	136.38256311416626	movie	1		300	5.0	2.5	blank	1.0	172.01268792152405	2.500087022781372
7	137.5660810470581	pulse	1	t		5.0	2.5	blank	1.0	173.1962058544159	
7	138.88265013694763	fix_post	2		12	5.0	2.5	blank	1.0	174.51277494430542	0.09991192817687988
8	138.9825620651245	fix_pre	0		120	6.0	2.5	/experiments/AOT/AOT_stimuli/rescaled_final/1960_rv.mp4	0.0	174.6126868724823	0.9999949932098389
8	139.16611003875732	pulse	0	t		6.0	2.5	/experiments/AOT/AOT_stimuli/rescaled_final/1960_rv.mp4	0.0	174.7962348461151	
8	139.98255705833435	movie	1		243	6.0	2.5	/experiments/AOT/AOT_stimuli/rescaled_final/1960_rv.mp4	0.0	175.61268186569214	2.500169038772583
8	140.76598501205444	pulse	1	t		6.0	2.5	/experiments/AOT/AOT_stimuli/rescaled_final/1960_rv.mp4	0.0	176.39610981941223	
8	142.3645520210266	pulse	1	t		6.0	2.5	/experiments/AOT/AOT_stimuli/rescaled_final/1960_rv.mp4	0.0	177.9946768283844	
8	142.48272609710693	fix_post	2		12	6.0	2.5	/experiments/AOT/AOT_stimuli/rescaled_final/1960_rv.mp4	0.0	178.11285090446472	0.0998220443725586
9	142.5825481414795	fix_pre	0		120	7.0	2.5	/experiments/AOT/AOT_stimuli/rescaled_final/1420_rv.mp4	0.0	178.21267294883728	1.0000300407409668
9	143.58257818222046	movie	1		245	7.0	2.5	/experiments/AOT/AOT_stimuli/rescaled_final/1420_rv.mp4	0.0	179.21270298957825	2.499955892562866
9	143.96568298339844	pulse	1	t		7.0	2.5	/experiments/AOT/AOT_stimuli/rescaled_final/1420_rv.mp4	0.0	179.59580779075623	
9	145.5660240650177	pulse	1	t		7.0	2.5	/experiments/AOT/AOT_stimuli/rescaled_final/1420_rv.mp4	0.0	181.1961488723755	
9	146.08253407478333	fix_post	2		12	7.0	2.5	/experiments/AOT/AOT_stimuli/rescaled_final/1420_rv.mp4	0.0	181.7126588821411	0.10017991065979004
10	146.18271398544312	fix_pre	0		119	8.0	2.5	/experiments/AOT/AOT_stimuli/rescaled_final/1358_fw.mp4	0.0	181.8128387928009	0.9914851188659668
10	147.16602516174316	pulse	0	t		8.0	2.5	/experiments/AOT/AOT_stimuli/rescaled_final/1358_fw.mp4	0.0	182.79614996910095	
10	147.17419910430908	movie	1		244	8.0	2.5	/experiments/AOT/AOT_stimuli/rescaled_final/1358_fw.mp4	0.0	182.80432391166687	2.508342981338501
10	148.76598715782166	pulse	1	t		8.0	2.5	/experiments/AOT/AOT_stimuli/rescaled_final/1358_fw.mp4	0.0	184.39611196517944	
10	149.68254208564758	fix_post	2		12	8.0	2.5	/experiments/AOT/AOT_stimuli/rescaled_final/1358_fw.mp4	0.0	185.31266689300537	0.09989500045776367
11	149.78243708610535	fix_pre	0		120	9.0	2.5	/experiments/AOT/AOT_stimuli/rescaled_final/0405_rv.mp4	0.0	185.41256189346313	1.0000879764556885
11	150.36601614952087	pulse	0	t		9.0	2.5	/experiments/AOT/AOT_stimuli/rescaled_final/0405_rv.mp4	0.0	185.99614095687866	
11	150.78252506256104	movie	1		245	9.0	2.5	/experiments/AOT/AOT_stimuli/rescaled_final/0405_rv.mp4	0.0	186.41264986991882	2.499591112136841
11	151.9659562110901	pulse	1	t		9.0	2.5	/experiments/AOT/AOT_stimuli/rescaled_final/0405_rv.mp4	0.0	187.59608101844788	
11	153.28211617469788	fix_post	2		12	9.0	2.5	/experiments/AOT/AOT_stimuli/rescaled_final/0405_rv.mp4	0.0	188.91224098205566	0.10010290145874023
12	153.38221907615662	fix_pre	0		120	10.0	2.5	/experiments/AOT/AOT_stimuli/rescaled_final/1441_rv.mp4	0.0	189.0123438835144	1.0004570484161377
12	153.56570506095886	pulse	0	t		10.0	2.5	/experiments/AOT/AOT_stimuli/rescaled_final/1441_rv.mp4	0.0	189.19582986831665	
12	154.38267612457275	movie	1		243	10.0	2.5	/experiments/AOT/AOT_stimuli/rescaled_final/1441_rv.mp4	0.0	190.01280093193054	2.4998159408569336
12	155.16623902320862	pulse	1	t		10.0	2.5	/experiments/AOT/AOT_stimuli/rescaled_final/1441_rv.mp4	0.0	190.7963638305664	
12	156.76434302330017	pulse	1	t		10.0	2.5	/experiments/AOT/AOT_stimuli/rescaled_final/1441_rv.mp4	0.0	192.39446783065796	
12	156.8824920654297	fix_post	2		12	10.0	2.5	/experiments/AOT/AOT_stimuli/rescaled_final/1441_rv.mp4	0.0	192.51261687278748	0.09999299049377441
13	156.98248505592346	fix_pre	0		120	11.0	2.5	/experiments/AOT/AOT_stimuli/rescaled_final/1040_fw.mp4	0.0	192.61260986328125	0.999993085861206
13	157.98247814178467	movie	1		243	11.0	2.5	/experiments/AOT/AOT_stimuli/rescaled_final/1040_fw.mp4	0.0	193.61260294914246	2.4995388984680176
13	158.36556601524353	pulse	1	t		11.0	2.5	/experiments/AOT/AOT_stimuli/rescaled_final/1040_fw.mp4	0.0	193.99569082260132	
13	159.96589016914368	pulse	1	t		11.0	2.5	/experiments/AOT/AOT_stimuli/rescaled_final/1040_fw.mp4	0.0	195.59601497650146	
13	160.48201704025269	fix_post	2		12	11.0	2.5	/experiments/AOT/AOT_stimuli/rescaled_final/1040_fw.mp4	0.0	196.11214184761047	0.10038399696350098
14	160.5824010372162	fix_pre	0		119	12.0	2.5	/experiments/AOT/AOT_stimuli/rescaled_final/0919_rv.mp4	0.0	196.21252584457397	0.9917731285095215
14	161.56586503982544	pulse	0	t		12.0	2.5	/experiments/AOT/AOT_stimuli/rescaled_final/0919_rv.mp4	0.0	197.19598984718323	
14	161.5741741657257	movie	1		244	12.0	2.5	/experiments/AOT/AOT_stimuli/rescaled_final/0919_rv.mp4	0.0	197.2042989730835	2.508272886276245
14	163.16540098190308	pulse	1	t		12.0	2.5	/experiments/AOT/AOT_stimuli/rescaled_final/0919_rv.mp4	0.0	198.79552578926086	
14	164.08244705200195	fix_post	2		12	12.0	2.5	/experiments/AOT/AOT_stimuli/rescaled_final/0919_rv.mp4	0.0	199.71257185935974	0.09992814064025879
15	164.1823751926422	fix_pre	0		120	13.0	2.5	/experiments/AOT/AOT_stimuli/rescaled_final/1467_rv.mp4	0.0	199.8125	1.0000479221343994
15	164.76591515541077	pulse	0	t		13.0	2.5	/experiments/AOT/AOT_stimuli/rescaled_final/1467_rv.mp4	0.0	200.39603996276855	
15	165.1824231147766	movie	1		245	13.0	2.5	/experiments/AOT/AOT_stimuli/rescaled_final/1467_rv.mp4	0.0	200.8125479221344	2.4999890327453613
15	166.36603021621704	pulse	1	t		13.0	2.5	/experiments/AOT/AOT_stimuli/rescaled_final/1467_rv.mp4	0.0	201.99615502357483	
15	167.68241214752197	fix_post	2		12	13.0	2.5	/experiments/AOT/AOT_stimuli/rescaled_final/1467_rv.mp4	0.0	203.31253695487976	0.10002589225769043
16	167.78243803977966	fix_pre	0		120	14.0	2.5	blank	1.0	203.41256284713745	0.9999911785125732
16	167.96595907211304	pulse	0	t		14.0	2.5	blank	1.0	203.59608387947083	
16	168.78242921829224	movie	1		300	14.0	2.5	blank	1.0	204.41255402565002	2.5000228881835938
16	169.56594800949097	pulse	1	t		14.0	2.5	blank	1.0	205.19607281684875	
16	171.16596817970276	pulse	1	t		14.0	2.5	blank	1.0	206.79609298706055	
16	171.28245210647583	fix_post	2		12	14.0	2.5	blank	1.0	206.91257691383362	0.0999290943145752
17	171.3823812007904	fix_pre	0		120	15.0	2.5	/experiments/AOT/AOT_stimuli/rescaled_final/1021_fw.mp4	0.0	207.0125060081482	1.0000247955322266
17	172.38240599632263	movie	1		243	15.0	2.5	/experiments/AOT/AOT_stimuli/rescaled_final/1021_fw.mp4	0.0	208.01253080368042	2.499962091445923
17	172.76541805267334	pulse	1	t		15.0	2.5	/experiments/AOT/AOT_stimuli/rescaled_final/1021_fw.mp4	0.0	208.39554286003113	
17	174.365807056427	pulse	1	t		15.0	2.5	/experiments/AOT/AOT_stimuli/rescaled_final/1021_fw.mp4	0.0	209.9959318637848	
17	174.88236808776855	fix_post	2		12	15.0	2.5	/experiments/AOT/AOT_stimuli/rescaled_final/1021_fw.mp4	0.0	210.51249289512634	0.10000395774841309
18	174.98237204551697	fix_pre	0		119	16.0	2.5	/experiments/AOT/AOT_stimuli/rescaled_final/0336_rv.mp4	0.0	210.61249685287476	0.9916610717773438
18	175.9658761024475	pulse	0	t		16.0	2.5	/experiments/AOT/AOT_stimuli/rescaled_final/0336_rv.mp4	0.0	211.5960009098053	
18	175.9740331172943	movie	1		243	16.0	2.5	/experiments/AOT/AOT_stimuli/rescaled_final/0336_rv.mp4	0.0	211.6041579246521	2.5083999633789062
18	177.56716418266296	pulse	1	t		16.0	2.5	/experiments/AOT/AOT_stimuli/rescaled_final/0336_rv.mp4	0.0	213.19728899002075	
18	178.48243308067322	fix_post	2		12	16.0	2.5	/experiments/AOT/AOT_stimuli/rescaled_final/0336_rv.mp4	0.0	214.112557888031	0.09993505477905273
19	178.58236813545227	fix_pre	0		120	17.0	2.5	/experiments/AOT/AOT_stimuli/rescaled_final/2056_rv.mp4	0.0	214.21249294281006	1.0000028610229492
19	179.1658320426941	pulse	0	t		17.0	2.5	/experiments/AOT/AOT_stimuli/rescaled_final/2056_rv.mp4	0.0	214.79595685005188	
19	179.58237099647522	movie	1		243	17.0	2.5	/experiments/AOT/AOT_stimuli/rescaled_final/2056_rv.mp4	0.0	215.212495803833	2.4995241165161133
19	180.76596903800964	pulse	1	t		17.0	2.5	/experiments/AOT/AOT_stimuli/rescaled_final/2056_rv.mp4	0.0	216.39609384536743	
19	182.08189511299133	fix_post	2		12	17.0	2.5	/experiments/AOT/AOT_stimuli/rescaled_final/2056_rv.mp4	0.0	217.71201992034912	0.10039687156677246
20	182.1822919845581	fix_pre	0		120	18.0	2.5	/experiments/AOT/AOT_stimuli/rescaled_final/1691_fw.mp4	0.0	217.8124167919159	0.9999821186065674
20	182.36587500572205	pulse	0	t		18.0	2.5	/experiments/AOT/AOT_stimuli/rescaled_final/1691_fw.mp4	0.0	217.99599981307983	
20	183.18227410316467	movie	1		243	18.0	2.5	/experiments/AOT/AOT_stimuli/rescaled_final/1691_fw.mp4	0.0	218.81239891052246	2.499998092651367
20	183.96589612960815	pulse	1	t		18.0	2.5	/experiments/AOT/AOT_stimuli/rescaled_final/1691_fw.mp4	0.0	219.59602093696594	
20	185.56407809257507	pulse	1	t		18.0	2.5	/experiments/AOT/AOT_stimuli/rescaled_final/1691_fw.mp4	0.0	221.19420289993286	
20	185.68227219581604	fix_post	2		12	18.0	2.5	/experiments/AOT/AOT_stimuli/rescaled_final/1691_fw.mp4	0.0	221.31239700317383	0.0999898910522461
21	185.7822620868683	fix_pre	0		120	19.0	2.5	/experiments/AOT/AOT_stimuli/rescaled_final/1478_fw.mp4	0.0	221.41238689422607	1.0000250339508057
21	186.7822871208191	movie	1		246	19.0	2.5	/experiments/AOT/AOT_stimuli/rescaled_final/1478_fw.mp4	0.0	222.41241192817688	2.5000879764556885
21	187.1658570766449	pulse	1	t		19.0	2.5	/experiments/AOT/AOT_stimuli/rescaled_final/1478_fw.mp4	0.0	222.79598188400269	
21	188.7659831047058	pulse	1	t		19.0	2.5	/experiments/AOT/AOT_stimuli/rescaled_final/1478_fw.mp4	0.0	224.3961079120636	
21	189.28237509727478	fix_post	2		12	19.0	2.5	/experiments/AOT/AOT_stimuli/rescaled_final/1478_fw.mp4	0.0	224.91249990463257	0.09997892379760742
22	189.3823540210724	fix_pre	0		119	20.0	2.5	blank	1.0	225.01247882843018	0.9915471076965332
22	190.36570000648499	pulse	0	t		20.0	2.5	blank	1.0	225.99582481384277	
22	190.37390112876892	movie	1		301	20.0	2.5	blank	1.0	226.0040259361267	2.5083680152893066
22	191.96576714515686	pulse	1	t		20.0	2.5	blank	1.0	227.59589195251465	
22	192.88226914405823	fix_post	2		12	20.0	2.5	blank	1.0	228.51239395141602	0.10002493858337402
23	192.9822940826416	fix_pre	0		120	21.0	2.5	/experiments/AOT/AOT_stimuli/rescaled_final/0300_rv.mp4	0.0	228.6124188899994	1.000014066696167
23	193.56579303741455	pulse	0	t		21.0	2.5	/experiments/AOT/AOT_stimuli/rescaled_final/0300_rv.mp4	0.0	229.19591784477234	
23	193.98230814933777	movie	1		245	21.0	2.5	/experiments/AOT/AOT_stimuli/rescaled_final/0300_rv.mp4	0.0	229.61243295669556	2.5000100135803223
23	195.1657841205597	pulse	1	t		21.0	2.5	/experiments/AOT/AOT_stimuli/rescaled_final/0300_rv.mp4	0.0	230.79590892791748	
23	196.4823181629181	fix_post	2		12	21.0	2.5	/experiments/AOT/AOT_stimuli/rescaled_final/0300_rv.mp4	0.0	232.11244297027588	0.10000300407409668
24	196.5823211669922	fix_pre	0		120	22.0	2.5	/experiments/AOT/AOT_stimuli/rescaled_final/1936_fw.mp4	0.0	232.21244597434998	0.9995629787445068
24	196.765869140625	pulse	0	t		22.0	2.5	/experiments/AOT/AOT_stimuli/rescaled_final/1936_fw.mp4	0.0	232.3959939479828	
24	197.5818841457367	movie	1		245	22.0	2.5	/experiments/AOT/AOT_stimuli/rescaled_final/1936_fw.mp4	0.0	233.21200895309448	2.5003268718719482
24	198.3657190799713	pulse	1	t		22.0	2.5	/experiments/AOT/AOT_stimuli/rescaled_final/1936_fw.mp4	0.0	233.9958438873291	
24	199.96423506736755	pulse	1	t		22.0	2.5	/experiments/AOT/AOT_stimuli/rescaled_final/1936_fw.mp4	0.0	235.59435987472534	
24	200.08221101760864	fix_post	2		12	22.0	2.5	/experiments/AOT/AOT_stimuli/rescaled_final/1936_fw.mp4	0.0	235.71233582496643	0.10000896453857422
25	200.18221998214722	fix_pre	0		120	23.0	2.5	/experiments/AOT/AOT_stimuli/rescaled_final/0019_fw.mp4	0.0	235.812344789505	1.0000262260437012
25	201.18224620819092	movie	1		245	23.0	2.5	/experiments/AOT/AOT_stimuli/rescaled_final/0019_fw.mp4	0.0	236.8123710155487	2.499952793121338
25	201.5651581287384	pulse	1	t		23.0	2.5	/experiments/AOT/AOT_stimuli/rescaled_final/0019_fw.mp4	0.0	237.1952829360962	
25	203.16577100753784	pulse	1	t		23.0	2.5	/experiments/AOT/AOT_stimuli/rescaled_final/0019_fw.mp4	0.0	238.79589581489563	
25	203.68219900131226	fix_post	2		12	23.0	2.5	/experiments/AOT/AOT_stimuli/rescaled_final/0019_fw.mp4	0.0	239.31232380867004	0.10010004043579102
26	203.78229904174805	fix_pre	0		119	24.0	2.5	/experiments/AOT/AOT_stimuli/rescaled_final/0750_fw.mp4	0.0	239.41242384910583	0.9916541576385498
26	204.76572513580322	pulse	0	t		24.0	2.5	/experiments/AOT/AOT_stimuli/rescaled_final/0750_fw.mp4	0.0	240.395849943161	
26	204.7739531993866	movie	1		245	24.0	2.5	/experiments/AOT/AOT_stimuli/rescaled_final/0750_fw.mp4	0.0	240.40407800674438	2.5078649520874023
26	206.36561107635498	pulse	1	t		24.0	2.5	/experiments/AOT/AOT_stimuli/rescaled_final/0750_fw.mp4	0.0	241.99573588371277	
26	207.281818151474	fix_post	2		12	24.0	2.5	/experiments/AOT/AOT_stimuli/rescaled_final/0750_fw.mp4	0.0	242.9119429588318	0.10043001174926758
27	207.38224816322327	fix_pre	0		120	25.0	2.5	/experiments/AOT/AOT_stimuli/rescaled_final/0139_rv.mp4	0.0	243.01237297058105	0.9996390342712402
27	207.96572303771973	pulse	0	t		25.0	2.5	/experiments/AOT/AOT_stimuli/rescaled_final/0139_rv.mp4	0.0	243.59584784507751	
27	208.3818871974945	movie	1		243	25.0	2.5	/experiments/AOT/AOT_stimuli/rescaled_final/0139_rv.mp4	0.0	244.0120120048523	2.5002498626708984
27	209.56543111801147	pulse	1	t		25.0	2.5	/experiments/AOT/AOT_stimuli/rescaled_final/0139_rv.mp4	0.0	245.19555592536926	
27	210.8821370601654	fix_post	2		12	25.0	2.5	/experiments/AOT/AOT_stimuli/rescaled_final/0139_rv.mp4	0.0	246.5122618675232	0.1004481315612793
28	210.98258519172668	fix_pre	0		120	26.0	2.5	/experiments/AOT/AOT_stimuli/rescaled_final/0114_fw.mp4	0.0	246.61270999908447	0.9996669292449951
28	211.1656060218811	pulse	0	t		26.0	2.5	/experiments/AOT/AOT_stimuli/rescaled_final/0114_fw.mp4	0.0	246.7957308292389	
28	211.98225212097168	movie	1		246	26.0	2.5	/experiments/AOT/AOT_stimuli/rescaled_final/0114_fw.mp4	0.0	247.61237692832947	2.5000200271606445
28	212.76565098762512	pulse	1	t		26.0	2.5	/experiments/AOT/AOT_stimuli/rescaled_final/0114_fw.mp4	0.0	248.3957757949829	
28	214.36566615104675	pulse	1	t		26.0	2.5	/experiments/AOT/AOT_stimuli/rescaled_final/0114_fw.mp4	0.0	249.99579095840454	
28	214.48227214813232	fix_post	2		12	26.0	2.5	/experiments/AOT/AOT_stimuli/rescaled_final/0114_fw.mp4	0.0	250.1123969554901	0.09993696212768555
29	214.58220911026	fix_pre	0		120	27.0	2.5	blank	1.0	250.2123339176178	0.9999830722808838
29	215.5821921825409	movie	1		300	27.0	2.5	blank	1.0	251.21231698989868	2.4999639987945557
29	215.96560311317444	pulse	1	t		27.0	2.5	blank	1.0	251.59572792053223	
29	217.56568217277527	pulse	1	t		27.0	2.5	blank	1.0	253.19580698013306	
29	218.08215618133545	fix_post	2		12	27.0	2.5	blank	1.0	253.71228098869324	0.1000068187713623
30	218.1821630001068	fix_pre	0		119	28.0	2.5	/experiments/AOT/AOT_stimuli/rescaled_final/0053_fw.mp4	0.0	253.8122878074646	0.9918451309204102
30	219.16570901870728	pulse	0	t		28.0	2.5	/experiments/AOT/AOT_stimuli/rescaled_final/0053_fw.mp4	0.0	254.79583382606506	
30	219.17400813102722	movie	1		245	28.0	2.5	/experiments/AOT/AOT_stimuli/rescaled_final/0053_fw.mp4	0.0	254.804132938385	2.5081160068511963
30	220.76563000679016	pulse	1	t		28.0	2.5	/experiments/AOT/AOT_stimuli/rescaled_final/0053_fw.mp4	0.0	256.39575481414795	
30	221.68212413787842	fix_post	2		12	28.0	2.5	/experiments/AOT/AOT_stimuli/rescaled_final/0053_fw.mp4	0.0	257.3122489452362	0.09995388984680176
31	221.78207802772522	fix_pre	0		120	29.0	2.5	/experiments/AOT/AOT_stimuli/rescaled_final/0277_rv.mp4	0.0	257.412202835083	1.0000519752502441
31	222.36563205718994	pulse	0	t		29.0	2.5	/experiments/AOT/AOT_stimuli/rescaled_final/0277_rv.mp4	0.0	257.99575686454773	
31	222.78213000297546	movie	1		243	29.0	2.5	/experiments/AOT/AOT_stimuli/rescaled_final/0277_rv.mp4	0.0	258.41225481033325	2.4999470710754395
31	223.96559810638428	pulse	1	t		29.0	2.5	/experiments/AOT/AOT_stimuli/rescaled_final/0277_rv.mp4	0.0	259.59572291374207	
31	225.2820770740509	fix_post	2		12	29.0	2.5	/experiments/AOT/AOT_stimuli/rescaled_final/0277_rv.mp4	0.0	260.9122018814087	0.10007691383361816
32	225.38215398788452	fix_pre	0		120	30.0	2.5	/experiments/AOT/AOT_stimuli/rescaled_final/1467_fw.mp4	0.0	261.0122787952423	0.9999451637268066
32	225.56569910049438	pulse	0	t		30.0	2.5	/experiments/AOT/AOT_stimuli/rescaled_final/1467_fw.mp4	0.0	261.1958239078522	
32	226.38209915161133	movie	1		242	30.0	2.5	/experiments/AOT/AOT_stimuli/rescaled_final/1467_fw.mp4	0.0	262.0122239589691	2.50002384185791
32	227.165678024292	pulse	1	t		30.0	2.5	/experiments/AOT/AOT_stimuli/rescaled_final/1467_fw.mp4	0.0	262.7958028316498	
32	228.76397919654846	pulse	1	t		30.0	2.5	/experiments/AOT/AOT_stimuli/rescaled_final/1467_fw.mp4	0.0	264.39410400390625	
32	228.88212299346924	fix_post	2		12	30.0	2.5	/experiments/AOT/AOT_stimuli/rescaled_final/1467_fw.mp4	0.0	264.512247800827	0.10001206398010254
33	228.98213505744934	fix_pre	0		120	31.0	2.5	/experiments/AOT/AOT_stimuli/rescaled_final/2076_fw.mp4	0.0	264.61225986480713	1.0000419616699219
33	229.98217701911926	movie	1		245	31.0	2.5	/experiments/AOT/AOT_stimuli/rescaled_final/2076_fw.mp4	0.0	265.61230182647705	2.499912977218628
33	230.36602401733398	pulse	1	t		31.0	2.5	/experiments/AOT/AOT_stimuli/rescaled_final/2076_fw.mp4	0.0	265.9961488246918	
33	231.9656400680542	pulse	1	t		31.0	2.5	/experiments/AOT/AOT_stimuli/rescaled_final/2076_fw.mp4	0.0	267.595764875412	
33	232.4820899963379	fix_post	2		12	31.0	2.5	/experiments/AOT/AOT_stimuli/rescaled_final/2076_fw.mp4	0.0	268.1122148036957	0.10003113746643066
34	232.58212113380432	fix_pre	0		119	32.0	2.5	/experiments/AOT/AOT_stimuli/rescaled_final/1984_rv.mp4	0.0	268.2122459411621	0.9916210174560547
34	233.56560516357422	pulse	0	t		32.0	2.5	/experiments/AOT/AOT_stimuli/rescaled_final/1984_rv.mp4	0.0	269.195729970932	
34	233.57374215126038	movie	1		246	32.0	2.5	/experiments/AOT/AOT_stimuli/rescaled_final/1984_rv.mp4	0.0	269.20386695861816	2.508424997329712
34	235.16524720191956	pulse	1	t		32.0	2.5	/experiments/AOT/AOT_stimuli/rescaled_final/1984_rv.mp4	0.0	270.79537200927734	
34	236.0821671485901	fix_post	2		12	32.0	2.5	/experiments/AOT/AOT_stimuli/rescaled_final/1984_rv.mp4	0.0	271.7122919559479	0.10002994537353516
35	236.18219709396362	fix_pre	0		120	33.0	2.5	/experiments/AOT/AOT_stimuli/rescaled_final/0139_fw.mp4	0.0	271.8123219013214	0.99993896484375
35	236.76562213897705	pulse	0	t		33.0	2.5	/experiments/AOT/AOT_stimuli/rescaled_final/0139_fw.mp4	0.0	272.39574694633484	
35	237.18213605880737	movie	1		243	33.0	2.5	/experiments/AOT/AOT_stimuli/rescaled_final/0139_fw.mp4	0.0	272.81226086616516	2.49993896484375
35	238.36566400527954	pulse	1	t		33.0	2.5	/experiments/AOT/AOT_stimuli/rescaled_final/0139_fw.mp4	0.0	273.99578881263733	
35	239.68207502365112	fix_post	2		12	33.0	2.5	/experiments/AOT/AOT_stimuli/rescaled_final/0139_fw.mp4	0.0	275.3121998310089	0.09995698928833008
36	239.78203201293945	fix_pre	0		120	34.0	2.5	/experiments/AOT/AOT_stimuli/rescaled_final/0773_rv.mp4	0.0	275.41215682029724	1.0000801086425781
36	239.96560621261597	pulse	0	t		34.0	2.5	/experiments/AOT/AOT_stimuli/rescaled_final/0773_rv.mp4	0.0	275.59573101997375	
36	240.78211212158203	movie	1		244	34.0	2.5	/experiments/AOT/AOT_stimuli/rescaled_final/0773_rv.mp4	0.0	276.4122369289398	2.49993896484375
36	241.56555318832397	pulse	1	t		34.0	2.5	/experiments/AOT/AOT_stimuli/rescaled_final/0773_rv.mp4	0.0	277.19567799568176	
36	243.16398000717163	pulse	1	t		34.0	2.5	/experiments/AOT/AOT_stimuli/rescaled_final/0773_rv.mp4	0.0	278.7941048145294	
36	243.28205108642578	fix_post	2		12	34.0	2.5	/experiments/AOT/AOT_stimuli/rescaled_final/0773_rv.mp4	0.0	278.91217589378357	0.09992194175720215
37	243.38197302818298	fix_pre	0		120	35.0	2.5	blank	1.0	279.01209783554077	1.000128984451294
37	244.38210201263428	movie	1		300	35.0	2.5	blank	1.0	280.01222681999207	2.4999752044677734
37	244.76558303833008	pulse	1	t		35.0	2.5	blank	1.0	280.39570784568787	
37	246.36555004119873	pulse	1	t		35.0	2.5	blank	1.0	281.9956748485565	
37	246.88207721710205	fix_post	2		12	35.0	2.5	blank	1.0	282.51220202445984	0.10004281997680664
38	246.98212003707886	fix_pre	0		119	36.0	2.5	/experiments/AOT/AOT_stimuli/rescaled_final/1960_fw.mp4	0.0	282.61224484443665	0.9915730953216553
38	247.96556520462036	pulse	0	t		36.0	2.5	/experiments/AOT/AOT_stimuli/rescaled_final/1960_fw.mp4	0.0	283.59569001197815	
38	247.9736931324005	movie	1		243	36.0	2.5	/experiments/AOT/AOT_stimuli/rescaled_final/1960_fw.mp4	0.0	283.6038179397583	2.5083389282226562
38	249.56502199172974	pulse	1	t		36.0	2.5	/experiments/AOT/AOT_stimuli/rescaled_final/1960_fw.mp4	0.0	285.1951467990875	
38	250.48203206062317	fix_post	2		12	36.0	2.5	/experiments/AOT/AOT_stimuli/rescaled_final/1960_fw.mp4	0.0	286.11215686798096	0.09994196891784668
39	250.58197402954102	fix_pre	0		120	37.0	2.5	/experiments/AOT/AOT_stimuli/rescaled_final/1777_fw.mp4	0.0	286.2120988368988	1.0000381469726562
39	251.16555500030518	pulse	0	t		37.0	2.5	/experiments/AOT/AOT_stimuli/rescaled_final/1777_fw.mp4	0.0	286.79567980766296	
39	251.58201217651367	movie	1		244	37.0	2.5	/experiments/AOT/AOT_stimuli/rescaled_final/1777_fw.mp4	0.0	287.21213698387146	2.499976873397827
39	252.7655701637268	pulse	1	t		37.0	2.5	/experiments/AOT/AOT_stimuli/rescaled_final/1777_fw.mp4	0.0	288.3956949710846	
39	254.0819890499115	fix_post	2		12	37.0	2.5	/experiments/AOT/AOT_stimuli/rescaled_final/1777_fw.mp4	0.0	289.7121138572693	0.10005497932434082
40	254.18204402923584	fix_pre	0		120	38.0	2.5	/experiments/AOT/AOT_stimuli/rescaled_final/0349_fw.mp4	0.0	289.8121688365936	1.0000290870666504
40	254.36552715301514	pulse	0	t		38.0	2.5	/experiments/AOT/AOT_stimuli/rescaled_final/0349_fw.mp4	0.0	289.9956519603729	
40	255.1820731163025	movie	1		243	38.0	2.5	/experiments/AOT/AOT_stimuli/rescaled_final/0349_fw.mp4	0.0	290.8121979236603	2.4999310970306396
40	255.96551609039307	pulse	1	t		38.0	2.5	/experiments/AOT/AOT_stimuli/rescaled_final/0349_fw.mp4	0.0	291.59564089775085	
40	257.5637490749359	pulse	1	t		38.0	2.5	/experiments/AOT/AOT_stimuli/rescaled_final/0349_fw.mp4	0.0	293.1938738822937	
40	257.68200421333313	fix_post	2		12	38.0	2.5	/experiments/AOT/AOT_stimuli/rescaled_final/0349_fw.mp4	0.0	293.3121290206909	0.1000058650970459
41	257.7820100784302	fix_pre	0		120	39.0	2.5	/experiments/AOT/AOT_stimuli/rescaled_final/2178_fw.mp4	0.0	293.41213488578796	0.9999680519104004
41	258.7819781303406	movie	1		243	39.0	2.5	/experiments/AOT/AOT_stimuli/rescaled_final/2178_fw.mp4	0.0	294.41210293769836	2.5000600814819336
41	259.1654191017151	pulse	1	t		39.0	2.5	/experiments/AOT/AOT_stimuli/rescaled_final/2178_fw.mp4	0.0	294.7955439090729	
41	260.7654941082001	pulse	1	t		39.0	2.5	/experiments/AOT/AOT_stimuli/rescaled_final/2178_fw.mp4	0.0	296.39561891555786	
41	261.2820382118225	fix_post	2		12	39.0	2.5	/experiments/AOT/AOT_stimuli/rescaled_final/2178_fw.mp4	0.0	296.9121630191803	0.09988784790039062
42	261.3819260597229	fix_pre	0		119	40.0	2.5	/experiments/AOT/AOT_stimuli/rescaled_final/1450_fw.mp4	0.0	297.0120508670807	0.9916889667510986
42	262.3655741214752	pulse	0	t		40.0	2.5	/experiments/AOT/AOT_stimuli/rescaled_final/1450_fw.mp4	0.0	297.995698928833	
42	262.373615026474	movie	1		246	40.0	2.5	/experiments/AOT/AOT_stimuli/rescaled_final/1450_fw.mp4	0.0	298.0037398338318	2.5079550743103027
42	263.96480107307434	pulse	1	t		40.0	2.5	/experiments/AOT/AOT_stimuli/rescaled_final/1450_fw.mp4	0.0	299.59492588043213	
42	264.8815701007843	fix_post	2		12	40.0	2.5	/experiments/AOT/AOT_stimuli/rescaled_final/1450_fw.mp4	0.0	300.5116949081421	0.10041189193725586
43	264.98198199272156	fix_pre	0		120	41.0	2.5	blank	1.0	300.61210680007935	0.9997491836547852
43	265.56520199775696	pulse	0	t		41.0	2.5	blank	1.0	301.19532680511475	
43	265.98173117637634	movie	1		300	41.0	2.5	blank	1.0	301.61185598373413	2.50022292137146
43	267.165500164032	pulse	1	t		41.0	2.5	blank	1.0	302.79562497138977	
43	268.4819540977478	fix_post	2		12	41.0	2.5	blank	1.0	304.1120789051056	0.0999760627746582
44	268.58193016052246	fix_pre	0		120	42.0	2.5	/experiments/AOT/AOT_stimuli/rescaled_final/1055_fw.mp4	0.0	304.21205496788025	1.000074863433838
44	268.76556301116943	pulse	0	t		42.0	2.5	/experiments/AOT/AOT_stimuli/rescaled_final/1055_fw.mp4	0.0	304.3956878185272	
44	269.5820050239563	movie	1		243	42.0	2.5	/experiments/AOT/AOT_stimuli/rescaled_final/1055_fw.mp4	0.0	305.2121298313141	2.4994561672210693
44	270.36534810066223	pulse	1	t		42.0	2.5	/experiments/AOT/AOT_stimuli/rescaled_final/1055_fw.mp4	0.0	305.99547290802	
44	271.9737551212311	pulse	1	t		42.0	2.5	/experiments/AOT/AOT_stimuli/rescaled_final/1055_fw.mp4	0.0	307.60387992858887	
44	272.08146119117737	fix_post	2		12	42.0	2.5	/experiments/AOT/AOT_stimuli/rescaled_final/1055_fw.mp4	0.0	307.71158599853516	0.10042190551757812
45	272.18188309669495	fix_pre	0		120	43.0	2.5	/experiments/AOT/AOT_stimuli/rescaled_final/1740_fw.mp4	0.0	307.81200790405273	0.9999649524688721
45	273.1818480491638	movie	1		244	43.0	2.5	/experiments/AOT/AOT_stimuli/rescaled_final/1740_fw.mp4	0.0	308.8119728565216	2.5000851154327393
45	273.56667017936707	pulse	1	t		43.0	2.5	/experiments/AOT/AOT_stimuli/rescaled_final/1740_fw.mp4	0.0	309.19679498672485	
45	275.1653401851654	pulse	1	t		43.0	2.5	/experiments/AOT/AOT_stimuli/rescaled_final/1740_fw.mp4	0.0	310.7954649925232	
45	275.68193316459656	fix_post	2		12	43.0	2.5	/experiments/AOT/AOT_stimuli/rescaled_final/1740_fw.mp4	0.0	311.31205797195435	0.09991884231567383
46	275.78185200691223	fix_pre	0		119	44.0	2.5	/experiments/AOT/AOT_stimuli/rescaled_final/1771_rv.mp4	0.0	311.41197681427	0.9916300773620605
46	276.7653901576996	pulse	0	t		44.0	2.5	/experiments/AOT/AOT_stimuli/rescaled_final/1771_rv.mp4	0.0	312.3955149650574	
46	276.7734820842743	movie	1		247	44.0	2.5	/experiments/AOT/AOT_stimuli/rescaled_final/1771_rv.mp4	0.0	312.4036068916321	2.5084171295166016
46	278.3651010990143	pulse	1	t		44.0	2.5	/experiments/AOT/AOT_stimuli/rescaled_final/1771_rv.mp4	0.0	313.99522590637207	
46	279.2818992137909	fix_post	2		12	44.0	2.5	/experiments/AOT/AOT_stimuli/rescaled_final/1771_rv.mp4	0.0	314.9120240211487	0.09996390342712402
47	279.381863117218	fix_pre	0		120	45.0	2.5	/experiments/AOT/AOT_stimuli/rescaled_final/0536_fw.mp4	0.0	315.0119879245758	0.9999740123748779
47	279.9653661251068	pulse	0	t		45.0	2.5	/experiments/AOT/AOT_stimuli/rescaled_final/0536_fw.mp4	0.0	315.5954909324646	
47	280.3818371295929	movie	1		246	45.0	2.5	/experiments/AOT/AOT_stimuli/rescaled_final/0536_fw.mp4	0.0	316.0119619369507	2.499621868133545
47	281.5653600692749	pulse	1	t		45.0	2.5	/experiments/AOT/AOT_stimuli/rescaled_final/0536_fw.mp4	0.0	317.1954848766327	
47	282.88145899772644	fix_post	2		12	45.0	2.5	/experiments/AOT/AOT_stimuli/rescaled_final/0536_fw.mp4	0.0	318.51158380508423	0.10040616989135742
48	282.9818651676178	fix_pre	0		120	46.0	2.5	/experiments/AOT/AOT_stimuli/rescaled_final/0349_rv.mp4	0.0	318.6119899749756	0.9999878406524658
48	283.16534900665283	pulse	0	t		46.0	2.5	/experiments/AOT/AOT_stimuli/rescaled_final/0349_rv.mp4	0.0	318.7954738140106	
48	283.98185300827026	movie	1		245	46.0	2.5	/experiments/AOT/AOT_stimuli/rescaled_final/0349_rv.mp4	0.0	319.61197781562805	2.4999911785125732
48	284.76524019241333	pulse	1	t		46.0	2.5	/experiments/AOT/AOT_stimuli/rescaled_final/0349_rv.mp4	0.0	320.3953649997711	
48	286.3637909889221	pulse	1	t		46.0	2.5	/experiments/AOT/AOT_stimuli/rescaled_final/0349_rv.mp4	0.0	321.9939157962799	
48	286.48184418678284	fix_post	2		12	46.0	2.5	/experiments/AOT/AOT_stimuli/rescaled_final/0349_rv.mp4	0.0	322.1119689941406	0.1000359058380127
49	286.58188009262085	fix_pre	0		120	47.0	2.5	/experiments/AOT/AOT_stimuli/rescaled_final/1575_rv.mp4	0.0	322.21200489997864	1.0001089572906494
49	287.5819890499115	movie	1		245	47.0	2.5	/experiments/AOT/AOT_stimuli/rescaled_final/1575_rv.mp4	0.0	323.2121138572693	2.49979305267334
49	287.96659207344055	pulse	1	t		47.0	2.5	/experiments/AOT/AOT_stimuli/rescaled_final/1575_rv.mp4	0.0	323.59671688079834	
49	289.56536412239075	pulse	1	t		47.0	2.5	/experiments/AOT/AOT_stimuli/rescaled_final/1575_rv.mp4	0.0	325.19548892974854	
49	290.08178210258484	fix_post	2		12	47.0	2.5	/experiments/AOT/AOT_stimuli/rescaled_final/1575_rv.mp4	0.0	325.7119069099426	0.10010409355163574
50	290.1818861961365	fix_pre	0		119	48.0	2.5	/experiments/AOT/AOT_stimuli/rescaled_final/0277_fw.mp4	0.0	325.81201100349426	0.9915609359741211
50	291.1653501987457	pulse	0	t		48.0	2.5	/experiments/AOT/AOT_stimuli/rescaled_final/0277_fw.mp4	0.0	326.7954750061035	
50	291.1734471321106	movie	1		245	48.0	2.5	/experiments/AOT/AOT_stimuli/rescaled_final/0277_fw.mp4	0.0	326.8035719394684	2.5082950592041016
50	292.7647330760956	pulse	1	t		48.0	2.5	/experiments/AOT/AOT_stimuli/rescaled_final/0277_fw.mp4	0.0	328.39485788345337	
50	293.6817421913147	fix_post	2		12	48.0	2.5	/experiments/AOT/AOT_stimuli/rescaled_final/0277_fw.mp4	0.0	329.3118669986725	0.10005593299865723
51	293.78179812431335	fix_pre	0		120	49.0	2.5	blank	1.0	329.41192293167114	1.0000128746032715
51	294.3652811050415	pulse	0	t		49.0	2.5	blank	1.0	329.9954059123993	
51	294.7818109989166	movie	1		300	49.0	2.5	blank	1.0	330.4119358062744	2.500047206878662
51	295.9652841091156	pulse	1	t		49.0	2.5	blank	1.0	331.5954089164734	
51	297.2818582057953	fix_post	2		12	49.0	2.5	blank	1.0	332.9119830131531	0.09995293617248535
52	297.3818111419678	fix_pre	0		120	50.0	2.5	/experiments/AOT/AOT_stimuli/rescaled_final/1439_fw.mp4	0.0	333.01193594932556	0.9999659061431885
52	297.56532406806946	pulse	0	t		50.0	2.5	/experiments/AOT/AOT_stimuli/rescaled_final/1439_fw.mp4	0.0	333.19544887542725	
52	298.38177704811096	movie	1		243	50.0	2.5	/experiments/AOT/AOT_stimuli/rescaled_final/1439_fw.mp4	0.0	334.01190185546875	2.5000109672546387
52	299.16529607772827	pulse	1	t		50.0	2.5	/experiments/AOT/AOT_stimuli/rescaled_final/1439_fw.mp4	0.0	334.79542088508606	
52	300.7641341686249	pulse	1	t		50.0	2.5	/experiments/AOT/AOT_stimuli/rescaled_final/1439_fw.mp4	0.0	336.39425897598267	
52	300.8817880153656	fix_post	2		12	50.0	2.5	/experiments/AOT/AOT_stimuli/rescaled_final/1439_fw.mp4	0.0	336.5119128227234	0.10006499290466309
53	300.98185300827026	fix_pre	0		120	51.0	2.5	/experiments/AOT/AOT_stimuli/rescaled_final/0019_fw.mp4	0.0	336.61197781562805	0.9999392032623291
53	301.9817922115326	movie	1		248	51.0	2.5	/experiments/AOT/AOT_stimuli/rescaled_final/0019_fw.mp4	0.0	337.6119170188904	2.5000720024108887
53	302.3660590648651	pulse	1	t		51.0	2.5	/experiments/AOT/AOT_stimuli/rescaled_final/0019_fw.mp4	0.0	337.9961838722229	
53	303.96544218063354	pulse	1	t		51.0	2.5	/experiments/AOT/AOT_stimuli/rescaled_final/0019_fw.mp4	0.0	339.59556698799133	
53	304.4818642139435	fix_post	2		12	51.0	2.5	/experiments/AOT/AOT_stimuli/rescaled_final/0019_fw.mp4	0.0	340.11198902130127	0.09991979598999023
54	304.5817840099335	fix_pre	0		119	52.0	2.5	/experiments/AOT/AOT_stimuli/rescaled_final/1436_fw.mp4	0.0	340.21190881729126	0.991584062576294
54	305.56518602371216	pulse	0	t		52.0	2.5	/experiments/AOT/AOT_stimuli/rescaled_final/1436_fw.mp4	0.0	341.19531083106995	
54	305.57336807250977	movie	1		246	52.0	2.5	/experiments/AOT/AOT_stimuli/rescaled_final/1436_fw.mp4	0.0	341.20349287986755	2.5079169273376465
54	307.16471815109253	pulse	1	t		52.0	2.5	/experiments/AOT/AOT_stimuli/rescaled_final/1436_fw.mp4	0.0	342.7948429584503	
54	308.0812849998474	fix_post	2		12	52.0	2.5	/experiments/AOT/AOT_stimuli/rescaled_final/1436_fw.mp4	0.0	343.7114098072052	0.10044503211975098
55	308.18173003196716	fix_pre	0		120	53.0	2.5	/experiments/AOT/AOT_stimuli/rescaled_final/1441_rv.mp4	0.0	343.81185483932495	1.0001029968261719
55	308.7652790546417	pulse	0	t		53.0	2.5	/experiments/AOT/AOT_stimuli/rescaled_final/1441_rv.mp4	0.0	344.3954038619995	
55	309.18183302879333	movie	1		243	53.0	2.5	/experiments/AOT/AOT_stimuli/rescaled_final/1441_rv.mp4	0.0	344.8119578361511	2.499885082244873
55	310.3653130531311	pulse	1	t		53.0	2.5	/experiments/AOT/AOT_stimuli/rescaled_final/1441_rv.mp4	0.0	345.9954378604889	
55	311.6817181110382	fix_post	2		12	53.0	2.5	/experiments/AOT/AOT_stimuli/rescaled_final/1441_rv.mp4	0.0	347.311842918396	0.09958410263061523
56	311.7813022136688	fix_pre	0		120	54.0	2.5	blank	1.0	347.4114270210266	1.0004169940948486
56	311.9652261734009	pulse	0	t		54.0	2.5	blank	1.0	347.59535098075867	
56	312.7817192077637	movie	1		300	54.0	2.5	blank	1.0	348.41184401512146	2.5000410079956055
56	313.56522703170776	pulse	1	t		54.0	2.5	blank	1.0	349.19535183906555	
56	315.16523599624634	pulse	1	t		54.0	2.5	blank	1.0	350.7953608036041	
56	315.2817602157593	fix_post	2		12	54.0	2.5	blank	1.0	350.91188502311707	0.09994888305664062
57	315.3817090988159	fix_pre	0		120	55.0	2.5	/experiments/AOT/AOT_stimuli/rescaled_final/0972_fw.mp4	0.0	351.0118339061737	1.000014066696167
57	316.3817231655121	movie	1		243	55.0	2.5	/experiments/AOT/AOT_stimuli/rescaled_final/0972_fw.mp4	0.0	352.0118479728699	2.4999358654022217
57	316.76475501060486	pulse	1	t		55.0	2.5	/experiments/AOT/AOT_stimuli/rescaled_final/0972_fw.mp4	0.0	352.39487981796265	
57	318.36511301994324	pulse	1	t		55.0	2.5	/experiments/AOT/AOT_stimuli/rescaled_final/0972_fw.mp4	0.0	353.995237827301	
57	318.8816590309143	fix_post	2		12	55.0	2.5	/experiments/AOT/AOT_stimuli/rescaled_final/0972_fw.mp4	0.0	354.5117838382721	0.1000211238861084
58	318.9816801548004	fix_pre	0		119	56.0	2.5	/experiments/AOT/AOT_stimuli/rescaled_final/1682_rv.mp4	0.0	354.6118049621582	0.9916889667510986
58	319.9652831554413	pulse	0	t		56.0	2.5	/experiments/AOT/AOT_stimuli/rescaled_final/1682_rv.mp4	0.0	355.5954079627991	
58	319.9733691215515	movie	1		247	56.0	2.5	/experiments/AOT/AOT_stimuli/rescaled_final/1682_rv.mp4	0.0	355.6034939289093	2.508152961730957
58	321.56590008735657	pulse	1	t		56.0	2.5	/experiments/AOT/AOT_stimuli/rescaled_final/1682_rv.mp4	0.0	357.19602489471436	
58	322.48152208328247	fix_post	2		12	56.0	2.5	/experiments/AOT/AOT_stimuli/rescaled_final/1682_rv.mp4	0.0	358.11164689064026	0.10013604164123535
59	322.5816581249237	fix_pre	0		120	57.0	2.5	/experiments/AOT/AOT_stimuli/rescaled_final/1105_fw.mp4	0.0	358.2117829322815	1.0000178813934326
59	323.16535115242004	pulse	0	t		57.0	2.5	/experiments/AOT/AOT_stimuli/rescaled_final/1105_fw.mp4	0.0	358.79547595977783	
59	323.58167600631714	movie	1		245	57.0	2.5	/experiments/AOT/AOT_stimuli/rescaled_final/1105_fw.mp4	0.0	359.2118008136749	2.5000150203704834
59	324.7652850151062	pulse	1	t		57.0	2.5	/experiments/AOT/AOT_stimuli/rescaled_final/1105_fw.mp4	0.0	360.395409822464	
59	326.0816910266876	fix_post	2		12	57.0	2.5	/experiments/AOT/AOT_stimuli/rescaled_final/1105_fw.mp4	0.0	361.7118158340454	0.09994196891784668
60	326.18163299560547	fix_pre	0		120	58.0	2.5	/experiments/AOT/AOT_stimuli/rescaled_final/1682_fw.mp4	0.0	361.81175780296326	1.0001461505889893
60	326.36516213417053	pulse	0	t		58.0	2.5	/experiments/AOT/AOT_stimuli/rescaled_final/1682_fw.mp4	0.0	361.9952869415283	
60	327.18177914619446	movie	1		246	58.0	2.5	/experiments/AOT/AOT_stimuli/rescaled_final/1682_fw.mp4	0.0	362.81190395355225	2.4997830390930176
60	327.9650340080261	pulse	1	t		58.0	2.5	/experiments/AOT/AOT_stimuli/rescaled_final/1682_fw.mp4	0.0	363.5951588153839	
60	329.56360721588135	pulse	1	t		58.0	2.5	/experiments/AOT/AOT_stimuli/rescaled_final/1682_fw.mp4	0.0	365.19373202323914	
60	329.6815621852875	fix_post	2		12	58.0	2.5	/experiments/AOT/AOT_stimuli/rescaled_final/1682_fw.mp4	0.0	365.31168699264526	0.10002589225769043
61	329.78158807754517	fix_pre	0		120	59.0	2.5	/experiments/AOT/AOT_stimuli/rescaled_final/1502_fw.mp4	0.0	365.41171288490295	0.9996049404144287
61	330.7811930179596	movie	1		246	59.0	2.5	/experiments/AOT/AOT_stimuli/rescaled_final/1502_fw.mp4	0.0	366.4113178253174	2.5004570484161377
61	331.16513299942017	pulse	1	t		59.0	2.5	/experiments/AOT/AOT_stimuli/rescaled_final/1502_fw.mp4	0.0	366.79525780677795	
61	332.76510310173035	pulse	1	t		59.0	2.5	/experiments/AOT/AOT_stimuli/rescaled_final/1502_fw.mp4	0.0	368.39522790908813	
61	333.28165006637573	fix_post	2		12	59.0	2.5	/experiments/AOT/AOT_stimuli/rescaled_final/1502_fw.mp4	0.0	368.9117748737335	0.09986996650695801
62	333.3815200328827	fix_pre	0		119	60.0	2.5	/experiments/AOT/AOT_stimuli/rescaled_final/0500_fw.mp4	0.0	369.0116448402405	0.9917399883270264
62	334.365051984787	pulse	0	t		60.0	2.5	/experiments/AOT/AOT_stimuli/rescaled_final/0500_fw.mp4	0.0	369.9951767921448	
62	334.3732600212097	movie	1		245	60.0	2.5	/experiments/AOT/AOT_stimuli/rescaled_final/0500_fw.mp4	0.0	370.0033848285675	2.508366107940674
62	335.96475410461426	pulse	1	t		60.0	2.5	/experiments/AOT/AOT_stimuli/rescaled_final/0500_fw.mp4	0.0	371.59487891197205	
62	336.8816261291504	fix_post	2		12	60.0	2.5	/experiments/AOT/AOT_stimuli/rescaled_final/0500_fw.mp4	0.0	372.5117509365082	0.0999600887298584
63	336.98158621788025	fix_pre	0		120	61.0	2.5	/experiments/AOT/AOT_stimuli/rescaled_final/1560_rv.mp4	0.0	372.61171102523804	1.0000028610229492
63	337.5651080608368	pulse	0	t		61.0	2.5	/experiments/AOT/AOT_stimuli/rescaled_final/1560_rv.mp4	0.0	373.1952328681946	
63	337.9815890789032	movie	1		245	61.0	2.5	/experiments/AOT/AOT_stimuli/rescaled_final/1560_rv.mp4	0.0	373.611713886261	2.499958038330078
63	339.1650941371918	pulse	1	t		61.0	2.5	/experiments/AOT/AOT_stimuli/rescaled_final/1560_rv.mp4	0.0	374.79521894454956	
63	340.4815471172333	fix_post	2		12	61.0	2.5	/experiments/AOT/AOT_stimuli/rescaled_final/1560_rv.mp4	0.0	376.11167192459106	0.09995889663696289
64	340.58150601387024	fix_pre	0		120	62.0	2.5	blank	1.0	376.211630821228	0.9998080730438232
64	340.7650520801544	pulse	0	t		62.0	2.5	blank	1.0	376.3951768875122	
64	341.58131408691406	movie	1		300	62.0	2.5	blank	1.0	377.21143889427185	2.500296115875244
64	342.3650691509247	pulse	1	t		62.0	2.5	blank	1.0	377.99519395828247	
64	343.9649682044983	pulse	1	t		62.0	2.5	blank	1.0	379.5950930118561	
64	344.0816102027893	fix_post	2		12	62.0	2.5	blank	1.0	379.7117350101471	0.09996795654296875
65	344.1815781593323	fix_pre	0		120	63.0	2.5	/experiments/AOT/AOT_stimuli/rescaled_final/1097_rv.mp4	0.0	379.81170296669006	1.0000200271606445
65	345.1815981864929	movie	1		246	63.0	2.5	/experiments/AOT/AOT_stimuli/rescaled_final/1097_rv.mp4	0.0	380.8117229938507	2.499945878982544
65	345.5648920536041	pulse	1	t		63.0	2.5	/experiments/AOT/AOT_stimuli/rescaled_final/1097_rv.mp4	0.0	381.1950168609619	
65	347.1650471687317	pulse	1	t		63.0	2.5	/experiments/AOT/AOT_stimuli/rescaled_final/1097_rv.mp4	0.0	382.7951719760895	
65	347.68154406547546	fix_post	2		12	63.0	2.5	/experiments/AOT/AOT_stimuli/rescaled_final/1097_rv.mp4	0.0	383.31166887283325	0.09997010231018066
66	347.78151416778564	fix_pre	0		119	64.0	2.5	/experiments/AOT/AOT_stimuli/rescaled_final/0853_rv.mp4	0.0	383.41163897514343	0.9915909767150879
66	348.7649919986725	pulse	0	t		64.0	2.5	/experiments/AOT/AOT_stimuli/rescaled_final/0853_rv.mp4	0.0	384.3951168060303	
66	348.77310514450073	movie	1		247	64.0	2.5	/experiments/AOT/AOT_stimuli/rescaled_final/0853_rv.mp4	0.0	384.4032299518585	2.508435010910034
66	350.36524415016174	pulse	1	t		64.0	2.5	/experiments/AOT/AOT_stimuli/rescaled_final/0853_rv.mp4	0.0	385.99536895751953	
66	351.28154015541077	fix_post	2		12	64.0	2.5	/experiments/AOT/AOT_stimuli/rescaled_final/0853_rv.mp4	0.0	386.91166496276855	0.10002994537353516
67	351.3815701007843	fix_pre	0		120	65.0	2.5	/experiments/AOT/AOT_stimuli/rescaled_final/1876_fw.mp4	0.0	387.0116949081421	0.9999608993530273
67	351.9650321006775	pulse	0	t		65.0	2.5	/experiments/AOT/AOT_stimuli/rescaled_final/1876_fw.mp4	0.0	387.5951569080353	
67	352.38153100013733	movie	1		244	65.0	2.5	/experiments/AOT/AOT_stimuli/rescaled_final/1876_fw.mp4	0.0	388.0116558074951	2.4999442100524902
67	353.565012216568	pulse	1	t		65.0	2.5	/experiments/AOT/AOT_stimuli/rescaled_final/1876_fw.mp4	0.0	389.1951370239258	
67	354.8814752101898	fix_post	2		12	65.0	2.5	/experiments/AOT/AOT_stimuli/rescaled_final/1876_fw.mp4	0.0	390.5116000175476	0.09996795654296875
68	354.9814431667328	fix_pre	0		120	66.0	2.5	/experiments/AOT/AOT_stimuli/rescaled_final/1633_rv.mp4	0.0	390.6115679740906	0.9999940395355225
68	355.1650199890137	pulse	0	t		66.0	2.5	/experiments/AOT/AOT_stimuli/rescaled_final/1633_rv.mp4	0.0	390.79514479637146	
68	355.9814372062683	movie	1		243	66.0	2.5	/experiments/AOT/AOT_stimuli/rescaled_final/1633_rv.mp4	0.0	391.6115620136261	2.500088930130005
68	356.7651071548462	pulse	1	t		66.0	2.5	/experiments/AOT/AOT_stimuli/rescaled_final/1633_rv.mp4	0.0	392.395231962204	
68	358.36381816864014	pulse	1	t		66.0	2.5	/experiments/AOT/AOT_stimuli/rescaled_final/1633_rv.mp4	0.0	393.9939429759979	
68	358.4815261363983	fix_post	2		12	66.0	2.5	/experiments/AOT/AOT_stimuli/rescaled_final/1633_rv.mp4	0.0	394.1116509437561	0.09990692138671875
69	358.58143305778503	fix_pre	0		120	67.0	2.5	/experiments/AOT/AOT_stimuli/rescaled_final/1515_fw.mp4	0.0	394.2115578651428	1.000075101852417
69	359.58150815963745	movie	1		243	67.0	2.5	/experiments/AOT/AOT_stimuli/rescaled_final/1515_fw.mp4	0.0	395.21163296699524	2.499924898147583
69	359.9646611213684	pulse	1	t		67.0	2.5	/experiments/AOT/AOT_stimuli/rescaled_final/1515_fw.mp4	0.0	395.5947859287262	
69	361.56511306762695	pulse	1	t		67.0	2.5	/experiments/AOT/AOT_stimuli/rescaled_final/1515_fw.mp4	0.0	397.19523787498474	
69	362.08143305778503	fix_post	2		12	67.0	2.5	/experiments/AOT/AOT_stimuli/rescaled_final/1515_fw.mp4	0.0	397.7115578651428	0.100006103515625
70	362.18143916130066	fix_pre	0		119	68.0	2.5	/experiments/AOT/AOT_stimuli/rescaled_final/1381_fw.mp4	0.0	397.81156396865845	0.9916598796844482
70	363.16496300697327	pulse	0	t		68.0	2.5	/experiments/AOT/AOT_stimuli/rescaled_final/1381_fw.mp4	0.0	398.79508781433105	
70	363.1730990409851	movie	1		245	68.0	2.5	/experiments/AOT/AOT_stimuli/rescaled_final/1381_fw.mp4	0.0	398.8032238483429	2.50839900970459
70	364.7650201320648	pulse	1	t		68.0	2.5	/experiments/AOT/AOT_stimuli/rescaled_final/1381_fw.mp4	0.0	400.3951449394226	
70	365.6814980506897	fix_post	2		12	68.0	2.5	/experiments/AOT/AOT_stimuli/rescaled_final/1381_fw.mp4	0.0	401.3116228580475	0.1000070571899414
71	365.78150510787964	fix_pre	0		120	69.0	2.5	blank	1.0	401.4116299152374	0.9999508857727051
71	366.3649570941925	pulse	0	t		69.0	2.5	blank	1.0	401.9950819015503	
71	366.78145599365234	movie	1		300	69.0	2.5	blank	1.0	402.41158080101013	2.5000460147857666
71	367.9648931026459	pulse	1	t		69.0	2.5	blank	1.0	403.59501791000366	
71	369.2815020084381	fix_post	2		12	69.0	2.5	blank	1.0	404.9116268157959	0.09993910789489746
72	369.381441116333	fix_pre	0		120	70.0	2.5	/experiments/AOT/AOT_stimuli/rescaled_final/0449_fw.mp4	0.0	405.0115659236908	0.9996049404144287
72	369.5649540424347	pulse	0	t		70.0	2.5	/experiments/AOT/AOT_stimuli/rescaled_final/0449_fw.mp4	0.0	405.1950788497925	
72	370.38104605674744	movie	1		244	70.0	2.5	/experiments/AOT/AOT_stimuli/rescaled_final/0449_fw.mp4	0.0	406.0111708641052	2.5005040168762207
72	371.16493701934814	pulse	1	t		70.0	2.5	/experiments/AOT/AOT_stimuli/rescaled_final/0449_fw.mp4	0.0	406.79506182670593	
72	372.7634711265564	pulse	1	t		70.0	2.5	/experiments/AOT/AOT_stimuli/rescaled_final/0449_fw.mp4	0.0	408.3935959339142	
72	372.88155007362366	fix_post	2		12	70.0	2.5	/experiments/AOT/AOT_stimuli/rescaled_final/0449_fw.mp4	0.0	408.51167488098145	0.09987807273864746
73	372.9814281463623	fix_pre	0		120	71.0	2.5	/experiments/AOT/AOT_stimuli/rescaled_final/0972_rv.mp4	0.0	408.6115529537201	1.0000090599060059
73	373.9814372062683	movie	1		243	71.0	2.5	/experiments/AOT/AOT_stimuli/rescaled_final/0972_rv.mp4	0.0	409.6115620136261	2.5000839233398438
73	374.36621618270874	pulse	1	t		71.0	2.5	/experiments/AOT/AOT_stimuli/rescaled_final/0972_rv.mp4	0.0	409.9963409900665	
73	375.9645240306854	pulse	1	t		71.0	2.5	/experiments/AOT/AOT_stimuli/rescaled_final/0972_rv.mp4	0.0	411.5946488380432	
73	376.48152112960815	fix_post	2		12	71.0	2.5	/experiments/AOT/AOT_stimuli/rescaled_final/0972_rv.mp4	0.0	412.11164593696594	0.09953188896179199
74	376.58105301856995	fix_pre	0		119	72.0	2.5	/experiments/AOT/AOT_stimuli/rescaled_final/1055_rv.mp4	0.0	412.21117782592773	0.9921891689300537
74	377.56508708000183	pulse	0	t		72.0	2.5	/experiments/AOT/AOT_stimuli/rescaled_final/1055_rv.mp4	0.0	413.1952118873596	
74	377.5732421875	movie	1		243	72.0	2.5	/experiments/AOT/AOT_stimuli/rescaled_final/1055_rv.mp4	0.0	413.2033669948578	2.5081489086151123
74	379.1660530567169	pulse	1	t		72.0	2.5	/experiments/AOT/AOT_stimuli/rescaled_final/1055_rv.mp4	0.0	414.7961778640747	
74	380.0813910961151	fix_post	2		12	72.0	2.5	/experiments/AOT/AOT_stimuli/rescaled_final/1055_rv.mp4	0.0	415.7115159034729	0.10000395774841309
75	380.1813950538635	fix_pre	0		120	73.0	2.5	/experiments/AOT/AOT_stimuli/rescaled_final/0639_rv.mp4	0.0	415.8115198612213	1.0000040531158447
75	380.7648251056671	pulse	0	t		73.0	2.5	/experiments/AOT/AOT_stimuli/rescaled_final/0639_rv.mp4	0.0	416.3949499130249	
75	381.18139910697937	movie	1		244	73.0	2.5	/experiments/AOT/AOT_stimuli/rescaled_final/0639_rv.mp4	0.0	416.81152391433716	2.499941110610962
75	382.36488914489746	pulse	1	t		73.0	2.5	/experiments/AOT/AOT_stimuli/rescaled_final/0639_rv.mp4	0.0	417.99501395225525	
75	383.68134021759033	fix_post	2		12	73.0	2.5	/experiments/AOT/AOT_stimuli/rescaled_final/0639_rv.mp4	0.0	419.3114650249481	0.0999917984008789
76	383.7813320159912	fix_pre	0		120	74.0	2.5	/experiments/AOT/AOT_stimuli/rescaled_final/0605_rv.mp4	0.0	419.411456823349	1.0000250339508057
76	383.96477818489075	pulse	0	t		74.0	2.5	/experiments/AOT/AOT_stimuli/rescaled_final/0605_rv.mp4	0.0	419.59490299224854	
76	384.781357049942	movie	1		242	74.0	2.5	/experiments/AOT/AOT_stimuli/rescaled_final/0605_rv.mp4	0.0	420.4114818572998	2.4999091625213623
76	385.5648250579834	pulse	1	t		74.0	2.5	/experiments/AOT/AOT_stimuli/rescaled_final/0605_rv.mp4	0.0	421.1949498653412	
76	387.1732029914856	pulse	1	t		74.0	2.5	/experiments/AOT/AOT_stimuli/rescaled_final/0605_rv.mp4	0.0	422.8033277988434	
76	387.2812662124634	fix_post	2		12	74.0	2.5	/experiments/AOT/AOT_stimuli/rescaled_final/0605_rv.mp4	0.0	422.91139101982117	0.1000678539276123
77	387.381334066391	fix_pre	0		120	75.0	2.5	blank	1.0	423.0114588737488	0.9999921321868896
77	388.3813261985779	movie	1		300	75.0	2.5	blank	1.0	424.01145100593567	2.5000579357147217
77	388.76475405693054	pulse	1	t		75.0	2.5	blank	1.0	424.39487886428833	
77	390.3647961616516	pulse	1	t		75.0	2.5	blank	1.0	425.9949209690094	
77	390.8813841342926	fix_post	2		12	75.0	2.5	blank	1.0	426.5115089416504	0.09986400604248047
78	390.9812481403351	fix_pre	0		119	76.0	2.5	/experiments/AOT/AOT_stimuli/rescaled_final/1103_fw.mp4	0.0	426.61137294769287	0.9917440414428711
78	391.96477699279785	pulse	0	t		76.0	2.5	/experiments/AOT/AOT_stimuli/rescaled_final/1103_fw.mp4	0.0	427.59490180015564	
78	391.97299218177795	movie	1		246	76.0	2.5	/experiments/AOT/AOT_stimuli/rescaled_final/1103_fw.mp4	0.0	427.60311698913574	2.5078468322753906
78	393.56431007385254	pulse	1	t		76.0	2.5	/experiments/AOT/AOT_stimuli/rescaled_final/1103_fw.mp4	0.0	429.1944348812103	
78	394.48083901405334	fix_post	2		12	76.0	2.5	/experiments/AOT/AOT_stimuli/rescaled_final/1103_fw.mp4	0.0	430.11096382141113	0.1004180908203125
79	394.58125710487366	fix_pre	0		120	77.0	2.5	/experiments/AOT/AOT_stimuli/rescaled_final/1478_rv.mp4	0.0	430.21138191223145	1.0000441074371338
79	395.16490507125854	pulse	0	t		77.0	2.5	/experiments/AOT/AOT_stimuli/rescaled_final/1478_rv.mp4	0.0	430.79502987861633	
79	395.5813012123108	movie	1		244	77.0	2.5	/experiments/AOT/AOT_stimuli/rescaled_final/1478_rv.mp4	0.0	431.2114260196686	2.4999799728393555
79	396.76484417915344	pulse	1	t		77.0	2.5	/experiments/AOT/AOT_stimuli/rescaled_final/1478_rv.mp4	0.0	432.39496898651123	
79	398.08128118515015	fix_post	2		12	77.0	2.5	/experiments/AOT/AOT_stimuli/rescaled_final/1478_rv.mp4	0.0	433.71140599250793	0.10001587867736816
80	398.1812970638275	fix_pre	0		120	78.0	2.5	/experiments/AOT/AOT_stimuli/rescaled_final/1229_fw.mp4	0.0	433.8114218711853	0.9999439716339111
80	398.3647952079773	pulse	0	t		78.0	2.5	/experiments/AOT/AOT_stimuli/rescaled_final/1229_fw.mp4	0.0	433.9949200153351	
80	399.1812410354614	movie	1		245	78.0	2.5	/experiments/AOT/AOT_stimuli/rescaled_final/1229_fw.mp4	0.0	434.8113658428192	2.500030994415283
80	399.96468710899353	pulse	1	t		78.0	2.5	/experiments/AOT/AOT_stimuli/rescaled_final/1229_fw.mp4	0.0	435.5948119163513	
80	401.5732409954071	pulse	1	t		78.0	2.5	/experiments/AOT/AOT_stimuli/rescaled_final/1229_fw.mp4	0.0	437.2033658027649	
80	401.6812720298767	fix_post	2		12	78.0	2.5	/experiments/AOT/AOT_stimuli/rescaled_final/1229_fw.mp4	0.0	437.3113968372345	0.10010695457458496
81	401.7813789844513	fix_pre	0		120	79.0	2.5	/experiments/AOT/AOT_stimuli/rescaled_final/2023_rv.mp4	0.0	437.4115037918091	0.9995431900024414
81	402.78092217445374	movie	1		245	79.0	2.5	/experiments/AOT/AOT_stimuli/rescaled_final/2023_rv.mp4	0.0	438.4110469818115	2.500356912612915
81	403.16457200050354	pulse	1	t		79.0	2.5	/experiments/AOT/AOT_stimuli/rescaled_final/2023_rv.mp4	0.0	438.7946968078613	
81	404.7647581100464	pulse	1	t		79.0	2.5	/experiments/AOT/AOT_stimuli/rescaled_final/2023_rv.mp4	0.0	440.3948829174042	
81	405.28127908706665	fix_post	2		12	79.0	2.5	/experiments/AOT/AOT_stimuli/rescaled_final/2023_rv.mp4	0.0	440.91140389442444	0.09998893737792969
82	405.3812680244446	fix_pre	0		119	80.0	2.5	/experiments/AOT/AOT_stimuli/rescaled_final/0741_rv.mp4	0.0	441.01139283180237	0.9916901588439941
82	406.3647081851959	pulse	0	t		80.0	2.5	/experiments/AOT/AOT_stimuli/rescaled_final/0741_rv.mp4	0.0	441.9948329925537	
82	406.3729581832886	movie	1		245	80.0	2.5	/experiments/AOT/AOT_stimuli/rescaled_final/0741_rv.mp4	0.0	442.00308299064636	2.5083258152008057
82	407.96428513526917	pulse	1	t		80.0	2.5	/experiments/AOT/AOT_stimuli/rescaled_final/0741_rv.mp4	0.0	443.59440994262695	
82	408.8812839984894	fix_post	2		12	80.0	2.5	/experiments/AOT/AOT_stimuli/rescaled_final/0741_rv.mp4	0.0	444.51140880584717	0.10001206398010254
83	408.9812960624695	fix_pre	0		120	81.0	2.5	/experiments/AOT/AOT_stimuli/rescaled_final/1759_rv.mp4	0.0	444.61142086982727	0.9999949932098389
83	409.56477904319763	pulse	0	t		81.0	2.5	/experiments/AOT/AOT_stimuli/rescaled_final/1759_rv.mp4	0.0	445.1949038505554	
83	409.9812910556793	movie	1		243	81.0	2.5	/experiments/AOT/AOT_stimuli/rescaled_final/1759_rv.mp4	0.0	445.6114158630371	2.499993085861206
83	411.1648151874542	pulse	1	t		81.0	2.5	/experiments/AOT/AOT_stimuli/rescaled_final/1759_rv.mp4	0.0	446.794939994812	
83	412.4812841415405	fix_post	2		12	81.0	2.5	/experiments/AOT/AOT_stimuli/rescaled_final/1759_rv.mp4	0.0	448.1114089488983	0.10001802444458008
84	412.5813021659851	fix_pre	0		120	82.0	2.5	blank	1.0	448.2114269733429	0.9999129772186279
84	412.7646780014038	pulse	0	t		82.0	2.5	blank	1.0	448.3948028087616	
84	413.58121514320374	movie	1		300	82.0	2.5	blank	1.0	449.2113399505615	2.5000219345092773
84	414.3643870353699	pulse	1	t		82.0	2.5	blank	1.0	449.99451184272766	
84	415.96473002433777	pulse	1	t		82.0	2.5	blank	1.0	451.59485483169556	
84	416.081237077713	fix_post	2		12	82.0	2.5	blank	1.0	451.7113618850708	0.10012507438659668
85	416.1813621520996	fix_pre	0		120	83.0	2.5	/experiments/AOT/AOT_stimuli/rescaled_final/1759_fw.mp4	0.0	451.8114869594574	0.9998700618743896
85	417.181232213974	movie	1		246	83.0	2.5	/experiments/AOT/AOT_stimuli/rescaled_final/1759_fw.mp4	0.0	452.8113570213318	2.5000197887420654
85	417.56436109542847	pulse	1	t		83.0	2.5	/experiments/AOT/AOT_stimuli/rescaled_final/1759_fw.mp4	0.0	453.19448590278625	
85	419.1646161079407	pulse	1	t		83.0	2.5	/experiments/AOT/AOT_stimuli/rescaled_final/1759_fw.mp4	0.0	454.79474091529846	
85	419.68125200271606	fix_post	2		12	83.0	2.5	/experiments/AOT/AOT_stimuli/rescaled_final/1759_fw.mp4	0.0	455.31137681007385	0.10000300407409668
87	419.78125500679016	stim	0		1716					455.41137981414795	14.299745082855225
87	420.7647910118103	pulse	0	t						456.3949158191681	
87	422.36462020874023	pulse	0	t						457.994745016098	
87	423.96465611457825	pulse	0	t						459.59478092193604	
87	425.5647051334381	pulse	0	t						461.1948299407959	
87	427.1646420955658	pulse	0	t						462.7947669029236	
87	428.76468300819397	pulse	0	t						464.39480781555176	
87	430.3646070957184	pulse	0	t						465.9947319030762	
87	431.9642012119293	pulse	0	t						467.5943260192871	
87	433.5643811225891	pulse	0	t						469.1945059299469	
