trial_nr	onset	event_type	phase	response	nr_frames	movie_index	movie_duration	movie_file	blank	onset_abs	duration
0	0.14948701858520508	stim	0		30					21.640832901000977	0.2504079341888428
0	0.3919811248779297	response	0	space						21.8833270072937	
1	0.39989495277404785	stim	0		4648					21.89124083518982	38.733134031295776
1	39.126259088516235	pulse	0	t						60.61760497093201	
1	39.133028984069824	stim	1		1717					60.624374866485596	14.307903051376343
1	40.72487807273865	pulse	1	t						62.21622395515442	
1	42.32483410835266	pulse	1	t						63.81617999076843	
1	43.92475891113281	pulse	1	t						65.41610479354858	
1	45.524832010269165	pulse	1	t						67.01617789268494	
1	47.124815940856934	pulse	1	t						68.6161618232727	
1	48.724793910980225	pulse	1	t						70.216139793396	
1	50.324872970581055	pulse	1	t						71.81621885299683	
1	51.92434310913086	pulse	1	t						73.41568899154663	
2	53.44093203544617	fix_pre	0		11	0.0	2.5	/experiments/AOT/AOT_stimuli/rescaled_final/1105_fw.mp4	0.0	74.93227791786194	0.0917060375213623
2	53.52442502975464	pulse	0	t		0.0	2.5	/experiments/AOT/AOT_stimuli/rescaled_final/1105_fw.mp4	0.0	75.01577091217041	
2	53.53263807296753	movie	1		242	0.0	2.5	/experiments/AOT/AOT_stimuli/rescaled_final/1105_fw.mp4	0.0	75.0239839553833	2.508707046508789
2	55.126060962677	pulse	1	t		0.0	2.5	/experiments/AOT/AOT_stimuli/rescaled_final/1105_fw.mp4	0.0	76.61740684509277	
2	56.04134511947632	fix_post	2		12	0.0	2.5	/experiments/AOT/AOT_stimuli/rescaled_final/1105_fw.mp4	0.0	77.53269100189209	0.0999608039855957
3	56.141305923461914	fix_pre	0		120	1.0	2.5	/experiments/AOT/AOT_stimuli/rescaled_final/0327_rv.mp4	0.0	77.63265180587769	0.9999480247497559
3	56.724828004837036	pulse	0	t		1.0	2.5	/experiments/AOT/AOT_stimuli/rescaled_final/0327_rv.mp4	0.0	78.21617388725281	
3	57.14125394821167	movie	1		244	1.0	2.5	/experiments/AOT/AOT_stimuli/rescaled_final/0327_rv.mp4	0.0	78.63259983062744	2.4999101161956787
3	58.32477903366089	pulse	1	t		1.0	2.5	/experiments/AOT/AOT_stimuli/rescaled_final/0327_rv.mp4	0.0	79.81612491607666	
3	59.64116406440735	fix_post	2		12	1.0	2.5	/experiments/AOT/AOT_stimuli/rescaled_final/0327_rv.mp4	0.0	81.13250994682312	0.10009503364562988
4	59.74125909805298	fix_pre	0		120	2.0	2.5	/experiments/AOT/AOT_stimuli/rescaled_final/1369_rv.mp4	0.0	81.23260498046875	0.999985933303833
4	59.924741983413696	pulse	0	t		2.0	2.5	/experiments/AOT/AOT_stimuli/rescaled_final/1369_rv.mp4	0.0	81.41608786582947	
4	60.74124503135681	movie	1		244	2.0	2.5	/experiments/AOT/AOT_stimuli/rescaled_final/1369_rv.mp4	0.0	82.23259091377258	2.500053882598877
4	61.52466106414795	pulse	1	t		2.0	2.5	/experiments/AOT/AOT_stimuli/rescaled_final/1369_rv.mp4	0.0	83.01600694656372	
4	63.125054121017456	pulse	1	t		2.0	2.5	/experiments/AOT/AOT_stimuli/rescaled_final/1369_rv.mp4	0.0	84.61640000343323	
4	63.24129891395569	fix_post	2		12	2.0	2.5	/experiments/AOT/AOT_stimuli/rescaled_final/1369_rv.mp4	0.0	84.73264479637146	0.09993815422058105
5	63.34123706817627	fix_pre	0		120	3.0	2.5	/experiments/AOT/AOT_stimuli/rescaled_final/1350_rv.mp4	0.0	84.83258295059204	0.9999699592590332
5	64.3412070274353	movie	1		247	3.0	2.5	/experiments/AOT/AOT_stimuli/rescaled_final/1350_rv.mp4	0.0	85.83255290985107	2.49959397315979
5	64.72446393966675	pulse	1	t		3.0	2.5	/experiments/AOT/AOT_stimuli/rescaled_final/1350_rv.mp4	0.0	86.21580982208252	
5	66.32467412948608	pulse	1	t		3.0	2.5	/experiments/AOT/AOT_stimuli/rescaled_final/1350_rv.mp4	0.0	87.81602001190186	
5	66.84080100059509	fix_post	2		12	3.0	2.5	/experiments/AOT/AOT_stimuli/rescaled_final/1350_rv.mp4	0.0	88.33214688301086	0.10038590431213379
6	66.94118690490723	fix_pre	0		119	4.0	2.5	/experiments/AOT/AOT_stimuli/rescaled_final/1515_rv.mp4	0.0	88.432532787323	0.9916911125183105
6	67.92470502853394	pulse	0	t		4.0	2.5	/experiments/AOT/AOT_stimuli/rescaled_final/1515_rv.mp4	0.0	89.4160509109497	
6	67.93287801742554	movie	1		245	4.0	2.5	/experiments/AOT/AOT_stimuli/rescaled_final/1515_rv.mp4	0.0	89.42422389984131	2.5080080032348633
6	69.52421307563782	pulse	1	t		4.0	2.5	/experiments/AOT/AOT_stimuli/rescaled_final/1515_rv.mp4	0.0	91.01555895805359	
6	70.4408860206604	fix_post	2		12	4.0	2.5	/experiments/AOT/AOT_stimuli/rescaled_final/1515_rv.mp4	0.0	91.93223190307617	0.09986209869384766
7	70.54074811935425	fix_pre	0		120	5.0	2.5	/experiments/AOT/AOT_stimuli/rescaled_final/0307_rv.mp4	0.0	92.03209400177002	1.0004558563232422
7	71.12469792366028	pulse	0	t		5.0	2.5	/experiments/AOT/AOT_stimuli/rescaled_final/0307_rv.mp4	0.0	92.61604380607605	
7	71.54120397567749	movie	1		244	5.0	2.5	/experiments/AOT/AOT_stimuli/rescaled_final/0307_rv.mp4	0.0	93.03254985809326	2.499964952468872
7	72.72476100921631	pulse	1	t		5.0	2.5	/experiments/AOT/AOT_stimuli/rescaled_final/0307_rv.mp4	0.0	94.21610689163208	
7	74.04116892814636	fix_post	2		12	5.0	2.5	/experiments/AOT/AOT_stimuli/rescaled_final/0307_rv.mp4	0.0	95.53251481056213	0.10003209114074707
8	74.14120101928711	fix_pre	0		120	6.0	2.5	/experiments/AOT/AOT_stimuli/rescaled_final/1891_rv.mp4	0.0	95.63254690170288	1.0000240802764893
8	74.32463312149048	pulse	0	t		6.0	2.5	/experiments/AOT/AOT_stimuli/rescaled_final/1891_rv.mp4	0.0	95.81597900390625	
8	75.1412250995636	movie	1		244	6.0	2.5	/experiments/AOT/AOT_stimuli/rescaled_final/1891_rv.mp4	0.0	96.63257098197937	2.499513864517212
8	75.92462301254272	pulse	1	t		6.0	2.5	/experiments/AOT/AOT_stimuli/rescaled_final/1891_rv.mp4	0.0	97.4159688949585	
8	77.52339100837708	pulse	1	t		6.0	2.5	/experiments/AOT/AOT_stimuli/rescaled_final/1891_rv.mp4	0.0	99.01473689079285	
8	77.64073896408081	fix_post	2		12	6.0	2.5	/experiments/AOT/AOT_stimuli/rescaled_final/1891_rv.mp4	0.0	99.13208484649658	0.10036516189575195
9	77.74110412597656	fix_pre	0		120	7.0	2.5	blank	1.0	99.23245000839233	0.999647855758667
9	78.74075198173523	movie	1		300	7.0	2.5	blank	1.0	100.232097864151	2.500011920928955
9	79.12457609176636	pulse	1	t		7.0	2.5	blank	1.0	100.61592197418213	
9	80.72466993331909	pulse	1	t		7.0	2.5	blank	1.0	102.21601581573486	
9	81.24076390266418	fix_post	2		12	7.0	2.5	blank	1.0	102.73210978507996	0.10042119026184082
10	81.34118509292603	fix_pre	0		119	8.0	2.5	/experiments/AOT/AOT_stimuli/rescaled_final/1815_rv.mp4	0.0	102.8325309753418	0.9916839599609375
10	82.32468700408936	pulse	0	t		8.0	2.5	/experiments/AOT/AOT_stimuli/rescaled_final/1815_rv.mp4	0.0	103.81603288650513	
10	82.33286905288696	movie	1		248	8.0	2.5	/experiments/AOT/AOT_stimuli/rescaled_final/1815_rv.mp4	0.0	103.82421493530273	2.5078890323638916
10	83.92573404312134	pulse	1	t		8.0	2.5	/experiments/AOT/AOT_stimuli/rescaled_final/1815_rv.mp4	0.0	105.41707992553711	
10	84.84075808525085	fix_post	2		12	8.0	2.5	/experiments/AOT/AOT_stimuli/rescaled_final/1815_rv.mp4	0.0	106.33210396766663	0.10035181045532227
11	84.94110989570618	fix_pre	0		120	9.0	2.5	/experiments/AOT/AOT_stimuli/rescaled_final/1687_rv.mp4	0.0	106.43245577812195	1.0000700950622559
11	85.52467608451843	pulse	0	t		9.0	2.5	/experiments/AOT/AOT_stimuli/rescaled_final/1687_rv.mp4	0.0	107.0160219669342	
11	85.94117999076843	movie	1		246	9.0	2.5	/experiments/AOT/AOT_stimuli/rescaled_final/1687_rv.mp4	0.0	107.4325258731842	2.4995241165161133
11	87.12471199035645	pulse	1	t		9.0	2.5	/experiments/AOT/AOT_stimuli/rescaled_final/1687_rv.mp4	0.0	108.61605787277222	
11	88.44070410728455	fix_post	2		12	9.0	2.5	/experiments/AOT/AOT_stimuli/rescaled_final/1687_rv.mp4	0.0	109.93204998970032	0.10032200813293457
12	88.54102611541748	fix_pre	0		120	10.0	2.5	/experiments/AOT/AOT_stimuli/rescaled_final/1289_rv.mp4	0.0	110.03237199783325	1.0001637935638428
12	88.72456812858582	pulse	0	t		10.0	2.5	/experiments/AOT/AOT_stimuli/rescaled_final/1289_rv.mp4	0.0	110.21591401100159	
12	89.54118990898132	movie	1		244	10.0	2.5	/experiments/AOT/AOT_stimuli/rescaled_final/1289_rv.mp4	0.0	111.0325357913971	2.499908208847046
12	90.32462692260742	pulse	1	t		10.0	2.5	/experiments/AOT/AOT_stimuli/rescaled_final/1289_rv.mp4	0.0	111.8159728050232	
12	91.92315602302551	pulse	1	t		10.0	2.5	/experiments/AOT/AOT_stimuli/rescaled_final/1289_rv.mp4	0.0	113.41450190544128	
12	92.04109811782837	fix_post	2		12	10.0	2.5	/experiments/AOT/AOT_stimuli/rescaled_final/1289_rv.mp4	0.0	113.53244400024414	0.10006594657897949
13	92.14116406440735	fix_pre	0		120	11.0	2.5	/experiments/AOT/AOT_stimuli/rescaled_final/2159_rv.mp4	0.0	113.63250994682312	0.9999029636383057
13	93.14106702804565	movie	1		243	11.0	2.5	/experiments/AOT/AOT_stimuli/rescaled_final/2159_rv.mp4	0.0	114.63241291046143	2.499582052230835
13	93.5242509841919	pulse	1	t		11.0	2.5	/experiments/AOT/AOT_stimuli/rescaled_final/2159_rv.mp4	0.0	115.01559686660767	
13	95.12456798553467	pulse	1	t		11.0	2.5	/experiments/AOT/AOT_stimuli/rescaled_final/2159_rv.mp4	0.0	116.61591386795044	
13	95.64064908027649	fix_post	2		12	11.0	2.5	/experiments/AOT/AOT_stimuli/rescaled_final/2159_rv.mp4	0.0	117.13199496269226	0.10042500495910645
14	95.7410740852356	fix_pre	0		119	12.0	2.5	/experiments/AOT/AOT_stimuli/rescaled_final/0606_rv.mp4	0.0	117.23241996765137	0.9916009902954102
14	96.72460699081421	pulse	0	t		12.0	2.5	/experiments/AOT/AOT_stimuli/rescaled_final/0606_rv.mp4	0.0	118.21595287322998	
14	96.732675075531	movie	1		247	12.0	2.5	/experiments/AOT/AOT_stimuli/rescaled_final/0606_rv.mp4	0.0	118.22402095794678	2.508354902267456
14	98.3242769241333	pulse	1	t		12.0	2.5	/experiments/AOT/AOT_stimuli/rescaled_final/0606_rv.mp4	0.0	119.81562280654907	
14	99.24102997779846	fix_post	2		12	12.0	2.5	/experiments/AOT/AOT_stimuli/rescaled_final/0606_rv.mp4	0.0	120.73237586021423	0.10006904602050781
15	99.34109902381897	fix_pre	0		120	13.0	2.5	/experiments/AOT/AOT_stimuli/rescaled_final/0599_fw.mp4	0.0	120.83244490623474	0.9999749660491943
15	99.92462205886841	pulse	0	t		13.0	2.5	/experiments/AOT/AOT_stimuli/rescaled_final/0599_fw.mp4	0.0	121.41596794128418	
15	100.34107398986816	movie	1		243	13.0	2.5	/experiments/AOT/AOT_stimuli/rescaled_final/0599_fw.mp4	0.0	121.83241987228394	2.499526023864746
15	101.52465510368347	pulse	1	t		13.0	2.5	/experiments/AOT/AOT_stimuli/rescaled_final/0599_fw.mp4	0.0	123.01600098609924	
15	102.84060001373291	fix_post	2		12	13.0	2.5	/experiments/AOT/AOT_stimuli/rescaled_final/0599_fw.mp4	0.0	124.33194589614868	0.10046195983886719
16	102.94106197357178	fix_pre	0		120	14.0	2.5	blank	1.0	124.43240785598755	0.9999730587005615
16	103.12460398674011	pulse	0	t		14.0	2.5	blank	1.0	124.61594986915588	
16	103.94103503227234	movie	1		300	14.0	2.5	blank	1.0	125.43238091468811	2.4999918937683105
16	104.7245991230011	pulse	1	t		14.0	2.5	blank	1.0	126.21594500541687	
16	106.32461905479431	pulse	1	t		14.0	2.5	blank	1.0	127.81596493721008	
16	106.44102692604065	fix_post	2		12	14.0	2.5	blank	1.0	127.93237280845642	0.10001015663146973
17	106.54103708267212	fix_pre	0		120	15.0	2.5	/experiments/AOT/AOT_stimuli/rescaled_final/1302_rv.mp4	0.0	128.0323829650879	0.9995229244232178
17	107.54056000709534	movie	1		245	15.0	2.5	/experiments/AOT/AOT_stimuli/rescaled_final/1302_rv.mp4	0.0	129.0319058895111	2.5002830028533936
17	107.92420601844788	pulse	1	t		15.0	2.5	/experiments/AOT/AOT_stimuli/rescaled_final/1302_rv.mp4	0.0	129.41555190086365	
17	109.52457308769226	pulse	1	t		15.0	2.5	/experiments/AOT/AOT_stimuli/rescaled_final/1302_rv.mp4	0.0	131.01591897010803	
17	110.04084300994873	fix_post	2		12	15.0	2.5	/experiments/AOT/AOT_stimuli/rescaled_final/1302_rv.mp4	0.0	131.5321888923645	0.100006103515625
18	110.14084911346436	fix_pre	0		119	16.0	2.5	/experiments/AOT/AOT_stimuli/rescaled_final/1658_fw.mp4	0.0	131.63219499588013	0.9917399883270264
18	111.12485408782959	pulse	0	t		16.0	2.5	/experiments/AOT/AOT_stimuli/rescaled_final/1658_fw.mp4	0.0	132.61619997024536	
18	111.13258910179138	movie	1		245	16.0	2.5	/experiments/AOT/AOT_stimuli/rescaled_final/1658_fw.mp4	0.0	132.62393498420715	2.50799298286438
18	112.72414994239807	pulse	1	t		16.0	2.5	/experiments/AOT/AOT_stimuli/rescaled_final/1658_fw.mp4	0.0	134.21549582481384	
18	113.64058208465576	fix_post	2		12	16.0	2.5	/experiments/AOT/AOT_stimuli/rescaled_final/1658_fw.mp4	0.0	135.13192796707153	0.09997200965881348
19	113.74055409431458	fix_pre	0		120	17.0	2.5	/experiments/AOT/AOT_stimuli/rescaled_final/0205_fw.mp4	0.0	135.23189997673035	1.0004158020019531
19	114.32449293136597	pulse	0	t		17.0	2.5	/experiments/AOT/AOT_stimuli/rescaled_final/0205_fw.mp4	0.0	135.81583881378174	
19	114.74096989631653	movie	1		248	17.0	2.5	/experiments/AOT/AOT_stimuli/rescaled_final/0205_fw.mp4	0.0	136.2323157787323	2.4995980262756348
19	115.92457604408264	pulse	1	t		17.0	2.5	/experiments/AOT/AOT_stimuli/rescaled_final/0205_fw.mp4	0.0	137.4159219264984	
19	117.24056792259216	fix_post	2		12	17.0	2.5	/experiments/AOT/AOT_stimuli/rescaled_final/0205_fw.mp4	0.0	138.73191380500793	0.10034799575805664
20	117.34091591835022	fix_pre	0		120	18.0	2.5	/experiments/AOT/AOT_stimuli/rescaled_final/1798_rv.mp4	0.0	138.832261800766	1.0001029968261719
20	117.52446413040161	pulse	0	t		18.0	2.5	/experiments/AOT/AOT_stimuli/rescaled_final/1798_rv.mp4	0.0	139.01581001281738	
20	118.34101891517639	movie	1		245	18.0	2.5	/experiments/AOT/AOT_stimuli/rescaled_final/1798_rv.mp4	0.0	139.83236479759216	2.4994699954986572
20	119.12444806098938	pulse	1	t		18.0	2.5	/experiments/AOT/AOT_stimuli/rescaled_final/1798_rv.mp4	0.0	140.61579394340515	
20	120.72304391860962	pulse	1	t		18.0	2.5	/experiments/AOT/AOT_stimuli/rescaled_final/1798_rv.mp4	0.0	142.2143898010254	
20	120.84048891067505	fix_post	2		12	18.0	2.5	/experiments/AOT/AOT_stimuli/rescaled_final/1798_rv.mp4	0.0	142.33183479309082	0.10044312477111816
21	120.94093203544617	fix_pre	0		120	19.0	2.5	blank	1.0	142.43227791786194	0.9999818801879883
21	121.94091391563416	movie	1		300	19.0	2.5	blank	1.0	143.43225979804993	2.5000951290130615
21	122.32439708709717	pulse	1	t		19.0	2.5	blank	1.0	143.81574296951294	
21	123.92437410354614	pulse	1	t		19.0	2.5	blank	1.0	145.4157199859619	
21	124.44100904464722	fix_post	2		12	19.0	2.5	blank	1.0	145.932354927063	0.09992098808288574
22	124.5409300327301	fix_pre	0		119	20.0	2.5	/experiments/AOT/AOT_stimuli/rescaled_final/1289_rv.mp4	0.0	146.03227591514587	0.9916200637817383
22	125.52449703216553	pulse	0	t		20.0	2.5	/experiments/AOT/AOT_stimuli/rescaled_final/1289_rv.mp4	0.0	147.0158429145813	
22	125.53255009651184	movie	1		247	20.0	2.5	/experiments/AOT/AOT_stimuli/rescaled_final/1289_rv.mp4	0.0	147.0238959789276	2.50833797454834
22	127.12400794029236	pulse	1	t		20.0	2.5	/experiments/AOT/AOT_stimuli/rescaled_final/1289_rv.mp4	0.0	148.61535382270813	
22	128.04088807106018	fix_post	2		12	20.0	2.5	/experiments/AOT/AOT_stimuli/rescaled_final/1289_rv.mp4	0.0	149.53223395347595	0.10001993179321289
23	128.1409080028534	fix_pre	0		120	21.0	2.5	/experiments/AOT/AOT_stimuli/rescaled_final/1793_fw.mp4	0.0	149.63225388526917	0.9995949268341064
23	128.72441697120667	pulse	0	t		21.0	2.5	/experiments/AOT/AOT_stimuli/rescaled_final/1793_fw.mp4	0.0	150.21576285362244	
23	129.1405029296875	movie	1		248	21.0	2.5	/experiments/AOT/AOT_stimuli/rescaled_final/1793_fw.mp4	0.0	150.63184881210327	2.5003721714019775
23	130.32435011863708	pulse	1	t		21.0	2.5	/experiments/AOT/AOT_stimuli/rescaled_final/1793_fw.mp4	0.0	151.81569600105286	
23	131.64087510108948	fix_post	2		12	21.0	2.5	/experiments/AOT/AOT_stimuli/rescaled_final/1793_fw.mp4	0.0	153.13222098350525	0.09993290901184082
24	131.74080801010132	fix_pre	0		120	22.0	2.5	/experiments/AOT/AOT_stimuli/rescaled_final/1762_fw.mp4	0.0	153.2321538925171	1.000087022781372
24	131.92438006401062	pulse	0	t		22.0	2.5	/experiments/AOT/AOT_stimuli/rescaled_final/1762_fw.mp4	0.0	153.4157259464264	
24	132.7408950328827	movie	1		246	22.0	2.5	/experiments/AOT/AOT_stimuli/rescaled_final/1762_fw.mp4	0.0	154.23224091529846	2.500009059906006
24	133.5244529247284	pulse	1	t		22.0	2.5	/experiments/AOT/AOT_stimuli/rescaled_final/1762_fw.mp4	0.0	155.01579880714417	
24	135.12333512306213	pulse	1	t		22.0	2.5	/experiments/AOT/AOT_stimuli/rescaled_final/1762_fw.mp4	0.0	156.6146810054779	
24	135.2409040927887	fix_post	2		12	22.0	2.5	/experiments/AOT/AOT_stimuli/rescaled_final/1762_fw.mp4	0.0	156.73224997520447	0.09998893737792969
25	135.34089303016663	fix_pre	0		120	23.0	2.5	/experiments/AOT/AOT_stimuli/rescaled_final/0844_rv.mp4	0.0	156.8322389125824	0.9999349117279053
25	136.34082794189453	movie	1		247	23.0	2.5	/experiments/AOT/AOT_stimuli/rescaled_final/0844_rv.mp4	0.0	157.8321738243103	2.5000619888305664
25	136.7239429950714	pulse	1	t		23.0	2.5	/experiments/AOT/AOT_stimuli/rescaled_final/0844_rv.mp4	0.0	158.21528887748718	
25	138.32429003715515	pulse	1	t		23.0	2.5	/experiments/AOT/AOT_stimuli/rescaled_final/0844_rv.mp4	0.0	159.81563591957092	
25	138.8408899307251	fix_post	2		12	23.0	2.5	/experiments/AOT/AOT_stimuli/rescaled_final/0844_rv.mp4	0.0	160.33223581314087	0.09997010231018066
26	138.94086003303528	fix_pre	0		119	24.0	2.5	/experiments/AOT/AOT_stimuli/rescaled_final/1506_rv.mp4	0.0	160.43220591545105	0.99161696434021
26	139.92437505722046	pulse	0	t		24.0	2.5	/experiments/AOT/AOT_stimuli/rescaled_final/1506_rv.mp4	0.0	161.41572093963623	
26	139.9324769973755	movie	1		245	24.0	2.5	/experiments/AOT/AOT_stimuli/rescaled_final/1506_rv.mp4	0.0	161.42382287979126	2.5083060264587402
26	141.52561807632446	pulse	1	t		24.0	2.5	/experiments/AOT/AOT_stimuli/rescaled_final/1506_rv.mp4	0.0	163.01696395874023	
26	142.44078302383423	fix_post	2		12	24.0	2.5	/experiments/AOT/AOT_stimuli/rescaled_final/1506_rv.mp4	0.0	163.93212890625	0.10004901885986328
27	142.5408320426941	fix_pre	0		120	25.0	2.5	/experiments/AOT/AOT_stimuli/rescaled_final/1363_fw.mp4	0.0	164.03217792510986	1.0000569820404053
27	143.124342918396	pulse	0	t		25.0	2.5	/experiments/AOT/AOT_stimuli/rescaled_final/1363_fw.mp4	0.0	164.61568880081177	
27	143.5408890247345	movie	1		244	25.0	2.5	/experiments/AOT/AOT_stimuli/rescaled_final/1363_fw.mp4	0.0	165.03223490715027	2.4995079040527344
27	144.72439694404602	pulse	1	t		25.0	2.5	/experiments/AOT/AOT_stimuli/rescaled_final/1363_fw.mp4	0.0	166.2157428264618	
27	146.04039692878723	fix_post	2		12	25.0	2.5	/experiments/AOT/AOT_stimuli/rescaled_final/1363_fw.mp4	0.0	167.531742811203	0.10038113594055176
28	146.14077806472778	fix_pre	0		120	26.0	2.5	/experiments/AOT/AOT_stimuli/rescaled_final/0966_fw.mp4	0.0	167.63212394714355	0.9996340274810791
28	146.32435703277588	pulse	0	t		26.0	2.5	/experiments/AOT/AOT_stimuli/rescaled_final/0966_fw.mp4	0.0	167.81570291519165	
28	147.14041209220886	movie	1		244	26.0	2.5	/experiments/AOT/AOT_stimuli/rescaled_final/0966_fw.mp4	0.0	168.63175797462463	2.5000808238983154
28	147.9243199825287	pulse	1	t		26.0	2.5	/experiments/AOT/AOT_stimuli/rescaled_final/0966_fw.mp4	0.0	169.41566586494446	
28	149.52436208724976	pulse	1	t		26.0	2.5	/experiments/AOT/AOT_stimuli/rescaled_final/0966_fw.mp4	0.0	171.01570796966553	
28	149.64049291610718	fix_post	2		12	26.0	2.5	/experiments/AOT/AOT_stimuli/rescaled_final/0966_fw.mp4	0.0	171.13183879852295	0.10033917427062988
29	149.7408320903778	fix_pre	0		120	27.0	2.5	/experiments/AOT/AOT_stimuli/rescaled_final/0411_rv.mp4	0.0	171.23217797279358	0.9999539852142334
29	150.74078607559204	movie	1		244	27.0	2.5	/experiments/AOT/AOT_stimuli/rescaled_final/0411_rv.mp4	0.0	172.2321319580078	2.5000269412994385
29	151.1254699230194	pulse	1	t		27.0	2.5	/experiments/AOT/AOT_stimuli/rescaled_final/0411_rv.mp4	0.0	172.61681580543518	
29	152.7243049144745	pulse	1	t		27.0	2.5	/experiments/AOT/AOT_stimuli/rescaled_final/0411_rv.mp4	0.0	174.21565079689026	
29	153.24081301689148	fix_post	2		12	27.0	2.5	/experiments/AOT/AOT_stimuli/rescaled_final/0411_rv.mp4	0.0	174.73215889930725	0.09995603561401367
30	153.3407690525055	fix_pre	0		119	28.0	2.5	blank	1.0	174.83211493492126	0.9916520118713379
30	154.32421898841858	pulse	0	t		28.0	2.5	blank	1.0	175.81556487083435	
30	154.33242106437683	movie	1		301	28.0	2.5	blank	1.0	175.8237669467926	2.508410930633545
30	155.9242639541626	pulse	1	t		28.0	2.5	blank	1.0	177.41560983657837	
30	156.84083199501038	fix_post	2		12	28.0	2.5	blank	1.0	178.33217787742615	0.0998530387878418
31	156.94068503379822	fix_pre	0		120	29.0	2.5	/experiments/AOT/AOT_stimuli/rescaled_final/1961_fw.mp4	0.0	178.432030916214	0.9997789859771729
31	157.52424693107605	pulse	0	t		29.0	2.5	/experiments/AOT/AOT_stimuli/rescaled_final/1961_fw.mp4	0.0	179.01559281349182	
31	157.9404640197754	movie	1		245	29.0	2.5	/experiments/AOT/AOT_stimuli/rescaled_final/1961_fw.mp4	0.0	179.43180990219116	2.5002660751342773
31	159.12432599067688	pulse	1	t		29.0	2.5	/experiments/AOT/AOT_stimuli/rescaled_final/1961_fw.mp4	0.0	180.61567187309265	
31	160.44073009490967	fix_post	2		12	29.0	2.5	/experiments/AOT/AOT_stimuli/rescaled_final/1961_fw.mp4	0.0	181.93207597732544	0.10002994537353516
32	160.5407600402832	fix_pre	0		120	30.0	2.5	/experiments/AOT/AOT_stimuli/rescaled_final/0958_rv.mp4	0.0	182.03210592269897	0.9999580383300781
32	160.72430801391602	pulse	0	t		30.0	2.5	/experiments/AOT/AOT_stimuli/rescaled_final/0958_rv.mp4	0.0	182.2156538963318	
32	161.54071807861328	movie	1		247	30.0	2.5	/experiments/AOT/AOT_stimuli/rescaled_final/0958_rv.mp4	0.0	183.03206396102905	2.5000720024108887
32	162.32433104515076	pulse	1	t		30.0	2.5	/experiments/AOT/AOT_stimuli/rescaled_final/0958_rv.mp4	0.0	183.81567692756653	
32	163.92382407188416	pulse	1	t		30.0	2.5	/experiments/AOT/AOT_stimuli/rescaled_final/0958_rv.mp4	0.0	185.41516995429993	
32	164.04079008102417	fix_post	2		12	30.0	2.5	/experiments/AOT/AOT_stimuli/rescaled_final/0958_rv.mp4	0.0	185.53213596343994	0.0999758243560791
33	164.14076590538025	fix_pre	0		120	31.0	2.5	/experiments/AOT/AOT_stimuli/rescaled_final/0970_rv.mp4	0.0	185.63211178779602	1.0000481605529785
33	165.14081406593323	movie	1		245	31.0	2.5	/experiments/AOT/AOT_stimuli/rescaled_final/0970_rv.mp4	0.0	186.632159948349	2.499903917312622
33	165.52342796325684	pulse	1	t		31.0	2.5	/experiments/AOT/AOT_stimuli/rescaled_final/0970_rv.mp4	0.0	187.0147738456726	
33	167.12411999702454	pulse	1	t		31.0	2.5	/experiments/AOT/AOT_stimuli/rescaled_final/0970_rv.mp4	0.0	188.6154658794403	
33	167.64071798324585	fix_post	2		12	31.0	2.5	/experiments/AOT/AOT_stimuli/rescaled_final/0970_rv.mp4	0.0	189.13206386566162	0.1001129150390625
34	167.7408308982849	fix_pre	0		119	32.0	2.5	/experiments/AOT/AOT_stimuli/rescaled_final/0061_fw.mp4	0.0	189.23217678070068	0.9915881156921387
34	168.72417402267456	pulse	0	t		32.0	2.5	/experiments/AOT/AOT_stimuli/rescaled_final/0061_fw.mp4	0.0	190.21551990509033	
34	168.73241901397705	movie	1		245	32.0	2.5	/experiments/AOT/AOT_stimuli/rescaled_final/0061_fw.mp4	0.0	190.22376489639282	2.508281946182251
34	170.32548308372498	pulse	1	t		32.0	2.5	/experiments/AOT/AOT_stimuli/rescaled_final/0061_fw.mp4	0.0	191.81682896614075	
34	171.2407009601593	fix_post	2		12	32.0	2.5	/experiments/AOT/AOT_stimuli/rescaled_final/0061_fw.mp4	0.0	192.73204684257507	0.10004401206970215
35	171.340744972229	fix_pre	0		120	33.0	2.5	blank	1.0	192.83209085464478	0.9996380805969238
35	171.9253990650177	pulse	0	t		33.0	2.5	blank	1.0	193.41674494743347	
35	172.34038305282593	movie	1		300	33.0	2.5	blank	1.0	193.8317289352417	2.500277042388916
35	173.52414202690125	pulse	1	t		33.0	2.5	blank	1.0	195.01548790931702	
35	174.84066009521484	fix_post	2		12	33.0	2.5	blank	1.0	196.33200597763062	0.10001683235168457
36	174.94067692756653	fix_pre	0		120	34.0	2.5	/experiments/AOT/AOT_stimuli/rescaled_final/0317_fw.mp4	0.0	196.4320228099823	1.0000641345977783
36	175.12409591674805	pulse	0	t		34.0	2.5	/experiments/AOT/AOT_stimuli/rescaled_final/0317_fw.mp4	0.0	196.61544179916382	
36	175.9407410621643	movie	1		245	34.0	2.5	/experiments/AOT/AOT_stimuli/rescaled_final/0317_fw.mp4	0.0	197.43208694458008	2.4994850158691406
36	176.72404313087463	pulse	1	t		34.0	2.5	/experiments/AOT/AOT_stimuli/rescaled_final/0317_fw.mp4	0.0	198.2153890132904	
36	178.32410597801208	pulse	1	t		34.0	2.5	/experiments/AOT/AOT_stimuli/rescaled_final/0317_fw.mp4	0.0	199.81545186042786	
36	178.44022607803345	fix_post	2		12	34.0	2.5	/experiments/AOT/AOT_stimuli/rescaled_final/0317_fw.mp4	0.0	199.93157196044922	0.10045099258422852
37	178.54067707061768	fix_pre	0		120	35.0	2.5	/experiments/AOT/AOT_stimuli/rescaled_final/1515_rv.mp4	0.0	200.03202295303345	0.9999778270721436
37	179.54065489768982	movie	1		245	35.0	2.5	/experiments/AOT/AOT_stimuli/rescaled_final/1515_rv.mp4	0.0	201.0320007801056	2.499605178833008
37	179.9238839149475	pulse	1	t		35.0	2.5	/experiments/AOT/AOT_stimuli/rescaled_final/1515_rv.mp4	0.0	201.41522979736328	
37	181.52408289909363	pulse	1	t		35.0	2.5	/experiments/AOT/AOT_stimuli/rescaled_final/1515_rv.mp4	0.0	203.0154287815094	
37	182.04026007652283	fix_post	2		12	35.0	2.5	/experiments/AOT/AOT_stimuli/rescaled_final/1515_rv.mp4	0.0	203.5316059589386	0.10033082962036133
38	182.1405909061432	fix_pre	0		119	36.0	2.5	/experiments/AOT/AOT_stimuli/rescaled_final/1430_rv.mp4	0.0	203.63193678855896	0.9916961193084717
38	183.12410807609558	pulse	0	t		36.0	2.5	/experiments/AOT/AOT_stimuli/rescaled_final/1430_rv.mp4	0.0	204.61545395851135	
38	183.13228702545166	movie	1		247	36.0	2.5	/experiments/AOT/AOT_stimuli/rescaled_final/1430_rv.mp4	0.0	204.62363290786743	2.507956027984619
38	184.72370600700378	pulse	1	t		36.0	2.5	/experiments/AOT/AOT_stimuli/rescaled_final/1430_rv.mp4	0.0	206.21505188941956	
38	185.64024305343628	fix_post	2		12	36.0	2.5	/experiments/AOT/AOT_stimuli/rescaled_final/1430_rv.mp4	0.0	207.13158893585205	0.10039901733398438
39	185.74064207077026	fix_pre	0		120	37.0	2.5	/experiments/AOT/AOT_stimuli/rescaled_final/1824_rv.mp4	0.0	207.23198795318604	0.9999208450317383
39	186.3240909576416	pulse	0	t		37.0	2.5	/experiments/AOT/AOT_stimuli/rescaled_final/1824_rv.mp4	0.0	207.81543684005737	
39	186.740562915802	movie	1		245	37.0	2.5	/experiments/AOT/AOT_stimuli/rescaled_final/1824_rv.mp4	0.0	208.23190879821777	2.5000951290130615
39	187.92414903640747	pulse	1	t		37.0	2.5	/experiments/AOT/AOT_stimuli/rescaled_final/1824_rv.mp4	0.0	209.41549491882324	
39	189.24065804481506	fix_post	2		12	37.0	2.5	/experiments/AOT/AOT_stimuli/rescaled_final/1824_rv.mp4	0.0	210.73200392723083	0.09991788864135742
40	189.34057593345642	fix_pre	0		120	38.0	2.5	/experiments/AOT/AOT_stimuli/rescaled_final/1902_rv.mp4	0.0	210.8319218158722	0.9996500015258789
40	189.52399396896362	pulse	0	t		38.0	2.5	/experiments/AOT/AOT_stimuli/rescaled_final/1902_rv.mp4	0.0	211.0153398513794	
40	190.3402259349823	movie	1		245	38.0	2.5	/experiments/AOT/AOT_stimuli/rescaled_final/1902_rv.mp4	0.0	211.83157181739807	2.5004329681396484
40	191.12404990196228	pulse	1	t		38.0	2.5	/experiments/AOT/AOT_stimuli/rescaled_final/1902_rv.mp4	0.0	212.61539578437805	
40	192.7241199016571	pulse	1	t		38.0	2.5	/experiments/AOT/AOT_stimuli/rescaled_final/1902_rv.mp4	0.0	214.21546578407288	
40	192.84065890312195	fix_post	2		12	38.0	2.5	/experiments/AOT/AOT_stimuli/rescaled_final/1902_rv.mp4	0.0	214.33200478553772	0.09994816780090332
41	192.94060707092285	fix_pre	0		120	39.0	2.5	/experiments/AOT/AOT_stimuli/rescaled_final/1256_rv.mp4	0.0	214.43195295333862	1.000046968460083
41	193.94065403938293	movie	1		246	39.0	2.5	/experiments/AOT/AOT_stimuli/rescaled_final/1256_rv.mp4	0.0	215.4319999217987	2.499863862991333
41	194.3238821029663	pulse	1	t		39.0	2.5	/experiments/AOT/AOT_stimuli/rescaled_final/1256_rv.mp4	0.0	215.81522798538208	
41	195.92407202720642	pulse	1	t		39.0	2.5	/experiments/AOT/AOT_stimuli/rescaled_final/1256_rv.mp4	0.0	217.4154179096222	
41	196.44051790237427	fix_post	2		12	39.0	2.5	/experiments/AOT/AOT_stimuli/rescaled_final/1256_rv.mp4	0.0	217.93186378479004	0.10003113746643066
42	196.5405490398407	fix_pre	0		119	40.0	2.5	/experiments/AOT/AOT_stimuli/rescaled_final/0117_rv.mp4	0.0	218.03189492225647	0.9916439056396484
42	197.52403903007507	pulse	0	t		40.0	2.5	/experiments/AOT/AOT_stimuli/rescaled_final/0117_rv.mp4	0.0	219.01538491249084	
42	197.53219294548035	movie	1		246	40.0	2.5	/experiments/AOT/AOT_stimuli/rescaled_final/0117_rv.mp4	0.0	219.02353882789612	2.5083301067352295
42	199.12364411354065	pulse	1	t		40.0	2.5	/experiments/AOT/AOT_stimuli/rescaled_final/0117_rv.mp4	0.0	220.61498999595642	
42	200.04052305221558	fix_post	2		12	40.0	2.5	/experiments/AOT/AOT_stimuli/rescaled_final/0117_rv.mp4	0.0	221.53186893463135	0.10004496574401855
43	200.1405680179596	fix_pre	0		120	41.0	2.5	blank	1.0	221.63191390037537	1.0000920295715332
43	200.7240469455719	pulse	0	t		41.0	2.5	blank	1.0	222.21539282798767	
43	201.14066004753113	movie	1		300	41.0	2.5	blank	1.0	222.6320059299469	2.499985933303833
43	202.32402992248535	pulse	1	t		41.0	2.5	blank	1.0	223.81537580490112	
43	203.64064598083496	fix_post	2		12	41.0	2.5	blank	1.0	225.13199186325073	0.09992504119873047
44	203.7405710220337	fix_pre	0		120	42.0	2.5	/experiments/AOT/AOT_stimuli/rescaled_final/0205_rv.mp4	0.0	225.23191690444946	0.9999780654907227
44	203.92404007911682	pulse	0	t		42.0	2.5	/experiments/AOT/AOT_stimuli/rescaled_final/0205_rv.mp4	0.0	225.4153859615326	
44	204.7405490875244	movie	1		245	42.0	2.5	/experiments/AOT/AOT_stimuli/rescaled_final/0205_rv.mp4	0.0	226.23189496994019	2.499941825866699
44	205.52405500411987	pulse	1	t		42.0	2.5	/experiments/AOT/AOT_stimuli/rescaled_final/0205_rv.mp4	0.0	227.01540088653564	
44	207.12358212471008	pulse	1	t		42.0	2.5	/experiments/AOT/AOT_stimuli/rescaled_final/0205_rv.mp4	0.0	228.61492800712585	
44	207.2404909133911	fix_post	2		12	42.0	2.5	/experiments/AOT/AOT_stimuli/rescaled_final/0205_rv.mp4	0.0	228.73183679580688	0.10000205039978027
45	207.3404929637909	fix_pre	0		120	43.0	2.5	/experiments/AOT/AOT_stimuli/rescaled_final/0946_fw.mp4	0.0	228.83183884620667	1.0000510215759277
45	208.34054398536682	movie	1		244	43.0	2.5	/experiments/AOT/AOT_stimuli/rescaled_final/0946_fw.mp4	0.0	229.8318898677826	2.4996049404144287
45	208.72366404533386	pulse	1	t		43.0	2.5	/experiments/AOT/AOT_stimuli/rescaled_final/0946_fw.mp4	0.0	230.21500992774963	
45	210.3239459991455	pulse	1	t		43.0	2.5	/experiments/AOT/AOT_stimuli/rescaled_final/0946_fw.mp4	0.0	231.81529188156128	
45	210.84014892578125	fix_post	2		12	43.0	2.5	/experiments/AOT/AOT_stimuli/rescaled_final/0946_fw.mp4	0.0	232.33149480819702	0.10042619705200195
46	210.94057512283325	fix_pre	0		119	44.0	2.5	/experiments/AOT/AOT_stimuli/rescaled_final/0542_rv.mp4	0.0	232.43192100524902	0.9915599822998047
46	211.92403411865234	pulse	0	t		44.0	2.5	/experiments/AOT/AOT_stimuli/rescaled_final/0542_rv.mp4	0.0	233.41538000106812	
46	211.93213510513306	movie	1		248	44.0	2.5	/experiments/AOT/AOT_stimuli/rescaled_final/0542_rv.mp4	0.0	233.42348098754883	2.5084569454193115
46	213.5241858959198	pulse	1	t		44.0	2.5	/experiments/AOT/AOT_stimuli/rescaled_final/0542_rv.mp4	0.0	235.01553177833557	
46	214.44059205055237	fix_post	2		12	44.0	2.5	/experiments/AOT/AOT_stimuli/rescaled_final/0542_rv.mp4	0.0	235.93193793296814	0.09995603561401367
47	214.54054808616638	fix_pre	0		120	45.0	2.5	/experiments/AOT/AOT_stimuli/rescaled_final/1313_rv.mp4	0.0	236.03189396858215	0.9999890327453613
47	215.1240050792694	pulse	0	t		45.0	2.5	/experiments/AOT/AOT_stimuli/rescaled_final/1313_rv.mp4	0.0	236.61535096168518	
47	215.54053711891174	movie	1		243	45.0	2.5	/experiments/AOT/AOT_stimuli/rescaled_final/1313_rv.mp4	0.0	237.03188300132751	2.499987840652466
47	216.7240869998932	pulse	1	t		45.0	2.5	/experiments/AOT/AOT_stimuli/rescaled_final/1313_rv.mp4	0.0	238.21543288230896	
47	218.0405249595642	fix_post	2		12	45.0	2.5	/experiments/AOT/AOT_stimuli/rescaled_final/1313_rv.mp4	0.0	239.53187084197998	0.0999600887298584
48	218.14048504829407	fix_pre	0		120	46.0	2.5	/experiments/AOT/AOT_stimuli/rescaled_final/0297_rv.mp4	0.0	239.63183093070984	0.9995689392089844
48	218.3239450454712	pulse	0	t		46.0	2.5	/experiments/AOT/AOT_stimuli/rescaled_final/0297_rv.mp4	0.0	239.81529092788696	
48	219.14005398750305	movie	1		246	46.0	2.5	/experiments/AOT/AOT_stimuli/rescaled_final/0297_rv.mp4	0.0	240.63139986991882	2.5002059936523438
48	219.92392802238464	pulse	1	t		46.0	2.5	/experiments/AOT/AOT_stimuli/rescaled_final/0297_rv.mp4	0.0	241.41527390480042	
48	221.52224707603455	pulse	1	t		46.0	2.5	/experiments/AOT/AOT_stimuli/rescaled_final/0297_rv.mp4	0.0	243.01359295845032	
48	221.6402599811554	fix_post	2		12	46.0	2.5	/experiments/AOT/AOT_stimuli/rescaled_final/0297_rv.mp4	0.0	243.13160586357117	0.10044312477111816
49	221.7407031059265	fix_pre	0		120	47.0	2.5	/experiments/AOT/AOT_stimuli/rescaled_final/0117_fw.mp4	0.0	243.23204898834229	1.0001518726348877
49	222.7408549785614	movie	1		245	47.0	2.5	/experiments/AOT/AOT_stimuli/rescaled_final/0117_fw.mp4	0.0	244.23220086097717	2.4992079734802246
49	223.12364292144775	pulse	1	t		47.0	2.5	/experiments/AOT/AOT_stimuli/rescaled_final/0117_fw.mp4	0.0	244.61498880386353	
49	224.72387599945068	pulse	1	t		47.0	2.5	/experiments/AOT/AOT_stimuli/rescaled_final/0117_fw.mp4	0.0	246.21522188186646	
49	225.24006295204163	fix_post	2		12	47.0	2.5	/experiments/AOT/AOT_stimuli/rescaled_final/0117_fw.mp4	0.0	246.7314088344574	0.10041594505310059
50	225.34047889709473	fix_pre	0		119	48.0	2.5	blank	1.0	246.8318247795105	0.9916300773620605
50	226.32401394844055	pulse	0	t		48.0	2.5	blank	1.0	247.81535983085632	
50	226.3321089744568	movie	1		301	48.0	2.5	blank	1.0	247.82345485687256	2.5082759857177734
50	227.92383694648743	pulse	1	t		48.0	2.5	blank	1.0	249.4151828289032	
50	228.84038496017456	fix_post	2		12	48.0	2.5	blank	1.0	250.33173084259033	0.0999901294708252
51	228.94037508964539	fix_pre	0		120	49.0	2.5	/experiments/AOT/AOT_stimuli/rescaled_final/1400_fw.mp4	0.0	250.43172097206116	1.0000410079956055
51	229.52394795417786	pulse	0	t		49.0	2.5	/experiments/AOT/AOT_stimuli/rescaled_final/1400_fw.mp4	0.0	251.01529383659363	
51	229.940416097641	movie	1		245	49.0	2.5	/experiments/AOT/AOT_stimuli/rescaled_final/1400_fw.mp4	0.0	251.43176198005676	2.499979019165039
51	231.12388706207275	pulse	1	t		49.0	2.5	/experiments/AOT/AOT_stimuli/rescaled_final/1400_fw.mp4	0.0	252.61523294448853	
51	232.44039511680603	fix_post	2		12	49.0	2.5	/experiments/AOT/AOT_stimuli/rescaled_final/1400_fw.mp4	0.0	253.9317409992218	0.10008478164672852
52	232.54047989845276	fix_pre	0		120	50.0	2.5	/experiments/AOT/AOT_stimuli/rescaled_final/0958_fw.mp4	0.0	254.03182578086853	0.9995260238647461
52	232.72391295433044	pulse	0	t		50.0	2.5	/experiments/AOT/AOT_stimuli/rescaled_final/0958_fw.mp4	0.0	254.21525883674622	
52	233.5400059223175	movie	1		243	50.0	2.5	/experiments/AOT/AOT_stimuli/rescaled_final/0958_fw.mp4	0.0	255.03135180473328	2.5004830360412598
52	234.3238251209259	pulse	1	t		50.0	2.5	/experiments/AOT/AOT_stimuli/rescaled_final/0958_fw.mp4	0.0	255.81517100334167	
52	235.92231512069702	pulse	1	t		50.0	2.5	/experiments/AOT/AOT_stimuli/rescaled_final/0958_fw.mp4	0.0	257.4136610031128	
52	236.04048895835876	fix_post	2		12	50.0	2.5	/experiments/AOT/AOT_stimuli/rescaled_final/0958_fw.mp4	0.0	257.53183484077454	0.09990215301513672
53	236.1403911113739	fix_pre	0		120	51.0	2.5	/experiments/AOT/AOT_stimuli/rescaled_final/1741_rv.mp4	0.0	257.6317369937897	0.9996299743652344
53	237.14002108573914	movie	1		243	51.0	2.5	/experiments/AOT/AOT_stimuli/rescaled_final/1741_rv.mp4	0.0	258.6313669681549	2.500319004058838
53	237.5235240459442	pulse	1	t		51.0	2.5	/experiments/AOT/AOT_stimuli/rescaled_final/1741_rv.mp4	0.0	259.01486992836	
53	239.12381410598755	pulse	1	t		51.0	2.5	/experiments/AOT/AOT_stimuli/rescaled_final/1741_rv.mp4	0.0	260.6151599884033	
53	239.64034008979797	fix_post	2		12	51.0	2.5	/experiments/AOT/AOT_stimuli/rescaled_final/1741_rv.mp4	0.0	261.13168597221375	0.0996248722076416
54	239.73996496200562	fix_pre	0		119	52.0	2.5	/experiments/AOT/AOT_stimuli/rescaled_final/1961_rv.mp4	0.0	261.2313108444214	0.9920661449432373
54	240.7239110469818	pulse	0	t		52.0	2.5	/experiments/AOT/AOT_stimuli/rescaled_final/1961_rv.mp4	0.0	262.2152569293976	
54	240.73203110694885	movie	1		246	52.0	2.5	/experiments/AOT/AOT_stimuli/rescaled_final/1961_rv.mp4	0.0	262.2233769893646	2.5083189010620117
54	242.32363891601562	pulse	1	t		52.0	2.5	/experiments/AOT/AOT_stimuli/rescaled_final/1961_rv.mp4	0.0	263.8149847984314	
54	243.24035000801086	fix_post	2		12	52.0	2.5	/experiments/AOT/AOT_stimuli/rescaled_final/1961_rv.mp4	0.0	264.73169589042664	0.09998393058776855
55	243.34033393859863	fix_pre	0		120	53.0	2.5	/experiments/AOT/AOT_stimuli/rescaled_final/1247_fw.mp4	0.0	264.8316798210144	1.0000200271606445
55	243.9237790107727	pulse	0	t		53.0	2.5	/experiments/AOT/AOT_stimuli/rescaled_final/1247_fw.mp4	0.0	265.4151248931885	
55	244.34035396575928	movie	1		244	53.0	2.5	/experiments/AOT/AOT_stimuli/rescaled_final/1247_fw.mp4	0.0	265.83169984817505	2.499572992324829
55	245.523854970932	pulse	1	t		53.0	2.5	/experiments/AOT/AOT_stimuli/rescaled_final/1247_fw.mp4	0.0	267.0152008533478	
55	246.8399269580841	fix_post	2		12	53.0	2.5	/experiments/AOT/AOT_stimuli/rescaled_final/1247_fw.mp4	0.0	268.3312728404999	0.10043215751647949
56	246.9403591156006	fix_pre	0		120	54.0	2.5	/experiments/AOT/AOT_stimuli/rescaled_final/0599_fw.mp4	0.0	268.43170499801636	0.999945878982544
56	247.12375497817993	pulse	0	t		54.0	2.5	/experiments/AOT/AOT_stimuli/rescaled_final/0599_fw.mp4	0.0	268.6151008605957	
56	247.94030499458313	movie	1		244	54.0	2.5	/experiments/AOT/AOT_stimuli/rescaled_final/0599_fw.mp4	0.0	269.4316508769989	2.5000009536743164
56	248.7238519191742	pulse	1	t		54.0	2.5	/experiments/AOT/AOT_stimuli/rescaled_final/0599_fw.mp4	0.0	270.21519780158997	
56	250.32227110862732	pulse	1	t		54.0	2.5	/experiments/AOT/AOT_stimuli/rescaled_final/0599_fw.mp4	0.0	271.8136169910431	
56	250.44030594825745	fix_post	2		12	54.0	2.5	/experiments/AOT/AOT_stimuli/rescaled_final/0599_fw.mp4	0.0	271.9316518306732	0.09998106956481934
57	250.54028701782227	fix_pre	0		120	55.0	2.5	blank	1.0	272.03163290023804	0.9999880790710449
57	251.5402750968933	movie	1		300	55.0	2.5	blank	1.0	273.0316209793091	2.5001378059387207
57	251.92382907867432	pulse	1	t		55.0	2.5	blank	1.0	273.4151749610901	
57	253.5237579345703	pulse	1	t		55.0	2.5	blank	1.0	275.0151038169861	
57	254.04041290283203	fix_post	2		12	55.0	2.5	blank	1.0	275.5317587852478	0.09995412826538086
58	254.1403670310974	fix_pre	0		119	56.0	2.5	/experiments/AOT/AOT_stimuli/rescaled_final/2006_fw.mp4	0.0	275.6317129135132	0.9915640354156494
58	255.1236810684204	pulse	0	t		56.0	2.5	/experiments/AOT/AOT_stimuli/rescaled_final/2006_fw.mp4	0.0	276.6150269508362	
58	255.13193106651306	movie	1		245	56.0	2.5	/experiments/AOT/AOT_stimuli/rescaled_final/2006_fw.mp4	0.0	276.62327694892883	2.508335828781128
58	256.72350907325745	pulse	1	t		56.0	2.5	/experiments/AOT/AOT_stimuli/rescaled_final/2006_fw.mp4	0.0	278.2148549556732	
58	257.6402668952942	fix_post	2		12	56.0	2.5	/experiments/AOT/AOT_stimuli/rescaled_final/2006_fw.mp4	0.0	279.13161277770996	0.10006523132324219
59	257.74033212661743	fix_pre	0		120	57.0	2.5	/experiments/AOT/AOT_stimuli/rescaled_final/0834_rv.mp4	0.0	279.2316780090332	0.9999737739562988
59	258.32375502586365	pulse	0	t		57.0	2.5	/experiments/AOT/AOT_stimuli/rescaled_final/0834_rv.mp4	0.0	279.8151009082794	
59	258.74030590057373	movie	1		243	57.0	2.5	/experiments/AOT/AOT_stimuli/rescaled_final/0834_rv.mp4	0.0	280.2316517829895	2.500105142593384
59	259.9238579273224	pulse	1	t		57.0	2.5	/experiments/AOT/AOT_stimuli/rescaled_final/0834_rv.mp4	0.0	281.41520380973816	
59	261.2404110431671	fix_post	2		12	57.0	2.5	/experiments/AOT/AOT_stimuli/rescaled_final/0834_rv.mp4	0.0	282.7317569255829	0.09996891021728516
60	261.3403799533844	fix_pre	0		120	58.0	2.5	/experiments/AOT/AOT_stimuli/rescaled_final/0364_fw.mp4	0.0	282.83172583580017	0.9998910427093506
60	261.5237889289856	pulse	0	t		58.0	2.5	/experiments/AOT/AOT_stimuli/rescaled_final/0364_fw.mp4	0.0	283.01513481140137	
60	262.34027099609375	movie	1		247	58.0	2.5	/experiments/AOT/AOT_stimuli/rescaled_final/0364_fw.mp4	0.0	283.8316168785095	2.5001890659332275
60	263.12369298934937	pulse	1	t		58.0	2.5	/experiments/AOT/AOT_stimuli/rescaled_final/0364_fw.mp4	0.0	284.61503887176514	
60	264.7237150669098	pulse	1	t		58.0	2.5	/experiments/AOT/AOT_stimuli/rescaled_final/0364_fw.mp4	0.0	286.21506094932556	
60	264.840460062027	fix_post	2		12	58.0	2.5	/experiments/AOT/AOT_stimuli/rescaled_final/0364_fw.mp4	0.0	286.33180594444275	0.09980201721191406
61	264.9402620792389	fix_pre	0		120	59.0	2.5	/experiments/AOT/AOT_stimuli/rescaled_final/0055_fw.mp4	0.0	286.43160796165466	1.0000989437103271
61	265.9403610229492	movie	1		245	59.0	2.5	/experiments/AOT/AOT_stimuli/rescaled_final/0055_fw.mp4	0.0	287.431706905365	2.4994640350341797
61	266.32344007492065	pulse	1	t		59.0	2.5	/experiments/AOT/AOT_stimuli/rescaled_final/0055_fw.mp4	0.0	287.8147859573364	
61	267.923623085022	pulse	1	t		59.0	2.5	/experiments/AOT/AOT_stimuli/rescaled_final/0055_fw.mp4	0.0	289.41496896743774	
61	268.4398250579834	fix_post	2		12	59.0	2.5	/experiments/AOT/AOT_stimuli/rescaled_final/0055_fw.mp4	0.0	289.93117094039917	0.10047292709350586
62	268.5402979850769	fix_pre	0		119	60.0	2.5	/experiments/AOT/AOT_stimuli/rescaled_final/1258_fw.mp4	0.0	290.0316438674927	0.9916200637817383
62	269.52372193336487	pulse	0	t		60.0	2.5	/experiments/AOT/AOT_stimuli/rescaled_final/1258_fw.mp4	0.0	291.01506781578064	
62	269.53191804885864	movie	1		246	60.0	2.5	/experiments/AOT/AOT_stimuli/rescaled_final/1258_fw.mp4	0.0	291.0232639312744	2.507888078689575
62	271.1231219768524	pulse	1	t		60.0	2.5	/experiments/AOT/AOT_stimuli/rescaled_final/1258_fw.mp4	0.0	292.6144678592682	
62	272.0398061275482	fix_post	2		12	60.0	2.5	/experiments/AOT/AOT_stimuli/rescaled_final/1258_fw.mp4	0.0	293.531152009964	0.10009288787841797
63	272.13989901542664	fix_pre	0		120	61.0	2.5	/experiments/AOT/AOT_stimuli/rescaled_final/0742_rv.mp4	0.0	293.6312448978424	0.9999148845672607
63	272.72362899780273	pulse	0	t		61.0	2.5	/experiments/AOT/AOT_stimuli/rescaled_final/0742_rv.mp4	0.0	294.2149748802185	
63	273.1398138999939	movie	1		244	61.0	2.5	/experiments/AOT/AOT_stimuli/rescaled_final/0742_rv.mp4	0.0	294.63115978240967	2.499997138977051
63	274.32371401786804	pulse	1	t		61.0	2.5	/experiments/AOT/AOT_stimuli/rescaled_final/0742_rv.mp4	0.0	295.8150599002838	
63	275.63981103897095	fix_post	2		12	61.0	2.5	/experiments/AOT/AOT_stimuli/rescaled_final/0742_rv.mp4	0.0	297.1311569213867	0.10007190704345703
64	275.7398829460144	fix_pre	0		120	62.0	2.5	blank	1.0	297.2312288284302	1.0003621578216553
64	275.9232680797577	pulse	0	t		62.0	2.5	blank	1.0	297.41461396217346	
64	276.74024510383606	movie	1		300	62.0	2.5	blank	1.0	298.23159098625183	2.5000150203704834
64	277.52385807037354	pulse	1	t		62.0	2.5	blank	1.0	299.0152039527893	
64	279.1236710548401	pulse	1	t		62.0	2.5	blank	1.0	300.61501693725586	
64	279.24026012420654	fix_post	2		12	62.0	2.5	blank	1.0	300.7316060066223	0.0999457836151123
65	279.34020590782166	fix_pre	0		120	63.0	2.5	/experiments/AOT/AOT_stimuli/rescaled_final/1368_rv.mp4	0.0	300.8315517902374	1.0001111030578613
65	280.3403170108795	movie	1		243	63.0	2.5	/experiments/AOT/AOT_stimuli/rescaled_final/1368_rv.mp4	0.0	301.8316628932953	2.499911069869995
65	280.72314190864563	pulse	1	t		63.0	2.5	/experiments/AOT/AOT_stimuli/rescaled_final/1368_rv.mp4	0.0	302.2144877910614	
65	282.3236310482025	pulse	1	t		63.0	2.5	/experiments/AOT/AOT_stimuli/rescaled_final/1368_rv.mp4	0.0	303.8149769306183	
65	282.8402280807495	fix_post	2		12	63.0	2.5	/experiments/AOT/AOT_stimuli/rescaled_final/1368_rv.mp4	0.0	304.3315739631653	0.09957003593444824
66	282.93979811668396	fix_pre	0		119	64.0	2.5	/experiments/AOT/AOT_stimuli/rescaled_final/1603_fw.mp4	0.0	304.43114399909973	0.9920330047607422
66	283.92355608940125	pulse	0	t		64.0	2.5	/experiments/AOT/AOT_stimuli/rescaled_final/1603_fw.mp4	0.0	305.414901971817	
66	283.9318311214447	movie	1		246	64.0	2.5	/experiments/AOT/AOT_stimuli/rescaled_final/1603_fw.mp4	0.0	305.4231770038605	2.508401870727539
66	285.5231420993805	pulse	1	t		64.0	2.5	/experiments/AOT/AOT_stimuli/rescaled_final/1603_fw.mp4	0.0	307.01448798179626	
66	286.44023299217224	fix_post	2		12	64.0	2.5	/experiments/AOT/AOT_stimuli/rescaled_final/1603_fw.mp4	0.0	307.931578874588	0.09990906715393066
67	286.5401420593262	fix_pre	0		120	65.0	2.5	/experiments/AOT/AOT_stimuli/rescaled_final/0062_fw.mp4	0.0	308.03148794174194	0.9995758533477783
67	287.12358808517456	pulse	0	t		65.0	2.5	/experiments/AOT/AOT_stimuli/rescaled_final/0062_fw.mp4	0.0	308.61493396759033	
67	287.53971791267395	movie	1		246	65.0	2.5	/experiments/AOT/AOT_stimuli/rescaled_final/0062_fw.mp4	0.0	309.0310637950897	2.5004401206970215
67	288.72367906570435	pulse	1	t		65.0	2.5	/experiments/AOT/AOT_stimuli/rescaled_final/0062_fw.mp4	0.0	310.2150249481201	
67	290.040158033371	fix_post	2		12	65.0	2.5	/experiments/AOT/AOT_stimuli/rescaled_final/0062_fw.mp4	0.0	311.53150391578674	0.09996509552001953
68	290.140123128891	fix_pre	0		120	66.0	2.5	/experiments/AOT/AOT_stimuli/rescaled_final/1281_rv.mp4	0.0	311.63146901130676	1.0000629425048828
68	290.323548078537	pulse	0	t		66.0	2.5	/experiments/AOT/AOT_stimuli/rescaled_final/1281_rv.mp4	0.0	311.81489396095276	
68	291.1401860713959	movie	1		246	66.0	2.5	/experiments/AOT/AOT_stimuli/rescaled_final/1281_rv.mp4	0.0	312.63153195381165	2.499851942062378
68	291.92354106903076	pulse	1	t		66.0	2.5	/experiments/AOT/AOT_stimuli/rescaled_final/1281_rv.mp4	0.0	313.41488695144653	
68	293.5237069129944	pulse	1	t		66.0	2.5	/experiments/AOT/AOT_stimuli/rescaled_final/1281_rv.mp4	0.0	315.01505279541016	
68	293.64003801345825	fix_post	2		12	66.0	2.5	/experiments/AOT/AOT_stimuli/rescaled_final/1281_rv.mp4	0.0	315.131383895874	0.09963798522949219
69	293.73967599868774	fix_pre	0		120	67.0	2.5	/experiments/AOT/AOT_stimuli/rescaled_final/0812_rv.mp4	0.0	315.2310218811035	1.0004169940948486
69	294.7400929927826	movie	1		245	67.0	2.5	/experiments/AOT/AOT_stimuli/rescaled_final/0812_rv.mp4	0.0	316.23143887519836	2.4995861053466797
69	295.12377309799194	pulse	1	t		67.0	2.5	/experiments/AOT/AOT_stimuli/rescaled_final/0812_rv.mp4	0.0	316.6151189804077	
69	296.7235851287842	pulse	1	t		67.0	2.5	/experiments/AOT/AOT_stimuli/rescaled_final/0812_rv.mp4	0.0	318.21493101119995	
69	297.2396790981293	fix_post	2		12	67.0	2.5	/experiments/AOT/AOT_stimuli/rescaled_final/0812_rv.mp4	0.0	318.73102498054504	0.10045099258422852
70	297.3401300907135	fix_pre	0		119	68.0	2.5	/experiments/AOT/AOT_stimuli/rescaled_final/0956_fw.mp4	0.0	318.8314759731293	0.9915988445281982
70	298.32351303100586	pulse	0	t		68.0	2.5	/experiments/AOT/AOT_stimuli/rescaled_final/0956_fw.mp4	0.0	319.81485891342163	
70	298.3317289352417	movie	1		245	68.0	2.5	/experiments/AOT/AOT_stimuli/rescaled_final/0956_fw.mp4	0.0	319.82307481765747	2.508404016494751
70	299.923259973526	pulse	1	t		68.0	2.5	/experiments/AOT/AOT_stimuli/rescaled_final/0956_fw.mp4	0.0	321.4146058559418	
70	300.84013295173645	fix_post	2		12	68.0	2.5	/experiments/AOT/AOT_stimuli/rescaled_final/0956_fw.mp4	0.0	322.3314788341522	0.09998106956481934
71	300.94011402130127	fix_pre	0		120	69.0	2.5	/experiments/AOT/AOT_stimuli/rescaled_final/1584_fw.mp4	0.0	322.43145990371704	1.0000219345092773
71	301.523561000824	pulse	0	t		69.0	2.5	/experiments/AOT/AOT_stimuli/rescaled_final/1584_fw.mp4	0.0	323.01490688323975	
71	301.94013595581055	movie	1		245	69.0	2.5	/experiments/AOT/AOT_stimuli/rescaled_final/1584_fw.mp4	0.0	323.4314818382263	2.499959945678711
71	303.12362909317017	pulse	1	t		69.0	2.5	/experiments/AOT/AOT_stimuli/rescaled_final/1584_fw.mp4	0.0	324.61497497558594	
71	304.44009590148926	fix_post	2		12	69.0	2.5	/experiments/AOT/AOT_stimuli/rescaled_final/1584_fw.mp4	0.0	325.93144178390503	0.09998106956481934
72	304.5400769710541	fix_pre	0		120	70.0	2.5	blank	1.0	326.03142285346985	0.999967098236084
72	304.7235441207886	pulse	0	t		70.0	2.5	blank	1.0	326.21489000320435	
72	305.54004406929016	movie	1		300	70.0	2.5	blank	1.0	327.03138995170593	2.4999890327453613
72	306.32355999946594	pulse	1	t		70.0	2.5	blank	1.0	327.8149058818817	
72	307.92344093322754	pulse	1	t		70.0	2.5	blank	1.0	329.4147868156433	
72	308.0400331020355	fix_post	2		12	70.0	2.5	blank	1.0	329.5313789844513	0.09999489784240723
73	308.14002799987793	fix_pre	0		120	71.0	2.5	/experiments/AOT/AOT_stimuli/rescaled_final/1824_rv.mp4	0.0	329.6313738822937	0.9999871253967285
73	309.14001512527466	movie	1		245	71.0	2.5	/experiments/AOT/AOT_stimuli/rescaled_final/1824_rv.mp4	0.0	330.63136100769043	2.500018835067749
73	309.5246410369873	pulse	1	t		71.0	2.5	/experiments/AOT/AOT_stimuli/rescaled_final/1824_rv.mp4	0.0	331.0159869194031	
73	311.1234710216522	pulse	1	t		71.0	2.5	/experiments/AOT/AOT_stimuli/rescaled_final/1824_rv.mp4	0.0	332.614816904068	
73	311.6400339603424	fix_post	2		12	71.0	2.5	/experiments/AOT/AOT_stimuli/rescaled_final/1824_rv.mp4	0.0	333.1313798427582	0.09997296333312988
74	311.74000692367554	fix_pre	0		119	72.0	2.5	/experiments/AOT/AOT_stimuli/rescaled_final/0120_fw.mp4	0.0	333.2313528060913	0.9916951656341553
74	312.7236170768738	pulse	0	t		72.0	2.5	/experiments/AOT/AOT_stimuli/rescaled_final/0120_fw.mp4	0.0	334.21496295928955	
74	312.7317020893097	movie	1		246	72.0	2.5	/experiments/AOT/AOT_stimuli/rescaled_final/0120_fw.mp4	0.0	334.22304797172546	2.507938861846924
74	314.32475996017456	pulse	1	t		72.0	2.5	/experiments/AOT/AOT_stimuli/rescaled_final/0120_fw.mp4	0.0	335.81610584259033	
74	315.2396409511566	fix_post	2		12	72.0	2.5	/experiments/AOT/AOT_stimuli/rescaled_final/0120_fw.mp4	0.0	336.7309868335724	0.1003870964050293
75	315.34002804756165	fix_pre	0		120	73.0	2.5	/experiments/AOT/AOT_stimuli/rescaled_final/1718_fw.mp4	0.0	336.8313739299774	0.9999639987945557
75	315.9235439300537	pulse	0	t		73.0	2.5	/experiments/AOT/AOT_stimuli/rescaled_final/1718_fw.mp4	0.0	337.4148898124695	
75	316.3399920463562	movie	1		247	73.0	2.5	/experiments/AOT/AOT_stimuli/rescaled_final/1718_fw.mp4	0.0	337.831337928772	2.5000760555267334
75	317.5235290527344	pulse	1	t		73.0	2.5	/experiments/AOT/AOT_stimuli/rescaled_final/1718_fw.mp4	0.0	339.01487493515015	
75	318.84006810188293	fix_post	2		12	73.0	2.5	/experiments/AOT/AOT_stimuli/rescaled_final/1718_fw.mp4	0.0	340.3314139842987	0.09998488426208496
76	318.940052986145	fix_pre	0		120	74.0	2.5	/experiments/AOT/AOT_stimuli/rescaled_final/1350_fw.mp4	0.0	340.4313988685608	0.9999139308929443
76	319.1235280036926	pulse	0	t		74.0	2.5	/experiments/AOT/AOT_stimuli/rescaled_final/1350_fw.mp4	0.0	340.6148738861084	
76	319.93996691703796	movie	1		244	74.0	2.5	/experiments/AOT/AOT_stimuli/rescaled_final/1350_fw.mp4	0.0	341.43131279945374	2.4996039867401123
76	320.72344613075256	pulse	1	t		74.0	2.5	/experiments/AOT/AOT_stimuli/rescaled_final/1350_fw.mp4	0.0	342.21479201316833	
76	322.3221049308777	pulse	1	t		74.0	2.5	/experiments/AOT/AOT_stimuli/rescaled_final/1350_fw.mp4	0.0	343.81345081329346	
76	322.4395709037781	fix_post	2		12	74.0	2.5	/experiments/AOT/AOT_stimuli/rescaled_final/1350_fw.mp4	0.0	343.93091678619385	0.10042309761047363
77	322.53999400138855	fix_pre	0		120	75.0	2.5	/experiments/AOT/AOT_stimuli/rescaled_final/1455_rv.mp4	0.0	344.0313398838043	0.9995388984680176
77	323.53953289985657	movie	1		244	75.0	2.5	/experiments/AOT/AOT_stimuli/rescaled_final/1455_rv.mp4	0.0	345.03087878227234	2.5005249977111816
77	323.92302203178406	pulse	1	t		75.0	2.5	/experiments/AOT/AOT_stimuli/rescaled_final/1455_rv.mp4	0.0	345.41436791419983	
77	325.5234479904175	pulse	1	t		75.0	2.5	/experiments/AOT/AOT_stimuli/rescaled_final/1455_rv.mp4	0.0	347.01479387283325	
77	326.04005789756775	fix_post	2		12	75.0	2.5	/experiments/AOT/AOT_stimuli/rescaled_final/1455_rv.mp4	0.0	347.5314037799835	0.09957313537597656
78	326.1396310329437	fix_pre	0		119	76.0	2.5	/experiments/AOT/AOT_stimuli/rescaled_final/1815_fw.mp4	0.0	347.6309769153595	0.9920399188995361
78	327.12346601486206	pulse	0	t		76.0	2.5	/experiments/AOT/AOT_stimuli/rescaled_final/1815_fw.mp4	0.0	348.61481189727783	
78	327.13167095184326	movie	1		245	76.0	2.5	/experiments/AOT/AOT_stimuli/rescaled_final/1815_fw.mp4	0.0	348.62301683425903	2.5082671642303467
78	328.7230861186981	pulse	1	t		76.0	2.5	/experiments/AOT/AOT_stimuli/rescaled_final/1815_fw.mp4	0.0	350.2144320011139	
78	329.6399381160736	fix_post	2		12	76.0	2.5	/experiments/AOT/AOT_stimuli/rescaled_final/1815_fw.mp4	0.0	351.1312839984894	0.1000828742980957
79	329.7400209903717	fix_pre	0		120	77.0	2.5	blank	1.0	351.2313668727875	0.9995670318603516
79	330.323450088501	pulse	0	t		77.0	2.5	blank	1.0	351.81479597091675	
79	330.73958802223206	movie	1		300	77.0	2.5	blank	1.0	352.2309339046478	2.5001940727233887
79	331.92299008369446	pulse	1	t		77.0	2.5	blank	1.0	353.41433596611023	
79	333.23978209495544	fix_post	2		12	77.0	2.5	blank	1.0	354.7311279773712	0.09994792938232422
80	333.33973002433777	fix_pre	0		120	78.0	2.5	/experiments/AOT/AOT_stimuli/rescaled_final/0812_fw.mp4	0.0	354.83107590675354	1.0006530284881592
80	333.5237100124359	pulse	0	t		78.0	2.5	/experiments/AOT/AOT_stimuli/rescaled_final/0812_fw.mp4	0.0	355.0150558948517	
80	334.3403830528259	movie	1		243	78.0	2.5	/experiments/AOT/AOT_stimuli/rescaled_final/0812_fw.mp4	0.0	355.8317289352417	2.499574899673462
80	335.1233870983124	pulse	1	t		78.0	2.5	/experiments/AOT/AOT_stimuli/rescaled_final/0812_fw.mp4	0.0	356.61473298072815	
80	336.7216041088104	pulse	1	t		78.0	2.5	/experiments/AOT/AOT_stimuli/rescaled_final/0812_fw.mp4	0.0	358.2129499912262	
80	336.8399579524994	fix_post	2		12	78.0	2.5	/experiments/AOT/AOT_stimuli/rescaled_final/0812_fw.mp4	0.0	358.33130383491516	0.10003805160522461
81	336.9399960041046	fix_pre	0		120	79.0	2.5	/experiments/AOT/AOT_stimuli/rescaled_final/1867_fw.mp4	0.0	358.4313418865204	0.999967098236084
81	337.9399631023407	movie	1		244	79.0	2.5	/experiments/AOT/AOT_stimuli/rescaled_final/1867_fw.mp4	0.0	359.43130898475647	2.499884843826294
81	338.3229250907898	pulse	1	t		79.0	2.5	/experiments/AOT/AOT_stimuli/rescaled_final/1867_fw.mp4	0.0	359.81427097320557	
81	339.923357963562	pulse	1	t		79.0	2.5	/experiments/AOT/AOT_stimuli/rescaled_final/1867_fw.mp4	0.0	361.4147038459778	
81	340.439847946167	fix_post	2		12	79.0	2.5	/experiments/AOT/AOT_stimuli/rescaled_final/1867_fw.mp4	0.0	361.93119382858276	0.10003995895385742
82	340.53988790512085	fix_pre	0		119	80.0	2.5	/experiments/AOT/AOT_stimuli/rescaled_final/2130_fw.mp4	0.0	362.0312337875366	0.9917871952056885
82	341.5233669281006	pulse	0	t		80.0	2.5	/experiments/AOT/AOT_stimuli/rescaled_final/2130_fw.mp4	0.0	363.01471281051636	
82	341.53167510032654	movie	1		248	80.0	2.5	/experiments/AOT/AOT_stimuli/rescaled_final/2130_fw.mp4	0.0	363.0230209827423	2.5082719326019287
82	343.1228139400482	pulse	1	t		80.0	2.5	/experiments/AOT/AOT_stimuli/rescaled_final/2130_fw.mp4	0.0	364.614159822464	
82	344.03994703292847	fix_post	2		12	80.0	2.5	/experiments/AOT/AOT_stimuli/rescaled_final/2130_fw.mp4	0.0	365.53129291534424	0.09992504119873047
83	344.1398720741272	fix_pre	0		120	81.0	2.5	/experiments/AOT/AOT_stimuli/rescaled_final/1363_fw.mp4	0.0	365.63121795654297	1.0000569820404053
83	344.7245919704437	pulse	0	t		81.0	2.5	/experiments/AOT/AOT_stimuli/rescaled_final/1363_fw.mp4	0.0	366.2159378528595	
83	345.1399290561676	movie	1		242	81.0	2.5	/experiments/AOT/AOT_stimuli/rescaled_final/1363_fw.mp4	0.0	366.6312749385834	2.4999048709869385
83	346.3233439922333	pulse	1	t		81.0	2.5	/experiments/AOT/AOT_stimuli/rescaled_final/1363_fw.mp4	0.0	367.81468987464905	
83	347.63983392715454	fix_post	2		12	81.0	2.5	/experiments/AOT/AOT_stimuli/rescaled_final/1363_fw.mp4	0.0	369.1311798095703	0.10000109672546387
84	347.73983502388	fix_pre	0		120	82.0	2.5	blank	1.0	369.2311809062958	0.9996330738067627
84	347.9234149456024	pulse	0	t		82.0	2.5	blank	1.0	369.4147608280182	
84	348.73946809768677	movie	1		300	82.0	2.5	blank	1.0	370.23081398010254	2.4999170303344727
84	349.5232388973236	pulse	1	t		82.0	2.5	blank	1.0	371.0145847797394	
84	351.123330116272	pulse	1	t		82.0	2.5	blank	1.0	372.61467599868774	
84	351.23938512802124	fix_post	2		12	82.0	2.5	blank	1.0	372.730731010437	0.1000678539276123
85	351.33945298194885	fix_pre	0		120	83.0	2.5	/experiments/AOT/AOT_stimuli/rescaled_final/1673_fw.mp4	0.0	372.8307988643646	1.000373125076294
85	352.33982610702515	movie	1		245	83.0	2.5	/experiments/AOT/AOT_stimuli/rescaled_final/1673_fw.mp4	0.0	373.8311719894409	2.4999489784240723
85	352.72306203842163	pulse	1	t		83.0	2.5	/experiments/AOT/AOT_stimuli/rescaled_final/1673_fw.mp4	0.0	374.2144079208374	
85	354.32330107688904	pulse	1	t		83.0	2.5	/experiments/AOT/AOT_stimuli/rescaled_final/1673_fw.mp4	0.0	375.8146469593048	
85	354.8397750854492	fix_post	2		12	83.0	2.5	/experiments/AOT/AOT_stimuli/rescaled_final/1673_fw.mp4	0.0	376.331120967865	0.10003900527954102
87	354.93981409072876	stim	0		1716					376.43115997314453	14.299970865249634
87	355.92332005500793	pulse	0	t						377.4146659374237	
87	357.52330207824707	pulse	0	t						379.01464796066284	
87	359.12323904037476	pulse	0	t						380.6145849227905	
87	360.7232758998871	pulse	0	t						382.21462178230286	
87	362.3232309818268	pulse	0	t						383.81457686424255	
87	363.92315912246704	pulse	0	t						385.4145050048828	
87	365.52323603630066	pulse	0	t						387.01458191871643	
87	367.1232500076294	pulse	0	t						388.61459589004517	
87	368.7232370376587	pulse	0	t						390.21458292007446	
