trial_nr	onset	event_type	phase	response	nr_frames	movie_index	movie_duration	movie_file	blank	onset_abs	duration
0	0.15828514099121094	stim	0		517					20.375385999679565	4.316665887832642
0	4.466997146606445	response	0	space						24.6840980052948	
1	4.4749510288238525	stim	0		4407					24.692051887512207	36.72479701042175
1	41.19511795043945	pulse	0	t						61.41221880912781	
1	41.199748039245605	stim	1		1717					61.41684889793396	14.308329105377197
1	42.78321695327759	pulse	1	t						63.00031781196594	
1	44.38320708274841	pulse	1	t						64.60030794143677	
1	45.98317193984985	pulse	1	t						66.20027279853821	
1	47.583290100097656	pulse	1	t						67.80039095878601	
1	49.18326115608215	pulse	1	t						69.40036201477051	
1	50.78317403793335	pulse	1	t						71.0002748966217	
1	52.38311409950256	pulse	1	t						72.60021495819092	
1	53.9831280708313	pulse	1	t						74.20022892951965	
2	55.5080771446228	fix_pre	0		10	0.0	2.5	/experiments/AOT/AOT_stimuli/rescaled_final/0830_rv.mp4	0.0	75.72517800331116	0.08327198028564453
2	55.583106994628906	pulse	0	t		0.0	2.5	/experiments/AOT/AOT_stimuli/rescaled_final/0830_rv.mp4	0.0	75.80020785331726	
2	55.59134912490845	movie	1		245	0.0	2.5	/experiments/AOT/AOT_stimuli/rescaled_final/0830_rv.mp4	0.0	75.8084499835968	2.508267879486084
2	57.18284296989441	pulse	1	t		0.0	2.5	/experiments/AOT/AOT_stimuli/rescaled_final/0830_rv.mp4	0.0	77.39994382858276	
2	58.09961700439453	fix_post	2		12	0.0	2.5	/experiments/AOT/AOT_stimuli/rescaled_final/0830_rv.mp4	0.0	78.31671786308289	0.10005807876586914
3	58.1996750831604	fix_pre	0		120	1.0	2.5	/experiments/AOT/AOT_stimuli/rescaled_final/1345_fw.mp4	0.0	78.41677594184875	0.9999830722808838
3	58.783255100250244	pulse	0	t		1.0	2.5	/experiments/AOT/AOT_stimuli/rescaled_final/1345_fw.mp4	0.0	79.0003559589386	
3	59.199658155441284	movie	1		244	1.0	2.5	/experiments/AOT/AOT_stimuli/rescaled_final/1345_fw.mp4	0.0	79.41675901412964	2.4996488094329834
3	60.38325095176697	pulse	1	t		1.0	2.5	/experiments/AOT/AOT_stimuli/rescaled_final/1345_fw.mp4	0.0	80.60035181045532	
3	61.69930696487427	fix_post	2		12	1.0	2.5	/experiments/AOT/AOT_stimuli/rescaled_final/1345_fw.mp4	0.0	81.91640782356262	0.1003119945526123
4	61.79961895942688	fix_pre	0		120	2.0	2.5	/experiments/AOT/AOT_stimuli/rescaled_final/0674_rv.mp4	0.0	82.01671981811523	1.0000500679016113
4	61.983126163482666	pulse	0	t		2.0	2.5	/experiments/AOT/AOT_stimuli/rescaled_final/0674_rv.mp4	0.0	82.20022702217102	
4	62.79966902732849	movie	1		244	2.0	2.5	/experiments/AOT/AOT_stimuli/rescaled_final/0674_rv.mp4	0.0	83.01676988601685	2.499985933303833
4	63.58316993713379	pulse	1	t		2.0	2.5	/experiments/AOT/AOT_stimuli/rescaled_final/0674_rv.mp4	0.0	83.80027079582214	
4	65.18209099769592	pulse	1	t		2.0	2.5	/experiments/AOT/AOT_stimuli/rescaled_final/0674_rv.mp4	0.0	85.39919185638428	
4	65.29965496063232	fix_post	2		12	2.0	2.5	/experiments/AOT/AOT_stimuli/rescaled_final/0674_rv.mp4	0.0	85.51675581932068	0.09997105598449707
5	65.39962601661682	fix_pre	0		120	3.0	2.5	/experiments/AOT/AOT_stimuli/rescaled_final/0195_fw.mp4	0.0	85.61672687530518	1.0000200271606445
5	66.39964604377747	movie	1		244	3.0	2.5	/experiments/AOT/AOT_stimuli/rescaled_final/0195_fw.mp4	0.0	86.61674690246582	2.4999918937683105
5	66.78295016288757	pulse	1	t		3.0	2.5	/experiments/AOT/AOT_stimuli/rescaled_final/0195_fw.mp4	0.0	87.00005102157593	
5	68.38312196731567	pulse	1	t		3.0	2.5	/experiments/AOT/AOT_stimuli/rescaled_final/0195_fw.mp4	0.0	88.60022282600403	
5	68.89963793754578	fix_post	2		12	3.0	2.5	/experiments/AOT/AOT_stimuli/rescaled_final/0195_fw.mp4	0.0	89.11673879623413	0.09998106956481934
6	68.9996190071106	fix_pre	0		119	4.0	2.5	/experiments/AOT/AOT_stimuli/rescaled_final/0794_fw.mp4	0.0	89.21671986579895	0.9916300773620605
6	69.9831440448761	pulse	0	t		4.0	2.5	/experiments/AOT/AOT_stimuli/rescaled_final/0794_fw.mp4	0.0	90.20024490356445	
6	69.99124908447266	movie	1		245	4.0	2.5	/experiments/AOT/AOT_stimuli/rescaled_final/0794_fw.mp4	0.0	90.20834994316101	2.508358955383301
6	71.58308601379395	pulse	1	t		4.0	2.5	/experiments/AOT/AOT_stimuli/rescaled_final/0794_fw.mp4	0.0	91.8001868724823	
6	72.49960803985596	fix_post	2		12	4.0	2.5	/experiments/AOT/AOT_stimuli/rescaled_final/0794_fw.mp4	0.0	92.71670889854431	0.09993410110473633
7	72.5995421409607	fix_pre	0		120	5.0	2.5	blank	1.0	92.81664299964905	1.000032901763916
7	73.18310213088989	pulse	0	t		5.0	2.5	blank	1.0	93.40020298957825	
7	73.59957504272461	movie	1		300	5.0	2.5	blank	1.0	93.81667590141296	2.4999289512634277
7	74.78312802314758	pulse	1	t		5.0	2.5	blank	1.0	95.00022888183594	
7	76.09950399398804	fix_post	2		12	5.0	2.5	blank	1.0	96.31660485267639	0.1001119613647461
8	76.19961595535278	fix_pre	0		120	6.0	2.5	/experiments/AOT/AOT_stimuli/rescaled_final/0201_fw.mp4	0.0	96.41671681404114	0.999934196472168
8	76.38311815261841	pulse	0	t		6.0	2.5	/experiments/AOT/AOT_stimuli/rescaled_final/0201_fw.mp4	0.0	96.60021901130676	
8	77.19955015182495	movie	1		244	6.0	2.5	/experiments/AOT/AOT_stimuli/rescaled_final/0201_fw.mp4	0.0	97.4166510105133	2.500124931335449
8	77.9829831123352	pulse	1	t		6.0	2.5	/experiments/AOT/AOT_stimuli/rescaled_final/0201_fw.mp4	0.0	98.20008397102356	
8	79.58195900917053	pulse	1	t		6.0	2.5	/experiments/AOT/AOT_stimuli/rescaled_final/0201_fw.mp4	0.0	99.79905986785889	
8	79.6996750831604	fix_post	2		12	6.0	2.5	/experiments/AOT/AOT_stimuli/rescaled_final/0201_fw.mp4	0.0	99.91677594184875	0.09989404678344727
9	79.79956912994385	fix_pre	0		120	7.0	2.5	/experiments/AOT/AOT_stimuli/rescaled_final/0061_fw.mp4	0.0	100.0166699886322	1.0000178813934326
9	80.79958701133728	movie	1		244	7.0	2.5	/experiments/AOT/AOT_stimuli/rescaled_final/0061_fw.mp4	0.0	101.01668787002563	2.499953031539917
9	81.18436312675476	pulse	1	t		7.0	2.5	/experiments/AOT/AOT_stimuli/rescaled_final/0061_fw.mp4	0.0	101.40146398544312	
9	82.7829999923706	pulse	1	t		7.0	2.5	/experiments/AOT/AOT_stimuli/rescaled_final/0061_fw.mp4	0.0	103.00010085105896	
9	83.2995400428772	fix_post	2		12	7.0	2.5	/experiments/AOT/AOT_stimuli/rescaled_final/0061_fw.mp4	0.0	103.51664090156555	0.09998798370361328
10	83.39952802658081	fix_pre	0		119	8.0	2.5	/experiments/AOT/AOT_stimuli/rescaled_final/0700_fw.mp4	0.0	103.61662888526917	0.991765022277832
10	84.38305306434631	pulse	0	t		8.0	2.5	/experiments/AOT/AOT_stimuli/rescaled_final/0700_fw.mp4	0.0	104.60015392303467	
10	84.39129304885864	movie	1		246	8.0	2.5	/experiments/AOT/AOT_stimuli/rescaled_final/0700_fw.mp4	0.0	104.608393907547	2.508258104324341
10	85.98270606994629	pulse	1	t		8.0	2.5	/experiments/AOT/AOT_stimuli/rescaled_final/0700_fw.mp4	0.0	106.19980692863464	
10	86.89955115318298	fix_post	2		12	8.0	2.5	/experiments/AOT/AOT_stimuli/rescaled_final/0700_fw.mp4	0.0	107.11665201187134	0.10005998611450195
11	86.99961113929749	fix_pre	0		120	9.0	2.5	/experiments/AOT/AOT_stimuli/rescaled_final/0161_fw.mp4	0.0	107.21671199798584	0.9995639324188232
11	87.58264899253845	pulse	0	t		9.0	2.5	/experiments/AOT/AOT_stimuli/rescaled_final/0161_fw.mp4	0.0	107.7997498512268	
11	87.99917507171631	movie	1		244	9.0	2.5	/experiments/AOT/AOT_stimuli/rescaled_final/0161_fw.mp4	0.0	108.21627593040466	2.5002739429473877
11	89.18320608139038	pulse	1	t		9.0	2.5	/experiments/AOT/AOT_stimuli/rescaled_final/0161_fw.mp4	0.0	109.40030694007874	
11	90.4994490146637	fix_post	2		12	9.0	2.5	/experiments/AOT/AOT_stimuli/rescaled_final/0161_fw.mp4	0.0	110.71654987335205	0.1000361442565918
12	90.59948515892029	fix_pre	0		120	10.0	2.5	/experiments/AOT/AOT_stimuli/rescaled_final/0922_fw.mp4	0.0	110.81658601760864	1.0000298023223877
12	90.78300404548645	pulse	0	t		10.0	2.5	/experiments/AOT/AOT_stimuli/rescaled_final/0922_fw.mp4	0.0	111.0001049041748	
12	91.59951496124268	movie	1		244	10.0	2.5	/experiments/AOT/AOT_stimuli/rescaled_final/0922_fw.mp4	0.0	111.81661581993103	2.4999911785125732
12	92.38291811943054	pulse	1	t		10.0	2.5	/experiments/AOT/AOT_stimuli/rescaled_final/0922_fw.mp4	0.0	112.6000189781189	
12	93.98164200782776	pulse	1	t		10.0	2.5	/experiments/AOT/AOT_stimuli/rescaled_final/0922_fw.mp4	0.0	114.19874286651611	
12	94.09950613975525	fix_post	2		12	10.0	2.5	/experiments/AOT/AOT_stimuli/rescaled_final/0922_fw.mp4	0.0	114.3166069984436	0.09999394416809082
13	94.19950008392334	fix_pre	0		120	11.0	2.5	/experiments/AOT/AOT_stimuli/rescaled_final/0151_fw.mp4	0.0	114.4166009426117	0.9999120235443115
13	95.19941210746765	movie	1		243	11.0	2.5	/experiments/AOT/AOT_stimuli/rescaled_final/0151_fw.mp4	0.0	115.416512966156	2.500011920928955
13	95.58274602890015	pulse	1	t		11.0	2.5	/experiments/AOT/AOT_stimuli/rescaled_final/0151_fw.mp4	0.0	115.7998468875885	
13	97.18301796913147	pulse	1	t		11.0	2.5	/experiments/AOT/AOT_stimuli/rescaled_final/0151_fw.mp4	0.0	117.40011882781982	
13	97.6994240283966	fix_post	2		12	11.0	2.5	/experiments/AOT/AOT_stimuli/rescaled_final/0151_fw.mp4	0.0	117.91652488708496	0.09997200965881348
14	97.79939603805542	fix_pre	0		119	12.0	2.5	/experiments/AOT/AOT_stimuli/rescaled_final/0674_rv.mp4	0.0	118.01649689674377	0.9916939735412598
14	98.78299498558044	pulse	0	t		12.0	2.5	/experiments/AOT/AOT_stimuli/rescaled_final/0674_rv.mp4	0.0	119.0000958442688	
14	98.79109001159668	movie	1		244	12.0	2.5	/experiments/AOT/AOT_stimuli/rescaled_final/0674_rv.mp4	0.0	119.00819087028503	2.5082950592041016
14	100.38270807266235	pulse	1	t		12.0	2.5	/experiments/AOT/AOT_stimuli/rescaled_final/0674_rv.mp4	0.0	120.59980893135071	
14	101.29938507080078	fix_post	2		12	12.0	2.5	/experiments/AOT/AOT_stimuli/rescaled_final/0674_rv.mp4	0.0	121.51648592948914	0.1000680923461914
15	101.39945316314697	fix_pre	0		120	13.0	2.5	/experiments/AOT/AOT_stimuli/rescaled_final/0578_rv.mp4	0.0	121.61655402183533	0.9999818801879883
15	101.98296093940735	pulse	0	t		13.0	2.5	/experiments/AOT/AOT_stimuli/rescaled_final/0578_rv.mp4	0.0	122.2000617980957	
15	102.39943504333496	movie	1		241	13.0	2.5	/experiments/AOT/AOT_stimuli/rescaled_final/0578_rv.mp4	0.0	122.61653590202332	2.499579906463623
15	103.58298707008362	pulse	1	t		13.0	2.5	/experiments/AOT/AOT_stimuli/rescaled_final/0578_rv.mp4	0.0	123.80008792877197	
15	104.89901494979858	fix_post	2		12	13.0	2.5	/experiments/AOT/AOT_stimuli/rescaled_final/0578_rv.mp4	0.0	125.11611580848694	0.1004171371459961
16	104.99943208694458	fix_pre	0		120	14.0	2.5	blank	1.0	125.21653294563293	1.0000319480895996
16	105.18295407295227	pulse	0	t		14.0	2.5	blank	1.0	125.40005493164062	
16	105.99946403503418	movie	1		300	14.0	2.5	blank	1.0	126.21656489372253	2.4999349117279053
16	106.7829921245575	pulse	1	t		14.0	2.5	blank	1.0	127.00009298324585	
16	108.38287806510925	pulse	1	t		14.0	2.5	blank	1.0	128.5999789237976	
16	108.49939894676208	fix_post	2		12	14.0	2.5	blank	1.0	128.71649980545044	0.0999600887298584
17	108.59935903549194	fix_pre	0		120	15.0	2.5	/experiments/AOT/AOT_stimuli/rescaled_final/1808_fw.mp4	0.0	128.8164598941803	1.0001509189605713
17	109.59950995445251	movie	1		244	15.0	2.5	/experiments/AOT/AOT_stimuli/rescaled_final/1808_fw.mp4	0.0	129.81661081314087	2.499594211578369
17	109.98293709754944	pulse	1	t		15.0	2.5	/experiments/AOT/AOT_stimuli/rescaled_final/1808_fw.mp4	0.0	130.2000379562378	
17	111.58287215232849	pulse	1	t		15.0	2.5	/experiments/AOT/AOT_stimuli/rescaled_final/1808_fw.mp4	0.0	131.79997301101685	
17	112.09910416603088	fix_post	2		12	15.0	2.5	/experiments/AOT/AOT_stimuli/rescaled_final/1808_fw.mp4	0.0	132.31620502471924	0.10032987594604492
18	112.19943404197693	fix_pre	0		119	16.0	2.5	/experiments/AOT/AOT_stimuli/rescaled_final/1982_fw.mp4	0.0	132.41653490066528	0.9915990829467773
18	113.18290996551514	pulse	0	t		16.0	2.5	/experiments/AOT/AOT_stimuli/rescaled_final/1982_fw.mp4	0.0	133.4000108242035	
18	113.1910331249237	movie	1		245	16.0	2.5	/experiments/AOT/AOT_stimuli/rescaled_final/1982_fw.mp4	0.0	133.40813398361206	2.5083818435668945
18	114.7831060886383	pulse	1	t		16.0	2.5	/experiments/AOT/AOT_stimuli/rescaled_final/1982_fw.mp4	0.0	135.00020694732666	
18	115.6994149684906	fix_post	2		12	16.0	2.5	/experiments/AOT/AOT_stimuli/rescaled_final/1982_fw.mp4	0.0	135.91651582717896	0.10000896453857422
19	115.79942393302917	fix_pre	0		120	17.0	2.5	/experiments/AOT/AOT_stimuli/rescaled_final/0915_rv.mp4	0.0	136.01652479171753	0.9999182224273682
19	116.38287401199341	pulse	0	t		17.0	2.5	/experiments/AOT/AOT_stimuli/rescaled_final/0915_rv.mp4	0.0	136.59997487068176	
19	116.79934215545654	movie	1		243	17.0	2.5	/experiments/AOT/AOT_stimuli/rescaled_final/0915_rv.mp4	0.0	137.0164430141449	2.500062942504883
19	117.98296904563904	pulse	1	t		17.0	2.5	/experiments/AOT/AOT_stimuli/rescaled_final/0915_rv.mp4	0.0	138.2000699043274	
19	119.29940509796143	fix_post	2		12	17.0	2.5	/experiments/AOT/AOT_stimuli/rescaled_final/0915_rv.mp4	0.0	139.51650595664978	0.10000991821289062
20	119.39941501617432	fix_pre	0		120	18.0	2.5	/experiments/AOT/AOT_stimuli/rescaled_final/1066_fw.mp4	0.0	139.61651587486267	1.0000030994415283
20	119.58278894424438	pulse	0	t		18.0	2.5	/experiments/AOT/AOT_stimuli/rescaled_final/1066_fw.mp4	0.0	139.79988980293274	
20	120.39941811561584	movie	1		245	18.0	2.5	/experiments/AOT/AOT_stimuli/rescaled_final/1066_fw.mp4	0.0	140.6165189743042	2.499974012374878
20	121.1828191280365	pulse	1	t		18.0	2.5	/experiments/AOT/AOT_stimuli/rescaled_final/1066_fw.mp4	0.0	141.39991998672485	
20	122.78153705596924	pulse	1	t		18.0	2.5	/experiments/AOT/AOT_stimuli/rescaled_final/1066_fw.mp4	0.0	142.9986379146576	
20	122.89939212799072	fix_post	2		12	18.0	2.5	/experiments/AOT/AOT_stimuli/rescaled_final/1066_fw.mp4	0.0	143.11649298667908	0.10001397132873535
21	122.99940609931946	fix_pre	0		120	19.0	2.5	/experiments/AOT/AOT_stimuli/rescaled_final/0757_fw.mp4	0.0	143.2165069580078	0.9999239444732666
21	123.99933004379272	movie	1		245	19.0	2.5	/experiments/AOT/AOT_stimuli/rescaled_final/0757_fw.mp4	0.0	144.21643090248108	2.499985933303833
21	124.38234400749207	pulse	1	t		19.0	2.5	/experiments/AOT/AOT_stimuli/rescaled_final/0757_fw.mp4	0.0	144.59944486618042	
21	125.98275113105774	pulse	1	t		19.0	2.5	/experiments/AOT/AOT_stimuli/rescaled_final/0757_fw.mp4	0.0	146.1998519897461	
21	126.49931597709656	fix_post	2		12	19.0	2.5	/experiments/AOT/AOT_stimuli/rescaled_final/0757_fw.mp4	0.0	146.7164168357849	0.1000831127166748
22	126.59939908981323	fix_pre	0		119	20.0	2.5	/experiments/AOT/AOT_stimuli/rescaled_final/1848_fw.mp4	0.0	146.8164999485016	0.9916260242462158
22	127.58280205726624	pulse	0	t		20.0	2.5	/experiments/AOT/AOT_stimuli/rescaled_final/1848_fw.mp4	0.0	147.7999029159546	
22	127.59102511405945	movie	1		244	20.0	2.5	/experiments/AOT/AOT_stimuli/rescaled_final/1848_fw.mp4	0.0	147.8081259727478	2.508481025695801
22	129.18261313438416	pulse	1	t		20.0	2.5	/experiments/AOT/AOT_stimuli/rescaled_final/1848_fw.mp4	0.0	149.3997139930725	
22	130.09950613975525	fix_post	2		12	20.0	2.5	/experiments/AOT/AOT_stimuli/rescaled_final/1848_fw.mp4	0.0	150.3166069984436	0.09993195533752441
23	130.19943809509277	fix_pre	0		120	21.0	2.5	blank	1.0	150.41653895378113	0.9998610019683838
23	130.78281998634338	pulse	0	t		21.0	2.5	blank	1.0	150.99992084503174	
23	131.19929909706116	movie	1		300	21.0	2.5	blank	1.0	151.4163999557495	2.500095844268799
23	132.38284993171692	pulse	1	t		21.0	2.5	blank	1.0	152.59995079040527	
23	133.69939494132996	fix_post	2		12	21.0	2.5	blank	1.0	153.9164958000183	0.1000051498413086
24	133.79940009117126	fix_pre	0		120	22.0	2.5	/experiments/AOT/AOT_stimuli/rescaled_final/1974_rv.mp4	0.0	154.01650094985962	0.9999539852142334
24	133.9828450679779	pulse	0	t		22.0	2.5	/experiments/AOT/AOT_stimuli/rescaled_final/1974_rv.mp4	0.0	154.19994592666626	
24	134.7993540763855	movie	1		243	22.0	2.5	/experiments/AOT/AOT_stimuli/rescaled_final/1974_rv.mp4	0.0	155.01645493507385	2.5000078678131104
24	135.58278799057007	pulse	1	t		22.0	2.5	/experiments/AOT/AOT_stimuli/rescaled_final/1974_rv.mp4	0.0	155.79988884925842	
24	137.18130111694336	pulse	1	t		22.0	2.5	/experiments/AOT/AOT_stimuli/rescaled_final/1974_rv.mp4	0.0	157.3984019756317	
24	137.2993619441986	fix_post	2		12	22.0	2.5	/experiments/AOT/AOT_stimuli/rescaled_final/1974_rv.mp4	0.0	157.51646280288696	0.09995818138122559
25	137.39932012557983	fix_pre	0		120	23.0	2.5	/experiments/AOT/AOT_stimuli/rescaled_final/2048_rv.mp4	0.0	157.6164209842682	1.000053882598877
25	138.3993740081787	movie	1		243	23.0	2.5	/experiments/AOT/AOT_stimuli/rescaled_final/2048_rv.mp4	0.0	158.61647486686707	2.499912977218628
25	138.7823989391327	pulse	1	t		23.0	2.5	/experiments/AOT/AOT_stimuli/rescaled_final/2048_rv.mp4	0.0	158.99949979782104	
25	140.38283610343933	pulse	1	t		23.0	2.5	/experiments/AOT/AOT_stimuli/rescaled_final/2048_rv.mp4	0.0	160.59993696212769	
25	140.89928698539734	fix_post	2		12	23.0	2.5	/experiments/AOT/AOT_stimuli/rescaled_final/2048_rv.mp4	0.0	161.1163878440857	0.0999460220336914
26	140.99923300743103	fix_pre	0		119	24.0	2.5	/experiments/AOT/AOT_stimuli/rescaled_final/1881_rv.mp4	0.0	161.21633386611938	0.991797924041748
26	141.9828839302063	pulse	0	t		24.0	2.5	/experiments/AOT/AOT_stimuli/rescaled_final/1881_rv.mp4	0.0	162.19998478889465	
26	141.99103093147278	movie	1		248	24.0	2.5	/experiments/AOT/AOT_stimuli/rescaled_final/1881_rv.mp4	0.0	162.20813179016113	2.508317232131958
26	143.5820050239563	pulse	1	t		24.0	2.5	/experiments/AOT/AOT_stimuli/rescaled_final/1881_rv.mp4	0.0	163.79910588264465	
26	144.49934816360474	fix_post	2		12	24.0	2.5	/experiments/AOT/AOT_stimuli/rescaled_final/1881_rv.mp4	0.0	164.7164490222931	0.0995488166809082
27	144.59889698028564	fix_pre	0		120	25.0	2.5	/experiments/AOT/AOT_stimuli/rescaled_final/0223_fw.mp4	0.0	164.815997838974	1.0006630420684814
27	145.1828920841217	pulse	0	t		25.0	2.5	/experiments/AOT/AOT_stimuli/rescaled_final/0223_fw.mp4	0.0	165.39999294281006	
27	145.59956002235413	movie	1		243	25.0	2.5	/experiments/AOT/AOT_stimuli/rescaled_final/0223_fw.mp4	0.0	165.81666088104248	2.4996581077575684
27	146.78276300430298	pulse	1	t		25.0	2.5	/experiments/AOT/AOT_stimuli/rescaled_final/0223_fw.mp4	0.0	166.99986386299133	
27	148.0992181301117	fix_post	2		12	25.0	2.5	/experiments/AOT/AOT_stimuli/rescaled_final/0223_fw.mp4	0.0	168.31631898880005	0.10004782676696777
28	148.19926595687866	fix_pre	0		120	26.0	2.5	/experiments/AOT/AOT_stimuli/rescaled_final/1300_fw.mp4	0.0	168.41636681556702	0.9999129772186279
28	148.38275003433228	pulse	0	t		26.0	2.5	/experiments/AOT/AOT_stimuli/rescaled_final/1300_fw.mp4	0.0	168.59985089302063	
28	149.1991789340973	movie	1		246	26.0	2.5	/experiments/AOT/AOT_stimuli/rescaled_final/1300_fw.mp4	0.0	169.41627979278564	2.4999961853027344
28	149.98276495933533	pulse	1	t		26.0	2.5	/experiments/AOT/AOT_stimuli/rescaled_final/1300_fw.mp4	0.0	170.19986581802368	
28	151.58267402648926	pulse	1	t		26.0	2.5	/experiments/AOT/AOT_stimuli/rescaled_final/1300_fw.mp4	0.0	171.7997748851776	
28	151.69917511940002	fix_post	2		12	26.0	2.5	/experiments/AOT/AOT_stimuli/rescaled_final/1300_fw.mp4	0.0	171.91627597808838	0.0999758243560791
29	151.7991509437561	fix_pre	0		120	27.0	2.5	blank	1.0	172.01625180244446	1.0000560283660889
29	152.7992069721222	movie	1		300	27.0	2.5	blank	1.0	173.01630783081055	2.499969005584717
29	153.18269801139832	pulse	1	t		27.0	2.5	blank	1.0	173.39979887008667	
29	154.78260803222656	pulse	1	t		27.0	2.5	blank	1.0	174.99970889091492	
29	155.2991759777069	fix_post	2		12	27.0	2.5	blank	1.0	175.51627683639526	0.10005903244018555
30	155.3992350101471	fix_pre	0		119	28.0	2.5	/experiments/AOT/AOT_stimuli/rescaled_final/0632_fw.mp4	0.0	175.61633586883545	0.9916181564331055
30	156.3826560974121	pulse	0	t		28.0	2.5	/experiments/AOT/AOT_stimuli/rescaled_final/0632_fw.mp4	0.0	176.59975695610046	
30	156.3908531665802	movie	1		246	28.0	2.5	/experiments/AOT/AOT_stimuli/rescaled_final/0632_fw.mp4	0.0	176.60795402526855	2.508384943008423
30	157.98222494125366	pulse	1	t		28.0	2.5	/experiments/AOT/AOT_stimuli/rescaled_final/0632_fw.mp4	0.0	178.19932579994202	
30	158.89923810958862	fix_post	2		12	28.0	2.5	/experiments/AOT/AOT_stimuli/rescaled_final/0632_fw.mp4	0.0	179.11633896827698	0.09995198249816895
31	158.9991900920868	fix_pre	0		120	29.0	2.5	/experiments/AOT/AOT_stimuli/rescaled_final/1383_fw.mp4	0.0	179.21629095077515	0.9999568462371826
31	159.5826690196991	pulse	0	t		29.0	2.5	/experiments/AOT/AOT_stimuli/rescaled_final/1383_fw.mp4	0.0	179.79976987838745	
31	159.99914693832397	movie	1		242	29.0	2.5	/experiments/AOT/AOT_stimuli/rescaled_final/1383_fw.mp4	0.0	180.21624779701233	2.5000460147857666
31	161.18275499343872	pulse	1	t		29.0	2.5	/experiments/AOT/AOT_stimuli/rescaled_final/1383_fw.mp4	0.0	181.39985585212708	
31	162.49919295310974	fix_post	2		12	29.0	2.5	/experiments/AOT/AOT_stimuli/rescaled_final/1383_fw.mp4	0.0	182.7162938117981	0.09992814064025879
32	162.59912109375	fix_pre	0		120	30.0	2.5	/experiments/AOT/AOT_stimuli/rescaled_final/1367_fw.mp4	0.0	182.81622195243835	0.9999959468841553
32	162.78283596038818	pulse	0	t		30.0	2.5	/experiments/AOT/AOT_stimuli/rescaled_final/1367_fw.mp4	0.0	182.99993681907654	
32	163.59911704063416	movie	1		243	30.0	2.5	/experiments/AOT/AOT_stimuli/rescaled_final/1367_fw.mp4	0.0	183.8162178993225	2.5000100135803223
32	164.3826551437378	pulse	1	t		30.0	2.5	/experiments/AOT/AOT_stimuli/rescaled_final/1367_fw.mp4	0.0	184.59975600242615	
32	165.9809319972992	pulse	1	t		30.0	2.5	/experiments/AOT/AOT_stimuli/rescaled_final/1367_fw.mp4	0.0	186.19803285598755	
32	166.09912705421448	fix_post	2		12	30.0	2.5	/experiments/AOT/AOT_stimuli/rescaled_final/1367_fw.mp4	0.0	186.31622791290283	0.09995508193969727
33	166.19908213615417	fix_pre	0		120	31.0	2.5	/experiments/AOT/AOT_stimuli/rescaled_final/0420_fw.mp4	0.0	186.41618299484253	1.0000309944152832
33	167.19911313056946	movie	1		244	31.0	2.5	/experiments/AOT/AOT_stimuli/rescaled_final/0420_fw.mp4	0.0	187.4162139892578	2.500002861022949
33	167.5827419757843	pulse	1	t		31.0	2.5	/experiments/AOT/AOT_stimuli/rescaled_final/0420_fw.mp4	0.0	187.79984283447266	
33	169.18261694908142	pulse	1	t		31.0	2.5	/experiments/AOT/AOT_stimuli/rescaled_final/0420_fw.mp4	0.0	189.39971780776978	
33	169.6991159915924	fix_post	2		12	31.0	2.5	/experiments/AOT/AOT_stimuli/rescaled_final/0420_fw.mp4	0.0	189.91621685028076	0.10000109672546387
34	169.79911708831787	fix_pre	0		119	32.0	2.5	/experiments/AOT/AOT_stimuli/rescaled_final/0163_rv.mp4	0.0	190.01621794700623	0.9916880130767822
34	170.78263306617737	pulse	0	t		32.0	2.5	/experiments/AOT/AOT_stimuli/rescaled_final/0163_rv.mp4	0.0	190.99973392486572	
34	170.79080510139465	movie	1		244	32.0	2.5	/experiments/AOT/AOT_stimuli/rescaled_final/0163_rv.mp4	0.0	191.007905960083	2.508301019668579
34	172.38252305984497	pulse	1	t		32.0	2.5	/experiments/AOT/AOT_stimuli/rescaled_final/0163_rv.mp4	0.0	192.59962391853333	
34	173.29910612106323	fix_post	2		12	32.0	2.5	/experiments/AOT/AOT_stimuli/rescaled_final/0163_rv.mp4	0.0	193.5162069797516	0.09996485710144043
35	173.39907097816467	fix_pre	0		120	33.0	2.5	blank	1.0	193.61617183685303	1.0000851154327393
35	173.9826271533966	pulse	0	t		33.0	2.5	blank	1.0	194.19972801208496	
35	174.3991560935974	movie	1		300	33.0	2.5	blank	1.0	194.61625695228577	2.499898910522461
35	175.5825719833374	pulse	1	t		33.0	2.5	blank	1.0	195.79967284202576	
35	176.89905500411987	fix_post	2		12	33.0	2.5	blank	1.0	197.11615586280823	0.10008692741394043
36	176.9991419315338	fix_pre	0		120	34.0	2.5	/experiments/AOT/AOT_stimuli/rescaled_final/0824_fw.mp4	0.0	197.21624279022217	0.9998931884765625
36	177.18255400657654	pulse	0	t		34.0	2.5	/experiments/AOT/AOT_stimuli/rescaled_final/0824_fw.mp4	0.0	197.3996548652649	
36	177.99903512001038	movie	1		245	34.0	2.5	/experiments/AOT/AOT_stimuli/rescaled_final/0824_fw.mp4	0.0	198.21613597869873	2.500102996826172
36	178.78262996673584	pulse	1	t		34.0	2.5	/experiments/AOT/AOT_stimuli/rescaled_final/0824_fw.mp4	0.0	198.9997308254242	
36	180.38107800483704	pulse	1	t		34.0	2.5	/experiments/AOT/AOT_stimuli/rescaled_final/0824_fw.mp4	0.0	200.5981788635254	
36	180.49913811683655	fix_post	2		12	34.0	2.5	/experiments/AOT/AOT_stimuli/rescaled_final/0824_fw.mp4	0.0	200.7162389755249	0.10002803802490234
37	180.59916615486145	fix_pre	0		120	35.0	2.5	/experiments/AOT/AOT_stimuli/rescaled_final/1706_fw.mp4	0.0	200.8162670135498	0.9998729228973389
37	181.5990390777588	movie	1		245	35.0	2.5	/experiments/AOT/AOT_stimuli/rescaled_final/1706_fw.mp4	0.0	201.81613993644714	2.5000269412994385
37	181.98188304901123	pulse	1	t		35.0	2.5	/experiments/AOT/AOT_stimuli/rescaled_final/1706_fw.mp4	0.0	202.19898390769958	
37	183.58261895179749	pulse	1	t		35.0	2.5	/experiments/AOT/AOT_stimuli/rescaled_final/1706_fw.mp4	0.0	203.79971981048584	
37	184.09906601905823	fix_post	2		12	35.0	2.5	/experiments/AOT/AOT_stimuli/rescaled_final/1706_fw.mp4	0.0	204.31616687774658	0.10003900527954102
38	184.19910502433777	fix_pre	0		119	36.0	2.5	/experiments/AOT/AOT_stimuli/rescaled_final/0664_rv.mp4	0.0	204.41620588302612	0.9915769100189209
38	185.18252611160278	pulse	0	t		36.0	2.5	/experiments/AOT/AOT_stimuli/rescaled_final/0664_rv.mp4	0.0	205.39962697029114	
38	185.1906819343567	movie	1		244	36.0	2.5	/experiments/AOT/AOT_stimuli/rescaled_final/0664_rv.mp4	0.0	205.40778279304504	2.5083000659942627
38	186.78214812278748	pulse	1	t		36.0	2.5	/experiments/AOT/AOT_stimuli/rescaled_final/0664_rv.mp4	0.0	206.99924898147583	
38	187.69898200035095	fix_post	2		12	36.0	2.5	/experiments/AOT/AOT_stimuli/rescaled_final/0664_rv.mp4	0.0	207.9160828590393	0.10002613067626953
39	187.79900813102722	fix_pre	0		120	37.0	2.5	/experiments/AOT/AOT_stimuli/rescaled_final/1841_rv.mp4	0.0	208.01610898971558	1.0000298023223877
39	188.38259196281433	pulse	0	t		37.0	2.5	/experiments/AOT/AOT_stimuli/rescaled_final/1841_rv.mp4	0.0	208.59969282150269	
39	188.7990379333496	movie	1		244	37.0	2.5	/experiments/AOT/AOT_stimuli/rescaled_final/1841_rv.mp4	0.0	209.01613879203796	2.500049114227295
39	189.98259115219116	pulse	1	t		37.0	2.5	/experiments/AOT/AOT_stimuli/rescaled_final/1841_rv.mp4	0.0	210.19969201087952	
39	191.2990870475769	fix_post	2		12	37.0	2.5	/experiments/AOT/AOT_stimuli/rescaled_final/1841_rv.mp4	0.0	211.51618790626526	0.09999799728393555
40	191.39908504486084	fix_pre	0		120	38.0	2.5	/experiments/AOT/AOT_stimuli/rescaled_final/0670_fw.mp4	0.0	211.6161859035492	0.9999639987945557
40	191.58254313468933	pulse	0	t		38.0	2.5	/experiments/AOT/AOT_stimuli/rescaled_final/0670_fw.mp4	0.0	211.79964399337769	
40	192.3990490436554	movie	1		243	38.0	2.5	/experiments/AOT/AOT_stimuli/rescaled_final/0670_fw.mp4	0.0	212.61614990234375	2.500185966491699
40	193.18248295783997	pulse	1	t		38.0	2.5	/experiments/AOT/AOT_stimuli/rescaled_final/0670_fw.mp4	0.0	213.39958381652832	
40	194.7808380126953	pulse	1	t		38.0	2.5	/experiments/AOT/AOT_stimuli/rescaled_final/0670_fw.mp4	0.0	214.99793887138367	
40	194.8992350101471	fix_post	2		12	38.0	2.5	/experiments/AOT/AOT_stimuli/rescaled_final/0670_fw.mp4	0.0	215.11633586883545	0.09981608390808105
41	194.99905109405518	fix_pre	0		120	39.0	2.5	/experiments/AOT/AOT_stimuli/rescaled_final/0455_rv.mp4	0.0	215.21615195274353	1.0000460147857666
41	195.99909710884094	movie	1		245	39.0	2.5	/experiments/AOT/AOT_stimuli/rescaled_final/0455_rv.mp4	0.0	216.2161979675293	2.4999778270721436
41	196.38221406936646	pulse	1	t		39.0	2.5	/experiments/AOT/AOT_stimuli/rescaled_final/0455_rv.mp4	0.0	216.5993149280548	
41	197.98254895210266	pulse	1	t		39.0	2.5	/experiments/AOT/AOT_stimuli/rescaled_final/0455_rv.mp4	0.0	218.19964981079102	
41	198.4990749359131	fix_post	2		12	39.0	2.5	/experiments/AOT/AOT_stimuli/rescaled_final/0455_rv.mp4	0.0	218.71617579460144	0.0999300479888916
42	198.59900498390198	fix_pre	0		119	40.0	2.5	/experiments/AOT/AOT_stimuli/rescaled_final/0533_rv.mp4	0.0	218.81610584259033	0.9916260242462158
42	199.58214116096497	pulse	0	t		40.0	2.5	/experiments/AOT/AOT_stimuli/rescaled_final/0533_rv.mp4	0.0	219.79924201965332	
42	199.5906310081482	movie	1		246	40.0	2.5	/experiments/AOT/AOT_stimuli/rescaled_final/0533_rv.mp4	0.0	219.80773186683655	2.508718967437744
42	201.18218207359314	pulse	1	t		40.0	2.5	/experiments/AOT/AOT_stimuli/rescaled_final/0533_rv.mp4	0.0	221.3992829322815	
42	202.09934997558594	fix_post	2		12	40.0	2.5	/experiments/AOT/AOT_stimuli/rescaled_final/0533_rv.mp4	0.0	222.3164508342743	0.09956502914428711
43	202.19891500473022	fix_pre	0		120	41.0	2.5	/experiments/AOT/AOT_stimuli/rescaled_final/0141_rv.mp4	0.0	222.41601586341858	1.0001280307769775
43	202.78248500823975	pulse	0	t		41.0	2.5	/experiments/AOT/AOT_stimuli/rescaled_final/0141_rv.mp4	0.0	222.9995858669281	
43	203.1990430355072	movie	1		246	41.0	2.5	/experiments/AOT/AOT_stimuli/rescaled_final/0141_rv.mp4	0.0	223.41614389419556	2.5
43	204.38251900672913	pulse	1	t		41.0	2.5	/experiments/AOT/AOT_stimuli/rescaled_final/0141_rv.mp4	0.0	224.59961986541748	
43	205.6990430355072	fix_post	2		12	41.0	2.5	/experiments/AOT/AOT_stimuli/rescaled_final/0141_rv.mp4	0.0	225.91614389419556	0.09993505477905273
44	205.79897809028625	fix_pre	0		120	42.0	2.5	blank	1.0	226.0160789489746	0.9999680519104004
44	205.98258209228516	pulse	0	t		42.0	2.5	blank	1.0	226.1996829509735	
44	206.79894614219666	movie	1		300	42.0	2.5	blank	1.0	227.016047000885	2.499985933303833
44	207.58244109153748	pulse	1	t		42.0	2.5	blank	1.0	227.79954195022583	
44	209.18249416351318	pulse	1	t		42.0	2.5	blank	1.0	229.39959502220154	
44	209.2989320755005	fix_post	2		12	42.0	2.5	blank	1.0	229.51603293418884	0.10001087188720703
45	209.3989429473877	fix_pre	0		120	43.0	2.5	/experiments/AOT/AOT_stimuli/rescaled_final/1613_fw.mp4	0.0	229.61604380607605	1.0000030994415283
45	210.39894604682922	movie	1		244	43.0	2.5	/experiments/AOT/AOT_stimuli/rescaled_final/1613_fw.mp4	0.0	230.61604690551758	2.4999771118164062
45	210.782133102417	pulse	1	t		43.0	2.5	/experiments/AOT/AOT_stimuli/rescaled_final/1613_fw.mp4	0.0	230.99923396110535	
45	212.38241314888	pulse	1	t		43.0	2.5	/experiments/AOT/AOT_stimuli/rescaled_final/1613_fw.mp4	0.0	232.59951400756836	
45	212.89892315864563	fix_post	2		12	43.0	2.5	/experiments/AOT/AOT_stimuli/rescaled_final/1613_fw.mp4	0.0	233.11602401733398	0.09998083114624023
46	212.99890398979187	fix_pre	0		119	44.0	2.5	/experiments/AOT/AOT_stimuli/rescaled_final/1263_rv.mp4	0.0	233.21600484848022	0.9916870594024658
46	213.98240494728088	pulse	0	t		44.0	2.5	/experiments/AOT/AOT_stimuli/rescaled_final/1263_rv.mp4	0.0	234.19950580596924	
46	213.99059104919434	movie	1		246	44.0	2.5	/experiments/AOT/AOT_stimuli/rescaled_final/1263_rv.mp4	0.0	234.2076919078827	2.508323907852173
46	215.58184695243835	pulse	1	t		44.0	2.5	/experiments/AOT/AOT_stimuli/rescaled_final/1263_rv.mp4	0.0	235.7989478111267	
46	216.4989149570465	fix_post	2		12	44.0	2.5	/experiments/AOT/AOT_stimuli/rescaled_final/1263_rv.mp4	0.0	236.71601581573486	0.10002017021179199
47	216.5989351272583	fix_pre	0		120	45.0	2.5	/experiments/AOT/AOT_stimuli/rescaled_final/1875_fw.mp4	0.0	236.81603598594666	1.0
47	217.182471036911	pulse	0	t		45.0	2.5	/experiments/AOT/AOT_stimuli/rescaled_final/1875_fw.mp4	0.0	237.39957189559937	
47	217.5989351272583	movie	1		245	45.0	2.5	/experiments/AOT/AOT_stimuli/rescaled_final/1875_fw.mp4	0.0	237.81603598594666	2.500048875808716
47	218.782457113266	pulse	1	t		45.0	2.5	/experiments/AOT/AOT_stimuli/rescaled_final/1875_fw.mp4	0.0	238.99955797195435	
47	220.09898400306702	fix_post	2		12	45.0	2.5	/experiments/AOT/AOT_stimuli/rescaled_final/1875_fw.mp4	0.0	240.31608486175537	0.10000300407409668
48	220.1989870071411	fix_pre	0		120	46.0	2.5	/experiments/AOT/AOT_stimuli/rescaled_final/1332_fw.mp4	0.0	240.41608786582947	0.9998979568481445
48	220.38243103027344	pulse	0	t		46.0	2.5	/experiments/AOT/AOT_stimuli/rescaled_final/1332_fw.mp4	0.0	240.5995318889618	
48	221.19888496398926	movie	1		244	46.0	2.5	/experiments/AOT/AOT_stimuli/rescaled_final/1332_fw.mp4	0.0	241.4159858226776	2.4996981620788574
48	221.98246097564697	pulse	1	t		46.0	2.5	/experiments/AOT/AOT_stimuli/rescaled_final/1332_fw.mp4	0.0	242.19956183433533	
48	223.58076405525208	pulse	1	t		46.0	2.5	/experiments/AOT/AOT_stimuli/rescaled_final/1332_fw.mp4	0.0	243.79786491394043	
48	223.69858312606812	fix_post	2		12	46.0	2.5	/experiments/AOT/AOT_stimuli/rescaled_final/1332_fw.mp4	0.0	243.91568398475647	0.10034584999084473
49	223.79892897605896	fix_pre	0		120	47.0	2.5	/experiments/AOT/AOT_stimuli/rescaled_final/0925_fw.mp4	0.0	244.01602983474731	0.9995641708374023
49	224.79849314689636	movie	1		246	47.0	2.5	/experiments/AOT/AOT_stimuli/rescaled_final/0925_fw.mp4	0.0	245.01559400558472	2.5003697872161865
49	225.1832959651947	pulse	1	t		47.0	2.5	/experiments/AOT/AOT_stimuli/rescaled_final/0925_fw.mp4	0.0	245.40039682388306	
49	226.78236603736877	pulse	1	t		47.0	2.5	/experiments/AOT/AOT_stimuli/rescaled_final/0925_fw.mp4	0.0	246.99946689605713	
49	227.29886293411255	fix_post	2		12	47.0	2.5	/experiments/AOT/AOT_stimuli/rescaled_final/0925_fw.mp4	0.0	247.5159637928009	0.09995818138122559
50	227.39882111549377	fix_pre	0		119	48.0	2.5	blank	1.0	247.61592197418213	0.9917089939117432
50	228.38235998153687	pulse	0	t		48.0	2.5	blank	1.0	248.59946084022522	
50	228.39053010940552	movie	1		301	48.0	2.5	blank	1.0	248.60763096809387	2.5083580017089844
50	229.98233008384705	pulse	1	t		48.0	2.5	blank	1.0	250.1994309425354	
50	230.8988881111145	fix_post	2		12	48.0	2.5	blank	1.0	251.11598896980286	0.09996986389160156
51	230.9988579750061	fix_pre	0		120	49.0	2.5	/experiments/AOT/AOT_stimuli/rescaled_final/1058_rv.mp4	0.0	251.21595883369446	1.0000181198120117
51	231.58234214782715	pulse	0	t		49.0	2.5	/experiments/AOT/AOT_stimuli/rescaled_final/1058_rv.mp4	0.0	251.7994430065155	
51	231.99887609481812	movie	1		244	49.0	2.5	/experiments/AOT/AOT_stimuli/rescaled_final/1058_rv.mp4	0.0	252.21597695350647	2.4999709129333496
51	233.18243408203125	pulse	1	t		49.0	2.5	/experiments/AOT/AOT_stimuli/rescaled_final/1058_rv.mp4	0.0	253.3995349407196	
51	234.49884700775146	fix_post	2		12	49.0	2.5	/experiments/AOT/AOT_stimuli/rescaled_final/1058_rv.mp4	0.0	254.71594786643982	0.0999290943145752
52	234.59877610206604	fix_pre	0		120	50.0	2.5	/experiments/AOT/AOT_stimuli/rescaled_final/1435_rv.mp4	0.0	254.8158769607544	0.9999799728393555
52	234.782320022583	pulse	0	t		50.0	2.5	/experiments/AOT/AOT_stimuli/rescaled_final/1435_rv.mp4	0.0	254.99942088127136	
52	235.5987560749054	movie	1		243	50.0	2.5	/experiments/AOT/AOT_stimuli/rescaled_final/1435_rv.mp4	0.0	255.81585693359375	2.5001580715179443
52	236.38232016563416	pulse	1	t		50.0	2.5	/experiments/AOT/AOT_stimuli/rescaled_final/1435_rv.mp4	0.0	256.5994210243225	
52	237.98075103759766	pulse	1	t		50.0	2.5	/experiments/AOT/AOT_stimuli/rescaled_final/1435_rv.mp4	0.0	258.197851896286	
52	238.09891414642334	fix_post	2		12	50.0	2.5	/experiments/AOT/AOT_stimuli/rescaled_final/1435_rv.mp4	0.0	258.3160150051117	0.09991979598999023
53	238.19883394241333	fix_pre	0		120	51.0	2.5	/experiments/AOT/AOT_stimuli/rescaled_final/0206_rv.mp4	0.0	258.4159348011017	1.0000381469726562
53	239.198872089386	movie	1		244	51.0	2.5	/experiments/AOT/AOT_stimuli/rescaled_final/0206_rv.mp4	0.0	259.41597294807434	2.5000128746032715
53	239.58198595046997	pulse	1	t		51.0	2.5	/experiments/AOT/AOT_stimuli/rescaled_final/0206_rv.mp4	0.0	259.7990868091583	
53	241.18225002288818	pulse	1	t		51.0	2.5	/experiments/AOT/AOT_stimuli/rescaled_final/0206_rv.mp4	0.0	261.39935088157654	
53	241.69888496398926	fix_post	2		12	51.0	2.5	/experiments/AOT/AOT_stimuli/rescaled_final/0206_rv.mp4	0.0	261.9159858226776	0.09986996650695801
54	241.79875493049622	fix_pre	0		119	52.0	2.5	/experiments/AOT/AOT_stimuli/rescaled_final/1435_fw.mp4	0.0	262.01585578918457	0.9917612075805664
54	242.78231716156006	pulse	0	t		52.0	2.5	/experiments/AOT/AOT_stimuli/rescaled_final/1435_fw.mp4	0.0	262.9994180202484	
54	242.79051613807678	movie	1		244	52.0	2.5	/experiments/AOT/AOT_stimuli/rescaled_final/1435_fw.mp4	0.0	263.00761699676514	2.5082218647003174
54	244.38213801383972	pulse	1	t		52.0	2.5	/experiments/AOT/AOT_stimuli/rescaled_final/1435_fw.mp4	0.0	264.5992388725281	
54	245.2987380027771	fix_post	2		12	52.0	2.5	/experiments/AOT/AOT_stimuli/rescaled_final/1435_fw.mp4	0.0	265.51583886146545	0.10001802444458008
55	245.39875602722168	fix_pre	0		120	53.0	2.5	/experiments/AOT/AOT_stimuli/rescaled_final/1841_fw.mp4	0.0	265.61585688591003	0.9999840259552002
55	245.98234295845032	pulse	0	t		53.0	2.5	/experiments/AOT/AOT_stimuli/rescaled_final/1841_fw.mp4	0.0	266.1994438171387	
55	246.39874005317688	movie	1		244	53.0	2.5	/experiments/AOT/AOT_stimuli/rescaled_final/1841_fw.mp4	0.0	266.61584091186523	2.500049114227295
55	247.58237099647522	pulse	1	t		53.0	2.5	/experiments/AOT/AOT_stimuli/rescaled_final/1841_fw.mp4	0.0	267.7994718551636	
55	248.89878916740417	fix_post	2		12	53.0	2.5	/experiments/AOT/AOT_stimuli/rescaled_final/1841_fw.mp4	0.0	269.11589002609253	0.09994888305664062
56	248.99873805046082	fix_pre	0		120	54.0	2.5	/experiments/AOT/AOT_stimuli/rescaled_final/1613_rv.mp4	0.0	269.21583890914917	1.0000030994415283
56	249.18234205245972	pulse	0	t		54.0	2.5	/experiments/AOT/AOT_stimuli/rescaled_final/1613_rv.mp4	0.0	269.39944291114807	
56	249.99874114990234	movie	1		244	54.0	2.5	/experiments/AOT/AOT_stimuli/rescaled_final/1613_rv.mp4	0.0	270.2158420085907	2.4995758533477783
56	250.78225994110107	pulse	1	t		54.0	2.5	/experiments/AOT/AOT_stimuli/rescaled_final/1613_rv.mp4	0.0	270.99936079978943	
56	252.3822729587555	pulse	1	t		54.0	2.5	/experiments/AOT/AOT_stimuli/rescaled_final/1613_rv.mp4	0.0	272.59937381744385	
56	252.49831700325012	fix_post	2		12	54.0	2.5	/experiments/AOT/AOT_stimuli/rescaled_final/1613_rv.mp4	0.0	272.7154178619385	0.10007905960083008
57	252.59839606285095	fix_pre	0		120	55.0	2.5	/experiments/AOT/AOT_stimuli/rescaled_final/0455_rv.mp4	0.0	272.8154969215393	1.0005600452423096
57	253.59895610809326	movie	1		246	55.0	2.5	/experiments/AOT/AOT_stimuli/rescaled_final/0455_rv.mp4	0.0	273.8160569667816	2.499927043914795
57	253.9820749759674	pulse	1	t		55.0	2.5	/experiments/AOT/AOT_stimuli/rescaled_final/0455_rv.mp4	0.0	274.19917583465576	
57	255.5817630290985	pulse	1	t		55.0	2.5	/experiments/AOT/AOT_stimuli/rescaled_final/0455_rv.mp4	0.0	275.79886388778687	
57	256.09888315200806	fix_post	2		12	55.0	2.5	/experiments/AOT/AOT_stimuli/rescaled_final/0455_rv.mp4	0.0	276.3159840106964	0.09957480430603027
58	256.1984579563141	fix_pre	0		119	56.0	2.5	blank	1.0	276.41555881500244	0.9921801090240479
58	257.1820089817047	pulse	0	t		56.0	2.5	blank	1.0	277.39910984039307	
58	257.19063806533813	movie	1		301	56.0	2.5	blank	1.0	277.4077389240265	2.5081870555877686
58	258.7822880744934	pulse	1	t		56.0	2.5	blank	1.0	278.99938893318176	
58	259.6988251209259	fix_post	2		12	56.0	2.5	blank	1.0	279.91592597961426	0.09995889663696289
59	259.79878401756287	fix_pre	0		120	57.0	2.5	/experiments/AOT/AOT_stimuli/rescaled_final/1613_rv.mp4	0.0	280.0158848762512	0.9999330043792725
59	260.38235306739807	pulse	0	t		57.0	2.5	/experiments/AOT/AOT_stimuli/rescaled_final/1613_rv.mp4	0.0	280.5994539260864	
59	260.79871702194214	movie	1		246	57.0	2.5	/experiments/AOT/AOT_stimuli/rescaled_final/1613_rv.mp4	0.0	281.0158178806305	2.499894142150879
59	261.9822881221771	pulse	1	t		57.0	2.5	/experiments/AOT/AOT_stimuli/rescaled_final/1613_rv.mp4	0.0	282.1993889808655	
59	263.298611164093	fix_post	2		12	57.0	2.5	/experiments/AOT/AOT_stimuli/rescaled_final/1613_rv.mp4	0.0	283.5157120227814	0.10002589225769043
60	263.3986370563507	fix_pre	0		120	58.0	2.5	/experiments/AOT/AOT_stimuli/rescaled_final/1263_rv.mp4	0.0	283.61573791503906	1.0000309944152832
60	263.5823049545288	pulse	0	t		58.0	2.5	/experiments/AOT/AOT_stimuli/rescaled_final/1263_rv.mp4	0.0	283.79940581321716	
60	264.398668050766	movie	1		245	58.0	2.5	/experiments/AOT/AOT_stimuli/rescaled_final/1263_rv.mp4	0.0	284.61576890945435	2.4999849796295166
60	265.1820721626282	pulse	1	t		58.0	2.5	/experiments/AOT/AOT_stimuli/rescaled_final/1263_rv.mp4	0.0	285.3991730213165	
60	266.78036999702454	pulse	1	t		58.0	2.5	/experiments/AOT/AOT_stimuli/rescaled_final/1263_rv.mp4	0.0	286.9974708557129	
60	266.8986530303955	fix_post	2		12	58.0	2.5	/experiments/AOT/AOT_stimuli/rescaled_final/1263_rv.mp4	0.0	287.11575388908386	0.09998893737792969
61	266.99864196777344	fix_pre	0		120	59.0	2.5	/experiments/AOT/AOT_stimuli/rescaled_final/1460_fw.mp4	0.0	287.2157428264618	0.9999871253967285
61	267.99862909317017	movie	1		246	59.0	2.5	/experiments/AOT/AOT_stimuli/rescaled_final/1460_fw.mp4	0.0	288.2157299518585	2.4996399879455566
61	268.38209104537964	pulse	1	t		59.0	2.5	/experiments/AOT/AOT_stimuli/rescaled_final/1460_fw.mp4	0.0	288.599191904068	
61	269.9820649623871	pulse	1	t		59.0	2.5	/experiments/AOT/AOT_stimuli/rescaled_final/1460_fw.mp4	0.0	290.19916582107544	
61	270.4982690811157	fix_post	2		12	59.0	2.5	/experiments/AOT/AOT_stimuli/rescaled_final/1460_fw.mp4	0.0	290.7153699398041	0.10032987594604492
62	270.59859895706177	fix_pre	0		119	60.0	2.5	/experiments/AOT/AOT_stimuli/rescaled_final/0513_rv.mp4	0.0	290.8156998157501	0.9917571544647217
62	271.5821039676666	pulse	0	t		60.0	2.5	/experiments/AOT/AOT_stimuli/rescaled_final/0513_rv.mp4	0.0	291.799204826355	
62	271.5903561115265	movie	1		246	60.0	2.5	/experiments/AOT/AOT_stimuli/rescaled_final/0513_rv.mp4	0.0	291.80745697021484	2.507877826690674
62	273.18208503723145	pulse	1	t		60.0	2.5	/experiments/AOT/AOT_stimuli/rescaled_final/0513_rv.mp4	0.0	293.3991858959198	
62	274.09823393821716	fix_post	2		12	60.0	2.5	/experiments/AOT/AOT_stimuli/rescaled_final/0513_rv.mp4	0.0	294.3153347969055	0.10034513473510742
63	274.19857907295227	fix_pre	0		120	61.0	2.5	blank	1.0	294.4156799316406	1.0000450611114502
63	274.78217101097107	pulse	0	t		61.0	2.5	blank	1.0	294.9992718696594	
63	275.1986241340637	movie	1		300	61.0	2.5	blank	1.0	295.4157249927521	2.499912977218628
63	276.382178068161	pulse	1	t		61.0	2.5	blank	1.0	296.59927892684937	
63	277.69853711128235	fix_post	2		12	61.0	2.5	blank	1.0	297.9156379699707	0.0996708869934082
64	277.79820799827576	fix_pre	0		120	62.0	2.5	/experiments/AOT/AOT_stimuli/rescaled_final/0794_fw.mp4	0.0	298.0153088569641	1.0003769397735596
64	277.982146024704	pulse	0	t		62.0	2.5	/experiments/AOT/AOT_stimuli/rescaled_final/0794_fw.mp4	0.0	298.19924688339233	
64	278.7985849380493	movie	1		244	62.0	2.5	/experiments/AOT/AOT_stimuli/rescaled_final/0794_fw.mp4	0.0	299.01568579673767	2.5000360012054443
64	279.5821430683136	pulse	1	t		62.0	2.5	/experiments/AOT/AOT_stimuli/rescaled_final/0794_fw.mp4	0.0	299.79924392700195	
64	281.1778919696808	pulse	1	t		62.0	2.5	/experiments/AOT/AOT_stimuli/rescaled_final/0794_fw.mp4	0.0	301.39499282836914	
64	281.29862093925476	fix_post	2		12	62.0	2.5	/experiments/AOT/AOT_stimuli/rescaled_final/0794_fw.mp4	0.0	301.5157217979431	0.09993219375610352
65	281.39855313301086	fix_pre	0		120	63.0	2.5	/experiments/AOT/AOT_stimuli/rescaled_final/0024_rv.mp4	0.0	301.6156539916992	1.0000758171081543
65	282.398628950119	movie	1		247	63.0	2.5	/experiments/AOT/AOT_stimuli/rescaled_final/0024_rv.mp4	0.0	302.6157298088074	2.50004506111145
65	282.7819781303406	pulse	1	t		63.0	2.5	/experiments/AOT/AOT_stimuli/rescaled_final/0024_rv.mp4	0.0	302.99907898902893	
65	284.3821110725403	pulse	1	t		63.0	2.5	/experiments/AOT/AOT_stimuli/rescaled_final/0024_rv.mp4	0.0	304.59921193122864	
65	284.89867401123047	fix_post	2		12	63.0	2.5	/experiments/AOT/AOT_stimuli/rescaled_final/0024_rv.mp4	0.0	305.1157748699188	0.09995293617248535
66	284.99862694740295	fix_pre	0		119	64.0	2.5	/experiments/AOT/AOT_stimuli/rescaled_final/1641_fw.mp4	0.0	305.2157278060913	0.9916510581970215
66	285.9820921421051	pulse	0	t		64.0	2.5	/experiments/AOT/AOT_stimuli/rescaled_final/1641_fw.mp4	0.0	306.19919300079346	
66	285.9902780056	movie	1		246	64.0	2.5	/experiments/AOT/AOT_stimuli/rescaled_final/1641_fw.mp4	0.0	306.20737886428833	2.5078041553497314
66	287.581995010376	pulse	1	t		64.0	2.5	/experiments/AOT/AOT_stimuli/rescaled_final/1641_fw.mp4	0.0	307.79909586906433	
66	288.4980821609497	fix_post	2		12	64.0	2.5	/experiments/AOT/AOT_stimuli/rescaled_final/1641_fw.mp4	0.0	308.71518301963806	0.10045194625854492
67	288.59853410720825	fix_pre	0		120	65.0	2.5	/experiments/AOT/AOT_stimuli/rescaled_final/1510_fw.mp4	0.0	308.8156349658966	0.9999890327453613
67	289.18211793899536	pulse	0	t		65.0	2.5	/experiments/AOT/AOT_stimuli/rescaled_final/1510_fw.mp4	0.0	309.3992187976837	
67	289.5985231399536	movie	1		245	65.0	2.5	/experiments/AOT/AOT_stimuli/rescaled_final/1510_fw.mp4	0.0	309.81562399864197	2.4999828338623047
67	290.782133102417	pulse	1	t		65.0	2.5	/experiments/AOT/AOT_stimuli/rescaled_final/1510_fw.mp4	0.0	310.99923396110535	
67	292.0985059738159	fix_post	2		12	65.0	2.5	/experiments/AOT/AOT_stimuli/rescaled_final/1510_fw.mp4	0.0	312.3156068325043	0.10002803802490234
68	292.1985340118408	fix_pre	0		120	66.0	2.5	/experiments/AOT/AOT_stimuli/rescaled_final/0640_fw.mp4	0.0	312.4156348705292	1.0000600814819336
68	292.3820741176605	pulse	0	t		66.0	2.5	/experiments/AOT/AOT_stimuli/rescaled_final/0640_fw.mp4	0.0	312.5991749763489	
68	293.19859409332275	movie	1		244	66.0	2.5	/experiments/AOT/AOT_stimuli/rescaled_final/0640_fw.mp4	0.0	313.4156949520111	2.4999139308929443
68	293.98204493522644	pulse	1	t		66.0	2.5	/experiments/AOT/AOT_stimuli/rescaled_final/0640_fw.mp4	0.0	314.1991457939148	
68	295.5806770324707	pulse	1	t		66.0	2.5	/experiments/AOT/AOT_stimuli/rescaled_final/0640_fw.mp4	0.0	315.79777789115906	
68	295.6985080242157	fix_post	2		12	66.0	2.5	/experiments/AOT/AOT_stimuli/rescaled_final/0640_fw.mp4	0.0	315.91560888290405	0.0999901294708252
69	295.7984981536865	fix_pre	0		120	67.0	2.5	/experiments/AOT/AOT_stimuli/rescaled_final/0664_rv.mp4	0.0	316.0155990123749	0.9999969005584717
69	296.798495054245	movie	1		245	67.0	2.5	/experiments/AOT/AOT_stimuli/rescaled_final/0664_rv.mp4	0.0	317.01559591293335	2.4999868869781494
69	297.1814579963684	pulse	1	t		67.0	2.5	/experiments/AOT/AOT_stimuli/rescaled_final/0664_rv.mp4	0.0	317.39855885505676	
69	298.78199100494385	pulse	1	t		67.0	2.5	/experiments/AOT/AOT_stimuli/rescaled_final/0664_rv.mp4	0.0	318.9990918636322	
69	299.29848194122314	fix_post	2		12	67.0	2.5	/experiments/AOT/AOT_stimuli/rescaled_final/0664_rv.mp4	0.0	319.5155827999115	0.09998703002929688
70	299.39846897125244	fix_pre	0		119	68.0	2.5	blank	1.0	319.6155698299408	0.9917821884155273
70	300.3819921016693	pulse	0	t		68.0	2.5	blank	1.0	320.59909296035767	
70	300.39025115966797	movie	1		301	68.0	2.5	blank	1.0	320.6073520183563	2.5083038806915283
70	301.9820439815521	pulse	1	t		68.0	2.5	blank	1.0	322.1991448402405	
70	302.8985550403595	fix_post	2		12	68.0	2.5	blank	1.0	323.11565589904785	0.09993410110473633
71	302.99848914146423	fix_pre	0		120	69.0	2.5	/experiments/AOT/AOT_stimuli/rescaled_final/1215_fw.mp4	0.0	323.2155900001526	1.0000050067901611
71	303.58207297325134	pulse	0	t		69.0	2.5	/experiments/AOT/AOT_stimuli/rescaled_final/1215_fw.mp4	0.0	323.7991738319397	
71	303.9984941482544	movie	1		244	69.0	2.5	/experiments/AOT/AOT_stimuli/rescaled_final/1215_fw.mp4	0.0	324.21559500694275	2.5000159740448
71	305.1820499897003	pulse	1	t		69.0	2.5	/experiments/AOT/AOT_stimuli/rescaled_final/1215_fw.mp4	0.0	325.3991508483887	
71	306.4985101222992	fix_post	2		12	69.0	2.5	/experiments/AOT/AOT_stimuli/rescaled_final/1215_fw.mp4	0.0	326.71561098098755	0.10006093978881836
72	306.598571062088	fix_pre	0		120	70.0	2.5	/experiments/AOT/AOT_stimuli/rescaled_final/1383_fw.mp4	0.0	326.81567192077637	1.0000300407409668
72	306.78207302093506	pulse	0	t		70.0	2.5	/experiments/AOT/AOT_stimuli/rescaled_final/1383_fw.mp4	0.0	326.9991738796234	
72	307.598601102829	movie	1		243	70.0	2.5	/experiments/AOT/AOT_stimuli/rescaled_final/1383_fw.mp4	0.0	327.81570196151733	2.499969959259033
72	308.38204312324524	pulse	1	t		70.0	2.5	/experiments/AOT/AOT_stimuli/rescaled_final/1383_fw.mp4	0.0	328.5991439819336	
72	309.98045802116394	pulse	1	t		70.0	2.5	/experiments/AOT/AOT_stimuli/rescaled_final/1383_fw.mp4	0.0	330.1975588798523	
72	310.098571062088	fix_post	2		12	70.0	2.5	/experiments/AOT/AOT_stimuli/rescaled_final/1383_fw.mp4	0.0	330.31567192077637	0.09947800636291504
73	310.1980490684509	fix_pre	0		120	71.0	2.5	/experiments/AOT/AOT_stimuli/rescaled_final/1344_fw.mp4	0.0	330.4151499271393	1.0000438690185547
73	311.1980929374695	movie	1		244	71.0	2.5	/experiments/AOT/AOT_stimuli/rescaled_final/1344_fw.mp4	0.0	331.41519379615784	2.5002291202545166
73	311.5826029777527	pulse	1	t		71.0	2.5	/experiments/AOT/AOT_stimuli/rescaled_final/1344_fw.mp4	0.0	331.79970383644104	
73	313.18176007270813	pulse	1	t		71.0	2.5	/experiments/AOT/AOT_stimuli/rescaled_final/1344_fw.mp4	0.0	333.3988609313965	
73	313.698322057724	fix_post	2		12	71.0	2.5	/experiments/AOT/AOT_stimuli/rescaled_final/1344_fw.mp4	0.0	333.91542291641235	0.1004340648651123
74	313.7987561225891	fix_pre	0		119	72.0	2.5	/experiments/AOT/AOT_stimuli/rescaled_final/0869_rv.mp4	0.0	334.01585698127747	0.9914438724517822
74	314.78197407722473	pulse	0	t		72.0	2.5	/experiments/AOT/AOT_stimuli/rescaled_final/0869_rv.mp4	0.0	334.9990749359131	
74	314.7901999950409	movie	1		246	72.0	2.5	/experiments/AOT/AOT_stimuli/rescaled_final/0869_rv.mp4	0.0	335.00730085372925	2.508244037628174
74	316.3816730976105	pulse	1	t		72.0	2.5	/experiments/AOT/AOT_stimuli/rescaled_final/0869_rv.mp4	0.0	336.5987739562988	
74	317.29844403266907	fix_post	2		12	72.0	2.5	/experiments/AOT/AOT_stimuli/rescaled_final/0869_rv.mp4	0.0	337.5155448913574	0.099945068359375
75	317.39838910102844	fix_pre	0		120	73.0	2.5	/experiments/AOT/AOT_stimuli/rescaled_final/2024_rv.mp4	0.0	337.6154899597168	1.0001509189605713
75	317.9819860458374	pulse	0	t		73.0	2.5	/experiments/AOT/AOT_stimuli/rescaled_final/2024_rv.mp4	0.0	338.19908690452576	
75	318.398540019989	movie	1		245	73.0	2.5	/experiments/AOT/AOT_stimuli/rescaled_final/2024_rv.mp4	0.0	338.61564087867737	2.499843120574951
75	319.58186316490173	pulse	1	t		73.0	2.5	/experiments/AOT/AOT_stimuli/rescaled_final/2024_rv.mp4	0.0	339.7989640235901	
75	320.89838314056396	fix_post	2		12	73.0	2.5	/experiments/AOT/AOT_stimuli/rescaled_final/2024_rv.mp4	0.0	341.1154839992523	0.10002279281616211
76	320.9984059333801	fix_pre	0		120	74.0	2.5	/experiments/AOT/AOT_stimuli/rescaled_final/1902_rv.mp4	0.0	341.2155067920685	0.9999940395355225
76	321.1818780899048	pulse	0	t		74.0	2.5	/experiments/AOT/AOT_stimuli/rescaled_final/1902_rv.mp4	0.0	341.39897894859314	
76	321.99839997291565	movie	1		244	74.0	2.5	/experiments/AOT/AOT_stimuli/rescaled_final/1902_rv.mp4	0.0	342.215500831604	2.500066041946411
76	322.78183698654175	pulse	1	t		74.0	2.5	/experiments/AOT/AOT_stimuli/rescaled_final/1902_rv.mp4	0.0	342.9989378452301	
76	324.3805100917816	pulse	1	t		74.0	2.5	/experiments/AOT/AOT_stimuli/rescaled_final/1902_rv.mp4	0.0	344.59761095046997	
76	324.49846601486206	fix_post	2		12	74.0	2.5	/experiments/AOT/AOT_stimuli/rescaled_final/1902_rv.mp4	0.0	344.7155668735504	0.09995007514953613
77	324.5984160900116	fix_pre	0		120	75.0	2.5	blank	1.0	344.81551694869995	0.9999520778656006
77	325.5983681678772	movie	1		300	75.0	2.5	blank	1.0	345.81546902656555	2.500126838684082
77	325.9818711280823	pulse	1	t		75.0	2.5	blank	1.0	346.19897198677063	
77	327.581894159317	pulse	1	t		75.0	2.5	blank	1.0	347.79899501800537	
77	328.0984950065613	fix_post	2		12	75.0	2.5	blank	1.0	348.31559586524963	0.09987306594848633
78	328.19836807250977	fix_pre	0		119	76.0	2.5	/experiments/AOT/AOT_stimuli/rescaled_final/1980_fw.mp4	0.0	348.4154689311981	0.9916839599609375
78	329.1819019317627	pulse	0	t		76.0	2.5	/experiments/AOT/AOT_stimuli/rescaled_final/1980_fw.mp4	0.0	349.39900279045105	
78	329.1900520324707	movie	1		246	76.0	2.5	/experiments/AOT/AOT_stimuli/rescaled_final/1980_fw.mp4	0.0	349.40715289115906	2.508366107940674
78	330.78152894973755	pulse	1	t		76.0	2.5	/experiments/AOT/AOT_stimuli/rescaled_final/1980_fw.mp4	0.0	350.9986298084259	
78	331.6984181404114	fix_post	2		12	76.0	2.5	/experiments/AOT/AOT_stimuli/rescaled_final/1980_fw.mp4	0.0	351.91551899909973	0.09998297691345215
79	331.79840111732483	fix_pre	0		120	77.0	2.5	/experiments/AOT/AOT_stimuli/rescaled_final/1974_fw.mp4	0.0	352.0155019760132	0.9999508857727051
79	332.381893157959	pulse	0	t		77.0	2.5	/experiments/AOT/AOT_stimuli/rescaled_final/1974_fw.mp4	0.0	352.59899401664734	
79	332.79835200309753	movie	1		245	77.0	2.5	/experiments/AOT/AOT_stimuli/rescaled_final/1974_fw.mp4	0.0	353.0154528617859	2.500016927719116
79	333.9819190502167	pulse	1	t		77.0	2.5	/experiments/AOT/AOT_stimuli/rescaled_final/1974_fw.mp4	0.0	354.19901990890503	
79	335.29836893081665	fix_post	2		12	77.0	2.5	/experiments/AOT/AOT_stimuli/rescaled_final/1974_fw.mp4	0.0	355.515469789505	0.1000211238861084
80	335.39839005470276	fix_pre	0		120	78.0	2.5	/experiments/AOT/AOT_stimuli/rescaled_final/1921_rv.mp4	0.0	355.6154909133911	0.9998960494995117
80	335.58183193206787	pulse	0	t		78.0	2.5	/experiments/AOT/AOT_stimuli/rescaled_final/1921_rv.mp4	0.0	355.7989327907562	
80	336.39828610420227	movie	1		243	78.0	2.5	/experiments/AOT/AOT_stimuli/rescaled_final/1921_rv.mp4	0.0	356.6153869628906	2.5000510215759277
80	337.1818470954895	pulse	1	t		78.0	2.5	/experiments/AOT/AOT_stimuli/rescaled_final/1921_rv.mp4	0.0	357.39894795417786	
80	338.7805161476135	pulse	1	t		78.0	2.5	/experiments/AOT/AOT_stimuli/rescaled_final/1921_rv.mp4	0.0	358.9976170063019	
80	338.8983371257782	fix_post	2		12	78.0	2.5	/experiments/AOT/AOT_stimuli/rescaled_final/1921_rv.mp4	0.0	359.11543798446655	0.10003995895385742
81	338.99837708473206	fix_pre	0		120	79.0	2.5	/experiments/AOT/AOT_stimuli/rescaled_final/1003_rv.mp4	0.0	359.2154779434204	0.9995160102844238
81	339.9978930950165	movie	1		244	79.0	2.5	/experiments/AOT/AOT_stimuli/rescaled_final/1003_rv.mp4	0.0	360.21499395370483	2.5000009536743164
81	340.38172602653503	pulse	1	t		79.0	2.5	/experiments/AOT/AOT_stimuli/rescaled_final/1003_rv.mp4	0.0	360.5988268852234	
81	341.9817810058594	pulse	1	t		79.0	2.5	/experiments/AOT/AOT_stimuli/rescaled_final/1003_rv.mp4	0.0	362.19888186454773	
81	342.4978940486908	fix_post	2		12	79.0	2.5	/experiments/AOT/AOT_stimuli/rescaled_final/1003_rv.mp4	0.0	362.71499490737915	0.10042309761047363
82	342.59831714630127	fix_pre	0		119	80.0	2.5	/experiments/AOT/AOT_stimuli/rescaled_final/0664_fw.mp4	0.0	362.8154180049896	0.991614818572998
82	343.581748008728	pulse	0	t		80.0	2.5	/experiments/AOT/AOT_stimuli/rescaled_final/0664_fw.mp4	0.0	363.7988488674164	
82	343.58993196487427	movie	1		246	80.0	2.5	/experiments/AOT/AOT_stimuli/rescaled_final/0664_fw.mp4	0.0	363.8070328235626	2.508371114730835
82	345.1819529533386	pulse	1	t		80.0	2.5	/experiments/AOT/AOT_stimuli/rescaled_final/0664_fw.mp4	0.0	365.399053812027	
82	346.0983030796051	fix_post	2		12	80.0	2.5	/experiments/AOT/AOT_stimuli/rescaled_final/0664_fw.mp4	0.0	366.31540393829346	0.1000819206237793
83	346.1983850002289	fix_pre	0		120	81.0	2.5	/experiments/AOT/AOT_stimuli/rescaled_final/0607_fw.mp4	0.0	366.41548585891724	0.9999439716339111
83	346.78177094459534	pulse	0	t		81.0	2.5	/experiments/AOT/AOT_stimuli/rescaled_final/0607_fw.mp4	0.0	366.9988718032837	
83	347.1983289718628	movie	1		245	81.0	2.5	/experiments/AOT/AOT_stimuli/rescaled_final/0607_fw.mp4	0.0	367.41542983055115	2.499962091445923
83	348.38182306289673	pulse	1	t		81.0	2.5	/experiments/AOT/AOT_stimuli/rescaled_final/0607_fw.mp4	0.0	368.5989239215851	
83	349.6982910633087	fix_post	2		12	81.0	2.5	/experiments/AOT/AOT_stimuli/rescaled_final/0607_fw.mp4	0.0	369.91539192199707	0.10002708435058594
84	349.7983181476593	fix_pre	0		120	82.0	2.5	/experiments/AOT/AOT_stimuli/rescaled_final/1360_fw.mp4	0.0	370.01541900634766	0.9999618530273438
84	349.98177194595337	pulse	0	t		82.0	2.5	/experiments/AOT/AOT_stimuli/rescaled_final/1360_fw.mp4	0.0	370.1988728046417	
84	350.79828000068665	movie	1		244	82.0	2.5	/experiments/AOT/AOT_stimuli/rescaled_final/1360_fw.mp4	0.0	371.015380859375	2.4999420642852783
84	351.581689119339	pulse	1	t		82.0	2.5	/experiments/AOT/AOT_stimuli/rescaled_final/1360_fw.mp4	0.0	371.79878997802734	
84	353.1817560195923	pulse	1	t		82.0	2.5	/experiments/AOT/AOT_stimuli/rescaled_final/1360_fw.mp4	0.0	373.39885687828064	
84	353.2982220649719	fix_post	2		12	82.0	2.5	/experiments/AOT/AOT_stimuli/rescaled_final/1360_fw.mp4	0.0	373.5153229236603	0.1000509262084961
85	353.3982729911804	fix_pre	0		120	83.0	2.5	blank	1.0	373.6153738498688	1.0000531673431396
85	354.39832615852356	movie	1		300	83.0	2.5	blank	1.0	374.6154270172119	2.499919891357422
85	354.7818081378937	pulse	1	t		83.0	2.5	blank	1.0	374.99890899658203	
85	356.38176703453064	pulse	1	t		83.0	2.5	blank	1.0	376.598867893219	
85	356.898246049881	fix_post	2		12	83.0	2.5	blank	1.0	377.11534690856934	0.10006499290466309
87	356.99831104278564	stim	0		1716					377.215411901474	14.299930095672607
87	357.98173093795776	pulse	0	t						378.1988317966461	
87	359.5818181037903	pulse	0	t						379.79891896247864	
87	361.18175411224365	pulse	0	t						381.398854970932	
87	362.78173208236694	pulse	0	t						382.9988329410553	
87	364.38178515434265	pulse	0	t						384.598886013031	
87	365.98169803619385	pulse	0	t						386.1987988948822	
87	367.58129811286926	pulse	0	t						387.7983989715576	
87	369.18147015571594	pulse	0	t						389.3985710144043	
87	370.78166103363037	pulse	0	t						390.9987618923187	
