trial_nr	onset	event_type	phase	response	nr_frames	movie_index	movie_duration	movie_file	blank	onset_abs	duration
0	0.20829248428344727	stim	0		3					18.120827436447144	0.033274173736572266
0	0.22609543800354004	response	0	space						18.138630390167236	
1	0.24156665802001953	stim	0		4602					18.154101610183716	38.36737608909607
1	38.59877824783325	pulse	0	t						56.51131319999695	
1	38.60894274711609	stim	1		1716					56.521477699279785	14.307132482528687
1	40.18933963775635	pulse	1	t						58.101874589920044	
1	41.78959512710571	pulse	1	t						59.70213007926941	
1	43.38985276222229	pulse	1	t						61.302387714385986	
1	44.99015831947327	pulse	1	t						62.90269327163696	
1	46.59022092819214	pulse	1	t						64.50275588035583	
1	48.190510511398315	pulse	1	t						66.10304546356201	
1	49.782798767089844	pulse	1	t						67.69533371925354	
1	51.38277506828308	pulse	1	t						69.29531002044678	
2	52.916075229644775	fix_pre	0		4	0.0	2.5	/experiments/knapen_AOT/AOT_stimuli/rescaled_final/0515_rv.mp4	0.0	70.82861018180847	0.12512946128845215
2	52.98296904563904	pulse	0	t		0.0	2.5	/experiments/knapen_AOT/AOT_stimuli/rescaled_final/0515_rv.mp4	0.0	70.89550399780273	
2	53.04120469093323	movie	1		292	0.0	2.5	/experiments/knapen_AOT/AOT_stimuli/rescaled_final/0515_rv.mp4	0.0	70.95373964309692	2.4669532775878906
2	54.58312964439392	pulse	1	t		0.0	2.5	/experiments/knapen_AOT/AOT_stimuli/rescaled_final/0515_rv.mp4	0.0	72.49566459655762	
2	55.50815796852112	fix_post	2		12	0.0	2.5	/experiments/knapen_AOT/AOT_stimuli/rescaled_final/0515_rv.mp4	0.0	73.42069292068481	0.10001397132873535
3	55.60817193984985	fix_pre	0		120	1.0	2.5	/experiments/knapen_AOT/AOT_stimuli/rescaled_final/1745_fw.mp4	0.0	73.52070689201355	1.0084590911865234
3	56.18344449996948	pulse	0	t		1.0	2.5	/experiments/knapen_AOT/AOT_stimuli/rescaled_final/1745_fw.mp4	0.0	74.09597945213318	
3	56.61663103103638	movie	1		298	1.0	2.5	/experiments/knapen_AOT/AOT_stimuli/rescaled_final/1745_fw.mp4	0.0	74.52916598320007	2.492042064666748
3	57.783631801605225	pulse	1	t		1.0	2.5	/experiments/knapen_AOT/AOT_stimuli/rescaled_final/1745_fw.mp4	0.0	75.69616675376892	
3	59.108673095703125	fix_post	2		12	1.0	2.5	/experiments/knapen_AOT/AOT_stimuli/rescaled_final/1745_fw.mp4	0.0	77.02120804786682	0.10006093978881836
4	59.20873403549194	fix_pre	0		120	2.0	2.5	/experiments/knapen_AOT/AOT_stimuli/rescaled_final/1657_rv.mp4	0.0	77.12126898765564	1.0000956058502197
4	59.38386821746826	pulse	0	t		2.0	2.5	/experiments/knapen_AOT/AOT_stimuli/rescaled_final/1657_rv.mp4	0.0	77.29640316963196	
4	60.20882964134216	movie	1		300	2.0	2.5	/experiments/knapen_AOT/AOT_stimuli/rescaled_final/1657_rv.mp4	0.0	78.12136459350586	2.5003714561462402
4	60.98414731025696	pulse	1	t		2.0	2.5	/experiments/knapen_AOT/AOT_stimuli/rescaled_final/1657_rv.mp4	0.0	78.89668226242065	
4	62.58438801765442	pulse	1	t		2.0	2.5	/experiments/knapen_AOT/AOT_stimuli/rescaled_final/1657_rv.mp4	0.0	80.49692296981812	
4	62.7092010974884	fix_post	2		12	2.0	2.5	/experiments/knapen_AOT/AOT_stimuli/rescaled_final/1657_rv.mp4	0.0	80.6217360496521	0.10003662109375
5	62.80923771858215	fix_pre	0		120	3.0	2.5	/experiments/knapen_AOT/AOT_stimuli/rescaled_final/1257_fw.mp4	0.0	80.72177267074585	1.0084950923919678
5	63.81773281097412	movie	1		299	3.0	2.5	/experiments/knapen_AOT/AOT_stimuli/rescaled_final/1257_fw.mp4	0.0	81.73026776313782	2.4920411109924316
5	64.18467092514038	pulse	1	t		3.0	2.5	/experiments/knapen_AOT/AOT_stimuli/rescaled_final/1257_fw.mp4	0.0	82.09720587730408	
5	65.78486156463623	pulse	1	t		3.0	2.5	/experiments/knapen_AOT/AOT_stimuli/rescaled_final/1257_fw.mp4	0.0	83.69739651679993	
5	66.30977392196655	fix_post	2		12	3.0	2.5	/experiments/knapen_AOT/AOT_stimuli/rescaled_final/1257_fw.mp4	0.0	84.22230887413025	0.10007452964782715
6	66.40984845161438	fix_pre	0		118	4.0	2.5	/experiments/knapen_AOT/AOT_stimuli/rescaled_final/0674_rv.mp4	0.0	84.32238340377808	0.9917840957641602
6	67.3851056098938	pulse	0	t		4.0	2.5	/experiments/knapen_AOT/AOT_stimuli/rescaled_final/0674_rv.mp4	0.0	85.2976405620575	
6	67.40163254737854	movie	1		297	4.0	2.5	/experiments/knapen_AOT/AOT_stimuli/rescaled_final/0674_rv.mp4	0.0	85.31416749954224	2.5003373622894287
6	68.98544239997864	pulse	1	t		4.0	2.5	/experiments/knapen_AOT/AOT_stimuli/rescaled_final/0674_rv.mp4	0.0	86.89797735214233	
6	69.90196990966797	fix_post	2		12	4.0	2.5	/experiments/knapen_AOT/AOT_stimuli/rescaled_final/0674_rv.mp4	0.0	87.81450486183167	0.10003495216369629
7	70.00200486183167	fix_pre	0		120	5.0	2.5	/experiments/knapen_AOT/AOT_stimuli/rescaled_final/1437_fw.mp4	0.0	87.91453981399536	1.0086333751678467
7	70.58554124832153	pulse	0	t		5.0	2.5	/experiments/knapen_AOT/AOT_stimuli/rescaled_final/1437_fw.mp4	0.0	88.49807620048523	
7	71.01063823699951	movie	1		292	5.0	2.5	/experiments/knapen_AOT/AOT_stimuli/rescaled_final/1437_fw.mp4	0.0	88.92317318916321	2.4918880462646484
7	72.18578743934631	pulse	1	t		5.0	2.5	/experiments/knapen_AOT/AOT_stimuli/rescaled_final/1437_fw.mp4	0.0	90.09832239151001	
7	73.50252628326416	fix_post	2		12	5.0	2.5	/experiments/knapen_AOT/AOT_stimuli/rescaled_final/1437_fw.mp4	0.0	91.41506123542786	0.10001420974731445
8	73.60254049301147	fix_pre	0		120	6.0	2.5	/experiments/knapen_AOT/AOT_stimuli/rescaled_final/0734_fw.mp4	0.0	91.51507544517517	1.0001332759857178
8	73.78606534004211	pulse	0	t		6.0	2.5	/experiments/knapen_AOT/AOT_stimuli/rescaled_final/0734_fw.mp4	0.0	91.69860029220581	
8	74.60267376899719	movie	1		299	6.0	2.5	/experiments/knapen_AOT/AOT_stimuli/rescaled_final/0734_fw.mp4	0.0	92.51520872116089	2.500361204147339
8	75.38626837730408	pulse	1	t		6.0	2.5	/experiments/knapen_AOT/AOT_stimuli/rescaled_final/0734_fw.mp4	0.0	93.29880332946777	
8	76.98350787162781	pulse	1	t		6.0	2.5	/experiments/knapen_AOT/AOT_stimuli/rescaled_final/0734_fw.mp4	0.0	94.8960428237915	
8	77.10303497314453	fix_post	2		12	6.0	2.5	/experiments/knapen_AOT/AOT_stimuli/rescaled_final/0734_fw.mp4	0.0	95.01556992530823	0.10002613067626953
9	77.2030611038208	fix_pre	0		120	7.0	2.5	blank	1.0	95.1155960559845	1.0001490116119385
9	78.20321011543274	movie	1		300	7.0	2.5	blank	1.0	96.11574506759644	2.5004971027374268
9	78.58684992790222	pulse	1	t		7.0	2.5	blank	1.0	96.49938488006592	
9	80.18706202507019	pulse	1	t		7.0	2.5	blank	1.0	98.09959697723389	
9	80.70370721817017	fix_post	2		12	7.0	2.5	blank	1.0	98.61624217033386	0.09992718696594238
10	80.80363440513611	fix_pre	0		119	8.0	2.5	/experiments/knapen_AOT/AOT_stimuli/rescaled_final/0843_rv.mp4	0.0	98.7161693572998	1.0001764297485352
10	81.78728771209717	pulse	0	t		8.0	2.5	/experiments/knapen_AOT/AOT_stimuli/rescaled_final/0843_rv.mp4	0.0	99.69982266426086	
10	81.80381083488464	movie	1		292	8.0	2.5	/experiments/knapen_AOT/AOT_stimuli/rescaled_final/0843_rv.mp4	0.0	99.71634578704834	2.5003292560577393
10	83.38510799407959	pulse	1	t		8.0	2.5	/experiments/knapen_AOT/AOT_stimuli/rescaled_final/0843_rv.mp4	0.0	101.29764294624329	
10	84.30414009094238	fix_post	2		12	8.0	2.5	/experiments/knapen_AOT/AOT_stimuli/rescaled_final/0843_rv.mp4	0.0	102.21667504310608	0.10007691383361816
11	84.404217004776	fix_pre	0		120	9.0	2.5	/experiments/knapen_AOT/AOT_stimuli/rescaled_final/0584_rv.mp4	0.0	102.3167519569397	1.0168728828430176
11	84.98797702789307	pulse	0	t		9.0	2.5	/experiments/knapen_AOT/AOT_stimuli/rescaled_final/0584_rv.mp4	0.0	102.90051198005676	
11	85.42108988761902	movie	1		289	9.0	2.5	/experiments/knapen_AOT/AOT_stimuli/rescaled_final/0584_rv.mp4	0.0	103.33362483978271	2.4836716651916504
11	86.585942029953	pulse	1	t		9.0	2.5	/experiments/knapen_AOT/AOT_stimuli/rescaled_final/0584_rv.mp4	0.0	104.4984769821167	
11	87.90476155281067	fix_post	2		12	9.0	2.5	/experiments/knapen_AOT/AOT_stimuli/rescaled_final/0584_rv.mp4	0.0	105.81729650497437	0.1000363826751709
12	88.00479793548584	fix_pre	0		120	10.0	2.5	/experiments/knapen_AOT/AOT_stimuli/rescaled_final/0132_fw.mp4	0.0	105.91733288764954	1.008420705795288
12	88.18842816352844	pulse	0	t		10.0	2.5	/experiments/knapen_AOT/AOT_stimuli/rescaled_final/0132_fw.mp4	0.0	106.10096311569214	
12	89.01321864128113	movie	1		280	10.0	2.5	/experiments/knapen_AOT/AOT_stimuli/rescaled_final/0132_fw.mp4	0.0	106.92575359344482	2.4920084476470947
12	89.78949570655823	pulse	1	t		10.0	2.5	/experiments/knapen_AOT/AOT_stimuli/rescaled_final/0132_fw.mp4	0.0	107.70203065872192	
12	91.38682770729065	pulse	1	t		10.0	2.5	/experiments/knapen_AOT/AOT_stimuli/rescaled_final/0132_fw.mp4	0.0	109.29936265945435	
12	91.50522708892822	fix_post	2		12	10.0	2.5	/experiments/knapen_AOT/AOT_stimuli/rescaled_final/0132_fw.mp4	0.0	109.41776204109192	0.10005760192871094
13	91.60528469085693	fix_pre	0		120	11.0	2.5	/experiments/knapen_AOT/AOT_stimuli/rescaled_final/0681_rv.mp4	0.0	109.51781964302063	1.0084483623504639
13	92.6137330532074	movie	1		278	11.0	2.5	/experiments/knapen_AOT/AOT_stimuli/rescaled_final/0681_rv.mp4	0.0	110.5262680053711	2.4921610355377197
13	92.98738050460815	pulse	1	t		11.0	2.5	/experiments/knapen_AOT/AOT_stimuli/rescaled_final/0681_rv.mp4	0.0	110.89991545677185	
13	94.58687376976013	pulse	1	t		11.0	2.5	/experiments/knapen_AOT/AOT_stimuli/rescaled_final/0681_rv.mp4	0.0	112.49940872192383	
13	95.10589408874512	fix_post	2		12	11.0	2.5	/experiments/knapen_AOT/AOT_stimuli/rescaled_final/0681_rv.mp4	0.0	113.01842904090881	0.0999453067779541
14	95.20583939552307	fix_pre	0		119	12.0	2.5	/experiments/knapen_AOT/AOT_stimuli/rescaled_final/0953_rv.mp4	0.0	113.11837434768677	1.0001602172851562
14	96.18947148323059	pulse	0	t		12.0	2.5	/experiments/knapen_AOT/AOT_stimuli/rescaled_final/0953_rv.mp4	0.0	114.10200643539429	
14	96.20599961280823	movie	1		286	12.0	2.5	/experiments/knapen_AOT/AOT_stimuli/rescaled_final/0953_rv.mp4	0.0	114.11853456497192	2.500312089920044
14	97.78829908370972	pulse	1	t		12.0	2.5	/experiments/knapen_AOT/AOT_stimuli/rescaled_final/0953_rv.mp4	0.0	115.70083403587341	
14	98.70631170272827	fix_post	2		12	12.0	2.5	/experiments/knapen_AOT/AOT_stimuli/rescaled_final/0953_rv.mp4	0.0	116.61884665489197	0.1000661849975586
15	98.80637788772583	fix_pre	0		120	13.0	2.5	/experiments/knapen_AOT/AOT_stimuli/rescaled_final/1026_fw.mp4	0.0	116.71891283988953	1.0085279941558838
15	99.38998103141785	pulse	0	t		13.0	2.5	/experiments/knapen_AOT/AOT_stimuli/rescaled_final/1026_fw.mp4	0.0	117.30251598358154	
15	99.81490588188171	movie	1		287	13.0	2.5	/experiments/knapen_AOT/AOT_stimuli/rescaled_final/1026_fw.mp4	0.0	117.72744083404541	2.4920308589935303
15	100.98821520805359	pulse	1	t		13.0	2.5	/experiments/knapen_AOT/AOT_stimuli/rescaled_final/1026_fw.mp4	0.0	118.90075016021729	
15	102.30693674087524	fix_post	2		12	13.0	2.5	/experiments/knapen_AOT/AOT_stimuli/rescaled_final/1026_fw.mp4	0.0	120.21947169303894	0.09998464584350586
16	102.40692138671875	fix_pre	0		120	14.0	2.5	blank	1.0	120.31945633888245	1.0000932216644287
16	102.59064936637878	pulse	0	t		14.0	2.5	blank	1.0	120.50318431854248	
16	103.40701460838318	movie	1		300	14.0	2.5	blank	1.0	121.31954956054688	2.5003738403320312
16	104.19063091278076	pulse	1	t		14.0	2.5	blank	1.0	122.10316586494446	
16	105.78419089317322	pulse	1	t		14.0	2.5	blank	1.0	123.69672584533691	
16	105.90738844871521	fix_post	2		12	14.0	2.5	blank	1.0	123.8199234008789	0.10003376007080078
17	106.00742220878601	fix_pre	0		120	15.0	2.5	/experiments/knapen_AOT/AOT_stimuli/rescaled_final/1463_fw.mp4	0.0	123.9199571609497	1.0085408687591553
17	107.01596307754517	movie	1		271	15.0	2.5	/experiments/knapen_AOT/AOT_stimuli/rescaled_final/1463_fw.mp4	0.0	124.92849802970886	2.492020606994629
17	107.38979029655457	pulse	1	t		15.0	2.5	/experiments/knapen_AOT/AOT_stimuli/rescaled_final/1463_fw.mp4	0.0	125.30232524871826	
17	108.9896788597107	pulse	1	t		15.0	2.5	/experiments/knapen_AOT/AOT_stimuli/rescaled_final/1463_fw.mp4	0.0	126.90221381187439	
17	109.5079836845398	fix_post	2		12	15.0	2.5	/experiments/knapen_AOT/AOT_stimuli/rescaled_final/1463_fw.mp4	0.0	127.42051863670349	0.10000205039978027
18	109.60798573493958	fix_pre	0		118	16.0	2.5	/experiments/knapen_AOT/AOT_stimuli/rescaled_final/0501_fw.mp4	0.0	127.52052068710327	1.000190258026123
18	110.58347249031067	pulse	0	t		16.0	2.5	/experiments/knapen_AOT/AOT_stimuli/rescaled_final/0501_fw.mp4	0.0	128.49600744247437	
18	110.6081759929657	movie	1		260	16.0	2.5	/experiments/knapen_AOT/AOT_stimuli/rescaled_final/0501_fw.mp4	0.0	128.5207109451294	2.491960287094116
18	112.19210577011108	pulse	1	t		16.0	2.5	/experiments/knapen_AOT/AOT_stimuli/rescaled_final/0501_fw.mp4	0.0	130.10464072227478	
18	113.10013628005981	fix_post	2		12	16.0	2.5	/experiments/knapen_AOT/AOT_stimuli/rescaled_final/0501_fw.mp4	0.0	131.0126712322235	0.10005664825439453
19	113.20019292831421	fix_pre	0		120	17.0	2.5	/experiments/knapen_AOT/AOT_stimuli/rescaled_final/2038_rv.mp4	0.0	131.1127278804779	1.016808271408081
19	113.78392934799194	pulse	0	t		17.0	2.5	/experiments/knapen_AOT/AOT_stimuli/rescaled_final/2038_rv.mp4	0.0	131.69646430015564	
19	114.21700119972229	movie	1		277	17.0	2.5	/experiments/knapen_AOT/AOT_stimuli/rescaled_final/2038_rv.mp4	0.0	132.129536151886	2.483682155609131
19	115.38403058052063	pulse	1	t		17.0	2.5	/experiments/knapen_AOT/AOT_stimuli/rescaled_final/2038_rv.mp4	0.0	133.29656553268433	
19	116.70068335533142	fix_post	2		12	17.0	2.5	/experiments/knapen_AOT/AOT_stimuli/rescaled_final/2038_rv.mp4	0.0	134.61321830749512	0.10005569458007812
20	116.8007390499115	fix_pre	0		120	18.0	2.5	/experiments/knapen_AOT/AOT_stimuli/rescaled_final/1854_fw.mp4	0.0	134.7132740020752	1.0251779556274414
20	116.98440194129944	pulse	0	t		18.0	2.5	/experiments/knapen_AOT/AOT_stimuli/rescaled_final/1854_fw.mp4	0.0	134.89693689346313	
20	117.82591700553894	movie	1		257	18.0	2.5	/experiments/knapen_AOT/AOT_stimuli/rescaled_final/1854_fw.mp4	0.0	135.73845195770264	2.47532057762146
20	118.58615946769714	pulse	1	t		18.0	2.5	/experiments/knapen_AOT/AOT_stimuli/rescaled_final/1854_fw.mp4	0.0	136.49869441986084	
20	120.1850152015686	pulse	1	t		18.0	2.5	/experiments/knapen_AOT/AOT_stimuli/rescaled_final/1854_fw.mp4	0.0	138.0975501537323	
20	120.3012375831604	fix_post	2		12	18.0	2.5	/experiments/knapen_AOT/AOT_stimuli/rescaled_final/1854_fw.mp4	0.0	138.2137725353241	0.09999370574951172
21	120.40123128890991	fix_pre	0		120	19.0	2.5	/experiments/knapen_AOT/AOT_stimuli/rescaled_final/0584_rv.mp4	0.0	138.3137662410736	1.0168662071228027
21	121.41809749603271	movie	1		265	19.0	2.5	/experiments/knapen_AOT/AOT_stimuli/rescaled_final/0584_rv.mp4	0.0	139.3306324481964	2.4836790561676025
21	121.78439450263977	pulse	1	t		19.0	2.5	/experiments/knapen_AOT/AOT_stimuli/rescaled_final/0584_rv.mp4	0.0	139.69692945480347	
21	123.38528800010681	pulse	1	t		19.0	2.5	/experiments/knapen_AOT/AOT_stimuli/rescaled_final/0584_rv.mp4	0.0	141.2978229522705	
21	123.90177655220032	fix_post	2		12	19.0	2.5	/experiments/knapen_AOT/AOT_stimuli/rescaled_final/0584_rv.mp4	0.0	141.814311504364	0.10005784034729004
22	124.00183439254761	fix_pre	0		119	20.0	2.5	blank	1.0	141.9143693447113	0.9917950630187988
22	124.98549771308899	pulse	0	t		20.0	2.5	blank	1.0	142.89803266525269	
22	124.9936294555664	movie	1		301	20.0	2.5	blank	1.0	142.9061644077301	2.508669376373291
22	126.58570504188538	pulse	1	t		20.0	2.5	blank	1.0	144.49823999404907	
22	127.5022988319397	fix_post	2		12	20.0	2.5	blank	1.0	145.4148337841034	0.10002374649047852
23	127.60232257843018	fix_pre	0		120	21.0	2.5	/experiments/knapen_AOT/AOT_stimuli/rescaled_final/1399_fw.mp4	0.0	145.51485753059387	1.0252063274383545
23	128.18600940704346	pulse	0	t		21.0	2.5	/experiments/knapen_AOT/AOT_stimuli/rescaled_final/1399_fw.mp4	0.0	146.09854435920715	
23	128.62752890586853	movie	1		272	21.0	2.5	/experiments/knapen_AOT/AOT_stimuli/rescaled_final/1399_fw.mp4	0.0	146.54006385803223	2.475332260131836
23	129.7844421863556	pulse	1	t		21.0	2.5	/experiments/knapen_AOT/AOT_stimuli/rescaled_final/1399_fw.mp4	0.0	147.6969771385193	
23	131.10286116600037	fix_post	2		12	21.0	2.5	/experiments/knapen_AOT/AOT_stimuli/rescaled_final/1399_fw.mp4	0.0	149.01539611816406	0.10001182556152344
24	131.2028729915619	fix_pre	0		120	22.0	2.5	/experiments/knapen_AOT/AOT_stimuli/rescaled_final/1059_fw.mp4	0.0	149.1154079437256	1.0252318382263184
24	131.38645577430725	pulse	0	t		22.0	2.5	/experiments/knapen_AOT/AOT_stimuli/rescaled_final/1059_fw.mp4	0.0	149.29899072647095	
24	132.2281048297882	movie	1		255	22.0	2.5	/experiments/knapen_AOT/AOT_stimuli/rescaled_final/1059_fw.mp4	0.0	150.1406397819519	2.4752848148345947
24	132.984721660614	pulse	1	t		22.0	2.5	/experiments/knapen_AOT/AOT_stimuli/rescaled_final/1059_fw.mp4	0.0	150.8972566127777	
24	134.58495712280273	pulse	1	t		22.0	2.5	/experiments/knapen_AOT/AOT_stimuli/rescaled_final/1059_fw.mp4	0.0	152.49749207496643	
24	134.7033896446228	fix_post	2		12	22.0	2.5	/experiments/knapen_AOT/AOT_stimuli/rescaled_final/1059_fw.mp4	0.0	152.6159245967865	0.10005521774291992
25	134.80344486236572	fix_pre	0		120	23.0	2.5	/experiments/knapen_AOT/AOT_stimuli/rescaled_final/1945_fw.mp4	0.0	152.71597981452942	1.025200605392456
25	135.82864546775818	movie	1		268	23.0	2.5	/experiments/knapen_AOT/AOT_stimuli/rescaled_final/1945_fw.mp4	0.0	153.74118041992188	2.4752862453460693
25	136.18579649925232	pulse	1	t		23.0	2.5	/experiments/knapen_AOT/AOT_stimuli/rescaled_final/1945_fw.mp4	0.0	154.09833145141602	
25	137.78538966178894	pulse	1	t		23.0	2.5	/experiments/knapen_AOT/AOT_stimuli/rescaled_final/1945_fw.mp4	0.0	155.69792461395264	
25	138.30393171310425	fix_post	2		12	23.0	2.5	/experiments/knapen_AOT/AOT_stimuli/rescaled_final/1945_fw.mp4	0.0	156.21646666526794	0.10011577606201172
26	138.40404748916626	fix_pre	0		119	24.0	2.5	/experiments/knapen_AOT/AOT_stimuli/rescaled_final/1528_fw.mp4	0.0	156.31658244132996	1.008509635925293
26	139.38762021064758	pulse	0	t		24.0	2.5	/experiments/knapen_AOT/AOT_stimuli/rescaled_final/1528_fw.mp4	0.0	157.30015516281128	
26	139.41255712509155	movie	1		273	24.0	2.5	/experiments/knapen_AOT/AOT_stimuli/rescaled_final/1528_fw.mp4	0.0	157.32509207725525	2.4918975830078125
26	140.98695254325867	pulse	1	t		24.0	2.5	/experiments/knapen_AOT/AOT_stimuli/rescaled_final/1528_fw.mp4	0.0	158.89948749542236	
26	141.90445470809937	fix_post	2		12	24.0	2.5	/experiments/knapen_AOT/AOT_stimuli/rescaled_final/1528_fw.mp4	0.0	159.81698966026306	0.10004687309265137
27	142.00450158119202	fix_pre	0		120	25.0	2.5	/experiments/knapen_AOT/AOT_stimuli/rescaled_final/1732_fw.mp4	0.0	159.9170365333557	1.0251710414886475
27	142.58818936347961	pulse	0	t		25.0	2.5	/experiments/knapen_AOT/AOT_stimuli/rescaled_final/1732_fw.mp4	0.0	160.5007243156433	
27	143.02967262268066	movie	1		251	25.0	2.5	/experiments/knapen_AOT/AOT_stimuli/rescaled_final/1732_fw.mp4	0.0	160.94220757484436	2.475353240966797
27	144.18792295455933	pulse	1	t		25.0	2.5	/experiments/knapen_AOT/AOT_stimuli/rescaled_final/1732_fw.mp4	0.0	162.10045790672302	
27	145.50502586364746	fix_post	2		12	25.0	2.5	/experiments/knapen_AOT/AOT_stimuli/rescaled_final/1732_fw.mp4	0.0	163.41756081581116	0.10004210472106934
28	145.60506796836853	fix_pre	0		120	26.0	2.5	/experiments/knapen_AOT/AOT_stimuli/rescaled_final/1623_rv.mp4	0.0	163.51760292053223	1.0168063640594482
28	145.78859639167786	pulse	0	t		26.0	2.5	/experiments/knapen_AOT/AOT_stimuli/rescaled_final/1623_rv.mp4	0.0	163.70113134384155	
28	146.62187433242798	movie	1		252	26.0	2.5	/experiments/knapen_AOT/AOT_stimuli/rescaled_final/1623_rv.mp4	0.0	164.53440928459167	2.483677387237549
28	147.38719415664673	pulse	1	t		26.0	2.5	/experiments/knapen_AOT/AOT_stimuli/rescaled_final/1623_rv.mp4	0.0	165.29972910881042	
28	148.9891655445099	pulse	1	t		26.0	2.5	/experiments/knapen_AOT/AOT_stimuli/rescaled_final/1623_rv.mp4	0.0	166.90170049667358	
28	149.10555171966553	fix_post	2		12	26.0	2.5	/experiments/knapen_AOT/AOT_stimuli/rescaled_final/1623_rv.mp4	0.0	167.01808667182922	0.10001468658447266
29	149.20556640625	fix_pre	0		120	27.0	2.5	blank	1.0	167.1181013584137	1.000140905380249
29	150.20570731163025	movie	1		300	27.0	2.5	blank	1.0	168.11824226379395	2.500399351119995
29	150.58937048912048	pulse	1	t		27.0	2.5	blank	1.0	168.50190544128418	
29	152.18953132629395	pulse	1	t		27.0	2.5	blank	1.0	170.10206627845764	
29	152.70610666275024	fix_post	2		12	27.0	2.5	blank	1.0	170.61864161491394	0.10001301765441895
30	152.80611968040466	fix_pre	0		119	28.0	2.5	/experiments/knapen_AOT/AOT_stimuli/rescaled_final/0511_fw.mp4	0.0	170.71865463256836	1.0169107913970947
30	153.78996992111206	pulse	0	t		28.0	2.5	/experiments/knapen_AOT/AOT_stimuli/rescaled_final/0511_fw.mp4	0.0	171.70250487327576	
30	153.82303047180176	movie	1		275	28.0	2.5	/experiments/knapen_AOT/AOT_stimuli/rescaled_final/0511_fw.mp4	0.0	171.73556542396545	2.483617067337036
30	155.38868379592896	pulse	1	t		28.0	2.5	/experiments/knapen_AOT/AOT_stimuli/rescaled_final/0511_fw.mp4	0.0	173.30121874809265	
30	156.3066475391388	fix_post	2		11	28.0	2.5	/experiments/knapen_AOT/AOT_stimuli/rescaled_final/0511_fw.mp4	0.0	174.2191824913025	0.10002374649047852
31	156.40667128562927	fix_pre	0		120	29.0	2.5	/experiments/knapen_AOT/AOT_stimuli/rescaled_final/1475_fw.mp4	0.0	174.31920623779297	1.0251593589782715
31	156.99027276039124	pulse	0	t		29.0	2.5	/experiments/knapen_AOT/AOT_stimuli/rescaled_final/1475_fw.mp4	0.0	174.90280771255493	
31	157.43183064460754	movie	1		273	29.0	2.5	/experiments/knapen_AOT/AOT_stimuli/rescaled_final/1475_fw.mp4	0.0	175.34436559677124	2.475332736968994
31	158.58833718299866	pulse	1	t		29.0	2.5	/experiments/knapen_AOT/AOT_stimuli/rescaled_final/1475_fw.mp4	0.0	176.50087213516235	
31	159.90716338157654	fix_post	2		12	29.0	2.5	/experiments/knapen_AOT/AOT_stimuli/rescaled_final/1475_fw.mp4	0.0	177.81969833374023	0.10002589225769043
32	160.00718927383423	fix_pre	0		120	30.0	2.5	/experiments/knapen_AOT/AOT_stimuli/rescaled_final/0892_fw.mp4	0.0	177.91972422599792	1.025209665298462
32	160.18281483650208	pulse	0	t		30.0	2.5	/experiments/knapen_AOT/AOT_stimuli/rescaled_final/0892_fw.mp4	0.0	178.09534978866577	
32	161.0323989391327	movie	1		271	30.0	2.5	/experiments/knapen_AOT/AOT_stimuli/rescaled_final/0892_fw.mp4	0.0	178.9449338912964	2.4753212928771973
32	161.78283190727234	pulse	1	t		30.0	2.5	/experiments/knapen_AOT/AOT_stimuli/rescaled_final/0892_fw.mp4	0.0	179.69536685943604	
32	163.38297486305237	pulse	1	t		30.0	2.5	/experiments/knapen_AOT/AOT_stimuli/rescaled_final/0892_fw.mp4	0.0	181.29550981521606	
32	163.5077202320099	fix_post	2		12	30.0	2.5	/experiments/knapen_AOT/AOT_stimuli/rescaled_final/0892_fw.mp4	0.0	181.42025518417358	0.10001587867736816
33	163.60773611068726	fix_pre	0		120	31.0	2.5	/experiments/knapen_AOT/AOT_stimuli/rescaled_final/1615_fw.mp4	0.0	181.52027106285095	1.0084655284881592
33	164.61620163917542	movie	1		262	31.0	2.5	/experiments/knapen_AOT/AOT_stimuli/rescaled_final/1615_fw.mp4	0.0	182.5287365913391	2.492046594619751
33	164.98355412483215	pulse	1	t		31.0	2.5	/experiments/knapen_AOT/AOT_stimuli/rescaled_final/1615_fw.mp4	0.0	182.89608907699585	
33	166.58357453346252	pulse	1	t		31.0	2.5	/experiments/knapen_AOT/AOT_stimuli/rescaled_final/1615_fw.mp4	0.0	184.49610948562622	
33	167.10824823379517	fix_post	2		12	31.0	2.5	/experiments/knapen_AOT/AOT_stimuli/rescaled_final/1615_fw.mp4	0.0	185.02078318595886	0.1000213623046875
34	167.20826959609985	fix_pre	0		118	32.0	2.5	/experiments/knapen_AOT/AOT_stimuli/rescaled_final/1657_rv.mp4	0.0	185.12080454826355	1.0170111656188965
34	168.18368673324585	pulse	0	t		32.0	2.5	/experiments/knapen_AOT/AOT_stimuli/rescaled_final/1657_rv.mp4	0.0	186.09622168540955	
34	168.22528076171875	movie	1		257	32.0	2.5	/experiments/knapen_AOT/AOT_stimuli/rescaled_final/1657_rv.mp4	0.0	186.13781571388245	2.4751877784729004
34	169.78422260284424	pulse	1	t		32.0	2.5	/experiments/knapen_AOT/AOT_stimuli/rescaled_final/1657_rv.mp4	0.0	187.69675755500793	
34	170.70046854019165	fix_post	2		12	32.0	2.5	/experiments/knapen_AOT/AOT_stimuli/rescaled_final/1657_rv.mp4	0.0	188.61300349235535	0.10000419616699219
35	170.80047273635864	fix_pre	0		120	33.0	2.5	blank	1.0	188.71300768852234	1.000147819519043
35	171.38420224189758	pulse	0	t		33.0	2.5	blank	1.0	189.29673719406128	
35	171.80062055587769	movie	1		300	33.0	2.5	blank	1.0	189.71315550804138	2.500380754470825
35	172.98440790176392	pulse	1	t		33.0	2.5	blank	1.0	190.8969428539276	
35	174.3010013103485	fix_post	2		12	33.0	2.5	blank	1.0	192.2135362625122	0.10001420974731445
36	174.40101552009583	fix_pre	0		120	34.0	2.5	/experiments/knapen_AOT/AOT_stimuli/rescaled_final/0118_fw.mp4	0.0	192.31355047225952	1.0252201557159424
36	174.58457803726196	pulse	0	t		34.0	2.5	/experiments/knapen_AOT/AOT_stimuli/rescaled_final/0118_fw.mp4	0.0	192.49711298942566	
36	175.42623567581177	movie	1		261	34.0	2.5	/experiments/knapen_AOT/AOT_stimuli/rescaled_final/0118_fw.mp4	0.0	193.33877062797546	2.4753365516662598
36	176.18528032302856	pulse	1	t		34.0	2.5	/experiments/knapen_AOT/AOT_stimuli/rescaled_final/0118_fw.mp4	0.0	194.09781527519226	
36	177.78337335586548	pulse	1	t		34.0	2.5	/experiments/knapen_AOT/AOT_stimuli/rescaled_final/0118_fw.mp4	0.0	195.69590830802917	
36	177.90157222747803	fix_post	2		12	34.0	2.5	/experiments/knapen_AOT/AOT_stimuli/rescaled_final/0118_fw.mp4	0.0	195.81410717964172	0.09999704360961914
37	178.00156927108765	fix_pre	0		120	35.0	2.5	/experiments/knapen_AOT/AOT_stimuli/rescaled_final/1713_rv.mp4	0.0	195.91410422325134	1.0084962844848633
37	179.0100655555725	movie	1		253	35.0	2.5	/experiments/knapen_AOT/AOT_stimuli/rescaled_final/1713_rv.mp4	0.0	196.9226005077362	2.492081880569458
37	179.38556385040283	pulse	1	t		35.0	2.5	/experiments/knapen_AOT/AOT_stimuli/rescaled_final/1713_rv.mp4	0.0	197.29809880256653	
37	180.98593711853027	pulse	1	t		35.0	2.5	/experiments/knapen_AOT/AOT_stimuli/rescaled_final/1713_rv.mp4	0.0	198.89847207069397	
37	181.50214743614197	fix_post	2		12	35.0	2.5	/experiments/knapen_AOT/AOT_stimuli/rescaled_final/1713_rv.mp4	0.0	199.41468238830566	0.1000053882598877
38	181.60215282440186	fix_pre	0		119	36.0	2.5	/experiments/knapen_AOT/AOT_stimuli/rescaled_final/1370_rv.mp4	0.0	199.51468777656555	1.0251946449279785
38	182.58581590652466	pulse	0	t		36.0	2.5	/experiments/knapen_AOT/AOT_stimuli/rescaled_final/1370_rv.mp4	0.0	200.49835085868835	
38	182.62734746932983	movie	1		271	36.0	2.5	/experiments/knapen_AOT/AOT_stimuli/rescaled_final/1370_rv.mp4	0.0	200.53988242149353	2.475285768508911
38	184.18473744392395	pulse	1	t		36.0	2.5	/experiments/knapen_AOT/AOT_stimuli/rescaled_final/1370_rv.mp4	0.0	202.09727239608765	
38	185.10263323783875	fix_post	2		12	36.0	2.5	/experiments/knapen_AOT/AOT_stimuli/rescaled_final/1370_rv.mp4	0.0	203.01516819000244	0.09998536109924316
39	185.202618598938	fix_pre	0		120	37.0	2.5	/experiments/knapen_AOT/AOT_stimuli/rescaled_final/1382_rv.mp4	0.0	203.11515355110168	1.0168254375457764
39	185.7862434387207	pulse	0	t		37.0	2.5	/experiments/knapen_AOT/AOT_stimuli/rescaled_final/1382_rv.mp4	0.0	203.6987783908844	
39	186.21944403648376	movie	1		254	37.0	2.5	/experiments/knapen_AOT/AOT_stimuli/rescaled_final/1382_rv.mp4	0.0	204.13197898864746	2.483769655227661
39	187.3845875263214	pulse	1	t		37.0	2.5	/experiments/knapen_AOT/AOT_stimuli/rescaled_final/1382_rv.mp4	0.0	205.2971224784851	
39	188.70321369171143	fix_post	2		12	37.0	2.5	/experiments/knapen_AOT/AOT_stimuli/rescaled_final/1382_rv.mp4	0.0	206.61574864387512	0.09996247291564941
40	188.80317616462708	fix_pre	0		120	38.0	2.5	/experiments/knapen_AOT/AOT_stimuli/rescaled_final/0927_rv.mp4	0.0	206.71571111679077	1.0251824855804443
40	188.9867763519287	pulse	0	t		38.0	2.5	/experiments/knapen_AOT/AOT_stimuli/rescaled_final/0927_rv.mp4	0.0	206.8993113040924	
40	189.82835865020752	movie	1		264	38.0	2.5	/experiments/knapen_AOT/AOT_stimuli/rescaled_final/0927_rv.mp4	0.0	207.74089360237122	2.4754087924957275
40	190.58497643470764	pulse	1	t		38.0	2.5	/experiments/knapen_AOT/AOT_stimuli/rescaled_final/0927_rv.mp4	0.0	208.49751138687134	
40	192.18509697914124	pulse	1	t		38.0	2.5	/experiments/knapen_AOT/AOT_stimuli/rescaled_final/0927_rv.mp4	0.0	210.09763193130493	
40	192.30376744270325	fix_post	2		12	38.0	2.5	/experiments/knapen_AOT/AOT_stimuli/rescaled_final/0927_rv.mp4	0.0	210.21630239486694	0.09994792938232422
41	192.40371537208557	fix_pre	0		120	39.0	2.5	/experiments/knapen_AOT/AOT_stimuli/rescaled_final/0413_fw.mp4	0.0	210.31625032424927	1.0252101421356201
41	193.4289255142212	movie	1		273	39.0	2.5	/experiments/knapen_AOT/AOT_stimuli/rescaled_final/0413_fw.mp4	0.0	211.3414604663849	2.4753222465515137
41	193.78708791732788	pulse	1	t		39.0	2.5	/experiments/knapen_AOT/AOT_stimuli/rescaled_final/0413_fw.mp4	0.0	211.69962286949158	
41	195.38541626930237	pulse	1	t		39.0	2.5	/experiments/knapen_AOT/AOT_stimuli/rescaled_final/0413_fw.mp4	0.0	213.29795122146606	
41	195.9042477607727	fix_post	2		12	39.0	2.5	/experiments/knapen_AOT/AOT_stimuli/rescaled_final/0413_fw.mp4	0.0	213.8167827129364	0.10003471374511719
42	196.00428247451782	fix_pre	0		119	40.0	2.5	/experiments/knapen_AOT/AOT_stimuli/rescaled_final/0927_fw.mp4	0.0	213.91681742668152	1.0168426036834717
42	196.98801708221436	pulse	0	t		40.0	2.5	/experiments/knapen_AOT/AOT_stimuli/rescaled_final/0927_fw.mp4	0.0	214.90055203437805	
42	197.0211250782013	movie	1		260	40.0	2.5	/experiments/knapen_AOT/AOT_stimuli/rescaled_final/0927_fw.mp4	0.0	214.933660030365	2.4837019443511963
42	198.5871503353119	pulse	1	t		40.0	2.5	/experiments/knapen_AOT/AOT_stimuli/rescaled_final/0927_fw.mp4	0.0	216.4996852874756	
42	199.5048270225525	fix_post	2		12	40.0	2.5	/experiments/knapen_AOT/AOT_stimuli/rescaled_final/0927_fw.mp4	0.0	217.4173619747162	0.10000753402709961
43	199.6048345565796	fix_pre	0		120	41.0	2.5	/experiments/knapen_AOT/AOT_stimuli/rescaled_final/2030_fw.mp4	0.0	217.5173695087433	1.0251893997192383
43	200.18877339363098	pulse	0	t		41.0	2.5	/experiments/knapen_AOT/AOT_stimuli/rescaled_final/2030_fw.mp4	0.0	218.10130834579468	
43	200.63002395629883	movie	1		272	41.0	2.5	/experiments/knapen_AOT/AOT_stimuli/rescaled_final/2030_fw.mp4	0.0	218.54255890846252	2.4753105640411377
43	201.78857421875	pulse	1	t		41.0	2.5	/experiments/knapen_AOT/AOT_stimuli/rescaled_final/2030_fw.mp4	0.0	219.7011091709137	
43	203.10533452033997	fix_post	2		12	41.0	2.5	/experiments/knapen_AOT/AOT_stimuli/rescaled_final/2030_fw.mp4	0.0	221.01786947250366	0.10001373291015625
44	203.20534825325012	fix_pre	0		120	42.0	2.5	blank	1.0	221.11788320541382	1.0001370906829834
44	203.38899779319763	pulse	0	t		42.0	2.5	blank	1.0	221.30153274536133	
44	204.2054853439331	movie	1		300	42.0	2.5	blank	1.0	222.1180202960968	2.50040864944458
44	204.9892327785492	pulse	1	t		42.0	2.5	blank	1.0	222.9017677307129	
44	206.58935403823853	pulse	1	t		42.0	2.5	blank	1.0	224.50188899040222	
44	206.70589399337769	fix_post	2		12	42.0	2.5	blank	1.0	224.61842894554138	0.1000373363494873
45	206.80593132972717	fix_pre	0		120	43.0	2.5	/experiments/knapen_AOT/AOT_stimuli/rescaled_final/0892_rv.mp4	0.0	224.71846628189087	1.0251586437225342
45	207.8310899734497	movie	1		266	43.0	2.5	/experiments/knapen_AOT/AOT_stimuli/rescaled_final/0892_rv.mp4	0.0	225.7436249256134	2.475316047668457
45	208.18824672698975	pulse	1	t		43.0	2.5	/experiments/knapen_AOT/AOT_stimuli/rescaled_final/0892_rv.mp4	0.0	226.10078167915344	
45	209.78876328468323	pulse	1	t		43.0	2.5	/experiments/knapen_AOT/AOT_stimuli/rescaled_final/0892_rv.mp4	0.0	227.70129823684692	
45	210.30640602111816	fix_post	2		12	43.0	2.5	/experiments/knapen_AOT/AOT_stimuli/rescaled_final/0892_rv.mp4	0.0	228.21894097328186	0.10001301765441895
46	210.40641903877258	fix_pre	0		119	44.0	2.5	/experiments/knapen_AOT/AOT_stimuli/rescaled_final/0358_rv.mp4	0.0	228.31895399093628	1.0169367790222168
46	211.39015340805054	pulse	0	t		44.0	2.5	/experiments/knapen_AOT/AOT_stimuli/rescaled_final/0358_rv.mp4	0.0	229.30268836021423	
46	211.4233558177948	movie	1		264	44.0	2.5	/experiments/knapen_AOT/AOT_stimuli/rescaled_final/0358_rv.mp4	0.0	229.3358907699585	2.4836089611053467
46	212.9889693260193	pulse	1	t		44.0	2.5	/experiments/knapen_AOT/AOT_stimuli/rescaled_final/0358_rv.mp4	0.0	230.90150427818298	
46	213.90696477890015	fix_post	2		12	44.0	2.5	/experiments/knapen_AOT/AOT_stimuli/rescaled_final/0358_rv.mp4	0.0	231.81949973106384	0.10002350807189941
47	214.00698828697205	fix_pre	0		120	45.0	2.5	/experiments/knapen_AOT/AOT_stimuli/rescaled_final/1845_fw.mp4	0.0	231.91952323913574	1.0169744491577148
47	214.590646982193	pulse	0	t		45.0	2.5	/experiments/knapen_AOT/AOT_stimuli/rescaled_final/1845_fw.mp4	0.0	232.5031819343567	
47	215.02396273612976	movie	1		268	45.0	2.5	/experiments/knapen_AOT/AOT_stimuli/rescaled_final/1845_fw.mp4	0.0	232.93649768829346	2.4835262298583984
47	216.19001746177673	pulse	1	t		45.0	2.5	/experiments/knapen_AOT/AOT_stimuli/rescaled_final/1845_fw.mp4	0.0	234.10255241394043	
47	217.50748896598816	fix_post	2		12	45.0	2.5	/experiments/knapen_AOT/AOT_stimuli/rescaled_final/1845_fw.mp4	0.0	235.42002391815186	0.10006833076477051
48	217.60755729675293	fix_pre	0		120	46.0	2.5	/experiments/knapen_AOT/AOT_stimuli/rescaled_final/0330_rv.mp4	0.0	235.52009224891663	1.0251483917236328
48	217.7833378314972	pulse	0	t		46.0	2.5	/experiments/knapen_AOT/AOT_stimuli/rescaled_final/0330_rv.mp4	0.0	235.6958727836609	
48	218.63270568847656	movie	1		254	46.0	2.5	/experiments/knapen_AOT/AOT_stimuli/rescaled_final/0330_rv.mp4	0.0	236.54524064064026	2.4754271507263184
48	219.38332390785217	pulse	1	t		46.0	2.5	/experiments/knapen_AOT/AOT_stimuli/rescaled_final/0330_rv.mp4	0.0	237.29585886001587	
48	220.98352122306824	pulse	1	t		46.0	2.5	/experiments/knapen_AOT/AOT_stimuli/rescaled_final/0330_rv.mp4	0.0	238.89605617523193	
48	221.10813283920288	fix_post	2		12	46.0	2.5	/experiments/knapen_AOT/AOT_stimuli/rescaled_final/0330_rv.mp4	0.0	239.02066779136658	0.09990429878234863
49	221.20803713798523	fix_pre	0		40	47.0	2.5	blank	1.0	239.12057209014893	1.0503666400909424
49	222.25840377807617	movie	1		294	47.0	2.5	blank	1.0	240.17093873023987	2.4501943588256836
49	222.5836000442505	pulse	1	t		47.0	2.5	blank	1.0	240.49613499641418	
49	224.18376874923706	pulse	1	t		47.0	2.5	blank	1.0	242.09630370140076	
49	224.70859813690186	fix_post	2		12	47.0	2.5	blank	1.0	242.62113308906555	0.10000014305114746
50	224.808598279953	fix_pre	0		118	48.0	2.5	/experiments/knapen_AOT/AOT_stimuli/rescaled_final/1549_rv.mp4	0.0	242.7211332321167	1.0086283683776855
50	225.7840473651886	pulse	0	t		48.0	2.5	/experiments/knapen_AOT/AOT_stimuli/rescaled_final/1549_rv.mp4	0.0	243.6965823173523	
50	225.8172266483307	movie	1		260	48.0	2.5	/experiments/knapen_AOT/AOT_stimuli/rescaled_final/1549_rv.mp4	0.0	243.72976160049438	2.483595848083496
50	227.38421893119812	pulse	1	t		48.0	2.5	/experiments/knapen_AOT/AOT_stimuli/rescaled_final/1549_rv.mp4	0.0	245.29675388336182	
50	228.30082249641418	fix_post	2		12	48.0	2.5	/experiments/knapen_AOT/AOT_stimuli/rescaled_final/1549_rv.mp4	0.0	246.21335744857788	0.10003399848937988
51	228.40085649490356	fix_pre	0		120	49.0	2.5	/experiments/knapen_AOT/AOT_stimuli/rescaled_final/0110_rv.mp4	0.0	246.31339144706726	1.0251400470733643
51	228.98462867736816	pulse	0	t		49.0	2.5	/experiments/knapen_AOT/AOT_stimuli/rescaled_final/0110_rv.mp4	0.0	246.89716362953186	
51	229.42599654197693	movie	1		269	49.0	2.5	/experiments/knapen_AOT/AOT_stimuli/rescaled_final/0110_rv.mp4	0.0	247.33853149414062	2.4753236770629883
51	230.5850009918213	pulse	1	t		49.0	2.5	/experiments/knapen_AOT/AOT_stimuli/rescaled_final/0110_rv.mp4	0.0	248.49753594398499	
51	231.90132021903992	fix_post	2		12	49.0	2.5	/experiments/knapen_AOT/AOT_stimuli/rescaled_final/0110_rv.mp4	0.0	249.8138551712036	0.10001230239868164
52	232.0013325214386	fix_pre	0		120	50.0	2.5	/experiments/knapen_AOT/AOT_stimuli/rescaled_final/2030_rv.mp4	0.0	249.9138674736023	1.0252182483673096
52	232.18495106697083	pulse	0	t		50.0	2.5	/experiments/knapen_AOT/AOT_stimuli/rescaled_final/2030_rv.mp4	0.0	250.09748601913452	
52	233.0265507698059	movie	1		264	50.0	2.5	/experiments/knapen_AOT/AOT_stimuli/rescaled_final/2030_rv.mp4	0.0	250.9390857219696	2.475322961807251
52	233.7855727672577	pulse	1	t		50.0	2.5	/experiments/knapen_AOT/AOT_stimuli/rescaled_final/2030_rv.mp4	0.0	251.6981077194214	
52	235.38371753692627	pulse	1	t		50.0	2.5	/experiments/knapen_AOT/AOT_stimuli/rescaled_final/2030_rv.mp4	0.0	253.29625248908997	
52	235.50187373161316	fix_post	2		12	50.0	2.5	/experiments/knapen_AOT/AOT_stimuli/rescaled_final/2030_rv.mp4	0.0	253.41440868377686	0.10000729560852051
53	235.60188102722168	fix_pre	0		120	51.0	2.5	/experiments/knapen_AOT/AOT_stimuli/rescaled_final/1777_rv.mp4	0.0	253.51441597938538	1.0251915454864502
53	236.62707257270813	movie	1		265	51.0	2.5	/experiments/knapen_AOT/AOT_stimuli/rescaled_final/1777_rv.mp4	0.0	254.53960752487183	2.475353479385376
53	236.9857678413391	pulse	1	t		51.0	2.5	/experiments/knapen_AOT/AOT_stimuli/rescaled_final/1777_rv.mp4	0.0	254.8983027935028	
53	238.58365058898926	pulse	1	t		51.0	2.5	/experiments/knapen_AOT/AOT_stimuli/rescaled_final/1777_rv.mp4	0.0	256.49618554115295	
53	239.1024260520935	fix_post	2		12	51.0	2.5	/experiments/knapen_AOT/AOT_stimuli/rescaled_final/1777_rv.mp4	0.0	257.0149610042572	0.10000157356262207
54	239.20242762565613	fix_pre	0		119	52.0	2.5	/experiments/knapen_AOT/AOT_stimuli/rescaled_final/2130_fw.mp4	0.0	257.1149625778198	1.008549690246582
54	240.18642663955688	pulse	0	t		52.0	2.5	/experiments/knapen_AOT/AOT_stimuli/rescaled_final/2130_fw.mp4	0.0	258.0989615917206	
54	240.2109773159027	movie	1		285	52.0	2.5	/experiments/knapen_AOT/AOT_stimuli/rescaled_final/2130_fw.mp4	0.0	258.1235122680664	2.4919662475585938
54	241.78500080108643	pulse	1	t		52.0	2.5	/experiments/knapen_AOT/AOT_stimuli/rescaled_final/2130_fw.mp4	0.0	259.6975357532501	
54	242.7029435634613	fix_post	2		12	52.0	2.5	/experiments/knapen_AOT/AOT_stimuli/rescaled_final/2130_fw.mp4	0.0	260.615478515625	0.10001730918884277
55	242.80296087265015	fix_pre	0		120	53.0	2.5	/experiments/knapen_AOT/AOT_stimuli/rescaled_final/0165_rv.mp4	0.0	260.71549582481384	1.0251779556274414
55	243.3866264820099	pulse	0	t		53.0	2.5	/experiments/knapen_AOT/AOT_stimuli/rescaled_final/0165_rv.mp4	0.0	261.2991614341736	
55	243.8281388282776	movie	1		288	53.0	2.5	/experiments/knapen_AOT/AOT_stimuli/rescaled_final/0165_rv.mp4	0.0	261.7406737804413	2.475348472595215
55	244.9853961467743	pulse	1	t		53.0	2.5	/experiments/knapen_AOT/AOT_stimuli/rescaled_final/0165_rv.mp4	0.0	262.897931098938	
55	246.3034873008728	fix_post	2		12	53.0	2.5	/experiments/knapen_AOT/AOT_stimuli/rescaled_final/0165_rv.mp4	0.0	264.2160222530365	0.1000220775604248
56	246.40350937843323	fix_pre	0		120	54.0	2.5	blank	1.0	264.3160443305969	1.0001404285430908
56	246.58708667755127	pulse	0	t		54.0	2.5	blank	1.0	264.49962162971497	
56	247.40364980697632	movie	1		300	54.0	2.5	blank	1.0	265.31618475914	2.5004029273986816
56	248.1873002052307	pulse	1	t		54.0	2.5	blank	1.0	266.0998351573944	
56	249.78761982917786	pulse	1	t		54.0	2.5	blank	1.0	267.70015478134155	
56	249.904052734375	fix_post	2		12	54.0	2.5	blank	1.0	267.8165876865387	0.10012578964233398
57	250.00417852401733	fix_pre	0		120	55.0	2.5	/experiments/knapen_AOT/AOT_stimuli/rescaled_final/0263_rv.mp4	0.0	267.91671347618103	1.0168108940124512
57	251.02098941802979	movie	1		281	55.0	2.5	/experiments/knapen_AOT/AOT_stimuli/rescaled_final/0263_rv.mp4	0.0	268.9335243701935	2.48357892036438
57	251.38607788085938	pulse	1	t		55.0	2.5	/experiments/knapen_AOT/AOT_stimuli/rescaled_final/0263_rv.mp4	0.0	269.29861283302307	
57	252.98614358901978	pulse	1	t		55.0	2.5	/experiments/knapen_AOT/AOT_stimuli/rescaled_final/0263_rv.mp4	0.0	270.8986785411835	
57	253.50456833839417	fix_post	2		12	55.0	2.5	/experiments/knapen_AOT/AOT_stimuli/rescaled_final/0263_rv.mp4	0.0	271.41710329055786	0.10002326965332031
58	253.60459160804749	fix_pre	0		119	56.0	2.5	/experiments/knapen_AOT/AOT_stimuli/rescaled_final/2138_rv.mp4	0.0	271.5171265602112	1.008526086807251
58	254.58832240104675	pulse	0	t		56.0	2.5	/experiments/knapen_AOT/AOT_stimuli/rescaled_final/2138_rv.mp4	0.0	272.50085735321045	
58	254.61311769485474	movie	1		282	56.0	2.5	/experiments/knapen_AOT/AOT_stimuli/rescaled_final/2138_rv.mp4	0.0	272.52565264701843	2.491995334625244
58	256.18708419799805	pulse	1	t		56.0	2.5	/experiments/knapen_AOT/AOT_stimuli/rescaled_final/2138_rv.mp4	0.0	274.09961915016174	
58	257.10511302948	fix_post	2		12	56.0	2.5	/experiments/knapen_AOT/AOT_stimuli/rescaled_final/2138_rv.mp4	0.0	275.0176479816437	0.10004663467407227
59	257.20515966415405	fix_pre	0		120	57.0	2.5	/experiments/knapen_AOT/AOT_stimuli/rescaled_final/0712_rv.mp4	0.0	275.11769461631775	1.0168023109436035
59	257.78876996040344	pulse	0	t		57.0	2.5	/experiments/knapen_AOT/AOT_stimuli/rescaled_final/0712_rv.mp4	0.0	275.70130491256714	
59	258.22196197509766	movie	1		282	57.0	2.5	/experiments/knapen_AOT/AOT_stimuli/rescaled_final/0712_rv.mp4	0.0	276.13449692726135	2.4836933612823486
59	259.38745403289795	pulse	1	t		57.0	2.5	/experiments/knapen_AOT/AOT_stimuli/rescaled_final/0712_rv.mp4	0.0	277.29998898506165	
59	260.70565533638	fix_post	2		12	57.0	2.5	/experiments/knapen_AOT/AOT_stimuli/rescaled_final/0712_rv.mp4	0.0	278.6181902885437	0.10000014305114746
60	260.80565547943115	fix_pre	0		120	58.0	2.5	/experiments/knapen_AOT/AOT_stimuli/rescaled_final/1745_rv.mp4	0.0	278.71819043159485	1.0252246856689453
60	260.9892725944519	pulse	0	t		58.0	2.5	/experiments/knapen_AOT/AOT_stimuli/rescaled_final/1745_rv.mp4	0.0	278.9018075466156	
60	261.8308801651001	movie	1		281	58.0	2.5	/experiments/knapen_AOT/AOT_stimuli/rescaled_final/1745_rv.mp4	0.0	279.7434151172638	2.475308895111084
60	262.58774757385254	pulse	1	t		58.0	2.5	/experiments/knapen_AOT/AOT_stimuli/rescaled_final/1745_rv.mp4	0.0	280.50028252601624	
60	264.19012999534607	pulse	1	t		58.0	2.5	/experiments/knapen_AOT/AOT_stimuli/rescaled_final/1745_rv.mp4	0.0	282.10266494750977	
60	264.3061890602112	fix_post	2		12	58.0	2.5	/experiments/knapen_AOT/AOT_stimuli/rescaled_final/1745_rv.mp4	0.0	282.2187240123749	0.10001111030578613
61	264.40620017051697	fix_pre	0		120	59.0	2.5	/experiments/knapen_AOT/AOT_stimuli/rescaled_final/0316_rv.mp4	0.0	282.31873512268066	1.0252280235290527
61	265.431428194046	movie	1		271	59.0	2.5	/experiments/knapen_AOT/AOT_stimuli/rescaled_final/0316_rv.mp4	0.0	283.3439631462097	2.4754552841186523
61	265.7880964279175	pulse	1	t		59.0	2.5	/experiments/knapen_AOT/AOT_stimuli/rescaled_final/0316_rv.mp4	0.0	283.7006313800812	
61	267.3878593444824	pulse	1	t		59.0	2.5	/experiments/knapen_AOT/AOT_stimuli/rescaled_final/0316_rv.mp4	0.0	285.3003942966461	
61	267.9068834781647	fix_post	2		12	59.0	2.5	/experiments/knapen_AOT/AOT_stimuli/rescaled_final/0316_rv.mp4	0.0	285.81941843032837	0.09987473487854004
62	268.0067582130432	fix_pre	0		119	60.0	2.5	/experiments/knapen_AOT/AOT_stimuli/rescaled_final/1622_fw.mp4	0.0	285.9192931652069	1.0168349742889404
62	268.9907193183899	pulse	0	t		60.0	2.5	/experiments/knapen_AOT/AOT_stimuli/rescaled_final/1622_fw.mp4	0.0	286.9032542705536	
62	269.02359318733215	movie	1		274	60.0	2.5	/experiments/knapen_AOT/AOT_stimuli/rescaled_final/1622_fw.mp4	0.0	286.93612813949585	2.4837002754211426
62	270.58924865722656	pulse	1	t		60.0	2.5	/experiments/knapen_AOT/AOT_stimuli/rescaled_final/1622_fw.mp4	0.0	288.50178360939026	
62	271.5072934627533	fix_post	2		12	60.0	2.5	/experiments/knapen_AOT/AOT_stimuli/rescaled_final/1622_fw.mp4	0.0	289.419828414917	0.10003376007080078
63	271.6073272228241	fix_pre	0		120	61.0	2.5	blank	1.0	289.5198621749878	1.0001096725463867
63	272.19096755981445	pulse	0	t		61.0	2.5	blank	1.0	290.10350251197815	
63	272.6074368953705	movie	1		300	61.0	2.5	blank	1.0	290.5199718475342	2.500392436981201
63	273.7840759754181	pulse	1	t		61.0	2.5	blank	1.0	291.6966109275818	
63	275.1078293323517	fix_post	2		12	61.0	2.5	blank	1.0	293.0203642845154	0.10005617141723633
64	275.2078855037689	fix_pre	0		120	62.0	2.5	/experiments/knapen_AOT/AOT_stimuli/rescaled_final/1057_fw.mp4	0.0	293.1204204559326	1.0251445770263672
64	275.38487458229065	pulse	0	t		62.0	2.5	/experiments/knapen_AOT/AOT_stimuli/rescaled_final/1057_fw.mp4	0.0	293.29740953445435	
64	276.2330300807953	movie	1		272	62.0	2.5	/experiments/knapen_AOT/AOT_stimuli/rescaled_final/1057_fw.mp4	0.0	294.145565032959	2.4753334522247314
64	276.9836859703064	pulse	1	t		62.0	2.5	/experiments/knapen_AOT/AOT_stimuli/rescaled_final/1057_fw.mp4	0.0	294.8962209224701	
64	278.58367371559143	pulse	1	t		62.0	2.5	/experiments/knapen_AOT/AOT_stimuli/rescaled_final/1057_fw.mp4	0.0	296.4962086677551	
64	278.70836353302	fix_post	2		12	62.0	2.5	/experiments/knapen_AOT/AOT_stimuli/rescaled_final/1057_fw.mp4	0.0	296.6208984851837	0.10002732276916504
65	278.8083908557892	fix_pre	0		120	63.0	2.5	/experiments/knapen_AOT/AOT_stimuli/rescaled_final/0765_rv.mp4	0.0	296.7209258079529	1.0168144702911377
65	279.8252053260803	movie	1		281	63.0	2.5	/experiments/knapen_AOT/AOT_stimuli/rescaled_final/0765_rv.mp4	0.0	297.737740278244	2.4836950302124023
65	280.18387746810913	pulse	1	t		63.0	2.5	/experiments/knapen_AOT/AOT_stimuli/rescaled_final/0765_rv.mp4	0.0	298.0964124202728	
65	281.78405117988586	pulse	1	t		63.0	2.5	/experiments/knapen_AOT/AOT_stimuli/rescaled_final/0765_rv.mp4	0.0	299.69658613204956	
65	282.3089003562927	fix_post	2		12	63.0	2.5	/experiments/knapen_AOT/AOT_stimuli/rescaled_final/0765_rv.mp4	0.0	300.2214353084564	0.10000967979431152
66	282.40891003608704	fix_pre	0		118	64.0	2.5	/experiments/knapen_AOT/AOT_stimuli/rescaled_final/0943_rv.mp4	0.0	300.32144498825073	1.0085253715515137
66	283.3843367099762	pulse	0	t		64.0	2.5	/experiments/knapen_AOT/AOT_stimuli/rescaled_final/0943_rv.mp4	0.0	301.2968716621399	
66	283.41743540763855	movie	1		276	64.0	2.5	/experiments/knapen_AOT/AOT_stimuli/rescaled_final/0943_rv.mp4	0.0	301.32997035980225	2.483703851699829
66	284.9848916530609	pulse	1	t		64.0	2.5	/experiments/knapen_AOT/AOT_stimuli/rescaled_final/0943_rv.mp4	0.0	302.8974266052246	
66	285.9011392593384	fix_post	2		12	64.0	2.5	/experiments/knapen_AOT/AOT_stimuli/rescaled_final/0943_rv.mp4	0.0	303.8136742115021	0.09998226165771484
67	286.0011215209961	fix_pre	0		120	65.0	2.5	/experiments/knapen_AOT/AOT_stimuli/rescaled_final/0680_rv.mp4	0.0	303.9136564731598	1.025177240371704
67	286.5848140716553	pulse	0	t		65.0	2.5	/experiments/knapen_AOT/AOT_stimuli/rescaled_final/0680_rv.mp4	0.0	304.49734902381897	
67	287.0262987613678	movie	1		286	65.0	2.5	/experiments/knapen_AOT/AOT_stimuli/rescaled_final/0680_rv.mp4	0.0	304.9388337135315	2.475346803665161
67	288.1854248046875	pulse	1	t		65.0	2.5	/experiments/knapen_AOT/AOT_stimuli/rescaled_final/0680_rv.mp4	0.0	306.0979597568512	
67	289.50164556503296	fix_post	2		12	65.0	2.5	/experiments/knapen_AOT/AOT_stimuli/rescaled_final/0680_rv.mp4	0.0	307.41418051719666	0.10006070137023926
68	289.6017062664032	fix_pre	0		120	66.0	2.5	/experiments/knapen_AOT/AOT_stimuli/rescaled_final/0316_rv.mp4	0.0	307.5142412185669	1.0167629718780518
68	289.7852363586426	pulse	0	t		66.0	2.5	/experiments/knapen_AOT/AOT_stimuli/rescaled_final/0316_rv.mp4	0.0	307.6977713108063	
68	290.61846923828125	movie	1		278	66.0	2.5	/experiments/knapen_AOT/AOT_stimuli/rescaled_final/0316_rv.mp4	0.0	308.53100419044495	2.4837145805358887
68	291.3855495452881	pulse	1	t		66.0	2.5	/experiments/knapen_AOT/AOT_stimuli/rescaled_final/0316_rv.mp4	0.0	309.2980844974518	
68	292.9849970340729	pulse	1	t		66.0	2.5	/experiments/knapen_AOT/AOT_stimuli/rescaled_final/0316_rv.mp4	0.0	310.8975319862366	
68	293.10218381881714	fix_post	2		12	66.0	2.5	/experiments/knapen_AOT/AOT_stimuli/rescaled_final/0316_rv.mp4	0.0	311.01471877098083	0.10001134872436523
69	293.2021951675415	fix_pre	0		120	67.0	2.5	/experiments/knapen_AOT/AOT_stimuli/rescaled_final/0633_fw.mp4	0.0	311.1147301197052	1.0251977443695068
69	294.227392911911	movie	1		271	67.0	2.5	/experiments/knapen_AOT/AOT_stimuli/rescaled_final/0633_fw.mp4	0.0	312.1399278640747	2.4753243923187256
69	294.5843975543976	pulse	1	t		67.0	2.5	/experiments/knapen_AOT/AOT_stimuli/rescaled_final/0633_fw.mp4	0.0	312.4969325065613	
69	296.18426752090454	pulse	1	t		67.0	2.5	/experiments/knapen_AOT/AOT_stimuli/rescaled_final/0633_fw.mp4	0.0	314.09680247306824	
69	296.70271730422974	fix_post	2		12	67.0	2.5	/experiments/knapen_AOT/AOT_stimuli/rescaled_final/0633_fw.mp4	0.0	314.61525225639343	0.10003662109375
70	296.8027539253235	fix_pre	0		119	68.0	2.5	/experiments/knapen_AOT/AOT_stimuli/rescaled_final/0826_rv.mp4	0.0	314.7152888774872	1.0168468952178955
70	297.786479473114	pulse	0	t		68.0	2.5	/experiments/knapen_AOT/AOT_stimuli/rescaled_final/0826_rv.mp4	0.0	315.6990144252777	
70	297.8196008205414	movie	1		273	68.0	2.5	/experiments/knapen_AOT/AOT_stimuli/rescaled_final/0826_rv.mp4	0.0	315.7321357727051	2.483666181564331
70	299.3864209651947	pulse	1	t		68.0	2.5	/experiments/knapen_AOT/AOT_stimuli/rescaled_final/0826_rv.mp4	0.0	317.2989559173584	
70	300.3032670021057	fix_post	2		12	68.0	2.5	/experiments/knapen_AOT/AOT_stimuli/rescaled_final/0826_rv.mp4	0.0	318.2158019542694	0.10001754760742188
71	300.40328454971313	fix_pre	0		120	69.0	2.5	blank	1.0	318.31581950187683	1.0001535415649414
71	300.9869153499603	pulse	0	t		69.0	2.5	blank	1.0	318.899450302124	
71	301.4034380912781	movie	1		300	69.0	2.5	blank	1.0	319.3159730434418	2.500412702560425
71	302.587322473526	pulse	1	t		69.0	2.5	blank	1.0	320.4998574256897	
71	303.9038507938385	fix_post	2		12	69.0	2.5	blank	1.0	321.8163857460022	0.10004425048828125
72	304.0038950443268	fix_pre	0		120	70.0	2.5	/experiments/knapen_AOT/AOT_stimuli/rescaled_final/2165_fw.mp4	0.0	321.9164299964905	1.0251402854919434
72	304.1874017715454	pulse	0	t		70.0	2.5	/experiments/knapen_AOT/AOT_stimuli/rescaled_final/2165_fw.mp4	0.0	322.0999367237091	
72	305.0290353298187	movie	1		283	70.0	2.5	/experiments/knapen_AOT/AOT_stimuli/rescaled_final/2165_fw.mp4	0.0	322.9415702819824	2.475318193435669
72	305.787691116333	pulse	1	t		70.0	2.5	/experiments/knapen_AOT/AOT_stimuli/rescaled_final/2165_fw.mp4	0.0	323.7002260684967	
72	307.3856899738312	pulse	1	t		70.0	2.5	/experiments/knapen_AOT/AOT_stimuli/rescaled_final/2165_fw.mp4	0.0	325.2982249259949	
72	307.5043535232544	fix_post	2		12	70.0	2.5	/experiments/knapen_AOT/AOT_stimuli/rescaled_final/2165_fw.mp4	0.0	325.4168884754181	0.10000848770141602
73	307.6043620109558	fix_pre	0		120	71.0	2.5	/experiments/knapen_AOT/AOT_stimuli/rescaled_final/0172_rv.mp4	0.0	325.5168969631195	1.0085980892181396
73	308.61296010017395	movie	1		278	71.0	2.5	/experiments/knapen_AOT/AOT_stimuli/rescaled_final/0172_rv.mp4	0.0	326.52549505233765	2.491926670074463
73	308.98647451400757	pulse	1	t		71.0	2.5	/experiments/knapen_AOT/AOT_stimuli/rescaled_final/0172_rv.mp4	0.0	326.89900946617126	
73	310.5862658023834	pulse	1	t		71.0	2.5	/experiments/knapen_AOT/AOT_stimuli/rescaled_final/0172_rv.mp4	0.0	328.4988007545471	
73	311.1048867702484	fix_post	2		12	71.0	2.5	/experiments/knapen_AOT/AOT_stimuli/rescaled_final/0172_rv.mp4	0.0	329.0174217224121	0.1000220775604248
74	311.20490884780884	fix_pre	0		119	72.0	2.5	/experiments/knapen_AOT/AOT_stimuli/rescaled_final/0229_rv.mp4	0.0	329.11744379997253	1.000148057937622
74	312.1886441707611	pulse	0	t		72.0	2.5	/experiments/knapen_AOT/AOT_stimuli/rescaled_final/0229_rv.mp4	0.0	330.1011791229248	
74	312.20505690574646	movie	1		270	72.0	2.5	/experiments/knapen_AOT/AOT_stimuli/rescaled_final/0229_rv.mp4	0.0	330.11759185791016	2.500476837158203
74	313.7872483730316	pulse	1	t		72.0	2.5	/experiments/knapen_AOT/AOT_stimuli/rescaled_final/0229_rv.mp4	0.0	331.6997833251953	
74	314.70553374290466	fix_post	2		12	72.0	2.5	/experiments/knapen_AOT/AOT_stimuli/rescaled_final/0229_rv.mp4	0.0	332.61806869506836	0.09991908073425293
75	314.8054528236389	fix_pre	0		120	73.0	2.5	/experiments/knapen_AOT/AOT_stimuli/rescaled_final/0961_rv.mp4	0.0	332.7179877758026	1.0085623264312744
75	315.3890664577484	pulse	0	t		73.0	2.5	/experiments/knapen_AOT/AOT_stimuli/rescaled_final/0961_rv.mp4	0.0	333.3016014099121	
75	315.8140151500702	movie	1		281	73.0	2.5	/experiments/knapen_AOT/AOT_stimuli/rescaled_final/0961_rv.mp4	0.0	333.7265501022339	2.4919612407684326
75	316.9879906177521	pulse	1	t		73.0	2.5	/experiments/knapen_AOT/AOT_stimuli/rescaled_final/0961_rv.mp4	0.0	334.90052556991577	
75	318.3059763908386	fix_post	2		12	73.0	2.5	/experiments/knapen_AOT/AOT_stimuli/rescaled_final/0961_rv.mp4	0.0	336.2185113430023	0.10001397132873535
76	318.40599036216736	fix_pre	0		120	74.0	2.5	/experiments/knapen_AOT/AOT_stimuli/rescaled_final/0981_rv.mp4	0.0	336.31852531433105	1.0085041522979736
76	318.589555978775	pulse	0	t		74.0	2.5	/experiments/knapen_AOT/AOT_stimuli/rescaled_final/0981_rv.mp4	0.0	336.5020909309387	
76	319.41449451446533	movie	1		286	74.0	2.5	/experiments/knapen_AOT/AOT_stimuli/rescaled_final/0981_rv.mp4	0.0	337.327029466629	2.492075204849243
76	320.1876904964447	pulse	1	t		74.0	2.5	/experiments/knapen_AOT/AOT_stimuli/rescaled_final/0981_rv.mp4	0.0	338.1002254486084	
76	321.7880518436432	pulse	1	t		74.0	2.5	/experiments/knapen_AOT/AOT_stimuli/rescaled_final/0981_rv.mp4	0.0	339.7005867958069	
76	321.9065697193146	fix_post	2		12	74.0	2.5	/experiments/knapen_AOT/AOT_stimuli/rescaled_final/0981_rv.mp4	0.0	339.81910467147827	0.09996342658996582
77	322.00653314590454	fix_pre	0		120	75.0	2.5	/experiments/knapen_AOT/AOT_stimuli/rescaled_final/1328_rv.mp4	0.0	339.91906809806824	1.0084800720214844
77	323.015013217926	movie	1		265	75.0	2.5	/experiments/knapen_AOT/AOT_stimuli/rescaled_final/1328_rv.mp4	0.0	340.9275481700897	2.4920411109924316
77	323.3890287876129	pulse	1	t		75.0	2.5	/experiments/knapen_AOT/AOT_stimuli/rescaled_final/1328_rv.mp4	0.0	341.3015637397766	
77	324.9895715713501	pulse	1	t		75.0	2.5	/experiments/knapen_AOT/AOT_stimuli/rescaled_final/1328_rv.mp4	0.0	342.9021065235138	
77	325.50705432891846	fix_post	2		12	75.0	2.5	/experiments/knapen_AOT/AOT_stimuli/rescaled_final/1328_rv.mp4	0.0	343.41958928108215	0.10002589225769043
78	325.60708022117615	fix_pre	0		119	76.0	2.5	/experiments/knapen_AOT/AOT_stimuli/rescaled_final/0084_rv.mp4	0.0	343.51961517333984	1.0001640319824219
78	326.58394742012024	pulse	0	t		76.0	2.5	/experiments/knapen_AOT/AOT_stimuli/rescaled_final/0084_rv.mp4	0.0	344.49648237228394	
78	326.60724425315857	movie	1		277	76.0	2.5	/experiments/knapen_AOT/AOT_stimuli/rescaled_final/0084_rv.mp4	0.0	344.51977920532227	2.5003414154052734
78	328.18348932266235	pulse	1	t		76.0	2.5	/experiments/knapen_AOT/AOT_stimuli/rescaled_final/0084_rv.mp4	0.0	346.09602427482605	
78	329.10758566856384	fix_post	2		12	76.0	2.5	/experiments/knapen_AOT/AOT_stimuli/rescaled_final/0084_rv.mp4	0.0	347.02012062072754	0.1000370979309082
79	329.20762276649475	fix_pre	0		120	77.0	2.5	blank	1.0	347.12015771865845	1.0002038478851318
79	329.783100605011	pulse	0	t		77.0	2.5	blank	1.0	347.6956355571747	
79	330.2078266143799	movie	1		300	77.0	2.5	blank	1.0	348.1203615665436	2.500279188156128
79	331.3831868171692	pulse	1	t		77.0	2.5	blank	1.0	349.2957217693329	
79	332.708105802536	fix_post	2		12	77.0	2.5	blank	1.0	350.6206407546997	0.10006570816040039
80	332.8081715106964	fix_pre	0		120	78.0	2.5	/experiments/knapen_AOT/AOT_stimuli/rescaled_final/1328_rv.mp4	0.0	350.7207064628601	1.0084428787231445
80	332.98342633247375	pulse	0	t		78.0	2.5	/experiments/knapen_AOT/AOT_stimuli/rescaled_final/1328_rv.mp4	0.0	350.89596128463745	
80	333.81661438941956	movie	1		281	78.0	2.5	/experiments/knapen_AOT/AOT_stimuli/rescaled_final/1328_rv.mp4	0.0	351.72914934158325	2.4920496940612793
80	334.58367919921875	pulse	1	t		78.0	2.5	/experiments/knapen_AOT/AOT_stimuli/rescaled_final/1328_rv.mp4	0.0	352.49621415138245	
80	336.1839029788971	pulse	1	t		78.0	2.5	/experiments/knapen_AOT/AOT_stimuli/rescaled_final/1328_rv.mp4	0.0	354.0964379310608	
80	336.30866408348083	fix_post	2		12	78.0	2.5	/experiments/knapen_AOT/AOT_stimuli/rescaled_final/1328_rv.mp4	0.0	354.22119903564453	0.0999908447265625
81	336.4086549282074	fix_pre	0		120	79.0	2.5	/experiments/knapen_AOT/AOT_stimuli/rescaled_final/0641_rv.mp4	0.0	354.3211898803711	1.0085229873657227
81	337.4171779155731	movie	1		283	79.0	2.5	/experiments/knapen_AOT/AOT_stimuli/rescaled_final/0641_rv.mp4	0.0	355.3297128677368	2.4920425415039062
81	337.78431940078735	pulse	1	t		79.0	2.5	/experiments/knapen_AOT/AOT_stimuli/rescaled_final/0641_rv.mp4	0.0	355.69685435295105	
81	339.38436698913574	pulse	1	t		79.0	2.5	/experiments/knapen_AOT/AOT_stimuli/rescaled_final/0641_rv.mp4	0.0	357.29690194129944	
81	339.909220457077	fix_post	2		12	79.0	2.5	/experiments/knapen_AOT/AOT_stimuli/rescaled_final/0641_rv.mp4	0.0	357.8217554092407	0.10028576850891113
82	340.00950622558594	fix_pre	0		118	80.0	2.5	/experiments/knapen_AOT/AOT_stimuli/rescaled_final/0046_fw.mp4	0.0	357.92204117774963	0.9915456771850586
82	340.984845161438	pulse	0	t		80.0	2.5	/experiments/knapen_AOT/AOT_stimuli/rescaled_final/0046_fw.mp4	0.0	358.8973801136017	
82	341.001051902771	movie	1		281	80.0	2.5	/experiments/knapen_AOT/AOT_stimuli/rescaled_final/0046_fw.mp4	0.0	358.9135868549347	2.5003693103790283
82	342.5843586921692	pulse	1	t		80.0	2.5	/experiments/knapen_AOT/AOT_stimuli/rescaled_final/0046_fw.mp4	0.0	360.4968936443329	
82	343.50142121315	fix_post	2		12	80.0	2.5	/experiments/knapen_AOT/AOT_stimuli/rescaled_final/0046_fw.mp4	0.0	361.4139561653137	0.10002708435058594
83	343.6014482975006	fix_pre	0		120	81.0	2.5	/experiments/knapen_AOT/AOT_stimuli/rescaled_final/1160_fw.mp4	0.0	361.5139832496643	1.0084865093231201
83	344.18511033058167	pulse	0	t		81.0	2.5	/experiments/knapen_AOT/AOT_stimuli/rescaled_final/1160_fw.mp4	0.0	362.09764528274536	
83	344.60993480682373	movie	1		271	81.0	2.5	/experiments/knapen_AOT/AOT_stimuli/rescaled_final/1160_fw.mp4	0.0	362.5224697589874	2.492027759552002
83	345.7853081226349	pulse	1	t		81.0	2.5	/experiments/knapen_AOT/AOT_stimuli/rescaled_final/1160_fw.mp4	0.0	363.6978430747986	
83	347.10196256637573	fix_post	2		12	81.0	2.5	/experiments/knapen_AOT/AOT_stimuli/rescaled_final/1160_fw.mp4	0.0	365.01449751853943	0.10001897811889648
84	347.20198154449463	fix_pre	0		120	82.0	2.5	/experiments/knapen_AOT/AOT_stimuli/rescaled_final/2138_fw.mp4	0.0	365.1145164966583	1.0084803104400635
84	347.3856430053711	pulse	0	t		82.0	2.5	/experiments/knapen_AOT/AOT_stimuli/rescaled_final/2138_fw.mp4	0.0	365.2981779575348	
84	348.2104618549347	movie	1		278	82.0	2.5	/experiments/knapen_AOT/AOT_stimuli/rescaled_final/2138_fw.mp4	0.0	366.1229968070984	2.4920573234558105
84	348.98435044288635	pulse	1	t		82.0	2.5	/experiments/knapen_AOT/AOT_stimuli/rescaled_final/2138_fw.mp4	0.0	366.89688539505005	
84	350.58444333076477	pulse	1	t		82.0	2.5	/experiments/knapen_AOT/AOT_stimuli/rescaled_final/2138_fw.mp4	0.0	368.49697828292847	
84	350.7025191783905	fix_post	2		12	82.0	2.5	/experiments/knapen_AOT/AOT_stimuli/rescaled_final/2138_fw.mp4	0.0	368.6150541305542	0.10001516342163086
85	350.80253434181213	fix_pre	0		120	83.0	2.5	blank	1.0	368.71506929397583	1.0003063678741455
85	351.8028407096863	movie	1		300	83.0	2.5	blank	1.0	369.71537566185	2.5001983642578125
85	352.18628668785095	pulse	1	t		83.0	2.5	blank	1.0	370.09882164001465	
85	353.78650307655334	pulse	1	t		83.0	2.5	blank	1.0	371.69903802871704	
85	354.3030390739441	fix_post	2		12	83.0	2.5	blank	1.0	372.2155740261078	0.11677718162536621
87	354.41981625556946	stim	0		1713					372.33235120773315	14.277072429656982
87	355.3867633342743	pulse	0	t						373.299298286438	
87	356.98725032806396	pulse	0	t						374.89978528022766	
87	358.58718633651733	pulse	0	t						376.49972128868103	
87	360.18759059906006	pulse	0	t						378.10012555122375	
87	361.78781294822693	pulse	0	t						379.7003479003906	
87	363.3880383968353	pulse	0	t						381.300573348999	
87	364.98819041252136	pulse	0	t						382.90072536468506	
87	366.58842301368713	pulse	0	t						384.50095796585083	
87	368.188636302948	pulse	0	t						386.1011712551117	
