trial_nr	onset	event_type	phase	response	nr_frames	movie_index	movie_duration	movie_file	blank	onset_abs	duration
0	0.14151668548583984	stim	0		8					18.402498483657837	0.06651878356933594
0	0.20001530647277832	response	0	space						18.460997104644775	
1	0.20803546905517578	stim	0		4709					18.469017267227173	39.257442474365234
1	39.45603060722351	pulse	0	t						57.71701240539551	
1	39.46547794342041	stim	1		1715					57.72645974159241	14.300636291503906
1	41.047687292099	pulse	1	t						59.308669090270996	
1	42.64792776107788	pulse	1	t						60.90890955924988	
1	44.24829125404358	pulse	1	t						62.509273052215576	
1	45.84838581085205	pulse	1	t						64.10936760902405	
1	47.448665380477905	pulse	1	t						65.7096471786499	
1	49.04889965057373	pulse	1	t						67.30988144874573	
1	50.649179458618164	pulse	1	t						68.91016125679016	
1	52.249390602111816	pulse	1	t						70.51037240028381	
2	53.766114234924316	fix_pre	0		11	0.0	2.5	/experiments/Knapen_AOT/AOT_stimuli/rescaled_final/1236_rv.mp4	0.0	72.02709603309631	0.1084890365600586
2	53.84965109825134	pulse	0	t		0.0	2.5	/experiments/Knapen_AOT/AOT_stimuli/rescaled_final/1236_rv.mp4	0.0	72.11063289642334	
2	53.874603271484375	movie	1		270	0.0	2.5	/experiments/Knapen_AOT/AOT_stimuli/rescaled_final/1236_rv.mp4	0.0	72.13558506965637	2.491917133331299
2	55.448246240615845	pulse	1	t		0.0	2.5	/experiments/Knapen_AOT/AOT_stimuli/rescaled_final/1236_rv.mp4	0.0	73.70922803878784	
2	56.366520404815674	fix_post	2		12	0.0	2.5	/experiments/Knapen_AOT/AOT_stimuli/rescaled_final/1236_rv.mp4	0.0	74.62750220298767	0.09999227523803711
3	56.46651268005371	fix_pre	0		120	1.0	2.5	/experiments/Knapen_AOT/AOT_stimuli/rescaled_final/1394_rv.mp4	0.0	74.72749447822571	1.0085182189941406
3	57.050180435180664	pulse	0	t		1.0	2.5	/experiments/Knapen_AOT/AOT_stimuli/rescaled_final/1394_rv.mp4	0.0	75.31116223335266	
3	57.47503089904785	movie	1		272	1.0	2.5	/experiments/Knapen_AOT/AOT_stimuli/rescaled_final/1394_rv.mp4	0.0	75.73601269721985	2.4920079708099365
3	58.64882016181946	pulse	1	t		1.0	2.5	/experiments/Knapen_AOT/AOT_stimuli/rescaled_final/1394_rv.mp4	0.0	76.90980195999146	
3	59.96703886985779	fix_post	2		12	1.0	2.5	/experiments/Knapen_AOT/AOT_stimuli/rescaled_final/1394_rv.mp4	0.0	78.22802066802979	0.09999704360961914
4	60.06703591346741	fix_pre	0		120	2.0	2.5	/experiments/Knapen_AOT/AOT_stimuli/rescaled_final/0332_rv.mp4	0.0	78.3280177116394	1.0085899829864502
4	60.2506103515625	pulse	0	t		2.0	2.5	/experiments/Knapen_AOT/AOT_stimuli/rescaled_final/0332_rv.mp4	0.0	78.5115921497345	
4	61.07562589645386	movie	1		280	2.0	2.5	/experiments/Knapen_AOT/AOT_stimuli/rescaled_final/0332_rv.mp4	0.0	79.33660769462585	2.4919397830963135
4	61.84980750083923	pulse	1	t		2.0	2.5	/experiments/Knapen_AOT/AOT_stimuli/rescaled_final/0332_rv.mp4	0.0	80.11078929901123	
4	63.45050358772278	pulse	1	t		2.0	2.5	/experiments/Knapen_AOT/AOT_stimuli/rescaled_final/0332_rv.mp4	0.0	81.71148538589478	
4	63.56756567955017	fix_post	2		12	2.0	2.5	/experiments/Knapen_AOT/AOT_stimuli/rescaled_final/0332_rv.mp4	0.0	81.82854747772217	0.10001349449157715
5	63.66757917404175	fix_pre	0		120	3.0	2.5	/experiments/Knapen_AOT/AOT_stimuli/rescaled_final/0216_rv.mp4	0.0	81.92856097221375	1.008486270904541
5	64.67606544494629	movie	1		285	3.0	2.5	/experiments/Knapen_AOT/AOT_stimuli/rescaled_final/0216_rv.mp4	0.0	82.93704724311829	2.4920690059661865
5	65.04973006248474	pulse	1	t		3.0	2.5	/experiments/Knapen_AOT/AOT_stimuli/rescaled_final/0216_rv.mp4	0.0	83.31071186065674	
5	66.65104031562805	pulse	1	t		3.0	2.5	/experiments/Knapen_AOT/AOT_stimuli/rescaled_final/0216_rv.mp4	0.0	84.91202211380005	
5	67.16813445091248	fix_post	2		12	3.0	2.5	/experiments/Knapen_AOT/AOT_stimuli/rescaled_final/0216_rv.mp4	0.0	85.42911624908447	0.0999917984008789
6	67.26812624931335	fix_pre	0		119	4.0	2.5	/experiments/Knapen_AOT/AOT_stimuli/rescaled_final/1658_rv.mp4	0.0	85.52910804748535	1.000183343887329
6	68.25189185142517	pulse	0	t		4.0	2.5	/experiments/Knapen_AOT/AOT_stimuli/rescaled_final/1658_rv.mp4	0.0	86.51287364959717	
6	68.26830959320068	movie	1		285	4.0	2.5	/experiments/Knapen_AOT/AOT_stimuli/rescaled_final/1658_rv.mp4	0.0	86.52929139137268	2.5003578662872314
6	69.8510890007019	pulse	1	t		4.0	2.5	/experiments/Knapen_AOT/AOT_stimuli/rescaled_final/1658_rv.mp4	0.0	88.1120707988739	
6	70.76866745948792	fix_post	2		12	4.0	2.5	/experiments/Knapen_AOT/AOT_stimuli/rescaled_final/1658_rv.mp4	0.0	89.02964925765991	0.10007405281066895
7	70.86874151229858	fix_pre	0		120	5.0	2.5	blank	1.0	89.12972331047058	1.0000739097595215
7	71.45230460166931	pulse	0	t		5.0	2.5	blank	1.0	89.71328639984131	
7	71.8688154220581	movie	1		300	5.0	2.5	blank	1.0	90.1297972202301	2.500372886657715
7	73.05252242088318	pulse	1	t		5.0	2.5	blank	1.0	91.31350421905518	
7	74.36918830871582	fix_post	2		12	5.0	2.5	blank	1.0	92.63017010688782	0.1002206802368164
8	74.46940898895264	fix_pre	0		120	6.0	2.5	/experiments/Knapen_AOT/AOT_stimuli/rescaled_final/1454_rv.mp4	0.0	92.73039078712463	1.0082831382751465
8	74.6528091430664	pulse	0	t		6.0	2.5	/experiments/Knapen_AOT/AOT_stimuli/rescaled_final/1454_rv.mp4	0.0	92.9137909412384	
8	75.47769212722778	movie	1		289	6.0	2.5	/experiments/Knapen_AOT/AOT_stimuli/rescaled_final/1454_rv.mp4	0.0	93.73867392539978	2.492098331451416
8	76.25091433525085	pulse	1	t		6.0	2.5	/experiments/Knapen_AOT/AOT_stimuli/rescaled_final/1454_rv.mp4	0.0	94.51189613342285	
8	77.84539079666138	pulse	1	t		6.0	2.5	/experiments/Knapen_AOT/AOT_stimuli/rescaled_final/1454_rv.mp4	0.0	96.10637259483337	
8	77.9697904586792	fix_post	2		12	6.0	2.5	/experiments/Knapen_AOT/AOT_stimuli/rescaled_final/1454_rv.mp4	0.0	96.2307722568512	0.09996366500854492
9	78.06975412368774	fix_pre	0		120	7.0	2.5	/experiments/Knapen_AOT/AOT_stimuli/rescaled_final/0332_rv.mp4	0.0	96.33073592185974	1.0085198879241943
9	79.07827401161194	movie	1		281	7.0	2.5	/experiments/Knapen_AOT/AOT_stimuli/rescaled_final/0332_rv.mp4	0.0	97.33925580978394	2.491995096206665
9	79.45365333557129	pulse	1	t		7.0	2.5	/experiments/Knapen_AOT/AOT_stimuli/rescaled_final/0332_rv.mp4	0.0	97.71463513374329	
9	81.04539322853088	pulse	1	t		7.0	2.5	/experiments/Knapen_AOT/AOT_stimuli/rescaled_final/0332_rv.mp4	0.0	99.30637502670288	
9	81.5702691078186	fix_post	2		12	7.0	2.5	/experiments/Knapen_AOT/AOT_stimuli/rescaled_final/0332_rv.mp4	0.0	99.8312509059906	0.10004973411560059
10	81.6703188419342	fix_pre	0		118	8.0	2.5	/experiments/Knapen_AOT/AOT_stimuli/rescaled_final/1483_rv.mp4	0.0	99.9313006401062	0.9918034076690674
10	82.6456515789032	pulse	0	t		8.0	2.5	/experiments/Knapen_AOT/AOT_stimuli/rescaled_final/1483_rv.mp4	0.0	100.9066333770752	
10	82.66212224960327	movie	1		294	8.0	2.5	/experiments/Knapen_AOT/AOT_stimuli/rescaled_final/1483_rv.mp4	0.0	100.92310404777527	2.5003397464752197
10	84.24592876434326	pulse	1	t		8.0	2.5	/experiments/Knapen_AOT/AOT_stimuli/rescaled_final/1483_rv.mp4	0.0	102.50691056251526	
10	85.16246199607849	fix_post	2		12	8.0	2.5	/experiments/Knapen_AOT/AOT_stimuli/rescaled_final/1483_rv.mp4	0.0	103.42344379425049	0.10010075569152832
11	85.26256275177002	fix_pre	0		120	9.0	2.5	/experiments/Knapen_AOT/AOT_stimuli/rescaled_final/2123_rv.mp4	0.0	103.52354454994202	1.0084364414215088
11	85.84611678123474	pulse	0	t		9.0	2.5	/experiments/Knapen_AOT/AOT_stimuli/rescaled_final/2123_rv.mp4	0.0	104.10709857940674	
11	86.27099919319153	movie	1		295	9.0	2.5	/experiments/Knapen_AOT/AOT_stimuli/rescaled_final/2123_rv.mp4	0.0	104.53198099136353	2.491978883743286
11	87.44640135765076	pulse	1	t		9.0	2.5	/experiments/Knapen_AOT/AOT_stimuli/rescaled_final/2123_rv.mp4	0.0	105.70738315582275	
11	88.76297807693481	fix_post	2		12	9.0	2.5	/experiments/Knapen_AOT/AOT_stimuli/rescaled_final/2123_rv.mp4	0.0	107.02395987510681	0.1001579761505127
12	88.86313605308533	fix_pre	0		120	10.0	2.5	/experiments/Knapen_AOT/AOT_stimuli/rescaled_final/1033_rv.mp4	0.0	107.12411785125732	1.0000174045562744
12	89.04690170288086	pulse	0	t		10.0	2.5	/experiments/Knapen_AOT/AOT_stimuli/rescaled_final/1033_rv.mp4	0.0	107.30788350105286	
12	89.8631534576416	movie	1		298	10.0	2.5	/experiments/Knapen_AOT/AOT_stimuli/rescaled_final/1033_rv.mp4	0.0	108.1241352558136	2.5003907680511475
12	90.64690780639648	pulse	1	t		10.0	2.5	/experiments/Knapen_AOT/AOT_stimuli/rescaled_final/1033_rv.mp4	0.0	108.90788960456848	
12	92.24714255332947	pulse	1	t		10.0	2.5	/experiments/Knapen_AOT/AOT_stimuli/rescaled_final/1033_rv.mp4	0.0	110.50812435150146	
12	92.36354422569275	fix_post	2		12	10.0	2.5	/experiments/Knapen_AOT/AOT_stimuli/rescaled_final/1033_rv.mp4	0.0	110.62452602386475	0.10000991821289062
13	92.46355414390564	fix_pre	0		120	11.0	2.5	/experiments/Knapen_AOT/AOT_stimuli/rescaled_final/1897_rv.mp4	0.0	110.72453594207764	1.0001389980316162
13	93.46369314193726	movie	1		292	11.0	2.5	/experiments/Knapen_AOT/AOT_stimuli/rescaled_final/1897_rv.mp4	0.0	111.72467494010925	2.500419855117798
13	93.84525680541992	pulse	1	t		11.0	2.5	/experiments/Knapen_AOT/AOT_stimuli/rescaled_final/1897_rv.mp4	0.0	112.10623860359192	
13	95.44486427307129	pulse	1	t		11.0	2.5	/experiments/Knapen_AOT/AOT_stimuli/rescaled_final/1897_rv.mp4	0.0	113.70584607124329	
13	95.96411299705505	fix_post	2		12	11.0	2.5	/experiments/Knapen_AOT/AOT_stimuli/rescaled_final/1897_rv.mp4	0.0	114.22509479522705	0.09998822212219238
14	96.06410121917725	fix_pre	0		119	12.0	2.5	/experiments/Knapen_AOT/AOT_stimuli/rescaled_final/1555_fw.mp4	0.0	114.32508301734924	1.0001771450042725
14	97.047678232193	pulse	0	t		12.0	2.5	/experiments/Knapen_AOT/AOT_stimuli/rescaled_final/1555_fw.mp4	0.0	115.30866003036499	
14	97.06427836418152	movie	1		293	12.0	2.5	/experiments/Knapen_AOT/AOT_stimuli/rescaled_final/1555_fw.mp4	0.0	115.32526016235352	2.5003387928009033
14	98.64570450782776	pulse	1	t		12.0	2.5	/experiments/Knapen_AOT/AOT_stimuli/rescaled_final/1555_fw.mp4	0.0	116.90668630599976	
14	99.56461715698242	fix_post	2		12	12.0	2.5	/experiments/Knapen_AOT/AOT_stimuli/rescaled_final/1555_fw.mp4	0.0	117.82559895515442	0.10002899169921875
15	99.66464614868164	fix_pre	0		120	13.0	2.5	blank	1.0	117.92562794685364	1.0001540184020996
15	100.24839925765991	pulse	0	t		13.0	2.5	blank	1.0	118.50938105583191	
15	100.66480016708374	movie	1		300	13.0	2.5	blank	1.0	118.92578196525574	2.50042462348938
15	101.84879899024963	pulse	1	t		13.0	2.5	blank	1.0	120.10978078842163	
15	103.16522479057312	fix_post	2		12	13.0	2.5	blank	1.0	121.42620658874512	0.10004305839538574
16	103.2652678489685	fix_pre	0		120	14.0	2.5	/experiments/Knapen_AOT/AOT_stimuli/rescaled_final/1107_fw.mp4	0.0	121.5262496471405	1.0085604190826416
16	103.44877648353577	pulse	0	t		14.0	2.5	/experiments/Knapen_AOT/AOT_stimuli/rescaled_final/1107_fw.mp4	0.0	121.70975828170776	
16	104.27382826805115	movie	1		288	14.0	2.5	/experiments/Knapen_AOT/AOT_stimuli/rescaled_final/1107_fw.mp4	0.0	122.53481006622314	2.491865634918213
16	105.04718375205994	pulse	1	t		14.0	2.5	/experiments/Knapen_AOT/AOT_stimuli/rescaled_final/1107_fw.mp4	0.0	123.30816555023193	
16	106.647292137146	pulse	1	t		14.0	2.5	/experiments/Knapen_AOT/AOT_stimuli/rescaled_final/1107_fw.mp4	0.0	124.908273935318	
16	106.76569390296936	fix_post	2		12	14.0	2.5	/experiments/Knapen_AOT/AOT_stimuli/rescaled_final/1107_fw.mp4	0.0	125.02667570114136	0.10004758834838867
17	106.86574149131775	fix_pre	0		120	15.0	2.5	/experiments/Knapen_AOT/AOT_stimuli/rescaled_final/1012_rv.mp4	0.0	125.12672328948975	1.0085105895996094
17	107.87425208091736	movie	1		285	15.0	2.5	/experiments/Knapen_AOT/AOT_stimuli/rescaled_final/1012_rv.mp4	0.0	126.13523387908936	2.492043972015381
17	108.24808549880981	pulse	1	t		15.0	2.5	/experiments/Knapen_AOT/AOT_stimuli/rescaled_final/1012_rv.mp4	0.0	126.50906729698181	
17	109.8480134010315	pulse	1	t		15.0	2.5	/experiments/Knapen_AOT/AOT_stimuli/rescaled_final/1012_rv.mp4	0.0	128.1089951992035	
17	110.36629605293274	fix_post	2		12	15.0	2.5	/experiments/Knapen_AOT/AOT_stimuli/rescaled_final/1012_rv.mp4	0.0	128.62727785110474	0.09999442100524902
18	110.46629047393799	fix_pre	0		119	16.0	2.5	/experiments/Knapen_AOT/AOT_stimuli/rescaled_final/0357_fw.mp4	0.0	128.72727227210999	1.0002005100250244
18	111.4500105381012	pulse	0	t		16.0	2.5	/experiments/Knapen_AOT/AOT_stimuli/rescaled_final/0357_fw.mp4	0.0	129.7109923362732	
18	111.46649098396301	movie	1		287	16.0	2.5	/experiments/Knapen_AOT/AOT_stimuli/rescaled_final/0357_fw.mp4	0.0	129.727472782135	2.500321626663208
18	113.04857182502747	pulse	1	t		16.0	2.5	/experiments/Knapen_AOT/AOT_stimuli/rescaled_final/0357_fw.mp4	0.0	131.30955362319946	
18	113.96681261062622	fix_post	2		12	16.0	2.5	/experiments/Knapen_AOT/AOT_stimuli/rescaled_final/0357_fw.mp4	0.0	132.22779440879822	0.10001087188720703
19	114.06682348251343	fix_pre	0		120	17.0	2.5	/experiments/Knapen_AOT/AOT_stimuli/rescaled_final/1130_fw.mp4	0.0	132.32780528068542	1.0085415840148926
19	114.65050339698792	pulse	0	t		17.0	2.5	/experiments/Knapen_AOT/AOT_stimuli/rescaled_final/1130_fw.mp4	0.0	132.9114851951599	
19	115.07536506652832	movie	1		269	17.0	2.5	/experiments/Knapen_AOT/AOT_stimuli/rescaled_final/1130_fw.mp4	0.0	133.33634686470032	2.4920051097869873
19	116.25118350982666	pulse	1	t		17.0	2.5	/experiments/Knapen_AOT/AOT_stimuli/rescaled_final/1130_fw.mp4	0.0	134.51216530799866	
19	117.56737017631531	fix_post	2		12	17.0	2.5	/experiments/Knapen_AOT/AOT_stimuli/rescaled_final/1130_fw.mp4	0.0	135.8283519744873	0.09998393058776855
20	117.66735410690308	fix_pre	0		120	18.0	2.5	/experiments/Knapen_AOT/AOT_stimuli/rescaled_final/0665_fw.mp4	0.0	135.92833590507507	1.0085227489471436
20	117.85114169120789	pulse	0	t		18.0	2.5	/experiments/Knapen_AOT/AOT_stimuli/rescaled_final/0665_fw.mp4	0.0	136.11212348937988	
20	118.67587685585022	movie	1		287	18.0	2.5	/experiments/Knapen_AOT/AOT_stimuli/rescaled_final/0665_fw.mp4	0.0	136.93685865402222	2.4920196533203125
20	119.44882702827454	pulse	1	t		18.0	2.5	/experiments/Knapen_AOT/AOT_stimuli/rescaled_final/0665_fw.mp4	0.0	137.70980882644653	
20	121.05002927780151	pulse	1	t		18.0	2.5	/experiments/Knapen_AOT/AOT_stimuli/rescaled_final/0665_fw.mp4	0.0	139.3110110759735	
20	121.16789650917053	fix_post	2		12	18.0	2.5	/experiments/Knapen_AOT/AOT_stimuli/rescaled_final/0665_fw.mp4	0.0	139.42887830734253	0.1000220775604248
21	121.26791858673096	fix_pre	0		120	19.0	2.5	/experiments/Knapen_AOT/AOT_stimuli/rescaled_final/1139_rv.mp4	0.0	139.52890038490295	1.008488655090332
21	122.27640724182129	movie	1		284	19.0	2.5	/experiments/Knapen_AOT/AOT_stimuli/rescaled_final/1139_rv.mp4	0.0	140.5373890399933	2.492032766342163
21	122.65184020996094	pulse	1	t		19.0	2.5	/experiments/Knapen_AOT/AOT_stimuli/rescaled_final/1139_rv.mp4	0.0	140.91282200813293	
21	124.24956059455872	pulse	1	t		19.0	2.5	/experiments/Knapen_AOT/AOT_stimuli/rescaled_final/1139_rv.mp4	0.0	142.5105423927307	
21	124.76844000816345	fix_post	2		12	19.0	2.5	/experiments/Knapen_AOT/AOT_stimuli/rescaled_final/1139_rv.mp4	0.0	143.02942180633545	0.10005402565002441
22	124.86849403381348	fix_pre	0		119	20.0	2.5	blank	1.0	143.12947583198547	0.9917707443237305
22	125.84548115730286	pulse	0	t		20.0	2.5	blank	1.0	144.10646295547485	
22	125.8602647781372	movie	1		301	20.0	2.5	blank	1.0	144.1212465763092	2.5088462829589844
22	127.45246076583862	pulse	1	t		20.0	2.5	blank	1.0	145.71344256401062	
22	128.3691110610962	fix_post	2		12	20.0	2.5	blank	1.0	146.6300928592682	0.09989285469055176
23	128.46900391578674	fix_pre	0		120	21.0	2.5	/experiments/Knapen_AOT/AOT_stimuli/rescaled_final/1674_fw.mp4	0.0	146.72998571395874	1.008497953414917
23	129.04467391967773	pulse	0	t		21.0	2.5	/experiments/Knapen_AOT/AOT_stimuli/rescaled_final/1674_fw.mp4	0.0	147.30565571784973	
23	129.47750186920166	movie	1		273	21.0	2.5	/experiments/Knapen_AOT/AOT_stimuli/rescaled_final/1674_fw.mp4	0.0	147.73848366737366	2.4920241832733154
23	130.64462995529175	pulse	1	t		21.0	2.5	/experiments/Knapen_AOT/AOT_stimuli/rescaled_final/1674_fw.mp4	0.0	148.90561175346375	
23	131.96952605247498	fix_post	2		12	21.0	2.5	/experiments/Knapen_AOT/AOT_stimuli/rescaled_final/1674_fw.mp4	0.0	150.23050785064697	0.10001873970031738
24	132.0695447921753	fix_pre	0		120	22.0	2.5	/experiments/Knapen_AOT/AOT_stimuli/rescaled_final/0763_rv.mp4	0.0	150.3305265903473	1.0084874629974365
24	132.24485325813293	pulse	0	t		22.0	2.5	/experiments/Knapen_AOT/AOT_stimuli/rescaled_final/0763_rv.mp4	0.0	150.50583505630493	
24	133.07803225517273	movie	1		284	22.0	2.5	/experiments/Knapen_AOT/AOT_stimuli/rescaled_final/0763_rv.mp4	0.0	151.33901405334473	2.4920268058776855
24	133.8450255393982	pulse	1	t		22.0	2.5	/experiments/Knapen_AOT/AOT_stimuli/rescaled_final/0763_rv.mp4	0.0	152.1060073375702	
24	135.44532203674316	pulse	1	t		22.0	2.5	/experiments/Knapen_AOT/AOT_stimuli/rescaled_final/0763_rv.mp4	0.0	153.70630383491516	
24	135.57005906105042	fix_post	2		12	22.0	2.5	/experiments/Knapen_AOT/AOT_stimuli/rescaled_final/0763_rv.mp4	0.0	153.8310408592224	0.10004854202270508
25	135.67010760307312	fix_pre	0		120	23.0	2.5	/experiments/Knapen_AOT/AOT_stimuli/rescaled_final/1074_fw.mp4	0.0	153.93108940124512	1.0084552764892578
25	136.67856287956238	movie	1		291	23.0	2.5	/experiments/Knapen_AOT/AOT_stimuli/rescaled_final/1074_fw.mp4	0.0	154.93954467773438	2.4920382499694824
25	137.04572772979736	pulse	1	t		23.0	2.5	/experiments/Knapen_AOT/AOT_stimuli/rescaled_final/1074_fw.mp4	0.0	155.30670952796936	
25	138.64618587493896	pulse	1	t		23.0	2.5	/experiments/Knapen_AOT/AOT_stimuli/rescaled_final/1074_fw.mp4	0.0	156.90716767311096	
25	139.17060112953186	fix_post	2		12	23.0	2.5	/experiments/Knapen_AOT/AOT_stimuli/rescaled_final/1074_fw.mp4	0.0	157.43158292770386	0.1000361442565918
26	139.27063727378845	fix_pre	0		118	24.0	2.5	/experiments/Knapen_AOT/AOT_stimuli/rescaled_final/1597_fw.mp4	0.0	157.53161907196045	1.000241756439209
26	140.2463095188141	pulse	0	t		24.0	2.5	/experiments/Knapen_AOT/AOT_stimuli/rescaled_final/1597_fw.mp4	0.0	158.50729131698608	
26	140.27087903022766	movie	1		280	24.0	2.5	/experiments/Knapen_AOT/AOT_stimuli/rescaled_final/1597_fw.mp4	0.0	158.53186082839966	2.4919352531433105
26	141.8449342250824	pulse	1	t		24.0	2.5	/experiments/Knapen_AOT/AOT_stimuli/rescaled_final/1597_fw.mp4	0.0	160.1059160232544	
26	142.76281428337097	fix_post	2		12	24.0	2.5	/experiments/Knapen_AOT/AOT_stimuli/rescaled_final/1597_fw.mp4	0.0	161.02379608154297	0.10001182556152344
27	142.8628261089325	fix_pre	0		120	25.0	2.5	/experiments/Knapen_AOT/AOT_stimuli/rescaled_final/1343_fw.mp4	0.0	161.1238079071045	1.0085151195526123
27	143.44644331932068	pulse	0	t		25.0	2.5	/experiments/Knapen_AOT/AOT_stimuli/rescaled_final/1343_fw.mp4	0.0	161.70742511749268	
27	143.8713412284851	movie	1		292	25.0	2.5	/experiments/Knapen_AOT/AOT_stimuli/rescaled_final/1343_fw.mp4	0.0	162.1323230266571	2.492004632949829
27	145.04473161697388	pulse	1	t		25.0	2.5	/experiments/Knapen_AOT/AOT_stimuli/rescaled_final/1343_fw.mp4	0.0	163.30571341514587	
27	146.36334586143494	fix_post	2		12	25.0	2.5	/experiments/Knapen_AOT/AOT_stimuli/rescaled_final/1343_fw.mp4	0.0	164.62432765960693	0.10000371932983398
28	146.46334958076477	fix_pre	0		120	26.0	2.5	/experiments/Knapen_AOT/AOT_stimuli/rescaled_final/1039_fw.mp4	0.0	164.72433137893677	1.0003201961517334
28	146.6468391418457	pulse	0	t		26.0	2.5	/experiments/Knapen_AOT/AOT_stimuli/rescaled_final/1039_fw.mp4	0.0	164.9078209400177	
28	147.4636697769165	movie	1		298	26.0	2.5	/experiments/Knapen_AOT/AOT_stimuli/rescaled_final/1039_fw.mp4	0.0	165.7246515750885	2.500208616256714
28	148.24705290794373	pulse	1	t		26.0	2.5	/experiments/Knapen_AOT/AOT_stimuli/rescaled_final/1039_fw.mp4	0.0	166.50803470611572	
28	149.84487128257751	pulse	1	t		26.0	2.5	/experiments/Knapen_AOT/AOT_stimuli/rescaled_final/1039_fw.mp4	0.0	168.1058530807495	
28	149.96387839317322	fix_post	2		12	26.0	2.5	/experiments/Knapen_AOT/AOT_stimuli/rescaled_final/1039_fw.mp4	0.0	168.22486019134521	0.10001802444458008
29	150.0638964176178	fix_pre	0		120	27.0	2.5	blank	1.0	168.3248782157898	1.000173568725586
29	151.06406998634338	movie	1		300	27.0	2.5	blank	1.0	169.32505178451538	2.500359535217285
29	151.44770741462708	pulse	1	t		27.0	2.5	blank	1.0	169.70868921279907	
29	153.04816579818726	pulse	1	t		27.0	2.5	blank	1.0	171.30914759635925	
29	153.56442952156067	fix_post	2		12	27.0	2.5	blank	1.0	171.82541131973267	0.1000509262084961
30	153.66448044776917	fix_pre	0		119	28.0	2.5	/experiments/Knapen_AOT/AOT_stimuli/rescaled_final/0947_rv.mp4	0.0	171.92546224594116	1.0001366138458252
30	154.64820384979248	pulse	0	t		28.0	2.5	/experiments/Knapen_AOT/AOT_stimuli/rescaled_final/0947_rv.mp4	0.0	172.90918564796448	
30	154.664617061615	movie	1		270	28.0	2.5	/experiments/Knapen_AOT/AOT_stimuli/rescaled_final/0947_rv.mp4	0.0	172.925598859787	2.5003726482391357
30	156.24803709983826	pulse	1	t		28.0	2.5	/experiments/Knapen_AOT/AOT_stimuli/rescaled_final/0947_rv.mp4	0.0	174.50901889801025	
30	157.16498970985413	fix_post	2		12	28.0	2.5	/experiments/Knapen_AOT/AOT_stimuli/rescaled_final/0947_rv.mp4	0.0	175.42597150802612	0.10004448890686035
31	157.265034198761	fix_pre	0		120	29.0	2.5	/experiments/Knapen_AOT/AOT_stimuli/rescaled_final/0896_fw.mp4	0.0	175.52601599693298	1.008474588394165
31	157.8486363887787	pulse	0	t		29.0	2.5	/experiments/Knapen_AOT/AOT_stimuli/rescaled_final/0896_fw.mp4	0.0	176.10961818695068	
31	158.27350878715515	movie	1		284	29.0	2.5	/experiments/Knapen_AOT/AOT_stimuli/rescaled_final/0896_fw.mp4	0.0	176.53449058532715	2.4920198917388916
31	159.44684147834778	pulse	1	t		29.0	2.5	/experiments/Knapen_AOT/AOT_stimuli/rescaled_final/0896_fw.mp4	0.0	177.70782327651978	
31	160.76552867889404	fix_post	2		12	29.0	2.5	/experiments/Knapen_AOT/AOT_stimuli/rescaled_final/0896_fw.mp4	0.0	179.02651047706604	0.10004878044128418
32	160.86557745933533	fix_pre	0		120	30.0	2.5	/experiments/Knapen_AOT/AOT_stimuli/rescaled_final/1528_rv.mp4	0.0	179.12655925750732	1.0084443092346191
32	161.0491602420807	pulse	0	t		30.0	2.5	/experiments/Knapen_AOT/AOT_stimuli/rescaled_final/1528_rv.mp4	0.0	179.31014204025269	
32	161.87402176856995	movie	1		284	30.0	2.5	/experiments/Knapen_AOT/AOT_stimuli/rescaled_final/1528_rv.mp4	0.0	180.13500356674194	2.492051839828491
32	162.64715695381165	pulse	1	t		30.0	2.5	/experiments/Knapen_AOT/AOT_stimuli/rescaled_final/1528_rv.mp4	0.0	180.90813875198364	
32	164.24753069877625	pulse	1	t		30.0	2.5	/experiments/Knapen_AOT/AOT_stimuli/rescaled_final/1528_rv.mp4	0.0	182.50851249694824	
32	164.36607360839844	fix_post	2		12	30.0	2.5	/experiments/Knapen_AOT/AOT_stimuli/rescaled_final/1528_rv.mp4	0.0	182.62705540657043	0.10010075569152832
33	164.46617436408997	fix_pre	0		120	31.0	2.5	/experiments/Knapen_AOT/AOT_stimuli/rescaled_final/2109_fw.mp4	0.0	182.72715616226196	1.0083911418914795
33	165.47456550598145	movie	1		286	31.0	2.5	/experiments/Knapen_AOT/AOT_stimuli/rescaled_final/2109_fw.mp4	0.0	183.73554730415344	2.492060899734497
33	165.84898614883423	pulse	1	t		31.0	2.5	/experiments/Knapen_AOT/AOT_stimuli/rescaled_final/2109_fw.mp4	0.0	184.10996794700623	
33	167.44807767868042	pulse	1	t		31.0	2.5	/experiments/Knapen_AOT/AOT_stimuli/rescaled_final/2109_fw.mp4	0.0	185.70905947685242	
33	167.96662640571594	fix_post	2		12	31.0	2.5	/experiments/Knapen_AOT/AOT_stimuli/rescaled_final/2109_fw.mp4	0.0	186.22760820388794	0.10001254081726074
34	168.0666389465332	fix_pre	0		119	32.0	2.5	/experiments/Knapen_AOT/AOT_stimuli/rescaled_final/0925_rv.mp4	0.0	186.3276207447052	1.0001702308654785
34	169.05034708976746	pulse	0	t		32.0	2.5	/experiments/Knapen_AOT/AOT_stimuli/rescaled_final/0925_rv.mp4	0.0	187.31132888793945	
34	169.06680917739868	movie	1		286	32.0	2.5	/experiments/Knapen_AOT/AOT_stimuli/rescaled_final/0925_rv.mp4	0.0	187.32779097557068	2.5003468990325928
34	170.64895224571228	pulse	1	t		32.0	2.5	/experiments/Knapen_AOT/AOT_stimuli/rescaled_final/0925_rv.mp4	0.0	188.90993404388428	
34	171.56715607643127	fix_post	2		12	32.0	2.5	/experiments/Knapen_AOT/AOT_stimuli/rescaled_final/0925_rv.mp4	0.0	189.82813787460327	0.10001611709594727
35	171.66717219352722	fix_pre	0		120	33.0	2.5	blank	1.0	189.92815399169922	1.0001308917999268
35	172.25080466270447	pulse	0	t		33.0	2.5	blank	1.0	190.51178646087646	
35	172.66730308532715	movie	1		300	33.0	2.5	blank	1.0	190.92828488349915	2.500413179397583
35	173.85102915763855	pulse	1	t		33.0	2.5	blank	1.0	192.11201095581055	
35	175.16771626472473	fix_post	2		12	33.0	2.5	blank	1.0	193.42869806289673	0.10000944137573242
36	175.26772570610046	fix_pre	0		120	34.0	2.5	/experiments/Knapen_AOT/AOT_stimuli/rescaled_final/1973_fw.mp4	0.0	193.52870750427246	1.0085070133209229
36	175.45127272605896	pulse	0	t		34.0	2.5	/experiments/Knapen_AOT/AOT_stimuli/rescaled_final/1973_fw.mp4	0.0	193.71225452423096	
36	176.2762327194214	movie	1		270	34.0	2.5	/experiments/Knapen_AOT/AOT_stimuli/rescaled_final/1973_fw.mp4	0.0	194.53721451759338	2.4920244216918945
36	177.04924368858337	pulse	1	t		34.0	2.5	/experiments/Knapen_AOT/AOT_stimuli/rescaled_final/1973_fw.mp4	0.0	195.31022548675537	
36	178.64964604377747	pulse	1	t		34.0	2.5	/experiments/Knapen_AOT/AOT_stimuli/rescaled_final/1973_fw.mp4	0.0	196.91062784194946	
36	178.76825714111328	fix_post	2		12	34.0	2.5	/experiments/Knapen_AOT/AOT_stimuli/rescaled_final/1973_fw.mp4	0.0	197.02923893928528	0.09999442100524902
37	178.86825156211853	fix_pre	0		120	35.0	2.5	/experiments/Knapen_AOT/AOT_stimuli/rescaled_final/0146_rv.mp4	0.0	197.12923336029053	1.0084874629974365
37	179.87673902511597	movie	1		270	35.0	2.5	/experiments/Knapen_AOT/AOT_stimuli/rescaled_final/0146_rv.mp4	0.0	198.13772082328796	2.4920332431793213
37	180.25042343139648	pulse	1	t		35.0	2.5	/experiments/Knapen_AOT/AOT_stimuli/rescaled_final/0146_rv.mp4	0.0	198.51140522956848	
37	181.85015892982483	pulse	1	t		35.0	2.5	/experiments/Knapen_AOT/AOT_stimuli/rescaled_final/0146_rv.mp4	0.0	200.11114072799683	
37	182.3687722682953	fix_post	2		12	35.0	2.5	/experiments/Knapen_AOT/AOT_stimuli/rescaled_final/0146_rv.mp4	0.0	200.62975406646729	0.10002613067626953
38	182.46879839897156	fix_pre	0		119	36.0	2.5	/experiments/Knapen_AOT/AOT_stimuli/rescaled_final/1400_fw.mp4	0.0	200.72978019714355	1.0001637935638428
38	183.4450237751007	pulse	0	t		36.0	2.5	/experiments/Knapen_AOT/AOT_stimuli/rescaled_final/1400_fw.mp4	0.0	201.7060055732727	
38	183.4689621925354	movie	1		289	36.0	2.5	/experiments/Knapen_AOT/AOT_stimuli/rescaled_final/1400_fw.mp4	0.0	201.7299439907074	2.500349521636963
38	185.05130624771118	pulse	1	t		36.0	2.5	/experiments/Knapen_AOT/AOT_stimuli/rescaled_final/1400_fw.mp4	0.0	203.31228804588318	
38	185.96931171417236	fix_post	2		12	36.0	2.5	/experiments/Knapen_AOT/AOT_stimuli/rescaled_final/1400_fw.mp4	0.0	204.23029351234436	0.10006165504455566
39	186.06937336921692	fix_pre	0		120	37.0	2.5	/experiments/Knapen_AOT/AOT_stimuli/rescaled_final/1445_fw.mp4	0.0	204.33035516738892	1.0084576606750488
39	186.6449568271637	pulse	0	t		37.0	2.5	/experiments/Knapen_AOT/AOT_stimuli/rescaled_final/1445_fw.mp4	0.0	204.9059386253357	
39	187.07783102989197	movie	1		283	37.0	2.5	/experiments/Knapen_AOT/AOT_stimuli/rescaled_final/1445_fw.mp4	0.0	205.33881282806396	2.4920473098754883
39	188.2451512813568	pulse	1	t		37.0	2.5	/experiments/Knapen_AOT/AOT_stimuli/rescaled_final/1445_fw.mp4	0.0	206.5061330795288	
39	189.56987833976746	fix_post	2		12	37.0	2.5	/experiments/Knapen_AOT/AOT_stimuli/rescaled_final/1445_fw.mp4	0.0	207.83086013793945	0.09999823570251465
40	189.66987657546997	fix_pre	0		120	38.0	2.5	/experiments/Knapen_AOT/AOT_stimuli/rescaled_final/1504_rv.mp4	0.0	207.93085837364197	1.008518934249878
40	189.84511709213257	pulse	0	t		38.0	2.5	/experiments/Knapen_AOT/AOT_stimuli/rescaled_final/1504_rv.mp4	0.0	208.10609889030457	
40	190.67839550971985	movie	1		273	38.0	2.5	/experiments/Knapen_AOT/AOT_stimuli/rescaled_final/1504_rv.mp4	0.0	208.93937730789185	2.491989850997925
40	191.44536113739014	pulse	1	t		38.0	2.5	/experiments/Knapen_AOT/AOT_stimuli/rescaled_final/1504_rv.mp4	0.0	209.70634293556213	
40	193.0455813407898	pulse	1	t		38.0	2.5	/experiments/Knapen_AOT/AOT_stimuli/rescaled_final/1504_rv.mp4	0.0	211.3065631389618	
40	193.17038536071777	fix_post	2		12	38.0	2.5	/experiments/Knapen_AOT/AOT_stimuli/rescaled_final/1504_rv.mp4	0.0	211.43136715888977	0.1000204086303711
41	193.27040576934814	fix_pre	0		120	39.0	2.5	/experiments/Knapen_AOT/AOT_stimuli/rescaled_final/2063_fw.mp4	0.0	211.53138756752014	1.008528232574463
41	194.2789340019226	movie	1		290	39.0	2.5	/experiments/Knapen_AOT/AOT_stimuli/rescaled_final/2063_fw.mp4	0.0	212.5399158000946	2.492013692855835
41	194.6459095478058	pulse	1	t		39.0	2.5	/experiments/Knapen_AOT/AOT_stimuli/rescaled_final/2063_fw.mp4	0.0	212.90689134597778	
41	196.24613571166992	pulse	1	t		39.0	2.5	/experiments/Knapen_AOT/AOT_stimuli/rescaled_final/2063_fw.mp4	0.0	214.50711750984192	
41	196.77094769477844	fix_post	2		12	39.0	2.5	/experiments/Knapen_AOT/AOT_stimuli/rescaled_final/2063_fw.mp4	0.0	215.03192949295044	0.10005950927734375
42	196.8710072040558	fix_pre	0		118	40.0	2.5	/experiments/Knapen_AOT/AOT_stimuli/rescaled_final/2179_rv.mp4	0.0	215.13198900222778	0.9917936325073242
42	197.8463373184204	pulse	0	t		40.0	2.5	/experiments/Knapen_AOT/AOT_stimuli/rescaled_final/2179_rv.mp4	0.0	216.1073191165924	
42	197.8628008365631	movie	1		289	40.0	2.5	/experiments/Knapen_AOT/AOT_stimuli/rescaled_final/2179_rv.mp4	0.0	216.1237826347351	2.508922576904297
42	199.44587063789368	pulse	1	t		40.0	2.5	/experiments/Knapen_AOT/AOT_stimuli/rescaled_final/2179_rv.mp4	0.0	217.70685243606567	
42	200.3717234134674	fix_post	2		11	40.0	2.5	/experiments/Knapen_AOT/AOT_stimuli/rescaled_final/2179_rv.mp4	0.0	218.6327052116394	0.09149360656738281
43	200.4632170200348	fix_pre	0		120	41.0	2.5	/experiments/Knapen_AOT/AOT_stimuli/rescaled_final/1658_fw.mp4	0.0	218.7241988182068	1.0085225105285645
43	201.0467939376831	pulse	0	t		41.0	2.5	/experiments/Knapen_AOT/AOT_stimuli/rescaled_final/1658_fw.mp4	0.0	219.3077757358551	
43	201.47173953056335	movie	1		284	41.0	2.5	/experiments/Knapen_AOT/AOT_stimuli/rescaled_final/1658_fw.mp4	0.0	219.73272132873535	2.4919557571411133
43	202.64590334892273	pulse	1	t		41.0	2.5	/experiments/Knapen_AOT/AOT_stimuli/rescaled_final/1658_fw.mp4	0.0	220.90688514709473	
43	203.96369528770447	fix_post	2		12	41.0	2.5	/experiments/Knapen_AOT/AOT_stimuli/rescaled_final/1658_fw.mp4	0.0	222.22467708587646	0.10000395774841309
44	204.06369924545288	fix_pre	0		120	42.0	2.5	blank	1.0	222.32468104362488	1.0001468658447266
44	204.2473270893097	pulse	0	t		42.0	2.5	blank	1.0	222.5083088874817	
44	205.0638461112976	movie	1		300	42.0	2.5	blank	1.0	223.3248279094696	2.5003812313079834
44	205.8475842475891	pulse	1	t		42.0	2.5	blank	1.0	224.1085660457611	
44	207.44777750968933	pulse	1	t		42.0	2.5	blank	1.0	225.70875930786133	
44	207.5642273426056	fix_post	2		12	42.0	2.5	blank	1.0	225.8252091407776	0.10022807121276855
45	207.66445541381836	fix_pre	0		120	43.0	2.5	/experiments/Knapen_AOT/AOT_stimuli/rescaled_final/1676_fw.mp4	0.0	225.92543721199036	1.0082881450653076
45	208.67274355888367	movie	1		281	43.0	2.5	/experiments/Knapen_AOT/AOT_stimuli/rescaled_final/1676_fw.mp4	0.0	226.93372535705566	2.492042303085327
45	209.04637694358826	pulse	1	t		43.0	2.5	/experiments/Knapen_AOT/AOT_stimuli/rescaled_final/1676_fw.mp4	0.0	227.30735874176025	
45	210.64666414260864	pulse	1	t		43.0	2.5	/experiments/Knapen_AOT/AOT_stimuli/rescaled_final/1676_fw.mp4	0.0	228.90764594078064	
45	211.164785861969	fix_post	2		12	43.0	2.5	/experiments/Knapen_AOT/AOT_stimuli/rescaled_final/1676_fw.mp4	0.0	229.425767660141	0.09999752044677734
46	211.26478338241577	fix_pre	0		119	44.0	2.5	/experiments/Knapen_AOT/AOT_stimuli/rescaled_final/1578_fw.mp4	0.0	229.52576518058777	1.0002331733703613
46	212.24856734275818	pulse	0	t		44.0	2.5	/experiments/Knapen_AOT/AOT_stimuli/rescaled_final/1578_fw.mp4	0.0	230.50954914093018	
46	212.26501655578613	movie	1		263	44.0	2.5	/experiments/Knapen_AOT/AOT_stimuli/rescaled_final/1578_fw.mp4	0.0	230.52599835395813	2.500309944152832
46	213.8472888469696	pulse	1	t		44.0	2.5	/experiments/Knapen_AOT/AOT_stimuli/rescaled_final/1578_fw.mp4	0.0	232.1082706451416	
46	214.76532649993896	fix_post	2		12	44.0	2.5	/experiments/Knapen_AOT/AOT_stimuli/rescaled_final/1578_fw.mp4	0.0	233.02630829811096	0.10007357597351074
47	214.86540007591248	fix_pre	0		120	45.0	2.5	/experiments/Knapen_AOT/AOT_stimuli/rescaled_final/1589_rv.mp4	0.0	233.12638187408447	1.0085484981536865
47	215.44899797439575	pulse	0	t		45.0	2.5	/experiments/Knapen_AOT/AOT_stimuli/rescaled_final/1589_rv.mp4	0.0	233.70997977256775	
47	215.87394857406616	movie	1		272	45.0	2.5	/experiments/Knapen_AOT/AOT_stimuli/rescaled_final/1589_rv.mp4	0.0	234.13493037223816	2.491908073425293
47	217.04743814468384	pulse	1	t		45.0	2.5	/experiments/Knapen_AOT/AOT_stimuli/rescaled_final/1589_rv.mp4	0.0	235.30841994285583	
47	218.36585664749146	fix_post	2		12	45.0	2.5	/experiments/Knapen_AOT/AOT_stimuli/rescaled_final/1589_rv.mp4	0.0	236.62683844566345	0.10005664825439453
48	218.46591329574585	fix_pre	0		120	46.0	2.5	/experiments/Knapen_AOT/AOT_stimuli/rescaled_final/0858_rv.mp4	0.0	236.72689509391785	1.008514404296875
48	218.64943981170654	pulse	0	t		46.0	2.5	/experiments/Knapen_AOT/AOT_stimuli/rescaled_final/0858_rv.mp4	0.0	236.91042160987854	
48	219.47442770004272	movie	1		289	46.0	2.5	/experiments/Knapen_AOT/AOT_stimuli/rescaled_final/0858_rv.mp4	0.0	237.73540949821472	2.4919774532318115
48	220.24794960021973	pulse	1	t		46.0	2.5	/experiments/Knapen_AOT/AOT_stimuli/rescaled_final/0858_rv.mp4	0.0	238.50893139839172	
48	221.84816980361938	pulse	1	t		46.0	2.5	/experiments/Knapen_AOT/AOT_stimuli/rescaled_final/0858_rv.mp4	0.0	240.10915160179138	
48	221.96640515327454	fix_post	2		12	46.0	2.5	/experiments/Knapen_AOT/AOT_stimuli/rescaled_final/0858_rv.mp4	0.0	240.22738695144653	0.10006999969482422
49	222.06647515296936	fix_pre	0		120	47.0	2.5	blank	1.0	240.32745695114136	1.0000793933868408
49	223.0665545463562	movie	1		300	47.0	2.5	blank	1.0	241.3275363445282	2.500397205352783
49	223.45022106170654	pulse	1	t		47.0	2.5	blank	1.0	241.71120285987854	
49	225.05037569999695	pulse	1	t		47.0	2.5	blank	1.0	243.31135749816895	
49	225.56695175170898	fix_post	2		12	47.0	2.5	blank	1.0	243.82793354988098	0.09999275207519531
50	225.66694450378418	fix_pre	0		119	48.0	2.5	/experiments/Knapen_AOT/AOT_stimuli/rescaled_final/0781_rv.mp4	0.0	243.92792630195618	1.000220775604248
50	226.65074276924133	pulse	0	t		48.0	2.5	/experiments/Knapen_AOT/AOT_stimuli/rescaled_final/0781_rv.mp4	0.0	244.91172456741333	
50	226.66716527938843	movie	1		284	48.0	2.5	/experiments/Knapen_AOT/AOT_stimuli/rescaled_final/0781_rv.mp4	0.0	244.92814707756042	2.500397205352783
50	228.25122737884521	pulse	1	t		48.0	2.5	/experiments/Knapen_AOT/AOT_stimuli/rescaled_final/0781_rv.mp4	0.0	246.5122091770172	
50	229.1675624847412	fix_post	2		12	48.0	2.5	/experiments/Knapen_AOT/AOT_stimuli/rescaled_final/0781_rv.mp4	0.0	247.4285442829132	0.09994077682495117
51	229.26750326156616	fix_pre	0		120	49.0	2.5	/experiments/Knapen_AOT/AOT_stimuli/rescaled_final/0781_fw.mp4	0.0	247.52848505973816	1.008474349975586
51	229.85108947753906	pulse	0	t		49.0	2.5	/experiments/Knapen_AOT/AOT_stimuli/rescaled_final/0781_fw.mp4	0.0	248.11207127571106	
51	230.27597761154175	movie	1		284	49.0	2.5	/experiments/Knapen_AOT/AOT_stimuli/rescaled_final/0781_fw.mp4	0.0	248.53695940971375	2.4920454025268555
51	231.4494264125824	pulse	1	t		49.0	2.5	/experiments/Knapen_AOT/AOT_stimuli/rescaled_final/0781_fw.mp4	0.0	249.7104082107544	
51	232.7680230140686	fix_post	2		12	49.0	2.5	/experiments/Knapen_AOT/AOT_stimuli/rescaled_final/0781_fw.mp4	0.0	251.0290048122406	0.10000014305114746
52	232.86802315711975	fix_pre	0		120	50.0	2.5	/experiments/Knapen_AOT/AOT_stimuli/rescaled_final/1260_fw.mp4	0.0	251.12900495529175	1.0085079669952393
52	233.0516755580902	pulse	0	t		50.0	2.5	/experiments/Knapen_AOT/AOT_stimuli/rescaled_final/1260_fw.mp4	0.0	251.3126573562622	
52	233.876531124115	movie	1		280	50.0	2.5	/experiments/Knapen_AOT/AOT_stimuli/rescaled_final/1260_fw.mp4	0.0	252.137512922287	2.4920549392700195
52	234.64954805374146	pulse	1	t		50.0	2.5	/experiments/Knapen_AOT/AOT_stimuli/rescaled_final/1260_fw.mp4	0.0	252.91052985191345	
52	236.2504644393921	pulse	1	t		50.0	2.5	/experiments/Knapen_AOT/AOT_stimuli/rescaled_final/1260_fw.mp4	0.0	254.5114462375641	
52	236.368586063385	fix_post	2		12	50.0	2.5	/experiments/Knapen_AOT/AOT_stimuli/rescaled_final/1260_fw.mp4	0.0	254.629567861557	0.09999394416809082
53	236.4685800075531	fix_pre	0		120	51.0	2.5	/experiments/Knapen_AOT/AOT_stimuli/rescaled_final/0858_rv.mp4	0.0	254.7295618057251	1.0084881782531738
53	237.47706818580627	movie	1		268	51.0	2.5	/experiments/Knapen_AOT/AOT_stimuli/rescaled_final/0858_rv.mp4	0.0	255.73804998397827	2.4920811653137207
53	237.851735830307	pulse	1	t		51.0	2.5	/experiments/Knapen_AOT/AOT_stimuli/rescaled_final/0858_rv.mp4	0.0	256.112717628479	
53	239.4502899646759	pulse	1	t		51.0	2.5	/experiments/Knapen_AOT/AOT_stimuli/rescaled_final/0858_rv.mp4	0.0	257.7112717628479	
53	239.96914935112	fix_post	2		12	51.0	2.5	/experiments/Knapen_AOT/AOT_stimuli/rescaled_final/0858_rv.mp4	0.0	258.230131149292	0.09998941421508789
54	240.06913876533508	fix_pre	0		119	52.0	2.5	/experiments/Knapen_AOT/AOT_stimuli/rescaled_final/1371_fw.mp4	0.0	258.3301205635071	1.0001332759857178
54	241.04597425460815	pulse	0	t		52.0	2.5	/experiments/Knapen_AOT/AOT_stimuli/rescaled_final/1371_fw.mp4	0.0	259.30695605278015	
54	241.0692720413208	movie	1		278	52.0	2.5	/experiments/Knapen_AOT/AOT_stimuli/rescaled_final/1371_fw.mp4	0.0	259.3302538394928	2.500378370285034
54	242.65134716033936	pulse	1	t		52.0	2.5	/experiments/Knapen_AOT/AOT_stimuli/rescaled_final/1371_fw.mp4	0.0	260.91232895851135	
54	243.56965041160583	fix_post	2		12	52.0	2.5	/experiments/Knapen_AOT/AOT_stimuli/rescaled_final/1371_fw.mp4	0.0	261.83063220977783	0.10007524490356445
55	243.6697256565094	fix_pre	0		120	53.0	2.5	/experiments/Knapen_AOT/AOT_stimuli/rescaled_final/1848_rv.mp4	0.0	261.9307074546814	1.0084590911865234
55	244.24552989006042	pulse	0	t		53.0	2.5	/experiments/Knapen_AOT/AOT_stimuli/rescaled_final/1848_rv.mp4	0.0	262.5065116882324	
55	244.67818474769592	movie	1		283	53.0	2.5	/experiments/Knapen_AOT/AOT_stimuli/rescaled_final/1848_rv.mp4	0.0	262.9391665458679	2.492032289505005
55	245.84558248519897	pulse	1	t		53.0	2.5	/experiments/Knapen_AOT/AOT_stimuli/rescaled_final/1848_rv.mp4	0.0	264.106564283371	
55	247.17021703720093	fix_post	2		12	53.0	2.5	/experiments/Knapen_AOT/AOT_stimuli/rescaled_final/1848_rv.mp4	0.0	265.4311988353729	0.10002899169921875
56	247.27024602890015	fix_pre	0		120	54.0	2.5	/experiments/Knapen_AOT/AOT_stimuli/rescaled_final/1567_fw.mp4	0.0	265.53122782707214	1.0084576606750488
56	247.44564175605774	pulse	0	t		54.0	2.5	/experiments/Knapen_AOT/AOT_stimuli/rescaled_final/1567_fw.mp4	0.0	265.70662355422974	
56	248.2787036895752	movie	1		273	54.0	2.5	/experiments/Knapen_AOT/AOT_stimuli/rescaled_final/1567_fw.mp4	0.0	266.5396854877472	2.4923064708709717
56	249.04580569267273	pulse	1	t		54.0	2.5	/experiments/Knapen_AOT/AOT_stimuli/rescaled_final/1567_fw.mp4	0.0	267.3067874908447	
56	250.64590668678284	pulse	1	t		54.0	2.5	/experiments/Knapen_AOT/AOT_stimuli/rescaled_final/1567_fw.mp4	0.0	268.90688848495483	
56	250.77101016044617	fix_post	2		12	54.0	2.5	/experiments/Knapen_AOT/AOT_stimuli/rescaled_final/1567_fw.mp4	0.0	269.03199195861816	0.09975290298461914
57	250.8707630634308	fix_pre	0		120	55.0	2.5	blank	1.0	269.1317448616028	1.0001263618469238
57	251.8708894252777	movie	1		300	55.0	2.5	blank	1.0	270.1318712234497	2.5003631114959717
57	252.24617838859558	pulse	1	t		55.0	2.5	blank	1.0	270.5071601867676	
57	253.84640049934387	pulse	1	t		55.0	2.5	blank	1.0	272.10738229751587	
57	254.37125253677368	fix_post	2		12	55.0	2.5	blank	1.0	272.6322343349457	0.10003280639648438
58	254.47128534317017	fix_pre	0		118	56.0	2.5	/experiments/Knapen_AOT/AOT_stimuli/rescaled_final/0590_rv.mp4	0.0	272.73226714134216	0.9918036460876465
58	255.4466996192932	pulse	0	t		56.0	2.5	/experiments/Knapen_AOT/AOT_stimuli/rescaled_final/0590_rv.mp4	0.0	273.7076814174652	
58	255.4630889892578	movie	1		294	56.0	2.5	/experiments/Knapen_AOT/AOT_stimuli/rescaled_final/0590_rv.mp4	0.0	273.7240707874298	2.500385284423828
58	257.0469596385956	pulse	1	t		56.0	2.5	/experiments/Knapen_AOT/AOT_stimuli/rescaled_final/0590_rv.mp4	0.0	275.3079414367676	
58	257.96347427368164	fix_post	2		12	56.0	2.5	/experiments/Knapen_AOT/AOT_stimuli/rescaled_final/0590_rv.mp4	0.0	276.22445607185364	0.1000206470489502
59	258.0634949207306	fix_pre	0		120	57.0	2.5	/experiments/Knapen_AOT/AOT_stimuli/rescaled_final/0916_rv.mp4	0.0	276.3244767189026	1.0085201263427734
59	258.6471507549286	pulse	0	t		57.0	2.5	/experiments/Knapen_AOT/AOT_stimuli/rescaled_final/0916_rv.mp4	0.0	276.9081325531006	
59	259.07201504707336	movie	1		282	57.0	2.5	/experiments/Knapen_AOT/AOT_stimuli/rescaled_final/0916_rv.mp4	0.0	277.33299684524536	2.4919991493225098
59	260.24594736099243	pulse	1	t		57.0	2.5	/experiments/Knapen_AOT/AOT_stimuli/rescaled_final/0916_rv.mp4	0.0	278.50692915916443	
59	261.5640141963959	fix_post	2		12	57.0	2.5	/experiments/Knapen_AOT/AOT_stimuli/rescaled_final/0916_rv.mp4	0.0	279.82499599456787	0.10005664825439453
60	261.66407084465027	fix_pre	0		120	58.0	2.5	/experiments/Knapen_AOT/AOT_stimuli/rescaled_final/0393_rv.mp4	0.0	279.92505264282227	1.008474349975586
60	261.8476564884186	pulse	0	t		58.0	2.5	/experiments/Knapen_AOT/AOT_stimuli/rescaled_final/0393_rv.mp4	0.0	280.1086382865906	
60	262.67254519462585	movie	1		273	58.0	2.5	/experiments/Knapen_AOT/AOT_stimuli/rescaled_final/0393_rv.mp4	0.0	280.93352699279785	2.492074966430664
60	263.4462332725525	pulse	1	t		58.0	2.5	/experiments/Knapen_AOT/AOT_stimuli/rescaled_final/0393_rv.mp4	0.0	281.7072150707245	
60	265.0467655658722	pulse	1	t		58.0	2.5	/experiments/Knapen_AOT/AOT_stimuli/rescaled_final/0393_rv.mp4	0.0	283.3077473640442	
60	265.1646201610565	fix_post	2		12	58.0	2.5	/experiments/Knapen_AOT/AOT_stimuli/rescaled_final/0393_rv.mp4	0.0	283.4256019592285	0.10000443458557129
61	265.2646245956421	fix_pre	0		120	59.0	2.5	/experiments/Knapen_AOT/AOT_stimuli/rescaled_final/0211_rv.mp4	0.0	283.5256063938141	1.00856351852417
61	266.27318811416626	movie	1		264	59.0	2.5	/experiments/Knapen_AOT/AOT_stimuli/rescaled_final/0211_rv.mp4	0.0	284.53416991233826	2.4919204711914062
61	266.6468255519867	pulse	1	t		59.0	2.5	/experiments/Knapen_AOT/AOT_stimuli/rescaled_final/0211_rv.mp4	0.0	284.9078073501587	
61	268.2463574409485	pulse	1	t		59.0	2.5	/experiments/Knapen_AOT/AOT_stimuli/rescaled_final/0211_rv.mp4	0.0	286.5073392391205	
61	268.76510858535767	fix_post	2		12	59.0	2.5	/experiments/Knapen_AOT/AOT_stimuli/rescaled_final/0211_rv.mp4	0.0	287.02609038352966	0.10001158714294434
62	268.8651201725006	fix_pre	0		119	60.0	2.5	/experiments/Knapen_AOT/AOT_stimuli/rescaled_final/2103_rv.mp4	0.0	287.1261019706726	1.0004277229309082
62	269.848916053772	pulse	0	t		60.0	2.5	/experiments/Knapen_AOT/AOT_stimuli/rescaled_final/2103_rv.mp4	0.0	288.10989785194397	
62	269.8655478954315	movie	1		266	60.0	2.5	/experiments/Knapen_AOT/AOT_stimuli/rescaled_final/2103_rv.mp4	0.0	288.1265296936035	2.5001654624938965
62	271.4489347934723	pulse	1	t		60.0	2.5	/experiments/Knapen_AOT/AOT_stimuli/rescaled_final/2103_rv.mp4	0.0	289.7099165916443	
62	272.3657133579254	fix_post	2		12	60.0	2.5	/experiments/Knapen_AOT/AOT_stimuli/rescaled_final/2103_rv.mp4	0.0	290.6266951560974	0.09997701644897461
63	272.4656903743744	fix_pre	0		120	61.0	2.5	/experiments/Knapen_AOT/AOT_stimuli/rescaled_final/0307_rv.mp4	0.0	290.7266721725464	1.0085186958312988
63	273.04942059516907	pulse	0	t		61.0	2.5	/experiments/Knapen_AOT/AOT_stimuli/rescaled_final/0307_rv.mp4	0.0	291.31040239334106	
63	273.4742090702057	movie	1		271	61.0	2.5	/experiments/Knapen_AOT/AOT_stimuli/rescaled_final/0307_rv.mp4	0.0	291.7351908683777	2.492046356201172
63	274.64766335487366	pulse	1	t		61.0	2.5	/experiments/Knapen_AOT/AOT_stimuli/rescaled_final/0307_rv.mp4	0.0	292.90864515304565	
63	275.96625542640686	fix_post	2		12	61.0	2.5	/experiments/Knapen_AOT/AOT_stimuli/rescaled_final/0307_rv.mp4	0.0	294.22723722457886	0.09997367858886719
64	276.0662291049957	fix_pre	0		120	62.0	2.5	/experiments/Knapen_AOT/AOT_stimuli/rescaled_final/0974_rv.mp4	0.0	294.3272109031677	1.008455753326416
64	276.24976992607117	pulse	0	t		62.0	2.5	/experiments/Knapen_AOT/AOT_stimuli/rescaled_final/0974_rv.mp4	0.0	294.51075172424316	
64	277.07468485832214	movie	1		281	62.0	2.5	/experiments/Knapen_AOT/AOT_stimuli/rescaled_final/0974_rv.mp4	0.0	295.33566665649414	2.49204421043396
64	277.8485083580017	pulse	1	t		62.0	2.5	/experiments/Knapen_AOT/AOT_stimuli/rescaled_final/0974_rv.mp4	0.0	296.1094901561737	
64	279.44825434684753	pulse	1	t		62.0	2.5	/experiments/Knapen_AOT/AOT_stimuli/rescaled_final/0974_rv.mp4	0.0	297.70923614501953	
64	279.5667290687561	fix_post	2		12	62.0	2.5	/experiments/Knapen_AOT/AOT_stimuli/rescaled_final/0974_rv.mp4	0.0	297.8277108669281	0.10000252723693848
65	279.66673159599304	fix_pre	0		120	63.0	2.5	blank	1.0	297.92771339416504	1.0001420974731445
65	280.6668736934662	movie	1		300	63.0	2.5	blank	1.0	298.9278554916382	2.5003857612609863
65	281.0505311489105	pulse	1	t		63.0	2.5	blank	1.0	299.3115129470825	
65	282.6507248878479	pulse	1	t		63.0	2.5	blank	1.0	300.9117066860199	
65	283.1672594547272	fix_post	2		12	63.0	2.5	blank	1.0	301.42824125289917	0.10004758834838867
66	283.26730704307556	fix_pre	0		119	64.0	2.5	/experiments/Knapen_AOT/AOT_stimuli/rescaled_final/0224_fw.mp4	0.0	301.52828884124756	1.0086112022399902
66	284.2511236667633	pulse	0	t		64.0	2.5	/experiments/Knapen_AOT/AOT_stimuli/rescaled_final/0224_fw.mp4	0.0	302.5121054649353	
66	284.27591824531555	movie	1		285	64.0	2.5	/experiments/Knapen_AOT/AOT_stimuli/rescaled_final/0224_fw.mp4	0.0	302.53690004348755	2.491894483566284
66	285.850328207016	pulse	1	t		64.0	2.5	/experiments/Knapen_AOT/AOT_stimuli/rescaled_final/0224_fw.mp4	0.0	304.111310005188	
66	286.76781272888184	fix_post	2		12	64.0	2.5	/experiments/Knapen_AOT/AOT_stimuli/rescaled_final/0224_fw.mp4	0.0	305.02879452705383	0.10000824928283691
67	286.8678209781647	fix_pre	0		120	65.0	2.5	/experiments/Knapen_AOT/AOT_stimuli/rescaled_final/1597_rv.mp4	0.0	305.12880277633667	1.0085361003875732
67	287.4516658782959	pulse	0	t		65.0	2.5	/experiments/Knapen_AOT/AOT_stimuli/rescaled_final/1597_rv.mp4	0.0	305.7126476764679	
67	287.87635707855225	movie	1		296	65.0	2.5	/experiments/Knapen_AOT/AOT_stimuli/rescaled_final/1597_rv.mp4	0.0	306.13733887672424	2.491960287094116
67	289.0498592853546	pulse	1	t		65.0	2.5	/experiments/Knapen_AOT/AOT_stimuli/rescaled_final/1597_rv.mp4	0.0	307.3108410835266	
67	290.36831736564636	fix_post	2		12	65.0	2.5	/experiments/Knapen_AOT/AOT_stimuli/rescaled_final/1597_rv.mp4	0.0	308.62929916381836	0.1000223159790039
68	290.46833968162537	fix_pre	0		120	66.0	2.5	/experiments/Knapen_AOT/AOT_stimuli/rescaled_final/1483_fw.mp4	0.0	308.72932147979736	1.0085628032684326
68	290.65188217163086	pulse	0	t		66.0	2.5	/experiments/Knapen_AOT/AOT_stimuli/rescaled_final/1483_fw.mp4	0.0	308.91286396980286	
68	291.4769024848938	movie	1		296	66.0	2.5	/experiments/Knapen_AOT/AOT_stimuli/rescaled_final/1483_fw.mp4	0.0	309.7378842830658	2.4919965267181396
68	292.247763633728	pulse	1	t		66.0	2.5	/experiments/Knapen_AOT/AOT_stimuli/rescaled_final/1483_fw.mp4	0.0	310.5087454319	
68	293.84795570373535	pulse	1	t		66.0	2.5	/experiments/Knapen_AOT/AOT_stimuli/rescaled_final/1483_fw.mp4	0.0	312.10893750190735	
68	293.96889901161194	fix_post	2		12	66.0	2.5	/experiments/Knapen_AOT/AOT_stimuli/rescaled_final/1483_fw.mp4	0.0	312.22988080978394	0.09995794296264648
69	294.0688569545746	fix_pre	0		120	67.0	2.5	/experiments/Knapen_AOT/AOT_stimuli/rescaled_final/0560_rv.mp4	0.0	312.3298387527466	1.008533239364624
69	295.0773901939392	movie	1		290	67.0	2.5	/experiments/Knapen_AOT/AOT_stimuli/rescaled_final/0560_rv.mp4	0.0	313.3383719921112	2.4920425415039062
69	295.4509902000427	pulse	1	t		67.0	2.5	/experiments/Knapen_AOT/AOT_stimuli/rescaled_final/0560_rv.mp4	0.0	313.7119719982147	
69	297.0447633266449	pulse	1	t		67.0	2.5	/experiments/Knapen_AOT/AOT_stimuli/rescaled_final/0560_rv.mp4	0.0	315.3057451248169	
69	297.5694327354431	fix_post	2		12	67.0	2.5	/experiments/Knapen_AOT/AOT_stimuli/rescaled_final/0560_rv.mp4	0.0	315.8304145336151	0.09996628761291504
70	297.66939902305603	fix_pre	0		118	68.0	2.5	/experiments/Knapen_AOT/AOT_stimuli/rescaled_final/1595_rv.mp4	0.0	315.930380821228	0.9918966293334961
70	298.6447172164917	pulse	0	t		68.0	2.5	/experiments/Knapen_AOT/AOT_stimuli/rescaled_final/1595_rv.mp4	0.0	316.9056990146637	
70	298.6612956523895	movie	1		282	68.0	2.5	/experiments/Knapen_AOT/AOT_stimuli/rescaled_final/1595_rv.mp4	0.0	316.9222774505615	2.5003488063812256
70	300.24514961242676	pulse	1	t		68.0	2.5	/experiments/Knapen_AOT/AOT_stimuli/rescaled_final/1595_rv.mp4	0.0	318.50613141059875	
70	301.16164445877075	fix_post	2		12	68.0	2.5	/experiments/Knapen_AOT/AOT_stimuli/rescaled_final/1595_rv.mp4	0.0	319.42262625694275	0.10003471374511719
71	301.26167917251587	fix_pre	0		120	69.0	2.5	blank	1.0	319.52266097068787	1.0001287460327148
71	301.8456175327301	pulse	0	t		69.0	2.5	blank	1.0	320.1065993309021	
71	302.2618079185486	movie	1		300	69.0	2.5	blank	1.0	320.5227897167206	2.500412940979004
71	303.44578313827515	pulse	1	t		69.0	2.5	blank	1.0	321.70676493644714	
71	304.7622208595276	fix_post	2		12	69.0	2.5	blank	1.0	323.0232026576996	0.09999847412109375
72	304.8622193336487	fix_pre	0		120	70.0	2.5	/experiments/Knapen_AOT/AOT_stimuli/rescaled_final/1195_fw.mp4	0.0	323.1232011318207	1.0084872245788574
72	305.0458197593689	pulse	0	t		70.0	2.5	/experiments/Knapen_AOT/AOT_stimuli/rescaled_final/1195_fw.mp4	0.0	323.3068015575409	
72	305.87070655822754	movie	1		281	70.0	2.5	/experiments/Knapen_AOT/AOT_stimuli/rescaled_final/1195_fw.mp4	0.0	324.13168835639954	2.492013454437256
72	306.6460361480713	pulse	1	t		70.0	2.5	/experiments/Knapen_AOT/AOT_stimuli/rescaled_final/1195_fw.mp4	0.0	324.9070179462433	
72	308.24627232551575	pulse	1	t		70.0	2.5	/experiments/Knapen_AOT/AOT_stimuli/rescaled_final/1195_fw.mp4	0.0	326.50725412368774	
72	308.3627200126648	fix_post	2		12	70.0	2.5	/experiments/Knapen_AOT/AOT_stimuli/rescaled_final/1195_fw.mp4	0.0	326.6237018108368	0.10002255439758301
73	308.4627425670624	fix_pre	0		120	71.0	2.5	/experiments/Knapen_AOT/AOT_stimuli/rescaled_final/1137_rv.mp4	0.0	326.7237243652344	1.0085337162017822
73	309.47127628326416	movie	1		262	71.0	2.5	/experiments/Knapen_AOT/AOT_stimuli/rescaled_final/1137_rv.mp4	0.0	327.73225808143616	2.4836363792419434
73	309.8453686237335	pulse	1	t		71.0	2.5	/experiments/Knapen_AOT/AOT_stimuli/rescaled_final/1137_rv.mp4	0.0	328.1063504219055	
73	311.44531202316284	pulse	1	t		71.0	2.5	/experiments/Knapen_AOT/AOT_stimuli/rescaled_final/1137_rv.mp4	0.0	329.70629382133484	
73	311.9549126625061	fix_post	2		12	71.0	2.5	/experiments/Knapen_AOT/AOT_stimuli/rescaled_final/1137_rv.mp4	0.0	330.2158944606781	0.10005974769592285
74	312.054972410202	fix_pre	0		120	72.0	2.5	/experiments/Knapen_AOT/AOT_stimuli/rescaled_final/1547_rv.mp4	0.0	330.315954208374	1.0168311595916748
74	313.04693365097046	pulse	0	t		72.0	2.5	/experiments/Knapen_AOT/AOT_stimuli/rescaled_final/1547_rv.mp4	0.0	331.30791544914246	
74	313.0718035697937	movie	1		290	72.0	2.5	/experiments/Knapen_AOT/AOT_stimuli/rescaled_final/1547_rv.mp4	0.0	331.3327853679657	2.4919958114624023
74	314.6455442905426	pulse	1	t		72.0	2.5	/experiments/Knapen_AOT/AOT_stimuli/rescaled_final/1547_rv.mp4	0.0	332.9065260887146	
74	315.5637993812561	fix_post	2		12	72.0	2.5	/experiments/Knapen_AOT/AOT_stimuli/rescaled_final/1547_rv.mp4	0.0	333.8247811794281	0.10003948211669922
75	315.6638388633728	fix_pre	0		120	73.0	2.5	/experiments/Knapen_AOT/AOT_stimuli/rescaled_final/1540_rv.mp4	0.0	333.9248206615448	1.0084788799285889
75	316.24752950668335	pulse	0	t		73.0	2.5	/experiments/Knapen_AOT/AOT_stimuli/rescaled_final/1540_rv.mp4	0.0	334.50851130485535	
75	316.6723177433014	movie	1		267	73.0	2.5	/experiments/Knapen_AOT/AOT_stimuli/rescaled_final/1540_rv.mp4	0.0	334.9332995414734	2.49202823638916
75	317.8456754684448	pulse	1	t		73.0	2.5	/experiments/Knapen_AOT/AOT_stimuli/rescaled_final/1540_rv.mp4	0.0	336.1066572666168	
75	319.16434597969055	fix_post	2		12	73.0	2.5	/experiments/Knapen_AOT/AOT_stimuli/rescaled_final/1540_rv.mp4	0.0	337.42532777786255	0.1000368595123291
76	319.2643828392029	fix_pre	0		120	74.0	2.5	/experiments/Knapen_AOT/AOT_stimuli/rescaled_final/2101_rv.mp4	0.0	337.5253646373749	1.0084729194641113
76	319.44798946380615	pulse	0	t		74.0	2.5	/experiments/Knapen_AOT/AOT_stimuli/rescaled_final/2101_rv.mp4	0.0	337.70897126197815	
76	320.272855758667	movie	1		277	74.0	2.5	/experiments/Knapen_AOT/AOT_stimuli/rescaled_final/2101_rv.mp4	0.0	338.533837556839	2.4920272827148438
76	321.04618072509766	pulse	1	t		74.0	2.5	/experiments/Knapen_AOT/AOT_stimuli/rescaled_final/2101_rv.mp4	0.0	339.30716252326965	
76	322.64685559272766	pulse	1	t		74.0	2.5	/experiments/Knapen_AOT/AOT_stimuli/rescaled_final/2101_rv.mp4	0.0	340.90783739089966	
76	322.76488304138184	fix_post	2		12	74.0	2.5	/experiments/Knapen_AOT/AOT_stimuli/rescaled_final/2101_rv.mp4	0.0	341.02586483955383	0.10001683235168457
77	322.8648998737335	fix_pre	0		120	75.0	2.5	blank	1.0	341.1258816719055	1.000150442123413
77	323.86505031585693	movie	1		300	75.0	2.5	blank	1.0	342.12603211402893	2.5004899501800537
77	324.24876070022583	pulse	1	t		75.0	2.5	blank	1.0	342.5097424983978	
77	325.84918308258057	pulse	1	t		75.0	2.5	blank	1.0	344.11016488075256	
77	326.365540266037	fix_post	2		12	75.0	2.5	blank	1.0	344.626522064209	0.0999293327331543
78	326.46546959877014	fix_pre	0		119	76.0	2.5	/experiments/Knapen_AOT/AOT_stimuli/rescaled_final/1458_rv.mp4	0.0	344.72645139694214	1.0084891319274902
78	327.4492359161377	pulse	0	t		76.0	2.5	/experiments/Knapen_AOT/AOT_stimuli/rescaled_final/1458_rv.mp4	0.0	345.7102177143097	
78	327.47395873069763	movie	1		285	76.0	2.5	/experiments/Knapen_AOT/AOT_stimuli/rescaled_final/1458_rv.mp4	0.0	345.73494052886963	2.492011785507202
78	329.04818892478943	pulse	1	t		76.0	2.5	/experiments/Knapen_AOT/AOT_stimuli/rescaled_final/1458_rv.mp4	0.0	347.3091707229614	
78	329.96597051620483	fix_post	2		12	76.0	2.5	/experiments/Knapen_AOT/AOT_stimuli/rescaled_final/1458_rv.mp4	0.0	348.22695231437683	0.10002565383911133
79	330.06599617004395	fix_pre	0		120	77.0	2.5	/experiments/Knapen_AOT/AOT_stimuli/rescaled_final/1033_fw.mp4	0.0	348.32697796821594	1.0084567070007324
79	330.64968371391296	pulse	0	t		77.0	2.5	/experiments/Knapen_AOT/AOT_stimuli/rescaled_final/1033_fw.mp4	0.0	348.91066551208496	
79	331.0744528770447	movie	1		276	77.0	2.5	/experiments/Knapen_AOT/AOT_stimuli/rescaled_final/1033_fw.mp4	0.0	349.3354346752167	2.4920504093170166
79	332.24874782562256	pulse	1	t		77.0	2.5	/experiments/Knapen_AOT/AOT_stimuli/rescaled_final/1033_fw.mp4	0.0	350.50972962379456	
79	333.5665032863617	fix_post	2		12	77.0	2.5	/experiments/Knapen_AOT/AOT_stimuli/rescaled_final/1033_fw.mp4	0.0	351.8274850845337	0.10003972053527832
80	333.666543006897	fix_pre	0		120	78.0	2.5	/experiments/Knapen_AOT/AOT_stimuli/rescaled_final/2179_fw.mp4	0.0	351.92752480506897	1.0084648132324219
80	333.8500716686249	pulse	0	t		78.0	2.5	/experiments/Knapen_AOT/AOT_stimuli/rescaled_final/2179_fw.mp4	0.0	352.1110534667969	
80	334.6750078201294	movie	1		277	78.0	2.5	/experiments/Knapen_AOT/AOT_stimuli/rescaled_final/2179_fw.mp4	0.0	352.9359896183014	2.4920573234558105
80	335.4484589099884	pulse	1	t		78.0	2.5	/experiments/Knapen_AOT/AOT_stimuli/rescaled_final/2179_fw.mp4	0.0	353.7094407081604	
80	337.0484871864319	pulse	1	t		78.0	2.5	/experiments/Knapen_AOT/AOT_stimuli/rescaled_final/2179_fw.mp4	0.0	355.3094689846039	
80	337.1670651435852	fix_post	2		12	78.0	2.5	/experiments/Knapen_AOT/AOT_stimuli/rescaled_final/2179_fw.mp4	0.0	355.4280469417572	0.10007238388061523
81	337.2671375274658	fix_pre	0		120	79.0	2.5	/experiments/Knapen_AOT/AOT_stimuli/rescaled_final/1483_rv.mp4	0.0	355.5281193256378	1.008460283279419
81	338.27559781074524	movie	1		271	79.0	2.5	/experiments/Knapen_AOT/AOT_stimuli/rescaled_final/1483_rv.mp4	0.0	356.53657960891724	2.4920527935028076
81	338.65125727653503	pulse	1	t		79.0	2.5	/experiments/Knapen_AOT/AOT_stimuli/rescaled_final/1483_rv.mp4	0.0	356.91223907470703	
81	340.24878096580505	pulse	1	t		79.0	2.5	/experiments/Knapen_AOT/AOT_stimuli/rescaled_final/1483_rv.mp4	0.0	358.50976276397705	
81	340.76765060424805	fix_post	2		12	79.0	2.5	/experiments/Knapen_AOT/AOT_stimuli/rescaled_final/1483_rv.mp4	0.0	359.02863240242004	0.09999895095825195
82	340.8676495552063	fix_pre	0		119	80.0	2.5	/experiments/Knapen_AOT/AOT_stimuli/rescaled_final/0878_fw.mp4	0.0	359.1286313533783	1.0000617504119873
82	341.85129261016846	pulse	0	t		80.0	2.5	/experiments/Knapen_AOT/AOT_stimuli/rescaled_final/0878_fw.mp4	0.0	360.11227440834045	
82	341.8677113056183	movie	1		264	80.0	2.5	/experiments/Knapen_AOT/AOT_stimuli/rescaled_final/0878_fw.mp4	0.0	360.1286931037903	2.500427722930908
82	343.4500365257263	pulse	1	t		80.0	2.5	/experiments/Knapen_AOT/AOT_stimuli/rescaled_final/0878_fw.mp4	0.0	361.7110183238983	
82	344.3681390285492	fix_post	2		12	80.0	2.5	/experiments/Knapen_AOT/AOT_stimuli/rescaled_final/0878_fw.mp4	0.0	362.6291208267212	0.09999895095825195
83	344.46813797950745	fix_pre	0		120	81.0	2.5	/experiments/Knapen_AOT/AOT_stimuli/rescaled_final/0357_rv.mp4	0.0	362.72911977767944	1.0085546970367432
83	345.05193972587585	pulse	0	t		81.0	2.5	/experiments/Knapen_AOT/AOT_stimuli/rescaled_final/0357_rv.mp4	0.0	363.31292152404785	
83	345.4766926765442	movie	1		274	81.0	2.5	/experiments/Knapen_AOT/AOT_stimuli/rescaled_final/0357_rv.mp4	0.0	363.7376744747162	2.492145538330078
83	346.652184009552	pulse	1	t		81.0	2.5	/experiments/Knapen_AOT/AOT_stimuli/rescaled_final/0357_rv.mp4	0.0	364.913165807724	
83	347.96883821487427	fix_post	2		12	81.0	2.5	/experiments/Knapen_AOT/AOT_stimuli/rescaled_final/0357_rv.mp4	0.0	366.22982001304626	0.09986567497253418
84	348.0687038898468	fix_pre	0		120	82.0	2.5	blank	1.0	366.3296856880188	1.0001535415649414
84	348.245224237442	pulse	0	t		82.0	2.5	blank	1.0	366.506206035614	
84	349.06885743141174	movie	1		300	82.0	2.5	blank	1.0	367.32983922958374	2.500441551208496
84	349.84544014930725	pulse	1	t		82.0	2.5	blank	1.0	368.10642194747925	
84	351.4460747241974	pulse	1	t		82.0	2.5	blank	1.0	369.7070565223694	
84	351.56929898262024	fix_post	2		12	82.0	2.5	blank	1.0	369.83028078079224	0.09993600845336914
85	351.6692349910736	fix_pre	0		120	83.0	2.5	/experiments/Knapen_AOT/AOT_stimuli/rescaled_final/1533_rv.mp4	0.0	369.9302167892456	1.008479356765747
85	352.67771434783936	movie	1		270	83.0	2.5	/experiments/Knapen_AOT/AOT_stimuli/rescaled_final/1533_rv.mp4	0.0	370.93869614601135	2.4920578002929688
85	353.05183482170105	pulse	1	t		83.0	2.5	/experiments/Knapen_AOT/AOT_stimuli/rescaled_final/1533_rv.mp4	0.0	371.31281661987305	
85	354.6453151702881	pulse	1	t		83.0	2.5	/experiments/Knapen_AOT/AOT_stimuli/rescaled_final/1533_rv.mp4	0.0	372.9062969684601	
85	355.1697721481323	fix_post	2		12	83.0	2.5	/experiments/Knapen_AOT/AOT_stimuli/rescaled_final/1533_rv.mp4	0.0	373.4307539463043	0.10003805160522461
87	355.26981019973755	stim	0		1715					373.53079199790955	14.293779373168945
87	356.2457227706909	pulse	0	t						374.5067045688629	
87	357.84543442726135	pulse	0	t						376.10641622543335	
87	359.4456527233124	pulse	0	t						377.7066345214844	
87	361.04583764076233	pulse	0	t						379.3068194389343	
87	362.6461203098297	pulse	0	t						380.9071021080017	
87	364.2464745044708	pulse	0	t						382.5074563026428	
87	365.84661960601807	pulse	0	t						384.10760140419006	
87	367.4469771385193	pulse	0	t						385.7079589366913	
87	369.0470435619354	pulse	0	t						387.3080253601074	
