trial_nr	onset	event_type	phase	response	nr_frames	movie_index	movie_duration	movie_file	blank	onset_abs	duration
0	0.20830106735229492	stim	0		80					18.130070209503174	0.6666231155395508
0	0.8668971061706543	response	0	space						18.788666248321533	
1	0.8749241828918457	stim	0		4185					18.796693325042725	34.89022493362427
1	35.75539207458496	pulse	0	t						53.67716121673584	
1	35.76514911651611	stim	1		1716					53.68691825866699	14.300468921661377
1	37.33991599082947	pulse	1	t						55.26168513298035	
1	38.9398992061615	pulse	1	t						56.86166834831238	
1	40.540165185928345	pulse	1	t						58.461934328079224	
1	42.14032816886902	pulse	1	t						60.0620973110199	
1	43.740681171417236	pulse	1	t						61.662450313568115	
1	45.339922189712524	pulse	1	t						63.2616913318634	
1	46.94024109840393	pulse	1	t						64.86201024055481	
1	48.54040312767029	pulse	1	t						66.46217226982117	
2	50.06561803817749	fix_pre	0		10	0.0	2.5	/experiments/knapen_AOT/AOT_stimuli/rescaled_final/0553_rv.mp4	0.0	67.98738718032837	0.08331799507141113
2	50.14085102081299	pulse	0	t		0.0	2.5	/experiments/knapen_AOT/AOT_stimuli/rescaled_final/0553_rv.mp4	0.0	68.06262016296387	
2	50.1489360332489	movie	1		242	0.0	2.5	/experiments/knapen_AOT/AOT_stimuli/rescaled_final/0553_rv.mp4	0.0	68.07070517539978	2.5088021755218506
2	51.74222707748413	pulse	1	t		0.0	2.5	/experiments/knapen_AOT/AOT_stimuli/rescaled_final/0553_rv.mp4	0.0	69.66399621963501	
2	52.65773820877075	fix_post	2		12	0.0	2.5	/experiments/knapen_AOT/AOT_stimuli/rescaled_final/0553_rv.mp4	0.0	70.57950735092163	0.0999457836151123
3	52.757683992385864	fix_pre	0		120	1.0	2.5	/experiments/knapen_AOT/AOT_stimuli/rescaled_final/0818_fw.mp4	0.0	70.67945313453674	1.0001389980316162
3	53.34124398231506	pulse	0	t		1.0	2.5	/experiments/knapen_AOT/AOT_stimuli/rescaled_final/0818_fw.mp4	0.0	71.26301312446594	
3	53.75782299041748	movie	1		242	1.0	2.5	/experiments/knapen_AOT/AOT_stimuli/rescaled_final/0818_fw.mp4	0.0	71.67959213256836	2.500432014465332
3	54.941543102264404	pulse	1	t		1.0	2.5	/experiments/knapen_AOT/AOT_stimuli/rescaled_final/0818_fw.mp4	0.0	72.86331224441528	
3	56.25825500488281	fix_post	2		12	1.0	2.5	/experiments/knapen_AOT/AOT_stimuli/rescaled_final/0818_fw.mp4	0.0	74.18002414703369	0.09989404678344727
4	56.35814905166626	fix_pre	0		120	2.0	2.5	/experiments/knapen_AOT/AOT_stimuli/rescaled_final/0750_rv.mp4	0.0	74.27991819381714	1.0001850128173828
4	56.5418221950531	pulse	0	t		2.0	2.5	/experiments/knapen_AOT/AOT_stimuli/rescaled_final/0750_rv.mp4	0.0	74.46359133720398	
4	57.35833406448364	movie	1		243	2.0	2.5	/experiments/knapen_AOT/AOT_stimuli/rescaled_final/0750_rv.mp4	0.0	75.28010320663452	2.5003700256347656
4	58.14203715324402	pulse	1	t		2.0	2.5	/experiments/knapen_AOT/AOT_stimuli/rescaled_final/0750_rv.mp4	0.0	76.0638062953949	
4	59.74210810661316	pulse	1	t		2.0	2.5	/experiments/knapen_AOT/AOT_stimuli/rescaled_final/0750_rv.mp4	0.0	77.66387724876404	
4	59.85870409011841	fix_post	2		12	2.0	2.5	/experiments/knapen_AOT/AOT_stimuli/rescaled_final/0750_rv.mp4	0.0	77.78047323226929	0.10007405281066895
5	59.95877814292908	fix_pre	0		120	3.0	2.5	/experiments/knapen_AOT/AOT_stimuli/rescaled_final/1930_fw.mp4	0.0	77.88054728507996	1.0001020431518555
5	60.95888018608093	movie	1		242	3.0	2.5	/experiments/knapen_AOT/AOT_stimuli/rescaled_final/1930_fw.mp4	0.0	78.88064932823181	2.492259979248047
5	61.3464081287384	pulse	1	t		3.0	2.5	/experiments/knapen_AOT/AOT_stimuli/rescaled_final/1930_fw.mp4	0.0	79.26817727088928	
5	62.94275212287903	pulse	1	t		3.0	2.5	/experiments/knapen_AOT/AOT_stimuli/rescaled_final/1930_fw.mp4	0.0	80.86452126502991	
5	63.45114016532898	fix_post	2		12	3.0	2.5	/experiments/knapen_AOT/AOT_stimuli/rescaled_final/1930_fw.mp4	0.0	81.37290930747986	0.09985589981079102
6	63.55099606513977	fix_pre	0		120	4.0	2.5	/experiments/knapen_AOT/AOT_stimuli/rescaled_final/1098_rv.mp4	0.0	81.47276520729065	1.000093936920166
6	64.5430281162262	pulse	0	t		4.0	2.5	/experiments/knapen_AOT/AOT_stimuli/rescaled_final/1098_rv.mp4	0.0	82.46479725837708	
6	64.55109000205994	movie	1		244	4.0	2.5	/experiments/knapen_AOT/AOT_stimuli/rescaled_final/1098_rv.mp4	0.0	82.47285914421082	2.508774995803833
6	66.14360499382019	pulse	1	t		4.0	2.5	/experiments/knapen_AOT/AOT_stimuli/rescaled_final/1098_rv.mp4	0.0	84.06537413597107	
6	67.05986499786377	fix_post	2		12	4.0	2.5	/experiments/knapen_AOT/AOT_stimuli/rescaled_final/1098_rv.mp4	0.0	84.98163414001465	0.09994101524353027
7	67.1598060131073	fix_pre	0		120	5.0	2.5	/experiments/knapen_AOT/AOT_stimuli/rescaled_final/1325_fw.mp4	0.0	85.08157515525818	1.0001640319824219
7	67.74333620071411	pulse	0	t		5.0	2.5	/experiments/knapen_AOT/AOT_stimuli/rescaled_final/1325_fw.mp4	0.0	85.66510534286499	
7	68.15997004508972	movie	1		242	5.0	2.5	/experiments/knapen_AOT/AOT_stimuli/rescaled_final/1325_fw.mp4	0.0	86.0817391872406	2.500396966934204
7	69.34369015693665	pulse	1	t		5.0	2.5	/experiments/knapen_AOT/AOT_stimuli/rescaled_final/1325_fw.mp4	0.0	87.26545929908752	
7	70.66036701202393	fix_post	2		12	5.0	2.5	/experiments/knapen_AOT/AOT_stimuli/rescaled_final/1325_fw.mp4	0.0	88.5821361541748	0.09992504119873047
8	70.76029205322266	fix_pre	0		120	6.0	2.5	/experiments/knapen_AOT/AOT_stimuli/rescaled_final/1773_fw.mp4	0.0	88.68206119537354	1.0001919269561768
8	70.94397711753845	pulse	0	t		6.0	2.5	/experiments/knapen_AOT/AOT_stimuli/rescaled_final/1773_fw.mp4	0.0	88.86574625968933	
8	71.76048398017883	movie	1		242	6.0	2.5	/experiments/knapen_AOT/AOT_stimuli/rescaled_final/1773_fw.mp4	0.0	89.68225312232971	2.5005640983581543
8	72.54423213005066	pulse	1	t		6.0	2.5	/experiments/knapen_AOT/AOT_stimuli/rescaled_final/1773_fw.mp4	0.0	90.46600127220154	
8	74.1449990272522	pulse	1	t		6.0	2.5	/experiments/knapen_AOT/AOT_stimuli/rescaled_final/1773_fw.mp4	0.0	92.06676816940308	
8	74.26104807853699	fix_post	2		12	6.0	2.5	/experiments/knapen_AOT/AOT_stimuli/rescaled_final/1773_fw.mp4	0.0	92.18281722068787	0.09985804557800293
9	74.36090612411499	fix_pre	0		120	7.0	2.5	blank	1.0	92.28267526626587	1.0001659393310547
9	75.36107206344604	movie	1		299	7.0	2.5	blank	1.0	93.28284120559692	2.4920411109924316
9	75.74461102485657	pulse	1	t		7.0	2.5	blank	1.0	93.66638016700745	
9	77.34494304656982	pulse	1	t		7.0	2.5	blank	1.0	95.2667121887207	
9	77.85311317443848	fix_post	2		12	7.0	2.5	blank	1.0	95.77488231658936	0.09998703002929688
10	77.95310020446777	fix_pre	0		120	8.0	2.5	/experiments/knapen_AOT/AOT_stimuli/rescaled_final/0161_rv.mp4	0.0	95.87486934661865	1.0001018047332764
10	78.94517111778259	pulse	0	t		8.0	2.5	/experiments/knapen_AOT/AOT_stimuli/rescaled_final/0161_rv.mp4	0.0	96.86694025993347	
10	78.95320200920105	movie	1		243	8.0	2.5	/experiments/knapen_AOT/AOT_stimuli/rescaled_final/0161_rv.mp4	0.0	96.87497115135193	2.5088040828704834
10	80.54580998420715	pulse	1	t		8.0	2.5	/experiments/knapen_AOT/AOT_stimuli/rescaled_final/0161_rv.mp4	0.0	98.46757912635803	
10	81.46200609207153	fix_post	2		12	8.0	2.5	/experiments/knapen_AOT/AOT_stimuli/rescaled_final/0161_rv.mp4	0.0	99.38377523422241	0.0999910831451416
11	81.56199717521667	fix_pre	0		120	9.0	2.5	/experiments/knapen_AOT/AOT_stimuli/rescaled_final/1387_rv.mp4	0.0	99.48376631736755	1.0001168251037598
11	82.1455020904541	pulse	0	t		9.0	2.5	/experiments/knapen_AOT/AOT_stimuli/rescaled_final/1387_rv.mp4	0.0	100.06727123260498	
11	82.56211400032043	movie	1		243	9.0	2.5	/experiments/knapen_AOT/AOT_stimuli/rescaled_final/1387_rv.mp4	0.0	100.48388314247131	2.500401020050049
11	83.74591708183289	pulse	1	t		9.0	2.5	/experiments/knapen_AOT/AOT_stimuli/rescaled_final/1387_rv.mp4	0.0	101.66768622398376	
11	85.06251502037048	fix_post	2		12	9.0	2.5	/experiments/knapen_AOT/AOT_stimuli/rescaled_final/1387_rv.mp4	0.0	102.98428416252136	0.09999704360961914
12	85.1625120639801	fix_pre	0		120	10.0	2.5	/experiments/knapen_AOT/AOT_stimuli/rescaled_final/0383_fw.mp4	0.0	103.08428120613098	1.0001499652862549
12	85.34613418579102	pulse	0	t		10.0	2.5	/experiments/knapen_AOT/AOT_stimuli/rescaled_final/0383_fw.mp4	0.0	103.2679033279419	
12	86.16266202926636	movie	1		243	10.0	2.5	/experiments/knapen_AOT/AOT_stimuli/rescaled_final/0383_fw.mp4	0.0	104.08443117141724	2.5005271434783936
12	86.94636011123657	pulse	1	t		10.0	2.5	/experiments/knapen_AOT/AOT_stimuli/rescaled_final/0383_fw.mp4	0.0	104.86812925338745	
12	88.54633498191833	pulse	1	t		10.0	2.5	/experiments/knapen_AOT/AOT_stimuli/rescaled_final/0383_fw.mp4	0.0	106.46810412406921	
12	88.66318917274475	fix_post	2		12	10.0	2.5	/experiments/knapen_AOT/AOT_stimuli/rescaled_final/0383_fw.mp4	0.0	106.58495831489563	0.09984898567199707
13	88.76303815841675	fix_pre	0		117	11.0	2.5	/experiments/knapen_AOT/AOT_stimuli/rescaled_final/1122_rv.mp4	0.0	106.68480730056763	1.0001380443572998
13	89.76317620277405	movie	1		242	11.0	2.5	/experiments/knapen_AOT/AOT_stimuli/rescaled_final/1122_rv.mp4	0.0	107.68494534492493	2.4922049045562744
13	90.14721703529358	pulse	1	t		11.0	2.5	/experiments/knapen_AOT/AOT_stimuli/rescaled_final/1122_rv.mp4	0.0	108.06898617744446	
13	91.74707198143005	pulse	1	t		11.0	2.5	/experiments/knapen_AOT/AOT_stimuli/rescaled_final/1122_rv.mp4	0.0	109.66884112358093	
13	92.25538110733032	fix_post	2		12	11.0	2.5	/experiments/knapen_AOT/AOT_stimuli/rescaled_final/1122_rv.mp4	0.0	110.1771502494812	0.09981393814086914
14	92.35519504547119	fix_pre	0		120	12.0	2.5	/experiments/knapen_AOT/AOT_stimuli/rescaled_final/0430_rv.mp4	0.0	110.27696418762207	1.0001490116119385
14	93.34731101989746	pulse	0	t		12.0	2.5	/experiments/knapen_AOT/AOT_stimuli/rescaled_final/0430_rv.mp4	0.0	111.26908016204834	
14	93.35534405708313	movie	1		244	12.0	2.5	/experiments/knapen_AOT/AOT_stimuli/rescaled_final/0430_rv.mp4	0.0	111.27711319923401	2.5088441371917725
14	94.94789814949036	pulse	1	t		12.0	2.5	/experiments/knapen_AOT/AOT_stimuli/rescaled_final/0430_rv.mp4	0.0	112.86966729164124	
14	95.8641881942749	fix_post	2		12	12.0	2.5	/experiments/knapen_AOT/AOT_stimuli/rescaled_final/0430_rv.mp4	0.0	113.78595733642578	0.09994292259216309
15	95.96413111686707	fix_pre	0		120	13.0	2.5	blank	1.0	113.88590025901794	1.0001070499420166
15	96.54766607284546	pulse	0	t		13.0	2.5	blank	1.0	114.46943521499634	
15	96.96423816680908	movie	1		300	13.0	2.5	blank	1.0	114.88600730895996	2.5004029273986816
15	98.1479241847992	pulse	1	t		13.0	2.5	blank	1.0	116.06969332695007	
15	99.46464109420776	fix_post	2		12	13.0	2.5	blank	1.0	117.38641023635864	0.09997200965881348
16	99.56461310386658	fix_pre	0		120	14.0	2.5	/experiments/knapen_AOT/AOT_stimuli/rescaled_final/0020_rv.mp4	0.0	117.48638224601746	1.000180959701538
16	99.7405800819397	pulse	0	t		14.0	2.5	/experiments/knapen_AOT/AOT_stimuli/rescaled_final/0020_rv.mp4	0.0	117.66234922409058	
16	100.56479406356812	movie	1		242	14.0	2.5	/experiments/knapen_AOT/AOT_stimuli/rescaled_final/0020_rv.mp4	0.0	118.486563205719	2.500559091567993
16	101.34108304977417	pulse	1	t		14.0	2.5	/experiments/knapen_AOT/AOT_stimuli/rescaled_final/0020_rv.mp4	0.0	119.26285219192505	
16	102.94870209693909	pulse	1	t		14.0	2.5	/experiments/knapen_AOT/AOT_stimuli/rescaled_final/0020_rv.mp4	0.0	120.87047123908997	
16	103.06535315513611	fix_post	2		12	14.0	2.5	/experiments/knapen_AOT/AOT_stimuli/rescaled_final/0020_rv.mp4	0.0	120.98712229728699	0.09981203079223633
17	103.16516518592834	fix_pre	0		120	15.0	2.5	/experiments/knapen_AOT/AOT_stimuli/rescaled_final/0383_fw.mp4	0.0	121.08693432807922	1.000187873840332
17	104.16535305976868	movie	1		242	15.0	2.5	/experiments/knapen_AOT/AOT_stimuli/rescaled_final/0383_fw.mp4	0.0	122.08712220191956	2.4920010566711426
17	104.54068303108215	pulse	1	t		15.0	2.5	/experiments/knapen_AOT/AOT_stimuli/rescaled_final/0383_fw.mp4	0.0	122.46245217323303	
17	106.1407961845398	pulse	1	t		15.0	2.5	/experiments/knapen_AOT/AOT_stimuli/rescaled_final/0383_fw.mp4	0.0	124.06256532669067	
17	106.65735411643982	fix_post	2		12	15.0	2.5	/experiments/knapen_AOT/AOT_stimuli/rescaled_final/0383_fw.mp4	0.0	124.5791232585907	0.09998297691345215
18	106.75733709335327	fix_pre	0		119	16.0	2.5	/experiments/knapen_AOT/AOT_stimuli/rescaled_final/0740_rv.mp4	0.0	124.67910623550415	0.9918229579925537
18	107.7410500049591	pulse	0	t		16.0	2.5	/experiments/knapen_AOT/AOT_stimuli/rescaled_final/0740_rv.mp4	0.0	125.66281914710999	
18	107.74916005134583	movie	1		245	16.0	2.5	/experiments/knapen_AOT/AOT_stimuli/rescaled_final/0740_rv.mp4	0.0	125.6709291934967	2.508784055709839
18	109.34179306030273	pulse	1	t		16.0	2.5	/experiments/knapen_AOT/AOT_stimuli/rescaled_final/0740_rv.mp4	0.0	127.26356220245361	
18	110.25794410705566	fix_post	2		12	16.0	2.5	/experiments/knapen_AOT/AOT_stimuli/rescaled_final/0740_rv.mp4	0.0	128.17971324920654	0.0999760627746582
19	110.35792016983032	fix_pre	0		120	17.0	2.5	/experiments/knapen_AOT/AOT_stimuli/rescaled_final/1916_fw.mp4	0.0	128.2796893119812	1.0001728534698486
19	110.94143915176392	pulse	0	t		17.0	2.5	/experiments/knapen_AOT/AOT_stimuli/rescaled_final/1916_fw.mp4	0.0	128.8632082939148	
19	111.35809302330017	movie	1		242	17.0	2.5	/experiments/knapen_AOT/AOT_stimuli/rescaled_final/1916_fw.mp4	0.0	129.27986216545105	2.5004751682281494
19	112.54183101654053	pulse	1	t		17.0	2.5	/experiments/knapen_AOT/AOT_stimuli/rescaled_final/1916_fw.mp4	0.0	130.4636001586914	
19	113.85856819152832	fix_post	2		12	17.0	2.5	/experiments/knapen_AOT/AOT_stimuli/rescaled_final/1916_fw.mp4	0.0	131.7803373336792	0.09984993934631348
20	113.95841813087463	fix_pre	0		120	18.0	2.5	/experiments/knapen_AOT/AOT_stimuli/rescaled_final/0869_fw.mp4	0.0	131.8801872730255	1.0001640319824219
20	114.14194416999817	pulse	0	t		18.0	2.5	/experiments/knapen_AOT/AOT_stimuli/rescaled_final/0869_fw.mp4	0.0	132.06371331214905	
20	114.95858216285706	movie	1		243	18.0	2.5	/experiments/knapen_AOT/AOT_stimuli/rescaled_final/0869_fw.mp4	0.0	132.88035130500793	2.500492811203003
20	115.74219012260437	pulse	1	t		18.0	2.5	/experiments/knapen_AOT/AOT_stimuli/rescaled_final/0869_fw.mp4	0.0	133.66395926475525	
20	117.34254312515259	pulse	1	t		18.0	2.5	/experiments/knapen_AOT/AOT_stimuli/rescaled_final/0869_fw.mp4	0.0	135.26431226730347	
20	117.45907497406006	fix_post	2		12	18.0	2.5	/experiments/knapen_AOT/AOT_stimuli/rescaled_final/0869_fw.mp4	0.0	135.38084411621094	0.09993314743041992
21	117.55900812149048	fix_pre	0		120	19.0	2.5	blank	1.0	135.48077726364136	1.0001189708709717
21	118.55912709236145	movie	1		299	19.0	2.5	blank	1.0	136.48089623451233	2.492016077041626
21	118.9428141117096	pulse	1	t		19.0	2.5	blank	1.0	136.86458325386047	
21	120.54296207427979	pulse	1	t		19.0	2.5	blank	1.0	138.46473121643066	
21	121.05114316940308	fix_post	2		12	19.0	2.5	blank	1.0	138.97291231155396	0.10003900527954102
22	121.15118217468262	fix_pre	0		120	20.0	2.5	/experiments/knapen_AOT/AOT_stimuli/rescaled_final/0736_rv.mp4	0.0	139.0729513168335	1.0001130104064941
22	122.14312720298767	pulse	0	t		20.0	2.5	/experiments/knapen_AOT/AOT_stimuli/rescaled_final/0736_rv.mp4	0.0	140.06489634513855	
22	122.15129518508911	movie	1		244	20.0	2.5	/experiments/knapen_AOT/AOT_stimuli/rescaled_final/0736_rv.mp4	0.0	140.07306432724	2.5088329315185547
22	123.74484610557556	pulse	1	t		20.0	2.5	/experiments/knapen_AOT/AOT_stimuli/rescaled_final/0736_rv.mp4	0.0	141.66661524772644	
22	124.66012811660767	fix_post	2		12	20.0	2.5	/experiments/knapen_AOT/AOT_stimuli/rescaled_final/0736_rv.mp4	0.0	142.58189725875854	0.10002303123474121
23	124.76015114784241	fix_pre	0		120	21.0	2.5	/experiments/knapen_AOT/AOT_stimuli/rescaled_final/1641_fw.mp4	0.0	142.6819202899933	1.0000519752502441
23	125.34373712539673	pulse	0	t		21.0	2.5	/experiments/knapen_AOT/AOT_stimuli/rescaled_final/1641_fw.mp4	0.0	143.2655062675476	
23	125.76020312309265	movie	1		242	21.0	2.5	/experiments/knapen_AOT/AOT_stimuli/rescaled_final/1641_fw.mp4	0.0	143.68197226524353	2.500570058822632
23	126.94407510757446	pulse	1	t		21.0	2.5	/experiments/knapen_AOT/AOT_stimuli/rescaled_final/1641_fw.mp4	0.0	144.86584424972534	
23	128.26077318191528	fix_post	2		12	21.0	2.5	/experiments/knapen_AOT/AOT_stimuli/rescaled_final/1641_fw.mp4	0.0	146.18254232406616	0.09986996650695801
24	128.36064314842224	fix_pre	0		120	22.0	2.5	/experiments/knapen_AOT/AOT_stimuli/rescaled_final/1471_rv.mp4	0.0	146.28241229057312	1.0001049041748047
24	128.54411506652832	pulse	0	t		22.0	2.5	/experiments/knapen_AOT/AOT_stimuli/rescaled_final/1471_rv.mp4	0.0	146.4658842086792	
24	129.36074805259705	movie	1		242	22.0	2.5	/experiments/knapen_AOT/AOT_stimuli/rescaled_final/1471_rv.mp4	0.0	147.28251719474792	2.5004501342773438
24	130.14433407783508	pulse	1	t		22.0	2.5	/experiments/knapen_AOT/AOT_stimuli/rescaled_final/1471_rv.mp4	0.0	148.06610321998596	
24	131.7444519996643	pulse	1	t		22.0	2.5	/experiments/knapen_AOT/AOT_stimuli/rescaled_final/1471_rv.mp4	0.0	149.66622114181519	
24	131.8611981868744	fix_post	2		12	22.0	2.5	/experiments/knapen_AOT/AOT_stimuli/rescaled_final/1471_rv.mp4	0.0	149.78296732902527	0.09995698928833008
25	131.96115517616272	fix_pre	0		120	23.0	2.5	/experiments/knapen_AOT/AOT_stimuli/rescaled_final/1813_fw.mp4	0.0	149.8829243183136	1.000093936920166
25	132.96124911308289	movie	1		242	23.0	2.5	/experiments/knapen_AOT/AOT_stimuli/rescaled_final/1813_fw.mp4	0.0	150.88301825523376	2.492141008377075
25	133.34605407714844	pulse	1	t		23.0	2.5	/experiments/knapen_AOT/AOT_stimuli/rescaled_final/1813_fw.mp4	0.0	151.26782321929932	
25	134.94513320922852	pulse	1	t		23.0	2.5	/experiments/knapen_AOT/AOT_stimuli/rescaled_final/1813_fw.mp4	0.0	152.8669023513794	
25	135.45339012145996	fix_post	2		12	23.0	2.5	/experiments/knapen_AOT/AOT_stimuli/rescaled_final/1813_fw.mp4	0.0	153.37515926361084	0.09992003440856934
26	135.55331015586853	fix_pre	0		120	24.0	2.5	/experiments/knapen_AOT/AOT_stimuli/rescaled_final/1293_fw.mp4	0.0	153.4750792980194	1.0001778602600098
26	136.54528307914734	pulse	0	t		24.0	2.5	/experiments/knapen_AOT/AOT_stimuli/rescaled_final/1293_fw.mp4	0.0	154.46705222129822	
26	136.55348801612854	movie	1		243	24.0	2.5	/experiments/knapen_AOT/AOT_stimuli/rescaled_final/1293_fw.mp4	0.0	154.47525715827942	2.5087289810180664
26	138.14596819877625	pulse	1	t		24.0	2.5	/experiments/knapen_AOT/AOT_stimuli/rescaled_final/1293_fw.mp4	0.0	156.06773734092712	
26	139.0622169971466	fix_post	2		12	24.0	2.5	/experiments/knapen_AOT/AOT_stimuli/rescaled_final/1293_fw.mp4	0.0	156.98398613929749	0.1000070571899414
27	139.16222405433655	fix_pre	0		120	25.0	2.5	/experiments/knapen_AOT/AOT_stimuli/rescaled_final/1982_rv.mp4	0.0	157.08399319648743	1.0001349449157715
27	139.74591708183289	pulse	0	t		25.0	2.5	/experiments/knapen_AOT/AOT_stimuli/rescaled_final/1982_rv.mp4	0.0	157.66768622398376	
27	140.16235899925232	movie	1		242	25.0	2.5	/experiments/knapen_AOT/AOT_stimuli/rescaled_final/1982_rv.mp4	0.0	158.0841281414032	2.5006210803985596
27	141.34192419052124	pulse	1	t		25.0	2.5	/experiments/knapen_AOT/AOT_stimuli/rescaled_final/1982_rv.mp4	0.0	159.26369333267212	
27	142.66298007965088	fix_post	2		12	25.0	2.5	/experiments/knapen_AOT/AOT_stimuli/rescaled_final/1982_rv.mp4	0.0	160.58474922180176	0.0997769832611084
28	142.762757062912	fix_pre	0		120	26.0	2.5	/experiments/knapen_AOT/AOT_stimuli/rescaled_final/1823_fw.mp4	0.0	160.68452620506287	1.0001270771026611
28	142.94624710083008	pulse	0	t		26.0	2.5	/experiments/knapen_AOT/AOT_stimuli/rescaled_final/1823_fw.mp4	0.0	160.86801624298096	
28	143.76288414001465	movie	1		243	26.0	2.5	/experiments/knapen_AOT/AOT_stimuli/rescaled_final/1823_fw.mp4	0.0	161.68465328216553	2.500454902648926
28	144.54658699035645	pulse	1	t		26.0	2.5	/experiments/knapen_AOT/AOT_stimuli/rescaled_final/1823_fw.mp4	0.0	162.46835613250732	
28	146.146831035614	pulse	1	t		26.0	2.5	/experiments/knapen_AOT/AOT_stimuli/rescaled_final/1823_fw.mp4	0.0	164.0686001777649	
28	146.26333904266357	fix_post	2		12	26.0	2.5	/experiments/knapen_AOT/AOT_stimuli/rescaled_final/1823_fw.mp4	0.0	164.18510818481445	0.09993696212768555
29	146.36327600479126	fix_pre	0		119	27.0	2.5	blank	1.0	164.28504514694214	0.9918420314788818
29	147.35511803627014	movie	1		300	27.0	2.5	blank	1.0	165.27688717842102	2.500373125076294
29	147.74714398384094	pulse	1	t		27.0	2.5	blank	1.0	165.66891312599182	
29	149.3472661972046	pulse	1	t		27.0	2.5	blank	1.0	167.26903533935547	
29	149.85549116134644	fix_post	2		12	27.0	2.5	blank	1.0	167.77726030349731	0.10001087188720703
30	149.95550203323364	fix_pre	0		117	28.0	2.5	/experiments/knapen_AOT/AOT_stimuli/rescaled_final/0179_fw.mp4	0.0	167.87727117538452	1.000136137008667
30	150.94741201400757	pulse	0	t		28.0	2.5	/experiments/knapen_AOT/AOT_stimuli/rescaled_final/0179_fw.mp4	0.0	168.86918115615845	
30	150.9556381702423	movie	1		244	28.0	2.5	/experiments/knapen_AOT/AOT_stimuli/rescaled_final/0179_fw.mp4	0.0	168.8774073123932	2.5086660385131836
30	152.54812216758728	pulse	1	t		28.0	2.5	/experiments/knapen_AOT/AOT_stimuli/rescaled_final/0179_fw.mp4	0.0	170.46989130973816	
30	153.4643042087555	fix_post	2		12	28.0	2.5	/experiments/knapen_AOT/AOT_stimuli/rescaled_final/0179_fw.mp4	0.0	171.38607335090637	0.10001993179321289
31	153.5643241405487	fix_pre	0		120	29.0	2.5	/experiments/knapen_AOT/AOT_stimuli/rescaled_final/2064_fw.mp4	0.0	171.48609328269958	1.0002079010009766
31	154.14056015014648	pulse	0	t		29.0	2.5	/experiments/knapen_AOT/AOT_stimuli/rescaled_final/2064_fw.mp4	0.0	172.06232929229736	
31	154.56453204154968	movie	1		243	29.0	2.5	/experiments/knapen_AOT/AOT_stimuli/rescaled_final/2064_fw.mp4	0.0	172.48630118370056	2.500535011291504
31	155.74381113052368	pulse	1	t		29.0	2.5	/experiments/knapen_AOT/AOT_stimuli/rescaled_final/2064_fw.mp4	0.0	173.66558027267456	
31	157.0650670528412	fix_post	2		12	29.0	2.5	/experiments/knapen_AOT/AOT_stimuli/rescaled_final/2064_fw.mp4	0.0	174.98683619499207	0.09983015060424805
32	157.16489720344543	fix_pre	0		120	30.0	2.5	/experiments/knapen_AOT/AOT_stimuli/rescaled_final/1266_fw.mp4	0.0	175.0866663455963	1.0002048015594482
32	157.340891122818	pulse	0	t		30.0	2.5	/experiments/knapen_AOT/AOT_stimuli/rescaled_final/1266_fw.mp4	0.0	175.26266026496887	
32	158.16510200500488	movie	1		244	30.0	2.5	/experiments/knapen_AOT/AOT_stimuli/rescaled_final/1266_fw.mp4	0.0	176.08687114715576	2.500274181365967
32	158.94038915634155	pulse	1	t		30.0	2.5	/experiments/knapen_AOT/AOT_stimuli/rescaled_final/1266_fw.mp4	0.0	176.86215829849243	
32	160.54050016403198	pulse	1	t		30.0	2.5	/experiments/knapen_AOT/AOT_stimuli/rescaled_final/1266_fw.mp4	0.0	178.46226930618286	
32	160.66537618637085	fix_post	2		12	30.0	2.5	/experiments/knapen_AOT/AOT_stimuli/rescaled_final/1266_fw.mp4	0.0	178.58714532852173	0.1000368595123291
33	160.76541304588318	fix_pre	0		119	31.0	2.5	/experiments/knapen_AOT/AOT_stimuli/rescaled_final/1189_rv.mp4	0.0	178.68718218803406	0.9918210506439209
33	161.7572340965271	movie	1		242	31.0	2.5	/experiments/knapen_AOT/AOT_stimuli/rescaled_final/1189_rv.mp4	0.0	179.67900323867798	2.5005710124969482
33	162.14119410514832	pulse	1	t		31.0	2.5	/experiments/knapen_AOT/AOT_stimuli/rescaled_final/1189_rv.mp4	0.0	180.0629632472992	
33	163.74113202095032	pulse	1	t		31.0	2.5	/experiments/knapen_AOT/AOT_stimuli/rescaled_final/1189_rv.mp4	0.0	181.6629011631012	
33	164.25780510902405	fix_post	2		12	31.0	2.5	/experiments/knapen_AOT/AOT_stimuli/rescaled_final/1189_rv.mp4	0.0	182.17957425117493	0.09985709190368652
34	164.35766220092773	fix_pre	0		119	32.0	2.5	/experiments/knapen_AOT/AOT_stimuli/rescaled_final/1505_rv.mp4	0.0	182.2794313430786	0.9918580055236816
34	165.3413200378418	pulse	0	t		32.0	2.5	/experiments/knapen_AOT/AOT_stimuli/rescaled_final/1505_rv.mp4	0.0	183.26308917999268	
34	165.34952020645142	movie	1		244	32.0	2.5	/experiments/knapen_AOT/AOT_stimuli/rescaled_final/1505_rv.mp4	0.0	183.2712893486023	2.508633852005005
34	166.94197416305542	pulse	1	t		32.0	2.5	/experiments/knapen_AOT/AOT_stimuli/rescaled_final/1505_rv.mp4	0.0	184.8637433052063	
34	167.85815405845642	fix_post	2		12	32.0	2.5	/experiments/knapen_AOT/AOT_stimuli/rescaled_final/1505_rv.mp4	0.0	185.7799232006073	0.10000896453857422
35	167.958163022995	fix_pre	0		120	33.0	2.5	/experiments/knapen_AOT/AOT_stimuli/rescaled_final/1257_rv.mp4	0.0	185.87993216514587	1.0001211166381836
35	168.54176712036133	pulse	0	t		33.0	2.5	/experiments/knapen_AOT/AOT_stimuli/rescaled_final/1257_rv.mp4	0.0	186.4635362625122	
35	168.95828413963318	movie	1		245	33.0	2.5	/experiments/knapen_AOT/AOT_stimuli/rescaled_final/1257_rv.mp4	0.0	186.88005328178406	2.5004048347473145
35	170.14219403266907	pulse	1	t		33.0	2.5	/experiments/knapen_AOT/AOT_stimuli/rescaled_final/1257_rv.mp4	0.0	188.06396317481995	
35	171.4586889743805	fix_post	2		12	33.0	2.5	/experiments/knapen_AOT/AOT_stimuli/rescaled_final/1257_rv.mp4	0.0	189.38045811653137	0.10004806518554688
36	171.55873703956604	fix_pre	0		120	34.0	2.5	/experiments/knapen_AOT/AOT_stimuli/rescaled_final/1381_rv.mp4	0.0	189.48050618171692	1.0001680850982666
36	171.7423551082611	pulse	0	t		34.0	2.5	/experiments/knapen_AOT/AOT_stimuli/rescaled_final/1381_rv.mp4	0.0	189.664124250412	
36	172.5589051246643	movie	1		243	34.0	2.5	/experiments/knapen_AOT/AOT_stimuli/rescaled_final/1381_rv.mp4	0.0	190.48067426681519	2.500464916229248
36	173.3424220085144	pulse	1	t		34.0	2.5	/experiments/knapen_AOT/AOT_stimuli/rescaled_final/1381_rv.mp4	0.0	191.26419115066528	
36	174.94267511367798	pulse	1	t		34.0	2.5	/experiments/knapen_AOT/AOT_stimuli/rescaled_final/1381_rv.mp4	0.0	192.86444425582886	
36	175.05937004089355	fix_post	2		12	34.0	2.5	/experiments/knapen_AOT/AOT_stimuli/rescaled_final/1381_rv.mp4	0.0	192.98113918304443	0.09985494613647461
37	175.15922498703003	fix_pre	0		120	35.0	2.5	blank	1.0	193.0809941291809	1.0002140998840332
37	176.15943908691406	movie	1		299	35.0	2.5	blank	1.0	194.08120822906494	2.4919791221618652
37	176.5429379940033	pulse	1	t		35.0	2.5	blank	1.0	194.46470713615417	
37	178.14328813552856	pulse	1	t		35.0	2.5	blank	1.0	196.06505727767944	
37	178.65141820907593	fix_post	2		12	35.0	2.5	blank	1.0	196.5731873512268	0.10003876686096191
38	178.7514569759369	fix_pre	0		120	36.0	2.5	/experiments/knapen_AOT/AOT_stimuli/rescaled_final/2132_fw.mp4	0.0	196.67322611808777	1.0001261234283447
38	179.74344301223755	pulse	0	t		36.0	2.5	/experiments/knapen_AOT/AOT_stimuli/rescaled_final/2132_fw.mp4	0.0	197.66521215438843	
38	179.75158309936523	movie	1		243	36.0	2.5	/experiments/knapen_AOT/AOT_stimuli/rescaled_final/2132_fw.mp4	0.0	197.6733522415161	2.508718967437744
38	181.34432411193848	pulse	1	t		36.0	2.5	/experiments/knapen_AOT/AOT_stimuli/rescaled_final/2132_fw.mp4	0.0	199.26609325408936	
38	182.26030206680298	fix_post	2		12	36.0	2.5	/experiments/knapen_AOT/AOT_stimuli/rescaled_final/2132_fw.mp4	0.0	200.18207120895386	0.10000395774841309
39	182.3603060245514	fix_pre	0		120	37.0	2.5	/experiments/knapen_AOT/AOT_stimuli/rescaled_final/0665_rv.mp4	0.0	200.28207516670227	1.0002069473266602
39	182.94402813911438	pulse	0	t		37.0	2.5	/experiments/knapen_AOT/AOT_stimuli/rescaled_final/0665_rv.mp4	0.0	200.86579728126526	
39	183.36051297187805	movie	1		242	37.0	2.5	/experiments/knapen_AOT/AOT_stimuli/rescaled_final/0665_rv.mp4	0.0	201.28228211402893	2.50052809715271
39	184.54428005218506	pulse	1	t		37.0	2.5	/experiments/knapen_AOT/AOT_stimuli/rescaled_final/0665_rv.mp4	0.0	202.46604919433594	
39	185.86104106903076	fix_post	2		12	37.0	2.5	/experiments/knapen_AOT/AOT_stimuli/rescaled_final/0665_rv.mp4	0.0	203.78281021118164	0.09982991218566895
40	185.96087098121643	fix_pre	0		120	38.0	2.5	/experiments/knapen_AOT/AOT_stimuli/rescaled_final/0061_rv.mp4	0.0	203.8826401233673	1.0001652240753174
40	186.14437198638916	pulse	0	t		38.0	2.5	/experiments/knapen_AOT/AOT_stimuli/rescaled_final/0061_rv.mp4	0.0	204.06614112854004	
40	186.96103620529175	movie	1		242	38.0	2.5	/experiments/knapen_AOT/AOT_stimuli/rescaled_final/0061_rv.mp4	0.0	204.88280534744263	2.500473976135254
40	187.74465417861938	pulse	1	t		38.0	2.5	/experiments/knapen_AOT/AOT_stimuli/rescaled_final/0061_rv.mp4	0.0	205.66642332077026	
40	189.34532713890076	pulse	1	t		38.0	2.5	/experiments/knapen_AOT/AOT_stimuli/rescaled_final/0061_rv.mp4	0.0	207.26709628105164	
40	189.461510181427	fix_post	2		12	38.0	2.5	/experiments/knapen_AOT/AOT_stimuli/rescaled_final/0061_rv.mp4	0.0	207.38327932357788	0.0999138355255127
41	189.56142401695251	fix_pre	0		119	39.0	2.5	/experiments/knapen_AOT/AOT_stimuli/rescaled_final/1551_rv.mp4	0.0	207.4831931591034	0.9917721748352051
41	190.55319619178772	movie	1		243	39.0	2.5	/experiments/knapen_AOT/AOT_stimuli/rescaled_final/1551_rv.mp4	0.0	208.4749653339386	2.500523805618286
41	190.94527006149292	pulse	1	t		39.0	2.5	/experiments/knapen_AOT/AOT_stimuli/rescaled_final/1551_rv.mp4	0.0	208.8670392036438	
41	192.54535102844238	pulse	1	t		39.0	2.5	/experiments/knapen_AOT/AOT_stimuli/rescaled_final/1551_rv.mp4	0.0	210.46712017059326	
41	193.053719997406	fix_post	2		12	39.0	2.5	/experiments/knapen_AOT/AOT_stimuli/rescaled_final/1551_rv.mp4	0.0	210.97548913955688	0.09986710548400879
42	193.15358710289001	fix_pre	0		120	40.0	2.5	/experiments/knapen_AOT/AOT_stimuli/rescaled_final/0045_rv.mp4	0.0	211.0753562450409	1.0001659393310547
42	194.14559698104858	pulse	0	t		40.0	2.5	/experiments/knapen_AOT/AOT_stimuli/rescaled_final/0045_rv.mp4	0.0	212.06736612319946	
42	194.15375304222107	movie	1		243	40.0	2.5	/experiments/knapen_AOT/AOT_stimuli/rescaled_final/0045_rv.mp4	0.0	212.07552218437195	2.5087270736694336
42	195.74641704559326	pulse	1	t		40.0	2.5	/experiments/knapen_AOT/AOT_stimuli/rescaled_final/0045_rv.mp4	0.0	213.66818618774414	
42	196.6624801158905	fix_post	2		12	40.0	2.5	/experiments/knapen_AOT/AOT_stimuli/rescaled_final/0045_rv.mp4	0.0	214.58424925804138	0.10010099411010742
43	196.7625811100006	fix_pre	0		120	41.0	2.5	blank	1.0	214.6843502521515	1.000079870223999
43	197.34608101844788	pulse	0	t		41.0	2.5	blank	1.0	215.26785016059875	
43	197.7626609802246	movie	1		300	41.0	2.5	blank	1.0	215.6844301223755	2.500319004058838
43	198.9463381767273	pulse	1	t		41.0	2.5	blank	1.0	216.86810731887817	
43	200.26297998428345	fix_post	2		12	41.0	2.5	blank	1.0	218.18474912643433	0.1001131534576416
44	200.3630931377411	fix_pre	0		120	42.0	2.5	/experiments/knapen_AOT/AOT_stimuli/rescaled_final/0999_fw.mp4	0.0	218.28486227989197	1.0001108646392822
44	200.54650902748108	pulse	0	t		42.0	2.5	/experiments/knapen_AOT/AOT_stimuli/rescaled_final/0999_fw.mp4	0.0	218.46827816963196	
44	201.36320400238037	movie	1		243	42.0	2.5	/experiments/knapen_AOT/AOT_stimuli/rescaled_final/0999_fw.mp4	0.0	219.28497314453125	2.5004830360412598
44	202.14682912826538	pulse	1	t		42.0	2.5	/experiments/knapen_AOT/AOT_stimuli/rescaled_final/0999_fw.mp4	0.0	220.06859827041626	
44	203.74695420265198	pulse	1	t		42.0	2.5	/experiments/knapen_AOT/AOT_stimuli/rescaled_final/0999_fw.mp4	0.0	221.66872334480286	
44	203.86368703842163	fix_post	2		12	42.0	2.5	/experiments/knapen_AOT/AOT_stimuli/rescaled_final/0999_fw.mp4	0.0	221.7854561805725	0.09990811347961426
45	203.96359515190125	fix_pre	0		120	43.0	2.5	/experiments/knapen_AOT/AOT_stimuli/rescaled_final/1347_fw.mp4	0.0	221.88536429405212	1.0000710487365723
45	204.96366620063782	movie	1		242	43.0	2.5	/experiments/knapen_AOT/AOT_stimuli/rescaled_final/1347_fw.mp4	0.0	222.8854353427887	2.4921939373016357
45	205.34776520729065	pulse	1	t		43.0	2.5	/experiments/knapen_AOT/AOT_stimuli/rescaled_final/1347_fw.mp4	0.0	223.26953434944153	
45	206.9474561214447	pulse	1	t		43.0	2.5	/experiments/knapen_AOT/AOT_stimuli/rescaled_final/1347_fw.mp4	0.0	224.86922526359558	
45	207.45586013793945	fix_post	2		12	43.0	2.5	/experiments/knapen_AOT/AOT_stimuli/rescaled_final/1347_fw.mp4	0.0	225.37762928009033	0.09985899925231934
46	207.55571913719177	fix_pre	0		120	44.0	2.5	/experiments/knapen_AOT/AOT_stimuli/rescaled_final/1201_fw.mp4	0.0	225.47748827934265	1.0001800060272217
46	208.54787707328796	pulse	0	t		44.0	2.5	/experiments/knapen_AOT/AOT_stimuli/rescaled_final/1201_fw.mp4	0.0	226.46964621543884	
46	208.555899143219	movie	1		244	44.0	2.5	/experiments/knapen_AOT/AOT_stimuli/rescaled_final/1201_fw.mp4	0.0	226.47766828536987	2.5088119506835938
46	210.14865398406982	pulse	1	t		44.0	2.5	/experiments/knapen_AOT/AOT_stimuli/rescaled_final/1201_fw.mp4	0.0	228.0704231262207	
46	211.0647110939026	fix_post	2		12	44.0	2.5	/experiments/knapen_AOT/AOT_stimuli/rescaled_final/1201_fw.mp4	0.0	228.98648023605347	0.09993100166320801
47	211.1646420955658	fix_pre	0		116	45.0	2.5	/experiments/knapen_AOT/AOT_stimuli/rescaled_final/1823_rv.mp4	0.0	229.08641123771667	1.0001370906829834
47	211.7481861114502	pulse	0	t		45.0	2.5	/experiments/knapen_AOT/AOT_stimuli/rescaled_final/1823_rv.mp4	0.0	229.66995525360107	
47	212.16477918624878	movie	1		242	45.0	2.5	/experiments/knapen_AOT/AOT_stimuli/rescaled_final/1823_rv.mp4	0.0	230.08654832839966	2.500530958175659
47	213.34089612960815	pulse	1	t		45.0	2.5	/experiments/knapen_AOT/AOT_stimuli/rescaled_final/1823_rv.mp4	0.0	231.26266527175903	
47	214.66531014442444	fix_post	2		12	45.0	2.5	/experiments/knapen_AOT/AOT_stimuli/rescaled_final/1823_rv.mp4	0.0	232.58707928657532	0.09981298446655273
48	214.765123128891	fix_pre	0		120	46.0	2.5	/experiments/knapen_AOT/AOT_stimuli/rescaled_final/1260_rv.mp4	0.0	232.68689227104187	1.000201940536499
48	214.94118309020996	pulse	0	t		46.0	2.5	/experiments/knapen_AOT/AOT_stimuli/rescaled_final/1260_rv.mp4	0.0	232.86295223236084	
48	215.7653250694275	movie	1		245	46.0	2.5	/experiments/knapen_AOT/AOT_stimuli/rescaled_final/1260_rv.mp4	0.0	233.68709421157837	2.500412940979004
48	216.54146218299866	pulse	1	t		46.0	2.5	/experiments/knapen_AOT/AOT_stimuli/rescaled_final/1260_rv.mp4	0.0	234.46323132514954	
48	218.14180612564087	pulse	1	t		46.0	2.5	/experiments/knapen_AOT/AOT_stimuli/rescaled_final/1260_rv.mp4	0.0	236.06357526779175	
48	218.2657380104065	fix_post	2		12	46.0	2.5	/experiments/knapen_AOT/AOT_stimuli/rescaled_final/1260_rv.mp4	0.0	236.18750715255737	0.09998416900634766
49	218.36572217941284	fix_pre	0		120	47.0	2.5	/experiments/knapen_AOT/AOT_stimuli/rescaled_final/1341_rv.mp4	0.0	236.28749132156372	1.0001139640808105
49	219.36583614349365	movie	1		242	47.0	2.5	/experiments/knapen_AOT/AOT_stimuli/rescaled_final/1341_rv.mp4	0.0	237.28760528564453	2.4922099113464355
49	219.74111914634705	pulse	1	t		47.0	2.5	/experiments/knapen_AOT/AOT_stimuli/rescaled_final/1341_rv.mp4	0.0	237.66288828849792	
49	221.34136199951172	pulse	1	t		47.0	2.5	/experiments/knapen_AOT/AOT_stimuli/rescaled_final/1341_rv.mp4	0.0	239.2631311416626	
49	221.8580460548401	fix_post	2		12	47.0	2.5	/experiments/knapen_AOT/AOT_stimuli/rescaled_final/1341_rv.mp4	0.0	239.77981519699097	0.09986400604248047
50	221.95791006088257	fix_pre	0		119	48.0	2.5	/experiments/knapen_AOT/AOT_stimuli/rescaled_final/0529_fw.mp4	0.0	239.87967920303345	0.9918420314788818
50	222.9415180683136	pulse	0	t		48.0	2.5	/experiments/knapen_AOT/AOT_stimuli/rescaled_final/0529_fw.mp4	0.0	240.86328721046448	
50	222.94975209236145	movie	1		243	48.0	2.5	/experiments/knapen_AOT/AOT_stimuli/rescaled_final/0529_fw.mp4	0.0	240.87152123451233	2.5086910724639893
50	224.54287600517273	pulse	1	t		48.0	2.5	/experiments/knapen_AOT/AOT_stimuli/rescaled_final/0529_fw.mp4	0.0	242.4646451473236	
50	225.45844316482544	fix_post	2		12	48.0	2.5	/experiments/knapen_AOT/AOT_stimuli/rescaled_final/0529_fw.mp4	0.0	243.38021230697632	0.09997701644897461
51	225.5584201812744	fix_pre	0		120	49.0	2.5	blank	1.0	243.4801893234253	1.000201940536499
51	226.14196920394897	pulse	0	t		49.0	2.5	blank	1.0	244.06373834609985	
51	226.5586221218109	movie	1		300	49.0	2.5	blank	1.0	244.4803912639618	2.500377893447876
51	227.74223113059998	pulse	1	t		49.0	2.5	blank	1.0	245.66400027275085	
51	229.0590000152588	fix_post	2		12	49.0	2.5	blank	1.0	246.98076915740967	0.09998297691345215
52	229.15898299217224	fix_pre	0		120	50.0	2.5	/experiments/knapen_AOT/AOT_stimuli/rescaled_final/0276_rv.mp4	0.0	247.08075213432312	1.0001220703125
52	229.34247517585754	pulse	0	t		50.0	2.5	/experiments/knapen_AOT/AOT_stimuli/rescaled_final/0276_rv.mp4	0.0	247.26424431800842	
52	230.15910506248474	movie	1		242	50.0	2.5	/experiments/knapen_AOT/AOT_stimuli/rescaled_final/0276_rv.mp4	0.0	248.08087420463562	2.500575065612793
52	230.94287610054016	pulse	1	t		50.0	2.5	/experiments/knapen_AOT/AOT_stimuli/rescaled_final/0276_rv.mp4	0.0	248.86464524269104	
52	232.5429880619049	pulse	1	t		50.0	2.5	/experiments/knapen_AOT/AOT_stimuli/rescaled_final/0276_rv.mp4	0.0	250.4647572040558	
52	232.65968012809753	fix_post	2		12	50.0	2.5	/experiments/knapen_AOT/AOT_stimuli/rescaled_final/0276_rv.mp4	0.0	250.5814492702484	0.09982800483703613
53	232.75950813293457	fix_pre	0		120	51.0	2.5	/experiments/knapen_AOT/AOT_stimuli/rescaled_final/1665_rv.mp4	0.0	250.68127727508545	1.0001869201660156
53	233.7596950531006	movie	1		241	51.0	2.5	/experiments/knapen_AOT/AOT_stimuli/rescaled_final/1665_rv.mp4	0.0	251.68146419525146	2.492150068283081
53	234.14374613761902	pulse	1	t		51.0	2.5	/experiments/knapen_AOT/AOT_stimuli/rescaled_final/1665_rv.mp4	0.0	252.0655152797699	
53	235.7433841228485	pulse	1	t		51.0	2.5	/experiments/knapen_AOT/AOT_stimuli/rescaled_final/1665_rv.mp4	0.0	253.6651532649994	
53	236.25184512138367	fix_post	2		12	51.0	2.5	/experiments/knapen_AOT/AOT_stimuli/rescaled_final/1665_rv.mp4	0.0	254.17361426353455	0.0999288558959961
54	236.35177397727966	fix_pre	0		120	52.0	2.5	/experiments/knapen_AOT/AOT_stimuli/rescaled_final/0999_rv.mp4	0.0	254.27354311943054	1.0000660419464111
54	237.34377002716064	pulse	0	t		52.0	2.5	/experiments/knapen_AOT/AOT_stimuli/rescaled_final/0999_rv.mp4	0.0	255.26553916931152	
54	237.35184001922607	movie	1		244	52.0	2.5	/experiments/knapen_AOT/AOT_stimuli/rescaled_final/0999_rv.mp4	0.0	255.27360916137695	2.508805990219116
54	238.94504714012146	pulse	1	t		52.0	2.5	/experiments/knapen_AOT/AOT_stimuli/rescaled_final/0999_rv.mp4	0.0	256.86681628227234	
54	239.8606460094452	fix_post	2		12	52.0	2.5	/experiments/knapen_AOT/AOT_stimuli/rescaled_final/0999_rv.mp4	0.0	257.78241515159607	0.09995508193969727
55	239.9606010913849	fix_pre	0		120	53.0	2.5	/experiments/knapen_AOT/AOT_stimuli/rescaled_final/0036_fw.mp4	0.0	257.88237023353577	1.0001089572906494
55	240.5442659854889	pulse	0	t		53.0	2.5	/experiments/knapen_AOT/AOT_stimuli/rescaled_final/0036_fw.mp4	0.0	258.46603512763977	
55	240.96071004867554	movie	1		243	53.0	2.5	/experiments/knapen_AOT/AOT_stimuli/rescaled_final/0036_fw.mp4	0.0	258.8824791908264	2.500368118286133
55	242.1445140838623	pulse	1	t		53.0	2.5	/experiments/knapen_AOT/AOT_stimuli/rescaled_final/0036_fw.mp4	0.0	260.0662832260132	
55	243.46107816696167	fix_post	2		12	53.0	2.5	/experiments/knapen_AOT/AOT_stimuli/rescaled_final/0036_fw.mp4	0.0	261.38284730911255	0.10001182556152344
56	243.5610899925232	fix_pre	0		120	54.0	2.5	/experiments/knapen_AOT/AOT_stimuli/rescaled_final/1873_rv.mp4	0.0	261.4828591346741	1.0001461505889893
56	243.74461698532104	pulse	0	t		54.0	2.5	/experiments/knapen_AOT/AOT_stimuli/rescaled_final/1873_rv.mp4	0.0	261.6663861274719	
56	244.56123614311218	movie	1		243	54.0	2.5	/experiments/knapen_AOT/AOT_stimuli/rescaled_final/1873_rv.mp4	0.0	262.48300528526306	2.500606060028076
56	245.34501600265503	pulse	1	t		54.0	2.5	/experiments/knapen_AOT/AOT_stimuli/rescaled_final/1873_rv.mp4	0.0	263.2667851448059	
56	246.94500613212585	pulse	1	t		54.0	2.5	/experiments/knapen_AOT/AOT_stimuli/rescaled_final/1873_rv.mp4	0.0	264.86677527427673	
56	247.06184220314026	fix_post	2		12	54.0	2.5	/experiments/knapen_AOT/AOT_stimuli/rescaled_final/1873_rv.mp4	0.0	264.98361134529114	0.0998539924621582
57	247.16169619560242	fix_pre	0		120	55.0	2.5	/experiments/knapen_AOT/AOT_stimuli/rescaled_final/1060_fw.mp4	0.0	265.0834653377533	1.0001637935638428
57	248.16185998916626	movie	1		242	55.0	2.5	/experiments/knapen_AOT/AOT_stimuli/rescaled_final/1060_fw.mp4	0.0	266.08362913131714	2.4921820163726807
57	248.54977703094482	pulse	1	t		55.0	2.5	/experiments/knapen_AOT/AOT_stimuli/rescaled_final/1060_fw.mp4	0.0	266.4715461730957	
57	250.14556002616882	pulse	1	t		55.0	2.5	/experiments/knapen_AOT/AOT_stimuli/rescaled_final/1060_fw.mp4	0.0	268.0673291683197	
57	250.65404200553894	fix_post	2		12	55.0	2.5	/experiments/knapen_AOT/AOT_stimuli/rescaled_final/1060_fw.mp4	0.0	268.5758111476898	0.0998680591583252
58	250.75391006469727	fix_pre	0		120	56.0	2.5	blank	1.0	268.67567920684814	1.0000669956207275
58	251.7459740638733	pulse	0	t		56.0	2.5	blank	1.0	269.66774320602417	
58	251.753977060318	movie	1		301	56.0	2.5	blank	1.0	269.6757462024689	2.5088019371032715
58	253.34618711471558	pulse	1	t		56.0	2.5	blank	1.0	271.26795625686646	
58	254.26277899742126	fix_post	2		12	56.0	2.5	blank	1.0	272.18454813957214	0.09996819496154785
59	254.3627471923828	fix_pre	0		120	57.0	2.5	/experiments/knapen_AOT/AOT_stimuli/rescaled_final/0869_rv.mp4	0.0	272.2845163345337	1.0002198219299316
59	254.94638109207153	pulse	0	t		57.0	2.5	/experiments/knapen_AOT/AOT_stimuli/rescaled_final/0869_rv.mp4	0.0	272.8681502342224	
59	255.36296701431274	movie	1		243	57.0	2.5	/experiments/knapen_AOT/AOT_stimuli/rescaled_final/0869_rv.mp4	0.0	273.2847361564636	2.5003390312194824
59	256.54664397239685	pulse	1	t		57.0	2.5	/experiments/knapen_AOT/AOT_stimuli/rescaled_final/0869_rv.mp4	0.0	274.46841311454773	
59	257.8633060455322	fix_post	2		12	57.0	2.5	/experiments/knapen_AOT/AOT_stimuli/rescaled_final/0869_rv.mp4	0.0	275.7850751876831	0.09994316101074219
60	257.96324920654297	fix_pre	0		120	58.0	2.5	/experiments/knapen_AOT/AOT_stimuli/rescaled_final/0818_rv.mp4	0.0	275.88501834869385	1.0001649856567383
60	258.1469101905823	pulse	0	t		58.0	2.5	/experiments/knapen_AOT/AOT_stimuli/rescaled_final/0818_rv.mp4	0.0	276.06867933273315	
60	258.9634141921997	movie	1		242	58.0	2.5	/experiments/knapen_AOT/AOT_stimuli/rescaled_final/0818_rv.mp4	0.0	276.8851833343506	2.5005838871002197
60	259.7471821308136	pulse	1	t		58.0	2.5	/experiments/knapen_AOT/AOT_stimuli/rescaled_final/0818_rv.mp4	0.0	277.6689512729645	
60	261.34855604171753	pulse	1	t		58.0	2.5	/experiments/knapen_AOT/AOT_stimuli/rescaled_final/0818_rv.mp4	0.0	279.2703251838684	
60	261.4639980792999	fix_post	2		12	58.0	2.5	/experiments/knapen_AOT/AOT_stimuli/rescaled_final/0818_rv.mp4	0.0	279.3857672214508	0.09980511665344238
61	261.56380319595337	fix_pre	0		120	59.0	2.5	/experiments/knapen_AOT/AOT_stimuli/rescaled_final/1189_fw.mp4	0.0	279.48557233810425	1.000229835510254
61	262.5640330314636	movie	1		241	59.0	2.5	/experiments/knapen_AOT/AOT_stimuli/rescaled_final/1189_fw.mp4	0.0	280.4858021736145	2.4920921325683594
61	262.9523410797119	pulse	1	t		59.0	2.5	/experiments/knapen_AOT/AOT_stimuli/rescaled_final/1189_fw.mp4	0.0	280.8741102218628	
61	264.5405261516571	pulse	1	t		59.0	2.5	/experiments/knapen_AOT/AOT_stimuli/rescaled_final/1189_fw.mp4	0.0	282.462295293808	
61	265.056125164032	fix_post	2		12	59.0	2.5	/experiments/knapen_AOT/AOT_stimuli/rescaled_final/1189_fw.mp4	0.0	282.97789430618286	0.09994196891784668
62	265.15606713294983	fix_pre	0		120	60.0	2.5	/experiments/knapen_AOT/AOT_stimuli/rescaled_final/1684_rv.mp4	0.0	283.0778362751007	1.0000629425048828
62	266.1406819820404	pulse	0	t		60.0	2.5	/experiments/knapen_AOT/AOT_stimuli/rescaled_final/1684_rv.mp4	0.0	284.0624511241913	
62	266.1561300754547	movie	1		244	60.0	2.5	/experiments/knapen_AOT/AOT_stimuli/rescaled_final/1684_rv.mp4	0.0	284.0778992176056	2.5088250637054443
62	267.748850107193	pulse	1	t		60.0	2.5	/experiments/knapen_AOT/AOT_stimuli/rescaled_final/1684_rv.mp4	0.0	285.6706192493439	
62	268.66495513916016	fix_post	2		12	60.0	2.5	/experiments/knapen_AOT/AOT_stimuli/rescaled_final/1684_rv.mp4	0.0	286.58672428131104	0.09996604919433594
63	268.7649211883545	fix_pre	0		120	61.0	2.5	/experiments/knapen_AOT/AOT_stimuli/rescaled_final/1595_rv.mp4	0.0	286.68669033050537	1.000121831893921
63	269.340980052948	pulse	0	t		61.0	2.5	/experiments/knapen_AOT/AOT_stimuli/rescaled_final/1595_rv.mp4	0.0	287.2627491950989	
63	269.7650430202484	movie	1		243	61.0	2.5	/experiments/knapen_AOT/AOT_stimuli/rescaled_final/1595_rv.mp4	0.0	287.6868121623993	2.500434160232544
63	270.9411680698395	pulse	1	t		61.0	2.5	/experiments/knapen_AOT/AOT_stimuli/rescaled_final/1595_rv.mp4	0.0	288.86293721199036	
63	272.26547718048096	fix_post	2		12	61.0	2.5	/experiments/knapen_AOT/AOT_stimuli/rescaled_final/1595_rv.mp4	0.0	290.18724632263184	0.09993386268615723
64	272.3654110431671	fix_pre	0		117	62.0	2.5	blank	1.0	290.287180185318	1.0001881122589111
64	272.54069900512695	pulse	0	t		62.0	2.5	blank	1.0	290.46246814727783	
64	273.365599155426	movie	1		300	62.0	2.5	blank	1.0	291.2873682975769	2.500325918197632
64	274.14078998565674	pulse	1	t		62.0	2.5	blank	1.0	292.0625591278076	
64	275.74111318588257	pulse	1	t		62.0	2.5	blank	1.0	293.66288232803345	
64	275.86592507362366	fix_post	2		12	62.0	2.5	blank	1.0	293.78769421577454	0.10005593299865723
65	275.9659810066223	fix_pre	0		120	63.0	2.5	/experiments/knapen_AOT/AOT_stimuli/rescaled_final/0161_rv.mp4	0.0	293.8877501487732	1.0001389980316162
65	276.96612000465393	movie	1		241	63.0	2.5	/experiments/knapen_AOT/AOT_stimuli/rescaled_final/0161_rv.mp4	0.0	294.8878891468048	2.492117166519165
65	277.3413541316986	pulse	1	t		63.0	2.5	/experiments/knapen_AOT/AOT_stimuli/rescaled_final/0161_rv.mp4	0.0	295.2631232738495	
65	278.94162702560425	pulse	1	t		63.0	2.5	/experiments/knapen_AOT/AOT_stimuli/rescaled_final/0161_rv.mp4	0.0	296.8633961677551	
65	279.4582371711731	fix_post	2		12	63.0	2.5	/experiments/knapen_AOT/AOT_stimuli/rescaled_final/0161_rv.mp4	0.0	297.380006313324	0.0999758243560791
66	279.5582129955292	fix_pre	0		119	64.0	2.5	/experiments/knapen_AOT/AOT_stimuli/rescaled_final/1822_fw.mp4	0.0	297.47998213768005	0.99173903465271
66	280.5418310165405	pulse	0	t		64.0	2.5	/experiments/knapen_AOT/AOT_stimuli/rescaled_final/1822_fw.mp4	0.0	298.4636001586914	
66	280.5499520301819	movie	1		243	64.0	2.5	/experiments/knapen_AOT/AOT_stimuli/rescaled_final/1822_fw.mp4	0.0	298.47172117233276	2.5088021755218506
66	282.1434690952301	pulse	1	t		64.0	2.5	/experiments/knapen_AOT/AOT_stimuli/rescaled_final/1822_fw.mp4	0.0	300.065238237381	
66	283.05875420570374	fix_post	2		12	64.0	2.5	/experiments/knapen_AOT/AOT_stimuli/rescaled_final/1822_fw.mp4	0.0	300.9805233478546	0.09997177124023438
67	283.15872597694397	fix_pre	0		120	65.0	2.5	/experiments/knapen_AOT/AOT_stimuli/rescaled_final/0281_fw.mp4	0.0	301.08049511909485	1.0000970363616943
67	283.7423269748688	pulse	0	t		65.0	2.5	/experiments/knapen_AOT/AOT_stimuli/rescaled_final/0281_fw.mp4	0.0	301.66409611701965	
67	284.15882301330566	movie	1		243	65.0	2.5	/experiments/knapen_AOT/AOT_stimuli/rescaled_final/0281_fw.mp4	0.0	302.08059215545654	2.5004031658172607
67	285.3425841331482	pulse	1	t		65.0	2.5	/experiments/knapen_AOT/AOT_stimuli/rescaled_final/0281_fw.mp4	0.0	303.2643532752991	
67	286.6592261791229	fix_post	2		12	65.0	2.5	/experiments/knapen_AOT/AOT_stimuli/rescaled_final/0281_fw.mp4	0.0	304.5809953212738	0.10001182556152344
68	286.75923800468445	fix_pre	0		120	66.0	2.5	/experiments/knapen_AOT/AOT_stimuli/rescaled_final/1319_rv.mp4	0.0	304.6810071468353	1.0002310276031494
68	286.9427661895752	pulse	0	t		66.0	2.5	/experiments/knapen_AOT/AOT_stimuli/rescaled_final/1319_rv.mp4	0.0	304.8645353317261	
68	287.7594690322876	movie	1		244	66.0	2.5	/experiments/knapen_AOT/AOT_stimuli/rescaled_final/1319_rv.mp4	0.0	305.6812381744385	2.500261068344116
68	288.5430181026459	pulse	1	t		66.0	2.5	/experiments/knapen_AOT/AOT_stimuli/rescaled_final/1319_rv.mp4	0.0	306.46478724479675	
68	290.14336919784546	pulse	1	t		66.0	2.5	/experiments/knapen_AOT/AOT_stimuli/rescaled_final/1319_rv.mp4	0.0	308.06513833999634	
68	290.2597301006317	fix_post	2		12	66.0	2.5	/experiments/knapen_AOT/AOT_stimuli/rescaled_final/1319_rv.mp4	0.0	308.1814992427826	0.10004901885986328
69	290.3597791194916	fix_pre	0		120	67.0	2.5	/experiments/knapen_AOT/AOT_stimuli/rescaled_final/0633_fw.mp4	0.0	308.28154826164246	1.0001680850982666
69	291.35994720458984	movie	1		241	67.0	2.5	/experiments/knapen_AOT/AOT_stimuli/rescaled_final/0633_fw.mp4	0.0	309.2817163467407	2.492125988006592
69	291.7441031932831	pulse	1	t		67.0	2.5	/experiments/knapen_AOT/AOT_stimuli/rescaled_final/0633_fw.mp4	0.0	309.66587233543396	
69	293.3438050746918	pulse	1	t		67.0	2.5	/experiments/knapen_AOT/AOT_stimuli/rescaled_final/0633_fw.mp4	0.0	311.26557421684265	
69	293.85207319259644	fix_post	2		12	67.0	2.5	/experiments/knapen_AOT/AOT_stimuli/rescaled_final/0633_fw.mp4	0.0	311.7738423347473	0.09988999366760254
70	293.95196318626404	fix_pre	0		120	68.0	2.5	/experiments/knapen_AOT/AOT_stimuli/rescaled_final/1516_fw.mp4	0.0	311.8737323284149	1.000154972076416
70	294.9439561367035	pulse	0	t		68.0	2.5	/experiments/knapen_AOT/AOT_stimuli/rescaled_final/1516_fw.mp4	0.0	312.86572527885437	
70	294.95211815834045	movie	1		245	68.0	2.5	/experiments/knapen_AOT/AOT_stimuli/rescaled_final/1516_fw.mp4	0.0	312.87388730049133	2.508692979812622
70	296.54485416412354	pulse	1	t		68.0	2.5	/experiments/knapen_AOT/AOT_stimuli/rescaled_final/1516_fw.mp4	0.0	314.4666233062744	
70	297.4608111381531	fix_post	2		12	68.0	2.5	/experiments/knapen_AOT/AOT_stimuli/rescaled_final/1516_fw.mp4	0.0	315.38258028030396	0.10002684593200684
71	297.5608379840851	fix_pre	0		120	69.0	2.5	/experiments/knapen_AOT/AOT_stimuli/rescaled_final/1761_rv.mp4	0.0	315.48260712623596	1.0001680850982666
71	298.144394159317	pulse	0	t		69.0	2.5	/experiments/knapen_AOT/AOT_stimuli/rescaled_final/1761_rv.mp4	0.0	316.0661633014679	
71	298.56100606918335	movie	1		243	69.0	2.5	/experiments/knapen_AOT/AOT_stimuli/rescaled_final/1761_rv.mp4	0.0	316.48277521133423	2.5003609657287598
71	299.7448220252991	pulse	1	t		69.0	2.5	/experiments/knapen_AOT/AOT_stimuli/rescaled_final/1761_rv.mp4	0.0	317.66659116744995	
71	301.0613670349121	fix_post	2		12	69.0	2.5	/experiments/knapen_AOT/AOT_stimuli/rescaled_final/1761_rv.mp4	0.0	318.983136177063	0.10000300407409668
72	301.1613700389862	fix_pre	0		120	70.0	2.5	blank	1.0	319.0831391811371	1.0002570152282715
72	301.34498500823975	pulse	0	t		70.0	2.5	blank	1.0	319.2667541503906	
72	302.1616270542145	movie	1		300	70.0	2.5	blank	1.0	320.08339619636536	2.5002989768981934
72	302.9451479911804	pulse	1	t		70.0	2.5	blank	1.0	320.8669171333313	
72	304.5454800128937	pulse	1	t		70.0	2.5	blank	1.0	322.46724915504456	
72	304.66192603111267	fix_post	2		12	70.0	2.5	blank	1.0	322.58369517326355	0.09999394416809082
73	304.76191997528076	fix_pre	0		120	71.0	2.5	/experiments/knapen_AOT/AOT_stimuli/rescaled_final/1014_rv.mp4	0.0	322.68368911743164	1.0001661777496338
73	305.7620861530304	movie	1		241	71.0	2.5	/experiments/knapen_AOT/AOT_stimuli/rescaled_final/1014_rv.mp4	0.0	323.6838552951813	2.4920568466186523
73	306.1472420692444	pulse	1	t		71.0	2.5	/experiments/knapen_AOT/AOT_stimuli/rescaled_final/1014_rv.mp4	0.0	324.06901121139526	
73	307.7459571361542	pulse	1	t		71.0	2.5	/experiments/knapen_AOT/AOT_stimuli/rescaled_final/1014_rv.mp4	0.0	325.66772627830505	
73	308.25414299964905	fix_post	2		12	71.0	2.5	/experiments/knapen_AOT/AOT_stimuli/rescaled_final/1014_rv.mp4	0.0	326.1759121417999	0.10000109672546387
74	308.3541440963745	fix_pre	0		120	72.0	2.5	/experiments/knapen_AOT/AOT_stimuli/rescaled_final/1874_fw.mp4	0.0	326.2759132385254	1.000108003616333
74	309.3461492061615	pulse	0	t		72.0	2.5	/experiments/knapen_AOT/AOT_stimuli/rescaled_final/1874_fw.mp4	0.0	327.2679183483124	
74	309.35425209999084	movie	1		246	72.0	2.5	/experiments/knapen_AOT/AOT_stimuli/rescaled_final/1874_fw.mp4	0.0	327.2760212421417	2.5087220668792725
74	310.95046305656433	pulse	1	t		72.0	2.5	/experiments/knapen_AOT/AOT_stimuli/rescaled_final/1874_fw.mp4	0.0	328.8722321987152	
74	311.8629741668701	fix_post	2		12	72.0	2.5	/experiments/knapen_AOT/AOT_stimuli/rescaled_final/1874_fw.mp4	0.0	329.784743309021	0.10001683235168457
75	311.9629909992218	fix_pre	0		120	73.0	2.5	/experiments/knapen_AOT/AOT_stimuli/rescaled_final/1213_fw.mp4	0.0	329.8847601413727	1.0001800060272217
75	312.5465941429138	pulse	0	t		73.0	2.5	/experiments/knapen_AOT/AOT_stimuli/rescaled_final/1213_fw.mp4	0.0	330.4683632850647	
75	312.963171005249	movie	1		244	73.0	2.5	/experiments/knapen_AOT/AOT_stimuli/rescaled_final/1213_fw.mp4	0.0	330.8849401473999	2.5003859996795654
75	314.1470670700073	pulse	1	t		73.0	2.5	/experiments/knapen_AOT/AOT_stimuli/rescaled_final/1213_fw.mp4	0.0	332.0688362121582	
75	315.4635570049286	fix_post	2		12	73.0	2.5	/experiments/knapen_AOT/AOT_stimuli/rescaled_final/1213_fw.mp4	0.0	333.38532614707947	0.0999901294708252
76	315.5635471343994	fix_pre	0		120	74.0	2.5	/experiments/knapen_AOT/AOT_stimuli/rescaled_final/1188_rv.mp4	0.0	333.4853162765503	1.0002210140228271
76	315.7470531463623	pulse	0	t		74.0	2.5	/experiments/knapen_AOT/AOT_stimuli/rescaled_final/1188_rv.mp4	0.0	333.6688222885132	
76	316.56376814842224	movie	1		243	74.0	2.5	/experiments/knapen_AOT/AOT_stimuli/rescaled_final/1188_rv.mp4	0.0	334.4855372905731	2.500437021255493
76	317.3473150730133	pulse	1	t		74.0	2.5	/experiments/knapen_AOT/AOT_stimuli/rescaled_final/1188_rv.mp4	0.0	335.2690842151642	
76	318.94723320007324	pulse	1	t		74.0	2.5	/experiments/knapen_AOT/AOT_stimuli/rescaled_final/1188_rv.mp4	0.0	336.8690023422241	
76	319.06420516967773	fix_post	2		12	74.0	2.5	/experiments/knapen_AOT/AOT_stimuli/rescaled_final/1188_rv.mp4	0.0	336.9859743118286	0.09990882873535156
77	319.1641139984131	fix_pre	0		120	75.0	2.5	/experiments/knapen_AOT/AOT_stimuli/rescaled_final/0911_rv.mp4	0.0	337.08588314056396	1.0000979900360107
77	320.1642119884491	movie	1		242	75.0	2.5	/experiments/knapen_AOT/AOT_stimuli/rescaled_final/0911_rv.mp4	0.0	338.0859811306	2.492014169692993
77	320.54832911491394	pulse	1	t		75.0	2.5	/experiments/knapen_AOT/AOT_stimuli/rescaled_final/0911_rv.mp4	0.0	338.4700982570648	
77	322.1406910419464	pulse	1	t		75.0	2.5	/experiments/knapen_AOT/AOT_stimuli/rescaled_final/0911_rv.mp4	0.0	340.0624601840973	
77	322.6562261581421	fix_post	2		12	75.0	2.5	/experiments/knapen_AOT/AOT_stimuli/rescaled_final/0911_rv.mp4	0.0	340.57799530029297	0.09999990463256836
78	322.75622606277466	fix_pre	0		120	76.0	2.5	blank	1.0	340.67799520492554	1.0001509189605713
78	323.7407491207123	pulse	0	t		76.0	2.5	blank	1.0	341.66251826286316	
78	323.75637698173523	movie	1		301	76.0	2.5	blank	1.0	341.6781461238861	2.5087661743164062
78	325.3409101963043	pulse	1	t		76.0	2.5	blank	1.0	343.2626793384552	
78	326.26514315605164	fix_post	2		12	76.0	2.5	blank	1.0	344.1869122982025	0.10000300407409668
79	326.36514616012573	fix_pre	0		120	77.0	2.5	/experiments/knapen_AOT/AOT_stimuli/rescaled_final/1516_rv.mp4	0.0	344.2869153022766	1.0001130104064941
79	326.94038820266724	pulse	0	t		77.0	2.5	/experiments/knapen_AOT/AOT_stimuli/rescaled_final/1516_rv.mp4	0.0	344.8621573448181	
79	327.3652591705322	movie	1		243	77.0	2.5	/experiments/knapen_AOT/AOT_stimuli/rescaled_final/1516_rv.mp4	0.0	345.2870283126831	2.5004689693450928
79	328.5412151813507	pulse	1	t		77.0	2.5	/experiments/knapen_AOT/AOT_stimuli/rescaled_final/1516_rv.mp4	0.0	346.4629843235016	
79	329.8657281398773	fix_post	2		12	77.0	2.5	/experiments/knapen_AOT/AOT_stimuli/rescaled_final/1516_rv.mp4	0.0	347.7874972820282	0.09997987747192383
80	329.96570801734924	fix_pre	0		120	78.0	2.5	/experiments/knapen_AOT/AOT_stimuli/rescaled_final/0128_rv.mp4	0.0	347.8874771595001	1.0001640319824219
80	330.1410050392151	pulse	0	t		78.0	2.5	/experiments/knapen_AOT/AOT_stimuli/rescaled_final/0128_rv.mp4	0.0	348.06277418136597	
80	330.96587204933167	movie	1		242	78.0	2.5	/experiments/knapen_AOT/AOT_stimuli/rescaled_final/0128_rv.mp4	0.0	348.88764119148254	2.5004069805145264
80	331.74121713638306	pulse	1	t		78.0	2.5	/experiments/knapen_AOT/AOT_stimuli/rescaled_final/0128_rv.mp4	0.0	349.66298627853394	
80	333.3413610458374	pulse	1	t		78.0	2.5	/experiments/knapen_AOT/AOT_stimuli/rescaled_final/0128_rv.mp4	0.0	351.2631301879883	
80	333.4662790298462	fix_post	2		12	78.0	2.5	/experiments/knapen_AOT/AOT_stimuli/rescaled_final/0128_rv.mp4	0.0	351.38804817199707	0.09992694854736328
81	333.56620597839355	fix_pre	0		119	79.0	2.5	/experiments/knapen_AOT/AOT_stimuli/rescaled_final/0157_fw.mp4	0.0	351.48797512054443	0.9918291568756104
81	334.55803513526917	movie	1		242	79.0	2.5	/experiments/knapen_AOT/AOT_stimuli/rescaled_final/0157_fw.mp4	0.0	352.47980427742004	2.500469923019409
81	334.94622898101807	pulse	1	t		79.0	2.5	/experiments/knapen_AOT/AOT_stimuli/rescaled_final/0157_fw.mp4	0.0	352.86799812316895	
81	336.541864156723	pulse	1	t		79.0	2.5	/experiments/knapen_AOT/AOT_stimuli/rescaled_final/0157_fw.mp4	0.0	354.4636332988739	
81	337.0585050582886	fix_post	2		12	79.0	2.5	/experiments/knapen_AOT/AOT_stimuli/rescaled_final/0157_fw.mp4	0.0	354.98027420043945	0.09992194175720215
82	337.1584270000458	fix_pre	0		119	80.0	2.5	/experiments/knapen_AOT/AOT_stimuli/rescaled_final/2027_fw.mp4	0.0	355.08019614219666	0.9917800426483154
82	338.1421720981598	pulse	0	t		80.0	2.5	/experiments/knapen_AOT/AOT_stimuli/rescaled_final/2027_fw.mp4	0.0	356.06394124031067	
82	338.1502070426941	movie	1		243	80.0	2.5	/experiments/knapen_AOT/AOT_stimuli/rescaled_final/2027_fw.mp4	0.0	356.07197618484497	2.5088350772857666
82	339.7436649799347	pulse	1	t		80.0	2.5	/experiments/knapen_AOT/AOT_stimuli/rescaled_final/2027_fw.mp4	0.0	357.66543412208557	
82	340.65904211997986	fix_post	2		12	80.0	2.5	/experiments/knapen_AOT/AOT_stimuli/rescaled_final/2027_fw.mp4	0.0	358.58081126213074	0.09998607635498047
83	340.75902819633484	fix_pre	0		120	81.0	2.5	/experiments/knapen_AOT/AOT_stimuli/rescaled_final/2060_rv.mp4	0.0	358.6807973384857	1.00010085105896
83	341.342511177063	pulse	0	t		81.0	2.5	/experiments/knapen_AOT/AOT_stimuli/rescaled_final/2060_rv.mp4	0.0	359.26428031921387	
83	341.7591290473938	movie	1		242	81.0	2.5	/experiments/knapen_AOT/AOT_stimuli/rescaled_final/2060_rv.mp4	0.0	359.6808981895447	2.500483989715576
83	342.9428780078888	pulse	1	t		81.0	2.5	/experiments/knapen_AOT/AOT_stimuli/rescaled_final/2060_rv.mp4	0.0	360.8646471500397	
83	344.2596130371094	fix_post	2		12	81.0	2.5	/experiments/knapen_AOT/AOT_stimuli/rescaled_final/2060_rv.mp4	0.0	362.18138217926025	0.09993815422058105
84	344.35955119132996	fix_pre	0		120	82.0	2.5	blank	1.0	362.28132033348083	1.000128984451294
84	344.5430281162262	pulse	0	t		82.0	2.5	blank	1.0	362.4647972583771	
84	345.35968017578125	movie	1		300	82.0	2.5	blank	1.0	363.28144931793213	2.5004279613494873
84	346.1433210372925	pulse	1	t		82.0	2.5	blank	1.0	364.06509017944336	
84	347.7434320449829	pulse	1	t		82.0	2.5	blank	1.0	365.6652011871338	
84	347.86010813713074	fix_post	2		12	82.0	2.5	blank	1.0	365.7818772792816	0.0999908447265625
85	347.9600989818573	fix_pre	0		120	83.0	2.5	/experiments/knapen_AOT/AOT_stimuli/rescaled_final/0474_fw.mp4	0.0	365.8818681240082	1.0000669956207275
85	348.960165977478	movie	1		242	83.0	2.5	/experiments/knapen_AOT/AOT_stimuli/rescaled_final/0474_fw.mp4	0.0	366.8819351196289	2.492178201675415
85	349.34428119659424	pulse	1	t		83.0	2.5	/experiments/knapen_AOT/AOT_stimuli/rescaled_final/0474_fw.mp4	0.0	367.2660503387451	
85	350.9440960884094	pulse	1	t		83.0	2.5	/experiments/knapen_AOT/AOT_stimuli/rescaled_final/0474_fw.mp4	0.0	368.8658652305603	
85	351.45234417915344	fix_post	2		12	83.0	2.5	/experiments/knapen_AOT/AOT_stimuli/rescaled_final/0474_fw.mp4	0.0	369.3741133213043	0.09988284111022949
87	351.5522270202637	stim	0		1716					369.47399616241455	14.302256107330322
87	352.54432797431946	pulse	0	t						370.46609711647034	
87	354.1444661617279	pulse	0	t						372.0662353038788	
87	355.74477100372314	pulse	0	t						373.666540145874	
87	357.34498620033264	pulse	0	t						375.2667553424835	
87	358.9452199935913	pulse	0	t						376.8669891357422	
87	360.5453841686249	pulse	0	t						378.46715331077576	
87	362.1456379890442	pulse	0	t						380.06740713119507	
87	363.7459421157837	pulse	0	t						381.66771125793457	
87	365.34621119499207	pulse	0	t						383.26798033714294	
