trial_nr	onset	event_type	phase	response	nr_frames	movie_index	movie_duration	movie_file	blank	onset_abs	duration
0	0.19180798530578613	stim	0		169					24.752228021621704	1.4083788394927979
0	1.5921149253845215	response	0	space						26.15253496170044	
1	1.600186824798584	stim	0		4042					26.160606861114502	33.701030015945435
1	35.28663086891174	pulse	0	t						59.84705090522766	
1	35.30121684074402	stim	1		1715					59.86163687705994	14.297797203063965
1	36.88060784339905	pulse	1	t						61.441027879714966	
1	38.480902910232544	pulse	1	t						63.04132294654846	
1	40.08105993270874	pulse	1	t						64.64147996902466	
1	41.68130588531494	pulse	1	t						66.24172592163086	
1	43.281590938568115	pulse	1	t						67.84201097488403	
1	44.88185787200928	pulse	1	t						69.4422779083252	
1	46.48209190368652	pulse	1	t						71.04251194000244	
1	48.08221697807312	pulse	1	t						72.64263701438904	
2	49.59901404380798	fix_pre	0		11	0.0	2.5	/experiments/knapen_AOT/AOT_stimuli/rescaled_final/0339_fw.mp4	0.0	74.1594340801239	0.09185385704040527
2	49.68257284164429	pulse	0	t		0.0	2.5	/experiments/knapen_AOT/AOT_stimuli/rescaled_final/0339_fw.mp4	0.0	74.2429928779602	
2	49.69086790084839	movie	1		243	0.0	2.5	/experiments/knapen_AOT/AOT_stimuli/rescaled_final/0339_fw.mp4	0.0	74.2512879371643	2.5085790157318115
2	51.28329586982727	pulse	1	t		0.0	2.5	/experiments/knapen_AOT/AOT_stimuli/rescaled_final/0339_fw.mp4	0.0	75.84371590614319	
2	52.1994469165802	fix_post	2		12	0.0	2.5	/experiments/knapen_AOT/AOT_stimuli/rescaled_final/0339_fw.mp4	0.0	76.75986695289612	0.09992289543151855
3	52.29936981201172	fix_pre	0		120	1.0	2.5	/experiments/knapen_AOT/AOT_stimuli/rescaled_final/1450_fw.mp4	0.0	76.85978984832764	1.0003302097320557
3	52.883183002471924	pulse	0	t		1.0	2.5	/experiments/knapen_AOT/AOT_stimuli/rescaled_final/1450_fw.mp4	0.0	77.44360303878784	
3	53.299700021743774	movie	1		242	1.0	2.5	/experiments/knapen_AOT/AOT_stimuli/rescaled_final/1450_fw.mp4	0.0	77.86012005805969	2.5002548694610596
3	54.47635293006897	pulse	1	t		1.0	2.5	/experiments/knapen_AOT/AOT_stimuli/rescaled_final/1450_fw.mp4	0.0	79.03677296638489	
3	55.799954891204834	fix_post	2		12	1.0	2.5	/experiments/knapen_AOT/AOT_stimuli/rescaled_final/1450_fw.mp4	0.0	80.36037492752075	0.10018801689147949
4	55.90014290809631	fix_pre	0		120	2.0	2.5	/experiments/knapen_AOT/AOT_stimuli/rescaled_final/1947_fw.mp4	0.0	80.46056294441223	1.0001049041748047
4	56.07508993148804	pulse	0	t		2.0	2.5	/experiments/knapen_AOT/AOT_stimuli/rescaled_final/1947_fw.mp4	0.0	80.63550996780396	
4	56.90024781227112	movie	1		243	2.0	2.5	/experiments/knapen_AOT/AOT_stimuli/rescaled_final/1947_fw.mp4	0.0	81.46066784858704	2.5003421306610107
4	57.67545700073242	pulse	1	t		2.0	2.5	/experiments/knapen_AOT/AOT_stimuli/rescaled_final/1947_fw.mp4	0.0	82.23587703704834	
4	59.27562189102173	pulse	1	t		2.0	2.5	/experiments/knapen_AOT/AOT_stimuli/rescaled_final/1947_fw.mp4	0.0	83.83604192733765	
4	59.40058994293213	fix_post	2		12	2.0	2.5	/experiments/knapen_AOT/AOT_stimuli/rescaled_final/1947_fw.mp4	0.0	83.96100997924805	0.09992194175720215
5	59.50051188468933	fix_pre	0		120	3.0	2.5	/experiments/knapen_AOT/AOT_stimuli/rescaled_final/0271_rv.mp4	0.0	84.06093192100525	1.0003061294555664
5	60.5008180141449	movie	1		241	3.0	2.5	/experiments/knapen_AOT/AOT_stimuli/rescaled_final/0271_rv.mp4	0.0	85.06123805046082	2.492015838623047
5	60.87595891952515	pulse	1	t		3.0	2.5	/experiments/knapen_AOT/AOT_stimuli/rescaled_final/0271_rv.mp4	0.0	85.43637895584106	
5	62.47626996040344	pulse	1	t		3.0	2.5	/experiments/knapen_AOT/AOT_stimuli/rescaled_final/0271_rv.mp4	0.0	87.03668999671936	
5	62.992833852767944	fix_post	2		12	3.0	2.5	/experiments/knapen_AOT/AOT_stimuli/rescaled_final/0271_rv.mp4	0.0	87.55325388908386	0.1000220775604248
6	63.09285593032837	fix_pre	0		119	4.0	2.5	/experiments/knapen_AOT/AOT_stimuli/rescaled_final/0229_fw.mp4	0.0	87.65327596664429	0.991703987121582
6	64.07644701004028	pulse	0	t		4.0	2.5	/experiments/knapen_AOT/AOT_stimuli/rescaled_final/0229_fw.mp4	0.0	88.6368670463562	
6	64.08455991744995	movie	1		243	4.0	2.5	/experiments/knapen_AOT/AOT_stimuli/rescaled_final/0229_fw.mp4	0.0	88.64497995376587	2.5088040828704834
6	65.6769368648529	pulse	1	t		4.0	2.5	/experiments/knapen_AOT/AOT_stimuli/rescaled_final/0229_fw.mp4	0.0	90.23735690116882	
6	66.59336400032043	fix_post	2		12	4.0	2.5	/experiments/knapen_AOT/AOT_stimuli/rescaled_final/0229_fw.mp4	0.0	91.15378403663635	0.09992098808288574
7	66.69328498840332	fix_pre	0		120	5.0	2.5	blank	1.0	91.25370502471924	1.000196933746338
7	67.27698493003845	pulse	0	t		5.0	2.5	blank	1.0	91.83740496635437	
7	67.69348192214966	movie	1		300	5.0	2.5	blank	1.0	92.25390195846558	2.500312089920044
7	68.87722897529602	pulse	1	t		5.0	2.5	blank	1.0	93.43764901161194	
7	70.1937940120697	fix_post	2		12	5.0	2.5	blank	1.0	94.75421404838562	0.10016894340515137
8	70.29396295547485	fix_pre	0		120	6.0	2.5	/experiments/knapen_AOT/AOT_stimuli/rescaled_final/2049_rv.mp4	0.0	94.85438299179077	1.000154972076416
8	70.47734093666077	pulse	0	t		6.0	2.5	/experiments/knapen_AOT/AOT_stimuli/rescaled_final/2049_rv.mp4	0.0	95.03776097297668	
8	71.29411792755127	movie	1		242	6.0	2.5	/experiments/knapen_AOT/AOT_stimuli/rescaled_final/2049_rv.mp4	0.0	95.85453796386719	2.5003559589385986
8	72.07756400108337	pulse	1	t		6.0	2.5	/experiments/knapen_AOT/AOT_stimuli/rescaled_final/2049_rv.mp4	0.0	96.63798403739929	
8	73.67758202552795	pulse	1	t		6.0	2.5	/experiments/knapen_AOT/AOT_stimuli/rescaled_final/2049_rv.mp4	0.0	98.23800206184387	
8	73.79447388648987	fix_post	2		12	6.0	2.5	/experiments/knapen_AOT/AOT_stimuli/rescaled_final/2049_rv.mp4	0.0	98.35489392280579	0.09997105598449707
9	73.89444494247437	fix_pre	0		119	7.0	2.5	/experiments/knapen_AOT/AOT_stimuli/rescaled_final/1269_fw.mp4	0.0	98.45486497879028	0.9919149875640869
9	74.88635993003845	movie	1		243	7.0	2.5	/experiments/knapen_AOT/AOT_stimuli/rescaled_final/1269_fw.mp4	0.0	99.44677996635437	2.500211000442505
9	75.2781069278717	pulse	1	t		7.0	2.5	/experiments/knapen_AOT/AOT_stimuli/rescaled_final/1269_fw.mp4	0.0	99.83852696418762	
9	76.87838983535767	pulse	1	t		7.0	2.5	/experiments/knapen_AOT/AOT_stimuli/rescaled_final/1269_fw.mp4	0.0	101.43880987167358	
9	77.38657093048096	fix_post	2		12	7.0	2.5	/experiments/knapen_AOT/AOT_stimuli/rescaled_final/1269_fw.mp4	0.0	101.94699096679688	0.09990406036376953
10	77.48647499084473	fix_pre	0		120	8.0	2.5	/experiments/knapen_AOT/AOT_stimuli/rescaled_final/0438_rv.mp4	0.0	102.04689502716064	1.0002880096435547
10	78.47856593132019	pulse	0	t		8.0	2.5	/experiments/knapen_AOT/AOT_stimuli/rescaled_final/0438_rv.mp4	0.0	103.03898596763611	
10	78.48676300048828	movie	1		244	8.0	2.5	/experiments/knapen_AOT/AOT_stimuli/rescaled_final/0438_rv.mp4	0.0	103.0471830368042	2.5087168216705322
10	80.07933783531189	pulse	1	t		8.0	2.5	/experiments/knapen_AOT/AOT_stimuli/rescaled_final/0438_rv.mp4	0.0	104.63975787162781	
10	80.99547982215881	fix_post	2		12	8.0	2.5	/experiments/knapen_AOT/AOT_stimuli/rescaled_final/0438_rv.mp4	0.0	105.55589985847473	0.09985899925231934
11	81.09533882141113	fix_pre	0		120	9.0	2.5	/experiments/knapen_AOT/AOT_stimuli/rescaled_final/1833_fw.mp4	0.0	105.65575885772705	1.0002901554107666
11	81.6790599822998	pulse	0	t		9.0	2.5	/experiments/knapen_AOT/AOT_stimuli/rescaled_final/1833_fw.mp4	0.0	106.23948001861572	
11	82.0956289768219	movie	1		242	9.0	2.5	/experiments/knapen_AOT/AOT_stimuli/rescaled_final/1833_fw.mp4	0.0	106.65604901313782	2.5004589557647705
11	83.2794759273529	pulse	1	t		9.0	2.5	/experiments/knapen_AOT/AOT_stimuli/rescaled_final/1833_fw.mp4	0.0	107.83989596366882	
11	84.59608793258667	fix_post	2		12	9.0	2.5	/experiments/knapen_AOT/AOT_stimuli/rescaled_final/1833_fw.mp4	0.0	109.15650796890259	0.10009908676147461
12	84.69618701934814	fix_pre	0		120	10.0	2.5	/experiments/knapen_AOT/AOT_stimuli/rescaled_final/1814_rv.mp4	0.0	109.25660705566406	1.000072956085205
12	84.87946581840515	pulse	0	t		10.0	2.5	/experiments/knapen_AOT/AOT_stimuli/rescaled_final/1814_rv.mp4	0.0	109.43988585472107	
12	85.69625997543335	movie	1		241	10.0	2.5	/experiments/knapen_AOT/AOT_stimuli/rescaled_final/1814_rv.mp4	0.0	110.25668001174927	2.500243902206421
12	86.4797568321228	pulse	1	t		10.0	2.5	/experiments/knapen_AOT/AOT_stimuli/rescaled_final/1814_rv.mp4	0.0	111.04017686843872	
12	88.07974886894226	pulse	1	t		10.0	2.5	/experiments/knapen_AOT/AOT_stimuli/rescaled_final/1814_rv.mp4	0.0	112.64016890525818	
12	88.19650387763977	fix_post	2		12	10.0	2.5	/experiments/knapen_AOT/AOT_stimuli/rescaled_final/1814_rv.mp4	0.0	112.75692391395569	0.09995603561401367
13	88.29645991325378	fix_pre	0		120	11.0	2.5	/experiments/knapen_AOT/AOT_stimuli/rescaled_final/1471_rv.mp4	0.0	112.8568799495697	1.0002670288085938
13	89.29672694206238	movie	1		241	11.0	2.5	/experiments/knapen_AOT/AOT_stimuli/rescaled_final/1471_rv.mp4	0.0	113.8571469783783	2.4920570850372314
13	89.68145203590393	pulse	1	t		11.0	2.5	/experiments/knapen_AOT/AOT_stimuli/rescaled_final/1471_rv.mp4	0.0	114.24187207221985	
13	91.28048992156982	pulse	1	t		11.0	2.5	/experiments/knapen_AOT/AOT_stimuli/rescaled_final/1471_rv.mp4	0.0	115.84090995788574	
13	91.78878402709961	fix_post	2		12	11.0	2.5	/experiments/knapen_AOT/AOT_stimuli/rescaled_final/1471_rv.mp4	0.0	116.34920406341553	0.10003185272216797
14	91.88881587982178	fix_pre	0		120	12.0	2.5	blank	1.0	116.4492359161377	1.0001609325408936
14	92.88077902793884	pulse	0	t		12.0	2.5	blank	1.0	117.44119906425476	
14	92.88897681236267	movie	1		301	12.0	2.5	blank	1.0	117.44939684867859	2.508545160293579
14	94.48092794418335	pulse	1	t		12.0	2.5	blank	1.0	119.04134798049927	
14	95.39752197265625	fix_post	2		12	12.0	2.5	blank	1.0	119.95794200897217	0.10009598731994629
15	95.4976179599762	fix_pre	0		120	13.0	2.5	/experiments/knapen_AOT/AOT_stimuli/rescaled_final/0565_fw.mp4	0.0	120.05803799629211	1.0002210140228271
15	96.08138489723206	pulse	0	t		13.0	2.5	/experiments/knapen_AOT/AOT_stimuli/rescaled_final/0565_fw.mp4	0.0	120.64180493354797	
15	96.49783897399902	movie	1		242	13.0	2.5	/experiments/knapen_AOT/AOT_stimuli/rescaled_final/0565_fw.mp4	0.0	121.05825901031494	2.5004148483276367
15	97.68168497085571	pulse	1	t		13.0	2.5	/experiments/knapen_AOT/AOT_stimuli/rescaled_final/0565_fw.mp4	0.0	122.24210500717163	
15	98.99825382232666	fix_post	2		12	13.0	2.5	/experiments/knapen_AOT/AOT_stimuli/rescaled_final/0565_fw.mp4	0.0	123.55867385864258	0.10006213188171387
16	99.09831595420837	fix_pre	0		120	14.0	2.5	/experiments/knapen_AOT/AOT_stimuli/rescaled_final/2154_fw.mp4	0.0	123.65873599052429	1.0000638961791992
16	99.281564950943	pulse	0	t		14.0	2.5	/experiments/knapen_AOT/AOT_stimuli/rescaled_final/2154_fw.mp4	0.0	123.84198498725891	
16	100.09837985038757	movie	1		245	14.0	2.5	/experiments/knapen_AOT/AOT_stimuli/rescaled_final/2154_fw.mp4	0.0	124.65879988670349	2.500322103500366
16	100.8819968700409	pulse	1	t		14.0	2.5	/experiments/knapen_AOT/AOT_stimuli/rescaled_final/2154_fw.mp4	0.0	125.44241690635681	
16	102.4797580242157	pulse	1	t		14.0	2.5	/experiments/knapen_AOT/AOT_stimuli/rescaled_final/2154_fw.mp4	0.0	127.04017806053162	
16	102.59870195388794	fix_post	2		12	14.0	2.5	/experiments/knapen_AOT/AOT_stimuli/rescaled_final/2154_fw.mp4	0.0	127.15912199020386	0.09990191459655762
17	102.6986038684845	fix_pre	0		120	15.0	2.5	/experiments/knapen_AOT/AOT_stimuli/rescaled_final/2117_rv.mp4	0.0	127.25902390480042	1.0003080368041992
17	103.6989119052887	movie	1		245	15.0	2.5	/experiments/knapen_AOT/AOT_stimuli/rescaled_final/2117_rv.mp4	0.0	128.25933194160461	2.5003371238708496
17	104.08289885520935	pulse	1	t		15.0	2.5	/experiments/knapen_AOT/AOT_stimuli/rescaled_final/2117_rv.mp4	0.0	128.64331889152527	
17	105.68256092071533	pulse	1	t		15.0	2.5	/experiments/knapen_AOT/AOT_stimuli/rescaled_final/2117_rv.mp4	0.0	130.24298095703125	
17	106.19924902915955	fix_post	2		12	15.0	2.5	/experiments/knapen_AOT/AOT_stimuli/rescaled_final/2117_rv.mp4	0.0	130.75966906547546	0.09992289543151855
18	106.29917192459106	fix_pre	0		119	16.0	2.5	/experiments/knapen_AOT/AOT_stimuli/rescaled_final/0962_rv.mp4	0.0	130.85959196090698	0.9919700622558594
18	107.27556204795837	pulse	0	t		16.0	2.5	/experiments/knapen_AOT/AOT_stimuli/rescaled_final/0962_rv.mp4	0.0	131.8359820842743	
18	107.29114198684692	movie	1		246	16.0	2.5	/experiments/knapen_AOT/AOT_stimuli/rescaled_final/0962_rv.mp4	0.0	131.85156202316284	2.5085370540618896
18	108.88355493545532	pulse	1	t		16.0	2.5	/experiments/knapen_AOT/AOT_stimuli/rescaled_final/0962_rv.mp4	0.0	133.44397497177124	
18	109.79967904090881	fix_post	2		12	16.0	2.5	/experiments/knapen_AOT/AOT_stimuli/rescaled_final/0962_rv.mp4	0.0	134.36009907722473	0.09999895095825195
19	109.89967799186707	fix_pre	0		120	17.0	2.5	/experiments/knapen_AOT/AOT_stimuli/rescaled_final/0002_fw.mp4	0.0	134.46009802818298	1.000288963317871
19	110.47594285011292	pulse	0	t		17.0	2.5	/experiments/knapen_AOT/AOT_stimuli/rescaled_final/0002_fw.mp4	0.0	135.03636288642883	
19	110.89996695518494	movie	1		242	17.0	2.5	/experiments/knapen_AOT/AOT_stimuli/rescaled_final/0002_fw.mp4	0.0	135.46038699150085	2.500485897064209
19	112.07605385780334	pulse	1	t		17.0	2.5	/experiments/knapen_AOT/AOT_stimuli/rescaled_final/0002_fw.mp4	0.0	136.63647389411926	
19	113.40045285224915	fix_post	2		12	17.0	2.5	/experiments/knapen_AOT/AOT_stimuli/rescaled_final/0002_fw.mp4	0.0	137.96087288856506	0.10003209114074707
20	113.50048494338989	fix_pre	0		120	18.0	2.5	/experiments/knapen_AOT/AOT_stimuli/rescaled_final/2099_rv.mp4	0.0	138.0609049797058	0.9999790191650391
20	113.67627000808716	pulse	0	t		18.0	2.5	/experiments/knapen_AOT/AOT_stimuli/rescaled_final/2099_rv.mp4	0.0	138.23669004440308	
20	114.50046396255493	movie	1		243	18.0	2.5	/experiments/knapen_AOT/AOT_stimuli/rescaled_final/2099_rv.mp4	0.0	139.06088399887085	2.500398874282837
20	115.27581596374512	pulse	1	t		18.0	2.5	/experiments/knapen_AOT/AOT_stimuli/rescaled_final/2099_rv.mp4	0.0	139.83623600006104	
20	116.87584590911865	pulse	1	t		18.0	2.5	/experiments/knapen_AOT/AOT_stimuli/rescaled_final/2099_rv.mp4	0.0	141.43626594543457	
20	117.00086283683777	fix_post	2		12	18.0	2.5	/experiments/knapen_AOT/AOT_stimuli/rescaled_final/2099_rv.mp4	0.0	141.5612828731537	0.09991097450256348
21	117.10077381134033	fix_pre	0		120	19.0	2.5	/experiments/knapen_AOT/AOT_stimuli/rescaled_final/0614_rv.mp4	0.0	141.66119384765625	1.0002431869506836
21	118.10101699829102	movie	1		242	19.0	2.5	/experiments/knapen_AOT/AOT_stimuli/rescaled_final/0614_rv.mp4	0.0	142.66143703460693	2.492110013961792
21	118.47617197036743	pulse	1	t		19.0	2.5	/experiments/knapen_AOT/AOT_stimuli/rescaled_final/0614_rv.mp4	0.0	143.03659200668335	
21	120.07656383514404	pulse	1	t		19.0	2.5	/experiments/knapen_AOT/AOT_stimuli/rescaled_final/0614_rv.mp4	0.0	144.63698387145996	
21	120.59312701225281	fix_post	2		12	19.0	2.5	/experiments/knapen_AOT/AOT_stimuli/rescaled_final/0614_rv.mp4	0.0	145.15354704856873	0.09985995292663574
22	120.69298696517944	fix_pre	0		119	20.0	2.5	blank	1.0	145.25340700149536	0.9919140338897705
22	121.67667198181152	pulse	0	t		20.0	2.5	blank	1.0	146.23709201812744	
22	121.68490099906921	movie	1		301	20.0	2.5	blank	1.0	146.24532103538513	2.5085630416870117
22	123.27694702148438	pulse	1	t		20.0	2.5	blank	1.0	147.8373670578003	
22	124.19346404075623	fix_post	2		12	20.0	2.5	blank	1.0	148.75388407707214	0.10015678405761719
23	124.29362082481384	fix_pre	0		120	21.0	2.5	/experiments/knapen_AOT/AOT_stimuli/rescaled_final/2049_fw.mp4	0.0	148.85404086112976	1.0002210140228271
23	124.87716698646545	pulse	0	t		21.0	2.5	/experiments/knapen_AOT/AOT_stimuli/rescaled_final/2049_fw.mp4	0.0	149.43758702278137	
23	125.29384183883667	movie	1		242	21.0	2.5	/experiments/knapen_AOT/AOT_stimuli/rescaled_final/2049_fw.mp4	0.0	149.8542618751526	2.5003411769866943
23	126.47752499580383	pulse	1	t		21.0	2.5	/experiments/knapen_AOT/AOT_stimuli/rescaled_final/2049_fw.mp4	0.0	151.03794503211975	
23	127.79418301582336	fix_post	2		12	21.0	2.5	/experiments/knapen_AOT/AOT_stimuli/rescaled_final/2049_fw.mp4	0.0	152.35460305213928	0.10008096694946289
24	127.89426398277283	fix_pre	0		120	22.0	2.5	/experiments/knapen_AOT/AOT_stimuli/rescaled_final/0070_fw.mp4	0.0	152.45468401908875	1.0000920295715332
24	128.077556848526	pulse	0	t		22.0	2.5	/experiments/knapen_AOT/AOT_stimuli/rescaled_final/0070_fw.mp4	0.0	152.63797688484192	
24	128.89435601234436	movie	1		245	22.0	2.5	/experiments/knapen_AOT/AOT_stimuli/rescaled_final/0070_fw.mp4	0.0	153.45477604866028	2.5003628730773926
24	129.67801785469055	pulse	1	t		22.0	2.5	/experiments/knapen_AOT/AOT_stimuli/rescaled_final/0070_fw.mp4	0.0	154.23843789100647	
24	131.27594184875488	pulse	1	t		22.0	2.5	/experiments/knapen_AOT/AOT_stimuli/rescaled_final/0070_fw.mp4	0.0	155.8363618850708	
24	131.39471888542175	fix_post	2		12	22.0	2.5	/experiments/knapen_AOT/AOT_stimuli/rescaled_final/0070_fw.mp4	0.0	155.95513892173767	0.0999300479888916
25	131.49464893341064	fix_pre	0		120	23.0	2.5	/experiments/knapen_AOT/AOT_stimuli/rescaled_final/0872_rv.mp4	0.0	156.05506896972656	1.0003440380096436
25	132.4949929714203	movie	1		241	23.0	2.5	/experiments/knapen_AOT/AOT_stimuli/rescaled_final/0872_rv.mp4	0.0	157.0554130077362	2.492055892944336
25	132.87889695167542	pulse	1	t		23.0	2.5	/experiments/knapen_AOT/AOT_stimuli/rescaled_final/0872_rv.mp4	0.0	157.43931698799133	
25	134.4784698486328	pulse	1	t		23.0	2.5	/experiments/knapen_AOT/AOT_stimuli/rescaled_final/0872_rv.mp4	0.0	159.03888988494873	
25	134.98704886436462	fix_post	2		12	23.0	2.5	/experiments/knapen_AOT/AOT_stimuli/rescaled_final/0872_rv.mp4	0.0	159.54746890068054	0.09988713264465332
26	135.08693599700928	fix_pre	0		120	24.0	2.5	/experiments/knapen_AOT/AOT_stimuli/rescaled_final/2083_rv.mp4	0.0	159.6473560333252	1.0001130104064941
26	136.0788929462433	pulse	0	t		24.0	2.5	/experiments/knapen_AOT/AOT_stimuli/rescaled_final/2083_rv.mp4	0.0	160.6393129825592	
26	136.08704900741577	movie	1		243	24.0	2.5	/experiments/knapen_AOT/AOT_stimuli/rescaled_final/2083_rv.mp4	0.0	160.6474690437317	2.5087850093841553
26	137.67950296401978	pulse	1	t		24.0	2.5	/experiments/knapen_AOT/AOT_stimuli/rescaled_final/2083_rv.mp4	0.0	162.2399230003357	
26	138.59583401679993	fix_post	2		12	24.0	2.5	/experiments/knapen_AOT/AOT_stimuli/rescaled_final/2083_rv.mp4	0.0	163.15625405311584	0.09999895095825195
27	138.69583296775818	fix_pre	0		120	25.0	2.5	/experiments/knapen_AOT/AOT_stimuli/rescaled_final/1158_fw.mp4	0.0	163.2562530040741	1.000208854675293
27	139.27934002876282	pulse	0	t		25.0	2.5	/experiments/knapen_AOT/AOT_stimuli/rescaled_final/1158_fw.mp4	0.0	163.83976006507874	
27	139.69604182243347	movie	1		242	25.0	2.5	/experiments/knapen_AOT/AOT_stimuli/rescaled_final/1158_fw.mp4	0.0	164.2564618587494	2.5002310276031494
27	140.8797209262848	pulse	1	t		25.0	2.5	/experiments/knapen_AOT/AOT_stimuli/rescaled_final/1158_fw.mp4	0.0	165.4401409626007	
27	142.19627285003662	fix_post	2		12	25.0	2.5	/experiments/knapen_AOT/AOT_stimuli/rescaled_final/1158_fw.mp4	0.0	166.75669288635254	0.09991216659545898
28	142.29618501663208	fix_pre	0		120	26.0	2.5	blank	1.0	166.856605052948	1.000269889831543
28	142.4797658920288	pulse	0	t		26.0	2.5	blank	1.0	167.04018592834473	
28	143.29645490646362	movie	1		300	26.0	2.5	blank	1.0	167.85687494277954	2.5003321170806885
28	144.0801019668579	pulse	1	t		26.0	2.5	blank	1.0	168.64052200317383	
28	145.68019104003906	pulse	1	t		26.0	2.5	blank	1.0	170.24061107635498	
28	145.7967870235443	fix_post	2		12	26.0	2.5	blank	1.0	170.35720705986023	0.10013389587402344
29	145.89692091941833	fix_pre	0		120	27.0	2.5	/experiments/knapen_AOT/AOT_stimuli/rescaled_final/0655_fw.mp4	0.0	170.45734095573425	1.0001718997955322
29	146.89709281921387	movie	1		242	27.0	2.5	/experiments/knapen_AOT/AOT_stimuli/rescaled_final/0655_fw.mp4	0.0	171.45751285552979	2.492025136947632
29	147.2811188697815	pulse	1	t		27.0	2.5	/experiments/knapen_AOT/AOT_stimuli/rescaled_final/0655_fw.mp4	0.0	171.8415389060974	
29	148.88065886497498	pulse	1	t		27.0	2.5	/experiments/knapen_AOT/AOT_stimuli/rescaled_final/0655_fw.mp4	0.0	173.4410789012909	
29	149.3891179561615	fix_post	2		12	27.0	2.5	/experiments/knapen_AOT/AOT_stimuli/rescaled_final/0655_fw.mp4	0.0	173.94953799247742	0.09986400604248047
30	149.48898196220398	fix_pre	0		117	28.0	2.5	/experiments/knapen_AOT/AOT_stimuli/rescaled_final/1254_rv.mp4	0.0	174.0494019985199	1.0002310276031494
30	150.48108792304993	pulse	0	t		28.0	2.5	/experiments/knapen_AOT/AOT_stimuli/rescaled_final/1254_rv.mp4	0.0	175.04150795936584	
30	150.48921298980713	movie	1		244	28.0	2.5	/experiments/knapen_AOT/AOT_stimuli/rescaled_final/1254_rv.mp4	0.0	175.04963302612305	2.508791923522949
30	152.0823700428009	pulse	1	t		28.0	2.5	/experiments/knapen_AOT/AOT_stimuli/rescaled_final/1254_rv.mp4	0.0	176.64279007911682	
30	152.99800491333008	fix_post	2		12	28.0	2.5	/experiments/knapen_AOT/AOT_stimuli/rescaled_final/1254_rv.mp4	0.0	177.558424949646	0.09981298446655273
31	153.09781789779663	fix_pre	0		120	29.0	2.5	/experiments/knapen_AOT/AOT_stimuli/rescaled_final/0364_fw.mp4	0.0	177.65823793411255	1.0003819465637207
31	153.68152785301208	pulse	0	t		29.0	2.5	/experiments/knapen_AOT/AOT_stimuli/rescaled_final/0364_fw.mp4	0.0	178.241947889328	
31	154.09819984436035	movie	1		244	29.0	2.5	/experiments/knapen_AOT/AOT_stimuli/rescaled_final/0364_fw.mp4	0.0	178.65861988067627	2.500221014022827
31	155.28178691864014	pulse	1	t		29.0	2.5	/experiments/knapen_AOT/AOT_stimuli/rescaled_final/0364_fw.mp4	0.0	179.84220695495605	
31	156.59842085838318	fix_post	2		12	29.0	2.5	/experiments/knapen_AOT/AOT_stimuli/rescaled_final/0364_fw.mp4	0.0	181.1588408946991	0.09991097450256348
32	156.69833183288574	fix_pre	0		120	30.0	2.5	/experiments/knapen_AOT/AOT_stimuli/rescaled_final/0742_fw.mp4	0.0	181.25875186920166	1.0002710819244385
32	156.88202285766602	pulse	0	t		30.0	2.5	/experiments/knapen_AOT/AOT_stimuli/rescaled_final/0742_fw.mp4	0.0	181.44244289398193	
32	157.69860291481018	movie	1		242	30.0	2.5	/experiments/knapen_AOT/AOT_stimuli/rescaled_final/0742_fw.mp4	0.0	182.2590229511261	2.50049090385437
32	158.48234486579895	pulse	1	t		30.0	2.5	/experiments/knapen_AOT/AOT_stimuli/rescaled_final/0742_fw.mp4	0.0	183.04276490211487	
32	160.0821738243103	pulse	1	t		30.0	2.5	/experiments/knapen_AOT/AOT_stimuli/rescaled_final/0742_fw.mp4	0.0	184.64259386062622	
32	160.19909381866455	fix_post	2		12	30.0	2.5	/experiments/knapen_AOT/AOT_stimuli/rescaled_final/0742_fw.mp4	0.0	184.75951385498047	0.10000109672546387
33	160.29909491539001	fix_pre	0		120	31.0	2.5	/experiments/knapen_AOT/AOT_stimuli/rescaled_final/1652_fw.mp4	0.0	184.85951495170593	1.000169038772583
33	161.2992639541626	movie	1		242	31.0	2.5	/experiments/knapen_AOT/AOT_stimuli/rescaled_final/1652_fw.mp4	0.0	185.85968399047852	2.5002448558807373
33	161.68308401107788	pulse	1	t		31.0	2.5	/experiments/knapen_AOT/AOT_stimuli/rescaled_final/1652_fw.mp4	0.0	186.2435040473938	
33	163.27553796768188	pulse	1	t		31.0	2.5	/experiments/knapen_AOT/AOT_stimuli/rescaled_final/1652_fw.mp4	0.0	187.8359580039978	
33	163.79950881004333	fix_post	2		11	31.0	2.5	/experiments/knapen_AOT/AOT_stimuli/rescaled_final/1652_fw.mp4	0.0	188.35992884635925	0.09179306030273438
34	163.89130187034607	fix_pre	0		120	32.0	2.5	/experiments/knapen_AOT/AOT_stimuli/rescaled_final/1847_fw.mp4	0.0	188.451721906662	1.0000860691070557
34	164.87565088272095	pulse	0	t		32.0	2.5	/experiments/knapen_AOT/AOT_stimuli/rescaled_final/1847_fw.mp4	0.0	189.43607091903687	
34	164.89138793945312	movie	1		243	32.0	2.5	/experiments/knapen_AOT/AOT_stimuli/rescaled_final/1847_fw.mp4	0.0	189.45180797576904	2.50872802734375
34	166.48762202262878	pulse	1	t		32.0	2.5	/experiments/knapen_AOT/AOT_stimuli/rescaled_final/1847_fw.mp4	0.0	191.0480420589447	
34	167.40011596679688	fix_post	2		12	32.0	2.5	/experiments/knapen_AOT/AOT_stimuli/rescaled_final/1847_fw.mp4	0.0	191.9605360031128	0.09998297691345215
35	167.50009894371033	fix_pre	0		120	33.0	2.5	/experiments/knapen_AOT/AOT_stimuli/rescaled_final/1646_fw.mp4	0.0	192.06051898002625	1.0002648830413818
35	168.07627296447754	pulse	0	t		33.0	2.5	/experiments/knapen_AOT/AOT_stimuli/rescaled_final/1646_fw.mp4	0.0	192.63669300079346	
35	168.5003638267517	movie	1		242	33.0	2.5	/experiments/knapen_AOT/AOT_stimuli/rescaled_final/1646_fw.mp4	0.0	193.06078386306763	2.5002081394195557
35	169.6760768890381	pulse	1	t		33.0	2.5	/experiments/knapen_AOT/AOT_stimuli/rescaled_final/1646_fw.mp4	0.0	194.236496925354	
35	171.00057196617126	fix_post	2		12	33.0	2.5	/experiments/knapen_AOT/AOT_stimuli/rescaled_final/1646_fw.mp4	0.0	195.56099200248718	0.09999203681945801
36	171.10056400299072	fix_pre	0		120	34.0	2.5	blank	1.0	195.66098403930664	1.0002479553222656
36	171.27564883232117	pulse	0	t		34.0	2.5	blank	1.0	195.83606886863708	
36	172.100811958313	movie	1		300	34.0	2.5	blank	1.0	196.6612319946289	2.500227928161621
36	172.87613201141357	pulse	1	t		34.0	2.5	blank	1.0	197.4365520477295	
36	174.47631287574768	pulse	1	t		34.0	2.5	blank	1.0	199.0367329120636	
36	174.6010398864746	fix_post	2		12	34.0	2.5	blank	1.0	199.16145992279053	0.10021710395812988
37	174.70125699043274	fix_pre	0		119	35.0	2.5	/experiments/knapen_AOT/AOT_stimuli/rescaled_final/1468_rv.mp4	0.0	199.26167702674866	0.9917919635772705
37	175.69304895401	movie	1		242	35.0	2.5	/experiments/knapen_AOT/AOT_stimuli/rescaled_final/1468_rv.mp4	0.0	200.25346899032593	2.5003719329833984
37	176.07706785202026	pulse	1	t		35.0	2.5	/experiments/knapen_AOT/AOT_stimuli/rescaled_final/1468_rv.mp4	0.0	200.63748788833618	
37	177.67663383483887	pulse	1	t		35.0	2.5	/experiments/knapen_AOT/AOT_stimuli/rescaled_final/1468_rv.mp4	0.0	202.23705387115479	
37	178.1934208869934	fix_post	2		12	35.0	2.5	/experiments/knapen_AOT/AOT_stimuli/rescaled_final/1468_rv.mp4	0.0	202.75384092330933	0.10003399848937988
38	178.2934548854828	fix_pre	0		119	36.0	2.5	/experiments/knapen_AOT/AOT_stimuli/rescaled_final/1878_rv.mp4	0.0	202.8538749217987	0.9917290210723877
38	179.27698183059692	pulse	0	t		36.0	2.5	/experiments/knapen_AOT/AOT_stimuli/rescaled_final/1878_rv.mp4	0.0	203.83740186691284	
38	179.28518390655518	movie	1		244	36.0	2.5	/experiments/knapen_AOT/AOT_stimuli/rescaled_final/1878_rv.mp4	0.0	203.8456039428711	2.5087859630584717
38	180.87776803970337	pulse	1	t		36.0	2.5	/experiments/knapen_AOT/AOT_stimuli/rescaled_final/1878_rv.mp4	0.0	205.4381880760193	
38	181.79396986961365	fix_post	2		12	36.0	2.5	/experiments/knapen_AOT/AOT_stimuli/rescaled_final/1878_rv.mp4	0.0	206.35438990592957	0.09985995292663574
39	181.89382982254028	fix_pre	0		120	37.0	2.5	/experiments/knapen_AOT/AOT_stimuli/rescaled_final/1674_fw.mp4	0.0	206.4542498588562	1.000197172164917
39	182.477530002594	pulse	0	t		37.0	2.5	/experiments/knapen_AOT/AOT_stimuli/rescaled_final/1674_fw.mp4	0.0	207.0379500389099	
39	182.8940269947052	movie	1		242	37.0	2.5	/experiments/knapen_AOT/AOT_stimuli/rescaled_final/1674_fw.mp4	0.0	207.45444703102112	2.5005569458007812
39	184.07775497436523	pulse	1	t		37.0	2.5	/experiments/knapen_AOT/AOT_stimuli/rescaled_final/1674_fw.mp4	0.0	208.63817501068115	
39	185.39458394050598	fix_post	2		12	37.0	2.5	/experiments/knapen_AOT/AOT_stimuli/rescaled_final/1674_fw.mp4	0.0	209.9550039768219	0.09982895851135254
40	185.49441289901733	fix_pre	0		120	38.0	2.5	/experiments/knapen_AOT/AOT_stimuli/rescaled_final/1875_fw.mp4	0.0	210.05483293533325	1.0001509189605713
40	185.67786383628845	pulse	0	t		38.0	2.5	/experiments/knapen_AOT/AOT_stimuli/rescaled_final/1875_fw.mp4	0.0	210.23828387260437	
40	186.4945638179779	movie	1		242	38.0	2.5	/experiments/knapen_AOT/AOT_stimuli/rescaled_final/1875_fw.mp4	0.0	211.05498385429382	2.500486135482788
40	187.27820587158203	pulse	1	t		38.0	2.5	/experiments/knapen_AOT/AOT_stimuli/rescaled_final/1875_fw.mp4	0.0	211.83862590789795	
40	188.87814283370972	pulse	1	t		38.0	2.5	/experiments/knapen_AOT/AOT_stimuli/rescaled_final/1875_fw.mp4	0.0	213.43856287002563	
40	188.9950499534607	fix_post	2		12	38.0	2.5	/experiments/knapen_AOT/AOT_stimuli/rescaled_final/1875_fw.mp4	0.0	213.5554699897766	0.10000085830688477
41	189.09505081176758	fix_pre	0		120	39.0	2.5	/experiments/knapen_AOT/AOT_stimuli/rescaled_final/0281_fw.mp4	0.0	213.6554708480835	1.0001749992370605
41	190.09522581100464	movie	1		242	39.0	2.5	/experiments/knapen_AOT/AOT_stimuli/rescaled_final/0281_fw.mp4	0.0	214.65564584732056	2.492032051086426
41	190.4791510105133	pulse	1	t		39.0	2.5	/experiments/knapen_AOT/AOT_stimuli/rescaled_final/0281_fw.mp4	0.0	215.03957104682922	
41	192.07885003089905	pulse	1	t		39.0	2.5	/experiments/knapen_AOT/AOT_stimuli/rescaled_final/0281_fw.mp4	0.0	216.63927006721497	
41	192.58725786209106	fix_post	2		12	39.0	2.5	/experiments/knapen_AOT/AOT_stimuli/rescaled_final/0281_fw.mp4	0.0	217.14767789840698	0.09984111785888672
42	192.68709897994995	fix_pre	0		120	40.0	2.5	/experiments/knapen_AOT/AOT_stimuli/rescaled_final/0104_fw.mp4	0.0	217.24751901626587	1.0002648830413818
42	193.6792368888855	pulse	0	t		40.0	2.5	/experiments/knapen_AOT/AOT_stimuli/rescaled_final/0104_fw.mp4	0.0	218.23965692520142	
42	193.68736386299133	movie	1		244	40.0	2.5	/experiments/knapen_AOT/AOT_stimuli/rescaled_final/0104_fw.mp4	0.0	218.24778389930725	2.5087339878082275
42	195.28051900863647	pulse	1	t		40.0	2.5	/experiments/knapen_AOT/AOT_stimuli/rescaled_final/0104_fw.mp4	0.0	219.8409390449524	
42	196.19609785079956	fix_post	2		12	40.0	2.5	/experiments/knapen_AOT/AOT_stimuli/rescaled_final/0104_fw.mp4	0.0	220.75651788711548	0.09990215301513672
43	196.2960000038147	fix_pre	0		120	41.0	2.5	/experiments/knapen_AOT/AOT_stimuli/rescaled_final/2032_fw.mp4	0.0	220.85642004013062	1.0002729892730713
43	196.87961602210999	pulse	0	t		41.0	2.5	/experiments/knapen_AOT/AOT_stimuli/rescaled_final/2032_fw.mp4	0.0	221.4400360584259	
43	197.29627299308777	movie	1		242	41.0	2.5	/experiments/knapen_AOT/AOT_stimuli/rescaled_final/2032_fw.mp4	0.0	221.8566930294037	2.5003340244293213
43	198.47560501098633	pulse	1	t		41.0	2.5	/experiments/knapen_AOT/AOT_stimuli/rescaled_final/2032_fw.mp4	0.0	223.03602504730225	
43	199.7966070175171	fix_post	2		12	41.0	2.5	/experiments/knapen_AOT/AOT_stimuli/rescaled_final/2032_fw.mp4	0.0	224.357027053833	0.09996700286865234
44	199.89657402038574	fix_pre	0		120	42.0	2.5	blank	1.0	224.45699405670166	1.000227928161621
44	200.08005094528198	pulse	0	t		42.0	2.5	blank	1.0	224.6404709815979	
44	200.89680194854736	movie	1		300	42.0	2.5	blank	1.0	225.45722198486328	2.5002880096435547
44	201.68034601211548	pulse	1	t		42.0	2.5	blank	1.0	226.2407660484314	
44	203.28053402900696	pulse	1	t		42.0	2.5	blank	1.0	227.84095406532288	
44	203.39708995819092	fix_post	2		9	42.0	2.5	blank	1.0	227.95750999450684	0.10009098052978516
45	203.4971809387207	fix_pre	0		120	43.0	2.5	/experiments/knapen_AOT/AOT_stimuli/rescaled_final/1942_rv.mp4	0.0	228.05760097503662	1.000190019607544
45	204.49737095832825	movie	1		241	43.0	2.5	/experiments/knapen_AOT/AOT_stimuli/rescaled_final/1942_rv.mp4	0.0	229.05779099464417	2.492069959640503
45	204.88143181800842	pulse	1	t		43.0	2.5	/experiments/knapen_AOT/AOT_stimuli/rescaled_final/1942_rv.mp4	0.0	229.44185185432434	
45	206.48107886314392	pulse	1	t		43.0	2.5	/experiments/knapen_AOT/AOT_stimuli/rescaled_final/1942_rv.mp4	0.0	231.04149889945984	
45	206.98944091796875	fix_post	2		12	43.0	2.5	/experiments/knapen_AOT/AOT_stimuli/rescaled_final/1942_rv.mp4	0.0	231.54986095428467	0.09999799728393555
46	207.08943891525269	fix_pre	0		120	44.0	2.5	/experiments/knapen_AOT/AOT_stimuli/rescaled_final/0011_fw.mp4	0.0	231.6498589515686	1.000119924545288
46	208.08134698867798	pulse	0	t		44.0	2.5	/experiments/knapen_AOT/AOT_stimuli/rescaled_final/0011_fw.mp4	0.0	232.6417670249939	
46	208.08955883979797	movie	1		244	44.0	2.5	/experiments/knapen_AOT/AOT_stimuli/rescaled_final/0011_fw.mp4	0.0	232.6499788761139	2.5086309909820557
46	209.6820249557495	pulse	1	t		44.0	2.5	/experiments/knapen_AOT/AOT_stimuli/rescaled_final/0011_fw.mp4	0.0	234.24244499206543	
46	210.59818983078003	fix_post	2		12	44.0	2.5	/experiments/knapen_AOT/AOT_stimuli/rescaled_final/0011_fw.mp4	0.0	235.15860986709595	0.09992218017578125
47	210.6981120109558	fix_pre	0		120	45.0	2.5	/experiments/knapen_AOT/AOT_stimuli/rescaled_final/1579_fw.mp4	0.0	235.25853204727173	1.0002720355987549
47	211.28173899650574	pulse	0	t		45.0	2.5	/experiments/knapen_AOT/AOT_stimuli/rescaled_final/1579_fw.mp4	0.0	235.84215903282166	
47	211.69838404655457	movie	1		243	45.0	2.5	/experiments/knapen_AOT/AOT_stimuli/rescaled_final/1579_fw.mp4	0.0	236.25880408287048	2.5004849433898926
47	212.88214302062988	pulse	1	t		45.0	2.5	/experiments/knapen_AOT/AOT_stimuli/rescaled_final/1579_fw.mp4	0.0	237.4425630569458	
47	214.19886898994446	fix_post	2		12	45.0	2.5	/experiments/knapen_AOT/AOT_stimuli/rescaled_final/1579_fw.mp4	0.0	238.75928902626038	0.09985995292663574
48	214.2987289428711	fix_pre	0		120	46.0	2.5	/experiments/knapen_AOT/AOT_stimuli/rescaled_final/0347_fw.mp4	0.0	238.859148979187	1.0002310276031494
48	214.48218703269958	pulse	0	t		46.0	2.5	/experiments/knapen_AOT/AOT_stimuli/rescaled_final/0347_fw.mp4	0.0	239.0426070690155	
48	215.29895997047424	movie	1		242	46.0	2.5	/experiments/knapen_AOT/AOT_stimuli/rescaled_final/0347_fw.mp4	0.0	239.85938000679016	2.5004799365997314
48	216.08250498771667	pulse	1	t		46.0	2.5	/experiments/knapen_AOT/AOT_stimuli/rescaled_final/0347_fw.mp4	0.0	240.6429250240326	
48	217.6827208995819	pulse	1	t		46.0	2.5	/experiments/knapen_AOT/AOT_stimuli/rescaled_final/0347_fw.mp4	0.0	242.24314093589783	
48	217.79943990707397	fix_post	2		12	46.0	2.5	/experiments/knapen_AOT/AOT_stimuli/rescaled_final/0347_fw.mp4	0.0	242.3598599433899	0.09992003440856934
49	217.89935994148254	fix_pre	0		119	47.0	2.5	/experiments/knapen_AOT/AOT_stimuli/rescaled_final/1024_rv.mp4	0.0	242.45977997779846	0.9918088912963867
49	218.89116883277893	movie	1		242	47.0	2.5	/experiments/knapen_AOT/AOT_stimuli/rescaled_final/1024_rv.mp4	0.0	243.45158886909485	2.500338077545166
49	219.28309893608093	pulse	1	t		47.0	2.5	/experiments/knapen_AOT/AOT_stimuli/rescaled_final/1024_rv.mp4	0.0	243.84351897239685	
49	220.88317894935608	pulse	1	t		47.0	2.5	/experiments/knapen_AOT/AOT_stimuli/rescaled_final/1024_rv.mp4	0.0	245.443598985672	
49	221.3915069103241	fix_post	2		12	47.0	2.5	/experiments/knapen_AOT/AOT_stimuli/rescaled_final/1024_rv.mp4	0.0	245.95192694664001	0.09999704360961914
50	221.49150395393372	fix_pre	0		120	48.0	2.5	blank	1.0	246.05192399024963	1.0001108646392822
50	222.47594285011292	pulse	0	t		48.0	2.5	blank	1.0	247.03636288642883	
50	222.491614818573	movie	1		301	48.0	2.5	blank	1.0	247.05203485488892	2.508620023727417
50	224.0762219429016	pulse	1	t		48.0	2.5	blank	1.0	248.63664197921753	
50	225.00023484230042	fix_post	2		12	48.0	2.5	blank	1.0	249.56065487861633	0.10015106201171875
51	225.10038590431213	fix_pre	0		120	49.0	2.5	/experiments/knapen_AOT/AOT_stimuli/rescaled_final/0237_fw.mp4	0.0	249.66080594062805	1.0000369548797607
51	225.67636489868164	pulse	0	t		49.0	2.5	/experiments/knapen_AOT/AOT_stimuli/rescaled_final/0237_fw.mp4	0.0	250.23678493499756	
51	226.1004228591919	movie	1		243	49.0	2.5	/experiments/knapen_AOT/AOT_stimuli/rescaled_final/0237_fw.mp4	0.0	250.6608428955078	2.5004429817199707
51	227.27988290786743	pulse	1	t		49.0	2.5	/experiments/knapen_AOT/AOT_stimuli/rescaled_final/0237_fw.mp4	0.0	251.84030294418335	
51	228.60086584091187	fix_post	2		12	49.0	2.5	/experiments/knapen_AOT/AOT_stimuli/rescaled_final/0237_fw.mp4	0.0	253.16128587722778	0.09997415542602539
52	228.7008399963379	fix_pre	0		120	50.0	2.5	/experiments/knapen_AOT/AOT_stimuli/rescaled_final/0211_rv.mp4	0.0	253.2612600326538	1.0001318454742432
52	228.87606501579285	pulse	0	t		50.0	2.5	/experiments/knapen_AOT/AOT_stimuli/rescaled_final/0211_rv.mp4	0.0	253.43648505210876	
52	229.70097184181213	movie	1		242	50.0	2.5	/experiments/knapen_AOT/AOT_stimuli/rescaled_final/0211_rv.mp4	0.0	254.26139187812805	2.4922070503234863
52	230.47617387771606	pulse	1	t		50.0	2.5	/experiments/knapen_AOT/AOT_stimuli/rescaled_final/0211_rv.mp4	0.0	255.03659391403198	
52	232.07641696929932	pulse	1	t		50.0	2.5	/experiments/knapen_AOT/AOT_stimuli/rescaled_final/0211_rv.mp4	0.0	256.63683700561523	
52	232.19317889213562	fix_post	2		13	50.0	2.5	/experiments/knapen_AOT/AOT_stimuli/rescaled_final/0211_rv.mp4	0.0	256.75359892845154	0.1081240177154541
53	232.30130290985107	fix_pre	0		119	51.0	2.5	/experiments/knapen_AOT/AOT_stimuli/rescaled_final/1616_rv.mp4	0.0	256.861722946167	0.9918410778045654
53	233.29314398765564	movie	1		242	51.0	2.5	/experiments/knapen_AOT/AOT_stimuli/rescaled_final/1616_rv.mp4	0.0	257.85356402397156	2.500417947769165
53	233.67803692817688	pulse	1	t		51.0	2.5	/experiments/knapen_AOT/AOT_stimuli/rescaled_final/1616_rv.mp4	0.0	258.2384569644928	
53	235.2770709991455	pulse	1	t		51.0	2.5	/experiments/knapen_AOT/AOT_stimuli/rescaled_final/1616_rv.mp4	0.0	259.8374910354614	
53	235.7935619354248	fix_post	2		12	51.0	2.5	/experiments/knapen_AOT/AOT_stimuli/rescaled_final/1616_rv.mp4	0.0	260.3539819717407	0.09995388984680176
54	235.8935158252716	fix_pre	0		119	52.0	2.5	/experiments/knapen_AOT/AOT_stimuli/rescaled_final/1947_fw.mp4	0.0	260.4539358615875	0.9917960166931152
54	236.8772578239441	pulse	0	t		52.0	2.5	/experiments/knapen_AOT/AOT_stimuli/rescaled_final/1947_fw.mp4	0.0	261.43767786026	
54	236.88531184196472	movie	1		244	52.0	2.5	/experiments/knapen_AOT/AOT_stimuli/rescaled_final/1947_fw.mp4	0.0	261.44573187828064	2.5087571144104004
54	238.47836089134216	pulse	1	t		52.0	2.5	/experiments/knapen_AOT/AOT_stimuli/rescaled_final/1947_fw.mp4	0.0	263.0387809276581	
54	239.39406895637512	fix_post	2		12	52.0	2.5	/experiments/knapen_AOT/AOT_stimuli/rescaled_final/1947_fw.mp4	0.0	263.95448899269104	0.10002899169921875
55	239.49409794807434	fix_pre	0		120	53.0	2.5	/experiments/knapen_AOT/AOT_stimuli/rescaled_final/1990_rv.mp4	0.0	264.05451798439026	1.000101089477539
55	240.07762503623962	pulse	0	t		53.0	2.5	/experiments/knapen_AOT/AOT_stimuli/rescaled_final/1990_rv.mp4	0.0	264.63804507255554	
55	240.49419903755188	movie	1		243	53.0	2.5	/experiments/knapen_AOT/AOT_stimuli/rescaled_final/1990_rv.mp4	0.0	265.0546190738678	2.5004968643188477
55	241.67797994613647	pulse	1	t		53.0	2.5	/experiments/knapen_AOT/AOT_stimuli/rescaled_final/1990_rv.mp4	0.0	266.2383999824524	
55	242.99469590187073	fix_post	2		12	53.0	2.5	/experiments/knapen_AOT/AOT_stimuli/rescaled_final/1990_rv.mp4	0.0	267.55511593818665	0.09990906715393066
56	243.09460496902466	fix_pre	0		120	54.0	2.5	/experiments/knapen_AOT/AOT_stimuli/rescaled_final/1529_rv.mp4	0.0	267.6550250053406	1.000143051147461
56	243.2782609462738	pulse	0	t		54.0	2.5	/experiments/knapen_AOT/AOT_stimuli/rescaled_final/1529_rv.mp4	0.0	267.8386809825897	
56	244.09474802017212	movie	1		242	54.0	2.5	/experiments/knapen_AOT/AOT_stimuli/rescaled_final/1529_rv.mp4	0.0	268.65516805648804	2.5005619525909424
56	244.87854886054993	pulse	1	t		54.0	2.5	/experiments/knapen_AOT/AOT_stimuli/rescaled_final/1529_rv.mp4	0.0	269.43896889686584	
56	246.47859001159668	pulse	1	t		54.0	2.5	/experiments/knapen_AOT/AOT_stimuli/rescaled_final/1529_rv.mp4	0.0	271.0390100479126	
56	246.59530997276306	fix_post	2		12	54.0	2.5	/experiments/knapen_AOT/AOT_stimuli/rescaled_final/1529_rv.mp4	0.0	271.155730009079	0.09987401962280273
57	246.69518399238586	fix_pre	0		120	55.0	2.5	blank	1.0	271.2556040287018	1.0000848770141602
57	247.69526886940002	movie	1		299	55.0	2.5	blank	1.0	272.25568890571594	2.4920411109924316
57	248.07895302772522	pulse	1	t		55.0	2.5	blank	1.0	272.63937306404114	
57	249.67918491363525	pulse	1	t		55.0	2.5	blank	1.0	274.2396049499512	
57	250.18730998039246	fix_post	2		12	55.0	2.5	blank	1.0	274.7477300167084	0.10012984275817871
58	250.28743982315063	fix_pre	0		120	56.0	2.5	/experiments/knapen_AOT/AOT_stimuli/rescaled_final/0533_rv.mp4	0.0	274.84785985946655	1.0000550746917725
58	251.27940201759338	pulse	0	t		56.0	2.5	/experiments/knapen_AOT/AOT_stimuli/rescaled_final/0533_rv.mp4	0.0	275.8398220539093	
58	251.2874948978424	movie	1		244	56.0	2.5	/experiments/knapen_AOT/AOT_stimuli/rescaled_final/0533_rv.mp4	0.0	275.8479149341583	2.5086820125579834
58	252.88399291038513	pulse	1	t		56.0	2.5	/experiments/knapen_AOT/AOT_stimuli/rescaled_final/0533_rv.mp4	0.0	277.44441294670105	
58	253.7961769104004	fix_post	2		12	56.0	2.5	/experiments/knapen_AOT/AOT_stimuli/rescaled_final/0533_rv.mp4	0.0	278.3565969467163	0.10004496574401855
59	253.8962218761444	fix_pre	0		120	57.0	2.5	/experiments/knapen_AOT/AOT_stimuli/rescaled_final/0714_rv.mp4	0.0	278.4566419124603	1.000128984451294
59	254.47989797592163	pulse	0	t		57.0	2.5	/experiments/knapen_AOT/AOT_stimuli/rescaled_final/0714_rv.mp4	0.0	279.04031801223755	
59	254.8963508605957	movie	1		243	57.0	2.5	/experiments/knapen_AOT/AOT_stimuli/rescaled_final/0714_rv.mp4	0.0	279.4567708969116	2.500462055206299
59	256.08027696609497	pulse	1	t		57.0	2.5	/experiments/knapen_AOT/AOT_stimuli/rescaled_final/0714_rv.mp4	0.0	280.6406970024109	
59	257.396812915802	fix_post	2		12	57.0	2.5	/experiments/knapen_AOT/AOT_stimuli/rescaled_final/0714_rv.mp4	0.0	281.9572329521179	0.09994196891784668
60	257.49675488471985	fix_pre	0		120	58.0	2.5	/experiments/knapen_AOT/AOT_stimuli/rescaled_final/0481_rv.mp4	0.0	282.05717492103577	1.0001680850982666
60	257.6803779602051	pulse	0	t		58.0	2.5	/experiments/knapen_AOT/AOT_stimuli/rescaled_final/0481_rv.mp4	0.0	282.240797996521	
60	258.4969229698181	movie	1		243	58.0	2.5	/experiments/knapen_AOT/AOT_stimuli/rescaled_final/0481_rv.mp4	0.0	283.05734300613403	2.5004940032958984
60	259.2805190086365	pulse	1	t		58.0	2.5	/experiments/knapen_AOT/AOT_stimuli/rescaled_final/0481_rv.mp4	0.0	283.8409390449524	
60	260.8806529045105	pulse	1	t		58.0	2.5	/experiments/knapen_AOT/AOT_stimuli/rescaled_final/0481_rv.mp4	0.0	285.4410729408264	
60	260.997416973114	fix_post	2		12	58.0	2.5	/experiments/knapen_AOT/AOT_stimuli/rescaled_final/0481_rv.mp4	0.0	285.55783700942993	0.09989690780639648
61	261.0973138809204	fix_pre	0		120	59.0	2.5	/experiments/knapen_AOT/AOT_stimuli/rescaled_final/1928_rv.mp4	0.0	285.6577339172363	1.000108003616333
61	262.09742188453674	movie	1		242	59.0	2.5	/experiments/knapen_AOT/AOT_stimuli/rescaled_final/1928_rv.mp4	0.0	286.65784192085266	2.492159128189087
61	262.4820330142975	pulse	1	t		59.0	2.5	/experiments/knapen_AOT/AOT_stimuli/rescaled_final/1928_rv.mp4	0.0	287.0424530506134	
61	264.0813088417053	pulse	1	t		59.0	2.5	/experiments/knapen_AOT/AOT_stimuli/rescaled_final/1928_rv.mp4	0.0	288.64172887802124	
61	264.58958101272583	fix_post	2		12	59.0	2.5	/experiments/knapen_AOT/AOT_stimuli/rescaled_final/1928_rv.mp4	0.0	289.15000104904175	0.09992003440856934
62	264.6895010471344	fix_pre	0		120	60.0	2.5	/experiments/knapen_AOT/AOT_stimuli/rescaled_final/0833_rv.mp4	0.0	289.2499210834503	1.0001108646392822
62	265.6814248561859	pulse	0	t		60.0	2.5	/experiments/knapen_AOT/AOT_stimuli/rescaled_final/0833_rv.mp4	0.0	290.24184489250183	
62	265.6896119117737	movie	1		243	60.0	2.5	/experiments/knapen_AOT/AOT_stimuli/rescaled_final/0833_rv.mp4	0.0	290.2500319480896	2.508744955062866
62	267.2823979854584	pulse	1	t		60.0	2.5	/experiments/knapen_AOT/AOT_stimuli/rescaled_final/0833_rv.mp4	0.0	291.8428180217743	
62	268.19835686683655	fix_post	2		12	60.0	2.5	/experiments/knapen_AOT/AOT_stimuli/rescaled_final/0833_rv.mp4	0.0	292.75877690315247	0.10001301765441895
63	268.29836988449097	fix_pre	0		120	61.0	2.5	/experiments/knapen_AOT/AOT_stimuli/rescaled_final/0009_fw.mp4	0.0	292.8587899208069	1.0001139640808105
63	268.88198685646057	pulse	0	t		61.0	2.5	/experiments/knapen_AOT/AOT_stimuli/rescaled_final/0009_fw.mp4	0.0	293.4424068927765	
63	269.2984838485718	movie	1		242	61.0	2.5	/experiments/knapen_AOT/AOT_stimuli/rescaled_final/0009_fw.mp4	0.0	293.8589038848877	2.500627040863037
63	270.4824228286743	pulse	1	t		61.0	2.5	/experiments/knapen_AOT/AOT_stimuli/rescaled_final/0009_fw.mp4	0.0	295.04284286499023	
63	271.7991108894348	fix_post	2		12	61.0	2.5	/experiments/knapen_AOT/AOT_stimuli/rescaled_final/0009_fw.mp4	0.0	296.35953092575073	0.09983611106872559
64	271.89894700050354	fix_pre	0		118	62.0	2.5	blank	1.0	296.45936703681946	1.0001239776611328
64	272.0825409889221	pulse	0	t		62.0	2.5	blank	1.0	296.64296102523804	
64	272.8990709781647	movie	1		300	62.0	2.5	blank	1.0	297.4594910144806	2.5003578662872314
64	273.6826319694519	pulse	1	t		62.0	2.5	blank	1.0	298.2430520057678	
64	275.27541995048523	pulse	1	t		62.0	2.5	blank	1.0	299.83583998680115	
64	275.3994288444519	fix_post	2		12	62.0	2.5	blank	1.0	299.9598488807678	0.09998917579650879
65	275.4994180202484	fix_pre	0		119	63.0	2.5	/experiments/knapen_AOT/AOT_stimuli/rescaled_final/0400_rv.mp4	0.0	300.05983805656433	0.9918467998504639
65	276.4912648200989	movie	1		244	63.0	2.5	/experiments/knapen_AOT/AOT_stimuli/rescaled_final/0400_rv.mp4	0.0	301.0516848564148	2.500354051589966
65	276.87552881240845	pulse	1	t		63.0	2.5	/experiments/knapen_AOT/AOT_stimuli/rescaled_final/0400_rv.mp4	0.0	301.43594884872437	
65	278.47602581977844	pulse	1	t		63.0	2.5	/experiments/knapen_AOT/AOT_stimuli/rescaled_final/0400_rv.mp4	0.0	303.03644585609436	
65	278.99161887168884	fix_post	2		12	63.0	2.5	/experiments/knapen_AOT/AOT_stimuli/rescaled_final/0400_rv.mp4	0.0	303.55203890800476	0.10004806518554688
66	279.0916669368744	fix_pre	0		120	64.0	2.5	/experiments/knapen_AOT/AOT_stimuli/rescaled_final/0734_rv.mp4	0.0	303.6520869731903	1.0001499652862549
66	280.0761978626251	pulse	0	t		64.0	2.5	/experiments/knapen_AOT/AOT_stimuli/rescaled_final/0734_rv.mp4	0.0	304.63661789894104	
66	280.09181690216064	movie	1		244	64.0	2.5	/experiments/knapen_AOT/AOT_stimuli/rescaled_final/0734_rv.mp4	0.0	304.65223693847656	2.508742094039917
66	281.67568492889404	pulse	1	t		64.0	2.5	/experiments/knapen_AOT/AOT_stimuli/rescaled_final/0734_rv.mp4	0.0	306.23610496520996	
66	282.60055899620056	fix_post	2		12	64.0	2.5	/experiments/knapen_AOT/AOT_stimuli/rescaled_final/0734_rv.mp4	0.0	307.1609790325165	0.09997296333312988
67	282.7005319595337	fix_pre	0		120	65.0	2.5	/experiments/knapen_AOT/AOT_stimuli/rescaled_final/0170_fw.mp4	0.0	307.2609519958496	1.0001270771026611
67	283.27573895454407	pulse	0	t		65.0	2.5	/experiments/knapen_AOT/AOT_stimuli/rescaled_final/0170_fw.mp4	0.0	307.83615899086	
67	283.70065903663635	movie	1		242	65.0	2.5	/experiments/knapen_AOT/AOT_stimuli/rescaled_final/0170_fw.mp4	0.0	308.26107907295227	2.500560998916626
67	284.8775498867035	pulse	1	t		65.0	2.5	/experiments/knapen_AOT/AOT_stimuli/rescaled_final/0170_fw.mp4	0.0	309.4379699230194	
67	286.201220035553	fix_post	2		12	65.0	2.5	/experiments/knapen_AOT/AOT_stimuli/rescaled_final/0170_fw.mp4	0.0	310.7616400718689	0.09987378120422363
68	286.3010938167572	fix_pre	0		120	66.0	2.5	/experiments/knapen_AOT/AOT_stimuli/rescaled_final/2117_fw.mp4	0.0	310.8615138530731	1.000136137008667
68	286.47634100914	pulse	0	t		66.0	2.5	/experiments/knapen_AOT/AOT_stimuli/rescaled_final/2117_fw.mp4	0.0	311.03676104545593	
68	287.30122995376587	movie	1		245	66.0	2.5	/experiments/knapen_AOT/AOT_stimuli/rescaled_final/2117_fw.mp4	0.0	311.8616499900818	2.5003509521484375
68	288.0765128135681	pulse	1	t		66.0	2.5	/experiments/knapen_AOT/AOT_stimuli/rescaled_final/2117_fw.mp4	0.0	312.63693284988403	
68	289.6767818927765	pulse	1	t		66.0	2.5	/experiments/knapen_AOT/AOT_stimuli/rescaled_final/2117_fw.mp4	0.0	314.2372019290924	
68	289.8015809059143	fix_post	2		12	66.0	2.5	/experiments/knapen_AOT/AOT_stimuli/rescaled_final/2117_fw.mp4	0.0	314.3620009422302	0.09999704360961914
69	289.9015779495239	fix_pre	0		119	67.0	2.5	/experiments/knapen_AOT/AOT_stimuli/rescaled_final/0438_fw.mp4	0.0	314.46199798583984	0.9918088912963867
69	290.8933868408203	movie	1		243	67.0	2.5	/experiments/knapen_AOT/AOT_stimuli/rescaled_final/0438_fw.mp4	0.0	315.45380687713623	2.500555992126465
69	291.277626991272	pulse	1	t		67.0	2.5	/experiments/knapen_AOT/AOT_stimuli/rescaled_final/0438_fw.mp4	0.0	315.8380470275879	
69	292.8772449493408	pulse	1	t		67.0	2.5	/experiments/knapen_AOT/AOT_stimuli/rescaled_final/0438_fw.mp4	0.0	317.43766498565674	
69	293.3939428329468	fix_post	2		12	67.0	2.5	/experiments/knapen_AOT/AOT_stimuli/rescaled_final/0438_fw.mp4	0.0	317.9543628692627	0.09984016418457031
70	293.49378299713135	fix_pre	0		119	68.0	2.5	blank	1.0	318.05420303344727	0.9919078350067139
70	294.477490901947	pulse	0	t		68.0	2.5	blank	1.0	319.03791093826294	
70	294.48569083213806	movie	1		301	68.0	2.5	blank	1.0	319.046110868454	2.5086331367492676
70	296.0776879787445	pulse	1	t		68.0	2.5	blank	1.0	320.6381080150604	
70	296.99432396888733	fix_post	2		12	68.0	2.5	blank	1.0	321.55474400520325	0.10002994537353516
71	297.09435391426086	fix_pre	0		120	69.0	2.5	/experiments/knapen_AOT/AOT_stimuli/rescaled_final/1471_fw.mp4	0.0	321.6547739505768	1.0001440048217773
71	297.6779589653015	pulse	0	t		69.0	2.5	/experiments/knapen_AOT/AOT_stimuli/rescaled_final/1471_fw.mp4	0.0	322.23837900161743	
71	298.09449791908264	movie	1		242	69.0	2.5	/experiments/knapen_AOT/AOT_stimuli/rescaled_final/1471_fw.mp4	0.0	322.65491795539856	2.5005381107330322
71	299.2782418727875	pulse	1	t		69.0	2.5	/experiments/knapen_AOT/AOT_stimuli/rescaled_final/1471_fw.mp4	0.0	323.8386619091034	
71	300.5950360298157	fix_post	2		12	69.0	2.5	/experiments/knapen_AOT/AOT_stimuli/rescaled_final/1471_fw.mp4	0.0	325.1554560661316	0.09983181953430176
72	300.69486784935	fix_pre	0		120	70.0	2.5	/experiments/knapen_AOT/AOT_stimuli/rescaled_final/0421_rv.mp4	0.0	325.2552878856659	1.0001931190490723
72	300.87839794158936	pulse	0	t		70.0	2.5	/experiments/knapen_AOT/AOT_stimuli/rescaled_final/0421_rv.mp4	0.0	325.4388179779053	
72	301.69506096839905	movie	1		242	70.0	2.5	/experiments/knapen_AOT/AOT_stimuli/rescaled_final/0421_rv.mp4	0.0	326.25548100471497	2.5004398822784424
72	302.47863602638245	pulse	1	t		70.0	2.5	/experiments/knapen_AOT/AOT_stimuli/rescaled_final/0421_rv.mp4	0.0	327.03905606269836	
72	304.0796139240265	pulse	1	t		70.0	2.5	/experiments/knapen_AOT/AOT_stimuli/rescaled_final/0421_rv.mp4	0.0	328.6400339603424	
72	304.1955008506775	fix_post	2		12	70.0	2.5	/experiments/knapen_AOT/AOT_stimuli/rescaled_final/0421_rv.mp4	0.0	328.7559208869934	0.09988617897033691
73	304.2953870296478	fix_pre	0		120	71.0	2.5	/experiments/knapen_AOT/AOT_stimuli/rescaled_final/1886_rv.mp4	0.0	328.85580706596375	1.0001659393310547
73	305.2955529689789	movie	1		241	71.0	2.5	/experiments/knapen_AOT/AOT_stimuli/rescaled_final/1886_rv.mp4	0.0	329.8559730052948	2.49224591255188
73	305.67995595932007	pulse	1	t		71.0	2.5	/experiments/knapen_AOT/AOT_stimuli/rescaled_final/1886_rv.mp4	0.0	330.240375995636	
73	307.27943181991577	pulse	1	t		71.0	2.5	/experiments/knapen_AOT/AOT_stimuli/rescaled_final/1886_rv.mp4	0.0	331.8398518562317	
73	307.78779888153076	fix_post	2		12	71.0	2.5	/experiments/knapen_AOT/AOT_stimuli/rescaled_final/1886_rv.mp4	0.0	332.3482189178467	0.09981894493103027
74	307.8876178264618	fix_pre	0		120	72.0	2.5	/experiments/knapen_AOT/AOT_stimuli/rescaled_final/1490_rv.mp4	0.0	332.4480378627777	1.0002171993255615
74	308.87957286834717	pulse	0	t		72.0	2.5	/experiments/knapen_AOT/AOT_stimuli/rescaled_final/1490_rv.mp4	0.0	333.4399929046631	
74	308.88783502578735	movie	1		243	72.0	2.5	/experiments/knapen_AOT/AOT_stimuli/rescaled_final/1490_rv.mp4	0.0	333.44825506210327	2.5087130069732666
74	310.4814119338989	pulse	1	t		72.0	2.5	/experiments/knapen_AOT/AOT_stimuli/rescaled_final/1490_rv.mp4	0.0	335.04183197021484	
74	311.3965480327606	fix_post	2		12	72.0	2.5	/experiments/knapen_AOT/AOT_stimuli/rescaled_final/1490_rv.mp4	0.0	335.95696806907654	0.09996891021728516
75	311.4965169429779	fix_pre	0		120	73.0	2.5	/experiments/knapen_AOT/AOT_stimuli/rescaled_final/1886_rv.mp4	0.0	336.0569369792938	1.0001509189605713
75	312.08010697364807	pulse	0	t		73.0	2.5	/experiments/knapen_AOT/AOT_stimuli/rescaled_final/1886_rv.mp4	0.0	336.640527009964	
75	312.4966678619385	movie	1		242	73.0	2.5	/experiments/knapen_AOT/AOT_stimuli/rescaled_final/1886_rv.mp4	0.0	337.0570878982544	2.5003559589385986
75	313.6764738559723	pulse	1	t		73.0	2.5	/experiments/knapen_AOT/AOT_stimuli/rescaled_final/1886_rv.mp4	0.0	338.2368938922882	
75	314.9970238208771	fix_post	2		12	73.0	2.5	/experiments/knapen_AOT/AOT_stimuli/rescaled_final/1886_rv.mp4	0.0	339.557443857193	0.1000211238861084
76	315.0970449447632	fix_pre	0		120	74.0	2.5	/experiments/knapen_AOT/AOT_stimuli/rescaled_final/0170_rv.mp4	0.0	339.6574649810791	1.0001020431518555
76	315.28054690361023	pulse	0	t		74.0	2.5	/experiments/knapen_AOT/AOT_stimuli/rescaled_final/0170_rv.mp4	0.0	339.84096693992615	
76	316.09714698791504	movie	1		242	74.0	2.5	/experiments/knapen_AOT/AOT_stimuli/rescaled_final/0170_rv.mp4	0.0	340.65756702423096	2.5005838871002197
76	316.88091588020325	pulse	1	t		74.0	2.5	/experiments/knapen_AOT/AOT_stimuli/rescaled_final/0170_rv.mp4	0.0	341.44133591651917	
76	318.4817190170288	pulse	1	t		74.0	2.5	/experiments/knapen_AOT/AOT_stimuli/rescaled_final/0170_rv.mp4	0.0	343.0421390533447	
76	318.59773087501526	fix_post	2		12	74.0	2.5	/experiments/knapen_AOT/AOT_stimuli/rescaled_final/0170_rv.mp4	0.0	343.1581509113312	0.09982609748840332
77	318.69755697250366	fix_pre	0		120	75.0	2.5	/experiments/knapen_AOT/AOT_stimuli/rescaled_final/0052_fw.mp4	0.0	343.2579770088196	1.0001499652862549
77	319.6977069377899	movie	1		243	75.0	2.5	/experiments/knapen_AOT/AOT_stimuli/rescaled_final/0052_fw.mp4	0.0	344.25812697410583	2.4920270442962646
77	320.08172082901	pulse	1	t		75.0	2.5	/experiments/knapen_AOT/AOT_stimuli/rescaled_final/0052_fw.mp4	0.0	344.6421408653259	
77	321.68148493766785	pulse	1	t		75.0	2.5	/experiments/knapen_AOT/AOT_stimuli/rescaled_final/0052_fw.mp4	0.0	346.24190497398376	
77	322.1897339820862	fix_post	2		12	75.0	2.5	/experiments/knapen_AOT/AOT_stimuli/rescaled_final/0052_fw.mp4	0.0	346.7501540184021	0.10002994537353516
78	322.2897639274597	fix_pre	0		120	76.0	2.5	blank	1.0	346.85018396377563	1.0001349449157715
78	323.28186988830566	pulse	0	t		76.0	2.5	blank	1.0	347.8422899246216	
78	323.2898988723755	movie	1		301	76.0	2.5	blank	1.0	347.8503189086914	2.5087270736694336
78	324.882159948349	pulse	1	t		76.0	2.5	blank	1.0	349.4425799846649	
78	325.7986259460449	fix_post	2		12	76.0	2.5	blank	1.0	350.35904598236084	0.10004901885986328
79	325.8986749649048	fix_pre	0		120	77.0	2.5	/experiments/knapen_AOT/AOT_stimuli/rescaled_final/1775_fw.mp4	0.0	350.4590950012207	1.000135898590088
79	326.4823429584503	pulse	0	t		77.0	2.5	/experiments/knapen_AOT/AOT_stimuli/rescaled_final/1775_fw.mp4	0.0	351.04276299476624	
79	326.8988108634949	movie	1		242	77.0	2.5	/experiments/knapen_AOT/AOT_stimuli/rescaled_final/1775_fw.mp4	0.0	351.4592308998108	2.5005550384521484
79	328.08254289627075	pulse	1	t		77.0	2.5	/experiments/knapen_AOT/AOT_stimuli/rescaled_final/1775_fw.mp4	0.0	352.64296293258667	
79	329.399365901947	fix_post	2		12	77.0	2.5	/experiments/knapen_AOT/AOT_stimuli/rescaled_final/1775_fw.mp4	0.0	353.95978593826294	0.099822998046875
80	329.4991888999939	fix_pre	0		120	78.0	2.5	/experiments/knapen_AOT/AOT_stimuli/rescaled_final/1158_rv.mp4	0.0	354.0596089363098	1.0001311302185059
80	329.6827688217163	pulse	0	t		78.0	2.5	/experiments/knapen_AOT/AOT_stimuli/rescaled_final/1158_rv.mp4	0.0	354.2431888580322	
80	330.4993200302124	movie	1		243	78.0	2.5	/experiments/knapen_AOT/AOT_stimuli/rescaled_final/1158_rv.mp4	0.0	355.0597400665283	2.500581979751587
80	331.2830288410187	pulse	1	t		78.0	2.5	/experiments/knapen_AOT/AOT_stimuli/rescaled_final/1158_rv.mp4	0.0	355.8434488773346	
80	332.88302397727966	pulse	1	t		78.0	2.5	/experiments/knapen_AOT/AOT_stimuli/rescaled_final/1158_rv.mp4	0.0	357.4434440135956	
80	332.999902009964	fix_post	2		10	78.0	2.5	/experiments/knapen_AOT/AOT_stimuli/rescaled_final/1158_rv.mp4	0.0	357.5603220462799	0.09984397888183594
81	333.0997459888458	fix_pre	0		120	79.0	2.5	/experiments/knapen_AOT/AOT_stimuli/rescaled_final/0889_fw.mp4	0.0	357.66016602516174	1.0001108646392822
81	334.0998568534851	movie	1		241	79.0	2.5	/experiments/knapen_AOT/AOT_stimuli/rescaled_final/0889_fw.mp4	0.0	358.660276889801	2.4922220706939697
81	334.48410987854004	pulse	1	t		79.0	2.5	/experiments/knapen_AOT/AOT_stimuli/rescaled_final/0889_fw.mp4	0.0	359.04452991485596	
81	336.07639384269714	pulse	1	t		79.0	2.5	/experiments/knapen_AOT/AOT_stimuli/rescaled_final/0889_fw.mp4	0.0	360.63681387901306	
81	336.5920789241791	fix_post	2		12	79.0	2.5	/experiments/knapen_AOT/AOT_stimuli/rescaled_final/0889_fw.mp4	0.0	361.152498960495	0.09990310668945312
82	336.69198203086853	fix_pre	0		120	80.0	2.5	/experiments/knapen_AOT/AOT_stimuli/rescaled_final/0717_fw.mp4	0.0	361.25240206718445	1.0000309944152832
82	337.6763210296631	pulse	0	t		80.0	2.5	/experiments/knapen_AOT/AOT_stimuli/rescaled_final/0717_fw.mp4	0.0	362.236741065979	
82	337.6920130252838	movie	1		245	80.0	2.5	/experiments/knapen_AOT/AOT_stimuli/rescaled_final/0717_fw.mp4	0.0	362.25243306159973	2.508739948272705
82	339.2846739292145	pulse	1	t		80.0	2.5	/experiments/knapen_AOT/AOT_stimuli/rescaled_final/0717_fw.mp4	0.0	363.8450939655304	
82	340.2007529735565	fix_post	2		12	80.0	2.5	/experiments/knapen_AOT/AOT_stimuli/rescaled_final/0717_fw.mp4	0.0	364.76117300987244	0.0999898910522461
83	340.30074286460876	fix_pre	0		120	81.0	2.5	/experiments/knapen_AOT/AOT_stimuli/rescaled_final/1579_rv.mp4	0.0	364.8611629009247	1.0001871585845947
83	340.8769600391388	pulse	0	t		81.0	2.5	/experiments/knapen_AOT/AOT_stimuli/rescaled_final/1579_rv.mp4	0.0	365.4373800754547	
83	341.30093002319336	movie	1		243	81.0	2.5	/experiments/knapen_AOT/AOT_stimuli/rescaled_final/1579_rv.mp4	0.0	365.8613500595093	2.5005269050598145
83	342.47696185112	pulse	1	t		81.0	2.5	/experiments/knapen_AOT/AOT_stimuli/rescaled_final/1579_rv.mp4	0.0	367.0373818874359	
83	343.8014569282532	fix_post	2		12	81.0	2.5	/experiments/knapen_AOT/AOT_stimuli/rescaled_final/1579_rv.mp4	0.0	368.3618769645691	0.09986591339111328
84	343.9013228416443	fix_pre	0		120	82.0	2.5	blank	1.0	368.4617428779602	1.0001699924468994
84	344.0764949321747	pulse	0	t		82.0	2.5	blank	1.0	368.6369149684906	
84	344.9014928340912	movie	1		300	82.0	2.5	blank	1.0	369.4619128704071	2.500361204147339
84	345.6768100261688	pulse	1	t		82.0	2.5	blank	1.0	370.23723006248474	
84	347.2771258354187	pulse	1	t		82.0	2.5	blank	1.0	371.8375458717346	
84	347.4018540382385	fix_post	2		12	82.0	2.5	blank	1.0	371.96227407455444	0.10001397132873535
85	347.50186800956726	fix_pre	0		120	83.0	2.5	/experiments/knapen_AOT/AOT_stimuli/rescaled_final/2043_fw.mp4	0.0	372.0622880458832	1.000140905380249
85	348.5020089149475	movie	1		242	83.0	2.5	/experiments/knapen_AOT/AOT_stimuli/rescaled_final/2043_fw.mp4	0.0	373.0624289512634	2.4922311305999756
85	348.87737584114075	pulse	1	t		83.0	2.5	/experiments/knapen_AOT/AOT_stimuli/rescaled_final/2043_fw.mp4	0.0	373.43779587745667	
85	350.4775788784027	pulse	1	t		83.0	2.5	/experiments/knapen_AOT/AOT_stimuli/rescaled_final/2043_fw.mp4	0.0	375.0379989147186	
85	350.9942400455475	fix_post	2		12	83.0	2.5	/experiments/knapen_AOT/AOT_stimuli/rescaled_final/2043_fw.mp4	0.0	375.5546600818634	0.09985995292663574
87	351.0940999984741	stim	0		1716					375.65452003479004	14.302265882492065
87	352.077702999115	pulse	0	t						376.6381230354309	
87	353.67802691459656	pulse	0	t						378.2384469509125	
87	355.2782609462738	pulse	0	t						379.8386809825897	
87	356.87847781181335	pulse	0	t						381.4388978481293	
87	358.4785759449005	pulse	0	t						383.03899598121643	
87	360.07892394065857	pulse	0	t						384.6393439769745	
87	361.6791958808899	pulse	0	t						386.2396159172058	
87	363.2794678211212	pulse	0	t						387.83988785743713	
87	364.87954902648926	pulse	0	t						389.4399690628052	
