trial_nr	onset	event_type	phase	response	nr_frames	movie_index	movie_duration	movie_file	blank	onset_abs	duration
0	0.15776395797729492	stim	0		98					20.993242025375366	0.8170299530029297
0	0.9668769836425781	response	0	space						21.80235505104065	
1	0.9747939109802246	stim	0		13285					21.810271978378296	110.7078971862793
1	111.6760618686676	pulse	0	t						132.51153993606567	
1	111.68269109725952	stim	1		1717					132.5181691646576	14.308243989944458
1	113.27451300621033	pulse	1	t						134.1099910736084	
1	114.87436389923096	pulse	1	t						135.70984196662903	
1	116.47440004348755	pulse	1	t						137.30987811088562	
1	118.07438397407532	pulse	1	t						138.9098620414734	
1	119.67442297935486	pulse	1	t						140.50990104675293	
1	121.27440190315247	pulse	1	t						142.10987997055054	
1	122.8744330406189	pulse	1	t						143.70991110801697	
1	124.47439908981323	pulse	1	t						145.3098771572113	
2	125.99093508720398	fix_pre	0		11	0.0	2.5	/experiments/AOT/AOT_stimuli/rescaled_final/1912_fw.mp4	0.0	146.82641315460205	0.09175896644592285
2	126.07441306114197	pulse	0	t		0.0	2.5	/experiments/AOT/AOT_stimuli/rescaled_final/1912_fw.mp4	0.0	146.90989112854004	
2	126.0826940536499	movie	1		244	0.0	2.5	/experiments/AOT/AOT_stimuli/rescaled_final/1912_fw.mp4	0.0	146.91817212104797	2.508222818374634
2	127.67580103874207	pulse	1	t		0.0	2.5	/experiments/AOT/AOT_stimuli/rescaled_final/1912_fw.mp4	0.0	148.51127910614014	
2	128.59091687202454	fix_post	2		12	0.0	2.5	/experiments/AOT/AOT_stimuli/rescaled_final/1912_fw.mp4	0.0	149.4263949394226	0.1000361442565918
3	128.69095301628113	fix_pre	0		120	1.0	2.5	/experiments/AOT/AOT_stimuli/rescaled_final/1224_fw.mp4	0.0	149.5264310836792	0.9999830722808838
3	129.2743899822235	pulse	0	t		1.0	2.5	/experiments/AOT/AOT_stimuli/rescaled_final/1224_fw.mp4	0.0	150.10986804962158	
3	129.690936088562	movie	1		244	1.0	2.5	/experiments/AOT/AOT_stimuli/rescaled_final/1224_fw.mp4	0.0	150.52641415596008	2.500053882598877
3	130.87454986572266	pulse	1	t		1.0	2.5	/experiments/AOT/AOT_stimuli/rescaled_final/1224_fw.mp4	0.0	151.71002793312073	
3	132.1909899711609	fix_post	2		12	1.0	2.5	/experiments/AOT/AOT_stimuli/rescaled_final/1224_fw.mp4	0.0	153.02646803855896	0.09990596771240234
4	132.2908959388733	fix_pre	0		120	2.0	2.5	/experiments/AOT/AOT_stimuli/rescaled_final/1224_rv.mp4	0.0	153.12637400627136	1.0000741481781006
4	132.47442603111267	pulse	0	t		2.0	2.5	/experiments/AOT/AOT_stimuli/rescaled_final/1224_rv.mp4	0.0	153.30990409851074	
4	133.2909700870514	movie	1		246	2.0	2.5	/experiments/AOT/AOT_stimuli/rescaled_final/1224_rv.mp4	0.0	154.12644815444946	2.499936819076538
4	134.07443499565125	pulse	1	t		2.0	2.5	/experiments/AOT/AOT_stimuli/rescaled_final/1224_rv.mp4	0.0	154.90991306304932	
4	135.67293405532837	pulse	1	t		2.0	2.5	/experiments/AOT/AOT_stimuli/rescaled_final/1224_rv.mp4	0.0	156.50841212272644	
4	135.79090690612793	fix_post	2		12	2.0	2.5	/experiments/AOT/AOT_stimuli/rescaled_final/1224_rv.mp4	0.0	156.626384973526	0.10003805160522461
5	135.89094495773315	fix_pre	0		120	3.0	2.5	/experiments/AOT/AOT_stimuli/rescaled_final/1248_fw.mp4	0.0	156.72642302513123	0.9999639987945557
5	136.8909089565277	movie	1		246	3.0	2.5	/experiments/AOT/AOT_stimuli/rescaled_final/1248_fw.mp4	0.0	157.72638702392578	2.4995250701904297
5	137.2742419242859	pulse	1	t		3.0	2.5	/experiments/AOT/AOT_stimuli/rescaled_final/1248_fw.mp4	0.0	158.10971999168396	
5	138.874342918396	pulse	1	t		3.0	2.5	/experiments/AOT/AOT_stimuli/rescaled_final/1248_fw.mp4	0.0	159.70982098579407	
5	139.39043402671814	fix_post	2		12	3.0	2.5	/experiments/AOT/AOT_stimuli/rescaled_final/1248_fw.mp4	0.0	160.2259120941162	0.10046887397766113
6	139.4909029006958	fix_pre	0		119	4.0	2.5	/experiments/AOT/AOT_stimuli/rescaled_final/1792_rv.mp4	0.0	160.32638096809387	0.9916200637817383
6	140.47435808181763	pulse	0	t		4.0	2.5	/experiments/AOT/AOT_stimuli/rescaled_final/1792_rv.mp4	0.0	161.3098361492157	
6	140.48252296447754	movie	1		247	4.0	2.5	/experiments/AOT/AOT_stimuli/rescaled_final/1792_rv.mp4	0.0	161.3180010318756	2.5082759857177734
6	142.07446599006653	pulse	1	t		4.0	2.5	/experiments/AOT/AOT_stimuli/rescaled_final/1792_rv.mp4	0.0	162.9099440574646	
6	142.9907989501953	fix_post	2		12	4.0	2.5	/experiments/AOT/AOT_stimuli/rescaled_final/1792_rv.mp4	0.0	163.82627701759338	0.10004305839538574
7	143.0908420085907	fix_pre	0		120	5.0	2.5	/experiments/AOT/AOT_stimuli/rescaled_final/1132_rv.mp4	0.0	163.92632007598877	1.0000638961791992
7	143.67436695098877	pulse	0	t		5.0	2.5	/experiments/AOT/AOT_stimuli/rescaled_final/1132_rv.mp4	0.0	164.50984501838684	
7	144.0909059047699	movie	1		245	5.0	2.5	/experiments/AOT/AOT_stimuli/rescaled_final/1132_rv.mp4	0.0	164.92638397216797	2.4999730587005615
7	145.27440190315247	pulse	1	t		5.0	2.5	/experiments/AOT/AOT_stimuli/rescaled_final/1132_rv.mp4	0.0	166.10987997055054	
7	146.59087896347046	fix_post	2		12	5.0	2.5	/experiments/AOT/AOT_stimuli/rescaled_final/1132_rv.mp4	0.0	167.42635703086853	0.10003495216369629
8	146.69091391563416	fix_pre	0		120	6.0	2.5	blank	1.0	167.52639198303223	0.9999339580535889
8	146.87438988685608	pulse	0	t		6.0	2.5	blank	1.0	167.70986795425415	
8	147.69084787368774	movie	1		300	6.0	2.5	blank	1.0	168.52632594108582	2.4999630451202393
8	148.47442388534546	pulse	1	t		6.0	2.5	blank	1.0	169.30990195274353	
8	150.07422590255737	pulse	1	t		6.0	2.5	blank	1.0	170.90970396995544	
8	150.19081091880798	fix_post	2		12	6.0	2.5	blank	1.0	171.02628898620605	0.10000801086425781
9	150.29081892967224	fix_pre	0		120	7.0	2.5	/experiments/AOT/AOT_stimuli/rescaled_final/1465_rv.mp4	0.0	171.1262969970703	1.000054121017456
9	151.2908730506897	movie	1		244	7.0	2.5	/experiments/AOT/AOT_stimuli/rescaled_final/1465_rv.mp4	0.0	172.12635111808777	2.500058889389038
9	151.67543697357178	pulse	1	t		7.0	2.5	/experiments/AOT/AOT_stimuli/rescaled_final/1465_rv.mp4	0.0	172.51091504096985	
9	153.2743399143219	pulse	1	t		7.0	2.5	/experiments/AOT/AOT_stimuli/rescaled_final/1465_rv.mp4	0.0	174.10981798171997	
9	153.79093194007874	fix_post	2		12	7.0	2.5	/experiments/AOT/AOT_stimuli/rescaled_final/1465_rv.mp4	0.0	174.6264100074768	0.09992313385009766
10	153.89085507392883	fix_pre	0		119	8.0	2.5	/experiments/AOT/AOT_stimuli/rescaled_final/1606_rv.mp4	0.0	174.7263331413269	0.9916729927062988
10	154.87436890602112	pulse	0	t		8.0	2.5	/experiments/AOT/AOT_stimuli/rescaled_final/1606_rv.mp4	0.0	175.7098469734192	
10	154.88252806663513	movie	1		244	8.0	2.5	/experiments/AOT/AOT_stimuli/rescaled_final/1606_rv.mp4	0.0	175.7180061340332	2.5081698894500732
10	156.47397089004517	pulse	1	t		8.0	2.5	/experiments/AOT/AOT_stimuli/rescaled_final/1606_rv.mp4	0.0	177.30944895744324	
10	157.3906979560852	fix_post	2		12	8.0	2.5	/experiments/AOT/AOT_stimuli/rescaled_final/1606_rv.mp4	0.0	178.22617602348328	0.10008001327514648
11	157.49077796936035	fix_pre	0		120	9.0	2.5	/experiments/AOT/AOT_stimuli/rescaled_final/0208_fw.mp4	0.0	178.32625603675842	1.000014066696167
11	158.07438898086548	pulse	0	t		9.0	2.5	/experiments/AOT/AOT_stimuli/rescaled_final/0208_fw.mp4	0.0	178.90986704826355	
11	158.49079203605652	movie	1		244	9.0	2.5	/experiments/AOT/AOT_stimuli/rescaled_final/0208_fw.mp4	0.0	179.3262701034546	2.499574899673462
11	159.67443108558655	pulse	1	t		9.0	2.5	/experiments/AOT/AOT_stimuli/rescaled_final/0208_fw.mp4	0.0	180.50990915298462	
11	160.99036693572998	fix_post	2		12	9.0	2.5	/experiments/AOT/AOT_stimuli/rescaled_final/0208_fw.mp4	0.0	181.82584500312805	0.10045099258422852
12	161.0908179283142	fix_pre	0		120	10.0	2.5	/experiments/AOT/AOT_stimuli/rescaled_final/1064_rv.mp4	0.0	181.92629599571228	0.9995620250701904
12	161.2738389968872	pulse	0	t		10.0	2.5	/experiments/AOT/AOT_stimuli/rescaled_final/1064_rv.mp4	0.0	182.10931706428528	
12	162.0903799533844	movie	1		246	10.0	2.5	/experiments/AOT/AOT_stimuli/rescaled_final/1064_rv.mp4	0.0	182.92585802078247	2.5002760887145996
12	162.87391304969788	pulse	1	t		10.0	2.5	/experiments/AOT/AOT_stimuli/rescaled_final/1064_rv.mp4	0.0	183.70939111709595	
12	164.47288298606873	pulse	1	t		10.0	2.5	/experiments/AOT/AOT_stimuli/rescaled_final/1064_rv.mp4	0.0	185.3083610534668	
12	164.590656042099	fix_post	2		12	10.0	2.5	/experiments/AOT/AOT_stimuli/rescaled_final/1064_rv.mp4	0.0	185.42613410949707	0.1000978946685791
13	164.69075393676758	fix_pre	0		120	11.0	2.5	/experiments/AOT/AOT_stimuli/rescaled_final/0322_rv.mp4	0.0	185.52623200416565	1.0000629425048828
13	165.69081687927246	movie	1		246	11.0	2.5	/experiments/AOT/AOT_stimuli/rescaled_final/0322_rv.mp4	0.0	186.52629494667053	2.4999279975891113
13	166.0740749835968	pulse	1	t		11.0	2.5	/experiments/AOT/AOT_stimuli/rescaled_final/0322_rv.mp4	0.0	186.90955305099487	
13	167.67418694496155	pulse	1	t		11.0	2.5	/experiments/AOT/AOT_stimuli/rescaled_final/0322_rv.mp4	0.0	188.50966501235962	
13	168.19074487686157	fix_post	2		12	11.0	2.5	/experiments/AOT/AOT_stimuli/rescaled_final/0322_rv.mp4	0.0	189.02622294425964	0.09995603561401367
14	168.2907009124756	fix_pre	0		119	12.0	2.5	blank	1.0	189.12617897987366	0.991724967956543
14	169.2742760181427	pulse	0	t		12.0	2.5	blank	1.0	190.10975408554077	
14	169.28242588043213	movie	1		301	12.0	2.5	blank	1.0	190.1179039478302	2.5082790851593018
14	170.87412405014038	pulse	1	t		12.0	2.5	blank	1.0	191.70960211753845	
14	171.79070496559143	fix_post	2		12	12.0	2.5	blank	1.0	192.6261830329895	0.09997105598449707
15	171.89067602157593	fix_pre	0		120	13.0	2.5	/experiments/AOT/AOT_stimuli/rescaled_final/0745_rv.mp4	0.0	192.726154088974	0.9999909400939941
15	172.47424793243408	pulse	0	t		13.0	2.5	/experiments/AOT/AOT_stimuli/rescaled_final/0745_rv.mp4	0.0	193.30972599983215	
15	172.89066696166992	movie	1		244	13.0	2.5	/experiments/AOT/AOT_stimuli/rescaled_final/0745_rv.mp4	0.0	193.726145029068	2.4999749660491943
15	174.07428193092346	pulse	1	t		13.0	2.5	/experiments/AOT/AOT_stimuli/rescaled_final/0745_rv.mp4	0.0	194.90975999832153	
15	175.39064192771912	fix_post	2		12	13.0	2.5	/experiments/AOT/AOT_stimuli/rescaled_final/0745_rv.mp4	0.0	196.2261199951172	0.10005593299865723
16	175.49069786071777	fix_pre	0		120	14.0	2.5	/experiments/AOT/AOT_stimuli/rescaled_final/0975_rv.mp4	0.0	196.32617592811584	0.9999251365661621
16	175.6741600036621	pulse	0	t		14.0	2.5	/experiments/AOT/AOT_stimuli/rescaled_final/0975_rv.mp4	0.0	196.50963807106018	
16	176.49062299728394	movie	1		244	14.0	2.5	/experiments/AOT/AOT_stimuli/rescaled_final/0975_rv.mp4	0.0	197.326101064682	2.5000410079956055
16	177.27425909042358	pulse	1	t		14.0	2.5	/experiments/AOT/AOT_stimuli/rescaled_final/0975_rv.mp4	0.0	198.10973715782166	
16	178.87261605262756	pulse	1	t		14.0	2.5	/experiments/AOT/AOT_stimuli/rescaled_final/0975_rv.mp4	0.0	199.70809412002563	
16	178.99066400527954	fix_post	2		12	14.0	2.5	/experiments/AOT/AOT_stimuli/rescaled_final/0975_rv.mp4	0.0	199.8261420726776	0.09999990463256836
17	179.0906639099121	fix_pre	0		120	15.0	2.5	/experiments/AOT/AOT_stimuli/rescaled_final/0833_rv.mp4	0.0	199.92614197731018	1.000049114227295
17	180.0907130241394	movie	1		244	15.0	2.5	/experiments/AOT/AOT_stimuli/rescaled_final/0833_rv.mp4	0.0	200.92619109153748	2.4995620250701904
17	180.47372102737427	pulse	1	t		15.0	2.5	/experiments/AOT/AOT_stimuli/rescaled_final/0833_rv.mp4	0.0	201.30919909477234	
17	182.07403802871704	pulse	1	t		15.0	2.5	/experiments/AOT/AOT_stimuli/rescaled_final/0833_rv.mp4	0.0	202.9095160961151	
17	182.5902750492096	fix_post	2		12	15.0	2.5	/experiments/AOT/AOT_stimuli/rescaled_final/0833_rv.mp4	0.0	203.42575311660767	0.10044384002685547
18	182.69071888923645	fix_pre	0		119	16.0	2.5	/experiments/AOT/AOT_stimuli/rescaled_final/0204_rv.mp4	0.0	203.52619695663452	0.9916031360626221
18	183.67407894134521	pulse	0	t		16.0	2.5	/experiments/AOT/AOT_stimuli/rescaled_final/0204_rv.mp4	0.0	204.5095570087433	
18	183.68232202529907	movie	1		246	16.0	2.5	/experiments/AOT/AOT_stimuli/rescaled_final/0204_rv.mp4	0.0	204.51780009269714	2.507909059524536
18	185.27382802963257	pulse	1	t		16.0	2.5	/experiments/AOT/AOT_stimuli/rescaled_final/0204_rv.mp4	0.0	206.10930609703064	
18	186.1902310848236	fix_post	2		12	16.0	2.5	/experiments/AOT/AOT_stimuli/rescaled_final/0204_rv.mp4	0.0	207.02570915222168	0.10040092468261719
19	186.29063200950623	fix_pre	0		120	17.0	2.5	/experiments/AOT/AOT_stimuli/rescaled_final/1074_rv.mp4	0.0	207.1261100769043	1.0000779628753662
19	186.8741478919983	pulse	0	t		17.0	2.5	/experiments/AOT/AOT_stimuli/rescaled_final/1074_rv.mp4	0.0	207.70962595939636	
19	187.2907099723816	movie	1		244	17.0	2.5	/experiments/AOT/AOT_stimuli/rescaled_final/1074_rv.mp4	0.0	208.12618803977966	2.4999289512634277
19	188.47426104545593	pulse	1	t		17.0	2.5	/experiments/AOT/AOT_stimuli/rescaled_final/1074_rv.mp4	0.0	209.309739112854	
19	189.79063892364502	fix_post	2		12	17.0	2.5	/experiments/AOT/AOT_stimuli/rescaled_final/1074_rv.mp4	0.0	210.6261169910431	0.09998607635498047
20	189.890625	fix_pre	0		120	18.0	2.5	/experiments/AOT/AOT_stimuli/rescaled_final/0352_rv.mp4	0.0	210.72610306739807	1.0000739097595215
20	190.07416796684265	pulse	0	t		18.0	2.5	/experiments/AOT/AOT_stimuli/rescaled_final/0352_rv.mp4	0.0	210.90964603424072	
20	190.89069890975952	movie	1		245	18.0	2.5	/experiments/AOT/AOT_stimuli/rescaled_final/0352_rv.mp4	0.0	211.7261769771576	2.499446153640747
20	191.67413306236267	pulse	1	t		18.0	2.5	/experiments/AOT/AOT_stimuli/rescaled_final/0352_rv.mp4	0.0	212.50961112976074	
20	193.27243995666504	pulse	1	t		18.0	2.5	/experiments/AOT/AOT_stimuli/rescaled_final/0352_rv.mp4	0.0	214.1079180240631	
20	193.39014506340027	fix_post	2		12	18.0	2.5	/experiments/AOT/AOT_stimuli/rescaled_final/0352_rv.mp4	0.0	214.22562313079834	0.10048794746398926
21	193.49063301086426	fix_pre	0		120	19.0	2.5	/experiments/AOT/AOT_stimuli/rescaled_final/1100_fw.mp4	0.0	214.32611107826233	1.0
21	194.49063301086426	movie	1		243	19.0	2.5	/experiments/AOT/AOT_stimuli/rescaled_final/1100_fw.mp4	0.0	215.32611107826233	2.500009059906006
21	194.87371587753296	pulse	1	t		19.0	2.5	/experiments/AOT/AOT_stimuli/rescaled_final/1100_fw.mp4	0.0	215.70919394493103	
21	196.47403287887573	pulse	1	t		19.0	2.5	/experiments/AOT/AOT_stimuli/rescaled_final/1100_fw.mp4	0.0	217.3095109462738	
21	196.99064207077026	fix_post	2		12	19.0	2.5	/experiments/AOT/AOT_stimuli/rescaled_final/1100_fw.mp4	0.0	217.82612013816833	0.0999460220336914
22	197.09058809280396	fix_pre	0		119	20.0	2.5	blank	1.0	217.92606616020203	0.9916219711303711
22	198.07404208183289	pulse	0	t		20.0	2.5	blank	1.0	218.90952014923096	
22	198.08221006393433	movie	1		301	20.0	2.5	blank	1.0	218.9176881313324	2.508363962173462
22	199.6740620136261	pulse	1	t		20.0	2.5	blank	1.0	220.50954008102417	
22	200.5905740261078	fix_post	2		12	20.0	2.5	blank	1.0	221.42605209350586	0.09997701644897461
23	200.69055104255676	fix_pre	0		120	21.0	2.5	/experiments/AOT/AOT_stimuli/rescaled_final/0879_rv.mp4	0.0	221.52602910995483	1.0000510215759277
23	201.27413201332092	pulse	0	t		21.0	2.5	/experiments/AOT/AOT_stimuli/rescaled_final/0879_rv.mp4	0.0	222.109610080719	
23	201.6906020641327	movie	1		247	21.0	2.5	/experiments/AOT/AOT_stimuli/rescaled_final/0879_rv.mp4	0.0	222.52608013153076	2.4999618530273438
23	202.874018907547	pulse	1	t		21.0	2.5	/experiments/AOT/AOT_stimuli/rescaled_final/0879_rv.mp4	0.0	223.70949697494507	
23	204.19056391716003	fix_post	2		12	21.0	2.5	/experiments/AOT/AOT_stimuli/rescaled_final/0879_rv.mp4	0.0	225.0260419845581	0.10000109672546387
24	204.2905650138855	fix_pre	0		120	22.0	2.5	/experiments/AOT/AOT_stimuli/rescaled_final/0643_fw.mp4	0.0	225.12604308128357	1.0000100135803223
24	204.47407007217407	pulse	0	t		22.0	2.5	/experiments/AOT/AOT_stimuli/rescaled_final/0643_fw.mp4	0.0	225.30954813957214	
24	205.29057502746582	movie	1		243	22.0	2.5	/experiments/AOT/AOT_stimuli/rescaled_final/0643_fw.mp4	0.0	226.1260530948639	2.4999818801879883
24	206.07406306266785	pulse	1	t		22.0	2.5	/experiments/AOT/AOT_stimuli/rescaled_final/0643_fw.mp4	0.0	226.90954113006592	
24	207.6723358631134	pulse	1	t		22.0	2.5	/experiments/AOT/AOT_stimuli/rescaled_final/0643_fw.mp4	0.0	228.50781393051147	
24	207.7905569076538	fix_post	2		12	22.0	2.5	/experiments/AOT/AOT_stimuli/rescaled_final/0643_fw.mp4	0.0	228.62603497505188	0.10004901885986328
25	207.89060592651367	fix_pre	0		120	23.0	2.5	/experiments/AOT/AOT_stimuli/rescaled_final/1117_fw.mp4	0.0	228.72608399391174	1.000014066696167
25	208.89061999320984	movie	1		244	23.0	2.5	/experiments/AOT/AOT_stimuli/rescaled_final/1117_fw.mp4	0.0	229.7260980606079	2.4999499320983887
25	209.27376294136047	pulse	1	t		23.0	2.5	/experiments/AOT/AOT_stimuli/rescaled_final/1117_fw.mp4	0.0	230.10924100875854	
25	210.87399792671204	pulse	1	t		23.0	2.5	/experiments/AOT/AOT_stimuli/rescaled_final/1117_fw.mp4	0.0	231.7094759941101	
25	211.39056992530823	fix_post	2		12	23.0	2.5	/experiments/AOT/AOT_stimuli/rescaled_final/1117_fw.mp4	0.0	232.2260479927063	0.09997916221618652
26	211.4905490875244	fix_pre	0		119	24.0	2.5	/experiments/AOT/AOT_stimuli/rescaled_final/0323_fw.mp4	0.0	232.32602715492249	0.9916567802429199
26	212.47405886650085	pulse	0	t		24.0	2.5	/experiments/AOT/AOT_stimuli/rescaled_final/0323_fw.mp4	0.0	233.30953693389893	
26	212.48220586776733	movie	1		244	24.0	2.5	/experiments/AOT/AOT_stimuli/rescaled_final/0323_fw.mp4	0.0	233.3176839351654	2.508024215698242
26	214.07353591918945	pulse	1	t		24.0	2.5	/experiments/AOT/AOT_stimuli/rescaled_final/0323_fw.mp4	0.0	234.90901398658752	
26	214.99023008346558	fix_post	2		12	24.0	2.5	/experiments/AOT/AOT_stimuli/rescaled_final/0323_fw.mp4	0.0	235.82570815086365	0.1003108024597168
27	215.0905408859253	fix_pre	0		120	25.0	2.5	/experiments/AOT/AOT_stimuli/rescaled_final/1099_rv.mp4	0.0	235.92601895332336	1.000020980834961
27	215.67406487464905	pulse	0	t		25.0	2.5	/experiments/AOT/AOT_stimuli/rescaled_final/1099_rv.mp4	0.0	236.50954294204712	
27	216.09056186676025	movie	1		245	25.0	2.5	/experiments/AOT/AOT_stimuli/rescaled_final/1099_rv.mp4	0.0	236.92603993415833	2.4995992183685303
27	217.27357602119446	pulse	1	t		25.0	2.5	/experiments/AOT/AOT_stimuli/rescaled_final/1099_rv.mp4	0.0	238.10905408859253	
27	218.59016108512878	fix_post	2		12	25.0	2.5	/experiments/AOT/AOT_stimuli/rescaled_final/1099_rv.mp4	0.0	239.42563915252686	0.0999908447265625
28	218.69015192985535	fix_pre	0		120	26.0	2.5	blank	1.0	239.52562999725342	1.0006279945373535
28	218.87417793273926	pulse	0	t		26.0	2.5	blank	1.0	239.70965600013733	
28	219.6907799243927	movie	1		300	26.0	2.5	blank	1.0	240.52625799179077	2.4997899532318115
28	220.47397708892822	pulse	1	t		26.0	2.5	blank	1.0	241.3094551563263	
28	222.0739929676056	pulse	1	t		26.0	2.5	blank	1.0	242.90947103500366	
28	222.1905698776245	fix_post	2		12	26.0	2.5	blank	1.0	243.02604794502258	0.09994006156921387
29	222.29050993919373	fix_pre	0		120	27.0	2.5	/experiments/AOT/AOT_stimuli/rescaled_final/0033_rv.mp4	0.0	243.1259880065918	1.0000250339508057
29	223.29053497314453	movie	1		248	27.0	2.5	/experiments/AOT/AOT_stimuli/rescaled_final/0033_rv.mp4	0.0	244.1260130405426	2.49992299079895
29	223.67348194122314	pulse	1	t		27.0	2.5	/experiments/AOT/AOT_stimuli/rescaled_final/0033_rv.mp4	0.0	244.50896000862122	
29	225.27393889427185	pulse	1	t		27.0	2.5	/experiments/AOT/AOT_stimuli/rescaled_final/0033_rv.mp4	0.0	246.10941696166992	
29	225.79045796394348	fix_post	2		12	27.0	2.5	/experiments/AOT/AOT_stimuli/rescaled_final/0033_rv.mp4	0.0	246.62593603134155	0.10003089904785156
30	225.89048886299133	fix_pre	0		119	28.0	2.5	/experiments/AOT/AOT_stimuli/rescaled_final/1090_fw.mp4	0.0	246.7259669303894	0.9916460514068604
30	226.87397694587708	pulse	0	t		28.0	2.5	/experiments/AOT/AOT_stimuli/rescaled_final/1090_fw.mp4	0.0	247.70945501327515	
30	226.8821349143982	movie	1		246	28.0	2.5	/experiments/AOT/AOT_stimuli/rescaled_final/1090_fw.mp4	0.0	247.71761298179626	2.507949113845825
30	228.47339487075806	pulse	1	t		28.0	2.5	/experiments/AOT/AOT_stimuli/rescaled_final/1090_fw.mp4	0.0	249.30887293815613	
30	229.39008402824402	fix_post	2		12	28.0	2.5	/experiments/AOT/AOT_stimuli/rescaled_final/1090_fw.mp4	0.0	250.2255620956421	0.10037684440612793
31	229.49046087265015	fix_pre	0		120	29.0	2.5	/experiments/AOT/AOT_stimuli/rescaled_final/0253_fw.mp4	0.0	250.32593894004822	1.0000371932983398
31	230.07389402389526	pulse	0	t		29.0	2.5	/experiments/AOT/AOT_stimuli/rescaled_final/0253_fw.mp4	0.0	250.90937209129333	
31	230.4904980659485	movie	1		246	29.0	2.5	/experiments/AOT/AOT_stimuli/rescaled_final/0253_fw.mp4	0.0	251.32597613334656	2.4995269775390625
31	231.67407488822937	pulse	1	t		29.0	2.5	/experiments/AOT/AOT_stimuli/rescaled_final/0253_fw.mp4	0.0	252.50955295562744	
31	232.99002504348755	fix_post	2		12	29.0	2.5	/experiments/AOT/AOT_stimuli/rescaled_final/0253_fw.mp4	0.0	253.82550311088562	0.1005549430847168
32	233.09057998657227	fix_pre	0		120	30.0	2.5	/experiments/AOT/AOT_stimuli/rescaled_final/1373_fw.mp4	0.0	253.92605805397034	0.9998369216918945
32	233.27408504486084	pulse	0	t		30.0	2.5	/experiments/AOT/AOT_stimuli/rescaled_final/1373_fw.mp4	0.0	254.1095631122589	
32	234.09041690826416	movie	1		244	30.0	2.5	/experiments/AOT/AOT_stimuli/rescaled_final/1373_fw.mp4	0.0	254.92589497566223	2.499567985534668
32	234.87393999099731	pulse	1	t		30.0	2.5	/experiments/AOT/AOT_stimuli/rescaled_final/1373_fw.mp4	0.0	255.70941805839539	
32	236.47220587730408	pulse	1	t		30.0	2.5	/experiments/AOT/AOT_stimuli/rescaled_final/1373_fw.mp4	0.0	257.30768394470215	
32	236.58998489379883	fix_post	2		12	30.0	2.5	/experiments/AOT/AOT_stimuli/rescaled_final/1373_fw.mp4	0.0	257.4254629611969	0.10041213035583496
33	236.69039702415466	fix_pre	0		120	31.0	2.5	/experiments/AOT/AOT_stimuli/rescaled_final/1728_rv.mp4	0.0	257.52587509155273	1.0000948905944824
33	237.69049191474915	movie	1		243	31.0	2.5	/experiments/AOT/AOT_stimuli/rescaled_final/1728_rv.mp4	0.0	258.5259699821472	2.500019073486328
33	238.0739688873291	pulse	1	t		31.0	2.5	/experiments/AOT/AOT_stimuli/rescaled_final/1728_rv.mp4	0.0	258.9094469547272	
33	239.67395901679993	pulse	1	t		31.0	2.5	/experiments/AOT/AOT_stimuli/rescaled_final/1728_rv.mp4	0.0	260.509437084198	
33	240.19051098823547	fix_post	2		12	31.0	2.5	/experiments/AOT/AOT_stimuli/rescaled_final/1728_rv.mp4	0.0	261.02598905563354	0.09992289543151855
34	240.290433883667	fix_pre	0		119	32.0	2.5	/experiments/AOT/AOT_stimuli/rescaled_final/1065_rv.mp4	0.0	261.12591195106506	0.9916441440582275
34	241.27396607398987	pulse	0	t		32.0	2.5	/experiments/AOT/AOT_stimuli/rescaled_final/1065_rv.mp4	0.0	262.10944414138794	
34	241.28207802772522	movie	1		244	32.0	2.5	/experiments/AOT/AOT_stimuli/rescaled_final/1065_rv.mp4	0.0	262.1175560951233	2.50791597366333
34	242.87407302856445	pulse	1	t		32.0	2.5	/experiments/AOT/AOT_stimuli/rescaled_final/1065_rv.mp4	0.0	263.7095510959625	
34	243.78999400138855	fix_post	2		12	32.0	2.5	/experiments/AOT/AOT_stimuli/rescaled_final/1065_rv.mp4	0.0	264.6254720687866	0.1003570556640625
35	243.8903510570526	fix_pre	0		120	33.0	2.5	/experiments/AOT/AOT_stimuli/rescaled_final/1912_rv.mp4	0.0	264.7258291244507	1.0000369548797607
35	244.47382497787476	pulse	0	t		33.0	2.5	/experiments/AOT/AOT_stimuli/rescaled_final/1912_rv.mp4	0.0	265.3093030452728	
35	244.89038801193237	movie	1		246	33.0	2.5	/experiments/AOT/AOT_stimuli/rescaled_final/1912_rv.mp4	0.0	265.72586607933044	2.4999520778656006
35	246.0738489627838	pulse	1	t		33.0	2.5	/experiments/AOT/AOT_stimuli/rescaled_final/1912_rv.mp4	0.0	266.9093270301819	
35	247.39034008979797	fix_post	2		12	33.0	2.5	/experiments/AOT/AOT_stimuli/rescaled_final/1912_rv.mp4	0.0	268.22581815719604	0.10007691383361816
36	247.4904170036316	fix_pre	0		120	34.0	2.5	/experiments/AOT/AOT_stimuli/rescaled_final/0208_rv.mp4	0.0	268.32589507102966	0.9999439716339111
36	247.67387700080872	pulse	0	t		34.0	2.5	/experiments/AOT/AOT_stimuli/rescaled_final/0208_rv.mp4	0.0	268.5093550682068	
36	248.4903609752655	movie	1		246	34.0	2.5	/experiments/AOT/AOT_stimuli/rescaled_final/0208_rv.mp4	0.0	269.3258390426636	2.49993896484375
36	249.2738070487976	pulse	1	t		34.0	2.5	/experiments/AOT/AOT_stimuli/rescaled_final/0208_rv.mp4	0.0	270.1092851161957	
36	250.87241291999817	pulse	1	t		34.0	2.5	/experiments/AOT/AOT_stimuli/rescaled_final/0208_rv.mp4	0.0	271.70789098739624	
36	250.99029994010925	fix_post	2		12	34.0	2.5	/experiments/AOT/AOT_stimuli/rescaled_final/0208_rv.mp4	0.0	271.8257780075073	0.10005903244018555
37	251.09035897254944	fix_pre	0		120	35.0	2.5	blank	1.0	271.9258370399475	1.0000638961791992
37	252.09042286872864	movie	1		300	35.0	2.5	blank	1.0	272.9259009361267	2.5000171661376953
37	252.47378587722778	pulse	1	t		35.0	2.5	blank	1.0	273.30926394462585	
37	254.0738558769226	pulse	1	t		35.0	2.5	blank	1.0	274.9093339443207	
37	254.59044003486633	fix_post	2		12	35.0	2.5	blank	1.0	275.4259181022644	0.09993696212768555
38	254.69037699699402	fix_pre	0		119	36.0	2.5	/experiments/AOT/AOT_stimuli/rescaled_final/1099_fw.mp4	0.0	275.5258550643921	0.991502046585083
38	255.67380905151367	pulse	0	t		36.0	2.5	/experiments/AOT/AOT_stimuli/rescaled_final/1099_fw.mp4	0.0	276.50928711891174	
38	255.6818790435791	movie	1		245	36.0	2.5	/experiments/AOT/AOT_stimuli/rescaled_final/1099_fw.mp4	0.0	276.5173571109772	2.5085129737854004
38	257.2735390663147	pulse	1	t		36.0	2.5	/experiments/AOT/AOT_stimuli/rescaled_final/1099_fw.mp4	0.0	278.10901713371277	
38	258.1903920173645	fix_post	2		12	36.0	2.5	/experiments/AOT/AOT_stimuli/rescaled_final/1099_fw.mp4	0.0	279.0258700847626	0.10000395774841309
39	258.2903959751129	fix_pre	0		120	37.0	2.5	/experiments/AOT/AOT_stimuli/rescaled_final/1368_fw.mp4	0.0	279.125874042511	0.9999399185180664
39	258.8738329410553	pulse	0	t		37.0	2.5	/experiments/AOT/AOT_stimuli/rescaled_final/1368_fw.mp4	0.0	279.70931100845337	
39	259.290335893631	movie	1		245	37.0	2.5	/experiments/AOT/AOT_stimuli/rescaled_final/1368_fw.mp4	0.0	280.12581396102905	2.4999711513519287
39	260.473886013031	pulse	1	t		37.0	2.5	/experiments/AOT/AOT_stimuli/rescaled_final/1368_fw.mp4	0.0	281.3093640804291	
39	261.7903070449829	fix_post	2		12	37.0	2.5	/experiments/AOT/AOT_stimuli/rescaled_final/1368_fw.mp4	0.0	282.625785112381	0.10005402565002441
40	261.89036107063293	fix_pre	0		120	38.0	2.5	/experiments/AOT/AOT_stimuli/rescaled_final/1064_fw.mp4	0.0	282.725839138031	1.0000169277191162
40	262.0737738609314	pulse	0	t		38.0	2.5	/experiments/AOT/AOT_stimuli/rescaled_final/1064_fw.mp4	0.0	282.90925192832947	
40	262.89037799835205	movie	1		244	38.0	2.5	/experiments/AOT/AOT_stimuli/rescaled_final/1064_fw.mp4	0.0	283.7258560657501	2.4999120235443115
40	263.673819065094	pulse	1	t		38.0	2.5	/experiments/AOT/AOT_stimuli/rescaled_final/1064_fw.mp4	0.0	284.50929713249207	
40	265.2725808620453	pulse	1	t		38.0	2.5	/experiments/AOT/AOT_stimuli/rescaled_final/1064_fw.mp4	0.0	286.10805892944336	
40	265.39029002189636	fix_post	2		12	38.0	2.5	/experiments/AOT/AOT_stimuli/rescaled_final/1064_fw.mp4	0.0	286.22576808929443	0.09995007514953613
41	265.4902400970459	fix_pre	0		120	39.0	2.5	/experiments/AOT/AOT_stimuli/rescaled_final/0614_fw.mp4	0.0	286.32571816444397	1.0000038146972656
41	266.49024391174316	movie	1		243	39.0	2.5	/experiments/AOT/AOT_stimuli/rescaled_final/0614_fw.mp4	0.0	287.32572197914124	2.4999661445617676
41	266.8734929561615	pulse	1	t		39.0	2.5	/experiments/AOT/AOT_stimuli/rescaled_final/0614_fw.mp4	0.0	287.70897102355957	
41	268.47383093833923	pulse	1	t		39.0	2.5	/experiments/AOT/AOT_stimuli/rescaled_final/0614_fw.mp4	0.0	289.3093090057373	
41	268.99021005630493	fix_post	2		12	39.0	2.5	/experiments/AOT/AOT_stimuli/rescaled_final/0614_fw.mp4	0.0	289.825688123703	0.10001182556152344
42	269.09022188186646	fix_pre	0		119	40.0	2.5	blank	1.0	289.9256999492645	0.9916319847106934
42	270.0737669467926	pulse	0	t		40.0	2.5	blank	1.0	290.9092450141907	
42	270.08185386657715	movie	1		301	40.0	2.5	blank	1.0	290.9173319339752	2.5084450244903564
42	271.6738290786743	pulse	1	t		40.0	2.5	blank	1.0	292.5093071460724	
42	272.5902988910675	fix_post	2		12	40.0	2.5	blank	1.0	293.4257769584656	0.09997797012329102
43	272.6902768611908	fix_pre	0		120	41.0	2.5	/experiments/AOT/AOT_stimuli/rescaled_final/0614_rv.mp4	0.0	293.52575492858887	0.9996061325073242
43	273.2737810611725	pulse	0	t		41.0	2.5	/experiments/AOT/AOT_stimuli/rescaled_final/0614_rv.mp4	0.0	294.10925912857056	
43	273.6898829936981	movie	1		246	41.0	2.5	/experiments/AOT/AOT_stimuli/rescaled_final/0614_rv.mp4	0.0	294.5253610610962	2.5006868839263916
43	274.87341594696045	pulse	1	t		41.0	2.5	/experiments/AOT/AOT_stimuli/rescaled_final/0614_rv.mp4	0.0	295.7088940143585	
43	276.1905698776245	fix_post	2		12	41.0	2.5	/experiments/AOT/AOT_stimuli/rescaled_final/0614_rv.mp4	0.0	297.0260479450226	0.09998798370361328
44	276.2905578613281	fix_pre	0		120	42.0	2.5	/experiments/AOT/AOT_stimuli/rescaled_final/1836_fw.mp4	0.0	297.1260359287262	0.9997780323028564
44	276.4737079143524	pulse	0	t		42.0	2.5	/experiments/AOT/AOT_stimuli/rescaled_final/1836_fw.mp4	0.0	297.3091859817505	
44	277.290335893631	movie	1		244	42.0	2.5	/experiments/AOT/AOT_stimuli/rescaled_final/1836_fw.mp4	0.0	298.12581396102905	2.4998559951782227
44	278.07364296913147	pulse	1	t		42.0	2.5	/experiments/AOT/AOT_stimuli/rescaled_final/1836_fw.mp4	0.0	298.90912103652954	
44	279.6737148761749	pulse	1	t		42.0	2.5	/experiments/AOT/AOT_stimuli/rescaled_final/1836_fw.mp4	0.0	300.509192943573	
44	279.7901918888092	fix_post	2		12	42.0	2.5	/experiments/AOT/AOT_stimuli/rescaled_final/1836_fw.mp4	0.0	300.6256699562073	0.1000361442565918
45	279.8902280330658	fix_pre	0		120	43.0	2.5	/experiments/AOT/AOT_stimuli/rescaled_final/0574_fw.mp4	0.0	300.72570610046387	0.9999208450317383
45	280.89014887809753	movie	1		246	43.0	2.5	/experiments/AOT/AOT_stimuli/rescaled_final/0574_fw.mp4	0.0	301.7256269454956	2.4999921321868896
45	281.27440094947815	pulse	1	t		43.0	2.5	/experiments/AOT/AOT_stimuli/rescaled_final/0574_fw.mp4	0.0	302.1098790168762	
45	282.87371802330017	pulse	1	t		43.0	2.5	/experiments/AOT/AOT_stimuli/rescaled_final/0574_fw.mp4	0.0	303.70919609069824	
45	283.3901410102844	fix_post	2		12	43.0	2.5	/experiments/AOT/AOT_stimuli/rescaled_final/0574_fw.mp4	0.0	304.2256190776825	0.10002303123474121
46	283.49016404151917	fix_pre	0		119	44.0	2.5	/experiments/AOT/AOT_stimuli/rescaled_final/2103_fw.mp4	0.0	304.32564210891724	0.9916419982910156
46	284.47365403175354	pulse	0	t		44.0	2.5	/experiments/AOT/AOT_stimuli/rescaled_final/2103_fw.mp4	0.0	305.3091320991516	
46	284.4818060398102	movie	1		243	44.0	2.5	/experiments/AOT/AOT_stimuli/rescaled_final/2103_fw.mp4	0.0	305.31728410720825	2.508314847946167
46	286.07475304603577	pulse	1	t		44.0	2.5	/experiments/AOT/AOT_stimuli/rescaled_final/2103_fw.mp4	0.0	306.91023111343384	
46	286.99012088775635	fix_post	2		12	44.0	2.5	/experiments/AOT/AOT_stimuli/rescaled_final/2103_fw.mp4	0.0	307.8255989551544	0.10010814666748047
47	287.0902290344238	fix_pre	0		120	45.0	2.5	/experiments/AOT/AOT_stimuli/rescaled_final/1483_fw.mp4	0.0	307.9257071018219	0.9999120235443115
47	287.6737370491028	pulse	0	t		45.0	2.5	/experiments/AOT/AOT_stimuli/rescaled_final/1483_fw.mp4	0.0	308.50921511650085	
47	288.09014105796814	movie	1		243	45.0	2.5	/experiments/AOT/AOT_stimuli/rescaled_final/1483_fw.mp4	0.0	308.9256191253662	2.500074863433838
47	289.2737820148468	pulse	1	t		45.0	2.5	/experiments/AOT/AOT_stimuli/rescaled_final/1483_fw.mp4	0.0	310.1092600822449	
47	290.590215921402	fix_post	2		12	45.0	2.5	/experiments/AOT/AOT_stimuli/rescaled_final/1483_fw.mp4	0.0	311.42569398880005	0.09993600845336914
48	290.69015192985535	fix_pre	0		120	46.0	2.5	/experiments/AOT/AOT_stimuli/rescaled_final/0541_fw.mp4	0.0	311.5256299972534	1.0000441074371338
48	290.8737258911133	pulse	0	t		46.0	2.5	/experiments/AOT/AOT_stimuli/rescaled_final/0541_fw.mp4	0.0	311.70920395851135	
48	291.6901960372925	movie	1		246	46.0	2.5	/experiments/AOT/AOT_stimuli/rescaled_final/0541_fw.mp4	0.0	312.52567410469055	2.499966859817505
48	292.4737648963928	pulse	1	t		46.0	2.5	/experiments/AOT/AOT_stimuli/rescaled_final/0541_fw.mp4	0.0	313.3092429637909	
48	294.0736050605774	pulse	1	t		46.0	2.5	/experiments/AOT/AOT_stimuli/rescaled_final/0541_fw.mp4	0.0	314.90908312797546	
48	294.19016289711	fix_post	2		12	46.0	2.5	/experiments/AOT/AOT_stimuli/rescaled_final/0541_fw.mp4	0.0	315.02564096450806	0.09998703002929688
49	294.2901499271393	fix_pre	0		120	47.0	2.5	blank	1.0	315.12562799453735	0.999549150466919
49	295.2896990776062	movie	1		300	47.0	2.5	blank	1.0	316.1251771450043	2.500363826751709
49	295.67369389533997	pulse	1	t		47.0	2.5	blank	1.0	316.50917196273804	
49	297.27368092536926	pulse	1	t		47.0	2.5	blank	1.0	318.10915899276733	
49	297.7900629043579	fix_post	2		12	47.0	2.5	blank	1.0	318.625540971756	0.10001516342163086
50	297.89007806777954	fix_pre	0		119	48.0	2.5	/experiments/AOT/AOT_stimuli/rescaled_final/1133_rv.mp4	0.0	318.7255561351776	0.9916868209838867
50	298.87366008758545	pulse	0	t		48.0	2.5	/experiments/AOT/AOT_stimuli/rescaled_final/1133_rv.mp4	0.0	319.7091381549835	
50	298.8817648887634	movie	1		246	48.0	2.5	/experiments/AOT/AOT_stimuli/rescaled_final/1133_rv.mp4	0.0	319.7172429561615	2.50789213180542
50	300.4733500480652	pulse	1	t		48.0	2.5	/experiments/AOT/AOT_stimuli/rescaled_final/1133_rv.mp4	0.0	321.30882811546326	
50	301.38965702056885	fix_post	2		12	48.0	2.5	/experiments/AOT/AOT_stimuli/rescaled_final/1133_rv.mp4	0.0	322.2251350879669	0.10046505928039551
51	301.49012207984924	fix_pre	0		120	49.0	2.5	/experiments/AOT/AOT_stimuli/rescaled_final/0352_fw.mp4	0.0	322.3256001472473	0.9999828338623047
51	302.0736229419708	pulse	0	t		49.0	2.5	/experiments/AOT/AOT_stimuli/rescaled_final/0352_fw.mp4	0.0	322.9091010093689	
51	302.49010491371155	movie	1		244	49.0	2.5	/experiments/AOT/AOT_stimuli/rescaled_final/0352_fw.mp4	0.0	323.3255829811096	2.5000159740448
51	303.6736660003662	pulse	1	t		49.0	2.5	/experiments/AOT/AOT_stimuli/rescaled_final/0352_fw.mp4	0.0	324.5091440677643	
51	304.99012088775635	fix_post	2		12	49.0	2.5	/experiments/AOT/AOT_stimuli/rescaled_final/0352_fw.mp4	0.0	325.8255989551544	0.09993910789489746
52	305.09005999565125	fix_pre	0		120	50.0	2.5	/experiments/AOT/AOT_stimuli/rescaled_final/1941_rv.mp4	0.0	325.9255380630493	1.0000190734863281
52	305.27359890937805	pulse	0	t		50.0	2.5	/experiments/AOT/AOT_stimuli/rescaled_final/1941_rv.mp4	0.0	326.1090769767761	
52	306.0900790691376	movie	1		243	50.0	2.5	/experiments/AOT/AOT_stimuli/rescaled_final/1941_rv.mp4	0.0	326.92555713653564	2.5000219345092773
52	306.873605966568	pulse	1	t		50.0	2.5	/experiments/AOT/AOT_stimuli/rescaled_final/1941_rv.mp4	0.0	327.70908403396606	
52	308.4719009399414	pulse	1	t		50.0	2.5	/experiments/AOT/AOT_stimuli/rescaled_final/1941_rv.mp4	0.0	329.3073790073395	
52	308.59010100364685	fix_post	2		12	50.0	2.5	/experiments/AOT/AOT_stimuli/rescaled_final/1941_rv.mp4	0.0	329.4255790710449	0.10007500648498535
53	308.69017601013184	fix_pre	0		120	51.0	2.5	/experiments/AOT/AOT_stimuli/rescaled_final/1994_fw.mp4	0.0	329.5256540775299	0.9998910427093506
53	309.6900670528412	movie	1		244	51.0	2.5	/experiments/AOT/AOT_stimuli/rescaled_final/1994_fw.mp4	0.0	330.52554512023926	2.5000009536743164
53	310.0736129283905	pulse	1	t		51.0	2.5	/experiments/AOT/AOT_stimuli/rescaled_final/1994_fw.mp4	0.0	330.9090909957886	
53	311.6735439300537	pulse	1	t		51.0	2.5	/experiments/AOT/AOT_stimuli/rescaled_final/1994_fw.mp4	0.0	332.5090219974518	
53	312.1900680065155	fix_post	2		12	51.0	2.5	/experiments/AOT/AOT_stimuli/rescaled_final/1994_fw.mp4	0.0	333.0255460739136	0.09992504119873047
54	312.28999304771423	fix_pre	0		119	52.0	2.5	/experiments/AOT/AOT_stimuli/rescaled_final/2177_fw.mp4	0.0	333.1254711151123	0.991786003112793
54	313.2737488746643	pulse	0	t		52.0	2.5	/experiments/AOT/AOT_stimuli/rescaled_final/2177_fw.mp4	0.0	334.1092269420624	
54	313.281779050827	movie	1		247	52.0	2.5	/experiments/AOT/AOT_stimuli/rescaled_final/2177_fw.mp4	0.0	334.1172571182251	2.507791042327881
54	314.8732900619507	pulse	1	t		52.0	2.5	/experiments/AOT/AOT_stimuli/rescaled_final/2177_fw.mp4	0.0	335.70876812934875	
54	315.7895700931549	fix_post	2		12	52.0	2.5	/experiments/AOT/AOT_stimuli/rescaled_final/2177_fw.mp4	0.0	336.625048160553	0.10049080848693848
55	315.89006090164185	fix_pre	0		120	53.0	2.5	/experiments/AOT/AOT_stimuli/rescaled_final/1677_rv.mp4	0.0	336.7255389690399	0.9999380111694336
55	316.4735369682312	pulse	0	t		53.0	2.5	/experiments/AOT/AOT_stimuli/rescaled_final/1677_rv.mp4	0.0	337.3090150356293	
55	316.8899989128113	movie	1		245	53.0	2.5	/experiments/AOT/AOT_stimuli/rescaled_final/1677_rv.mp4	0.0	337.72547698020935	2.5000569820404053
55	318.07372403144836	pulse	1	t		53.0	2.5	/experiments/AOT/AOT_stimuli/rescaled_final/1677_rv.mp4	0.0	338.90920209884644	
55	319.3900558948517	fix_post	2		12	53.0	2.5	/experiments/AOT/AOT_stimuli/rescaled_final/1677_rv.mp4	0.0	340.22553396224976	0.10007405281066895
56	319.49012994766235	fix_pre	0		120	54.0	2.5	/experiments/AOT/AOT_stimuli/rescaled_final/1996_rv.mp4	0.0	340.3256080150604	0.999946117401123
56	319.67347407341003	pulse	0	t		54.0	2.5	/experiments/AOT/AOT_stimuli/rescaled_final/1996_rv.mp4	0.0	340.5089521408081	
56	320.4900760650635	movie	1		243	54.0	2.5	/experiments/AOT/AOT_stimuli/rescaled_final/1996_rv.mp4	0.0	341.32555413246155	2.4999330043792725
56	321.27347707748413	pulse	1	t		54.0	2.5	/experiments/AOT/AOT_stimuli/rescaled_final/1996_rv.mp4	0.0	342.1089551448822	
56	322.88189005851746	pulse	1	t		54.0	2.5	/experiments/AOT/AOT_stimuli/rescaled_final/1996_rv.mp4	0.0	343.7173681259155	
56	322.99000906944275	fix_post	2		12	54.0	2.5	/experiments/AOT/AOT_stimuli/rescaled_final/1996_rv.mp4	0.0	343.8254871368408	0.0999598503112793
57	323.089968919754	fix_pre	0		120	55.0	2.5	/experiments/AOT/AOT_stimuli/rescaled_final/1994_rv.mp4	0.0	343.9254469871521	1.0000860691070557
57	324.0900549888611	movie	1		244	55.0	2.5	/experiments/AOT/AOT_stimuli/rescaled_final/1994_rv.mp4	0.0	344.92553305625916	2.4999399185180664
57	324.4730339050293	pulse	1	t		55.0	2.5	/experiments/AOT/AOT_stimuli/rescaled_final/1994_rv.mp4	0.0	345.30851197242737	
57	326.07363390922546	pulse	1	t		55.0	2.5	/experiments/AOT/AOT_stimuli/rescaled_final/1994_rv.mp4	0.0	346.90911197662354	
57	326.58999490737915	fix_post	2		12	55.0	2.5	/experiments/AOT/AOT_stimuli/rescaled_final/1994_rv.mp4	0.0	347.4254729747772	0.10000300407409668
58	326.68999791145325	fix_pre	0		119	56.0	2.5	blank	1.0	347.5254759788513	0.9916770458221436
58	327.67360496520996	pulse	0	t		56.0	2.5	blank	1.0	348.50908303260803	
58	327.6816749572754	movie	1		301	56.0	2.5	blank	1.0	348.51715302467346	2.5079519748687744
58	329.2730529308319	pulse	1	t		56.0	2.5	blank	1.0	350.10853099823	
58	330.18962693214417	fix_post	2		12	56.0	2.5	blank	1.0	351.02510499954224	0.10006999969482422
59	330.289696931839	fix_pre	0		120	57.0	2.5	/experiments/AOT/AOT_stimuli/rescaled_final/0852_rv.mp4	0.0	351.12517499923706	1.0001399517059326
59	330.8732659816742	pulse	0	t		57.0	2.5	/experiments/AOT/AOT_stimuli/rescaled_final/0852_rv.mp4	0.0	351.70874404907227	
59	331.2898368835449	movie	1		243	57.0	2.5	/experiments/AOT/AOT_stimuli/rescaled_final/0852_rv.mp4	0.0	352.125314950943	2.500127077102661
59	332.47352290153503	pulse	1	t		57.0	2.5	/experiments/AOT/AOT_stimuli/rescaled_final/0852_rv.mp4	0.0	353.3090009689331	
59	333.7899639606476	fix_post	2		12	57.0	2.5	/experiments/AOT/AOT_stimuli/rescaled_final/0852_rv.mp4	0.0	354.62544202804565	0.10002994537353516
60	333.8899939060211	fix_pre	0		120	58.0	2.5	/experiments/AOT/AOT_stimuli/rescaled_final/0377_fw.mp4	0.0	354.7254719734192	0.99993896484375
60	334.0734770298004	pulse	0	t		58.0	2.5	/experiments/AOT/AOT_stimuli/rescaled_final/0377_fw.mp4	0.0	354.9089550971985	
60	334.88993287086487	movie	1		246	58.0	2.5	/experiments/AOT/AOT_stimuli/rescaled_final/0377_fw.mp4	0.0	355.72541093826294	2.499584197998047
60	335.673476934433	pulse	1	t		58.0	2.5	/experiments/AOT/AOT_stimuli/rescaled_final/0377_fw.mp4	0.0	356.50895500183105	
60	337.27180004119873	pulse	1	t		58.0	2.5	/experiments/AOT/AOT_stimuli/rescaled_final/0377_fw.mp4	0.0	358.1072781085968	
60	337.3895170688629	fix_post	2		12	58.0	2.5	/experiments/AOT/AOT_stimuli/rescaled_final/0377_fw.mp4	0.0	358.224995136261	0.10036993026733398
61	337.48988699913025	fix_pre	0		120	59.0	2.5	/experiments/AOT/AOT_stimuli/rescaled_final/1535_fw.mp4	0.0	358.3253650665283	1.0000319480895996
61	338.48991894721985	movie	1		245	59.0	2.5	/experiments/AOT/AOT_stimuli/rescaled_final/1535_fw.mp4	0.0	359.3253970146179	2.4999940395355225
61	338.87467789649963	pulse	1	t		59.0	2.5	/experiments/AOT/AOT_stimuli/rescaled_final/1535_fw.mp4	0.0	359.7101559638977	
61	340.4734408855438	pulse	1	t		59.0	2.5	/experiments/AOT/AOT_stimuli/rescaled_final/1535_fw.mp4	0.0	361.3089189529419	
61	340.98991298675537	fix_post	2		12	59.0	2.5	/experiments/AOT/AOT_stimuli/rescaled_final/1535_fw.mp4	0.0	361.82539105415344	0.09996700286865234
62	341.089879989624	fix_pre	0		119	60.0	2.5	/experiments/AOT/AOT_stimuli/rescaled_final/1500_fw.mp4	0.0	361.9253580570221	0.9916970729827881
62	342.0733199119568	pulse	0	t		60.0	2.5	/experiments/AOT/AOT_stimuli/rescaled_final/1500_fw.mp4	0.0	362.90879797935486	
62	342.0815770626068	movie	1		247	60.0	2.5	/experiments/AOT/AOT_stimuli/rescaled_final/1500_fw.mp4	0.0	362.9170551300049	2.508316993713379
62	343.6730098724365	pulse	1	t		60.0	2.5	/experiments/AOT/AOT_stimuli/rescaled_final/1500_fw.mp4	0.0	364.5084879398346	
62	344.5898940563202	fix_post	2		12	60.0	2.5	/experiments/AOT/AOT_stimuli/rescaled_final/1500_fw.mp4	0.0	365.42537212371826	0.09994101524353027
63	344.6898350715637	fix_pre	0		120	61.0	2.5	blank	1.0	365.5253131389618	1.0000908374786377
63	345.2746539115906	pulse	0	t		61.0	2.5	blank	1.0	366.11013197898865	
63	345.68992590904236	movie	1		300	61.0	2.5	blank	1.0	366.52540397644043	2.4999380111694336
63	346.873370885849	pulse	1	t		61.0	2.5	blank	1.0	367.70884895324707	
63	348.1898639202118	fix_post	2		12	61.0	2.5	blank	1.0	369.02534198760986	0.0999901294708252
64	348.2898540496826	fix_pre	0		120	62.0	2.5	/experiments/AOT/AOT_stimuli/rescaled_final/0039_rv.mp4	0.0	369.1253321170807	1.000020980834961
64	348.47338795661926	pulse	0	t		62.0	2.5	/experiments/AOT/AOT_stimuli/rescaled_final/0039_rv.mp4	0.0	369.30886602401733	
64	349.2898750305176	movie	1		244	62.0	2.5	/experiments/AOT/AOT_stimuli/rescaled_final/0039_rv.mp4	0.0	370.12535309791565	2.4999518394470215
64	350.07338190078735	pulse	1	t		62.0	2.5	/experiments/AOT/AOT_stimuli/rescaled_final/0039_rv.mp4	0.0	370.9088599681854	
64	351.6729040145874	pulse	1	t		62.0	2.5	/experiments/AOT/AOT_stimuli/rescaled_final/0039_rv.mp4	0.0	372.5083820819855	
64	351.7898268699646	fix_post	2		12	62.0	2.5	/experiments/AOT/AOT_stimuli/rescaled_final/0039_rv.mp4	0.0	372.62530493736267	0.1000521183013916
65	351.889878988266	fix_pre	0		120	63.0	2.5	/experiments/AOT/AOT_stimuli/rescaled_final/1419_fw.mp4	0.0	372.72535705566406	1.0000219345092773
65	352.88990092277527	movie	1		245	63.0	2.5	/experiments/AOT/AOT_stimuli/rescaled_final/1419_fw.mp4	0.0	373.72537899017334	2.499882936477661
65	353.2744300365448	pulse	1	t		63.0	2.5	/experiments/AOT/AOT_stimuli/rescaled_final/1419_fw.mp4	0.0	374.10990810394287	
65	354.87331986427307	pulse	1	t		63.0	2.5	/experiments/AOT/AOT_stimuli/rescaled_final/1419_fw.mp4	0.0	375.70879793167114	
65	355.38978385925293	fix_post	2		12	63.0	2.5	/experiments/AOT/AOT_stimuli/rescaled_final/1419_fw.mp4	0.0	376.225261926651	0.09998917579650879
66	355.48977303504944	fix_pre	0		119	64.0	2.5	/experiments/AOT/AOT_stimuli/rescaled_final/2121_fw.mp4	0.0	376.3252511024475	0.9916880130767822
66	356.473228931427	pulse	0	t		64.0	2.5	/experiments/AOT/AOT_stimuli/rescaled_final/2121_fw.mp4	0.0	377.3087069988251	
66	356.4814610481262	movie	1		246	64.0	2.5	/experiments/AOT/AOT_stimuli/rescaled_final/2121_fw.mp4	0.0	377.3169391155243	2.50836181640625
66	358.07463002204895	pulse	1	t		64.0	2.5	/experiments/AOT/AOT_stimuli/rescaled_final/2121_fw.mp4	0.0	378.910108089447	
66	358.98982286453247	fix_post	2		12	64.0	2.5	/experiments/AOT/AOT_stimuli/rescaled_final/2121_fw.mp4	0.0	379.82530093193054	0.10000920295715332
67	359.0898320674896	fix_pre	0		120	65.0	2.5	/experiments/AOT/AOT_stimuli/rescaled_final/1912_fw.mp4	0.0	379.9253101348877	0.9999790191650391
67	359.67335391044617	pulse	0	t		65.0	2.5	/experiments/AOT/AOT_stimuli/rescaled_final/1912_fw.mp4	0.0	380.50883197784424	
67	360.08981108665466	movie	1		248	65.0	2.5	/experiments/AOT/AOT_stimuli/rescaled_final/1912_fw.mp4	0.0	380.92528915405273	2.5000038146972656
67	361.2734520435333	pulse	1	t		65.0	2.5	/experiments/AOT/AOT_stimuli/rescaled_final/1912_fw.mp4	0.0	382.1089301109314	
67	362.58981490135193	fix_post	2		12	65.0	2.5	/experiments/AOT/AOT_stimuli/rescaled_final/1912_fw.mp4	0.0	383.42529296875	0.09995412826538086
68	362.6897690296173	fix_pre	0		120	66.0	2.5	/experiments/AOT/AOT_stimuli/rescaled_final/2121_fw.mp4	0.0	383.5252470970154	1.000114917755127
68	362.8732850551605	pulse	0	t		66.0	2.5	/experiments/AOT/AOT_stimuli/rescaled_final/2121_fw.mp4	0.0	383.7087631225586	
68	363.68988394737244	movie	1		244	66.0	2.5	/experiments/AOT/AOT_stimuli/rescaled_final/2121_fw.mp4	0.0	384.5253620147705	2.4998250007629395
68	364.47338604927063	pulse	1	t		66.0	2.5	/experiments/AOT/AOT_stimuli/rescaled_final/2121_fw.mp4	0.0	385.3088641166687	
68	366.07177901268005	pulse	1	t		66.0	2.5	/experiments/AOT/AOT_stimuli/rescaled_final/2121_fw.mp4	0.0	386.9072570800781	
68	366.1897089481354	fix_post	2		12	66.0	2.5	/experiments/AOT/AOT_stimuli/rescaled_final/2121_fw.mp4	0.0	387.02518701553345	0.10012507438659668
69	366.289834022522	fix_pre	0		120	67.0	2.5	/experiments/AOT/AOT_stimuli/rescaled_final/2055_fw.mp4	0.0	387.12531208992004	0.9999690055847168
69	367.2898030281067	movie	1		246	67.0	2.5	/experiments/AOT/AOT_stimuli/rescaled_final/2055_fw.mp4	0.0	388.12528109550476	2.4999959468841553
69	367.67311096191406	pulse	1	t		67.0	2.5	/experiments/AOT/AOT_stimuli/rescaled_final/2055_fw.mp4	0.0	388.50858902931213	
69	369.27333092689514	pulse	1	t		67.0	2.5	/experiments/AOT/AOT_stimuli/rescaled_final/2055_fw.mp4	0.0	390.1088089942932	
69	369.78979897499084	fix_post	2		12	67.0	2.5	/experiments/AOT/AOT_stimuli/rescaled_final/2055_fw.mp4	0.0	390.6252770423889	0.09997296333312988
70	369.889771938324	fix_pre	0		119	68.0	2.5	/experiments/AOT/AOT_stimuli/rescaled_final/0410_rv.mp4	0.0	390.72525000572205	0.9915981292724609
70	370.8732039928436	pulse	0	t		68.0	2.5	/experiments/AOT/AOT_stimuli/rescaled_final/0410_rv.mp4	0.0	391.7086820602417	
70	370.88137006759644	movie	1		246	68.0	2.5	/experiments/AOT/AOT_stimuli/rescaled_final/0410_rv.mp4	0.0	391.7168481349945	2.508527994155884
70	372.4730579853058	pulse	1	t		68.0	2.5	/experiments/AOT/AOT_stimuli/rescaled_final/0410_rv.mp4	0.0	393.30853605270386	
70	373.3898980617523	fix_post	2		12	68.0	2.5	/experiments/AOT/AOT_stimuli/rescaled_final/0410_rv.mp4	0.0	394.2253761291504	0.09991884231567383
71	373.489816904068	fix_pre	0		120	69.0	2.5	blank	1.0	394.32529497146606	0.9999971389770508
71	374.0732250213623	pulse	0	t		69.0	2.5	blank	1.0	394.9087030887604	
71	374.48981404304504	movie	1		300	69.0	2.5	blank	1.0	395.3252921104431	2.499969005584717
71	375.67322301864624	pulse	1	t		69.0	2.5	blank	1.0	396.5087010860443	
71	376.98978304862976	fix_post	2		12	69.0	2.5	blank	1.0	397.82526111602783	0.10005688667297363
72	377.08983993530273	fix_pre	0		120	70.0	2.5	/experiments/AOT/AOT_stimuli/rescaled_final/1796_fw.mp4	0.0	397.9253180027008	0.9999370574951172
72	377.27324986457825	pulse	0	t		70.0	2.5	/experiments/AOT/AOT_stimuli/rescaled_final/1796_fw.mp4	0.0	398.1087279319763	
72	378.08977699279785	movie	1		244	70.0	2.5	/experiments/AOT/AOT_stimuli/rescaled_final/1796_fw.mp4	0.0	398.9252550601959	2.499994993209839
72	378.87321496009827	pulse	1	t		70.0	2.5	/experiments/AOT/AOT_stimuli/rescaled_final/1796_fw.mp4	0.0	399.70869302749634	
72	380.47328305244446	pulse	1	t		70.0	2.5	/experiments/AOT/AOT_stimuli/rescaled_final/1796_fw.mp4	0.0	401.30876111984253	
72	380.5897719860077	fix_post	2		12	70.0	2.5	/experiments/AOT/AOT_stimuli/rescaled_final/1796_fw.mp4	0.0	401.42525005340576	0.09995102882385254
73	380.68972301483154	fix_pre	0		120	71.0	2.5	/experiments/AOT/AOT_stimuli/rescaled_final/2121_rv.mp4	0.0	401.5252010822296	1.0000360012054443
73	381.689759016037	movie	1		243	71.0	2.5	/experiments/AOT/AOT_stimuli/rescaled_final/2121_rv.mp4	0.0	402.52523708343506	2.500009059906006
73	382.07429599761963	pulse	1	t		71.0	2.5	/experiments/AOT/AOT_stimuli/rescaled_final/2121_rv.mp4	0.0	402.9097740650177	
73	383.67317390441895	pulse	1	t		71.0	2.5	/experiments/AOT/AOT_stimuli/rescaled_final/2121_rv.mp4	0.0	404.508651971817	
73	384.189768075943	fix_post	2		12	71.0	2.5	/experiments/AOT/AOT_stimuli/rescaled_final/2121_rv.mp4	0.0	405.02524614334106	0.10000896453857422
74	384.28977704048157	fix_pre	0		119	72.0	2.5	/experiments/AOT/AOT_stimuli/rescaled_final/0924_fw.mp4	0.0	405.12525510787964	0.9916989803314209
74	385.2732529640198	pulse	0	t		72.0	2.5	/experiments/AOT/AOT_stimuli/rescaled_final/0924_fw.mp4	0.0	406.10873103141785	
74	385.281476020813	movie	1		247	72.0	2.5	/experiments/AOT/AOT_stimuli/rescaled_final/0924_fw.mp4	0.0	406.11695408821106	2.5082268714904785
74	386.87293100357056	pulse	1	t		72.0	2.5	/experiments/AOT/AOT_stimuli/rescaled_final/0924_fw.mp4	0.0	407.7084090709686	
74	387.78970289230347	fix_post	2		12	72.0	2.5	/experiments/AOT/AOT_stimuli/rescaled_final/0924_fw.mp4	0.0	408.62518095970154	0.10038399696350098
75	387.89008688926697	fix_pre	0		120	73.0	2.5	/experiments/AOT/AOT_stimuli/rescaled_final/0204_fw.mp4	0.0	408.72556495666504	0.9996621608734131
75	388.473237991333	pulse	0	t		73.0	2.5	/experiments/AOT/AOT_stimuli/rescaled_final/0204_fw.mp4	0.0	409.3087160587311	
75	388.8897490501404	movie	1		245	73.0	2.5	/experiments/AOT/AOT_stimuli/rescaled_final/0204_fw.mp4	0.0	409.72522711753845	2.4999048709869385
75	390.0732538700104	pulse	1	t		73.0	2.5	/experiments/AOT/AOT_stimuli/rescaled_final/0204_fw.mp4	0.0	410.90873193740845	
75	391.3896539211273	fix_post	2		12	73.0	2.5	/experiments/AOT/AOT_stimuli/rescaled_final/0204_fw.mp4	0.0	412.2251319885254	0.10004210472106934
76	391.4896960258484	fix_pre	0		120	74.0	2.5	/experiments/AOT/AOT_stimuli/rescaled_final/1390_fw.mp4	0.0	412.32517409324646	0.9999768733978271
76	391.67319989204407	pulse	0	t		74.0	2.5	/experiments/AOT/AOT_stimuli/rescaled_final/1390_fw.mp4	0.0	412.50867795944214	
76	392.4896728992462	movie	1		246	74.0	2.5	/experiments/AOT/AOT_stimuli/rescaled_final/1390_fw.mp4	0.0	413.3251509666443	2.4995510578155518
76	393.2731258869171	pulse	1	t		74.0	2.5	/experiments/AOT/AOT_stimuli/rescaled_final/1390_fw.mp4	0.0	414.1086039543152	
76	394.873183965683	pulse	1	t		74.0	2.5	/experiments/AOT/AOT_stimuli/rescaled_final/1390_fw.mp4	0.0	415.70866203308105	
76	394.98922395706177	fix_post	2		12	74.0	2.5	/experiments/AOT/AOT_stimuli/rescaled_final/1390_fw.mp4	0.0	415.82470202445984	0.10036993026733398
77	395.0895938873291	fix_pre	0		120	75.0	2.5	/experiments/AOT/AOT_stimuli/rescaled_final/1212_rv.mp4	0.0	415.9250719547272	1.0000250339508057
77	396.0896189212799	movie	1		246	75.0	2.5	/experiments/AOT/AOT_stimuli/rescaled_final/1212_rv.mp4	0.0	416.925096988678	2.499530076980591
77	396.47277188301086	pulse	1	t		75.0	2.5	/experiments/AOT/AOT_stimuli/rescaled_final/1212_rv.mp4	0.0	417.30824995040894	
77	398.0731430053711	pulse	1	t		75.0	2.5	/experiments/AOT/AOT_stimuli/rescaled_final/1212_rv.mp4	0.0	418.90862107276917	
77	398.5891489982605	fix_post	2		12	75.0	2.5	/experiments/AOT/AOT_stimuli/rescaled_final/1212_rv.mp4	0.0	419.42462706565857	0.10045194625854492
78	398.68960094451904	fix_pre	0		119	76.0	2.5	/experiments/AOT/AOT_stimuli/rescaled_final/0860_rv.mp4	0.0	419.5250790119171	0.9916839599609375
78	399.67310309410095	pulse	0	t		76.0	2.5	/experiments/AOT/AOT_stimuli/rescaled_final/0860_rv.mp4	0.0	420.508581161499	
78	399.68128490448	movie	1		246	76.0	2.5	/experiments/AOT/AOT_stimuli/rescaled_final/0860_rv.mp4	0.0	420.51676297187805	2.508310079574585
78	401.2724449634552	pulse	1	t		76.0	2.5	/experiments/AOT/AOT_stimuli/rescaled_final/0860_rv.mp4	0.0	422.10792303085327	
78	402.18959498405457	fix_post	2		12	76.0	2.5	/experiments/AOT/AOT_stimuli/rescaled_final/0860_rv.mp4	0.0	423.02507305145264	0.10001206398010254
79	402.28960704803467	fix_pre	0		120	77.0	2.5	blank	1.0	423.12508511543274	1.0000770092010498
79	402.87315487861633	pulse	0	t		77.0	2.5	blank	1.0	423.7086329460144	
79	403.2896840572357	movie	1		300	77.0	2.5	blank	1.0	424.1251621246338	2.499908924102783
79	404.47307300567627	pulse	1	t		77.0	2.5	blank	1.0	425.30855107307434	
79	405.7895929813385	fix_post	2		12	77.0	2.5	blank	1.0	426.6250710487366	0.10000300407409668
80	405.8895959854126	fix_pre	0		120	78.0	2.5	/experiments/AOT/AOT_stimuli/rescaled_final/0496_fw.mp4	0.0	426.72507405281067	0.9995379447937012
80	406.0730879306793	pulse	0	t		78.0	2.5	/experiments/AOT/AOT_stimuli/rescaled_final/0496_fw.mp4	0.0	426.9085659980774	
80	406.8891339302063	movie	1		247	78.0	2.5	/experiments/AOT/AOT_stimuli/rescaled_final/0496_fw.mp4	0.0	427.72461199760437	2.5003881454467773
80	407.67301201820374	pulse	1	t		78.0	2.5	/experiments/AOT/AOT_stimuli/rescaled_final/0496_fw.mp4	0.0	428.5084900856018	
80	409.2730860710144	pulse	1	t		78.0	2.5	/experiments/AOT/AOT_stimuli/rescaled_final/0496_fw.mp4	0.0	430.1085641384125	
80	409.3895220756531	fix_post	2		12	78.0	2.5	/experiments/AOT/AOT_stimuli/rescaled_final/0496_fw.mp4	0.0	430.22500014305115	0.1001288890838623
81	409.48965096473694	fix_pre	0		120	79.0	2.5	/experiments/AOT/AOT_stimuli/rescaled_final/0751_fw.mp4	0.0	430.325129032135	0.9999399185180664
81	410.489590883255	movie	1		249	79.0	2.5	/experiments/AOT/AOT_stimuli/rescaled_final/0751_fw.mp4	0.0	431.3250689506531	2.5000600814819336
81	410.87242102622986	pulse	1	t		79.0	2.5	/experiments/AOT/AOT_stimuli/rescaled_final/0751_fw.mp4	0.0	431.70789909362793	
81	412.47303795814514	pulse	1	t		79.0	2.5	/experiments/AOT/AOT_stimuli/rescaled_final/0751_fw.mp4	0.0	433.3085160255432	
81	412.98965096473694	fix_post	2		12	79.0	2.5	/experiments/AOT/AOT_stimuli/rescaled_final/0751_fw.mp4	0.0	433.825129032135	0.0999441146850586
82	413.089595079422	fix_pre	0		119	80.0	2.5	/experiments/AOT/AOT_stimuli/rescaled_final/1134_fw.mp4	0.0	433.92507314682007	0.9916408061981201
82	414.07300996780396	pulse	0	t		80.0	2.5	/experiments/AOT/AOT_stimuli/rescaled_final/1134_fw.mp4	0.0	434.908488035202	
82	414.0812358856201	movie	1		247	80.0	2.5	/experiments/AOT/AOT_stimuli/rescaled_final/1134_fw.mp4	0.0	434.9167139530182	2.5083260536193848
82	415.67244696617126	pulse	1	t		80.0	2.5	/experiments/AOT/AOT_stimuli/rescaled_final/1134_fw.mp4	0.0	436.50792503356934	
82	416.5895619392395	fix_post	2		12	80.0	2.5	/experiments/AOT/AOT_stimuli/rescaled_final/1134_fw.mp4	0.0	437.4250400066376	0.10001206398010254
83	416.6895740032196	fix_pre	0		120	81.0	2.5	/experiments/AOT/AOT_stimuli/rescaled_final/1306_fw.mp4	0.0	437.5250520706177	1.0000410079956055
83	417.27308797836304	pulse	0	t		81.0	2.5	/experiments/AOT/AOT_stimuli/rescaled_final/1306_fw.mp4	0.0	438.1085660457611	
83	417.6896150112152	movie	1		246	81.0	2.5	/experiments/AOT/AOT_stimuli/rescaled_final/1306_fw.mp4	0.0	438.5250930786133	2.499907970428467
83	418.87326407432556	pulse	1	t		81.0	2.5	/experiments/AOT/AOT_stimuli/rescaled_final/1306_fw.mp4	0.0	439.70874214172363	
83	420.1895229816437	fix_post	2		12	81.0	2.5	/experiments/AOT/AOT_stimuli/rescaled_final/1306_fw.mp4	0.0	441.02500104904175	0.09993696212768555
84	420.28945994377136	fix_pre	0		120	82.0	2.5	blank	1.0	441.12493801116943	1.0000131130218506
84	420.47296595573425	pulse	0	t		82.0	2.5	blank	1.0	441.3084440231323	
84	421.2894730567932	movie	1		300	82.0	2.5	blank	1.0	442.1249511241913	2.5001039505004883
84	422.07305097579956	pulse	1	t		82.0	2.5	blank	1.0	442.90852904319763	
84	423.6730270385742	pulse	1	t		82.0	2.5	blank	1.0	444.5085051059723	
84	423.7895770072937	fix_post	2		12	82.0	2.5	blank	1.0	444.6250550746918	0.09999895095825195
85	423.88957595825195	fix_pre	0		120	83.0	2.5	/experiments/AOT/AOT_stimuli/rescaled_final/0251_rv.mp4	0.0	444.72505402565	0.9999139308929443
85	424.8894898891449	movie	1		246	83.0	2.5	/experiments/AOT/AOT_stimuli/rescaled_final/0251_rv.mp4	0.0	445.72496795654297	2.4999752044677734
85	425.2727520465851	pulse	1	t		83.0	2.5	/experiments/AOT/AOT_stimuli/rescaled_final/0251_rv.mp4	0.0	446.10823011398315	
85	426.87297201156616	pulse	1	t		83.0	2.5	/experiments/AOT/AOT_stimuli/rescaled_final/0251_rv.mp4	0.0	447.70845007896423	
85	427.38946509361267	fix_post	2		12	83.0	2.5	/experiments/AOT/AOT_stimuli/rescaled_final/0251_rv.mp4	0.0	448.22494316101074	0.10005378723144531
87	427.4895188808441	stim	0		1716					448.3249969482422	14.299695014953613
87	428.4729959964752	pulse	0	t						449.3084740638733	
87	430.0730359554291	pulse	0	t						450.90851402282715	
87	431.67300605773926	pulse	0	t						452.50848412513733	
87	433.27306294441223	pulse	0	t						454.1085410118103	
87	434.8729350566864	pulse	0	t						455.7084131240845	
87	436.47286796569824	pulse	0	t						457.3083460330963	
87	438.07291293144226	pulse	0	t						458.90839099884033	
87	439.6728620529175	pulse	0	t						460.50834012031555	
87	441.2725989818573	pulse	0	t						462.10807704925537	
