trial_nr	onset	event_type	phase	response	nr_frames	movie_index	movie_duration	movie_file	blank	onset_abs	duration
0	0.19976401329040527	stim	0		57					99.90711402893066	0.4751760959625244
0	0.6667120456695557	response	0	space						100.37406206130981	
1	0.6749401092529297	stim	0		3463					100.38229012489319	28.871007919311523
1	29.536171197891235	pulse	0	t						129.2435212135315	
1	29.545948028564453	stim	1		1716					129.2532980442047	14.302068948745728
1	31.129631996154785	pulse	1	t						130.83698201179504	
1	32.7300021648407	pulse	1	t						132.43735218048096	
1	34.33005404472351	pulse	1	t						134.03740406036377	
1	35.93045902252197	pulse	1	t						135.63780903816223	
1	37.53050899505615	pulse	1	t						137.2378590106964	
1	39.130918979644775	pulse	1	t						138.83826899528503	
1	40.731072187423706	pulse	1	t						140.43842220306396	
1	42.3312451839447	pulse	1	t						142.03859519958496	
2	43.84801697731018	fix_pre	0		11	0.0	2.5	/experiments/knapen_AOT/AOT_stimuli/rescaled_final/1692_fw.mp4	0.0	143.55536699295044	0.09163999557495117
2	43.93151903152466	pulse	0	t		0.0	2.5	/experiments/knapen_AOT/AOT_stimuli/rescaled_final/1692_fw.mp4	0.0	143.63886904716492	
2	43.93965697288513	movie	1		244	0.0	2.5	/experiments/knapen_AOT/AOT_stimuli/rescaled_final/1692_fw.mp4	0.0	143.6470069885254	2.50871205329895
2	45.53255009651184	pulse	1	t		0.0	2.5	/experiments/knapen_AOT/AOT_stimuli/rescaled_final/1692_fw.mp4	0.0	145.2399001121521	
2	46.44836902618408	fix_post	2		12	0.0	2.5	/experiments/knapen_AOT/AOT_stimuli/rescaled_final/1692_fw.mp4	0.0	146.15571904182434	0.1000361442565918
3	46.548405170440674	fix_pre	0		120	1.0	2.5	/experiments/knapen_AOT/AOT_stimuli/rescaled_final/1721_fw.mp4	0.0	146.25575518608093	1.0001628398895264
3	47.132134199142456	pulse	0	t		1.0	2.5	/experiments/knapen_AOT/AOT_stimuli/rescaled_final/1721_fw.mp4	0.0	146.83948421478271	
3	47.5485680103302	movie	1		243	1.0	2.5	/experiments/knapen_AOT/AOT_stimuli/rescaled_final/1721_fw.mp4	0.0	147.25591802597046	2.500429153442383
3	48.73233103752136	pulse	1	t		1.0	2.5	/experiments/knapen_AOT/AOT_stimuli/rescaled_final/1721_fw.mp4	0.0	148.43968105316162	
3	50.04899716377258	fix_post	2		12	1.0	2.5	/experiments/knapen_AOT/AOT_stimuli/rescaled_final/1721_fw.mp4	0.0	149.75634717941284	0.09995293617248535
4	50.14895009994507	fix_pre	0		120	2.0	2.5	/experiments/knapen_AOT/AOT_stimuli/rescaled_final/0392_rv.mp4	0.0	149.85630011558533	1.0001380443572998
4	50.3250470161438	pulse	0	t		2.0	2.5	/experiments/knapen_AOT/AOT_stimuli/rescaled_final/0392_rv.mp4	0.0	150.03239703178406	
4	51.14908814430237	movie	1		243	2.0	2.5	/experiments/knapen_AOT/AOT_stimuli/rescaled_final/0392_rv.mp4	0.0	150.85643815994263	2.5003578662872314
4	51.92526412010193	pulse	1	t		2.0	2.5	/experiments/knapen_AOT/AOT_stimuli/rescaled_final/0392_rv.mp4	0.0	151.6326141357422	
4	53.53284001350403	pulse	1	t		2.0	2.5	/experiments/knapen_AOT/AOT_stimuli/rescaled_final/0392_rv.mp4	0.0	153.2401900291443	
4	53.6494460105896	fix_post	2		12	2.0	2.5	/experiments/knapen_AOT/AOT_stimuli/rescaled_final/0392_rv.mp4	0.0	153.35679602622986	0.10001111030578613
5	53.749457120895386	fix_pre	0		120	3.0	2.5	/experiments/knapen_AOT/AOT_stimuli/rescaled_final/0120_rv.mp4	0.0	153.45680713653564	1.0001590251922607
5	54.74961614608765	movie	1		243	3.0	2.5	/experiments/knapen_AOT/AOT_stimuli/rescaled_final/0120_rv.mp4	0.0	154.4569661617279	2.492112874984741
5	55.133684158325195	pulse	1	t		3.0	2.5	/experiments/knapen_AOT/AOT_stimuli/rescaled_final/0120_rv.mp4	0.0	154.84103417396545	
5	56.72609305381775	pulse	1	t		3.0	2.5	/experiments/knapen_AOT/AOT_stimuli/rescaled_final/0120_rv.mp4	0.0	156.433443069458	
5	57.24172902107239	fix_post	2		12	3.0	2.5	/experiments/knapen_AOT/AOT_stimuli/rescaled_final/0120_rv.mp4	0.0	156.94907903671265	0.09994196891784668
6	57.341670989990234	fix_pre	0		119	4.0	2.5	/experiments/knapen_AOT/AOT_stimuli/rescaled_final/0873_fw.mp4	0.0	157.0490210056305	0.9918251037597656
6	58.325287103652954	pulse	0	t		4.0	2.5	/experiments/knapen_AOT/AOT_stimuli/rescaled_final/0873_fw.mp4	0.0	158.0326371192932	
6	58.33349609375	movie	1		244	4.0	2.5	/experiments/knapen_AOT/AOT_stimuli/rescaled_final/0873_fw.mp4	0.0	158.04084610939026	2.508707046508789
6	59.927289962768555	pulse	1	t		4.0	2.5	/experiments/knapen_AOT/AOT_stimuli/rescaled_final/0873_fw.mp4	0.0	159.6346399784088	
6	60.84220314025879	fix_post	2		12	4.0	2.5	/experiments/knapen_AOT/AOT_stimuli/rescaled_final/0873_fw.mp4	0.0	160.54955315589905	0.10003089904785156
7	60.94223403930664	fix_pre	0		120	5.0	2.5	/experiments/knapen_AOT/AOT_stimuli/rescaled_final/0694_fw.mp4	0.0	160.6495840549469	1.0001139640808105
7	61.52587699890137	pulse	0	t		5.0	2.5	/experiments/knapen_AOT/AOT_stimuli/rescaled_final/0694_fw.mp4	0.0	161.23322701454163	
7	61.94234800338745	movie	1		243	5.0	2.5	/experiments/knapen_AOT/AOT_stimuli/rescaled_final/0694_fw.mp4	0.0	161.6496980190277	2.5003771781921387
7	63.12628698348999	pulse	1	t		5.0	2.5	/experiments/knapen_AOT/AOT_stimuli/rescaled_final/0694_fw.mp4	0.0	162.83363699913025	
7	64.44272518157959	fix_post	2		12	5.0	2.5	/experiments/knapen_AOT/AOT_stimuli/rescaled_final/0694_fw.mp4	0.0	164.15007519721985	0.10001492500305176
8	64.54274010658264	fix_pre	0		120	6.0	2.5	blank	1.0	164.2500901222229	1.0002188682556152
8	64.72641801834106	pulse	0	t		6.0	2.5	blank	1.0	164.43376803398132	
8	65.54295897483826	movie	1		300	6.0	2.5	blank	1.0	165.25030899047852	2.5003061294555664
8	66.32647800445557	pulse	1	t		6.0	2.5	blank	1.0	166.03382802009583	
8	67.92674517631531	pulse	1	t		6.0	2.5	blank	1.0	167.63409519195557	
8	68.04326510429382	fix_post	2		12	6.0	2.5	blank	1.0	167.75061511993408	0.10000395774841309
9	68.14326906204224	fix_pre	0		119	7.0	2.5	/experiments/knapen_AOT/AOT_stimuli/rescaled_final/1993_fw.mp4	0.0	167.8506190776825	0.9918639659881592
9	69.1351330280304	movie	1		244	7.0	2.5	/experiments/knapen_AOT/AOT_stimuli/rescaled_final/1993_fw.mp4	0.0	168.84248304367065	2.5003249645233154
9	69.52723002433777	pulse	1	t		7.0	2.5	/experiments/knapen_AOT/AOT_stimuli/rescaled_final/1993_fw.mp4	0.0	169.23458003997803	
9	71.12740302085876	pulse	1	t		7.0	2.5	/experiments/knapen_AOT/AOT_stimuli/rescaled_final/1993_fw.mp4	0.0	170.83475303649902	
9	71.63545799255371	fix_post	2		12	7.0	2.5	/experiments/knapen_AOT/AOT_stimuli/rescaled_final/1993_fw.mp4	0.0	171.34280800819397	0.10001301765441895
10	71.73547101020813	fix_pre	0		120	8.0	2.5	/experiments/knapen_AOT/AOT_stimuli/rescaled_final/0393_fw.mp4	0.0	171.4428210258484	1.000190019607544
10	72.72748517990112	pulse	0	t		8.0	2.5	/experiments/knapen_AOT/AOT_stimuli/rescaled_final/0393_fw.mp4	0.0	172.43483519554138	
10	72.73566102981567	movie	1		244	8.0	2.5	/experiments/knapen_AOT/AOT_stimuli/rescaled_final/0393_fw.mp4	0.0	172.44301104545593	2.5086829662323
10	74.32809019088745	pulse	1	t		8.0	2.5	/experiments/knapen_AOT/AOT_stimuli/rescaled_final/0393_fw.mp4	0.0	174.0354402065277	
10	75.24434399604797	fix_post	2		12	8.0	2.5	/experiments/knapen_AOT/AOT_stimuli/rescaled_final/0393_fw.mp4	0.0	174.95169401168823	0.10002017021179199
11	75.34436416625977	fix_pre	0		120	9.0	2.5	/experiments/knapen_AOT/AOT_stimuli/rescaled_final/1045_fw.mp4	0.0	175.05171418190002	1.0001389980316162
11	75.92805814743042	pulse	0	t		9.0	2.5	/experiments/knapen_AOT/AOT_stimuli/rescaled_final/1045_fw.mp4	0.0	175.63540816307068	
11	76.34450316429138	movie	1		244	9.0	2.5	/experiments/knapen_AOT/AOT_stimuli/rescaled_final/1045_fw.mp4	0.0	176.05185317993164	2.50038480758667
11	77.5284640789032	pulse	1	t		9.0	2.5	/experiments/knapen_AOT/AOT_stimuli/rescaled_final/1045_fw.mp4	0.0	177.23581409454346	
11	78.84488797187805	fix_post	2		12	9.0	2.5	/experiments/knapen_AOT/AOT_stimuli/rescaled_final/1045_fw.mp4	0.0	178.5522379875183	0.10007810592651367
12	78.94496607780457	fix_pre	0		120	10.0	2.5	/experiments/knapen_AOT/AOT_stimuli/rescaled_final/1213_rv.mp4	0.0	178.65231609344482	1.0029850006103516
12	79.12846207618713	pulse	0	t		10.0	2.5	/experiments/knapen_AOT/AOT_stimuli/rescaled_final/1213_rv.mp4	0.0	178.8358120918274	
12	79.94795107841492	movie	1		241	10.0	2.5	/experiments/knapen_AOT/AOT_stimuli/rescaled_final/1213_rv.mp4	0.0	179.65530109405518	2.497476100921631
12	80.72870397567749	pulse	1	t		10.0	2.5	/experiments/knapen_AOT/AOT_stimuli/rescaled_final/1213_rv.mp4	0.0	180.43605399131775	
12	82.32911014556885	pulse	1	t		10.0	2.5	/experiments/knapen_AOT/AOT_stimuli/rescaled_final/1213_rv.mp4	0.0	182.0364601612091	
12	82.44542717933655	fix_post	2		12	10.0	2.5	/experiments/knapen_AOT/AOT_stimuli/rescaled_final/1213_rv.mp4	0.0	182.1527771949768	0.09999799728393555
13	82.54542517662048	fix_pre	0		119	11.0	2.5	/experiments/knapen_AOT/AOT_stimuli/rescaled_final/1090_rv.mp4	0.0	182.25277519226074	0.9918248653411865
13	83.53725004196167	movie	1		244	11.0	2.5	/experiments/knapen_AOT/AOT_stimuli/rescaled_final/1090_rv.mp4	0.0	183.24460005760193	2.500352144241333
13	83.92934703826904	pulse	1	t		11.0	2.5	/experiments/knapen_AOT/AOT_stimuli/rescaled_final/1090_rv.mp4	0.0	183.6366970539093	
13	85.52947807312012	pulse	1	t		11.0	2.5	/experiments/knapen_AOT/AOT_stimuli/rescaled_final/1090_rv.mp4	0.0	185.23682808876038	
13	86.037602186203	fix_post	2		12	11.0	2.5	/experiments/knapen_AOT/AOT_stimuli/rescaled_final/1090_rv.mp4	0.0	185.74495220184326	0.10002279281616211
14	86.13762497901917	fix_pre	0		120	12.0	2.5	blank	1.0	185.84497499465942	1.0001461505889893
14	87.12963509559631	pulse	0	t		12.0	2.5	blank	1.0	186.83698511123657	
14	87.13777112960815	movie	1		301	12.0	2.5	blank	1.0	186.8451211452484	2.508725881576538
14	88.72989916801453	pulse	1	t		12.0	2.5	blank	1.0	188.43724918365479	
14	89.64649701118469	fix_post	2		12	12.0	2.5	blank	1.0	189.35384702682495	0.10000109672546387
15	89.74649810791016	fix_pre	0		120	13.0	2.5	/experiments/knapen_AOT/AOT_stimuli/rescaled_final/2024_fw.mp4	0.0	189.45384812355042	1.000182867050171
15	90.33027505874634	pulse	0	t		13.0	2.5	/experiments/knapen_AOT/AOT_stimuli/rescaled_final/2024_fw.mp4	0.0	190.0376250743866	
15	90.74668097496033	movie	1		244	13.0	2.5	/experiments/knapen_AOT/AOT_stimuli/rescaled_final/2024_fw.mp4	0.0	190.4540309906006	2.500432014465332
15	91.93049216270447	pulse	1	t		13.0	2.5	/experiments/knapen_AOT/AOT_stimuli/rescaled_final/2024_fw.mp4	0.0	191.63784217834473	
15	93.24711298942566	fix_post	2		12	13.0	2.5	/experiments/knapen_AOT/AOT_stimuli/rescaled_final/2024_fw.mp4	0.0	192.95446300506592	0.09995412826538086
16	93.34706711769104	fix_pre	0		120	14.0	2.5	/experiments/knapen_AOT/AOT_stimuli/rescaled_final/2142_rv.mp4	0.0	193.0544171333313	1.0001189708709717
16	93.5305700302124	pulse	0	t		14.0	2.5	/experiments/knapen_AOT/AOT_stimuli/rescaled_final/2142_rv.mp4	0.0	193.23792004585266	
16	94.34718608856201	movie	1		244	14.0	2.5	/experiments/knapen_AOT/AOT_stimuli/rescaled_final/2142_rv.mp4	0.0	194.05453610420227	2.500365972518921
16	95.13082718849182	pulse	1	t		14.0	2.5	/experiments/knapen_AOT/AOT_stimuli/rescaled_final/2142_rv.mp4	0.0	194.83817720413208	
16	96.73096919059753	pulse	1	t		14.0	2.5	/experiments/knapen_AOT/AOT_stimuli/rescaled_final/2142_rv.mp4	0.0	196.4383192062378	
16	96.84755206108093	fix_post	2		12	14.0	2.5	/experiments/knapen_AOT/AOT_stimuli/rescaled_final/2142_rv.mp4	0.0	196.5549020767212	0.10002303123474121
17	96.94757509231567	fix_pre	0		119	15.0	2.5	/experiments/knapen_AOT/AOT_stimuli/rescaled_final/0898_fw.mp4	0.0	196.65492510795593	0.991832971572876
17	97.93940806388855	movie	1		243	15.0	2.5	/experiments/knapen_AOT/AOT_stimuli/rescaled_final/0898_fw.mp4	0.0	197.6467580795288	2.5003459453582764
17	98.33155298233032	pulse	1	t		15.0	2.5	/experiments/knapen_AOT/AOT_stimuli/rescaled_final/0898_fw.mp4	0.0	198.03890299797058	
17	99.93150496482849	pulse	1	t		15.0	2.5	/experiments/knapen_AOT/AOT_stimuli/rescaled_final/0898_fw.mp4	0.0	199.63885498046875	
17	100.43975400924683	fix_post	2		12	15.0	2.5	/experiments/knapen_AOT/AOT_stimuli/rescaled_final/0898_fw.mp4	0.0	200.14710402488708	0.10002899169921875
18	100.53978300094604	fix_pre	0		120	16.0	2.5	/experiments/knapen_AOT/AOT_stimuli/rescaled_final/1721_fw.mp4	0.0	200.2471330165863	1.0001401901245117
18	101.53178310394287	pulse	0	t		16.0	2.5	/experiments/knapen_AOT/AOT_stimuli/rescaled_final/1721_fw.mp4	0.0	201.23913311958313	
18	101.53992319107056	movie	1		244	16.0	2.5	/experiments/knapen_AOT/AOT_stimuli/rescaled_final/1721_fw.mp4	0.0	201.24727320671082	2.5087459087371826
18	103.13256597518921	pulse	1	t		16.0	2.5	/experiments/knapen_AOT/AOT_stimuli/rescaled_final/1721_fw.mp4	0.0	202.83991599082947	
18	104.04866909980774	fix_post	2		12	16.0	2.5	/experiments/knapen_AOT/AOT_stimuli/rescaled_final/1721_fw.mp4	0.0	203.756019115448	0.09997391700744629
19	104.14864301681519	fix_pre	0		120	17.0	2.5	/experiments/knapen_AOT/AOT_stimuli/rescaled_final/1034_rv.mp4	0.0	203.85599303245544	1.00018310546875
19	104.73232412338257	pulse	0	t		17.0	2.5	/experiments/knapen_AOT/AOT_stimuli/rescaled_final/1034_rv.mp4	0.0	204.43967413902283	
19	105.14882612228394	movie	1		246	17.0	2.5	/experiments/knapen_AOT/AOT_stimuli/rescaled_final/1034_rv.mp4	0.0	204.8561761379242	2.5004029273986816
19	106.33257603645325	pulse	1	t		17.0	2.5	/experiments/knapen_AOT/AOT_stimuli/rescaled_final/1034_rv.mp4	0.0	206.0399260520935	
19	107.64922904968262	fix_post	2		12	17.0	2.5	/experiments/knapen_AOT/AOT_stimuli/rescaled_final/1034_rv.mp4	0.0	207.35657906532288	0.10001206398010254
20	107.74924111366272	fix_pre	0		120	18.0	2.5	/experiments/knapen_AOT/AOT_stimuli/rescaled_final/0599_rv.mp4	0.0	207.45659112930298	1.0001640319824219
20	107.93272113800049	pulse	0	t		18.0	2.5	/experiments/knapen_AOT/AOT_stimuli/rescaled_final/0599_rv.mp4	0.0	207.64007115364075	
20	108.74940514564514	movie	1		243	18.0	2.5	/experiments/knapen_AOT/AOT_stimuli/rescaled_final/0599_rv.mp4	0.0	208.4567551612854	2.5003180503845215
20	109.5256040096283	pulse	1	t		18.0	2.5	/experiments/knapen_AOT/AOT_stimuli/rescaled_final/0599_rv.mp4	0.0	209.23295402526855	
20	111.13318800926208	pulse	1	t		18.0	2.5	/experiments/knapen_AOT/AOT_stimuli/rescaled_final/0599_rv.mp4	0.0	210.84053802490234	
20	111.24972319602966	fix_post	2		12	18.0	2.5	/experiments/knapen_AOT/AOT_stimuli/rescaled_final/0599_rv.mp4	0.0	210.95707321166992	0.10000491142272949
21	111.34972810745239	fix_pre	0		120	19.0	2.5	blank	1.0	211.05707812309265	1.000154972076416
21	112.34988307952881	movie	1		299	19.0	2.5	blank	1.0	212.05723309516907	2.4921109676361084
21	112.72594499588013	pulse	1	t		19.0	2.5	blank	1.0	212.43329501152039	
21	114.32625102996826	pulse	1	t		19.0	2.5	blank	1.0	214.03360104560852	
21	114.84199404716492	fix_post	2		12	19.0	2.5	blank	1.0	214.54934406280518	0.09995698928833008
22	114.94195103645325	fix_pre	0		119	20.0	2.5	/experiments/knapen_AOT/AOT_stimuli/rescaled_final/1792_fw.mp4	0.0	214.6493010520935	0.9917960166931152
22	115.92580509185791	pulse	0	t		20.0	2.5	/experiments/knapen_AOT/AOT_stimuli/rescaled_final/1792_fw.mp4	0.0	215.63315510749817	
22	115.93374705314636	movie	1		245	20.0	2.5	/experiments/knapen_AOT/AOT_stimuli/rescaled_final/1792_fw.mp4	0.0	215.64109706878662	2.508707046508789
22	117.52738904953003	pulse	1	t		20.0	2.5	/experiments/knapen_AOT/AOT_stimuli/rescaled_final/1792_fw.mp4	0.0	217.2347390651703	
22	118.44245409965515	fix_post	2		12	20.0	2.5	/experiments/knapen_AOT/AOT_stimuli/rescaled_final/1792_fw.mp4	0.0	218.1498041152954	0.10006308555603027
23	118.54251718521118	fix_pre	0		120	21.0	2.5	/experiments/knapen_AOT/AOT_stimuli/rescaled_final/0165_fw.mp4	0.0	218.24986720085144	1.0001089572906494
23	119.12603116035461	pulse	0	t		21.0	2.5	/experiments/knapen_AOT/AOT_stimuli/rescaled_final/0165_fw.mp4	0.0	218.83338117599487	
23	119.54262614250183	movie	1		243	21.0	2.5	/experiments/knapen_AOT/AOT_stimuli/rescaled_final/0165_fw.mp4	0.0	219.2499761581421	2.5003509521484375
23	120.72637915611267	pulse	1	t		21.0	2.5	/experiments/knapen_AOT/AOT_stimuli/rescaled_final/0165_fw.mp4	0.0	220.43372917175293	
23	122.04297709465027	fix_post	2		12	21.0	2.5	/experiments/knapen_AOT/AOT_stimuli/rescaled_final/0165_fw.mp4	0.0	221.75032711029053	0.1000220775604248
24	122.1429991722107	fix_pre	0		120	22.0	2.5	/experiments/knapen_AOT/AOT_stimuli/rescaled_final/1354_fw.mp4	0.0	221.85034918785095	1.0001590251922607
24	122.32652306556702	pulse	0	t		22.0	2.5	/experiments/knapen_AOT/AOT_stimuli/rescaled_final/1354_fw.mp4	0.0	222.03387308120728	
24	123.14315819740295	movie	1		243	22.0	2.5	/experiments/knapen_AOT/AOT_stimuli/rescaled_final/1354_fw.mp4	0.0	222.8505082130432	2.500379800796509
24	123.9268810749054	pulse	1	t		22.0	2.5	/experiments/knapen_AOT/AOT_stimuli/rescaled_final/1354_fw.mp4	0.0	223.63423109054565	
24	125.52711701393127	pulse	1	t		22.0	2.5	/experiments/knapen_AOT/AOT_stimuli/rescaled_final/1354_fw.mp4	0.0	225.23446702957153	
24	125.64353799819946	fix_post	2		12	22.0	2.5	/experiments/knapen_AOT/AOT_stimuli/rescaled_final/1354_fw.mp4	0.0	225.35088801383972	0.10004115104675293
25	125.74357914924622	fix_pre	0		120	23.0	2.5	/experiments/knapen_AOT/AOT_stimuli/rescaled_final/1656_fw.mp4	0.0	225.45092916488647	1.0001168251037598
25	126.74369597434998	movie	1		242	23.0	2.5	/experiments/knapen_AOT/AOT_stimuli/rescaled_final/1656_fw.mp4	0.0	226.45104598999023	2.4921231269836426
25	127.12791299819946	pulse	1	t		23.0	2.5	/experiments/knapen_AOT/AOT_stimuli/rescaled_final/1656_fw.mp4	0.0	226.83526301383972	
25	128.72749304771423	pulse	1	t		23.0	2.5	/experiments/knapen_AOT/AOT_stimuli/rescaled_final/1656_fw.mp4	0.0	228.4348430633545	
25	129.23581910133362	fix_post	2		12	23.0	2.5	/experiments/knapen_AOT/AOT_stimuli/rescaled_final/1656_fw.mp4	0.0	228.94316911697388	0.09993195533752441
26	129.33575105667114	fix_pre	0		120	24.0	2.5	/experiments/knapen_AOT/AOT_stimuli/rescaled_final/0684_rv.mp4	0.0	229.0431010723114	1.0001471042633057
26	130.32784914970398	pulse	0	t		24.0	2.5	/experiments/knapen_AOT/AOT_stimuli/rescaled_final/0684_rv.mp4	0.0	230.03519916534424	
26	130.33589816093445	movie	1		244	24.0	2.5	/experiments/knapen_AOT/AOT_stimuli/rescaled_final/0684_rv.mp4	0.0	230.0432481765747	2.5087578296661377
26	131.92928504943848	pulse	1	t		24.0	2.5	/experiments/knapen_AOT/AOT_stimuli/rescaled_final/0684_rv.mp4	0.0	231.63663506507874	
26	132.8446559906006	fix_post	2		12	24.0	2.5	/experiments/knapen_AOT/AOT_stimuli/rescaled_final/0684_rv.mp4	0.0	232.55200600624084	0.10013008117675781
27	132.94478607177734	fix_pre	0		120	25.0	2.5	/experiments/knapen_AOT/AOT_stimuli/rescaled_final/0745_fw.mp4	0.0	232.6521360874176	0.9999890327453613
27	133.52829313278198	pulse	0	t		25.0	2.5	/experiments/knapen_AOT/AOT_stimuli/rescaled_final/0745_fw.mp4	0.0	233.23564314842224	
27	133.9447751045227	movie	1		246	25.0	2.5	/experiments/knapen_AOT/AOT_stimuli/rescaled_final/0745_fw.mp4	0.0	233.65212512016296	2.5003559589385986
27	135.12853908538818	pulse	1	t		25.0	2.5	/experiments/knapen_AOT/AOT_stimuli/rescaled_final/0745_fw.mp4	0.0	234.83588910102844	
27	136.4451310634613	fix_post	2		12	25.0	2.5	/experiments/knapen_AOT/AOT_stimuli/rescaled_final/0745_fw.mp4	0.0	236.15248107910156	0.10004496574401855
28	136.54517602920532	fix_pre	0		120	26.0	2.5	blank	1.0	236.25252604484558	1.0001320838928223
28	136.72871613502502	pulse	0	t		26.0	2.5	blank	1.0	236.43606615066528	
28	137.54530811309814	movie	1		297	26.0	2.5	blank	1.0	237.2526581287384	2.5004820823669434
28	138.3290979862213	pulse	1	t		26.0	2.5	blank	1.0	238.03644800186157	
28	139.9291651248932	pulse	1	t		26.0	2.5	blank	1.0	239.63651514053345	
28	140.0457901954651	fix_post	2		12	26.0	2.5	blank	1.0	239.75314021110535	0.09989285469055176
29	140.14568305015564	fix_pre	0		120	27.0	2.5	/experiments/knapen_AOT/AOT_stimuli/rescaled_final/0553_rv.mp4	0.0	239.8530330657959	1.0001819133758545
29	141.1458649635315	movie	1		243	27.0	2.5	/experiments/knapen_AOT/AOT_stimuli/rescaled_final/0553_rv.mp4	0.0	240.85321497917175	2.4920051097869873
29	141.52994012832642	pulse	1	t		27.0	2.5	/experiments/knapen_AOT/AOT_stimuli/rescaled_final/0553_rv.mp4	0.0	241.23729014396667	
29	143.1296980381012	pulse	1	t		27.0	2.5	/experiments/knapen_AOT/AOT_stimuli/rescaled_final/0553_rv.mp4	0.0	242.83704805374146	
29	143.63787007331848	fix_post	2		12	27.0	2.5	/experiments/knapen_AOT/AOT_stimuli/rescaled_final/0553_rv.mp4	0.0	243.34522008895874	0.1000669002532959
30	143.73793697357178	fix_pre	0		120	28.0	2.5	/experiments/knapen_AOT/AOT_stimuli/rescaled_final/0416_rv.mp4	0.0	243.44528698921204	1.0001320838928223
30	144.73003101348877	pulse	0	t		28.0	2.5	/experiments/knapen_AOT/AOT_stimuli/rescaled_final/0416_rv.mp4	0.0	244.43738102912903	
30	144.7380690574646	movie	1		245	28.0	2.5	/experiments/knapen_AOT/AOT_stimuli/rescaled_final/0416_rv.mp4	0.0	244.44541907310486	2.508718967437744
30	146.33130502700806	pulse	1	t		28.0	2.5	/experiments/knapen_AOT/AOT_stimuli/rescaled_final/0416_rv.mp4	0.0	246.03865504264832	
30	147.24678802490234	fix_post	2		12	28.0	2.5	/experiments/knapen_AOT/AOT_stimuli/rescaled_final/0416_rv.mp4	0.0	246.9541380405426	0.09996604919433594
31	147.34675407409668	fix_pre	0		120	29.0	2.5	/experiments/knapen_AOT/AOT_stimuli/rescaled_final/0635_rv.mp4	0.0	247.05410408973694	1.0001490116119385
31	147.93042397499084	pulse	0	t		29.0	2.5	/experiments/knapen_AOT/AOT_stimuli/rescaled_final/0635_rv.mp4	0.0	247.6377739906311	
31	148.34690308570862	movie	1		243	29.0	2.5	/experiments/knapen_AOT/AOT_stimuli/rescaled_final/0635_rv.mp4	0.0	248.05425310134888	2.500380039215088
31	149.53068804740906	pulse	1	t		29.0	2.5	/experiments/knapen_AOT/AOT_stimuli/rescaled_final/0635_rv.mp4	0.0	249.23803806304932	
31	150.8472831249237	fix_post	2		12	29.0	2.5	/experiments/knapen_AOT/AOT_stimuli/rescaled_final/0635_rv.mp4	0.0	250.55463314056396	0.10007691383361816
32	150.94736003875732	fix_pre	0		120	30.0	2.5	/experiments/knapen_AOT/AOT_stimuli/rescaled_final/0341_fw.mp4	0.0	250.65471005439758	1.0001130104064941
32	151.1309471130371	pulse	0	t		30.0	2.5	/experiments/knapen_AOT/AOT_stimuli/rescaled_final/0341_fw.mp4	0.0	250.83829712867737	
32	151.94747304916382	movie	1		244	30.0	2.5	/experiments/knapen_AOT/AOT_stimuli/rescaled_final/0341_fw.mp4	0.0	251.65482306480408	2.500375986099243
32	152.73115015029907	pulse	1	t		30.0	2.5	/experiments/knapen_AOT/AOT_stimuli/rescaled_final/0341_fw.mp4	0.0	252.43850016593933	
32	154.32902097702026	pulse	1	t		30.0	2.5	/experiments/knapen_AOT/AOT_stimuli/rescaled_final/0341_fw.mp4	0.0	254.03637099266052	
32	154.44784903526306	fix_post	2		12	30.0	2.5	/experiments/knapen_AOT/AOT_stimuli/rescaled_final/0341_fw.mp4	0.0	254.15519905090332	0.10004210472106934
33	154.54789113998413	fix_pre	0		120	31.0	2.5	/experiments/knapen_AOT/AOT_stimuli/rescaled_final/0416_fw.mp4	0.0	254.2552411556244	1.0001490116119385
33	155.54804015159607	movie	1		243	31.0	2.5	/experiments/knapen_AOT/AOT_stimuli/rescaled_final/0416_fw.mp4	0.0	255.25539016723633	2.4921278953552246
33	155.93235206604004	pulse	1	t		31.0	2.5	/experiments/knapen_AOT/AOT_stimuli/rescaled_final/0416_fw.mp4	0.0	255.6397020816803	
33	157.53191113471985	pulse	1	t		31.0	2.5	/experiments/knapen_AOT/AOT_stimuli/rescaled_final/0416_fw.mp4	0.0	257.2392611503601	
33	158.0401680469513	fix_post	2		12	31.0	2.5	/experiments/knapen_AOT/AOT_stimuli/rescaled_final/0416_fw.mp4	0.0	257.74751806259155	0.09993410110473633
34	158.14010214805603	fix_pre	0		120	32.0	2.5	/experiments/knapen_AOT/AOT_stimuli/rescaled_final/1668_fw.mp4	0.0	257.8474521636963	1.0000989437103271
34	159.13218998908997	pulse	0	t		32.0	2.5	/experiments/knapen_AOT/AOT_stimuli/rescaled_final/1668_fw.mp4	0.0	258.8395400047302	
34	159.14020109176636	movie	1		244	32.0	2.5	/experiments/knapen_AOT/AOT_stimuli/rescaled_final/1668_fw.mp4	0.0	258.8475511074066	2.508683919906616
34	160.7335741519928	pulse	1	t		32.0	2.5	/experiments/knapen_AOT/AOT_stimuli/rescaled_final/1668_fw.mp4	0.0	260.44092416763306	
34	161.64888501167297	fix_post	2		12	32.0	2.5	/experiments/knapen_AOT/AOT_stimuli/rescaled_final/1668_fw.mp4	0.0	261.35623502731323	0.1000220775604248
35	161.7489070892334	fix_pre	0		120	33.0	2.5	/experiments/knapen_AOT/AOT_stimuli/rescaled_final/1502_fw.mp4	0.0	261.45625710487366	1.000128984451294
35	162.33257007598877	pulse	0	t		33.0	2.5	/experiments/knapen_AOT/AOT_stimuli/rescaled_final/1502_fw.mp4	0.0	262.039920091629	
35	162.7490360736847	movie	1		245	33.0	2.5	/experiments/knapen_AOT/AOT_stimuli/rescaled_final/1502_fw.mp4	0.0	262.45638608932495	2.500396966934204
35	163.93281602859497	pulse	1	t		33.0	2.5	/experiments/knapen_AOT/AOT_stimuli/rescaled_final/1502_fw.mp4	0.0	263.64016604423523	
35	165.2494330406189	fix_post	2		12	33.0	2.5	/experiments/knapen_AOT/AOT_stimuli/rescaled_final/1502_fw.mp4	0.0	264.95678305625916	0.10004901885986328
36	165.34948205947876	fix_pre	0		120	34.0	2.5	/experiments/knapen_AOT/AOT_stimuli/rescaled_final/1382_fw.mp4	0.0	265.056832075119	1.000140905380249
36	165.52543902397156	pulse	0	t		34.0	2.5	/experiments/knapen_AOT/AOT_stimuli/rescaled_final/1382_fw.mp4	0.0	265.2327890396118	
36	166.349622964859	movie	1		244	34.0	2.5	/experiments/knapen_AOT/AOT_stimuli/rescaled_final/1382_fw.mp4	0.0	266.05697298049927	2.5003621578216553
36	167.12595796585083	pulse	1	t		34.0	2.5	/experiments/knapen_AOT/AOT_stimuli/rescaled_final/1382_fw.mp4	0.0	266.8333079814911	
36	168.73366713523865	pulse	1	t		34.0	2.5	/experiments/knapen_AOT/AOT_stimuli/rescaled_final/1382_fw.mp4	0.0	268.4410171508789	
36	168.84998512268066	fix_post	2		12	34.0	2.5	/experiments/knapen_AOT/AOT_stimuli/rescaled_final/1382_fw.mp4	0.0	268.5573351383209	0.09999799728393555
37	168.9499831199646	fix_pre	0		120	35.0	2.5	blank	1.0	268.65733313560486	1.0001909732818604
37	169.95017409324646	movie	1		299	35.0	2.5	blank	1.0	269.6575241088867	2.492021083831787
37	170.326189994812	pulse	1	t		35.0	2.5	blank	1.0	270.03354001045227	
37	171.92569017410278	pulse	1	t		35.0	2.5	blank	1.0	271.63304018974304	
37	172.44219517707825	fix_post	2		12	35.0	2.5	blank	1.0	272.1495451927185	0.10001897811889648
38	172.54221415519714	fix_pre	0		119	36.0	2.5	/experiments/knapen_AOT/AOT_stimuli/rescaled_final/1119_rv.mp4	0.0	272.2495641708374	0.9917728900909424
38	173.52581214904785	pulse	0	t		36.0	2.5	/experiments/knapen_AOT/AOT_stimuli/rescaled_final/1119_rv.mp4	0.0	273.2331621646881	
38	173.5339870452881	movie	1		245	36.0	2.5	/experiments/knapen_AOT/AOT_stimuli/rescaled_final/1119_rv.mp4	0.0	273.24133706092834	2.508734941482544
38	175.1265470981598	pulse	1	t		36.0	2.5	/experiments/knapen_AOT/AOT_stimuli/rescaled_final/1119_rv.mp4	0.0	274.83389711380005	
38	176.04272198677063	fix_post	2		12	36.0	2.5	/experiments/knapen_AOT/AOT_stimuli/rescaled_final/1119_rv.mp4	0.0	275.7500720024109	0.10002899169921875
39	176.14275097846985	fix_pre	0		120	37.0	2.5	/experiments/knapen_AOT/AOT_stimuli/rescaled_final/0307_fw.mp4	0.0	275.8501009941101	1.000143051147461
39	176.72647213935852	pulse	0	t		37.0	2.5	/experiments/knapen_AOT/AOT_stimuli/rescaled_final/0307_fw.mp4	0.0	276.4338221549988	
39	177.1428940296173	movie	1		243	37.0	2.5	/experiments/knapen_AOT/AOT_stimuli/rescaled_final/0307_fw.mp4	0.0	276.85024404525757	2.5003700256347656
39	178.32662105560303	pulse	1	t		37.0	2.5	/experiments/knapen_AOT/AOT_stimuli/rescaled_final/0307_fw.mp4	0.0	278.0339710712433	
39	179.64326405525208	fix_post	2		12	37.0	2.5	/experiments/knapen_AOT/AOT_stimuli/rescaled_final/0307_fw.mp4	0.0	279.35061407089233	0.1000370979309082
40	179.74330115318298	fix_pre	0		120	38.0	2.5	/experiments/knapen_AOT/AOT_stimuli/rescaled_final/0537_fw.mp4	0.0	279.45065116882324	1.000114917755127
40	179.92683506011963	pulse	0	t		38.0	2.5	/experiments/knapen_AOT/AOT_stimuli/rescaled_final/0537_fw.mp4	0.0	279.6341850757599	
40	180.7434160709381	movie	1		244	38.0	2.5	/experiments/knapen_AOT/AOT_stimuli/rescaled_final/0537_fw.mp4	0.0	280.45076608657837	2.500359058380127
40	181.527095079422	pulse	1	t		38.0	2.5	/experiments/knapen_AOT/AOT_stimuli/rescaled_final/0537_fw.mp4	0.0	281.23444509506226	
40	183.12913918495178	pulse	1	t		38.0	2.5	/experiments/knapen_AOT/AOT_stimuli/rescaled_final/0537_fw.mp4	0.0	282.83648920059204	
40	183.24377512931824	fix_post	2		12	38.0	2.5	/experiments/knapen_AOT/AOT_stimuli/rescaled_final/0537_fw.mp4	0.0	282.9511251449585	0.10001993179321289
41	183.34379506111145	fix_pre	0		120	39.0	2.5	/experiments/knapen_AOT/AOT_stimuli/rescaled_final/1719_fw.mp4	0.0	283.0511450767517	1.0001440048217773
41	184.34393906593323	movie	1		243	39.0	2.5	/experiments/knapen_AOT/AOT_stimuli/rescaled_final/1719_fw.mp4	0.0	284.0512890815735	2.492051124572754
41	184.72830200195312	pulse	1	t		39.0	2.5	/experiments/knapen_AOT/AOT_stimuli/rescaled_final/1719_fw.mp4	0.0	284.4356520175934	
41	186.3277599811554	pulse	1	t		39.0	2.5	/experiments/knapen_AOT/AOT_stimuli/rescaled_final/1719_fw.mp4	0.0	286.03510999679565	
41	186.83599019050598	fix_post	2		12	39.0	2.5	/experiments/knapen_AOT/AOT_stimuli/rescaled_final/1719_fw.mp4	0.0	286.54334020614624	0.10001492500305176
42	186.93600511550903	fix_pre	0		120	40.0	2.5	blank	1.0	286.6433551311493	1.0001630783081055
42	187.92807698249817	pulse	0	t		40.0	2.5	blank	1.0	287.6354269981384	
42	187.93616819381714	movie	1		301	40.0	2.5	blank	1.0	287.6435182094574	2.5087108612060547
42	189.528302192688	pulse	1	t		40.0	2.5	blank	1.0	289.23565220832825	
42	190.4448790550232	fix_post	2		12	40.0	2.5	blank	1.0	290.15222907066345	0.1000070571899414
43	190.54488611221313	fix_pre	0		120	41.0	2.5	/experiments/knapen_AOT/AOT_stimuli/rescaled_final/0823_fw.mp4	0.0	290.2522361278534	1.000187873840332
43	191.1284830570221	pulse	0	t		41.0	2.5	/experiments/knapen_AOT/AOT_stimuli/rescaled_final/0823_fw.mp4	0.0	290.83583307266235	
43	191.54507398605347	movie	1		244	41.0	2.5	/experiments/knapen_AOT/AOT_stimuli/rescaled_final/0823_fw.mp4	0.0	291.2524240016937	2.50034499168396
43	192.72877597808838	pulse	1	t		41.0	2.5	/experiments/knapen_AOT/AOT_stimuli/rescaled_final/0823_fw.mp4	0.0	292.43612599372864	
43	194.04541897773743	fix_post	2		12	41.0	2.5	/experiments/knapen_AOT/AOT_stimuli/rescaled_final/0823_fw.mp4	0.0	293.7527689933777	0.0999910831451416
44	194.14541006088257	fix_pre	0		120	42.0	2.5	/experiments/knapen_AOT/AOT_stimuli/rescaled_final/1722_fw.mp4	0.0	293.8527600765228	1.0001721382141113
44	194.32894897460938	pulse	0	t		42.0	2.5	/experiments/knapen_AOT/AOT_stimuli/rescaled_final/1722_fw.mp4	0.0	294.03629899024963	
44	195.14558219909668	movie	1		244	42.0	2.5	/experiments/knapen_AOT/AOT_stimuli/rescaled_final/1722_fw.mp4	0.0	294.85293221473694	2.500375986099243
44	195.92931413650513	pulse	1	t		42.0	2.5	/experiments/knapen_AOT/AOT_stimuli/rescaled_final/1722_fw.mp4	0.0	295.6366641521454	
44	197.5294589996338	pulse	1	t		42.0	2.5	/experiments/knapen_AOT/AOT_stimuli/rescaled_final/1722_fw.mp4	0.0	297.23680901527405	
44	197.64595818519592	fix_post	2		9	42.0	2.5	/experiments/knapen_AOT/AOT_stimuli/rescaled_final/1722_fw.mp4	0.0	297.3533082008362	0.10003900527954102
45	197.74599719047546	fix_pre	0		120	43.0	2.5	/experiments/knapen_AOT/AOT_stimuli/rescaled_final/1195_rv.mp4	0.0	297.4533472061157	1.0001018047332764
45	198.74609899520874	movie	1		243	43.0	2.5	/experiments/knapen_AOT/AOT_stimuli/rescaled_final/1195_rv.mp4	0.0	298.453449010849	2.492042064666748
45	199.13048315048218	pulse	1	t		43.0	2.5	/experiments/knapen_AOT/AOT_stimuli/rescaled_final/1195_rv.mp4	0.0	298.83783316612244	
45	200.72991609573364	pulse	1	t		43.0	2.5	/experiments/knapen_AOT/AOT_stimuli/rescaled_final/1195_rv.mp4	0.0	300.4372661113739	
45	201.2381410598755	fix_post	2		12	43.0	2.5	/experiments/knapen_AOT/AOT_stimuli/rescaled_final/1195_rv.mp4	0.0	300.94549107551575	0.10002398490905762
46	201.33816504478455	fix_pre	0		120	44.0	2.5	/experiments/knapen_AOT/AOT_stimuli/rescaled_final/0417_fw.mp4	0.0	301.0455150604248	1.0001380443572998
46	202.3301601409912	pulse	0	t		44.0	2.5	/experiments/knapen_AOT/AOT_stimuli/rescaled_final/0417_fw.mp4	0.0	302.03751015663147	
46	202.33830308914185	movie	1		245	44.0	2.5	/experiments/knapen_AOT/AOT_stimuli/rescaled_final/0417_fw.mp4	0.0	302.0456531047821	2.5087480545043945
46	203.93183207511902	pulse	1	t		44.0	2.5	/experiments/knapen_AOT/AOT_stimuli/rescaled_final/0417_fw.mp4	0.0	303.6391820907593	
46	204.84705114364624	fix_post	2		12	44.0	2.5	/experiments/knapen_AOT/AOT_stimuli/rescaled_final/0417_fw.mp4	0.0	304.5544011592865	0.10004091262817383
47	204.9470920562744	fix_pre	0		120	45.0	2.5	/experiments/knapen_AOT/AOT_stimuli/rescaled_final/1324_fw.mp4	0.0	304.6544420719147	1.000128984451294
47	205.53063797950745	pulse	0	t		45.0	2.5	/experiments/knapen_AOT/AOT_stimuli/rescaled_final/1324_fw.mp4	0.0	305.2379879951477	
47	205.9472210407257	movie	1		244	45.0	2.5	/experiments/knapen_AOT/AOT_stimuli/rescaled_final/1324_fw.mp4	0.0	305.65457105636597	2.500322103500366
47	207.13102102279663	pulse	1	t		45.0	2.5	/experiments/knapen_AOT/AOT_stimuli/rescaled_final/1324_fw.mp4	0.0	306.8383710384369	
47	208.44754314422607	fix_post	2		12	45.0	2.5	/experiments/knapen_AOT/AOT_stimuli/rescaled_final/1324_fw.mp4	0.0	308.15489315986633	0.10001587867736816
48	208.54755902290344	fix_pre	0		120	46.0	2.5	/experiments/knapen_AOT/AOT_stimuli/rescaled_final/2173_fw.mp4	0.0	308.2549090385437	1.0001640319824219
48	208.73112201690674	pulse	0	t		46.0	2.5	/experiments/knapen_AOT/AOT_stimuli/rescaled_final/2173_fw.mp4	0.0	308.438472032547	
48	209.54772305488586	movie	1		246	46.0	2.5	/experiments/knapen_AOT/AOT_stimuli/rescaled_final/2173_fw.mp4	0.0	309.2550730705261	2.500378131866455
48	210.33148407936096	pulse	1	t		46.0	2.5	/experiments/knapen_AOT/AOT_stimuli/rescaled_final/2173_fw.mp4	0.0	310.0388340950012	
48	211.93159818649292	pulse	1	t		46.0	2.5	/experiments/knapen_AOT/AOT_stimuli/rescaled_final/2173_fw.mp4	0.0	311.6389482021332	
48	212.04810118675232	fix_post	2		12	46.0	2.5	/experiments/knapen_AOT/AOT_stimuli/rescaled_final/2173_fw.mp4	0.0	311.7554512023926	0.10001397132873535
49	212.14811515808105	fix_pre	0		120	47.0	2.5	/experiments/knapen_AOT/AOT_stimuli/rescaled_final/2123_fw.mp4	0.0	311.8554651737213	1.00016188621521
49	213.14827704429626	movie	1		242	47.0	2.5	/experiments/knapen_AOT/AOT_stimuli/rescaled_final/2123_fw.mp4	0.0	312.8556270599365	2.4920411109924316
49	213.5325231552124	pulse	1	t		47.0	2.5	/experiments/knapen_AOT/AOT_stimuli/rescaled_final/2123_fw.mp4	0.0	313.23987317085266	
49	215.13209700584412	pulse	1	t		47.0	2.5	/experiments/knapen_AOT/AOT_stimuli/rescaled_final/2123_fw.mp4	0.0	314.8394470214844	
49	215.6403181552887	fix_post	2		12	47.0	2.5	/experiments/knapen_AOT/AOT_stimuli/rescaled_final/2123_fw.mp4	0.0	315.34766817092896	0.09997987747192383
50	215.74029803276062	fix_pre	0		120	48.0	2.5	blank	1.0	315.4476480484009	1.0001399517059326
50	216.7323760986328	pulse	0	t		48.0	2.5	blank	1.0	316.43972611427307	
50	216.74043798446655	movie	1		301	48.0	2.5	blank	1.0	316.4477880001068	2.5087389945983887
50	218.33260202407837	pulse	1	t		48.0	2.5	blank	1.0	318.0399520397186	
50	219.24917697906494	fix_post	2		12	48.0	2.5	blank	1.0	318.9565269947052	0.10001015663146973
51	219.3491871356964	fix_pre	0		120	49.0	2.5	/experiments/knapen_AOT/AOT_stimuli/rescaled_final/0739_fw.mp4	0.0	319.05653715133667	1.0001640319824219
51	219.93281316757202	pulse	0	t		49.0	2.5	/experiments/knapen_AOT/AOT_stimuli/rescaled_final/0739_fw.mp4	0.0	319.6401631832123	
51	220.34935116767883	movie	1		245	49.0	2.5	/experiments/knapen_AOT/AOT_stimuli/rescaled_final/0739_fw.mp4	0.0	320.0567011833191	2.500391960144043
51	221.53315114974976	pulse	1	t		49.0	2.5	/experiments/knapen_AOT/AOT_stimuli/rescaled_final/0739_fw.mp4	0.0	321.24050116539	
51	222.84974312782288	fix_post	2		12	49.0	2.5	/experiments/knapen_AOT/AOT_stimuli/rescaled_final/0739_fw.mp4	0.0	322.55709314346313	0.09996294975280762
52	222.94970607757568	fix_pre	0		120	50.0	2.5	/experiments/knapen_AOT/AOT_stimuli/rescaled_final/1999_fw.mp4	0.0	322.65705609321594	1.00016188621521
52	223.1258511543274	pulse	0	t		50.0	2.5	/experiments/knapen_AOT/AOT_stimuli/rescaled_final/1999_fw.mp4	0.0	322.83320116996765	
52	223.9498679637909	movie	1		243	50.0	2.5	/experiments/knapen_AOT/AOT_stimuli/rescaled_final/1999_fw.mp4	0.0	323.65721797943115	2.5003950595855713
52	224.72527718544006	pulse	1	t		50.0	2.5	/experiments/knapen_AOT/AOT_stimuli/rescaled_final/1999_fw.mp4	0.0	324.4326272010803	
52	226.32535099983215	pulse	1	t		50.0	2.5	/experiments/knapen_AOT/AOT_stimuli/rescaled_final/1999_fw.mp4	0.0	326.0327010154724	
52	226.45026302337646	fix_post	2		12	50.0	2.5	/experiments/knapen_AOT/AOT_stimuli/rescaled_final/1999_fw.mp4	0.0	326.1576130390167	0.10000300407409668
53	226.55026602745056	fix_pre	0		120	51.0	2.5	/experiments/knapen_AOT/AOT_stimuli/rescaled_final/0330_fw.mp4	0.0	326.2576160430908	1.0001521110534668
53	227.55041813850403	movie	1		242	51.0	2.5	/experiments/knapen_AOT/AOT_stimuli/rescaled_final/0330_fw.mp4	0.0	327.2577681541443	2.4920198917388916
53	227.92559003829956	pulse	1	t		51.0	2.5	/experiments/knapen_AOT/AOT_stimuli/rescaled_final/0330_fw.mp4	0.0	327.6329400539398	
53	229.52604913711548	pulse	1	t		51.0	2.5	/experiments/knapen_AOT/AOT_stimuli/rescaled_final/0330_fw.mp4	0.0	329.23339915275574	
53	230.04243803024292	fix_post	2		12	51.0	2.5	/experiments/knapen_AOT/AOT_stimuli/rescaled_final/0330_fw.mp4	0.0	329.7497880458832	0.10004496574401855
54	230.14248299598694	fix_pre	0		119	52.0	2.5	/experiments/knapen_AOT/AOT_stimuli/rescaled_final/0392_fw.mp4	0.0	329.8498330116272	0.9917721748352051
54	231.12622904777527	pulse	0	t		52.0	2.5	/experiments/knapen_AOT/AOT_stimuli/rescaled_final/0392_fw.mp4	0.0	330.8335790634155	
54	231.13425517082214	movie	1		244	52.0	2.5	/experiments/knapen_AOT/AOT_stimuli/rescaled_final/0392_fw.mp4	0.0	330.8416051864624	2.508734941482544
54	232.73094701766968	pulse	1	t		52.0	2.5	/experiments/knapen_AOT/AOT_stimuli/rescaled_final/0392_fw.mp4	0.0	332.43829703330994	
54	233.6429901123047	fix_post	2		12	52.0	2.5	/experiments/knapen_AOT/AOT_stimuli/rescaled_final/0392_fw.mp4	0.0	333.35034012794495	0.10003399848937988
55	233.74302411079407	fix_pre	0		120	53.0	2.5	/experiments/knapen_AOT/AOT_stimuli/rescaled_final/1512_fw.mp4	0.0	333.4503741264343	1.000114917755127
55	234.32654905319214	pulse	0	t		53.0	2.5	/experiments/knapen_AOT/AOT_stimuli/rescaled_final/1512_fw.mp4	0.0	334.0338990688324	
55	234.7431390285492	movie	1		244	53.0	2.5	/experiments/knapen_AOT/AOT_stimuli/rescaled_final/1512_fw.mp4	0.0	334.45048904418945	2.5003631114959717
55	235.92692112922668	pulse	1	t		53.0	2.5	/experiments/knapen_AOT/AOT_stimuli/rescaled_final/1512_fw.mp4	0.0	335.63427114486694	
55	237.24350214004517	fix_post	2		12	53.0	2.5	/experiments/knapen_AOT/AOT_stimuli/rescaled_final/1512_fw.mp4	0.0	336.9508521556854	0.10001492500305176
56	237.34351706504822	fix_pre	0		120	54.0	2.5	blank	1.0	337.0508670806885	1.0001671314239502
56	237.52720999717712	pulse	0	t		54.0	2.5	blank	1.0	337.2345600128174	
56	238.34368419647217	movie	1		300	54.0	2.5	blank	1.0	338.0510342121124	2.500351905822754
56	239.12738800048828	pulse	1	t		54.0	2.5	blank	1.0	338.83473801612854	
56	240.72752714157104	pulse	1	t		54.0	2.5	blank	1.0	340.4348771572113	
56	240.84403610229492	fix_post	2		12	54.0	2.5	blank	1.0	340.5513861179352	0.1000669002532959
57	240.94410300254822	fix_pre	0		120	55.0	2.5	/experiments/knapen_AOT/AOT_stimuli/rescaled_final/0056_rv.mp4	0.0	340.6514530181885	1.000110149383545
57	241.94421315193176	movie	1		244	55.0	2.5	/experiments/knapen_AOT/AOT_stimuli/rescaled_final/0056_rv.mp4	0.0	341.651563167572	2.4920618534088135
57	242.32825899124146	pulse	1	t		55.0	2.5	/experiments/knapen_AOT/AOT_stimuli/rescaled_final/0056_rv.mp4	0.0	342.0356090068817	
57	243.92811512947083	pulse	1	t		55.0	2.5	/experiments/knapen_AOT/AOT_stimuli/rescaled_final/0056_rv.mp4	0.0	343.6354651451111	
57	244.43627500534058	fix_post	2		12	55.0	2.5	/experiments/knapen_AOT/AOT_stimuli/rescaled_final/0056_rv.mp4	0.0	344.14362502098083	0.10001301765441895
58	244.536288022995	fix_pre	0		120	56.0	2.5	/experiments/knapen_AOT/AOT_stimuli/rescaled_final/0045_fw.mp4	0.0	344.24363803863525	1.000115156173706
58	245.52839303016663	pulse	0	t		56.0	2.5	/experiments/knapen_AOT/AOT_stimuli/rescaled_final/0045_fw.mp4	0.0	345.2357430458069	
58	245.5364031791687	movie	1		245	56.0	2.5	/experiments/knapen_AOT/AOT_stimuli/rescaled_final/0045_fw.mp4	0.0	345.24375319480896	2.5087180137634277
58	247.12903213500977	pulse	1	t		56.0	2.5	/experiments/knapen_AOT/AOT_stimuli/rescaled_final/0045_fw.mp4	0.0	346.83638215065	
58	248.04512119293213	fix_post	2		12	56.0	2.5	/experiments/knapen_AOT/AOT_stimuli/rescaled_final/0045_fw.mp4	0.0	347.7524712085724	0.10004687309265137
59	248.14516806602478	fix_pre	0		120	57.0	2.5	/experiments/knapen_AOT/AOT_stimuli/rescaled_final/1200_rv.mp4	0.0	347.85251808166504	1.000128984451294
59	248.72880101203918	pulse	0	t		57.0	2.5	/experiments/knapen_AOT/AOT_stimuli/rescaled_final/1200_rv.mp4	0.0	348.43615102767944	
59	249.14529705047607	movie	1		243	57.0	2.5	/experiments/knapen_AOT/AOT_stimuli/rescaled_final/1200_rv.mp4	0.0	348.85264706611633	2.5004539489746094
59	250.32918214797974	pulse	1	t		57.0	2.5	/experiments/knapen_AOT/AOT_stimuli/rescaled_final/1200_rv.mp4	0.0	350.03653216362	
59	251.64575099945068	fix_post	2		12	57.0	2.5	/experiments/knapen_AOT/AOT_stimuli/rescaled_final/1200_rv.mp4	0.0	351.35310101509094	0.09991598129272461
60	251.7456669807434	fix_pre	0		120	58.0	2.5	/experiments/knapen_AOT/AOT_stimuli/rescaled_final/1956_fw.mp4	0.0	351.45301699638367	1.0001771450042725
60	251.92938017845154	pulse	0	t		58.0	2.5	/experiments/knapen_AOT/AOT_stimuli/rescaled_final/1956_fw.mp4	0.0	351.6367301940918	
60	252.74584412574768	movie	1		243	58.0	2.5	/experiments/knapen_AOT/AOT_stimuli/rescaled_final/1956_fw.mp4	0.0	352.45319414138794	2.5003628730773926
60	253.5294840335846	pulse	1	t		58.0	2.5	/experiments/knapen_AOT/AOT_stimuli/rescaled_final/1956_fw.mp4	0.0	353.23683404922485	
60	255.12961602210999	pulse	1	t		58.0	2.5	/experiments/knapen_AOT/AOT_stimuli/rescaled_final/1956_fw.mp4	0.0	354.83696603775024	
60	255.24620699882507	fix_post	2		12	58.0	2.5	/experiments/knapen_AOT/AOT_stimuli/rescaled_final/1956_fw.mp4	0.0	354.95355701446533	0.10003113746643066
61	255.3462381362915	fix_pre	0		120	59.0	2.5	/experiments/knapen_AOT/AOT_stimuli/rescaled_final/1986_rv.mp4	0.0	355.05358815193176	1.0001308917999268
61	256.34636902809143	movie	1		240	59.0	2.5	/experiments/knapen_AOT/AOT_stimuli/rescaled_final/1986_rv.mp4	0.0	356.0537190437317	2.4921071529388428
61	256.73035311698914	pulse	1	t		59.0	2.5	/experiments/knapen_AOT/AOT_stimuli/rescaled_final/1986_rv.mp4	0.0	356.4377031326294	
61	258.3304719924927	pulse	1	t		59.0	2.5	/experiments/knapen_AOT/AOT_stimuli/rescaled_final/1986_rv.mp4	0.0	358.03782200813293	
61	258.8384761810303	fix_post	2		12	59.0	2.5	/experiments/knapen_AOT/AOT_stimuli/rescaled_final/1986_rv.mp4	0.0	358.54582619667053	0.09995388984680176
62	258.9384300708771	fix_pre	0		120	60.0	2.5	/experiments/knapen_AOT/AOT_stimuli/rescaled_final/0354_rv.mp4	0.0	358.64578008651733	1.0002388954162598
62	259.93038415908813	pulse	0	t		60.0	2.5	/experiments/knapen_AOT/AOT_stimuli/rescaled_final/0354_rv.mp4	0.0	359.6377341747284	
62	259.93866896629333	movie	1		246	60.0	2.5	/experiments/knapen_AOT/AOT_stimuli/rescaled_final/0354_rv.mp4	0.0	359.6460189819336	2.508604049682617
62	261.53174805641174	pulse	1	t		60.0	2.5	/experiments/knapen_AOT/AOT_stimuli/rescaled_final/0354_rv.mp4	0.0	361.239098072052	
62	262.44727301597595	fix_post	2		12	60.0	2.5	/experiments/knapen_AOT/AOT_stimuli/rescaled_final/0354_rv.mp4	0.0	362.1546230316162	0.10005497932434082
63	262.5473279953003	fix_pre	0		120	61.0	2.5	/experiments/knapen_AOT/AOT_stimuli/rescaled_final/0639_fw.mp4	0.0	362.25467801094055	1.0001440048217773
63	263.13095808029175	pulse	0	t		61.0	2.5	/experiments/knapen_AOT/AOT_stimuli/rescaled_final/0639_fw.mp4	0.0	362.838308095932	
63	263.54747200012207	movie	1		245	61.0	2.5	/experiments/knapen_AOT/AOT_stimuli/rescaled_final/0639_fw.mp4	0.0	363.25482201576233	2.500349998474121
63	264.73131704330444	pulse	1	t		61.0	2.5	/experiments/knapen_AOT/AOT_stimuli/rescaled_final/0639_fw.mp4	0.0	364.4386670589447	
63	266.0478219985962	fix_post	2		12	61.0	2.5	/experiments/knapen_AOT/AOT_stimuli/rescaled_final/0639_fw.mp4	0.0	365.75517201423645	0.10000014305114746
64	266.14782214164734	fix_pre	0		120	62.0	2.5	blank	1.0	365.8551721572876	1.0001518726348877
64	266.33141112327576	pulse	0	t		62.0	2.5	blank	1.0	366.038761138916	
64	267.1479740142822	movie	1		300	62.0	2.5	blank	1.0	366.8553240299225	2.500394105911255
64	267.93154311180115	pulse	1	t		62.0	2.5	blank	1.0	367.6388931274414	
64	269.53185200691223	pulse	1	t		62.0	2.5	blank	1.0	369.2392020225525	
64	269.6483681201935	fix_post	2		12	62.0	2.5	blank	1.0	369.35571813583374	0.10001087188720703
65	269.7483789920807	fix_pre	0		119	63.0	2.5	/experiments/knapen_AOT/AOT_stimuli/rescaled_final/2019_rv.mp4	0.0	369.45572900772095	0.9918100833892822
65	270.74018907546997	movie	1		246	63.0	2.5	/experiments/knapen_AOT/AOT_stimuli/rescaled_final/2019_rv.mp4	0.0	370.44753909111023	2.500373125076294
65	271.132208108902	pulse	1	t		63.0	2.5	/experiments/knapen_AOT/AOT_stimuli/rescaled_final/2019_rv.mp4	0.0	370.83955812454224	
65	272.7324800491333	pulse	1	t		63.0	2.5	/experiments/knapen_AOT/AOT_stimuli/rescaled_final/2019_rv.mp4	0.0	372.43983006477356	
65	273.24056220054626	fix_post	2		12	63.0	2.5	/experiments/knapen_AOT/AOT_stimuli/rescaled_final/2019_rv.mp4	0.0	372.9479122161865	0.10003185272216797
66	273.34059405326843	fix_pre	0		120	64.0	2.5	/experiments/knapen_AOT/AOT_stimuli/rescaled_final/0816_rv.mp4	0.0	373.0479440689087	1.0001249313354492
66	274.3326029777527	pulse	0	t		64.0	2.5	/experiments/knapen_AOT/AOT_stimuli/rescaled_final/0816_rv.mp4	0.0	374.03995299339294	
66	274.3407189846039	movie	1		245	64.0	2.5	/experiments/knapen_AOT/AOT_stimuli/rescaled_final/0816_rv.mp4	0.0	374.04806900024414	2.508695125579834
66	275.93748116493225	pulse	1	t		64.0	2.5	/experiments/knapen_AOT/AOT_stimuli/rescaled_final/0816_rv.mp4	0.0	375.6448311805725	
66	276.8494141101837	fix_post	2		12	64.0	2.5	/experiments/knapen_AOT/AOT_stimuli/rescaled_final/0816_rv.mp4	0.0	376.556764125824	0.10002398490905762
67	276.9494380950928	fix_pre	0		120	65.0	2.5	/experiments/knapen_AOT/AOT_stimuli/rescaled_final/0318_rv.mp4	0.0	376.65678811073303	1.0001459121704102
67	277.53316712379456	pulse	0	t		65.0	2.5	/experiments/knapen_AOT/AOT_stimuli/rescaled_final/0318_rv.mp4	0.0	377.2405171394348	
67	277.9495840072632	movie	1		245	65.0	2.5	/experiments/knapen_AOT/AOT_stimuli/rescaled_final/0318_rv.mp4	0.0	377.65693402290344	2.500370979309082
67	279.1335370540619	pulse	1	t		65.0	2.5	/experiments/knapen_AOT/AOT_stimuli/rescaled_final/0318_rv.mp4	0.0	378.84088706970215	
67	280.44995498657227	fix_post	2		12	65.0	2.5	/experiments/knapen_AOT/AOT_stimuli/rescaled_final/0318_rv.mp4	0.0	380.1573050022125	0.10004115104675293
68	280.549996137619	fix_pre	0		120	66.0	2.5	/experiments/knapen_AOT/AOT_stimuli/rescaled_final/1554_fw.mp4	0.0	380.2573461532593	1.0001049041748047
68	280.7261061668396	pulse	0	t		66.0	2.5	/experiments/knapen_AOT/AOT_stimuli/rescaled_final/1554_fw.mp4	0.0	380.43345618247986	
68	281.5501010417938	movie	1		244	66.0	2.5	/experiments/knapen_AOT/AOT_stimuli/rescaled_final/1554_fw.mp4	0.0	381.2574510574341	2.5003950595855713
68	282.3263781070709	pulse	1	t		66.0	2.5	/experiments/knapen_AOT/AOT_stimuli/rescaled_final/1554_fw.mp4	0.0	382.0337281227112	
68	283.93408012390137	pulse	1	t		66.0	2.5	/experiments/knapen_AOT/AOT_stimuli/rescaled_final/1554_fw.mp4	0.0	383.6414301395416	
68	284.0504961013794	fix_post	2		12	66.0	2.5	/experiments/knapen_AOT/AOT_stimuli/rescaled_final/1554_fw.mp4	0.0	383.75784611701965	0.10002803802490234
69	284.1505241394043	fix_pre	0		120	67.0	2.5	/experiments/knapen_AOT/AOT_stimuli/rescaled_final/1982_fw.mp4	0.0	383.85787415504456	1.000166893005371
69	285.15069103240967	movie	1		243	67.0	2.5	/experiments/knapen_AOT/AOT_stimuli/rescaled_final/1982_fw.mp4	0.0	384.8580410480499	2.4920170307159424
69	285.52594017982483	pulse	1	t		67.0	2.5	/experiments/knapen_AOT/AOT_stimuli/rescaled_final/1982_fw.mp4	0.0	385.2332901954651	
69	287.12621116638184	pulse	1	t		67.0	2.5	/experiments/knapen_AOT/AOT_stimuli/rescaled_final/1982_fw.mp4	0.0	386.8335611820221	
69	287.6427080631256	fix_post	2		12	67.0	2.5	/experiments/knapen_AOT/AOT_stimuli/rescaled_final/1982_fw.mp4	0.0	387.35005807876587	0.10003805160522461
70	287.74274611473083	fix_pre	0		119	68.0	2.5	/experiments/knapen_AOT/AOT_stimuli/rescaled_final/0994_rv.mp4	0.0	387.4500961303711	0.9917800426483154
70	288.72646617889404	pulse	0	t		68.0	2.5	/experiments/knapen_AOT/AOT_stimuli/rescaled_final/0994_rv.mp4	0.0	388.4338161945343	
70	288.73452615737915	movie	1		245	68.0	2.5	/experiments/knapen_AOT/AOT_stimuli/rescaled_final/0994_rv.mp4	0.0	388.4418761730194	2.5087239742279053
70	290.32747316360474	pulse	1	t		68.0	2.5	/experiments/knapen_AOT/AOT_stimuli/rescaled_final/0994_rv.mp4	0.0	390.034823179245	
70	291.24325013160706	fix_post	2		12	68.0	2.5	/experiments/knapen_AOT/AOT_stimuli/rescaled_final/0994_rv.mp4	0.0	390.9506001472473	0.1000070571899414
71	291.343257188797	fix_pre	0		120	69.0	2.5	/experiments/knapen_AOT/AOT_stimuli/rescaled_final/2002_fw.mp4	0.0	391.05060720443726	1.0001609325408936
71	291.9268710613251	pulse	0	t		69.0	2.5	/experiments/knapen_AOT/AOT_stimuli/rescaled_final/2002_fw.mp4	0.0	391.63422107696533	
71	292.3434181213379	movie	1		244	69.0	2.5	/experiments/knapen_AOT/AOT_stimuli/rescaled_final/2002_fw.mp4	0.0	392.05076813697815	2.5003769397735596
71	293.52721118927	pulse	1	t		69.0	2.5	/experiments/knapen_AOT/AOT_stimuli/rescaled_final/2002_fw.mp4	0.0	393.2345612049103	
71	294.84379506111145	fix_post	2		12	69.0	2.5	/experiments/knapen_AOT/AOT_stimuli/rescaled_final/2002_fw.mp4	0.0	394.5511450767517	0.10008502006530762
72	294.94388008117676	fix_pre	0		120	70.0	2.5	blank	1.0	394.651230096817	1.0001039505004883
72	295.12738513946533	pulse	0	t		70.0	2.5	blank	1.0	394.8347351551056	
72	295.94398403167725	movie	1		300	70.0	2.5	blank	1.0	395.6513340473175	2.5003509521484375
72	296.72756719589233	pulse	1	t		70.0	2.5	blank	1.0	396.4349172115326	
72	298.32785415649414	pulse	1	t		70.0	2.5	blank	1.0	398.0352041721344	
72	298.4443349838257	fix_post	2		12	70.0	2.5	blank	1.0	398.15168499946594	0.09998917579650879
73	298.5443241596222	fix_pre	0		120	71.0	2.5	/experiments/knapen_AOT/AOT_stimuli/rescaled_final/0270_fw.mp4	0.0	398.25167417526245	1.0001518726348877
73	299.5444760322571	movie	1		243	71.0	2.5	/experiments/knapen_AOT/AOT_stimuli/rescaled_final/0270_fw.mp4	0.0	399.25182604789734	2.4920380115509033
73	299.93002915382385	pulse	1	t		71.0	2.5	/experiments/knapen_AOT/AOT_stimuli/rescaled_final/0270_fw.mp4	0.0	399.6373791694641	
73	301.52836418151855	pulse	1	t		71.0	2.5	/experiments/knapen_AOT/AOT_stimuli/rescaled_final/0270_fw.mp4	0.0	401.2357141971588	
73	302.036514043808	fix_post	2		12	71.0	2.5	/experiments/knapen_AOT/AOT_stimuli/rescaled_final/0270_fw.mp4	0.0	401.74386405944824	0.1000521183013916
74	302.1365661621094	fix_pre	0		120	72.0	2.5	/experiments/knapen_AOT/AOT_stimuli/rescaled_final/0864_rv.mp4	0.0	401.84391617774963	1.0001869201660156
74	303.1285080909729	pulse	0	t		72.0	2.5	/experiments/knapen_AOT/AOT_stimuli/rescaled_final/0864_rv.mp4	0.0	402.83585810661316	
74	303.1367530822754	movie	1		246	72.0	2.5	/experiments/knapen_AOT/AOT_stimuli/rescaled_final/0864_rv.mp4	0.0	402.84410309791565	2.5086278915405273
74	304.73031997680664	pulse	1	t		72.0	2.5	/experiments/knapen_AOT/AOT_stimuli/rescaled_final/0864_rv.mp4	0.0	404.4376699924469	
74	305.6453809738159	fix_post	2		12	72.0	2.5	/experiments/knapen_AOT/AOT_stimuli/rescaled_final/0864_rv.mp4	0.0	405.3527309894562	0.10003805160522461
75	305.74541902542114	fix_pre	0		120	73.0	2.5	/experiments/knapen_AOT/AOT_stimuli/rescaled_final/0944_fw.mp4	0.0	405.4527690410614	1.0001821517944336
75	306.3290681838989	pulse	0	t		73.0	2.5	/experiments/knapen_AOT/AOT_stimuli/rescaled_final/0944_fw.mp4	0.0	406.0364181995392	
75	306.7456011772156	movie	1		243	73.0	2.5	/experiments/knapen_AOT/AOT_stimuli/rescaled_final/0944_fw.mp4	0.0	406.45295119285583	2.500319004058838
75	307.92932319641113	pulse	1	t		73.0	2.5	/experiments/knapen_AOT/AOT_stimuli/rescaled_final/0944_fw.mp4	0.0	407.6366732120514	
75	309.2459201812744	fix_post	2		12	73.0	2.5	/experiments/knapen_AOT/AOT_stimuli/rescaled_final/0944_fw.mp4	0.0	408.9532701969147	0.10001087188720703
76	309.3459310531616	fix_pre	0		120	74.0	2.5	/experiments/knapen_AOT/AOT_stimuli/rescaled_final/0318_fw.mp4	0.0	409.0532810688019	1.0001640319824219
76	309.52946305274963	pulse	0	t		74.0	2.5	/experiments/knapen_AOT/AOT_stimuli/rescaled_final/0318_fw.mp4	0.0	409.2368130683899	
76	310.34609508514404	movie	1		244	74.0	2.5	/experiments/knapen_AOT/AOT_stimuli/rescaled_final/0318_fw.mp4	0.0	410.0534451007843	2.5003631114959717
76	311.1297891139984	pulse	1	t		74.0	2.5	/experiments/knapen_AOT/AOT_stimuli/rescaled_final/0318_fw.mp4	0.0	410.8371391296387	
76	312.73011207580566	pulse	1	t		74.0	2.5	/experiments/knapen_AOT/AOT_stimuli/rescaled_final/0318_fw.mp4	0.0	412.4374620914459	
76	312.84645819664	fix_post	2		12	74.0	2.5	/experiments/knapen_AOT/AOT_stimuli/rescaled_final/0318_fw.mp4	0.0	412.5538082122803	0.1000218391418457
77	312.94648003578186	fix_pre	0		120	75.0	2.5	/experiments/knapen_AOT/AOT_stimuli/rescaled_final/0987_rv.mp4	0.0	412.6538300514221	1.0001590251922607
77	313.9466390609741	movie	1		243	75.0	2.5	/experiments/knapen_AOT/AOT_stimuli/rescaled_final/0987_rv.mp4	0.0	413.6539890766144	2.4920499324798584
77	314.3316991329193	pulse	1	t		75.0	2.5	/experiments/knapen_AOT/AOT_stimuli/rescaled_final/0987_rv.mp4	0.0	414.03904914855957	
77	315.93053007125854	pulse	1	t		75.0	2.5	/experiments/knapen_AOT/AOT_stimuli/rescaled_final/0987_rv.mp4	0.0	415.6378800868988	
77	316.438688993454	fix_post	2		12	75.0	2.5	/experiments/knapen_AOT/AOT_stimuli/rescaled_final/0987_rv.mp4	0.0	416.14603900909424	0.10002398490905762
78	316.53871297836304	fix_pre	0		118	76.0	2.5	/experiments/knapen_AOT/AOT_stimuli/rescaled_final/0815_rv.mp4	0.0	416.2460629940033	1.0001111030578613
78	317.53076100349426	pulse	0	t		76.0	2.5	/experiments/knapen_AOT/AOT_stimuli/rescaled_final/0815_rv.mp4	0.0	417.2381110191345	
78	317.5388240814209	movie	1		245	76.0	2.5	/experiments/knapen_AOT/AOT_stimuli/rescaled_final/0815_rv.mp4	0.0	417.24617409706116	2.5087270736694336
78	319.13518500328064	pulse	1	t		76.0	2.5	/experiments/knapen_AOT/AOT_stimuli/rescaled_final/0815_rv.mp4	0.0	418.8425350189209	
78	320.04755115509033	fix_post	2		12	76.0	2.5	/experiments/knapen_AOT/AOT_stimuli/rescaled_final/0815_rv.mp4	0.0	419.7549011707306	0.0999898910522461
79	320.1475410461426	fix_pre	0		120	77.0	2.5	blank	1.0	419.85489106178284	1.0001959800720215
79	320.7312071323395	pulse	0	t		77.0	2.5	blank	1.0	420.43855714797974	
79	321.1477370262146	movie	1		300	77.0	2.5	blank	1.0	420.85508704185486	2.500396966934204
79	322.3314621448517	pulse	1	t		77.0	2.5	blank	1.0	422.03881216049194	
79	323.6481339931488	fix_post	2		12	77.0	2.5	blank	1.0	423.35548400878906	0.09998297691345215
80	323.74811697006226	fix_pre	0		120	78.0	2.5	/experiments/knapen_AOT/AOT_stimuli/rescaled_final/2000_fw.mp4	0.0	423.4554669857025	1.0001540184020996
80	323.93176007270813	pulse	0	t		78.0	2.5	/experiments/knapen_AOT/AOT_stimuli/rescaled_final/2000_fw.mp4	0.0	423.6391100883484	
80	324.74827098846436	movie	1		244	78.0	2.5	/experiments/knapen_AOT/AOT_stimuli/rescaled_final/2000_fw.mp4	0.0	424.4556210041046	2.5003511905670166
80	325.5319881439209	pulse	1	t		78.0	2.5	/experiments/knapen_AOT/AOT_stimuli/rescaled_final/2000_fw.mp4	0.0	425.23933815956116	
80	327.1323161125183	pulse	1	t		78.0	2.5	/experiments/knapen_AOT/AOT_stimuli/rescaled_final/2000_fw.mp4	0.0	426.83966612815857	
80	327.2486221790314	fix_post	2		12	78.0	2.5	/experiments/knapen_AOT/AOT_stimuli/rescaled_final/2000_fw.mp4	0.0	426.95597219467163	0.10003399848937988
81	327.34865617752075	fix_pre	0		120	79.0	2.5	/experiments/knapen_AOT/AOT_stimuli/rescaled_final/0944_fw.mp4	0.0	427.056006193161	1.0001509189605713
81	328.3488070964813	movie	1		242	79.0	2.5	/experiments/knapen_AOT/AOT_stimuli/rescaled_final/0944_fw.mp4	0.0	428.0561571121216	2.4920361042022705
81	328.7329080104828	pulse	1	t		79.0	2.5	/experiments/knapen_AOT/AOT_stimuli/rescaled_final/0944_fw.mp4	0.0	428.44025802612305	
81	330.3253481388092	pulse	1	t		79.0	2.5	/experiments/knapen_AOT/AOT_stimuli/rescaled_final/0944_fw.mp4	0.0	430.03269815444946	
81	330.8408432006836	fix_post	2		12	79.0	2.5	/experiments/knapen_AOT/AOT_stimuli/rescaled_final/0944_fw.mp4	0.0	430.54819321632385	0.1000218391418457
82	330.94086503982544	fix_pre	0		120	80.0	2.5	/experiments/knapen_AOT/AOT_stimuli/rescaled_final/1298_rv.mp4	0.0	430.6482150554657	1.0001239776611328
82	331.92530608177185	pulse	0	t		80.0	2.5	/experiments/knapen_AOT/AOT_stimuli/rescaled_final/1298_rv.mp4	0.0	431.6326560974121	
82	331.9409890174866	movie	1		245	80.0	2.5	/experiments/knapen_AOT/AOT_stimuli/rescaled_final/1298_rv.mp4	0.0	431.64833903312683	2.508742094039917
82	333.5335741043091	pulse	1	t		80.0	2.5	/experiments/knapen_AOT/AOT_stimuli/rescaled_final/1298_rv.mp4	0.0	433.24092411994934	
82	334.4497311115265	fix_post	2		12	80.0	2.5	/experiments/knapen_AOT/AOT_stimuli/rescaled_final/1298_rv.mp4	0.0	434.15708112716675	0.10000205039978027
83	334.54973316192627	fix_pre	0		120	81.0	2.5	/experiments/knapen_AOT/AOT_stimuli/rescaled_final/1778_rv.mp4	0.0	434.2570831775665	1.0001800060272217
83	335.12604904174805	pulse	0	t		81.0	2.5	/experiments/knapen_AOT/AOT_stimuli/rescaled_final/1778_rv.mp4	0.0	434.8333990573883	
83	335.5499131679535	movie	1		244	81.0	2.5	/experiments/knapen_AOT/AOT_stimuli/rescaled_final/1778_rv.mp4	0.0	435.25726318359375	2.5003209114074707
83	336.7265830039978	pulse	1	t		81.0	2.5	/experiments/knapen_AOT/AOT_stimuli/rescaled_final/1778_rv.mp4	0.0	436.43393301963806	
83	338.05023407936096	fix_post	2		12	81.0	2.5	/experiments/knapen_AOT/AOT_stimuli/rescaled_final/1778_rv.mp4	0.0	437.7575840950012	0.10000991821289062
84	338.15024399757385	fix_pre	0		120	82.0	2.5	/experiments/knapen_AOT/AOT_stimuli/rescaled_final/0095_fw.mp4	0.0	437.8575940132141	1.0001721382141113
84	338.3256080150604	pulse	0	t		82.0	2.5	/experiments/knapen_AOT/AOT_stimuli/rescaled_final/0095_fw.mp4	0.0	438.0329580307007	
84	339.15041613578796	movie	1		245	82.0	2.5	/experiments/knapen_AOT/AOT_stimuli/rescaled_final/0095_fw.mp4	0.0	438.8577661514282	2.500462055206299
84	339.92566108703613	pulse	1	t		82.0	2.5	/experiments/knapen_AOT/AOT_stimuli/rescaled_final/0095_fw.mp4	0.0	439.6330111026764	
84	341.52605414390564	pulse	1	t		82.0	2.5	/experiments/knapen_AOT/AOT_stimuli/rescaled_final/0095_fw.mp4	0.0	441.2334041595459	
84	341.65087819099426	fix_post	2		12	82.0	2.5	/experiments/knapen_AOT/AOT_stimuli/rescaled_final/0095_fw.mp4	0.0	441.3582282066345	0.09990096092224121
85	341.7507791519165	fix_pre	0		120	83.0	2.5	blank	1.0	441.45812916755676	1.0001728534698486
85	342.75095200538635	movie	1		299	83.0	2.5	blank	1.0	442.4583020210266	2.492065191268921
85	343.1262481212616	pulse	1	t		83.0	2.5	blank	1.0	442.83359813690186	
85	344.72640919685364	pulse	1	t		83.0	2.5	blank	1.0	444.4337592124939	
85	345.2430171966553	fix_post	2		12	83.0	2.5	blank	1.0	444.95036721229553	0.0999898910522461
87	345.3430070877075	stim	0		1716					445.0503571033478	14.30221700668335
87	346.3266110420227	pulse	0	t						446.03396105766296	
87	347.9269440174103	pulse	0	t						447.63429403305054	
87	349.5271899700165	pulse	0	t						449.23453998565674	
87	351.1273581981659	pulse	0	t						450.83470821380615	
87	352.72754311561584	pulse	0	t						452.4348931312561	
87	354.3278741836548	pulse	0	t						454.03522419929504	
87	355.92803502082825	pulse	0	t						455.6353850364685	
87	357.52833914756775	pulse	0	t						457.235689163208	
87	359.128545999527	pulse	0	t						458.83589601516724	
