trial_nr	onset	event_type	phase	response	nr_frames	movie_index	movie_duration	movie_file	blank	onset_abs	duration
0	0.10830402374267578	stim	0		56					37.44403100013733	0.46656298637390137
0	0.5669100284576416	response	0	space						37.902637004852295	
1	0.5748670101165771	stim	0		4928					37.91059398651123	41.066444873809814
1	41.63745999336243	pulse	0	t						78.97318696975708	
1	41.64131188392639	stim	1		1717					78.97703886032104	14.308308124542236
1	43.22489786148071	pulse	1	t						80.56062483787537	
1	44.8248188495636	pulse	1	t						82.16054582595825	
1	46.42482805252075	pulse	1	t						83.7605550289154	
1	48.02487301826477	pulse	1	t						85.36059999465942	
1	49.624881982803345	pulse	1	t						86.960608959198	
1	51.2247428894043	pulse	1	t						88.56046986579895	
1	52.824782848358154	pulse	1	t						90.16050982475281	
1	54.424721002578735	pulse	1	t						91.76044797897339	
2	55.94962000846863	fix_pre	0		10	0.0	2.5	/experiments/AOT/AOT_stimuli/rescaled_final/0804_fw.mp4	0.0	93.28534698486328	0.08342194557189941
2	56.024739027023315	pulse	0	t		0.0	2.5	/experiments/AOT/AOT_stimuli/rescaled_final/0804_fw.mp4	0.0	93.36046600341797	
2	56.03304195404053	movie	1		244	0.0	2.5	/experiments/AOT/AOT_stimuli/rescaled_final/0804_fw.mp4	0.0	93.36876893043518	2.5082900524139404
2	57.62446093559265	pulse	1	t		0.0	2.5	/experiments/AOT/AOT_stimuli/rescaled_final/0804_fw.mp4	0.0	94.9601879119873	
2	58.54133200645447	fix_post	2		12	0.0	2.5	/experiments/AOT/AOT_stimuli/rescaled_final/0804_fw.mp4	0.0	95.87705898284912	0.09996604919433594
3	58.641298055648804	fix_pre	0		120	1.0	2.5	/experiments/AOT/AOT_stimuli/rescaled_final/1758_rv.mp4	0.0	95.97702503204346	1.000058889389038
3	59.22482085227966	pulse	0	t		1.0	2.5	/experiments/AOT/AOT_stimuli/rescaled_final/1758_rv.mp4	0.0	96.56054782867432	
3	59.64135694503784	movie	1		245	1.0	2.5	/experiments/AOT/AOT_stimuli/rescaled_final/1758_rv.mp4	0.0	96.9770839214325	2.500054121017456
3	60.82484197616577	pulse	1	t		1.0	2.5	/experiments/AOT/AOT_stimuli/rescaled_final/1758_rv.mp4	0.0	98.16056895256042	
3	62.1414110660553	fix_post	2		12	1.0	2.5	/experiments/AOT/AOT_stimuli/rescaled_final/1758_rv.mp4	0.0	99.47713804244995	0.09949779510498047
4	62.24090886116028	fix_pre	0		120	2.0	2.5	/experiments/AOT/AOT_stimuli/rescaled_final/0180_rv.mp4	0.0	99.57663583755493	1.0004191398620605
4	62.424784898757935	pulse	0	t		2.0	2.5	/experiments/AOT/AOT_stimuli/rescaled_final/0180_rv.mp4	0.0	99.76051187515259	
4	63.24132800102234	movie	1		246	2.0	2.5	/experiments/AOT/AOT_stimuli/rescaled_final/0180_rv.mp4	0.0	100.57705497741699	2.4995908737182617
4	64.02474689483643	pulse	1	t		2.0	2.5	/experiments/AOT/AOT_stimuli/rescaled_final/0180_rv.mp4	0.0	101.36047387123108	
4	65.63319301605225	pulse	1	t		2.0	2.5	/experiments/AOT/AOT_stimuli/rescaled_final/0180_rv.mp4	0.0	102.9689199924469	
4	65.7409188747406	fix_post	2		12	2.0	2.5	/experiments/AOT/AOT_stimuli/rescaled_final/0180_rv.mp4	0.0	103.07664585113525	0.099945068359375
5	65.84086394309998	fix_pre	0		120	3.0	2.5	/experiments/AOT/AOT_stimuli/rescaled_final/0687_rv.mp4	0.0	103.17659091949463	1.0000760555267334
5	66.84093999862671	movie	1		245	3.0	2.5	/experiments/AOT/AOT_stimuli/rescaled_final/0687_rv.mp4	0.0	104.17666697502136	2.500372886657715
5	67.22429394721985	pulse	1	t		3.0	2.5	/experiments/AOT/AOT_stimuli/rescaled_final/0687_rv.mp4	0.0	104.5600209236145	
5	68.82467293739319	pulse	1	t		3.0	2.5	/experiments/AOT/AOT_stimuli/rescaled_final/0687_rv.mp4	0.0	106.16039991378784	
5	69.34131288528442	fix_post	2		12	3.0	2.5	/experiments/AOT/AOT_stimuli/rescaled_final/0687_rv.mp4	0.0	106.67703986167908	0.10002803802490234
6	69.44134092330933	fix_pre	0		119	4.0	2.5	/experiments/AOT/AOT_stimuli/rescaled_final/1183_fw.mp4	0.0	106.77706789970398	0.9917221069335938
6	70.42476391792297	pulse	0	t		4.0	2.5	/experiments/AOT/AOT_stimuli/rescaled_final/1183_fw.mp4	0.0	107.76049089431763	
6	70.43306303024292	movie	1		245	4.0	2.5	/experiments/AOT/AOT_stimuli/rescaled_final/1183_fw.mp4	0.0	107.76879000663757	2.5082409381866455
6	72.02488589286804	pulse	1	t		4.0	2.5	/experiments/AOT/AOT_stimuli/rescaled_final/1183_fw.mp4	0.0	109.3606128692627	
6	72.94130396842957	fix_post	2		12	4.0	2.5	/experiments/AOT/AOT_stimuli/rescaled_final/1183_fw.mp4	0.0	110.27703094482422	0.09996509552001953
7	73.04126906394958	fix_pre	0		120	5.0	2.5	blank	1.0	110.37699604034424	1.000006914138794
7	73.62471604347229	pulse	0	t		5.0	2.5	blank	1.0	110.96044301986694	
7	74.04127597808838	movie	1		300	5.0	2.5	blank	1.0	111.37700295448303	2.4999709129333496
7	75.22469902038574	pulse	1	t		5.0	2.5	blank	1.0	112.5604259967804	
7	76.54124689102173	fix_post	2		12	5.0	2.5	blank	1.0	113.87697386741638	0.09997200965881348
8	76.64121890068054	fix_pre	0		120	6.0	2.5	/experiments/AOT/AOT_stimuli/rescaled_final/1751_rv.mp4	0.0	113.9769458770752	1.0000381469726562
8	76.82470202445984	pulse	0	t		6.0	2.5	/experiments/AOT/AOT_stimuli/rescaled_final/1751_rv.mp4	0.0	114.16042900085449	
8	77.6412570476532	movie	1		244	6.0	2.5	/experiments/AOT/AOT_stimuli/rescaled_final/1751_rv.mp4	0.0	114.97698402404785	2.499915838241577
8	78.42463898658752	pulse	1	t		6.0	2.5	/experiments/AOT/AOT_stimuli/rescaled_final/1751_rv.mp4	0.0	115.76036596298218	
8	80.02480387687683	pulse	1	t		6.0	2.5	/experiments/AOT/AOT_stimuli/rescaled_final/1751_rv.mp4	0.0	117.36053085327148	
8	80.14117288589478	fix_post	2		12	6.0	2.5	/experiments/AOT/AOT_stimuli/rescaled_final/1751_rv.mp4	0.0	117.47689986228943	0.10005712509155273
9	80.24123001098633	fix_pre	0		120	7.0	2.5	/experiments/AOT/AOT_stimuli/rescaled_final/0699_fw.mp4	0.0	117.57695698738098	1.0
9	81.24123001098633	movie	1		244	7.0	2.5	/experiments/AOT/AOT_stimuli/rescaled_final/0699_fw.mp4	0.0	118.57695698738098	2.499937057495117
9	81.62501788139343	pulse	1	t		7.0	2.5	/experiments/AOT/AOT_stimuli/rescaled_final/0699_fw.mp4	0.0	118.96074485778809	
9	83.22467398643494	pulse	1	t		7.0	2.5	/experiments/AOT/AOT_stimuli/rescaled_final/0699_fw.mp4	0.0	120.56040096282959	
9	83.74116706848145	fix_post	2		12	7.0	2.5	/experiments/AOT/AOT_stimuli/rescaled_final/0699_fw.mp4	0.0	121.0768940448761	0.10002589225769043
10	83.84119296073914	fix_pre	0		119	8.0	2.5	/experiments/AOT/AOT_stimuli/rescaled_final/0961_rv.mp4	0.0	121.17691993713379	0.991671085357666
10	84.82466101646423	pulse	0	t		8.0	2.5	/experiments/AOT/AOT_stimuli/rescaled_final/0961_rv.mp4	0.0	122.16038799285889	
10	84.8328640460968	movie	1		247	8.0	2.5	/experiments/AOT/AOT_stimuli/rescaled_final/0961_rv.mp4	0.0	122.16859102249146	2.508492946624756
10	86.42429089546204	pulse	1	t		8.0	2.5	/experiments/AOT/AOT_stimuli/rescaled_final/0961_rv.mp4	0.0	123.76001787185669	
10	87.34135699272156	fix_post	2		12	8.0	2.5	/experiments/AOT/AOT_stimuli/rescaled_final/0961_rv.mp4	0.0	124.67708396911621	0.10006093978881836
11	87.44141793251038	fix_pre	0		120	9.0	2.5	/experiments/AOT/AOT_stimuli/rescaled_final/1677_fw.mp4	0.0	124.77714490890503	0.9997620582580566
11	88.02467489242554	pulse	0	t		9.0	2.5	/experiments/AOT/AOT_stimuli/rescaled_final/1677_fw.mp4	0.0	125.36040186882019	
11	88.44117999076843	movie	1		245	9.0	2.5	/experiments/AOT/AOT_stimuli/rescaled_final/1677_fw.mp4	0.0	125.77690696716309	2.4996910095214844
11	89.62468004226685	pulse	1	t		9.0	2.5	/experiments/AOT/AOT_stimuli/rescaled_final/1677_fw.mp4	0.0	126.9604070186615	
11	90.94087100028992	fix_post	2		12	9.0	2.5	/experiments/AOT/AOT_stimuli/rescaled_final/1677_fw.mp4	0.0	128.27659797668457	0.10027289390563965
12	91.04114389419556	fix_pre	0		120	10.0	2.5	/experiments/AOT/AOT_stimuli/rescaled_final/0722_fw.mp4	0.0	128.3768708705902	0.9999921321868896
12	91.22454500198364	pulse	0	t		10.0	2.5	/experiments/AOT/AOT_stimuli/rescaled_final/0722_fw.mp4	0.0	128.5602719783783	
12	92.04113602638245	movie	1		244	10.0	2.5	/experiments/AOT/AOT_stimuli/rescaled_final/0722_fw.mp4	0.0	129.3768630027771	2.500018835067749
12	92.8245918750763	pulse	1	t		10.0	2.5	/experiments/AOT/AOT_stimuli/rescaled_final/0722_fw.mp4	0.0	130.16031885147095	
12	94.4246768951416	pulse	1	t		10.0	2.5	/experiments/AOT/AOT_stimuli/rescaled_final/0722_fw.mp4	0.0	131.76040387153625	
12	94.5411548614502	fix_post	2		12	10.0	2.5	/experiments/AOT/AOT_stimuli/rescaled_final/0722_fw.mp4	0.0	131.87688183784485	0.09999203681945801
13	94.64114689826965	fix_pre	0		120	11.0	2.5	/experiments/AOT/AOT_stimuli/rescaled_final/0350_fw.mp4	0.0	131.9768738746643	0.9999401569366455
13	95.6410870552063	movie	1		242	11.0	2.5	/experiments/AOT/AOT_stimuli/rescaled_final/0350_fw.mp4	0.0	132.97681403160095	2.499987840652466
13	96.02423691749573	pulse	1	t		11.0	2.5	/experiments/AOT/AOT_stimuli/rescaled_final/0350_fw.mp4	0.0	133.35996389389038	
13	97.62463688850403	pulse	1	t		11.0	2.5	/experiments/AOT/AOT_stimuli/rescaled_final/0350_fw.mp4	0.0	134.96036386489868	
13	98.14107489585876	fix_post	2		12	11.0	2.5	/experiments/AOT/AOT_stimuli/rescaled_final/0350_fw.mp4	0.0	135.47680187225342	0.10006594657897949
14	98.24114084243774	fix_pre	0		119	12.0	2.5	/experiments/AOT/AOT_stimuli/rescaled_final/1942_fw.mp4	0.0	135.5768678188324	0.9915950298309326
14	99.22459602355957	pulse	0	t		12.0	2.5	/experiments/AOT/AOT_stimuli/rescaled_final/1942_fw.mp4	0.0	136.56032299995422	
14	99.23273587226868	movie	1		245	12.0	2.5	/experiments/AOT/AOT_stimuli/rescaled_final/1942_fw.mp4	0.0	136.56846284866333	2.5083930492401123
14	100.82402086257935	pulse	1	t		12.0	2.5	/experiments/AOT/AOT_stimuli/rescaled_final/1942_fw.mp4	0.0	138.159747838974	
14	101.74112892150879	fix_post	2		12	12.0	2.5	/experiments/AOT/AOT_stimuli/rescaled_final/1942_fw.mp4	0.0	139.07685589790344	0.09997701644897461
15	101.84110593795776	fix_pre	0		120	13.0	2.5	/experiments/AOT/AOT_stimuli/rescaled_final/2069_fw.mp4	0.0	139.17683291435242	1.0001220703125
15	102.42456793785095	pulse	0	t		13.0	2.5	/experiments/AOT/AOT_stimuli/rescaled_final/2069_fw.mp4	0.0	139.7602949142456	
15	102.84122800827026	movie	1		245	13.0	2.5	/experiments/AOT/AOT_stimuli/rescaled_final/2069_fw.mp4	0.0	140.17695498466492	2.4998538494110107
15	104.02464389801025	pulse	1	t		13.0	2.5	/experiments/AOT/AOT_stimuli/rescaled_final/2069_fw.mp4	0.0	141.3603708744049	
15	105.34108185768127	fix_post	2		12	13.0	2.5	/experiments/AOT/AOT_stimuli/rescaled_final/2069_fw.mp4	0.0	142.67680883407593	0.0999610424041748
16	105.44104290008545	fix_pre	0		120	14.0	2.5	blank	1.0	142.7767698764801	1.0000081062316895
16	105.62456893920898	pulse	0	t		14.0	2.5	blank	1.0	142.96029591560364	
16	106.44105100631714	movie	1		300	14.0	2.5	blank	1.0	143.7767779827118	2.500058889389038
16	107.22458386421204	pulse	1	t		14.0	2.5	blank	1.0	144.5603108406067	
16	108.82456588745117	pulse	1	t		14.0	2.5	blank	1.0	146.16029286384583	
16	108.94110989570618	fix_post	2		12	14.0	2.5	blank	1.0	146.27683687210083	0.09999299049377441
17	109.04110288619995	fix_pre	0		120	15.0	2.5	/experiments/AOT/AOT_stimuli/rescaled_final/0262_rv.mp4	0.0	146.3768298625946	0.9999420642852783
17	110.04104495048523	movie	1		247	15.0	2.5	/experiments/AOT/AOT_stimuli/rescaled_final/0262_rv.mp4	0.0	147.37677192687988	2.499988079071045
17	110.42483305931091	pulse	1	t		15.0	2.5	/experiments/AOT/AOT_stimuli/rescaled_final/0262_rv.mp4	0.0	147.76056003570557	
17	112.02453899383545	pulse	1	t		15.0	2.5	/experiments/AOT/AOT_stimuli/rescaled_final/0262_rv.mp4	0.0	149.3602659702301	
17	112.54103302955627	fix_post	2		12	15.0	2.5	/experiments/AOT/AOT_stimuli/rescaled_final/0262_rv.mp4	0.0	149.87676000595093	0.10000491142272949
18	112.641037940979	fix_pre	0		119	16.0	2.5	/experiments/AOT/AOT_stimuli/rescaled_final/1264_fw.mp4	0.0	149.97676491737366	0.9916889667510986
18	113.62449193000793	pulse	0	t		16.0	2.5	/experiments/AOT/AOT_stimuli/rescaled_final/1264_fw.mp4	0.0	150.9602189064026	
18	113.6327269077301	movie	1		245	16.0	2.5	/experiments/AOT/AOT_stimuli/rescaled_final/1264_fw.mp4	0.0	150.96845388412476	2.5082831382751465
18	115.22412204742432	pulse	1	t		16.0	2.5	/experiments/AOT/AOT_stimuli/rescaled_final/1264_fw.mp4	0.0	152.55984902381897	
18	116.14101004600525	fix_post	2		12	16.0	2.5	/experiments/AOT/AOT_stimuli/rescaled_final/1264_fw.mp4	0.0	153.4767370223999	0.1000368595123291
19	116.24104690551758	fix_pre	0		120	17.0	2.5	/experiments/AOT/AOT_stimuli/rescaled_final/1842_rv.mp4	0.0	153.57677388191223	0.999946117401123
19	116.82454204559326	pulse	0	t		17.0	2.5	/experiments/AOT/AOT_stimuli/rescaled_final/1842_rv.mp4	0.0	154.16026902198792	
19	117.2409930229187	movie	1		242	17.0	2.5	/experiments/AOT/AOT_stimuli/rescaled_final/1842_rv.mp4	0.0	154.57671999931335	2.5000689029693604
19	118.42467904090881	pulse	1	t		17.0	2.5	/experiments/AOT/AOT_stimuli/rescaled_final/1842_rv.mp4	0.0	155.76040601730347	
19	119.74106192588806	fix_post	2		12	17.0	2.5	/experiments/AOT/AOT_stimuli/rescaled_final/1842_rv.mp4	0.0	157.07678890228271	0.09991097450256348
20	119.84097290039062	fix_pre	0		120	18.0	2.5	/experiments/AOT/AOT_stimuli/rescaled_final/0262_fw.mp4	0.0	157.17669987678528	1.0000851154327393
20	120.024484872818	pulse	0	t		18.0	2.5	/experiments/AOT/AOT_stimuli/rescaled_final/0262_fw.mp4	0.0	157.36021184921265	
20	120.84105801582336	movie	1		250	18.0	2.5	/experiments/AOT/AOT_stimuli/rescaled_final/0262_fw.mp4	0.0	158.17678499221802	2.500119924545288
20	121.62403607368469	pulse	1	t		18.0	2.5	/experiments/AOT/AOT_stimuli/rescaled_final/0262_fw.mp4	0.0	158.95976305007935	
20	123.22462892532349	pulse	1	t		18.0	2.5	/experiments/AOT/AOT_stimuli/rescaled_final/0262_fw.mp4	0.0	160.56035590171814	
20	123.34117794036865	fix_post	2		12	18.0	2.5	/experiments/AOT/AOT_stimuli/rescaled_final/0262_fw.mp4	0.0	160.6769049167633	0.1000211238861084
21	123.44119906425476	fix_pre	0		120	19.0	2.5	blank	1.0	160.7769260406494	1.000074863433838
21	124.4412739276886	movie	1		300	19.0	2.5	blank	1.0	161.77700090408325	2.4996891021728516
21	124.82479596138	pulse	1	t		19.0	2.5	blank	1.0	162.16052293777466	
21	126.42448687553406	pulse	1	t		19.0	2.5	blank	1.0	163.7602138519287	
21	126.94096302986145	fix_post	2		12	19.0	2.5	blank	1.0	164.2766900062561	0.10001087188720703
22	127.04097390174866	fix_pre	0		119	20.0	2.5	/experiments/AOT/AOT_stimuli/rescaled_final/1959_rv.mp4	0.0	164.3767008781433	0.991887092590332
22	128.02444100379944	pulse	0	t		20.0	2.5	/experiments/AOT/AOT_stimuli/rescaled_final/1959_rv.mp4	0.0	165.3601679801941	
22	128.032860994339	movie	1		245	20.0	2.5	/experiments/AOT/AOT_stimuli/rescaled_final/1959_rv.mp4	0.0	165.36858797073364	2.5077290534973145
22	129.624125957489	pulse	1	t		20.0	2.5	/experiments/AOT/AOT_stimuli/rescaled_final/1959_rv.mp4	0.0	166.95985293388367	
22	130.5405900478363	fix_post	2		12	20.0	2.5	/experiments/AOT/AOT_stimuli/rescaled_final/1959_rv.mp4	0.0	167.87631702423096	0.09990692138671875
23	130.64049696922302	fix_pre	0		120	21.0	2.5	/experiments/AOT/AOT_stimuli/rescaled_final/1551_rv.mp4	0.0	167.97622394561768	1.000432014465332
23	131.2244689464569	pulse	0	t		21.0	2.5	/experiments/AOT/AOT_stimuli/rescaled_final/1551_rv.mp4	0.0	168.56019592285156	
23	131.64092898368835	movie	1		246	21.0	2.5	/experiments/AOT/AOT_stimuli/rescaled_final/1551_rv.mp4	0.0	168.976655960083	2.5000009536743164
23	132.82445406913757	pulse	1	t		21.0	2.5	/experiments/AOT/AOT_stimuli/rescaled_final/1551_rv.mp4	0.0	170.16018104553223	
23	134.14092993736267	fix_post	2		12	21.0	2.5	/experiments/AOT/AOT_stimuli/rescaled_final/1551_rv.mp4	0.0	171.47665691375732	0.0999901294708252
24	134.2409200668335	fix_pre	0		120	22.0	2.5	/experiments/AOT/AOT_stimuli/rescaled_final/1268_fw.mp4	0.0	171.57664704322815	0.9999887943267822
24	134.42453598976135	pulse	0	t		22.0	2.5	/experiments/AOT/AOT_stimuli/rescaled_final/1268_fw.mp4	0.0	171.760262966156	
24	135.24090886116028	movie	1		246	22.0	2.5	/experiments/AOT/AOT_stimuli/rescaled_final/1268_fw.mp4	0.0	172.57663583755493	2.500016212463379
24	136.02444291114807	pulse	1	t		22.0	2.5	/experiments/AOT/AOT_stimuli/rescaled_final/1268_fw.mp4	0.0	173.36016988754272	
24	137.62438797950745	pulse	1	t		22.0	2.5	/experiments/AOT/AOT_stimuli/rescaled_final/1268_fw.mp4	0.0	174.9601149559021	
24	137.74092507362366	fix_post	2		12	22.0	2.5	/experiments/AOT/AOT_stimuli/rescaled_final/1268_fw.mp4	0.0	175.0766520500183	0.10001492500305176
25	137.8409399986267	fix_pre	0		120	23.0	2.5	/experiments/AOT/AOT_stimuli/rescaled_final/0983_fw.mp4	0.0	175.17666697502136	0.9999978542327881
25	138.8409378528595	movie	1		243	23.0	2.5	/experiments/AOT/AOT_stimuli/rescaled_final/0983_fw.mp4	0.0	176.17666482925415	2.500087022781372
25	139.22559905052185	pulse	1	t		23.0	2.5	/experiments/AOT/AOT_stimuli/rescaled_final/0983_fw.mp4	0.0	176.5613260269165	
25	140.82436990737915	pulse	1	t		23.0	2.5	/experiments/AOT/AOT_stimuli/rescaled_final/0983_fw.mp4	0.0	178.1600968837738	
25	141.34102487564087	fix_post	2		12	23.0	2.5	/experiments/AOT/AOT_stimuli/rescaled_final/0983_fw.mp4	0.0	178.67675185203552	0.09999513626098633
26	141.44102001190186	fix_pre	0		119	24.0	2.5	/experiments/AOT/AOT_stimuli/rescaled_final/0561_fw.mp4	0.0	178.7767469882965	0.9915628433227539
26	142.42441487312317	pulse	0	t		24.0	2.5	/experiments/AOT/AOT_stimuli/rescaled_final/0561_fw.mp4	0.0	179.76014184951782	
26	142.4325828552246	movie	1		244	24.0	2.5	/experiments/AOT/AOT_stimuli/rescaled_final/0561_fw.mp4	0.0	179.76830983161926	2.508254051208496
26	144.0241289138794	pulse	1	t		24.0	2.5	/experiments/AOT/AOT_stimuli/rescaled_final/0561_fw.mp4	0.0	181.35985589027405	
26	144.9408369064331	fix_post	2		12	24.0	2.5	/experiments/AOT/AOT_stimuli/rescaled_final/0561_fw.mp4	0.0	182.27656388282776	0.09997105598449707
27	145.0408079624176	fix_pre	0		120	25.0	2.5	/experiments/AOT/AOT_stimuli/rescaled_final/0804_rv.mp4	0.0	182.37653493881226	1.0000569820404053
27	145.62431406974792	pulse	0	t		25.0	2.5	/experiments/AOT/AOT_stimuli/rescaled_final/0804_rv.mp4	0.0	182.96004104614258	
27	146.040864944458	movie	1		245	25.0	2.5	/experiments/AOT/AOT_stimuli/rescaled_final/0804_rv.mp4	0.0	183.37659192085266	2.500001907348633
27	147.22440791130066	pulse	1	t		25.0	2.5	/experiments/AOT/AOT_stimuli/rescaled_final/0804_rv.mp4	0.0	184.5601348876953	
27	148.54086685180664	fix_post	2		12	25.0	2.5	/experiments/AOT/AOT_stimuli/rescaled_final/0804_rv.mp4	0.0	185.8765938282013	0.0999751091003418
28	148.64084196090698	fix_pre	0		120	26.0	2.5	/experiments/AOT/AOT_stimuli/rescaled_final/0153_fw.mp4	0.0	185.97656893730164	0.9999709129333496
28	148.82440495491028	pulse	0	t		26.0	2.5	/experiments/AOT/AOT_stimuli/rescaled_final/0153_fw.mp4	0.0	186.16013193130493	
28	149.64081287384033	movie	1		244	26.0	2.5	/experiments/AOT/AOT_stimuli/rescaled_final/0153_fw.mp4	0.0	186.97653985023499	2.499610185623169
28	150.42440605163574	pulse	1	t		26.0	2.5	/experiments/AOT/AOT_stimuli/rescaled_final/0153_fw.mp4	0.0	187.7601330280304	
28	152.0327410697937	pulse	1	t		26.0	2.5	/experiments/AOT/AOT_stimuli/rescaled_final/0153_fw.mp4	0.0	189.36846804618835	
28	152.1404230594635	fix_post	2		12	26.0	2.5	/experiments/AOT/AOT_stimuli/rescaled_final/0153_fw.mp4	0.0	189.47615003585815	0.10035085678100586
29	152.2407739162445	fix_pre	0		120	27.0	2.5	blank	1.0	189.57650089263916	1.0000300407409668
29	153.24080395698547	movie	1		300	27.0	2.5	blank	1.0	190.57653093338013	2.499955892562866
29	153.62437295913696	pulse	1	t		27.0	2.5	blank	1.0	190.96009993553162	
29	155.2243058681488	pulse	1	t		27.0	2.5	blank	1.0	192.56003284454346	
29	155.74075984954834	fix_post	2		12	27.0	2.5	blank	1.0	193.076486825943	0.10009622573852539
30	155.84085607528687	fix_pre	0		119	28.0	2.5	/experiments/AOT/AOT_stimuli/rescaled_final/0804_rv.mp4	0.0	193.17658305168152	0.9916708469390869
30	156.8243510723114	pulse	0	t		28.0	2.5	/experiments/AOT/AOT_stimuli/rescaled_final/0804_rv.mp4	0.0	194.16007804870605	
30	156.83252692222595	movie	1		245	28.0	2.5	/experiments/AOT/AOT_stimuli/rescaled_final/0804_rv.mp4	0.0	194.1682538986206	2.5082340240478516
30	158.42396593093872	pulse	1	t		28.0	2.5	/experiments/AOT/AOT_stimuli/rescaled_final/0804_rv.mp4	0.0	195.75969290733337	
30	159.3407609462738	fix_post	2		12	28.0	2.5	/experiments/AOT/AOT_stimuli/rescaled_final/0804_rv.mp4	0.0	196.67648792266846	0.10010194778442383
31	159.44086289405823	fix_pre	0		120	29.0	2.5	/experiments/AOT/AOT_stimuli/rescaled_final/1595_rv.mp4	0.0	196.77658987045288	0.9995880126953125
31	160.02424097061157	pulse	0	t		29.0	2.5	/experiments/AOT/AOT_stimuli/rescaled_final/1595_rv.mp4	0.0	197.35996794700623	
31	160.44045090675354	movie	1		244	29.0	2.5	/experiments/AOT/AOT_stimuli/rescaled_final/1595_rv.mp4	0.0	197.7761778831482	2.49993896484375
31	161.62433099746704	pulse	1	t		29.0	2.5	/experiments/AOT/AOT_stimuli/rescaled_final/1595_rv.mp4	0.0	198.9600579738617	
31	162.9403898715973	fix_post	2		12	29.0	2.5	/experiments/AOT/AOT_stimuli/rescaled_final/1595_rv.mp4	0.0	200.27611684799194	0.10045313835144043
32	163.04084300994873	fix_pre	0		120	30.0	2.5	/experiments/AOT/AOT_stimuli/rescaled_final/1874_rv.mp4	0.0	200.37656998634338	1.0000460147857666
32	163.22430086135864	pulse	0	t		30.0	2.5	/experiments/AOT/AOT_stimuli/rescaled_final/1874_rv.mp4	0.0	200.5600278377533	
32	164.0408890247345	movie	1		246	30.0	2.5	/experiments/AOT/AOT_stimuli/rescaled_final/1874_rv.mp4	0.0	201.37661600112915	2.4999189376831055
32	164.82427191734314	pulse	1	t		30.0	2.5	/experiments/AOT/AOT_stimuli/rescaled_final/1874_rv.mp4	0.0	202.1599988937378	
32	166.42389488220215	pulse	1	t		30.0	2.5	/experiments/AOT/AOT_stimuli/rescaled_final/1874_rv.mp4	0.0	203.7596218585968	
32	166.5408079624176	fix_post	2		12	30.0	2.5	/experiments/AOT/AOT_stimuli/rescaled_final/1874_rv.mp4	0.0	203.87653493881226	0.09996795654296875
33	166.64077591896057	fix_pre	0		120	31.0	2.5	/experiments/AOT/AOT_stimuli/rescaled_final/1530_rv.mp4	0.0	203.97650289535522	1.0000319480895996
33	167.64080786705017	movie	1		243	31.0	2.5	/experiments/AOT/AOT_stimuli/rescaled_final/1530_rv.mp4	0.0	204.97653484344482	2.4999420642852783
33	168.02407598495483	pulse	1	t		31.0	2.5	/experiments/AOT/AOT_stimuli/rescaled_final/1530_rv.mp4	0.0	205.3598029613495	
33	169.62427806854248	pulse	1	t		31.0	2.5	/experiments/AOT/AOT_stimuli/rescaled_final/1530_rv.mp4	0.0	206.96000504493713	
33	170.14074993133545	fix_post	2		12	31.0	2.5	/experiments/AOT/AOT_stimuli/rescaled_final/1530_rv.mp4	0.0	207.4764769077301	0.0999760627746582
34	170.2407259941101	fix_pre	0		119	32.0	2.5	/experiments/AOT/AOT_stimuli/rescaled_final/0581_rv.mp4	0.0	207.57645297050476	0.9917500019073486
34	171.2243208885193	pulse	0	t		32.0	2.5	/experiments/AOT/AOT_stimuli/rescaled_final/0581_rv.mp4	0.0	208.56004786491394	
34	171.23247599601746	movie	1		245	32.0	2.5	/experiments/AOT/AOT_stimuli/rescaled_final/0581_rv.mp4	0.0	208.5682029724121	2.5082528591156006
34	172.82410407066345	pulse	1	t		32.0	2.5	/experiments/AOT/AOT_stimuli/rescaled_final/0581_rv.mp4	0.0	210.1598310470581	
34	173.74072885513306	fix_post	2		12	32.0	2.5	/experiments/AOT/AOT_stimuli/rescaled_final/0581_rv.mp4	0.0	211.0764558315277	0.10006213188171387
35	173.84079098701477	fix_pre	0		120	33.0	2.5	/experiments/AOT/AOT_stimuli/rescaled_final/1650_fw.mp4	0.0	211.17651796340942	0.9999618530273438
35	174.42425298690796	pulse	0	t		33.0	2.5	/experiments/AOT/AOT_stimuli/rescaled_final/1650_fw.mp4	0.0	211.7599799633026	
35	174.84075284004211	movie	1		245	33.0	2.5	/experiments/AOT/AOT_stimuli/rescaled_final/1650_fw.mp4	0.0	212.17647981643677	2.499603033065796
35	176.0242040157318	pulse	1	t		33.0	2.5	/experiments/AOT/AOT_stimuli/rescaled_final/1650_fw.mp4	0.0	213.35993099212646	
35	177.3403558731079	fix_post	2		12	33.0	2.5	/experiments/AOT/AOT_stimuli/rescaled_final/1650_fw.mp4	0.0	214.67608284950256	0.1003561019897461
36	177.44071197509766	fix_pre	0		120	34.0	2.5	/experiments/AOT/AOT_stimuli/rescaled_final/0661_rv.mp4	0.0	214.7764389514923	1.0000998973846436
36	177.62383389472961	pulse	0	t		34.0	2.5	/experiments/AOT/AOT_stimuli/rescaled_final/0661_rv.mp4	0.0	214.95956087112427	
36	178.4408118724823	movie	1		245	34.0	2.5	/experiments/AOT/AOT_stimuli/rescaled_final/0661_rv.mp4	0.0	215.77653884887695	2.499907970428467
36	179.22431707382202	pulse	1	t		34.0	2.5	/experiments/AOT/AOT_stimuli/rescaled_final/0661_rv.mp4	0.0	216.56004405021667	
36	180.8243339061737	pulse	1	t		34.0	2.5	/experiments/AOT/AOT_stimuli/rescaled_final/0661_rv.mp4	0.0	218.16006088256836	
36	180.94071984291077	fix_post	2		12	34.0	2.5	/experiments/AOT/AOT_stimuli/rescaled_final/0661_rv.mp4	0.0	218.27644681930542	0.10002708435058594
37	181.04074692726135	fix_pre	0		120	35.0	2.5	blank	1.0	218.376473903656	0.9999611377716064
37	182.04070806503296	movie	1		300	35.0	2.5	blank	1.0	219.3764350414276	2.499980926513672
37	182.424134016037	pulse	1	t		35.0	2.5	blank	1.0	219.75986099243164	
37	184.02413487434387	pulse	1	t		35.0	2.5	blank	1.0	221.35986185073853	
37	184.54068899154663	fix_post	2		12	35.0	2.5	blank	1.0	221.87641596794128	0.09998393058776855
38	184.6406729221344	fix_pre	0		119	36.0	2.5	/experiments/AOT/AOT_stimuli/rescaled_final/1714_rv.mp4	0.0	221.97639989852905	0.9916379451751709
38	185.62412405014038	pulse	0	t		36.0	2.5	/experiments/AOT/AOT_stimuli/rescaled_final/1714_rv.mp4	0.0	222.95985102653503	
38	185.63231086730957	movie	1		244	36.0	2.5	/experiments/AOT/AOT_stimuli/rescaled_final/1714_rv.mp4	0.0	222.96803784370422	2.508345127105713
38	187.2236828804016	pulse	1	t		36.0	2.5	/experiments/AOT/AOT_stimuli/rescaled_final/1714_rv.mp4	0.0	224.55940985679626	
38	188.14065599441528	fix_post	2		12	36.0	2.5	/experiments/AOT/AOT_stimuli/rescaled_final/1714_rv.mp4	0.0	225.47638297080994	0.09998798370361328
39	188.2406439781189	fix_pre	0		120	37.0	2.5	/experiments/AOT/AOT_stimuli/rescaled_final/0745_fw.mp4	0.0	225.57637095451355	1.0000109672546387
39	188.82410883903503	pulse	0	t		37.0	2.5	/experiments/AOT/AOT_stimuli/rescaled_final/0745_fw.mp4	0.0	226.1598358154297	
39	189.24065494537354	movie	1		249	37.0	2.5	/experiments/AOT/AOT_stimuli/rescaled_final/0745_fw.mp4	0.0	226.5763819217682	2.500152111053467
39	190.42420196533203	pulse	1	t		37.0	2.5	/experiments/AOT/AOT_stimuli/rescaled_final/0745_fw.mp4	0.0	227.75992894172668	
39	191.740807056427	fix_post	2		12	37.0	2.5	/experiments/AOT/AOT_stimuli/rescaled_final/0745_fw.mp4	0.0	229.07653403282166	0.09984183311462402
40	191.84064888954163	fix_pre	0		120	38.0	2.5	/experiments/AOT/AOT_stimuli/rescaled_final/1490_fw.mp4	0.0	229.17637586593628	1.0000100135803223
40	192.02409195899963	pulse	0	t		38.0	2.5	/experiments/AOT/AOT_stimuli/rescaled_final/1490_fw.mp4	0.0	229.3598189353943	
40	192.84065890312195	movie	1		246	38.0	2.5	/experiments/AOT/AOT_stimuli/rescaled_final/1490_fw.mp4	0.0	230.1763858795166	2.4999821186065674
40	193.62409901618958	pulse	1	t		38.0	2.5	/experiments/AOT/AOT_stimuli/rescaled_final/1490_fw.mp4	0.0	230.95982599258423	
40	195.23256087303162	pulse	1	t		38.0	2.5	/experiments/AOT/AOT_stimuli/rescaled_final/1490_fw.mp4	0.0	232.56828784942627	
40	195.34064102172852	fix_post	2		12	38.0	2.5	/experiments/AOT/AOT_stimuli/rescaled_final/1490_fw.mp4	0.0	232.67636799812317	0.10009193420410156
41	195.44073295593262	fix_pre	0		120	39.0	2.5	/experiments/AOT/AOT_stimuli/rescaled_final/1264_rv.mp4	0.0	232.77645993232727	0.9994950294494629
41	196.44022798538208	movie	1		245	39.0	2.5	/experiments/AOT/AOT_stimuli/rescaled_final/1264_rv.mp4	0.0	233.77595496177673	2.500483989715576
41	196.82422804832458	pulse	1	t		39.0	2.5	/experiments/AOT/AOT_stimuli/rescaled_final/1264_rv.mp4	0.0	234.15995502471924	
41	198.42413902282715	pulse	1	t		39.0	2.5	/experiments/AOT/AOT_stimuli/rescaled_final/1264_rv.mp4	0.0	235.7598659992218	
41	198.94071197509766	fix_post	2		12	39.0	2.5	/experiments/AOT/AOT_stimuli/rescaled_final/1264_rv.mp4	0.0	236.2764389514923	0.0999150276184082
42	199.04062700271606	fix_pre	0		119	40.0	2.5	/experiments/AOT/AOT_stimuli/rescaled_final/1354_fw.mp4	0.0	236.37635397911072	0.9916529655456543
42	200.02409601211548	pulse	0	t		40.0	2.5	/experiments/AOT/AOT_stimuli/rescaled_final/1354_fw.mp4	0.0	237.35982298851013	
42	200.03227996826172	movie	1		246	40.0	2.5	/experiments/AOT/AOT_stimuli/rescaled_final/1354_fw.mp4	0.0	237.36800694465637	2.5083088874816895
42	201.62393999099731	pulse	1	t		40.0	2.5	/experiments/AOT/AOT_stimuli/rescaled_final/1354_fw.mp4	0.0	238.95966696739197	
42	202.5405888557434	fix_post	2		12	40.0	2.5	/experiments/AOT/AOT_stimuli/rescaled_final/1354_fw.mp4	0.0	239.87631583213806	0.09961605072021484
43	202.64020490646362	fix_pre	0		120	41.0	2.5	blank	1.0	239.97593188285828	1.00040602684021
43	203.2241289615631	pulse	0	t		41.0	2.5	blank	1.0	240.55985593795776	
43	203.64061093330383	movie	1		300	41.0	2.5	blank	1.0	240.9763379096985	2.500020980834961
43	204.8241798877716	pulse	1	t		41.0	2.5	blank	1.0	242.15990686416626	
43	206.1406319141388	fix_post	2		12	41.0	2.5	blank	1.0	243.47635889053345	0.09996509552001953
44	206.2405970096588	fix_pre	0		120	42.0	2.5	/experiments/AOT/AOT_stimuli/rescaled_final/0577_fw.mp4	0.0	243.57632398605347	1.0000438690185547
44	206.42410898208618	pulse	0	t		42.0	2.5	/experiments/AOT/AOT_stimuli/rescaled_final/0577_fw.mp4	0.0	243.75983595848083	
44	207.24064087867737	movie	1		243	42.0	2.5	/experiments/AOT/AOT_stimuli/rescaled_final/0577_fw.mp4	0.0	244.57636785507202	2.4999799728393555
44	208.02406787872314	pulse	1	t		42.0	2.5	/experiments/AOT/AOT_stimuli/rescaled_final/0577_fw.mp4	0.0	245.3597948551178	
44	209.63249897956848	pulse	1	t		42.0	2.5	/experiments/AOT/AOT_stimuli/rescaled_final/0577_fw.mp4	0.0	246.96822595596313	
44	209.74062085151672	fix_post	2		12	42.0	2.5	/experiments/AOT/AOT_stimuli/rescaled_final/0577_fw.mp4	0.0	247.07634782791138	0.09994006156921387
45	209.84056091308594	fix_pre	0		120	43.0	2.5	/experiments/AOT/AOT_stimuli/rescaled_final/0348_fw.mp4	0.0	247.1762878894806	1.0000619888305664
45	210.8406229019165	movie	1		244	43.0	2.5	/experiments/AOT/AOT_stimuli/rescaled_final/0348_fw.mp4	0.0	248.17634987831116	2.4999310970306396
45	211.23245000839233	pulse	1	t		43.0	2.5	/experiments/AOT/AOT_stimuli/rescaled_final/0348_fw.mp4	0.0	248.568176984787	
45	212.8240749835968	pulse	1	t		43.0	2.5	/experiments/AOT/AOT_stimuli/rescaled_final/0348_fw.mp4	0.0	250.15980195999146	
45	213.34055399894714	fix_post	2		12	43.0	2.5	/experiments/AOT/AOT_stimuli/rescaled_final/0348_fw.mp4	0.0	250.6762809753418	0.10000801086425781
46	213.4405620098114	fix_pre	0		119	44.0	2.5	/experiments/AOT/AOT_stimuli/rescaled_final/2155_rv.mp4	0.0	250.77628898620605	0.9916918277740479
46	214.4240448474884	pulse	0	t		44.0	2.5	/experiments/AOT/AOT_stimuli/rescaled_final/2155_rv.mp4	0.0	251.75977182388306	
46	214.43225383758545	movie	1		247	44.0	2.5	/experiments/AOT/AOT_stimuli/rescaled_final/2155_rv.mp4	0.0	251.7679808139801	2.5083651542663574
46	216.0324249267578	pulse	1	t		44.0	2.5	/experiments/AOT/AOT_stimuli/rescaled_final/2155_rv.mp4	0.0	253.36815190315247	
46	216.9406189918518	fix_post	2		12	44.0	2.5	/experiments/AOT/AOT_stimuli/rescaled_final/2155_rv.mp4	0.0	254.27634596824646	0.09956502914428711
47	217.0401840209961	fix_pre	0		120	45.0	2.5	/experiments/AOT/AOT_stimuli/rescaled_final/0352_rv.mp4	0.0	254.37591099739075	1.00040602684021
47	217.62408804893494	pulse	0	t		45.0	2.5	/experiments/AOT/AOT_stimuli/rescaled_final/0352_rv.mp4	0.0	254.9598150253296	
47	218.0405900478363	movie	1		246	45.0	2.5	/experiments/AOT/AOT_stimuli/rescaled_final/0352_rv.mp4	0.0	255.37631702423096	2.4995338916778564
47	219.22407484054565	pulse	1	t		45.0	2.5	/experiments/AOT/AOT_stimuli/rescaled_final/0352_rv.mp4	0.0	256.5598018169403	
47	220.54012393951416	fix_post	2		12	45.0	2.5	/experiments/AOT/AOT_stimuli/rescaled_final/0352_rv.mp4	0.0	257.8758509159088	0.10041213035583496
48	220.64053606987	fix_pre	0		120	46.0	2.5	/experiments/AOT/AOT_stimuli/rescaled_final/1217_rv.mp4	0.0	257.97626304626465	1.000013828277588
48	220.82406091690063	pulse	0	t		46.0	2.5	/experiments/AOT/AOT_stimuli/rescaled_final/1217_rv.mp4	0.0	258.1597878932953	
48	221.64054989814758	movie	1		243	46.0	2.5	/experiments/AOT/AOT_stimuli/rescaled_final/1217_rv.mp4	0.0	258.97627687454224	2.5000159740448
48	222.4240698814392	pulse	1	t		46.0	2.5	/experiments/AOT/AOT_stimuli/rescaled_final/1217_rv.mp4	0.0	259.75979685783386	
48	224.03245496749878	pulse	1	t		46.0	2.5	/experiments/AOT/AOT_stimuli/rescaled_final/1217_rv.mp4	0.0	261.36818194389343	
48	224.14056587219238	fix_post	2		12	46.0	2.5	/experiments/AOT/AOT_stimuli/rescaled_final/1217_rv.mp4	0.0	261.47629284858704	0.10001707077026367
49	224.24058294296265	fix_pre	0		120	47.0	2.5	/experiments/AOT/AOT_stimuli/rescaled_final/0792_fw.mp4	0.0	261.5763099193573	0.9995360374450684
49	225.24011898040771	movie	1		244	47.0	2.5	/experiments/AOT/AOT_stimuli/rescaled_final/0792_fw.mp4	0.0	262.57584595680237	2.500458002090454
49	225.623694896698	pulse	1	t		47.0	2.5	/experiments/AOT/AOT_stimuli/rescaled_final/0792_fw.mp4	0.0	262.95942187309265	
49	227.2249219417572	pulse	1	t		47.0	2.5	/experiments/AOT/AOT_stimuli/rescaled_final/0792_fw.mp4	0.0	264.56064891815186	
49	227.74057698249817	fix_post	2		12	47.0	2.5	/experiments/AOT/AOT_stimuli/rescaled_final/0792_fw.mp4	0.0	265.0763039588928	0.09955501556396484
50	227.84013199806213	fix_pre	0		119	48.0	2.5	blank	1.0	265.1758589744568	0.9921200275421143
50	228.8240509033203	pulse	0	t		48.0	2.5	blank	1.0	266.15977787971497	
50	228.83225202560425	movie	1		301	48.0	2.5	blank	1.0	266.1679790019989	2.5078489780426025
50	230.4240128993988	pulse	1	t		48.0	2.5	blank	1.0	267.75973987579346	
50	231.34010100364685	fix_post	2		12	48.0	2.5	blank	1.0	268.6758279800415	0.10039496421813965
51	231.440495967865	fix_pre	0		120	49.0	2.5	/experiments/AOT/AOT_stimuli/rescaled_final/1463_fw.mp4	0.0	268.77622294425964	1.000040054321289
51	232.02401304244995	pulse	0	t		49.0	2.5	/experiments/AOT/AOT_stimuli/rescaled_final/1463_fw.mp4	0.0	269.3597400188446	
51	232.44053602218628	movie	1		247	49.0	2.5	/experiments/AOT/AOT_stimuli/rescaled_final/1463_fw.mp4	0.0	269.77626299858093	2.499788999557495
51	233.62361598014832	pulse	1	t		49.0	2.5	/experiments/AOT/AOT_stimuli/rescaled_final/1463_fw.mp4	0.0	270.95934295654297	
51	234.94032502174377	fix_post	2		12	49.0	2.5	/experiments/AOT/AOT_stimuli/rescaled_final/1463_fw.mp4	0.0	272.2760519981384	0.10029482841491699
52	235.0406198501587	fix_pre	0		120	50.0	2.5	/experiments/AOT/AOT_stimuli/rescaled_final/1819_fw.mp4	0.0	272.37634682655334	1.0001640319824219
52	235.22411799430847	pulse	0	t		50.0	2.5	/experiments/AOT/AOT_stimuli/rescaled_final/1819_fw.mp4	0.0	272.5598449707031	
52	236.0407838821411	movie	1		245	50.0	2.5	/experiments/AOT/AOT_stimuli/rescaled_final/1819_fw.mp4	0.0	273.37651085853577	2.499173164367676
52	236.8239290714264	pulse	1	t		50.0	2.5	/experiments/AOT/AOT_stimuli/rescaled_final/1819_fw.mp4	0.0	274.15965604782104	
52	238.43237686157227	pulse	1	t		50.0	2.5	/experiments/AOT/AOT_stimuli/rescaled_final/1819_fw.mp4	0.0	275.7681038379669	
52	238.5399570465088	fix_post	2		12	50.0	2.5	/experiments/AOT/AOT_stimuli/rescaled_final/1819_fw.mp4	0.0	275.87568402290344	0.10049581527709961
53	238.6404528617859	fix_pre	0		120	51.0	2.5	/experiments/AOT/AOT_stimuli/rescaled_final/1974_fw.mp4	0.0	275.97617983818054	0.9999899864196777
53	239.64044284820557	movie	1		245	51.0	2.5	/experiments/AOT/AOT_stimuli/rescaled_final/1974_fw.mp4	0.0	276.9761698246002	2.5000641345977783
53	240.02346086502075	pulse	1	t		51.0	2.5	/experiments/AOT/AOT_stimuli/rescaled_final/1974_fw.mp4	0.0	277.3591878414154	
53	241.6238579750061	pulse	1	t		51.0	2.5	/experiments/AOT/AOT_stimuli/rescaled_final/1974_fw.mp4	0.0	278.95958495140076	
53	242.14050698280334	fix_post	2		12	51.0	2.5	/experiments/AOT/AOT_stimuli/rescaled_final/1974_fw.mp4	0.0	279.476233959198	0.09987497329711914
54	242.24038195610046	fix_pre	0		120	52.0	2.5	/experiments/AOT/AOT_stimuli/rescaled_final/1284_rv.mp4	0.0	279.5761089324951	1.0000030994415283
54	243.2248330116272	pulse	0	t		52.0	2.5	/experiments/AOT/AOT_stimuli/rescaled_final/1284_rv.mp4	0.0	280.56055998802185	
54	243.240385055542	movie	1		245	52.0	2.5	/experiments/AOT/AOT_stimuli/rescaled_final/1284_rv.mp4	0.0	280.57611203193665	2.5079448223114014
54	244.83246302604675	pulse	1	t		52.0	2.5	/experiments/AOT/AOT_stimuli/rescaled_final/1284_rv.mp4	0.0	282.1681900024414	
54	245.7483298778534	fix_post	2		12	52.0	2.5	/experiments/AOT/AOT_stimuli/rescaled_final/1284_rv.mp4	0.0	283.08405685424805	0.09998512268066406
55	245.84831500053406	fix_pre	0		120	53.0	2.5	/experiments/AOT/AOT_stimuli/rescaled_final/1170_rv.mp4	0.0	283.1840419769287	1.0005218982696533
55	246.42389488220215	pulse	0	t		53.0	2.5	/experiments/AOT/AOT_stimuli/rescaled_final/1170_rv.mp4	0.0	283.7596218585968	
55	246.8488368988037	movie	1		243	53.0	2.5	/experiments/AOT/AOT_stimuli/rescaled_final/1170_rv.mp4	0.0	284.18456387519836	2.499904155731201
55	248.03226494789124	pulse	1	t		53.0	2.5	/experiments/AOT/AOT_stimuli/rescaled_final/1170_rv.mp4	0.0	285.3679919242859	
55	249.3487410545349	fix_post	2		12	53.0	2.5	/experiments/AOT/AOT_stimuli/rescaled_final/1170_rv.mp4	0.0	286.68446803092957	0.0999748706817627
56	249.44871592521667	fix_pre	0		120	54.0	2.5	/experiments/AOT/AOT_stimuli/rescaled_final/0090_rv.mp4	0.0	286.7844429016113	0.9999721050262451
56	249.62388801574707	pulse	0	t		54.0	2.5	/experiments/AOT/AOT_stimuli/rescaled_final/0090_rv.mp4	0.0	286.9596149921417	
56	250.44868803024292	movie	1		245	54.0	2.5	/experiments/AOT/AOT_stimuli/rescaled_final/0090_rv.mp4	0.0	287.7844150066376	2.499635934829712
56	251.22380685806274	pulse	1	t		54.0	2.5	/experiments/AOT/AOT_stimuli/rescaled_final/0090_rv.mp4	0.0	288.5595338344574	
56	252.8238649368286	pulse	1	t		54.0	2.5	/experiments/AOT/AOT_stimuli/rescaled_final/0090_rv.mp4	0.0	290.15959191322327	
56	252.94832396507263	fix_post	2		12	54.0	2.5	/experiments/AOT/AOT_stimuli/rescaled_final/0090_rv.mp4	0.0	290.2840509414673	0.10042309761047363
57	253.0487470626831	fix_pre	0		120	55.0	2.5	/experiments/AOT/AOT_stimuli/rescaled_final/1333_fw.mp4	0.0	290.38447403907776	0.9999599456787109
57	254.04870700836182	movie	1		245	55.0	2.5	/experiments/AOT/AOT_stimuli/rescaled_final/1333_fw.mp4	0.0	291.38443398475647	2.499969959259033
57	254.42378997802734	pulse	1	t		55.0	2.5	/experiments/AOT/AOT_stimuli/rescaled_final/1333_fw.mp4	0.0	291.759516954422	
57	256.0238230228424	pulse	1	t		55.0	2.5	/experiments/AOT/AOT_stimuli/rescaled_final/1333_fw.mp4	0.0	293.35954999923706	
57	256.54867696762085	fix_post	2		12	55.0	2.5	/experiments/AOT/AOT_stimuli/rescaled_final/1333_fw.mp4	0.0	293.8844039440155	0.09996700286865234
58	256.6486439704895	fix_pre	0		118	56.0	2.5	blank	1.0	293.98437094688416	0.9833500385284424
58	257.6238169670105	pulse	0	t		56.0	2.5	blank	1.0	294.95954394340515	
58	257.63199400901794	movie	1		301	56.0	2.5	blank	1.0	294.9677209854126	2.5083608627319336
58	259.2246298789978	pulse	1	t		56.0	2.5	blank	1.0	296.56035685539246	
58	260.1403548717499	fix_post	2		12	56.0	2.5	blank	1.0	297.47608184814453	0.10004496574401855
59	260.2403998374939	fix_pre	0		120	57.0	2.5	/experiments/AOT/AOT_stimuli/rescaled_final/1853_rv.mp4	0.0	297.57612681388855	0.9999420642852783
59	260.8246078491211	pulse	0	t		57.0	2.5	/experiments/AOT/AOT_stimuli/rescaled_final/1853_rv.mp4	0.0	298.16033482551575	
59	261.2403419017792	movie	1		244	57.0	2.5	/experiments/AOT/AOT_stimuli/rescaled_final/1853_rv.mp4	0.0	298.5760688781738	2.49993896484375
59	262.42483401298523	pulse	1	t		57.0	2.5	/experiments/AOT/AOT_stimuli/rescaled_final/1853_rv.mp4	0.0	299.7605609893799	
59	263.7402808666229	fix_post	2		12	57.0	2.5	/experiments/AOT/AOT_stimuli/rescaled_final/1853_rv.mp4	0.0	301.0760078430176	0.09967803955078125
60	263.8399589061737	fix_pre	0		120	58.0	2.5	/experiments/AOT/AOT_stimuli/rescaled_final/0642_rv.mp4	0.0	301.17568588256836	1.0003690719604492
60	264.0237989425659	pulse	0	t		58.0	2.5	/experiments/AOT/AOT_stimuli/rescaled_final/0642_rv.mp4	0.0	301.35952591896057	
60	264.84032797813416	movie	1		245	58.0	2.5	/experiments/AOT/AOT_stimuli/rescaled_final/0642_rv.mp4	0.0	302.1760549545288	2.500020980834961
60	265.62384700775146	pulse	1	t		58.0	2.5	/experiments/AOT/AOT_stimuli/rescaled_final/0642_rv.mp4	0.0	302.9595739841461	
60	267.2242019176483	pulse	1	t		58.0	2.5	/experiments/AOT/AOT_stimuli/rescaled_final/0642_rv.mp4	0.0	304.55992889404297	
60	267.3403489589691	fix_post	2		12	58.0	2.5	/experiments/AOT/AOT_stimuli/rescaled_final/0642_rv.mp4	0.0	304.67607593536377	0.09998893737792969
61	267.44033789634705	fix_pre	0		120	59.0	2.5	/experiments/AOT/AOT_stimuli/rescaled_final/2064_rv.mp4	0.0	304.7760648727417	1.0000510215759277
61	268.440388917923	movie	1		243	59.0	2.5	/experiments/AOT/AOT_stimuli/rescaled_final/2064_rv.mp4	0.0	305.7761158943176	2.4998459815979004
61	268.82509994506836	pulse	1	t		59.0	2.5	/experiments/AOT/AOT_stimuli/rescaled_final/2064_rv.mp4	0.0	306.160826921463	
61	270.4237639904022	pulse	1	t		59.0	2.5	/experiments/AOT/AOT_stimuli/rescaled_final/2064_rv.mp4	0.0	307.7594909667969	
61	270.9402348995209	fix_post	2		12	59.0	2.5	/experiments/AOT/AOT_stimuli/rescaled_final/2064_rv.mp4	0.0	308.2759618759155	0.1000831127166748
62	271.04031801223755	fix_pre	0		119	60.0	2.5	/experiments/AOT/AOT_stimuli/rescaled_final/0556_rv.mp4	0.0	308.3760449886322	0.99161696434021
62	272.02378606796265	pulse	0	t		60.0	2.5	/experiments/AOT/AOT_stimuli/rescaled_final/0556_rv.mp4	0.0	309.3595130443573	
62	272.03193497657776	movie	1		245	60.0	2.5	/experiments/AOT/AOT_stimuli/rescaled_final/0556_rv.mp4	0.0	309.3676619529724	2.508452892303467
62	273.62341594696045	pulse	1	t		60.0	2.5	/experiments/AOT/AOT_stimuli/rescaled_final/0556_rv.mp4	0.0	310.9591429233551	
62	274.5403878688812	fix_post	2		12	60.0	2.5	/experiments/AOT/AOT_stimuli/rescaled_final/0556_rv.mp4	0.0	311.8761148452759	0.0998690128326416
63	274.64025688171387	fix_pre	0		120	61.0	2.5	blank	1.0	311.9759838581085	1.0000321865081787
63	275.22457098960876	pulse	0	t		61.0	2.5	blank	1.0	312.5602979660034	
63	275.64028906822205	movie	1		300	61.0	2.5	blank	1.0	312.9760160446167	2.499936819076538
63	276.82450699806213	pulse	1	t		61.0	2.5	blank	1.0	314.1602339744568	
63	278.1402258872986	fix_post	2		12	61.0	2.5	blank	1.0	315.47595286369324	0.09999418258666992
64	278.24022006988525	fix_pre	0		120	62.0	2.5	/experiments/AOT/AOT_stimuli/rescaled_final/0648_rv.mp4	0.0	315.5759470462799	0.9999399185180664
64	278.42450499534607	pulse	0	t		62.0	2.5	/experiments/AOT/AOT_stimuli/rescaled_final/0648_rv.mp4	0.0	315.7602319717407	
64	279.2401599884033	movie	1		243	62.0	2.5	/experiments/AOT/AOT_stimuli/rescaled_final/0648_rv.mp4	0.0	316.575886964798	2.500037908554077
64	280.0246160030365	pulse	1	t		62.0	2.5	/experiments/AOT/AOT_stimuli/rescaled_final/0648_rv.mp4	0.0	317.36034297943115	
64	281.63208198547363	pulse	1	t		62.0	2.5	/experiments/AOT/AOT_stimuli/rescaled_final/0648_rv.mp4	0.0	318.9678089618683	
64	281.7401978969574	fix_post	2		12	62.0	2.5	/experiments/AOT/AOT_stimuli/rescaled_final/0648_rv.mp4	0.0	319.07592487335205	0.10005307197570801
65	281.8402509689331	fix_pre	0		120	63.0	2.5	/experiments/AOT/AOT_stimuli/rescaled_final/0528_fw.mp4	0.0	319.17597794532776	0.9999959468841553
65	282.84024691581726	movie	1		249	63.0	2.5	/experiments/AOT/AOT_stimuli/rescaled_final/0528_fw.mp4	0.0	320.1759738922119	2.499967098236084
65	283.2321779727936	pulse	1	t		63.0	2.5	/experiments/AOT/AOT_stimuli/rescaled_final/0528_fw.mp4	0.0	320.56790494918823	
65	284.82366490364075	pulse	1	t		63.0	2.5	/experiments/AOT/AOT_stimuli/rescaled_final/0528_fw.mp4	0.0	322.1593918800354	
65	285.34021401405334	fix_post	2		12	63.0	2.5	/experiments/AOT/AOT_stimuli/rescaled_final/0528_fw.mp4	0.0	322.675940990448	0.10005903244018555
66	285.44027304649353	fix_pre	0		119	64.0	2.5	/experiments/AOT/AOT_stimuli/rescaled_final/2032_fw.mp4	0.0	322.7760000228882	0.9916319847106934
66	286.42377400398254	pulse	0	t		64.0	2.5	/experiments/AOT/AOT_stimuli/rescaled_final/2032_fw.mp4	0.0	323.7595009803772	
66	286.4319050312042	movie	1		246	64.0	2.5	/experiments/AOT/AOT_stimuli/rescaled_final/2032_fw.mp4	0.0	323.7676320075989	2.5083048343658447
66	288.02388405799866	pulse	1	t		64.0	2.5	/experiments/AOT/AOT_stimuli/rescaled_final/2032_fw.mp4	0.0	325.3596110343933	
66	288.94020986557007	fix_post	2		12	64.0	2.5	/experiments/AOT/AOT_stimuli/rescaled_final/2032_fw.mp4	0.0	326.2759368419647	0.09961318969726562
67	289.03982305526733	fix_pre	0		120	65.0	2.5	/experiments/AOT/AOT_stimuli/rescaled_final/0882_fw.mp4	0.0	326.375550031662	1.0003938674926758
67	289.6233649253845	pulse	0	t		65.0	2.5	/experiments/AOT/AOT_stimuli/rescaled_final/0882_fw.mp4	0.0	326.9590919017792	
67	290.04021692276	movie	1		245	65.0	2.5	/experiments/AOT/AOT_stimuli/rescaled_final/0882_fw.mp4	0.0	327.37594389915466	2.4999420642852783
67	291.2255349159241	pulse	1	t		65.0	2.5	/experiments/AOT/AOT_stimuli/rescaled_final/0882_fw.mp4	0.0	328.5612618923187	
67	292.5401589870453	fix_post	2		12	65.0	2.5	/experiments/AOT/AOT_stimuli/rescaled_final/0882_fw.mp4	0.0	329.87588596343994	0.10005497932434082
68	292.64021396636963	fix_pre	0		120	66.0	2.5	/experiments/AOT/AOT_stimuli/rescaled_final/1199_fw.mp4	0.0	329.9759409427643	1.000067949295044
68	292.8245029449463	pulse	0	t		66.0	2.5	/experiments/AOT/AOT_stimuli/rescaled_final/1199_fw.mp4	0.0	330.16022992134094	
68	293.6402819156647	movie	1		245	66.0	2.5	/experiments/AOT/AOT_stimuli/rescaled_final/1199_fw.mp4	0.0	330.9760088920593	2.4998650550842285
68	294.42462396621704	pulse	1	t		66.0	2.5	/experiments/AOT/AOT_stimuli/rescaled_final/1199_fw.mp4	0.0	331.7603509426117	
68	296.0319700241089	pulse	1	t		66.0	2.5	/experiments/AOT/AOT_stimuli/rescaled_final/1199_fw.mp4	0.0	333.36769700050354	
68	296.1401469707489	fix_post	2		12	66.0	2.5	/experiments/AOT/AOT_stimuli/rescaled_final/1199_fw.mp4	0.0	333.47587394714355	0.10001802444458008
69	296.2401649951935	fix_pre	0		120	67.0	2.5	/experiments/AOT/AOT_stimuli/rescaled_final/2051_rv.mp4	0.0	333.57589197158813	0.9999799728393555
69	297.24014496803284	movie	1		244	67.0	2.5	/experiments/AOT/AOT_stimuli/rescaled_final/2051_rv.mp4	0.0	334.5758719444275	2.499945878982544
69	297.6320729255676	pulse	1	t		67.0	2.5	/experiments/AOT/AOT_stimuli/rescaled_final/2051_rv.mp4	0.0	334.9677999019623	
69	299.22370290756226	pulse	1	t		67.0	2.5	/experiments/AOT/AOT_stimuli/rescaled_final/2051_rv.mp4	0.0	336.5594298839569	
69	299.7400908470154	fix_post	2		12	67.0	2.5	/experiments/AOT/AOT_stimuli/rescaled_final/2051_rv.mp4	0.0	337.07581782341003	0.10001420974731445
70	299.8401050567627	fix_pre	0		119	68.0	2.5	/experiments/AOT/AOT_stimuli/rescaled_final/1496_rv.mp4	0.0	337.17583203315735	0.9918367862701416
70	300.8236219882965	pulse	0	t		68.0	2.5	/experiments/AOT/AOT_stimuli/rescaled_final/1496_rv.mp4	0.0	338.15934896469116	
70	300.83194184303284	movie	1		246	68.0	2.5	/experiments/AOT/AOT_stimuli/rescaled_final/1496_rv.mp4	0.0	338.1676688194275	2.508174180984497
70	302.4321119785309	pulse	1	t		68.0	2.5	/experiments/AOT/AOT_stimuli/rescaled_final/1496_rv.mp4	0.0	339.76783895492554	
70	303.34011602401733	fix_post	2		12	68.0	2.5	/experiments/AOT/AOT_stimuli/rescaled_final/1496_rv.mp4	0.0	340.675843000412	0.09997892379760742
71	303.44009494781494	fix_pre	0		120	69.0	2.5	/experiments/AOT/AOT_stimuli/rescaled_final/1490_rv.mp4	0.0	340.7758219242096	0.9996109008789062
71	304.023628950119	pulse	0	t		69.0	2.5	/experiments/AOT/AOT_stimuli/rescaled_final/1490_rv.mp4	0.0	341.3593559265137	
71	304.43970584869385	movie	1		245	69.0	2.5	/experiments/AOT/AOT_stimuli/rescaled_final/1490_rv.mp4	0.0	341.7754328250885	2.499953031539917
71	305.6236779689789	pulse	1	t		69.0	2.5	/experiments/AOT/AOT_stimuli/rescaled_final/1490_rv.mp4	0.0	342.95940494537354	
71	306.93965888023376	fix_post	2		12	69.0	2.5	/experiments/AOT/AOT_stimuli/rescaled_final/1490_rv.mp4	0.0	344.2753858566284	0.1000971794128418
72	307.0397560596466	fix_pre	0		120	70.0	2.5	blank	1.0	344.37548303604126	1.0003249645233154
72	307.22459983825684	pulse	0	t		70.0	2.5	blank	1.0	344.5603268146515	
72	308.0400810241699	movie	1		300	70.0	2.5	blank	1.0	345.3758080005646	2.500053882598877
72	308.82446098327637	pulse	1	t		70.0	2.5	blank	1.0	346.160187959671	
72	310.4244558811188	pulse	1	t		70.0	2.5	blank	1.0	347.7601828575134	
72	310.5401349067688	fix_post	2		12	70.0	2.5	blank	1.0	347.87586188316345	0.09994816780090332
73	310.6400830745697	fix_pre	0		120	71.0	2.5	/experiments/AOT/AOT_stimuli/rescaled_final/0722_rv.mp4	0.0	347.97581005096436	0.999985933303833
73	311.64006900787354	movie	1		245	71.0	2.5	/experiments/AOT/AOT_stimuli/rescaled_final/0722_rv.mp4	0.0	348.9757959842682	2.5000288486480713
73	312.03201603889465	pulse	1	t		71.0	2.5	/experiments/AOT/AOT_stimuli/rescaled_final/0722_rv.mp4	0.0	349.3677430152893	
73	313.62446188926697	pulse	1	t		71.0	2.5	/experiments/AOT/AOT_stimuli/rescaled_final/0722_rv.mp4	0.0	350.9601888656616	
73	314.1400978565216	fix_post	2		12	71.0	2.5	/experiments/AOT/AOT_stimuli/rescaled_final/0722_rv.mp4	0.0	351.47582483291626	0.09997701644897461
74	314.2400748729706	fix_pre	0		120	72.0	2.5	/experiments/AOT/AOT_stimuli/rescaled_final/0903_rv.mp4	0.0	351.57580184936523	0.9999401569366455
74	315.2244658470154	pulse	0	t		72.0	2.5	/experiments/AOT/AOT_stimuli/rescaled_final/0903_rv.mp4	0.0	352.56019282341003	
74	315.2400150299072	movie	1		246	72.0	2.5	/experiments/AOT/AOT_stimuli/rescaled_final/0903_rv.mp4	0.0	352.5757420063019	2.5082998275756836
74	316.8236310482025	pulse	1	t		72.0	2.5	/experiments/AOT/AOT_stimuli/rescaled_final/0903_rv.mp4	0.0	354.15935802459717	
74	317.7483148574829	fix_post	2		12	72.0	2.5	/experiments/AOT/AOT_stimuli/rescaled_final/0903_rv.mp4	0.0	355.08404183387756	0.10009002685546875
75	317.8484048843384	fix_pre	0		120	73.0	2.5	/experiments/AOT/AOT_stimuli/rescaled_final/1953_fw.mp4	0.0	355.18413186073303	0.9999749660491943
75	318.42361998558044	pulse	0	t		73.0	2.5	/experiments/AOT/AOT_stimuli/rescaled_final/1953_fw.mp4	0.0	355.7593469619751	
75	318.8483798503876	movie	1		243	73.0	2.5	/experiments/AOT/AOT_stimuli/rescaled_final/1953_fw.mp4	0.0	356.1841068267822	2.500035047531128
75	320.0319218635559	pulse	1	t		73.0	2.5	/experiments/AOT/AOT_stimuli/rescaled_final/1953_fw.mp4	0.0	357.36764883995056	
75	321.3484148979187	fix_post	2		12	73.0	2.5	/experiments/AOT/AOT_stimuli/rescaled_final/1953_fw.mp4	0.0	358.68414187431335	0.09992694854736328
76	321.44834184646606	fix_pre	0		120	74.0	2.5	/experiments/AOT/AOT_stimuli/rescaled_final/2064_rv.mp4	0.0	358.7840688228607	1.0000262260437012
76	321.62352991104126	pulse	0	t		74.0	2.5	/experiments/AOT/AOT_stimuli/rescaled_final/2064_rv.mp4	0.0	358.9592568874359	
76	322.44836807250977	movie	1		244	74.0	2.5	/experiments/AOT/AOT_stimuli/rescaled_final/2064_rv.mp4	0.0	359.7840950489044	2.5000298023223877
76	323.22439098358154	pulse	1	t		74.0	2.5	/experiments/AOT/AOT_stimuli/rescaled_final/2064_rv.mp4	0.0	360.5601179599762	
76	324.8304579257965	pulse	1	t		74.0	2.5	/experiments/AOT/AOT_stimuli/rescaled_final/2064_rv.mp4	0.0	362.16618490219116	
76	324.94839787483215	fix_post	2		12	74.0	2.5	/experiments/AOT/AOT_stimuli/rescaled_final/2064_rv.mp4	0.0	362.2841248512268	0.09997010231018066
77	325.04836797714233	fix_pre	0		120	75.0	2.5	/experiments/AOT/AOT_stimuli/rescaled_final/1264_fw.mp4	0.0	362.384094953537	1.0000078678131104
77	326.04837584495544	movie	1		245	75.0	2.5	/experiments/AOT/AOT_stimuli/rescaled_final/1264_fw.mp4	0.0	363.3841028213501	2.5000360012054443
77	326.4315650463104	pulse	1	t		75.0	2.5	/experiments/AOT/AOT_stimuli/rescaled_final/1264_fw.mp4	0.0	363.7672920227051	
77	328.0245740413666	pulse	1	t		75.0	2.5	/experiments/AOT/AOT_stimuli/rescaled_final/1264_fw.mp4	0.0	365.36030101776123	
77	328.5484118461609	fix_post	2		12	75.0	2.5	/experiments/AOT/AOT_stimuli/rescaled_final/1264_fw.mp4	0.0	365.88413882255554	0.10016918182373047
78	328.6485810279846	fix_pre	0		119	76.0	2.5	/experiments/AOT/AOT_stimuli/rescaled_final/1721_rv.mp4	0.0	365.9843080043793	0.9914448261260986
78	329.62428402900696	pulse	0	t		76.0	2.5	/experiments/AOT/AOT_stimuli/rescaled_final/1721_rv.mp4	0.0	366.9600110054016	
78	329.6400258541107	movie	1		245	76.0	2.5	/experiments/AOT/AOT_stimuli/rescaled_final/1721_rv.mp4	0.0	366.97575283050537	2.5080201625823975
78	331.2315740585327	pulse	1	t		76.0	2.5	/experiments/AOT/AOT_stimuli/rescaled_final/1721_rv.mp4	0.0	368.56730103492737	
78	332.1480460166931	fix_post	2		12	76.0	2.5	/experiments/AOT/AOT_stimuli/rescaled_final/1721_rv.mp4	0.0	369.48377299308777	0.09983491897583008
79	332.24788093566895	fix_pre	0		120	77.0	2.5	blank	1.0	369.5836079120636	1.000473976135254
79	332.82431507110596	pulse	0	t		77.0	2.5	blank	1.0	370.1600420475006	
79	333.2483549118042	movie	1		300	77.0	2.5	blank	1.0	370.58408188819885	2.49995493888855
79	334.4235100746155	pulse	1	t		77.0	2.5	blank	1.0	371.75923705101013	
79	335.74830985069275	fix_post	2		12	77.0	2.5	blank	1.0	373.0840368270874	0.09961700439453125
80	335.8479268550873	fix_pre	0		120	78.0	2.5	/experiments/AOT/AOT_stimuli/rescaled_final/0115_fw.mp4	0.0	373.18365383148193	1.0004041194915771
80	336.0235300064087	pulse	0	t		78.0	2.5	/experiments/AOT/AOT_stimuli/rescaled_final/0115_fw.mp4	0.0	373.35925698280334	
80	336.84833097457886	movie	1		245	78.0	2.5	/experiments/AOT/AOT_stimuli/rescaled_final/0115_fw.mp4	0.0	374.1840579509735	2.500011920928955
80	337.623496055603	pulse	1	t		78.0	2.5	/experiments/AOT/AOT_stimuli/rescaled_final/0115_fw.mp4	0.0	374.9592230319977	
80	339.227814912796	pulse	1	t		78.0	2.5	/experiments/AOT/AOT_stimuli/rescaled_final/0115_fw.mp4	0.0	376.5635418891907	
80	339.3483428955078	fix_post	2		12	78.0	2.5	/experiments/AOT/AOT_stimuli/rescaled_final/0115_fw.mp4	0.0	376.68406987190247	0.09991908073425293
81	339.44826197624207	fix_pre	0		120	79.0	2.5	/experiments/AOT/AOT_stimuli/rescaled_final/1083_rv.mp4	0.0	376.7839889526367	1.0000429153442383
81	340.4483048915863	movie	1		245	79.0	2.5	/experiments/AOT/AOT_stimuli/rescaled_final/1083_rv.mp4	0.0	377.78403186798096	2.499969959259033
81	340.83141899108887	pulse	1	t		79.0	2.5	/experiments/AOT/AOT_stimuli/rescaled_final/1083_rv.mp4	0.0	378.1671459674835	
81	342.4244689941406	pulse	1	t		79.0	2.5	/experiments/AOT/AOT_stimuli/rescaled_final/1083_rv.mp4	0.0	379.7601959705353	
81	342.94827485084534	fix_post	2		12	79.0	2.5	/experiments/AOT/AOT_stimuli/rescaled_final/1083_rv.mp4	0.0	380.28400182724	0.10009503364562988
82	343.04836988449097	fix_pre	0		119	80.0	2.5	/experiments/AOT/AOT_stimuli/rescaled_final/1260_rv.mp4	0.0	380.3840968608856	0.9916110038757324
82	344.02425503730774	pulse	0	t		80.0	2.5	/experiments/AOT/AOT_stimuli/rescaled_final/1260_rv.mp4	0.0	381.3599820137024	
82	344.0399808883667	movie	1		247	80.0	2.5	/experiments/AOT/AOT_stimuli/rescaled_final/1260_rv.mp4	0.0	381.37570786476135	2.508031129837036
82	345.63118600845337	pulse	1	t		80.0	2.5	/experiments/AOT/AOT_stimuli/rescaled_final/1260_rv.mp4	0.0	382.966912984848	
82	346.54801201820374	fix_post	2		12	80.0	2.5	/experiments/AOT/AOT_stimuli/rescaled_final/1260_rv.mp4	0.0	383.8837389945984	0.10001087188720703
83	346.64802289009094	fix_pre	0		120	81.0	2.5	/experiments/AOT/AOT_stimuli/rescaled_final/2089_rv.mp4	0.0	383.9837498664856	1.0001440048217773
83	347.2240319252014	pulse	0	t		81.0	2.5	/experiments/AOT/AOT_stimuli/rescaled_final/2089_rv.mp4	0.0	384.55975890159607	
83	347.6481668949127	movie	1		245	81.0	2.5	/experiments/AOT/AOT_stimuli/rescaled_final/2089_rv.mp4	0.0	384.9838938713074	2.500046968460083
83	348.831876039505	pulse	1	t		81.0	2.5	/experiments/AOT/AOT_stimuli/rescaled_final/2089_rv.mp4	0.0	386.16760301589966	
83	350.1482138633728	fix_post	2		12	81.0	2.5	/experiments/AOT/AOT_stimuli/rescaled_final/2089_rv.mp4	0.0	387.48394083976746	0.1000521183013916
84	350.2482659816742	fix_pre	0		120	82.0	2.5	/experiments/AOT/AOT_stimuli/rescaled_final/1974_fw.mp4	0.0	387.58399295806885	0.9995889663696289
84	350.4241759777069	pulse	0	t		82.0	2.5	/experiments/AOT/AOT_stimuli/rescaled_final/1974_fw.mp4	0.0	387.75990295410156	
84	351.2478549480438	movie	1		246	82.0	2.5	/experiments/AOT/AOT_stimuli/rescaled_final/1974_fw.mp4	0.0	388.5835819244385	2.5003960132598877
84	352.0234429836273	pulse	1	t		82.0	2.5	/experiments/AOT/AOT_stimuli/rescaled_final/1974_fw.mp4	0.0	389.359169960022	
84	353.62330198287964	pulse	1	t		82.0	2.5	/experiments/AOT/AOT_stimuli/rescaled_final/1974_fw.mp4	0.0	390.9590289592743	
84	353.7482509613037	fix_post	2		12	82.0	2.5	/experiments/AOT/AOT_stimuli/rescaled_final/1974_fw.mp4	0.0	391.08397793769836	0.09995508193969727
85	353.8482060432434	fix_pre	0		120	83.0	2.5	blank	1.0	391.18393301963806	0.9995889663696289
85	354.84779500961304	movie	1		300	83.0	2.5	blank	1.0	392.1835219860077	2.50039005279541
85	355.23170495033264	pulse	1	t		83.0	2.5	blank	1.0	392.5674319267273	
85	356.824138879776	pulse	1	t		83.0	2.5	blank	1.0	394.15986585617065	
85	357.34818506240845	fix_post	2		12	83.0	2.5	blank	1.0	394.6839120388031	0.10003185272216797
87	357.4482169151306	stim	0		1716					394.78394389152527	14.299976110458374
87	358.4243860244751	pulse	0	t						395.76011300086975	
87	360.0242848396301	pulse	0	t						397.3600118160248	
87	361.6243450641632	pulse	0	t						398.96007204055786	
87	363.22437596321106	pulse	0	t						400.5601029396057	
87	364.82428193092346	pulse	0	t						402.1600089073181	
87	366.42427587509155	pulse	0	t						403.7600028514862	
87	368.02413988113403	pulse	0	t						405.3598668575287	
87	369.62426590919495	pulse	0	t						406.9599928855896	
87	371.22421383857727	pulse	0	t						408.5599408149719	
