trial_nr	onset	event_type	phase	response	nr_frames	movie_index	movie_duration	movie_file	blank	onset_abs	duration
0	0.183258056640625	stim	0		269					38.537729024887085	2.2418880462646484
0	2.4171571731567383	response	0	space						40.7716281414032	
1	2.4251461029052734	stim	0		4938					40.77961707115173	41.16647005081177
1	43.581860065460205	pulse	0	t						81.93633103370667	
1	43.59161615371704	stim	1		1715					81.9460871219635	14.300179958343506
1	45.17333698272705	pulse	1	t						83.52780795097351	
1	46.77368903160095	pulse	1	t						85.12815999984741	
1	48.37384009361267	pulse	1	t						86.72831106185913	
1	49.97411608695984	pulse	1	t						88.3285870552063	
1	51.574326038360596	pulse	1	t						89.92879700660706	
1	53.174604177474976	pulse	1	t						91.52907514572144	
1	54.774829149246216	pulse	1	t						93.12930011749268	
1	56.37507915496826	pulse	1	t						94.72955012321472	
2	57.89179611206055	fix_pre	0		11	0.0	2.5	/experiments/knapen_AOT/AOT_stimuli/rescaled_final/2009_rv.mp4	0.0	96.246267080307	0.0917060375213623
2	57.975311040878296	pulse	0	t		0.0	2.5	/experiments/knapen_AOT/AOT_stimuli/rescaled_final/2009_rv.mp4	0.0	96.32978200912476	
2	57.98350214958191	movie	1		247	0.0	2.5	/experiments/knapen_AOT/AOT_stimuli/rescaled_final/2009_rv.mp4	0.0	96.33797311782837	2.5086429119110107
2	59.57693910598755	pulse	1	t		0.0	2.5	/experiments/knapen_AOT/AOT_stimuli/rescaled_final/2009_rv.mp4	0.0	97.93141007423401	
2	60.49214506149292	fix_post	2		12	0.0	2.5	/experiments/knapen_AOT/AOT_stimuli/rescaled_final/2009_rv.mp4	0.0	98.84661602973938	0.10003209114074707
3	60.59217715263367	fix_pre	0		120	1.0	2.5	/experiments/knapen_AOT/AOT_stimuli/rescaled_final/1286_fw.mp4	0.0	98.94664812088013	1.0001599788665771
3	61.175942182540894	pulse	0	t		1.0	2.5	/experiments/knapen_AOT/AOT_stimuli/rescaled_final/1286_fw.mp4	0.0	99.53041315078735	
3	61.592337131500244	movie	1		245	1.0	2.5	/experiments/knapen_AOT/AOT_stimuli/rescaled_final/1286_fw.mp4	0.0	99.9468080997467	2.5003340244293213
3	62.77622699737549	pulse	1	t		1.0	2.5	/experiments/knapen_AOT/AOT_stimuli/rescaled_final/1286_fw.mp4	0.0	101.13069796562195	
3	64.09267115592957	fix_post	2		12	1.0	2.5	/experiments/knapen_AOT/AOT_stimuli/rescaled_final/1286_fw.mp4	0.0	102.44714212417603	0.10002684593200684
4	64.19269800186157	fix_pre	0		120	2.0	2.5	/experiments/knapen_AOT/AOT_stimuli/rescaled_final/1304_rv.mp4	0.0	102.54716897010803	1.0001351833343506
4	64.37628316879272	pulse	0	t		2.0	2.5	/experiments/knapen_AOT/AOT_stimuli/rescaled_final/1304_rv.mp4	0.0	102.73075413703918	
4	65.19283318519592	movie	1		244	2.0	2.5	/experiments/knapen_AOT/AOT_stimuli/rescaled_final/1304_rv.mp4	0.0	103.54730415344238	2.5003979206085205
4	65.9765191078186	pulse	1	t		2.0	2.5	/experiments/knapen_AOT/AOT_stimuli/rescaled_final/1304_rv.mp4	0.0	104.33099007606506	
4	67.57670497894287	pulse	1	t		2.0	2.5	/experiments/knapen_AOT/AOT_stimuli/rescaled_final/1304_rv.mp4	0.0	105.93117594718933	
4	67.69323110580444	fix_post	2		12	2.0	2.5	/experiments/knapen_AOT/AOT_stimuli/rescaled_final/1304_rv.mp4	0.0	106.0477020740509	0.10000395774841309
5	67.79323506355286	fix_pre	0		119	3.0	2.5	/experiments/knapen_AOT/AOT_stimuli/rescaled_final/0947_rv.mp4	0.0	106.14770603179932	0.9918339252471924
5	68.78506898880005	movie	1		244	3.0	2.5	/experiments/knapen_AOT/AOT_stimuli/rescaled_final/0947_rv.mp4	0.0	107.13953995704651	2.5003890991210938
5	69.17717504501343	pulse	1	t		3.0	2.5	/experiments/knapen_AOT/AOT_stimuli/rescaled_final/0947_rv.mp4	0.0	107.53164601325989	
5	70.77729797363281	pulse	1	t		3.0	2.5	/experiments/knapen_AOT/AOT_stimuli/rescaled_final/0947_rv.mp4	0.0	109.13176894187927	
5	71.28545808792114	fix_post	2		12	3.0	2.5	/experiments/knapen_AOT/AOT_stimuli/rescaled_final/0947_rv.mp4	0.0	109.6399290561676	0.1000521183013916
6	71.38551020622253	fix_pre	0		120	4.0	2.5	/experiments/knapen_AOT/AOT_stimuli/rescaled_final/1686_rv.mp4	0.0	109.739981174469	1.0001518726348877
6	72.37739706039429	pulse	0	t		4.0	2.5	/experiments/knapen_AOT/AOT_stimuli/rescaled_final/1686_rv.mp4	0.0	110.73186802864075	
6	72.38566207885742	movie	1		244	4.0	2.5	/experiments/knapen_AOT/AOT_stimuli/rescaled_final/1686_rv.mp4	0.0	110.74013304710388	2.508625030517578
6	73.97817516326904	pulse	1	t		4.0	2.5	/experiments/knapen_AOT/AOT_stimuli/rescaled_final/1686_rv.mp4	0.0	112.3326461315155	
6	74.894287109375	fix_post	2		12	4.0	2.5	/experiments/knapen_AOT/AOT_stimuli/rescaled_final/1686_rv.mp4	0.0	113.24875807762146	0.10008001327514648
7	74.99436712265015	fix_pre	0		120	5.0	2.5	/experiments/knapen_AOT/AOT_stimuli/rescaled_final/1880_fw.mp4	0.0	113.3488380908966	1.0001108646392822
7	75.57810711860657	pulse	0	t		5.0	2.5	/experiments/knapen_AOT/AOT_stimuli/rescaled_final/1880_fw.mp4	0.0	113.93257808685303	
7	75.99447798728943	movie	1		244	5.0	2.5	/experiments/knapen_AOT/AOT_stimuli/rescaled_final/1880_fw.mp4	0.0	114.34894895553589	2.5003530979156494
7	77.17833113670349	pulse	1	t		5.0	2.5	/experiments/knapen_AOT/AOT_stimuli/rescaled_final/1880_fw.mp4	0.0	115.53280210494995	
7	78.49483108520508	fix_post	2		12	5.0	2.5	/experiments/knapen_AOT/AOT_stimuli/rescaled_final/1880_fw.mp4	0.0	116.84930205345154	0.1000220775604248
8	78.5948531627655	fix_pre	0		120	6.0	2.5	blank	1.0	116.94932413101196	1.0002028942108154
8	78.7709801197052	pulse	0	t		6.0	2.5	blank	1.0	117.12545108795166	
8	79.59505605697632	movie	1		299	6.0	2.5	blank	1.0	117.94952702522278	2.4920120239257812
8	80.37115502357483	pulse	1	t		6.0	2.5	blank	1.0	118.72562599182129	
8	81.97131013870239	pulse	1	t		6.0	2.5	blank	1.0	120.32578110694885	
8	82.0870680809021	fix_post	2		12	6.0	2.5	blank	1.0	120.44153904914856	0.10000801086425781
9	82.18707609176636	fix_pre	0		120	7.0	2.5	/experiments/knapen_AOT/AOT_stimuli/rescaled_final/1857_fw.mp4	0.0	120.54154706001282	1.0001609325408936
9	83.18723702430725	movie	1		243	7.0	2.5	/experiments/knapen_AOT/AOT_stimuli/rescaled_final/1857_fw.mp4	0.0	121.54170799255371	2.50032901763916
9	83.57128405570984	pulse	1	t		7.0	2.5	/experiments/knapen_AOT/AOT_stimuli/rescaled_final/1857_fw.mp4	0.0	121.9257550239563	
9	85.17098808288574	pulse	1	t		7.0	2.5	/experiments/knapen_AOT/AOT_stimuli/rescaled_final/1857_fw.mp4	0.0	123.5254590511322	
9	85.68756604194641	fix_post	2		12	7.0	2.5	/experiments/knapen_AOT/AOT_stimuli/rescaled_final/1857_fw.mp4	0.0	124.04203701019287	0.10004305839538574
10	85.7876091003418	fix_pre	0		119	8.0	2.5	/experiments/knapen_AOT/AOT_stimuli/rescaled_final/1308_rv.mp4	0.0	124.14208006858826	0.9918489456176758
10	86.77121615409851	pulse	0	t		8.0	2.5	/experiments/knapen_AOT/AOT_stimuli/rescaled_final/1308_rv.mp4	0.0	125.12568712234497	
10	86.77945804595947	movie	1		245	8.0	2.5	/experiments/knapen_AOT/AOT_stimuli/rescaled_final/1308_rv.mp4	0.0	125.13392901420593	2.5086779594421387
10	88.37218403816223	pulse	1	t		8.0	2.5	/experiments/knapen_AOT/AOT_stimuli/rescaled_final/1308_rv.mp4	0.0	126.72665500640869	
10	89.28813600540161	fix_post	2		12	8.0	2.5	/experiments/knapen_AOT/AOT_stimuli/rescaled_final/1308_rv.mp4	0.0	127.64260697364807	0.10004305839538574
11	89.388179063797	fix_pre	0		120	9.0	2.5	/experiments/knapen_AOT/AOT_stimuli/rescaled_final/0244_fw.mp4	0.0	127.74265003204346	1.0001230239868164
11	89.97179102897644	pulse	0	t		9.0	2.5	/experiments/knapen_AOT/AOT_stimuli/rescaled_final/0244_fw.mp4	0.0	128.3262619972229	
11	90.38830208778381	movie	1		245	9.0	2.5	/experiments/knapen_AOT/AOT_stimuli/rescaled_final/0244_fw.mp4	0.0	128.74277305603027	2.5003349781036377
11	91.57207918167114	pulse	1	t		9.0	2.5	/experiments/knapen_AOT/AOT_stimuli/rescaled_final/0244_fw.mp4	0.0	129.9265501499176	
11	92.88863706588745	fix_post	2		12	9.0	2.5	/experiments/knapen_AOT/AOT_stimuli/rescaled_final/0244_fw.mp4	0.0	131.2431080341339	0.10004091262817383
12	92.98867797851562	fix_pre	0		120	10.0	2.5	/experiments/knapen_AOT/AOT_stimuli/rescaled_final/1776_fw.mp4	0.0	131.34314894676208	1.000195026397705
12	93.1722559928894	pulse	0	t		10.0	2.5	/experiments/knapen_AOT/AOT_stimuli/rescaled_final/1776_fw.mp4	0.0	131.52672696113586	
12	93.98887300491333	movie	1		243	10.0	2.5	/experiments/knapen_AOT/AOT_stimuli/rescaled_final/1776_fw.mp4	0.0	132.3433439731598	2.5004031658172607
12	94.77245807647705	pulse	1	t		10.0	2.5	/experiments/knapen_AOT/AOT_stimuli/rescaled_final/1776_fw.mp4	0.0	133.1269290447235	
12	96.37338304519653	pulse	1	t		10.0	2.5	/experiments/knapen_AOT/AOT_stimuli/rescaled_final/1776_fw.mp4	0.0	134.727854013443	
12	96.48927617073059	fix_post	2		12	10.0	2.5	/experiments/knapen_AOT/AOT_stimuli/rescaled_final/1776_fw.mp4	0.0	134.84374713897705	0.09994101524353027
13	96.58921718597412	fix_pre	0		120	11.0	2.5	/experiments/knapen_AOT/AOT_stimuli/rescaled_final/0154_rv.mp4	0.0	134.94368815422058	1.000229835510254
13	97.58944702148438	movie	1		244	11.0	2.5	/experiments/knapen_AOT/AOT_stimuli/rescaled_final/0154_rv.mp4	0.0	135.94391798973083	2.4919590950012207
13	97.97432518005371	pulse	1	t		11.0	2.5	/experiments/knapen_AOT/AOT_stimuli/rescaled_final/0154_rv.mp4	0.0	136.32879614830017	
13	99.57324004173279	pulse	1	t		11.0	2.5	/experiments/knapen_AOT/AOT_stimuli/rescaled_final/0154_rv.mp4	0.0	137.92771100997925	
13	100.0814061164856	fix_post	2		12	11.0	2.5	/experiments/knapen_AOT/AOT_stimuli/rescaled_final/0154_rv.mp4	0.0	138.43587708473206	0.10001087188720703
14	100.1814169883728	fix_pre	0		120	12.0	2.5	/experiments/knapen_AOT/AOT_stimuli/rescaled_final/2169_fw.mp4	0.0	138.53588795661926	1.0001811981201172
14	101.17337799072266	pulse	0	t		12.0	2.5	/experiments/knapen_AOT/AOT_stimuli/rescaled_final/2169_fw.mp4	0.0	139.52784895896912	
14	101.18159818649292	movie	1		244	12.0	2.5	/experiments/knapen_AOT/AOT_stimuli/rescaled_final/2169_fw.mp4	0.0	139.53606915473938	2.5086967945098877
14	102.77842402458191	pulse	1	t		12.0	2.5	/experiments/knapen_AOT/AOT_stimuli/rescaled_final/2169_fw.mp4	0.0	141.13289499282837	
14	103.69029498100281	fix_post	2		12	12.0	2.5	/experiments/knapen_AOT/AOT_stimuli/rescaled_final/2169_fw.mp4	0.0	142.04476594924927	0.09999918937683105
15	103.79029417037964	fix_pre	0		120	13.0	2.5	blank	1.0	142.1447651386261	1.0001518726348877
15	104.37385416030884	pulse	0	t		13.0	2.5	blank	1.0	142.7283251285553	
15	104.79044604301453	movie	1		300	13.0	2.5	blank	1.0	143.144917011261	2.5003950595855713
15	105.97419500350952	pulse	1	t		13.0	2.5	blank	1.0	144.32866597175598	
15	107.2908411026001	fix_post	2		12	13.0	2.5	blank	1.0	145.64531207084656	0.10000205039978027
16	107.39084315299988	fix_pre	0		120	14.0	2.5	/experiments/knapen_AOT/AOT_stimuli/rescaled_final/1686_fw.mp4	0.0	145.74531412124634	1.00016188621521
16	107.57436418533325	pulse	0	t		14.0	2.5	/experiments/knapen_AOT/AOT_stimuli/rescaled_final/1686_fw.mp4	0.0	145.9288351535797	
16	108.39100503921509	movie	1		242	14.0	2.5	/experiments/knapen_AOT/AOT_stimuli/rescaled_final/1686_fw.mp4	0.0	146.74547600746155	2.5003459453582764
16	109.1746871471405	pulse	1	t		14.0	2.5	/experiments/knapen_AOT/AOT_stimuli/rescaled_final/1686_fw.mp4	0.0	147.52915811538696	
16	110.77485799789429	pulse	1	t		14.0	2.5	/experiments/knapen_AOT/AOT_stimuli/rescaled_final/1686_fw.mp4	0.0	149.12932896614075	
16	110.89135098457336	fix_post	2		12	14.0	2.5	/experiments/knapen_AOT/AOT_stimuli/rescaled_final/1686_fw.mp4	0.0	149.24582195281982	0.1000070571899414
17	110.9913580417633	fix_pre	0		120	15.0	2.5	/experiments/knapen_AOT/AOT_stimuli/rescaled_final/0395_fw.mp4	0.0	149.34582901000977	1.000175952911377
17	111.99153399467468	movie	1		244	15.0	2.5	/experiments/knapen_AOT/AOT_stimuli/rescaled_final/0395_fw.mp4	0.0	150.34600496292114	2.4920451641082764
17	112.37950706481934	pulse	1	t		15.0	2.5	/experiments/knapen_AOT/AOT_stimuli/rescaled_final/0395_fw.mp4	0.0	150.7339780330658	
17	113.97527813911438	pulse	1	t		15.0	2.5	/experiments/knapen_AOT/AOT_stimuli/rescaled_final/0395_fw.mp4	0.0	152.32974910736084	
17	114.48357915878296	fix_post	2		12	15.0	2.5	/experiments/knapen_AOT/AOT_stimuli/rescaled_final/0395_fw.mp4	0.0	152.83805012702942	0.09998798370361328
18	114.58356714248657	fix_pre	0		120	16.0	2.5	/experiments/knapen_AOT/AOT_stimuli/rescaled_final/1220_fw.mp4	0.0	152.93803811073303	1.000133991241455
18	115.57567811012268	pulse	0	t		16.0	2.5	/experiments/knapen_AOT/AOT_stimuli/rescaled_final/1220_fw.mp4	0.0	153.93014907836914	
18	115.58370113372803	movie	1		244	16.0	2.5	/experiments/knapen_AOT/AOT_stimuli/rescaled_final/1220_fw.mp4	0.0	153.9381721019745	2.5087380409240723
18	117.18052411079407	pulse	1	t		16.0	2.5	/experiments/knapen_AOT/AOT_stimuli/rescaled_final/1220_fw.mp4	0.0	155.53499507904053	
18	118.0924391746521	fix_post	2		12	16.0	2.5	/experiments/knapen_AOT/AOT_stimuli/rescaled_final/1220_fw.mp4	0.0	156.44691014289856	0.10001087188720703
19	118.1924500465393	fix_pre	0		120	17.0	2.5	/experiments/knapen_AOT/AOT_stimuli/rescaled_final/2160_fw.mp4	0.0	156.54692101478577	1.0001671314239502
19	118.7760910987854	pulse	0	t		17.0	2.5	/experiments/knapen_AOT/AOT_stimuli/rescaled_final/2160_fw.mp4	0.0	157.13056206703186	
19	119.19261717796326	movie	1		245	17.0	2.5	/experiments/knapen_AOT/AOT_stimuli/rescaled_final/2160_fw.mp4	0.0	157.54708814620972	2.500356912612915
19	120.37635707855225	pulse	1	t		17.0	2.5	/experiments/knapen_AOT/AOT_stimuli/rescaled_final/2160_fw.mp4	0.0	158.7308280467987	
19	121.69297409057617	fix_post	2		12	17.0	2.5	/experiments/knapen_AOT/AOT_stimuli/rescaled_final/2160_fw.mp4	0.0	160.04744505882263	0.10000896453857422
20	121.79298305511475	fix_pre	0		120	18.0	2.5	/experiments/knapen_AOT/AOT_stimuli/rescaled_final/2030_rv.mp4	0.0	160.1474540233612	1.0001509189605713
20	121.97665119171143	pulse	0	t		18.0	2.5	/experiments/knapen_AOT/AOT_stimuli/rescaled_final/2030_rv.mp4	0.0	160.33112215995789	
20	122.79313397407532	movie	1		243	18.0	2.5	/experiments/knapen_AOT/AOT_stimuli/rescaled_final/2030_rv.mp4	0.0	161.14760494232178	2.5003581047058105
20	123.57696008682251	pulse	1	t		18.0	2.5	/experiments/knapen_AOT/AOT_stimuli/rescaled_final/2030_rv.mp4	0.0	161.93143105506897	
20	125.17703413963318	pulse	1	t		18.0	2.5	/experiments/knapen_AOT/AOT_stimuli/rescaled_final/2030_rv.mp4	0.0	163.53150510787964	
20	125.29349207878113	fix_post	2		12	18.0	2.5	/experiments/knapen_AOT/AOT_stimuli/rescaled_final/2030_rv.mp4	0.0	163.6479630470276	0.10004091262817383
21	125.3935329914093	fix_pre	0		120	19.0	2.5	blank	1.0	163.74800395965576	1.0001451969146729
21	126.39367818832397	movie	1		299	19.0	2.5	blank	1.0	164.74814915657043	2.492064952850342
21	126.77727699279785	pulse	1	t		19.0	2.5	blank	1.0	165.1317479610443	
21	128.3775191307068	pulse	1	t		19.0	2.5	blank	1.0	166.73199009895325	
21	128.88574314117432	fix_post	2		12	19.0	2.5	blank	1.0	167.24021410942078	0.09998893737792969
22	128.98573207855225	fix_pre	0		120	20.0	2.5	/experiments/knapen_AOT/AOT_stimuli/rescaled_final/1406_fw.mp4	0.0	167.3402030467987	1.0001530647277832
22	129.97780513763428	pulse	0	t		20.0	2.5	/experiments/knapen_AOT/AOT_stimuli/rescaled_final/1406_fw.mp4	0.0	168.33227610588074	
22	129.98588514328003	movie	1		244	20.0	2.5	/experiments/knapen_AOT/AOT_stimuli/rescaled_final/1406_fw.mp4	0.0	168.3403561115265	2.508704900741577
22	131.57847809791565	pulse	1	t		20.0	2.5	/experiments/knapen_AOT/AOT_stimuli/rescaled_final/1406_fw.mp4	0.0	169.9329490661621	
22	132.4945900440216	fix_post	2		12	20.0	2.5	/experiments/knapen_AOT/AOT_stimuli/rescaled_final/1406_fw.mp4	0.0	170.84906101226807	0.09999608993530273
23	132.5945861339569	fix_pre	0		120	21.0	2.5	/experiments/knapen_AOT/AOT_stimuli/rescaled_final/1747_fw.mp4	0.0	170.94905710220337	1.0001659393310547
23	133.178209066391	pulse	0	t		21.0	2.5	/experiments/knapen_AOT/AOT_stimuli/rescaled_final/1747_fw.mp4	0.0	171.53268003463745	
23	133.59475207328796	movie	1		243	21.0	2.5	/experiments/knapen_AOT/AOT_stimuli/rescaled_final/1747_fw.mp4	0.0	171.94922304153442	2.50039005279541
23	134.77153897285461	pulse	1	t		21.0	2.5	/experiments/knapen_AOT/AOT_stimuli/rescaled_final/1747_fw.mp4	0.0	173.12600994110107	
23	136.09514212608337	fix_post	2		12	21.0	2.5	/experiments/knapen_AOT/AOT_stimuli/rescaled_final/1747_fw.mp4	0.0	174.44961309432983	0.09999799728393555
24	136.1951401233673	fix_pre	0		120	22.0	2.5	/experiments/knapen_AOT/AOT_stimuli/rescaled_final/1049_rv.mp4	0.0	174.54961109161377	1.0001440048217773
24	136.37881517410278	pulse	0	t		22.0	2.5	/experiments/knapen_AOT/AOT_stimuli/rescaled_final/1049_rv.mp4	0.0	174.73328614234924	
24	137.1952841281891	movie	1		243	22.0	2.5	/experiments/knapen_AOT/AOT_stimuli/rescaled_final/1049_rv.mp4	0.0	175.54975509643555	2.500364065170288
24	137.9715061187744	pulse	1	t		22.0	2.5	/experiments/knapen_AOT/AOT_stimuli/rescaled_final/1049_rv.mp4	0.0	176.32597708702087	
24	139.57918214797974	pulse	1	t		22.0	2.5	/experiments/knapen_AOT/AOT_stimuli/rescaled_final/1049_rv.mp4	0.0	177.9336531162262	
24	139.69564819335938	fix_post	2		12	22.0	2.5	/experiments/knapen_AOT/AOT_stimuli/rescaled_final/1049_rv.mp4	0.0	178.05011916160583	0.10001277923583984
25	139.79566097259521	fix_pre	0		120	23.0	2.5	/experiments/knapen_AOT/AOT_stimuli/rescaled_final/1638_fw.mp4	0.0	178.15013194084167	1.000162124633789
25	140.795823097229	movie	1		243	23.0	2.5	/experiments/knapen_AOT/AOT_stimuli/rescaled_final/1638_fw.mp4	0.0	179.15029406547546	2.4921228885650635
25	141.18003702163696	pulse	1	t		23.0	2.5	/experiments/knapen_AOT/AOT_stimuli/rescaled_final/1638_fw.mp4	0.0	179.53450798988342	
25	142.77231907844543	pulse	1	t		23.0	2.5	/experiments/knapen_AOT/AOT_stimuli/rescaled_final/1638_fw.mp4	0.0	181.1267900466919	
25	143.28794598579407	fix_post	2		12	23.0	2.5	/experiments/knapen_AOT/AOT_stimuli/rescaled_final/1638_fw.mp4	0.0	181.64241695404053	0.0999300479888916
26	143.38787603378296	fix_pre	0		119	24.0	2.5	/experiments/knapen_AOT/AOT_stimuli/rescaled_final/0379_rv.mp4	0.0	181.74234700202942	0.9918601512908936
26	144.37150120735168	pulse	0	t		24.0	2.5	/experiments/knapen_AOT/AOT_stimuli/rescaled_final/0379_rv.mp4	0.0	182.72597217559814	
26	144.37973618507385	movie	1		244	24.0	2.5	/experiments/knapen_AOT/AOT_stimuli/rescaled_final/0379_rv.mp4	0.0	182.7342071533203	2.5086519718170166
26	145.97214007377625	pulse	1	t		24.0	2.5	/experiments/knapen_AOT/AOT_stimuli/rescaled_final/0379_rv.mp4	0.0	184.3266110420227	
26	146.88838815689087	fix_post	2		12	24.0	2.5	/experiments/knapen_AOT/AOT_stimuli/rescaled_final/0379_rv.mp4	0.0	185.24285912513733	0.10001087188720703
27	146.98839902877808	fix_pre	0		120	25.0	2.5	/experiments/knapen_AOT/AOT_stimuli/rescaled_final/1457_fw.mp4	0.0	185.34286999702454	1.0001721382141113
27	147.57212018966675	pulse	0	t		25.0	2.5	/experiments/knapen_AOT/AOT_stimuli/rescaled_final/1457_fw.mp4	0.0	185.9265911579132	
27	147.9885711669922	movie	1		244	25.0	2.5	/experiments/knapen_AOT/AOT_stimuli/rescaled_final/1457_fw.mp4	0.0	186.34304213523865	2.500391960144043
27	149.1723392009735	pulse	1	t		25.0	2.5	/experiments/knapen_AOT/AOT_stimuli/rescaled_final/1457_fw.mp4	0.0	187.52681016921997	
27	150.48896312713623	fix_post	2		12	25.0	2.5	/experiments/knapen_AOT/AOT_stimuli/rescaled_final/1457_fw.mp4	0.0	188.8434340953827	0.09999203681945801
28	150.5889551639557	fix_pre	0		120	26.0	2.5	/experiments/knapen_AOT/AOT_stimuli/rescaled_final/1762_fw.mp4	0.0	188.94342613220215	1.0001568794250488
28	150.77253103256226	pulse	0	t		26.0	2.5	/experiments/knapen_AOT/AOT_stimuli/rescaled_final/1762_fw.mp4	0.0	189.12700200080872	
28	151.58911204338074	movie	1		243	26.0	2.5	/experiments/knapen_AOT/AOT_stimuli/rescaled_final/1762_fw.mp4	0.0	189.9435830116272	2.500343084335327
28	152.3728530406952	pulse	1	t		26.0	2.5	/experiments/knapen_AOT/AOT_stimuli/rescaled_final/1762_fw.mp4	0.0	190.72732400894165	
28	153.97302198410034	pulse	1	t		26.0	2.5	/experiments/knapen_AOT/AOT_stimuli/rescaled_final/1762_fw.mp4	0.0	192.3274929523468	
28	154.08945512771606	fix_post	2		12	26.0	2.5	/experiments/knapen_AOT/AOT_stimuli/rescaled_final/1762_fw.mp4	0.0	192.44392609596252	0.10007691383361816
29	154.18953204154968	fix_pre	0		119	27.0	2.5	/experiments/knapen_AOT/AOT_stimuli/rescaled_final/1770_rv.mp4	0.0	192.54400300979614	0.9917869567871094
29	155.1813189983368	movie	1		243	27.0	2.5	/experiments/knapen_AOT/AOT_stimuli/rescaled_final/1770_rv.mp4	0.0	193.53578996658325	2.500383138656616
29	155.57327103614807	pulse	1	t		27.0	2.5	/experiments/knapen_AOT/AOT_stimuli/rescaled_final/1770_rv.mp4	0.0	193.92774200439453	
29	157.173406124115	pulse	1	t		27.0	2.5	/experiments/knapen_AOT/AOT_stimuli/rescaled_final/1770_rv.mp4	0.0	195.52787709236145	
29	157.6817021369934	fix_post	2		12	27.0	2.5	/experiments/knapen_AOT/AOT_stimuli/rescaled_final/1770_rv.mp4	0.0	196.03617310523987	0.09997892379760742
30	157.78168106079102	fix_pre	0		120	28.0	2.5	blank	1.0	196.13615202903748	1.0002341270446777
30	158.77374601364136	pulse	0	t		28.0	2.5	blank	1.0	197.12821698188782	
30	158.7819151878357	movie	1		301	28.0	2.5	blank	1.0	197.13638615608215	2.508646011352539
30	160.37407112121582	pulse	1	t		28.0	2.5	blank	1.0	198.72854208946228	
30	161.29056119918823	fix_post	2		12	28.0	2.5	blank	1.0	199.6450321674347	0.09999394416809082
31	161.39055514335632	fix_pre	0		120	29.0	2.5	/experiments/knapen_AOT/AOT_stimuli/rescaled_final/1590_rv.mp4	0.0	199.74502611160278	1.000175952911377
31	161.97417402267456	pulse	0	t		29.0	2.5	/experiments/knapen_AOT/AOT_stimuli/rescaled_final/1590_rv.mp4	0.0	200.32864499092102	
31	162.3907310962677	movie	1		245	29.0	2.5	/experiments/knapen_AOT/AOT_stimuli/rescaled_final/1590_rv.mp4	0.0	200.74520206451416	2.5003550052642822
31	163.5744490623474	pulse	1	t		29.0	2.5	/experiments/knapen_AOT/AOT_stimuli/rescaled_final/1590_rv.mp4	0.0	201.92892003059387	
31	164.89108610153198	fix_post	2		12	29.0	2.5	/experiments/knapen_AOT/AOT_stimuli/rescaled_final/1590_rv.mp4	0.0	203.24555706977844	0.10004305839538574
32	164.99112915992737	fix_pre	0		120	30.0	2.5	/experiments/knapen_AOT/AOT_stimuli/rescaled_final/1377_fw.mp4	0.0	203.34560012817383	1.0001208782196045
32	165.1747350692749	pulse	0	t		30.0	2.5	/experiments/knapen_AOT/AOT_stimuli/rescaled_final/1377_fw.mp4	0.0	203.52920603752136	
32	165.99125003814697	movie	1		243	30.0	2.5	/experiments/knapen_AOT/AOT_stimuli/rescaled_final/1377_fw.mp4	0.0	204.34572100639343	2.5003769397735596
32	166.77488613128662	pulse	1	t		30.0	2.5	/experiments/knapen_AOT/AOT_stimuli/rescaled_final/1377_fw.mp4	0.0	205.12935709953308	
32	168.37504410743713	pulse	1	t		30.0	2.5	/experiments/knapen_AOT/AOT_stimuli/rescaled_final/1377_fw.mp4	0.0	206.7295150756836	
32	168.49162697792053	fix_post	2		12	30.0	2.5	/experiments/knapen_AOT/AOT_stimuli/rescaled_final/1377_fw.mp4	0.0	206.846097946167	0.10031819343566895
33	168.5919451713562	fix_pre	0		117	31.0	2.5	/experiments/knapen_AOT/AOT_stimuli/rescaled_final/1073_rv.mp4	0.0	206.94641613960266	0.9914979934692383
33	169.58344316482544	movie	1		243	31.0	2.5	/experiments/knapen_AOT/AOT_stimuli/rescaled_final/1073_rv.mp4	0.0	207.9379141330719	2.5004069805145264
33	169.97549319267273	pulse	1	t		31.0	2.5	/experiments/knapen_AOT/AOT_stimuli/rescaled_final/1073_rv.mp4	0.0	208.3299641609192	
33	171.5757200717926	pulse	1	t		31.0	2.5	/experiments/knapen_AOT/AOT_stimuli/rescaled_final/1073_rv.mp4	0.0	209.93019104003906	
33	172.08385014533997	fix_post	2		12	31.0	2.5	/experiments/knapen_AOT/AOT_stimuli/rescaled_final/1073_rv.mp4	0.0	210.43832111358643	0.10006093978881836
34	172.18391108512878	fix_pre	0		120	32.0	2.5	/experiments/knapen_AOT/AOT_stimuli/rescaled_final/0966_fw.mp4	0.0	210.53838205337524	1.0001180171966553
34	173.1759741306305	pulse	0	t		32.0	2.5	/experiments/knapen_AOT/AOT_stimuli/rescaled_final/0966_fw.mp4	0.0	211.53044509887695	
34	173.18402910232544	movie	1		246	32.0	2.5	/experiments/knapen_AOT/AOT_stimuli/rescaled_final/0966_fw.mp4	0.0	211.5385000705719	2.508646011352539
34	174.77680206298828	pulse	1	t		32.0	2.5	/experiments/knapen_AOT/AOT_stimuli/rescaled_final/0966_fw.mp4	0.0	213.13127303123474	
34	175.69267511367798	fix_post	2		12	32.0	2.5	/experiments/knapen_AOT/AOT_stimuli/rescaled_final/0966_fw.mp4	0.0	214.04714608192444	0.10009193420410156
35	175.79276704788208	fix_pre	0		120	33.0	2.5	/experiments/knapen_AOT/AOT_stimuli/rescaled_final/0345_rv.mp4	0.0	214.14723801612854	1.0001449584960938
35	176.37634110450745	pulse	0	t		33.0	2.5	/experiments/knapen_AOT/AOT_stimuli/rescaled_final/0345_rv.mp4	0.0	214.7308120727539	
35	176.79291200637817	movie	1		243	33.0	2.5	/experiments/knapen_AOT/AOT_stimuli/rescaled_final/0345_rv.mp4	0.0	215.14738297462463	2.5003151893615723
35	177.9766321182251	pulse	1	t		33.0	2.5	/experiments/knapen_AOT/AOT_stimuli/rescaled_final/0345_rv.mp4	0.0	216.33110308647156	
35	179.29322719573975	fix_post	2		12	33.0	2.5	/experiments/knapen_AOT/AOT_stimuli/rescaled_final/0345_rv.mp4	0.0	217.6476981639862	0.10002899169921875
36	179.39325618743896	fix_pre	0		120	34.0	2.5	/experiments/knapen_AOT/AOT_stimuli/rescaled_final/0184_rv.mp4	0.0	217.74772715568542	1.0001788139343262
36	179.5768060684204	pulse	0	t		34.0	2.5	/experiments/knapen_AOT/AOT_stimuli/rescaled_final/0184_rv.mp4	0.0	217.93127703666687	
36	180.3934350013733	movie	1		244	34.0	2.5	/experiments/knapen_AOT/AOT_stimuli/rescaled_final/0184_rv.mp4	0.0	218.74790596961975	2.5003252029418945
36	181.17706108093262	pulse	1	t		34.0	2.5	/experiments/knapen_AOT/AOT_stimuli/rescaled_final/0184_rv.mp4	0.0	219.53153204917908	
36	182.77739906311035	pulse	1	t		34.0	2.5	/experiments/knapen_AOT/AOT_stimuli/rescaled_final/0184_rv.mp4	0.0	221.1318700313568	
36	182.89376020431519	fix_post	2		12	34.0	2.5	/experiments/knapen_AOT/AOT_stimuli/rescaled_final/0184_rv.mp4	0.0	221.24823117256165	0.10003876686096191
37	182.99379897117615	fix_pre	0		120	35.0	2.5	blank	1.0	221.3482699394226	1.0001561641693115
37	183.99395513534546	movie	1		299	35.0	2.5	blank	1.0	222.34842610359192	2.4920308589935303
37	184.37750101089478	pulse	1	t		35.0	2.5	blank	1.0	222.73197197914124	
37	185.9777340888977	pulse	1	t		35.0	2.5	blank	1.0	224.33220505714417	
37	186.485985994339	fix_post	2		12	35.0	2.5	blank	1.0	224.84045696258545	0.10002303123474121
38	186.58600902557373	fix_pre	0		120	36.0	2.5	/experiments/knapen_AOT/AOT_stimuli/rescaled_final/1304_rv.mp4	0.0	224.9404799938202	1.0001561641693115
38	187.57800197601318	pulse	0	t		36.0	2.5	/experiments/knapen_AOT/AOT_stimuli/rescaled_final/1304_rv.mp4	0.0	225.93247294425964	
38	187.58616518974304	movie	1		245	36.0	2.5	/experiments/knapen_AOT/AOT_stimuli/rescaled_final/1304_rv.mp4	0.0	225.9406361579895	2.5087180137634277
38	189.18294310569763	pulse	1	t		36.0	2.5	/experiments/knapen_AOT/AOT_stimuli/rescaled_final/1304_rv.mp4	0.0	227.5374140739441	
38	190.09488320350647	fix_post	2		12	36.0	2.5	/experiments/knapen_AOT/AOT_stimuli/rescaled_final/1304_rv.mp4	0.0	228.44935417175293	0.10003185272216797
39	190.19491505622864	fix_pre	0		120	37.0	2.5	/experiments/knapen_AOT/AOT_stimuli/rescaled_final/1182_fw.mp4	0.0	228.5493860244751	1.0001699924468994
39	190.778568983078	pulse	0	t		37.0	2.5	/experiments/knapen_AOT/AOT_stimuli/rescaled_final/1182_fw.mp4	0.0	229.13303995132446	
39	191.19508504867554	movie	1		244	37.0	2.5	/experiments/knapen_AOT/AOT_stimuli/rescaled_final/1182_fw.mp4	0.0	229.549556016922	2.5003011226654053
39	192.37883400917053	pulse	1	t		37.0	2.5	/experiments/knapen_AOT/AOT_stimuli/rescaled_final/1182_fw.mp4	0.0	230.733304977417	
39	193.69538617134094	fix_post	2		12	37.0	2.5	/experiments/knapen_AOT/AOT_stimuli/rescaled_final/1182_fw.mp4	0.0	232.0498571395874	0.10002398490905762
40	193.79541015625	fix_pre	0		120	38.0	2.5	/experiments/knapen_AOT/AOT_stimuli/rescaled_final/0434_rv.mp4	0.0	232.14988112449646	1.0001518726348877
40	193.97168111801147	pulse	0	t		38.0	2.5	/experiments/knapen_AOT/AOT_stimuli/rescaled_final/0434_rv.mp4	0.0	232.32615208625793	
40	194.7955620288849	movie	1		243	38.0	2.5	/experiments/knapen_AOT/AOT_stimuli/rescaled_final/0434_rv.mp4	0.0	233.15003299713135	2.5003700256347656
40	195.5717589855194	pulse	1	t		38.0	2.5	/experiments/knapen_AOT/AOT_stimuli/rescaled_final/0434_rv.mp4	0.0	233.92622995376587	
40	197.1712191104889	pulse	1	t		38.0	2.5	/experiments/knapen_AOT/AOT_stimuli/rescaled_final/0434_rv.mp4	0.0	235.52569007873535	
40	197.29593205451965	fix_post	2		12	38.0	2.5	/experiments/knapen_AOT/AOT_stimuli/rescaled_final/0434_rv.mp4	0.0	235.6504030227661	0.10007500648498535
41	197.39600706100464	fix_pre	0		120	39.0	2.5	/experiments/knapen_AOT/AOT_stimuli/rescaled_final/1511_fw.mp4	0.0	235.7504780292511	1.0001599788665771
41	198.39616703987122	movie	1		242	39.0	2.5	/experiments/knapen_AOT/AOT_stimuli/rescaled_final/1511_fw.mp4	0.0	236.75063800811768	2.4919421672821045
41	198.771311044693	pulse	1	t		39.0	2.5	/experiments/knapen_AOT/AOT_stimuli/rescaled_final/1511_fw.mp4	0.0	237.12578201293945	
41	200.37175917625427	pulse	1	t		39.0	2.5	/experiments/knapen_AOT/AOT_stimuli/rescaled_final/1511_fw.mp4	0.0	238.72623014450073	
41	200.88810920715332	fix_post	2		12	39.0	2.5	/experiments/knapen_AOT/AOT_stimuli/rescaled_final/1511_fw.mp4	0.0	239.24258017539978	0.10005688667297363
42	200.9881660938263	fix_pre	0		119	40.0	2.5	/experiments/knapen_AOT/AOT_stimuli/rescaled_final/0395_fw.mp4	0.0	239.34263706207275	0.9918360710144043
42	201.97183108329773	pulse	0	t		40.0	2.5	/experiments/knapen_AOT/AOT_stimuli/rescaled_final/0395_fw.mp4	0.0	240.3263020515442	
42	201.9800021648407	movie	1		245	40.0	2.5	/experiments/knapen_AOT/AOT_stimuli/rescaled_final/0395_fw.mp4	0.0	240.33447313308716	2.5086610317230225
42	203.57279014587402	pulse	1	t		40.0	2.5	/experiments/knapen_AOT/AOT_stimuli/rescaled_final/0395_fw.mp4	0.0	241.92726111412048	
42	204.48866319656372	fix_post	2		12	40.0	2.5	/experiments/knapen_AOT/AOT_stimuli/rescaled_final/0395_fw.mp4	0.0	242.84313416481018	0.10003900527954102
43	204.58870220184326	fix_pre	0		120	41.0	2.5	/experiments/knapen_AOT/AOT_stimuli/rescaled_final/1663_fw.mp4	0.0	242.94317317008972	1.000133991241455
43	205.17230820655823	pulse	0	t		41.0	2.5	/experiments/knapen_AOT/AOT_stimuli/rescaled_final/1663_fw.mp4	0.0	243.5267791748047	
43	205.58883619308472	movie	1		244	41.0	2.5	/experiments/knapen_AOT/AOT_stimuli/rescaled_final/1663_fw.mp4	0.0	243.94330716133118	2.500337839126587
43	206.77262711524963	pulse	1	t		41.0	2.5	/experiments/knapen_AOT/AOT_stimuli/rescaled_final/1663_fw.mp4	0.0	245.1270980834961	
43	208.0891740322113	fix_post	2		12	41.0	2.5	/experiments/knapen_AOT/AOT_stimuli/rescaled_final/1663_fw.mp4	0.0	246.44364500045776	0.10004305839538574
44	208.1892170906067	fix_pre	0		120	42.0	2.5	blank	1.0	246.54368805885315	1.0001890659332275
44	208.3727560043335	pulse	0	t		42.0	2.5	blank	1.0	246.72722697257996	
44	209.18940615653992	movie	1		300	42.0	2.5	blank	1.0	247.54387712478638	2.5003490447998047
44	209.97300100326538	pulse	1	t		42.0	2.5	blank	1.0	248.32747197151184	
44	211.57325410842896	pulse	1	t		42.0	2.5	blank	1.0	249.92772507667542	
44	211.68975520133972	fix_post	2		12	42.0	2.5	blank	1.0	250.04422616958618	0.0999898910522461
45	211.78974509239197	fix_pre	0		120	43.0	2.5	/experiments/knapen_AOT/AOT_stimuli/rescaled_final/1176_fw.mp4	0.0	250.14421606063843	1.000166893005371
45	212.78991198539734	movie	1		242	43.0	2.5	/experiments/knapen_AOT/AOT_stimuli/rescaled_final/1176_fw.mp4	0.0	251.1443829536438	2.4920270442962646
45	213.17855501174927	pulse	1	t		43.0	2.5	/experiments/knapen_AOT/AOT_stimuli/rescaled_final/1176_fw.mp4	0.0	251.53302597999573	
45	214.7738380432129	pulse	1	t		43.0	2.5	/experiments/knapen_AOT/AOT_stimuli/rescaled_final/1176_fw.mp4	0.0	253.12830901145935	
45	215.2819390296936	fix_post	2		12	43.0	2.5	/experiments/knapen_AOT/AOT_stimuli/rescaled_final/1176_fw.mp4	0.0	253.63640999794006	0.10003900527954102
46	215.38197803497314	fix_pre	0		120	44.0	2.5	/experiments/knapen_AOT/AOT_stimuli/rescaled_final/0657_fw.mp4	0.0	253.7364490032196	1.000128984451294
46	216.37400817871094	pulse	0	t		44.0	2.5	/experiments/knapen_AOT/AOT_stimuli/rescaled_final/0657_fw.mp4	0.0	254.7284791469574	
46	216.38210701942444	movie	1		244	44.0	2.5	/experiments/knapen_AOT/AOT_stimuli/rescaled_final/0657_fw.mp4	0.0	254.7365779876709	2.508816957473755
46	217.9787790775299	pulse	1	t		44.0	2.5	/experiments/knapen_AOT/AOT_stimuli/rescaled_final/0657_fw.mp4	0.0	256.33325004577637	
46	218.8909239768982	fix_post	2		12	44.0	2.5	/experiments/knapen_AOT/AOT_stimuli/rescaled_final/0657_fw.mp4	0.0	257.24539494514465	0.09995412826538086
47	218.99087810516357	fix_pre	0		120	45.0	2.5	/experiments/knapen_AOT/AOT_stimuli/rescaled_final/0091_fw.mp4	0.0	257.34534907341003	1.0001540184020996
47	219.57441020011902	pulse	0	t		45.0	2.5	/experiments/knapen_AOT/AOT_stimuli/rescaled_final/0091_fw.mp4	0.0	257.9288811683655	
47	219.99103212356567	movie	1		247	45.0	2.5	/experiments/knapen_AOT/AOT_stimuli/rescaled_final/0091_fw.mp4	0.0	258.34550309181213	2.5003159046173096
47	221.1748399734497	pulse	1	t		45.0	2.5	/experiments/knapen_AOT/AOT_stimuli/rescaled_final/0091_fw.mp4	0.0	259.52931094169617	
47	222.49134802818298	fix_post	2		12	45.0	2.5	/experiments/knapen_AOT/AOT_stimuli/rescaled_final/0091_fw.mp4	0.0	260.84581899642944	0.1000211238861084
48	222.5913691520691	fix_pre	0		120	46.0	2.5	/experiments/knapen_AOT/AOT_stimuli/rescaled_final/2169_fw.mp4	0.0	260.94584012031555	1.0001988410949707
48	222.77497005462646	pulse	0	t		46.0	2.5	/experiments/knapen_AOT/AOT_stimuli/rescaled_final/2169_fw.mp4	0.0	261.1294410228729	
48	223.59156799316406	movie	1		243	46.0	2.5	/experiments/knapen_AOT/AOT_stimuli/rescaled_final/2169_fw.mp4	0.0	261.9460389614105	2.500349998474121
48	224.3751621246338	pulse	1	t		46.0	2.5	/experiments/knapen_AOT/AOT_stimuli/rescaled_final/2169_fw.mp4	0.0	262.72963309288025	
48	225.9754021167755	pulse	1	t		46.0	2.5	/experiments/knapen_AOT/AOT_stimuli/rescaled_final/2169_fw.mp4	0.0	264.329873085022	
48	226.09191799163818	fix_post	2		12	46.0	2.5	/experiments/knapen_AOT/AOT_stimuli/rescaled_final/2169_fw.mp4	0.0	264.44638895988464	0.10000801086425781
49	226.19192600250244	fix_pre	0		120	47.0	2.5	blank	1.0	264.5463969707489	1.0001671314239502
49	227.1920931339264	movie	1		299	47.0	2.5	blank	1.0	265.54656410217285	2.491994857788086
49	227.57569003105164	pulse	1	t		47.0	2.5	blank	1.0	265.9301609992981	
49	229.17601203918457	pulse	1	t		47.0	2.5	blank	1.0	267.53048300743103	
49	229.68408799171448	fix_post	2		12	47.0	2.5	blank	1.0	268.03855895996094	0.10001707077026367
50	229.78410506248474	fix_pre	0		120	48.0	2.5	/experiments/knapen_AOT/AOT_stimuli/rescaled_final/1233_fw.mp4	0.0	268.1385760307312	1.0001699924468994
50	230.77618312835693	pulse	0	t		48.0	2.5	/experiments/knapen_AOT/AOT_stimuli/rescaled_final/1233_fw.mp4	0.0	269.1306540966034	
50	230.78427505493164	movie	1		242	48.0	2.5	/experiments/knapen_AOT/AOT_stimuli/rescaled_final/1233_fw.mp4	0.0	269.1387460231781	2.5087220668792725
50	232.3769052028656	pulse	1	t		48.0	2.5	/experiments/knapen_AOT/AOT_stimuli/rescaled_final/1233_fw.mp4	0.0	270.73137617111206	
50	233.2929971218109	fix_post	2		12	48.0	2.5	/experiments/knapen_AOT/AOT_stimuli/rescaled_final/1233_fw.mp4	0.0	271.6474680900574	0.09997701644897461
51	233.3929741382599	fix_pre	0		120	49.0	2.5	/experiments/knapen_AOT/AOT_stimuli/rescaled_final/1645_rv.mp4	0.0	271.74744510650635	1.0001740455627441
51	233.9767119884491	pulse	0	t		49.0	2.5	/experiments/knapen_AOT/AOT_stimuli/rescaled_final/1645_rv.mp4	0.0	272.33118295669556	
51	234.39314818382263	movie	1		245	49.0	2.5	/experiments/knapen_AOT/AOT_stimuli/rescaled_final/1645_rv.mp4	0.0	272.7476191520691	2.500363826751709
51	235.576966047287	pulse	1	t		49.0	2.5	/experiments/knapen_AOT/AOT_stimuli/rescaled_final/1645_rv.mp4	0.0	273.93143701553345	
51	236.89351201057434	fix_post	2		12	49.0	2.5	/experiments/knapen_AOT/AOT_stimuli/rescaled_final/1645_rv.mp4	0.0	275.2479829788208	0.10003304481506348
52	236.9935450553894	fix_pre	0		120	50.0	2.5	/experiments/knapen_AOT/AOT_stimuli/rescaled_final/1686_rv.mp4	0.0	275.34801602363586	1.0001280307769775
52	237.1771810054779	pulse	0	t		50.0	2.5	/experiments/knapen_AOT/AOT_stimuli/rescaled_final/1686_rv.mp4	0.0	275.53165197372437	
52	237.99367308616638	movie	1		244	50.0	2.5	/experiments/knapen_AOT/AOT_stimuli/rescaled_final/1686_rv.mp4	0.0	276.34814405441284	2.5003809928894043
52	238.7772991657257	pulse	1	t		50.0	2.5	/experiments/knapen_AOT/AOT_stimuli/rescaled_final/1686_rv.mp4	0.0	277.13177013397217	
52	240.3775670528412	pulse	1	t		50.0	2.5	/experiments/knapen_AOT/AOT_stimuli/rescaled_final/1686_rv.mp4	0.0	278.73203802108765	
52	240.4940540790558	fix_post	2		12	50.0	2.5	/experiments/knapen_AOT/AOT_stimuli/rescaled_final/1686_rv.mp4	0.0	278.84852504730225	0.10003209114074707
53	240.59408617019653	fix_pre	0		120	51.0	2.5	/experiments/knapen_AOT/AOT_stimuli/rescaled_final/1857_rv.mp4	0.0	278.948557138443	1.0001330375671387
53	241.59421920776367	movie	1		242	51.0	2.5	/experiments/knapen_AOT/AOT_stimuli/rescaled_final/1857_rv.mp4	0.0	279.94869017601013	2.492017984390259
53	241.97826719284058	pulse	1	t		51.0	2.5	/experiments/knapen_AOT/AOT_stimuli/rescaled_final/1857_rv.mp4	0.0	280.33273816108704	
53	243.5781741142273	pulse	1	t		51.0	2.5	/experiments/knapen_AOT/AOT_stimuli/rescaled_final/1857_rv.mp4	0.0	281.93264508247375	
53	244.08623719215393	fix_post	2		12	51.0	2.5	/experiments/knapen_AOT/AOT_stimuli/rescaled_final/1857_rv.mp4	0.0	282.4407081604004	0.1000978946685791
54	244.1863350868225	fix_pre	0		120	52.0	2.5	/experiments/knapen_AOT/AOT_stimuli/rescaled_final/1799_fw.mp4	0.0	282.54080605506897	1.0001959800720215
54	245.17828512191772	pulse	0	t		52.0	2.5	/experiments/knapen_AOT/AOT_stimuli/rescaled_final/1799_fw.mp4	0.0	283.5327560901642	
54	245.18653106689453	movie	1		245	52.0	2.5	/experiments/knapen_AOT/AOT_stimuli/rescaled_final/1799_fw.mp4	0.0	283.541002035141	2.5085930824279785
54	246.7788691520691	pulse	1	t		52.0	2.5	/experiments/knapen_AOT/AOT_stimuli/rescaled_final/1799_fw.mp4	0.0	285.13334012031555	
54	247.6951241493225	fix_post	2		12	52.0	2.5	/experiments/knapen_AOT/AOT_stimuli/rescaled_final/1799_fw.mp4	0.0	286.04959511756897	0.09998297691345215
55	247.79510712623596	fix_pre	0		120	53.0	2.5	/experiments/knapen_AOT/AOT_stimuli/rescaled_final/0213_fw.mp4	0.0	286.1495780944824	1.0002059936523438
55	248.3788640499115	pulse	0	t		53.0	2.5	/experiments/knapen_AOT/AOT_stimuli/rescaled_final/0213_fw.mp4	0.0	286.73333501815796	
55	248.7953131198883	movie	1		245	53.0	2.5	/experiments/knapen_AOT/AOT_stimuli/rescaled_final/0213_fw.mp4	0.0	287.14978408813477	2.500377893447876
55	249.97909712791443	pulse	1	t		53.0	2.5	/experiments/knapen_AOT/AOT_stimuli/rescaled_final/0213_fw.mp4	0.0	288.3335680961609	
55	251.29569101333618	fix_post	2		12	53.0	2.5	/experiments/knapen_AOT/AOT_stimuli/rescaled_final/0213_fw.mp4	0.0	289.65016198158264	0.10007715225219727
56	251.39576816558838	fix_pre	0		120	54.0	2.5	/experiments/knapen_AOT/AOT_stimuli/rescaled_final/1654_rv.mp4	0.0	289.75023913383484	1.0001928806304932
56	251.57195806503296	pulse	0	t		54.0	2.5	/experiments/knapen_AOT/AOT_stimuli/rescaled_final/1654_rv.mp4	0.0	289.9264290332794	
56	252.39596104621887	movie	1		244	54.0	2.5	/experiments/knapen_AOT/AOT_stimuli/rescaled_final/1654_rv.mp4	0.0	290.75043201446533	2.5002219676971436
56	253.17212319374084	pulse	1	t		54.0	2.5	/experiments/knapen_AOT/AOT_stimuli/rescaled_final/1654_rv.mp4	0.0	291.5265941619873	
56	254.77970504760742	pulse	1	t		54.0	2.5	/experiments/knapen_AOT/AOT_stimuli/rescaled_final/1654_rv.mp4	0.0	293.1341760158539	
56	254.89618301391602	fix_post	2		12	54.0	2.5	/experiments/knapen_AOT/AOT_stimuli/rescaled_final/1654_rv.mp4	0.0	293.2506539821625	0.10005307197570801
57	254.99623608589172	fix_pre	0		119	55.0	2.5	blank	1.0	293.3507070541382	0.991818904876709
57	255.98805499076843	movie	1		300	55.0	2.5	blank	1.0	294.3425259590149	2.500349998474121
57	256.3723909854889	pulse	1	t		55.0	2.5	blank	1.0	294.72686195373535	
57	257.9719240665436	pulse	1	t		55.0	2.5	blank	1.0	296.32639503479004	
57	258.48840498924255	fix_post	2		12	55.0	2.5	blank	1.0	296.842875957489	0.10000205039978027
58	258.58840703964233	fix_pre	0		119	56.0	2.5	/experiments/knapen_AOT/AOT_stimuli/rescaled_final/1731_rv.mp4	0.0	296.9428780078888	0.991814136505127
58	259.5721981525421	pulse	0	t		56.0	2.5	/experiments/knapen_AOT/AOT_stimuli/rescaled_final/1731_rv.mp4	0.0	297.9266691207886	
58	259.58022117614746	movie	1		244	56.0	2.5	/experiments/knapen_AOT/AOT_stimuli/rescaled_final/1731_rv.mp4	0.0	297.9346921443939	2.5087029933929443
58	261.1729271411896	pulse	1	t		56.0	2.5	/experiments/knapen_AOT/AOT_stimuli/rescaled_final/1731_rv.mp4	0.0	299.52739810943604	
58	262.0889241695404	fix_post	2		12	56.0	2.5	/experiments/knapen_AOT/AOT_stimuli/rescaled_final/1731_rv.mp4	0.0	300.44339513778687	0.10006093978881836
59	262.1889851093292	fix_pre	0		120	57.0	2.5	/experiments/knapen_AOT/AOT_stimuli/rescaled_final/0966_rv.mp4	0.0	300.5434560775757	1.0001399517059326
59	262.7726330757141	pulse	0	t		57.0	2.5	/experiments/knapen_AOT/AOT_stimuli/rescaled_final/0966_rv.mp4	0.0	301.12710404396057	
59	263.18912506103516	movie	1		245	57.0	2.5	/experiments/knapen_AOT/AOT_stimuli/rescaled_final/0966_rv.mp4	0.0	301.5435960292816	2.500319004058838
59	264.37299609184265	pulse	1	t		57.0	2.5	/experiments/knapen_AOT/AOT_stimuli/rescaled_final/0966_rv.mp4	0.0	302.7274670600891	
59	265.689444065094	fix_post	2		12	57.0	2.5	/experiments/knapen_AOT/AOT_stimuli/rescaled_final/0966_rv.mp4	0.0	304.04391503334045	0.10005903244018555
60	265.7895030975342	fix_pre	0		120	58.0	2.5	/experiments/knapen_AOT/AOT_stimuli/rescaled_final/1377_fw.mp4	0.0	304.14397406578064	1.0001609325408936
60	265.97316312789917	pulse	0	t		58.0	2.5	/experiments/knapen_AOT/AOT_stimuli/rescaled_final/1377_fw.mp4	0.0	304.32763409614563	
60	266.7896640300751	movie	1		243	58.0	2.5	/experiments/knapen_AOT/AOT_stimuli/rescaled_final/1377_fw.mp4	0.0	305.14413499832153	2.5003740787506104
60	267.57342314720154	pulse	1	t		58.0	2.5	/experiments/knapen_AOT/AOT_stimuli/rescaled_final/1377_fw.mp4	0.0	305.927894115448	
60	269.17357420921326	pulse	1	t		58.0	2.5	/experiments/knapen_AOT/AOT_stimuli/rescaled_final/1377_fw.mp4	0.0	307.5280451774597	
60	269.2900381088257	fix_post	2		12	58.0	2.5	/experiments/knapen_AOT/AOT_stimuli/rescaled_final/1377_fw.mp4	0.0	307.64450907707214	0.10003900527954102
61	269.3900771141052	fix_pre	0		120	59.0	2.5	/experiments/knapen_AOT/AOT_stimuli/rescaled_final/1406_rv.mp4	0.0	307.7445480823517	1.0001089572906494
61	270.3901860713959	movie	1		242	59.0	2.5	/experiments/knapen_AOT/AOT_stimuli/rescaled_final/1406_rv.mp4	0.0	308.74465703964233	2.4920709133148193
61	270.77427220344543	pulse	1	t		59.0	2.5	/experiments/knapen_AOT/AOT_stimuli/rescaled_final/1406_rv.mp4	0.0	309.1287431716919	
61	272.37412214279175	pulse	1	t		59.0	2.5	/experiments/knapen_AOT/AOT_stimuli/rescaled_final/1406_rv.mp4	0.0	310.7285931110382	
61	272.8822569847107	fix_post	2		12	59.0	2.5	/experiments/knapen_AOT/AOT_stimuli/rescaled_final/1406_rv.mp4	0.0	311.23672795295715	0.09998011589050293
62	272.9822371006012	fix_pre	0		120	60.0	2.5	/experiments/knapen_AOT/AOT_stimuli/rescaled_final/1182_fw.mp4	0.0	311.33670806884766	1.0001440048217773
62	273.9742181301117	pulse	0	t		60.0	2.5	/experiments/knapen_AOT/AOT_stimuli/rescaled_final/1182_fw.mp4	0.0	312.32868909835815	
62	273.982381105423	movie	1		244	60.0	2.5	/experiments/knapen_AOT/AOT_stimuli/rescaled_final/1182_fw.mp4	0.0	312.33685207366943	2.5087249279022217
62	275.57917618751526	pulse	1	t		60.0	2.5	/experiments/knapen_AOT/AOT_stimuli/rescaled_final/1182_fw.mp4	0.0	313.9336471557617	
62	276.4911060333252	fix_post	2		12	60.0	2.5	/experiments/knapen_AOT/AOT_stimuli/rescaled_final/1182_fw.mp4	0.0	314.84557700157166	0.1000211238861084
63	276.5911271572113	fix_pre	0		120	61.0	2.5	/experiments/knapen_AOT/AOT_stimuli/rescaled_final/2130_rv.mp4	0.0	314.94559812545776	1.000140905380249
63	277.174702167511	pulse	0	t		61.0	2.5	/experiments/knapen_AOT/AOT_stimuli/rescaled_final/2130_rv.mp4	0.0	315.52917313575745	
63	277.59126806259155	movie	1		245	61.0	2.5	/experiments/knapen_AOT/AOT_stimuli/rescaled_final/2130_rv.mp4	0.0	315.945739030838	2.5003530979156494
63	278.7751040458679	pulse	1	t		61.0	2.5	/experiments/knapen_AOT/AOT_stimuli/rescaled_final/2130_rv.mp4	0.0	317.1295750141144	
63	280.0916211605072	fix_post	2		12	61.0	2.5	/experiments/knapen_AOT/AOT_stimuli/rescaled_final/2130_rv.mp4	0.0	318.44609212875366	0.10006594657897949
64	280.1916871070862	fix_pre	0		120	62.0	2.5	/experiments/knapen_AOT/AOT_stimuli/rescaled_final/0813_fw.mp4	0.0	318.54615807533264	1.0001208782196045
64	280.3752851486206	pulse	0	t		62.0	2.5	/experiments/knapen_AOT/AOT_stimuli/rescaled_final/0813_fw.mp4	0.0	318.72975611686707	
64	281.1918079853058	movie	1		244	62.0	2.5	/experiments/knapen_AOT/AOT_stimuli/rescaled_final/0813_fw.mp4	0.0	319.54627895355225	2.5003740787506104
64	281.97543501853943	pulse	1	t		62.0	2.5	/experiments/knapen_AOT/AOT_stimuli/rescaled_final/0813_fw.mp4	0.0	320.3299059867859	
64	283.57570719718933	pulse	1	t		62.0	2.5	/experiments/knapen_AOT/AOT_stimuli/rescaled_final/0813_fw.mp4	0.0	321.9301781654358	
64	283.6921820640564	fix_post	2		12	62.0	2.5	/experiments/knapen_AOT/AOT_stimuli/rescaled_final/0813_fw.mp4	0.0	322.04665303230286	0.09999394416809082
65	283.7921760082245	fix_pre	0		120	63.0	2.5	blank	1.0	322.14664697647095	1.0001671314239502
65	284.79234313964844	movie	1		299	63.0	2.5	blank	1.0	323.1468141078949	2.4920408725738525
65	285.17588806152344	pulse	1	t		63.0	2.5	blank	1.0	323.5303590297699	
65	286.7762370109558	pulse	1	t		63.0	2.5	blank	1.0	325.13070797920227	
65	287.2843840122223	fix_post	2		12	63.0	2.5	blank	1.0	325.63885498046875	0.1000521183013916
66	287.3844361305237	fix_pre	0		120	64.0	2.5	/experiments/knapen_AOT/AOT_stimuli/rescaled_final/0137_fw.mp4	0.0	325.73890709877014	1.0001368522644043
66	288.3763949871063	pulse	0	t		64.0	2.5	/experiments/knapen_AOT/AOT_stimuli/rescaled_final/0137_fw.mp4	0.0	326.7308659553528	
66	288.3845729827881	movie	1		244	64.0	2.5	/experiments/knapen_AOT/AOT_stimuli/rescaled_final/0137_fw.mp4	0.0	326.73904395103455	2.5086421966552734
66	289.9773290157318	pulse	1	t		64.0	2.5	/experiments/knapen_AOT/AOT_stimuli/rescaled_final/0137_fw.mp4	0.0	328.33179998397827	
66	290.89321517944336	fix_post	2		12	64.0	2.5	/experiments/knapen_AOT/AOT_stimuli/rescaled_final/0137_fw.mp4	0.0	329.2476861476898	0.10003995895385742
67	290.9932551383972	fix_pre	0		120	65.0	2.5	/experiments/knapen_AOT/AOT_stimuli/rescaled_final/0674_fw.mp4	0.0	329.3477261066437	1.0002808570861816
67	291.5768971443176	pulse	0	t		65.0	2.5	/experiments/knapen_AOT/AOT_stimuli/rescaled_final/0674_fw.mp4	0.0	329.9313681125641	
67	291.9935359954834	movie	1		244	65.0	2.5	/experiments/knapen_AOT/AOT_stimuli/rescaled_final/0674_fw.mp4	0.0	330.34800696372986	2.500286102294922
67	293.17717599868774	pulse	1	t		65.0	2.5	/experiments/knapen_AOT/AOT_stimuli/rescaled_final/0674_fw.mp4	0.0	331.5316469669342	
67	294.4938220977783	fix_post	2		12	65.0	2.5	/experiments/knapen_AOT/AOT_stimuli/rescaled_final/0674_fw.mp4	0.0	332.8482930660248	0.0999610424041748
68	294.5937831401825	fix_pre	0		120	66.0	2.5	/experiments/knapen_AOT/AOT_stimuli/rescaled_final/1304_fw.mp4	0.0	332.94825410842896	1.0001859664916992
68	294.77729320526123	pulse	0	t		66.0	2.5	/experiments/knapen_AOT/AOT_stimuli/rescaled_final/1304_fw.mp4	0.0	333.1317641735077	
68	295.5939691066742	movie	1		239	66.0	2.5	/experiments/knapen_AOT/AOT_stimuli/rescaled_final/1304_fw.mp4	0.0	333.94844007492065	2.5003199577331543
68	296.37761402130127	pulse	1	t		66.0	2.5	/experiments/knapen_AOT/AOT_stimuli/rescaled_final/1304_fw.mp4	0.0	334.73208498954773	
68	297.9779541492462	pulse	1	t		66.0	2.5	/experiments/knapen_AOT/AOT_stimuli/rescaled_final/1304_fw.mp4	0.0	336.3324251174927	
68	298.09428906440735	fix_post	2		12	66.0	2.5	/experiments/knapen_AOT/AOT_stimuli/rescaled_final/1304_fw.mp4	0.0	336.4487600326538	0.10005402565002441
69	298.1943430900574	fix_pre	0		120	67.0	2.5	/experiments/knapen_AOT/AOT_stimuli/rescaled_final/2161_fw.mp4	0.0	336.54881405830383	1.00016188621521
69	299.1945049762726	movie	1		243	67.0	2.5	/experiments/knapen_AOT/AOT_stimuli/rescaled_final/2161_fw.mp4	0.0	337.54897594451904	2.49200701713562
69	299.5796310901642	pulse	1	t		67.0	2.5	/experiments/knapen_AOT/AOT_stimuli/rescaled_final/2161_fw.mp4	0.0	337.93410205841064	
69	301.17827916145325	pulse	1	t		67.0	2.5	/experiments/knapen_AOT/AOT_stimuli/rescaled_final/2161_fw.mp4	0.0	339.5327501296997	
69	301.6865119934082	fix_post	2		12	67.0	2.5	/experiments/knapen_AOT/AOT_stimuli/rescaled_final/2161_fw.mp4	0.0	340.04098296165466	0.10001802444458008
70	301.7865300178528	fix_pre	0		120	68.0	2.5	/experiments/knapen_AOT/AOT_stimuli/rescaled_final/1128_rv.mp4	0.0	340.14100098609924	1.0001959800720215
70	302.77863097190857	pulse	0	t		68.0	2.5	/experiments/knapen_AOT/AOT_stimuli/rescaled_final/1128_rv.mp4	0.0	341.13310194015503	
70	302.7867259979248	movie	1		246	68.0	2.5	/experiments/knapen_AOT/AOT_stimuli/rescaled_final/1128_rv.mp4	0.0	341.14119696617126	2.5086350440979004
70	304.3794310092926	pulse	1	t		68.0	2.5	/experiments/knapen_AOT/AOT_stimuli/rescaled_final/1128_rv.mp4	0.0	342.73390197753906	
70	305.2953610420227	fix_post	2		12	68.0	2.5	/experiments/knapen_AOT/AOT_stimuli/rescaled_final/1128_rv.mp4	0.0	343.64983201026917	0.10014915466308594
71	305.3955101966858	fix_pre	0		120	69.0	2.5	blank	1.0	343.74998116493225	1.0001349449157715
71	305.9716160297394	pulse	0	t		69.0	2.5	blank	1.0	344.32608699798584	
71	306.39564514160156	movie	1		300	69.0	2.5	blank	1.0	344.750116109848	2.500361919403076
71	307.5718472003937	pulse	1	t		69.0	2.5	blank	1.0	345.92631816864014	
71	308.89600706100464	fix_post	2		12	69.0	2.5	blank	1.0	347.2504780292511	0.09995508193969727
72	308.99596214294434	fix_pre	0		120	70.0	2.5	/experiments/knapen_AOT/AOT_stimuli/rescaled_final/0896_rv.mp4	0.0	347.3504331111908	1.0001590251922607
72	309.17198419570923	pulse	0	t		70.0	2.5	/experiments/knapen_AOT/AOT_stimuli/rescaled_final/0896_rv.mp4	0.0	347.5264551639557	
72	309.9961211681366	movie	1		243	70.0	2.5	/experiments/knapen_AOT/AOT_stimuli/rescaled_final/0896_rv.mp4	0.0	348.35059213638306	2.5003838539123535
72	310.77227807044983	pulse	1	t		70.0	2.5	/experiments/knapen_AOT/AOT_stimuli/rescaled_final/0896_rv.mp4	0.0	349.1267490386963	
72	312.37170219421387	pulse	1	t		70.0	2.5	/experiments/knapen_AOT/AOT_stimuli/rescaled_final/0896_rv.mp4	0.0	350.7261731624603	
72	312.49650502204895	fix_post	2		12	70.0	2.5	/experiments/knapen_AOT/AOT_stimuli/rescaled_final/0896_rv.mp4	0.0	350.8509759902954	0.10003018379211426
73	312.59653520584106	fix_pre	0		120	71.0	2.5	/experiments/knapen_AOT/AOT_stimuli/rescaled_final/1754_fw.mp4	0.0	350.9510061740875	1.0001029968261719
73	313.59663820266724	movie	1		246	71.0	2.5	/experiments/knapen_AOT/AOT_stimuli/rescaled_final/1754_fw.mp4	0.0	351.9511091709137	2.4920079708099365
73	313.971892118454	pulse	1	t		71.0	2.5	/experiments/knapen_AOT/AOT_stimuli/rescaled_final/1754_fw.mp4	0.0	352.32636308670044	
73	315.5722441673279	pulse	1	t		71.0	2.5	/experiments/knapen_AOT/AOT_stimuli/rescaled_final/1754_fw.mp4	0.0	353.92671513557434	
73	316.0886461734772	fix_post	2		12	71.0	2.5	/experiments/knapen_AOT/AOT_stimuli/rescaled_final/1754_fw.mp4	0.0	354.44311714172363	0.10008788108825684
74	316.18873405456543	fix_pre	0		119	72.0	2.5	/experiments/knapen_AOT/AOT_stimuli/rescaled_final/1308_fw.mp4	0.0	354.5432050228119	0.991814136505127
74	317.17231607437134	pulse	0	t		72.0	2.5	/experiments/knapen_AOT/AOT_stimuli/rescaled_final/1308_fw.mp4	0.0	355.5267870426178	
74	317.18054819107056	movie	1		245	72.0	2.5	/experiments/knapen_AOT/AOT_stimuli/rescaled_final/1308_fw.mp4	0.0	355.535019159317	2.5086328983306885
74	318.7732660770416	pulse	1	t		72.0	2.5	/experiments/knapen_AOT/AOT_stimuli/rescaled_final/1308_fw.mp4	0.0	357.1277370452881	
74	319.68918108940125	fix_post	2		12	72.0	2.5	/experiments/knapen_AOT/AOT_stimuli/rescaled_final/1308_fw.mp4	0.0	358.0436520576477	0.10003304481506348
75	319.7892141342163	fix_pre	0		120	73.0	2.5	/experiments/knapen_AOT/AOT_stimuli/rescaled_final/1176_rv.mp4	0.0	358.14368510246277	1.00016188621521
75	320.3729040622711	pulse	0	t		73.0	2.5	/experiments/knapen_AOT/AOT_stimuli/rescaled_final/1176_rv.mp4	0.0	358.7273750305176	
75	320.7893760204315	movie	1		243	73.0	2.5	/experiments/knapen_AOT/AOT_stimuli/rescaled_final/1176_rv.mp4	0.0	359.143846988678	2.500368118286133
75	321.97318816185	pulse	1	t		73.0	2.5	/experiments/knapen_AOT/AOT_stimuli/rescaled_final/1176_rv.mp4	0.0	360.32765913009644	
75	323.28974413871765	fix_post	2		12	73.0	2.5	/experiments/knapen_AOT/AOT_stimuli/rescaled_final/1176_rv.mp4	0.0	361.6442151069641	0.10008692741394043
76	323.3898310661316	fix_pre	0		120	74.0	2.5	/experiments/knapen_AOT/AOT_stimuli/rescaled_final/0810_rv.mp4	0.0	361.74430203437805	1.0000901222229004
76	323.57324504852295	pulse	0	t		74.0	2.5	/experiments/knapen_AOT/AOT_stimuli/rescaled_final/0810_rv.mp4	0.0	361.9277160167694	
76	324.3899211883545	movie	1		245	74.0	2.5	/experiments/knapen_AOT/AOT_stimuli/rescaled_final/0810_rv.mp4	0.0	362.74439215660095	2.5003368854522705
76	325.17353320121765	pulse	1	t		74.0	2.5	/experiments/knapen_AOT/AOT_stimuli/rescaled_final/0810_rv.mp4	0.0	363.5280041694641	
76	326.7738881111145	pulse	1	t		74.0	2.5	/experiments/knapen_AOT/AOT_stimuli/rescaled_final/0810_rv.mp4	0.0	365.12835907936096	
76	326.89025807380676	fix_post	2		12	74.0	2.5	/experiments/knapen_AOT/AOT_stimuli/rescaled_final/0810_rv.mp4	0.0	365.2447290420532	0.10001397132873535
77	326.9902720451355	fix_pre	0		119	75.0	2.5	/experiments/knapen_AOT/AOT_stimuli/rescaled_final/0642_fw.mp4	0.0	365.34474301338196	0.9918501377105713
77	327.98212218284607	movie	1		244	75.0	2.5	/experiments/knapen_AOT/AOT_stimuli/rescaled_final/0642_fw.mp4	0.0	366.33659315109253	2.5003437995910645
77	328.37421011924744	pulse	1	t		75.0	2.5	/experiments/knapen_AOT/AOT_stimuli/rescaled_final/0642_fw.mp4	0.0	366.7286810874939	
77	329.97427201271057	pulse	1	t		75.0	2.5	/experiments/knapen_AOT/AOT_stimuli/rescaled_final/0642_fw.mp4	0.0	368.32874298095703	
77	330.48246598243713	fix_post	2		12	75.0	2.5	/experiments/knapen_AOT/AOT_stimuli/rescaled_final/0642_fw.mp4	0.0	368.8369369506836	0.10009407997131348
78	330.58256006240845	fix_pre	0		120	76.0	2.5	blank	1.0	368.9370310306549	1.0001311302185059
78	331.5744860172272	pulse	0	t		76.0	2.5	blank	1.0	369.92895698547363	
78	331.58269119262695	movie	1		301	76.0	2.5	blank	1.0	369.9371621608734	2.5086770057678223
78	333.17482113838196	pulse	1	t		76.0	2.5	blank	1.0	371.5292921066284	
78	334.0913681983948	fix_post	2		12	76.0	2.5	blank	1.0	372.44583916664124	0.10000801086425781
79	334.19137620925903	fix_pre	0		120	77.0	2.5	/experiments/knapen_AOT/AOT_stimuli/rescaled_final/1046_fw.mp4	0.0	372.5458471775055	1.000173807144165
79	334.77511405944824	pulse	0	t		77.0	2.5	/experiments/knapen_AOT/AOT_stimuli/rescaled_final/1046_fw.mp4	0.0	373.1295850276947	
79	335.1915500164032	movie	1		243	77.0	2.5	/experiments/knapen_AOT/AOT_stimuli/rescaled_final/1046_fw.mp4	0.0	373.54602098464966	2.5003480911254883
79	336.37537002563477	pulse	1	t		77.0	2.5	/experiments/knapen_AOT/AOT_stimuli/rescaled_final/1046_fw.mp4	0.0	374.7298409938812	
79	337.6918981075287	fix_post	2		12	77.0	2.5	/experiments/knapen_AOT/AOT_stimuli/rescaled_final/1046_fw.mp4	0.0	376.04636907577515	0.10005807876586914
80	337.79195618629456	fix_pre	0		120	78.0	2.5	/experiments/knapen_AOT/AOT_stimuli/rescaled_final/0851_fw.mp4	0.0	376.146427154541	1.0001318454742432
80	337.9754490852356	pulse	0	t		78.0	2.5	/experiments/knapen_AOT/AOT_stimuli/rescaled_final/0851_fw.mp4	0.0	376.32992005348206	
80	338.7920880317688	movie	1		243	78.0	2.5	/experiments/knapen_AOT/AOT_stimuli/rescaled_final/0851_fw.mp4	0.0	377.14655900001526	2.50034499168396
80	339.5758180618286	pulse	1	t		78.0	2.5	/experiments/knapen_AOT/AOT_stimuli/rescaled_final/0851_fw.mp4	0.0	377.9302890300751	
80	341.1758279800415	pulse	1	t		78.0	2.5	/experiments/knapen_AOT/AOT_stimuli/rescaled_final/0851_fw.mp4	0.0	379.53029894828796	
80	341.29243302345276	fix_post	2		12	78.0	2.5	/experiments/knapen_AOT/AOT_stimuli/rescaled_final/0851_fw.mp4	0.0	379.6469039916992	0.10004615783691406
81	341.3924791812897	fix_pre	0		119	79.0	2.5	/experiments/knapen_AOT/AOT_stimuli/rescaled_final/1362_fw.mp4	0.0	379.74695014953613	0.9917948246002197
81	342.3842740058899	movie	1		243	79.0	2.5	/experiments/knapen_AOT/AOT_stimuli/rescaled_final/1362_fw.mp4	0.0	380.73874497413635	2.500420093536377
81	342.77634501457214	pulse	1	t		79.0	2.5	/experiments/knapen_AOT/AOT_stimuli/rescaled_final/1362_fw.mp4	0.0	381.1308159828186	
81	344.37637400627136	pulse	1	t		79.0	2.5	/experiments/knapen_AOT/AOT_stimuli/rescaled_final/1362_fw.mp4	0.0	382.7308449745178	
81	344.88469409942627	fix_post	2		12	79.0	2.5	/experiments/knapen_AOT/AOT_stimuli/rescaled_final/1362_fw.mp4	0.0	383.23916506767273	0.10000896453857422
82	344.98470306396484	fix_pre	0		120	80.0	2.5	/experiments/knapen_AOT/AOT_stimuli/rescaled_final/0373_fw.mp4	0.0	383.3391740322113	1.000082015991211
82	345.97671914100647	pulse	0	t		80.0	2.5	/experiments/knapen_AOT/AOT_stimuli/rescaled_final/0373_fw.mp4	0.0	384.33119010925293	
82	345.98478507995605	movie	1		246	80.0	2.5	/experiments/knapen_AOT/AOT_stimuli/rescaled_final/0373_fw.mp4	0.0	384.3392560482025	2.5087130069732666
82	347.58086109161377	pulse	1	t		80.0	2.5	/experiments/knapen_AOT/AOT_stimuli/rescaled_final/0373_fw.mp4	0.0	385.93533205986023	
82	348.4934980869293	fix_post	2		12	80.0	2.5	/experiments/knapen_AOT/AOT_stimuli/rescaled_final/0373_fw.mp4	0.0	386.8479690551758	0.10004806518554688
83	348.59354615211487	fix_pre	0		120	81.0	2.5	/experiments/knapen_AOT/AOT_stimuli/rescaled_final/0414_fw.mp4	0.0	386.9480171203613	1.0001449584960938
83	349.1772611141205	pulse	0	t		81.0	2.5	/experiments/knapen_AOT/AOT_stimuli/rescaled_final/0414_fw.mp4	0.0	387.53173208236694	
83	349.59369111061096	movie	1		240	81.0	2.5	/experiments/knapen_AOT/AOT_stimuli/rescaled_final/0414_fw.mp4	0.0	387.9481620788574	2.500356912612915
83	350.7775630950928	pulse	1	t		81.0	2.5	/experiments/knapen_AOT/AOT_stimuli/rescaled_final/0414_fw.mp4	0.0	389.13203406333923	
83	352.0940480232239	fix_post	2		12	81.0	2.5	/experiments/knapen_AOT/AOT_stimuli/rescaled_final/0414_fw.mp4	0.0	390.44851899147034	0.10003805160522461
84	352.1940860748291	fix_pre	0		120	82.0	2.5	blank	1.0	390.54855704307556	1.0001559257507324
84	352.37763810157776	pulse	0	t		82.0	2.5	blank	1.0	390.7321090698242	
84	353.19424200057983	movie	1		300	82.0	2.5	blank	1.0	391.5487129688263	2.500397205352783
84	353.9778370857239	pulse	1	t		82.0	2.5	blank	1.0	392.33230805397034	
84	355.57822608947754	pulse	1	t		82.0	2.5	blank	1.0	393.932697057724	
84	355.6946392059326	fix_post	2		12	82.0	2.5	blank	1.0	394.0491101741791	0.09995388984680176
85	355.7945930957794	fix_pre	0		120	83.0	2.5	/experiments/knapen_AOT/AOT_stimuli/rescaled_final/0587_fw.mp4	0.0	394.1490640640259	1.000169038772583
85	356.794762134552	movie	1		243	83.0	2.5	/experiments/knapen_AOT/AOT_stimuli/rescaled_final/0587_fw.mp4	0.0	395.14923310279846	2.492020845413208
85	357.17905497550964	pulse	1	t		83.0	2.5	/experiments/knapen_AOT/AOT_stimuli/rescaled_final/0587_fw.mp4	0.0	395.5335259437561	
85	358.7785930633545	pulse	1	t		83.0	2.5	/experiments/knapen_AOT/AOT_stimuli/rescaled_final/0587_fw.mp4	0.0	397.13306403160095	
85	359.2867829799652	fix_post	2		12	83.0	2.5	/experiments/knapen_AOT/AOT_stimuli/rescaled_final/0587_fw.mp4	0.0	397.64125394821167	0.10003209114074707
87	359.38681507110596	stim	0		1716					397.7412860393524	14.302216053009033
87	360.3714621067047	pulse	0	t						398.7259330749512	
87	361.97166299819946	pulse	0	t						400.3261339664459	
87	363.57192611694336	pulse	0	t						401.9263970851898	
87	365.1713299751282	pulse	0	t						403.52580094337463	
87	366.77142000198364	pulse	0	t						405.1258909702301	
87	368.3717210292816	pulse	0	t						406.7261919975281	
87	369.9719650745392	pulse	0	t						408.32643604278564	
87	371.5722301006317	pulse	0	t						409.9267010688782	
87	373.17233419418335	pulse	0	t						411.5268051624298	
