trial_nr	onset	event_type	phase	response	nr_frames	movie_index	movie_duration	movie_file	blank	onset_abs	duration
0	0.14154434204101562	stim	0		55					17.073535442352295	0.45826029777526855
0	0.591649055480957	response	0	space						17.523640155792236	
1	0.5998046398162842	stim	0		4338					17.531795740127563	36.16782188415527
1	36.75698208808899	pulse	0	t						53.68897318840027	
1	36.76762652397156	stim	1		1717					53.69961762428284	14.30648136138916
1	38.34743881225586	pulse	1	t						55.27942991256714	
1	39.94763660430908	pulse	1	t						56.87962770462036	
1	41.54785084724426	pulse	1	t						58.47984194755554	
1	43.148072719573975	pulse	1	t						60.080063819885254	
1	44.74836015701294	pulse	1	t						61.68035125732422	
1	46.34855103492737	pulse	1	t						63.28054213523865	
1	47.94885039329529	pulse	1	t						64.88084149360657	
1	49.54909062385559	pulse	1	t						66.48108172416687	
2	51.07410788536072	fix_pre	0		10	0.0	2.5	/experiments/Knapen_AOT/AOT_stimuli/rescaled_final/1940_rv.mp4	0.0	68.006098985672	0.10006523132324219
2	51.149311542510986	pulse	0	t		0.0	2.5	/experiments/Knapen_AOT/AOT_stimuli/rescaled_final/1940_rv.mp4	0.0	68.08130264282227	
2	51.17417311668396	movie	1		284	0.0	2.5	/experiments/Knapen_AOT/AOT_stimuli/rescaled_final/1940_rv.mp4	0.0	68.10616421699524	2.4919650554656982
2	52.74767732620239	pulse	1	t		0.0	2.5	/experiments/Knapen_AOT/AOT_stimuli/rescaled_final/1940_rv.mp4	0.0	69.67966842651367	
2	53.66613817214966	fix_post	2		12	0.0	2.5	/experiments/Knapen_AOT/AOT_stimuli/rescaled_final/1940_rv.mp4	0.0	70.59812927246094	0.10001468658447266
3	53.76615285873413	fix_pre	0		120	1.0	2.5	/experiments/Knapen_AOT/AOT_stimuli/rescaled_final/0842_fw.mp4	0.0	70.69814395904541	1.0084989070892334
3	54.34980535507202	pulse	0	t		1.0	2.5	/experiments/Knapen_AOT/AOT_stimuli/rescaled_final/0842_fw.mp4	0.0	71.2817964553833	
3	54.774651765823364	movie	1		286	1.0	2.5	/experiments/Knapen_AOT/AOT_stimuli/rescaled_final/0842_fw.mp4	0.0	71.70664286613464	2.492083787918091
3	55.94813346862793	pulse	1	t		1.0	2.5	/experiments/Knapen_AOT/AOT_stimuli/rescaled_final/0842_fw.mp4	0.0	72.88012456893921	
3	57.266735553741455	fix_post	2		12	1.0	2.5	/experiments/Knapen_AOT/AOT_stimuli/rescaled_final/0842_fw.mp4	0.0	74.19872665405273	0.09997773170471191
4	57.36671328544617	fix_pre	0		120	2.0	2.5	/experiments/Knapen_AOT/AOT_stimuli/rescaled_final/0654_fw.mp4	0.0	74.29870438575745	1.0085198879241943
4	57.55026125907898	pulse	0	t		2.0	2.5	/experiments/Knapen_AOT/AOT_stimuli/rescaled_final/0654_fw.mp4	0.0	74.48225235939026	
4	58.37523317337036	movie	1		286	2.0	2.5	/experiments/Knapen_AOT/AOT_stimuli/rescaled_final/0654_fw.mp4	0.0	75.30722427368164	2.491978168487549
4	59.14857721328735	pulse	1	t		2.0	2.5	/experiments/Knapen_AOT/AOT_stimuli/rescaled_final/0654_fw.mp4	0.0	76.08056831359863	
4	60.74878287315369	pulse	1	t		2.0	2.5	/experiments/Knapen_AOT/AOT_stimuli/rescaled_final/0654_fw.mp4	0.0	77.68077397346497	
4	60.86721134185791	fix_post	2		12	2.0	2.5	/experiments/Knapen_AOT/AOT_stimuli/rescaled_final/0654_fw.mp4	0.0	77.79920244216919	0.10007786750793457
5	60.967289209365845	fix_pre	0		120	3.0	2.5	/experiments/Knapen_AOT/AOT_stimuli/rescaled_final/0796_rv.mp4	0.0	77.89928030967712	1.008441686630249
5	61.975730895996094	movie	1		278	3.0	2.5	/experiments/Knapen_AOT/AOT_stimuli/rescaled_final/0796_rv.mp4	0.0	78.90772199630737	2.492037057876587
5	62.35061478614807	pulse	1	t		3.0	2.5	/experiments/Knapen_AOT/AOT_stimuli/rescaled_final/0796_rv.mp4	0.0	79.28260588645935	
5	63.949098348617554	pulse	1	t		3.0	2.5	/experiments/Knapen_AOT/AOT_stimuli/rescaled_final/0796_rv.mp4	0.0	80.88108944892883	
5	64.46776795387268	fix_post	2		12	3.0	2.5	/experiments/Knapen_AOT/AOT_stimuli/rescaled_final/0796_rv.mp4	0.0	81.39975905418396	0.1000056266784668
6	64.56777358055115	fix_pre	0		119	4.0	2.5	/experiments/Knapen_AOT/AOT_stimuli/rescaled_final/0924_fw.mp4	0.0	81.49976468086243	1.0001392364501953
6	65.55150651931763	pulse	0	t		4.0	2.5	/experiments/Knapen_AOT/AOT_stimuli/rescaled_final/0924_fw.mp4	0.0	82.4834976196289	
6	65.56791281700134	movie	1		287	4.0	2.5	/experiments/Knapen_AOT/AOT_stimuli/rescaled_final/0924_fw.mp4	0.0	82.49990391731262	2.5004215240478516
6	67.15017437934875	pulse	1	t		4.0	2.5	/experiments/Knapen_AOT/AOT_stimuli/rescaled_final/0924_fw.mp4	0.0	84.08216547966003	
6	68.0683343410492	fix_post	2		12	4.0	2.5	/experiments/Knapen_AOT/AOT_stimuli/rescaled_final/0924_fw.mp4	0.0	85.00032544136047	0.09998726844787598
7	68.16832160949707	fix_pre	0		120	5.0	2.5	/experiments/Knapen_AOT/AOT_stimuli/rescaled_final/1422_fw.mp4	0.0	85.10031270980835	1.0086417198181152
7	68.75226020812988	pulse	0	t		5.0	2.5	/experiments/Knapen_AOT/AOT_stimuli/rescaled_final/1422_fw.mp4	0.0	85.68425130844116	
7	69.17696332931519	movie	1		284	5.0	2.5	/experiments/Knapen_AOT/AOT_stimuli/rescaled_final/1422_fw.mp4	0.0	86.10895442962646	2.4919254779815674
7	70.35017657279968	pulse	1	t		5.0	2.5	/experiments/Knapen_AOT/AOT_stimuli/rescaled_final/1422_fw.mp4	0.0	87.28216767311096	
7	71.66888880729675	fix_post	2		12	5.0	2.5	/experiments/Knapen_AOT/AOT_stimuli/rescaled_final/1422_fw.mp4	0.0	88.60087990760803	0.10001730918884277
8	71.7689061164856	fix_pre	0		120	6.0	2.5	/experiments/Knapen_AOT/AOT_stimuli/rescaled_final/0186_rv.mp4	0.0	88.70089721679688	1.0086252689361572
8	71.95241332054138	pulse	0	t		6.0	2.5	/experiments/Knapen_AOT/AOT_stimuli/rescaled_final/0186_rv.mp4	0.0	88.88440442085266	
8	72.77753138542175	movie	1		277	6.0	2.5	/experiments/Knapen_AOT/AOT_stimuli/rescaled_final/0186_rv.mp4	0.0	89.70952248573303	2.4918854236602783
8	73.55054020881653	pulse	1	t		6.0	2.5	/experiments/Knapen_AOT/AOT_stimuli/rescaled_final/0186_rv.mp4	0.0	90.48253130912781	
8	75.15094923973083	pulse	1	t		6.0	2.5	/experiments/Knapen_AOT/AOT_stimuli/rescaled_final/0186_rv.mp4	0.0	92.08294034004211	
8	75.26941680908203	fix_post	2		12	6.0	2.5	/experiments/Knapen_AOT/AOT_stimuli/rescaled_final/0186_rv.mp4	0.0	92.20140790939331	0.10001707077026367
9	75.3694338798523	fix_pre	0		120	7.0	2.5	blank	1.0	92.30142498016357	1.000112533569336
9	76.36954641342163	movie	1		300	7.0	2.5	blank	1.0	93.30153751373291	2.500365734100342
9	76.75320839881897	pulse	1	t		7.0	2.5	blank	1.0	93.68519949913025	
9	78.35343050956726	pulse	1	t		7.0	2.5	blank	1.0	95.28542160987854	
9	78.86991214752197	fix_post	2		12	7.0	2.5	blank	1.0	95.80190324783325	0.10003089904785156
10	78.96994304656982	fix_pre	0		119	8.0	2.5	/experiments/Knapen_AOT/AOT_stimuli/rescaled_final/1556_fw.mp4	0.0	95.9019341468811	1.0001780986785889
10	79.95396137237549	pulse	0	t		8.0	2.5	/experiments/Knapen_AOT/AOT_stimuli/rescaled_final/1556_fw.mp4	0.0	96.88595247268677	
10	79.97012114524841	movie	1		280	8.0	2.5	/experiments/Knapen_AOT/AOT_stimuli/rescaled_final/1556_fw.mp4	0.0	96.90211224555969	2.500357151031494
10	81.55352592468262	pulse	1	t		8.0	2.5	/experiments/Knapen_AOT/AOT_stimuli/rescaled_final/1556_fw.mp4	0.0	98.4855170249939	
10	82.47047829627991	fix_post	2		12	8.0	2.5	/experiments/Knapen_AOT/AOT_stimuli/rescaled_final/1556_fw.mp4	0.0	99.40246939659119	0.10006189346313477
11	82.57054018974304	fix_pre	0		120	9.0	2.5	/experiments/Knapen_AOT/AOT_stimuli/rescaled_final/0208_fw.mp4	0.0	99.50253129005432	1.008436918258667
11	83.14651918411255	pulse	0	t		9.0	2.5	/experiments/Knapen_AOT/AOT_stimuli/rescaled_final/0208_fw.mp4	0.0	100.07851028442383	
11	83.57897710800171	movie	1		286	9.0	2.5	/experiments/Knapen_AOT/AOT_stimuli/rescaled_final/0208_fw.mp4	0.0	100.51096820831299	2.492011308670044
11	84.75273156166077	pulse	1	t		9.0	2.5	/experiments/Knapen_AOT/AOT_stimuli/rescaled_final/0208_fw.mp4	0.0	101.68472266197205	
11	86.07098841667175	fix_post	2		12	9.0	2.5	/experiments/Knapen_AOT/AOT_stimuli/rescaled_final/0208_fw.mp4	0.0	103.00297951698303	0.10005497932434082
12	86.1710433959961	fix_pre	0		120	10.0	2.5	/experiments/Knapen_AOT/AOT_stimuli/rescaled_final/0980_fw.mp4	0.0	103.10303449630737	1.0084824562072754
12	86.34683132171631	pulse	0	t		10.0	2.5	/experiments/Knapen_AOT/AOT_stimuli/rescaled_final/0980_fw.mp4	0.0	103.27882242202759	
12	87.17952585220337	movie	1		285	10.0	2.5	/experiments/Knapen_AOT/AOT_stimuli/rescaled_final/0980_fw.mp4	0.0	104.11151695251465	2.4920201301574707
12	87.94690012931824	pulse	1	t		10.0	2.5	/experiments/Knapen_AOT/AOT_stimuli/rescaled_final/0980_fw.mp4	0.0	104.87889122962952	
12	89.54676938056946	pulse	1	t		10.0	2.5	/experiments/Knapen_AOT/AOT_stimuli/rescaled_final/0980_fw.mp4	0.0	106.47876048088074	
12	89.67154598236084	fix_post	2		12	10.0	2.5	/experiments/Knapen_AOT/AOT_stimuli/rescaled_final/0980_fw.mp4	0.0	106.60353708267212	0.10007190704345703
13	89.7716178894043	fix_pre	0		120	11.0	2.5	/experiments/Knapen_AOT/AOT_stimuli/rescaled_final/1102_rv.mp4	0.0	106.70360898971558	1.008439064025879
13	90.78005695343018	movie	1		277	11.0	2.5	/experiments/Knapen_AOT/AOT_stimuli/rescaled_final/1102_rv.mp4	0.0	107.71204805374146	2.492035388946533
13	91.1471471786499	pulse	1	t		11.0	2.5	/experiments/Knapen_AOT/AOT_stimuli/rescaled_final/1102_rv.mp4	0.0	108.07913827896118	
13	92.7470531463623	pulse	1	t		11.0	2.5	/experiments/Knapen_AOT/AOT_stimuli/rescaled_final/1102_rv.mp4	0.0	109.67904424667358	
13	93.27209234237671	fix_post	2		12	11.0	2.5	/experiments/Knapen_AOT/AOT_stimuli/rescaled_final/1102_rv.mp4	0.0	110.20408344268799	0.10001468658447266
14	93.37210702896118	fix_pre	0		118	12.0	2.5	/experiments/Knapen_AOT/AOT_stimuli/rescaled_final/1011_rv.mp4	0.0	110.30409812927246	0.9918208122253418
14	94.34749507904053	pulse	0	t		12.0	2.5	/experiments/Knapen_AOT/AOT_stimuli/rescaled_final/1011_rv.mp4	0.0	111.2794861793518	
14	94.36392784118652	movie	1		283	12.0	2.5	/experiments/Knapen_AOT/AOT_stimuli/rescaled_final/1011_rv.mp4	0.0	111.2959189414978	2.500380277633667
14	95.9466335773468	pulse	1	t		12.0	2.5	/experiments/Knapen_AOT/AOT_stimuli/rescaled_final/1011_rv.mp4	0.0	112.87862467765808	
14	96.86430811882019	fix_post	2		12	12.0	2.5	/experiments/Knapen_AOT/AOT_stimuli/rescaled_final/1011_rv.mp4	0.0	113.79629921913147	0.10002946853637695
15	96.96433758735657	fix_pre	0		120	13.0	2.5	blank	1.0	113.89632868766785	1.00022554397583
15	97.5479588508606	pulse	0	t		13.0	2.5	blank	1.0	114.47994995117188	
15	97.9645631313324	movie	1		300	13.0	2.5	blank	1.0	114.89655423164368	2.5002670288085938
15	99.14841723442078	pulse	1	t		13.0	2.5	blank	1.0	116.08040833473206	
15	100.46483016014099	fix_post	2		12	13.0	2.5	blank	1.0	117.39682126045227	0.10002756118774414
16	100.56485772132874	fix_pre	0		120	14.0	2.5	/experiments/Knapen_AOT/AOT_stimuli/rescaled_final/0888_rv.mp4	0.0	117.49684882164001	1.0085458755493164
16	100.74846315383911	pulse	0	t		14.0	2.5	/experiments/Knapen_AOT/AOT_stimuli/rescaled_final/0888_rv.mp4	0.0	117.68045425415039	
16	101.57340359687805	movie	1		270	14.0	2.5	/experiments/Knapen_AOT/AOT_stimuli/rescaled_final/0888_rv.mp4	0.0	118.50539469718933	2.491994857788086
16	102.34735226631165	pulse	1	t		14.0	2.5	/experiments/Knapen_AOT/AOT_stimuli/rescaled_final/0888_rv.mp4	0.0	119.27934336662292	
16	103.94704747200012	pulse	1	t		14.0	2.5	/experiments/Knapen_AOT/AOT_stimuli/rescaled_final/0888_rv.mp4	0.0	120.8790385723114	
16	104.06539845466614	fix_post	2		12	14.0	2.5	/experiments/Knapen_AOT/AOT_stimuli/rescaled_final/0888_rv.mp4	0.0	120.99738955497742	0.09999656677246094
17	104.1653950214386	fix_pre	0		120	15.0	2.5	/experiments/Knapen_AOT/AOT_stimuli/rescaled_final/0419_rv.mp4	0.0	121.09738612174988	1.0084874629974365
17	105.17388248443604	movie	1		285	15.0	2.5	/experiments/Knapen_AOT/AOT_stimuli/rescaled_final/0419_rv.mp4	0.0	122.10587358474731	2.492030143737793
17	105.54879307746887	pulse	1	t		15.0	2.5	/experiments/Knapen_AOT/AOT_stimuli/rescaled_final/0419_rv.mp4	0.0	122.48078417778015	
17	107.14737892150879	pulse	1	t		15.0	2.5	/experiments/Knapen_AOT/AOT_stimuli/rescaled_final/0419_rv.mp4	0.0	124.07937002182007	
17	107.66591262817383	fix_post	2		12	15.0	2.5	/experiments/Knapen_AOT/AOT_stimuli/rescaled_final/0419_rv.mp4	0.0	124.59790372848511	0.1000680923461914
18	107.76598072052002	fix_pre	0		119	16.0	2.5	/experiments/Knapen_AOT/AOT_stimuli/rescaled_final/0019_fw.mp4	0.0	124.6979718208313	1.0001261234283447
18	108.74962639808655	pulse	0	t		16.0	2.5	/experiments/Knapen_AOT/AOT_stimuli/rescaled_final/0019_fw.mp4	0.0	125.68161749839783	
18	108.76610684394836	movie	1		285	16.0	2.5	/experiments/Knapen_AOT/AOT_stimuli/rescaled_final/0019_fw.mp4	0.0	125.69809794425964	2.500377893447876
18	110.34836101531982	pulse	1	t		16.0	2.5	/experiments/Knapen_AOT/AOT_stimuli/rescaled_final/0019_fw.mp4	0.0	127.2803521156311	
18	111.26648473739624	fix_post	2		12	16.0	2.5	/experiments/Knapen_AOT/AOT_stimuli/rescaled_final/0019_fw.mp4	0.0	128.19847583770752	0.10000991821289062
19	111.36649465560913	fix_pre	0		120	17.0	2.5	/experiments/Knapen_AOT/AOT_stimuli/rescaled_final/1430_rv.mp4	0.0	128.2984857559204	1.0085248947143555
19	111.95011687278748	pulse	0	t		17.0	2.5	/experiments/Knapen_AOT/AOT_stimuli/rescaled_final/1430_rv.mp4	0.0	128.88210797309875	
19	112.37501955032349	movie	1		282	17.0	2.5	/experiments/Knapen_AOT/AOT_stimuli/rescaled_final/1430_rv.mp4	0.0	129.30701065063477	2.492006301879883
19	113.5507800579071	pulse	1	t		17.0	2.5	/experiments/Knapen_AOT/AOT_stimuli/rescaled_final/1430_rv.mp4	0.0	130.48277115821838	
19	114.86702585220337	fix_post	2		12	17.0	2.5	/experiments/Knapen_AOT/AOT_stimuli/rescaled_final/1430_rv.mp4	0.0	131.79901695251465	0.10003781318664551
20	114.96706366539001	fix_pre	0		120	18.0	2.5	/experiments/Knapen_AOT/AOT_stimuli/rescaled_final/0830_fw.mp4	0.0	131.8990547657013	1.0084619522094727
20	115.15065670013428	pulse	0	t		18.0	2.5	/experiments/Knapen_AOT/AOT_stimuli/rescaled_final/0830_fw.mp4	0.0	132.08264780044556	
20	115.97552561759949	movie	1		276	18.0	2.5	/experiments/Knapen_AOT/AOT_stimuli/rescaled_final/0830_fw.mp4	0.0	132.90751671791077	2.4920711517333984
20	116.74883604049683	pulse	1	t		18.0	2.5	/experiments/Knapen_AOT/AOT_stimuli/rescaled_final/0830_fw.mp4	0.0	133.6808271408081	
20	118.349285364151	pulse	1	t		18.0	2.5	/experiments/Knapen_AOT/AOT_stimuli/rescaled_final/0830_fw.mp4	0.0	135.28127646446228	
20	118.46759676933289	fix_post	2		12	18.0	2.5	/experiments/Knapen_AOT/AOT_stimuli/rescaled_final/0830_fw.mp4	0.0	135.39958786964417	0.09997391700744629
21	118.56757068634033	fix_pre	0		120	19.0	2.5	blank	1.0	135.4995617866516	1.0001521110534668
21	119.5677227973938	movie	1		300	19.0	2.5	blank	1.0	136.49971389770508	2.500345468521118
21	119.95128631591797	pulse	1	t		19.0	2.5	blank	1.0	136.88327741622925	
21	121.55157566070557	pulse	1	t		19.0	2.5	blank	1.0	138.48356676101685	
21	122.06806826591492	fix_post	2		12	19.0	2.5	blank	1.0	139.0000593662262	0.10008049011230469
22	122.16814875602722	fix_pre	0		119	20.0	2.5	/experiments/Knapen_AOT/AOT_stimuli/rescaled_final/1939_fw.mp4	0.0	139.1001398563385	1.0085716247558594
22	123.15180110931396	pulse	0	t		20.0	2.5	/experiments/Knapen_AOT/AOT_stimuli/rescaled_final/1939_fw.mp4	0.0	140.08379220962524	
22	123.17672038078308	movie	1		291	20.0	2.5	/experiments/Knapen_AOT/AOT_stimuli/rescaled_final/1939_fw.mp4	0.0	140.10871148109436	2.491926908493042
22	124.75209259986877	pulse	1	t		20.0	2.5	/experiments/Knapen_AOT/AOT_stimuli/rescaled_final/1939_fw.mp4	0.0	141.68408370018005	
22	125.66864728927612	fix_post	2		12	20.0	2.5	/experiments/Knapen_AOT/AOT_stimuli/rescaled_final/1939_fw.mp4	0.0	142.6006383895874	0.10000371932983398
23	125.76865100860596	fix_pre	0		120	21.0	2.5	/experiments/Knapen_AOT/AOT_stimuli/rescaled_final/1782_fw.mp4	0.0	142.70064210891724	1.0084946155548096
23	126.35230278968811	pulse	0	t		21.0	2.5	/experiments/Knapen_AOT/AOT_stimuli/rescaled_final/1782_fw.mp4	0.0	143.2842938899994	
23	126.77714562416077	movie	1		270	21.0	2.5	/experiments/Knapen_AOT/AOT_stimuli/rescaled_final/1782_fw.mp4	0.0	143.70913672447205	2.49204683303833
23	127.95162510871887	pulse	1	t		21.0	2.5	/experiments/Knapen_AOT/AOT_stimuli/rescaled_final/1782_fw.mp4	0.0	144.88361620903015	
23	129.2691924571991	fix_post	2		12	21.0	2.5	/experiments/Knapen_AOT/AOT_stimuli/rescaled_final/1782_fw.mp4	0.0	146.20118355751038	0.10000300407409668
24	129.3691954612732	fix_pre	0		120	22.0	2.5	/experiments/Knapen_AOT/AOT_stimuli/rescaled_final/0455_fw.mp4	0.0	146.30118656158447	1.0084807872772217
24	129.55286836624146	pulse	0	t		22.0	2.5	/experiments/Knapen_AOT/AOT_stimuli/rescaled_final/0455_fw.mp4	0.0	146.48485946655273	
24	130.37767624855042	movie	1		277	22.0	2.5	/experiments/Knapen_AOT/AOT_stimuli/rescaled_final/0455_fw.mp4	0.0	147.3096673488617	2.4920098781585693
24	131.15145421028137	pulse	1	t		22.0	2.5	/experiments/Knapen_AOT/AOT_stimuli/rescaled_final/0455_fw.mp4	0.0	148.08344531059265	
24	132.75111889839172	pulse	1	t		22.0	2.5	/experiments/Knapen_AOT/AOT_stimuli/rescaled_final/0455_fw.mp4	0.0	149.683109998703	
24	132.86968612670898	fix_post	2		12	22.0	2.5	/experiments/Knapen_AOT/AOT_stimuli/rescaled_final/0455_fw.mp4	0.0	149.80167722702026	0.10005569458007812
25	132.96974182128906	fix_pre	0		120	23.0	2.5	/experiments/Knapen_AOT/AOT_stimuli/rescaled_final/0509_rv.mp4	0.0	149.90173292160034	1.0084600448608398
25	133.9782018661499	movie	1		284	23.0	2.5	/experiments/Knapen_AOT/AOT_stimuli/rescaled_final/0509_rv.mp4	0.0	150.91019296646118	2.4920401573181152
25	134.3519229888916	pulse	1	t		23.0	2.5	/experiments/Knapen_AOT/AOT_stimuli/rescaled_final/0509_rv.mp4	0.0	151.28391408920288	
25	135.95172452926636	pulse	1	t		23.0	2.5	/experiments/Knapen_AOT/AOT_stimuli/rescaled_final/0509_rv.mp4	0.0	152.88371562957764	
25	136.47024202346802	fix_post	2		12	23.0	2.5	/experiments/Knapen_AOT/AOT_stimuli/rescaled_final/0509_rv.mp4	0.0	153.4022331237793	0.1000216007232666
26	136.57026362419128	fix_pre	0		118	24.0	2.5	/experiments/Knapen_AOT/AOT_stimuli/rescaled_final/2045_fw.mp4	0.0	153.50225472450256	0.991912841796875
26	137.54603743553162	pulse	0	t		24.0	2.5	/experiments/Knapen_AOT/AOT_stimuli/rescaled_final/2045_fw.mp4	0.0	154.4780285358429	
26	137.56217646598816	movie	1		284	24.0	2.5	/experiments/Knapen_AOT/AOT_stimuli/rescaled_final/2045_fw.mp4	0.0	154.49416756629944	2.5002899169921875
26	139.14663314819336	pulse	1	t		24.0	2.5	/experiments/Knapen_AOT/AOT_stimuli/rescaled_final/2045_fw.mp4	0.0	156.07862424850464	
26	140.06246638298035	fix_post	2		12	24.0	2.5	/experiments/Knapen_AOT/AOT_stimuli/rescaled_final/2045_fw.mp4	0.0	156.99445748329163	0.10000920295715332
27	140.1624755859375	fix_pre	0		120	25.0	2.5	/experiments/Knapen_AOT/AOT_stimuli/rescaled_final/0455_rv.mp4	0.0	157.09446668624878	1.0085182189941406
27	140.7462284564972	pulse	0	t		25.0	2.5	/experiments/Knapen_AOT/AOT_stimuli/rescaled_final/0455_rv.mp4	0.0	157.67821955680847	
27	141.17099380493164	movie	1		266	25.0	2.5	/experiments/Knapen_AOT/AOT_stimuli/rescaled_final/0455_rv.mp4	0.0	158.10298490524292	2.492064952850342
27	142.34639883041382	pulse	1	t		25.0	2.5	/experiments/Knapen_AOT/AOT_stimuli/rescaled_final/0455_rv.mp4	0.0	159.2783899307251	
27	143.66305875778198	fix_post	2		12	25.0	2.5	/experiments/Knapen_AOT/AOT_stimuli/rescaled_final/0455_rv.mp4	0.0	160.59504985809326	0.09997344017028809
28	143.76303219795227	fix_pre	0		120	26.0	2.5	/experiments/Knapen_AOT/AOT_stimuli/rescaled_final/1617_rv.mp4	0.0	160.69502329826355	1.008488655090332
28	143.9466598033905	pulse	0	t		26.0	2.5	/experiments/Knapen_AOT/AOT_stimuli/rescaled_final/1617_rv.mp4	0.0	160.87865090370178	
28	144.7715208530426	movie	1		283	26.0	2.5	/experiments/Knapen_AOT/AOT_stimuli/rescaled_final/1617_rv.mp4	0.0	161.70351195335388	2.4920382499694824
28	145.54683136940002	pulse	1	t		26.0	2.5	/experiments/Knapen_AOT/AOT_stimuli/rescaled_final/1617_rv.mp4	0.0	162.4788224697113	
28	147.14708876609802	pulse	1	t		26.0	2.5	/experiments/Knapen_AOT/AOT_stimuli/rescaled_final/1617_rv.mp4	0.0	164.0790798664093	
28	147.26355910301208	fix_post	2		12	26.0	2.5	/experiments/Knapen_AOT/AOT_stimuli/rescaled_final/1617_rv.mp4	0.0	164.19555020332336	0.1000523567199707
29	147.36361145973206	fix_pre	0		120	27.0	2.5	/experiments/Knapen_AOT/AOT_stimuli/rescaled_final/0334_rv.mp4	0.0	164.29560256004333	1.0084259510040283
29	148.37203741073608	movie	1		279	27.0	2.5	/experiments/Knapen_AOT/AOT_stimuli/rescaled_final/0334_rv.mp4	0.0	165.30402851104736	2.4920754432678223
29	148.74623203277588	pulse	1	t		27.0	2.5	/experiments/Knapen_AOT/AOT_stimuli/rescaled_final/0334_rv.mp4	0.0	165.67822313308716	
29	150.34782671928406	pulse	1	t		27.0	2.5	/experiments/Knapen_AOT/AOT_stimuli/rescaled_final/0334_rv.mp4	0.0	167.27981781959534	
29	150.8641128540039	fix_post	2		12	27.0	2.5	/experiments/Knapen_AOT/AOT_stimuli/rescaled_final/0334_rv.mp4	0.0	167.79610395431519	0.09999442100524902
30	150.96410727500916	fix_pre	0		119	28.0	2.5	blank	1.0	167.89609837532043	0.991809606552124
30	151.94785118103027	pulse	0	t		28.0	2.5	blank	1.0	168.87984228134155	
30	151.95591688156128	movie	1		301	28.0	2.5	blank	1.0	168.88790798187256	2.5086920261383057
30	153.54833722114563	pulse	1	t		28.0	2.5	blank	1.0	170.4803283214569	
30	154.46460890769958	fix_post	2		12	28.0	2.5	blank	1.0	171.39660000801086	0.10002398490905762
31	154.56463289260864	fix_pre	0		120	29.0	2.5	/experiments/Knapen_AOT/AOT_stimuli/rescaled_final/1174_rv.mp4	0.0	171.49662399291992	1.008512258529663
31	155.14850568771362	pulse	0	t		29.0	2.5	/experiments/Knapen_AOT/AOT_stimuli/rescaled_final/1174_rv.mp4	0.0	172.0804967880249	
31	155.5731451511383	movie	1		278	29.0	2.5	/experiments/Knapen_AOT/AOT_stimuli/rescaled_final/1174_rv.mp4	0.0	172.50513625144958	2.4920873641967773
31	156.7482874393463	pulse	1	t		29.0	2.5	/experiments/Knapen_AOT/AOT_stimuli/rescaled_final/1174_rv.mp4	0.0	173.6802785396576	
31	158.06523251533508	fix_post	2		12	29.0	2.5	/experiments/Knapen_AOT/AOT_stimuli/rescaled_final/1174_rv.mp4	0.0	174.99722361564636	0.09998297691345215
32	158.16521549224854	fix_pre	0		120	30.0	2.5	/experiments/Knapen_AOT/AOT_stimuli/rescaled_final/0360_rv.mp4	0.0	175.09720659255981	1.0084969997406006
32	158.34872221946716	pulse	0	t		30.0	2.5	/experiments/Knapen_AOT/AOT_stimuli/rescaled_final/0360_rv.mp4	0.0	175.28071331977844	
32	159.17371249198914	movie	1		264	30.0	2.5	/experiments/Knapen_AOT/AOT_stimuli/rescaled_final/0360_rv.mp4	0.0	176.10570359230042	2.491995334625244
32	159.9469997882843	pulse	1	t		30.0	2.5	/experiments/Knapen_AOT/AOT_stimuli/rescaled_final/0360_rv.mp4	0.0	176.87899088859558	
32	161.54707551002502	pulse	1	t		30.0	2.5	/experiments/Knapen_AOT/AOT_stimuli/rescaled_final/0360_rv.mp4	0.0	178.4790666103363	
32	161.66570782661438	fix_post	2		12	30.0	2.5	/experiments/Knapen_AOT/AOT_stimuli/rescaled_final/0360_rv.mp4	0.0	178.59769892692566	0.10000753402709961
33	161.76571536064148	fix_pre	0		120	31.0	2.5	/experiments/Knapen_AOT/AOT_stimuli/rescaled_final/1582_fw.mp4	0.0	178.69770646095276	1.008486270904541
33	162.77420163154602	movie	1		275	31.0	2.5	/experiments/Knapen_AOT/AOT_stimuli/rescaled_final/1582_fw.mp4	0.0	179.7061927318573	2.4920806884765625
33	163.14786863327026	pulse	1	t		31.0	2.5	/experiments/Knapen_AOT/AOT_stimuli/rescaled_final/1582_fw.mp4	0.0	180.07985973358154	
33	164.74803948402405	pulse	1	t		31.0	2.5	/experiments/Knapen_AOT/AOT_stimuli/rescaled_final/1582_fw.mp4	0.0	181.68003058433533	
33	165.26628232002258	fix_post	2		12	31.0	2.5	/experiments/Knapen_AOT/AOT_stimuli/rescaled_final/1582_fw.mp4	0.0	182.19827342033386	0.10001397132873535
34	165.36629629135132	fix_pre	0		119	32.0	2.5	/experiments/Knapen_AOT/AOT_stimuli/rescaled_final/1214_rv.mp4	0.0	182.2982873916626	1.0001227855682373
34	166.3499300479889	pulse	0	t		32.0	2.5	/experiments/Knapen_AOT/AOT_stimuli/rescaled_final/1214_rv.mp4	0.0	183.28192114830017	
34	166.36641907691956	movie	1		283	32.0	2.5	/experiments/Knapen_AOT/AOT_stimuli/rescaled_final/1214_rv.mp4	0.0	183.29841017723083	2.5003607273101807
34	167.95009350776672	pulse	1	t		32.0	2.5	/experiments/Knapen_AOT/AOT_stimuli/rescaled_final/1214_rv.mp4	0.0	184.882084608078	
34	168.86677980422974	fix_post	2		12	32.0	2.5	/experiments/Knapen_AOT/AOT_stimuli/rescaled_final/1214_rv.mp4	0.0	185.79877090454102	0.10007143020629883
35	168.96685123443604	fix_pre	0		120	33.0	2.5	blank	1.0	185.89884233474731	1.0001142024993896
35	169.5504584312439	pulse	0	t		33.0	2.5	blank	1.0	186.48244953155518	
35	169.96696543693542	movie	1		300	33.0	2.5	blank	1.0	186.8989565372467	2.500396251678467
35	171.15097498893738	pulse	1	t		33.0	2.5	blank	1.0	188.08296608924866	
35	172.4673616886139	fix_post	2		12	33.0	2.5	blank	1.0	189.39935278892517	0.09999942779541016
36	172.5673611164093	fix_pre	0		120	34.0	2.5	/experiments/Knapen_AOT/AOT_stimuli/rescaled_final/0512_rv.mp4	0.0	189.49935221672058	1.0084681510925293
36	172.7508945465088	pulse	0	t		34.0	2.5	/experiments/Knapen_AOT/AOT_stimuli/rescaled_final/0512_rv.mp4	0.0	189.68288564682007	
36	173.57582926750183	movie	1		283	34.0	2.5	/experiments/Knapen_AOT/AOT_stimuli/rescaled_final/0512_rv.mp4	0.0	190.5078203678131	2.4920315742492676
36	174.34923338890076	pulse	1	t		34.0	2.5	/experiments/Knapen_AOT/AOT_stimuli/rescaled_final/0512_rv.mp4	0.0	191.28122448921204	
36	175.9492790699005	pulse	1	t		34.0	2.5	/experiments/Knapen_AOT/AOT_stimuli/rescaled_final/0512_rv.mp4	0.0	192.8812701702118	
36	176.0678608417511	fix_post	2		12	34.0	2.5	/experiments/Knapen_AOT/AOT_stimuli/rescaled_final/0512_rv.mp4	0.0	192.99985194206238	0.10002899169921875
37	176.16788983345032	fix_pre	0		120	35.0	2.5	/experiments/Knapen_AOT/AOT_stimuli/rescaled_final/1038_fw.mp4	0.0	193.0998809337616	1.0086092948913574
37	177.17649912834167	movie	1		269	35.0	2.5	/experiments/Knapen_AOT/AOT_stimuli/rescaled_final/1038_fw.mp4	0.0	194.10849022865295	2.4920849800109863
37	177.55193710327148	pulse	1	t		35.0	2.5	/experiments/Knapen_AOT/AOT_stimuli/rescaled_final/1038_fw.mp4	0.0	194.48392820358276	
37	179.15023398399353	pulse	1	t		35.0	2.5	/experiments/Knapen_AOT/AOT_stimuli/rescaled_final/1038_fw.mp4	0.0	196.0822250843048	
37	179.66858410835266	fix_post	2		12	35.0	2.5	/experiments/Knapen_AOT/AOT_stimuli/rescaled_final/1038_fw.mp4	0.0	196.60057520866394	0.09990882873535156
38	179.768492937088	fix_pre	0		119	36.0	2.5	/experiments/Knapen_AOT/AOT_stimuli/rescaled_final/1735_rv.mp4	0.0	196.7004840373993	1.000215768814087
38	180.75209093093872	pulse	0	t		36.0	2.5	/experiments/Knapen_AOT/AOT_stimuli/rescaled_final/1735_rv.mp4	0.0	197.68408203125	
38	180.7687087059021	movie	1		281	36.0	2.5	/experiments/Knapen_AOT/AOT_stimuli/rescaled_final/1735_rv.mp4	0.0	197.70069980621338	2.5002477169036865
38	182.35081386566162	pulse	1	t		36.0	2.5	/experiments/Knapen_AOT/AOT_stimuli/rescaled_final/1735_rv.mp4	0.0	199.2828049659729	
38	183.2689564228058	fix_post	2		12	36.0	2.5	/experiments/Knapen_AOT/AOT_stimuli/rescaled_final/1735_rv.mp4	0.0	200.20094752311707	0.100006103515625
39	183.3689625263214	fix_pre	0		120	37.0	2.5	/experiments/Knapen_AOT/AOT_stimuli/rescaled_final/2010_rv.mp4	0.0	200.3009536266327	1.008523941040039
39	183.95260763168335	pulse	0	t		37.0	2.5	/experiments/Knapen_AOT/AOT_stimuli/rescaled_final/2010_rv.mp4	0.0	200.88459873199463	
39	184.37748646736145	movie	1		281	37.0	2.5	/experiments/Knapen_AOT/AOT_stimuli/rescaled_final/2010_rv.mp4	0.0	201.30947756767273	2.492126226425171
39	185.55103492736816	pulse	1	t		37.0	2.5	/experiments/Knapen_AOT/AOT_stimuli/rescaled_final/2010_rv.mp4	0.0	202.48302602767944	
39	186.86961269378662	fix_post	2		12	37.0	2.5	/experiments/Knapen_AOT/AOT_stimuli/rescaled_final/2010_rv.mp4	0.0	203.8016037940979	0.09994006156921387
40	186.96955275535583	fix_pre	0		120	38.0	2.5	/experiments/Knapen_AOT/AOT_stimuli/rescaled_final/2066_rv.mp4	0.0	203.90154385566711	1.0084269046783447
40	187.153222322464	pulse	0	t		38.0	2.5	/experiments/Knapen_AOT/AOT_stimuli/rescaled_final/2066_rv.mp4	0.0	204.08521342277527	
40	187.97797966003418	movie	1		283	38.0	2.5	/experiments/Knapen_AOT/AOT_stimuli/rescaled_final/2066_rv.mp4	0.0	204.90997076034546	2.4920873641967773
40	188.75140118598938	pulse	1	t		38.0	2.5	/experiments/Knapen_AOT/AOT_stimuli/rescaled_final/2066_rv.mp4	0.0	205.68339228630066	
40	190.35180640220642	pulse	1	t		38.0	2.5	/experiments/Knapen_AOT/AOT_stimuli/rescaled_final/2066_rv.mp4	0.0	207.2837975025177	
40	190.47006702423096	fix_post	2		12	38.0	2.5	/experiments/Knapen_AOT/AOT_stimuli/rescaled_final/2066_rv.mp4	0.0	207.40205812454224	0.09997940063476562
41	190.57004642486572	fix_pre	0		120	39.0	2.5	/experiments/Knapen_AOT/AOT_stimuli/rescaled_final/2164_fw.mp4	0.0	207.502037525177	1.0085558891296387
41	191.57860231399536	movie	1		268	39.0	2.5	/experiments/Knapen_AOT/AOT_stimuli/rescaled_final/2164_fw.mp4	0.0	208.51059341430664	2.492035150527954
41	191.95257234573364	pulse	1	t		39.0	2.5	/experiments/Knapen_AOT/AOT_stimuli/rescaled_final/2164_fw.mp4	0.0	208.88456344604492	
41	193.5520281791687	pulse	1	t		39.0	2.5	/experiments/Knapen_AOT/AOT_stimuli/rescaled_final/2164_fw.mp4	0.0	210.48401927947998	
41	194.07063746452332	fix_post	2		12	39.0	2.5	/experiments/Knapen_AOT/AOT_stimuli/rescaled_final/2164_fw.mp4	0.0	211.0026285648346	0.09993815422058105
42	194.1705756187439	fix_pre	0		119	40.0	2.5	/experiments/Knapen_AOT/AOT_stimuli/rescaled_final/0735_fw.mp4	0.0	211.10256671905518	1.0001835823059082
42	195.14670658111572	pulse	0	t		40.0	2.5	/experiments/Knapen_AOT/AOT_stimuli/rescaled_final/0735_fw.mp4	0.0	212.078697681427	
42	195.1707592010498	movie	1		280	40.0	2.5	/experiments/Knapen_AOT/AOT_stimuli/rescaled_final/0735_fw.mp4	0.0	212.10275030136108	2.500342607498169
42	196.74648928642273	pulse	1	t		40.0	2.5	/experiments/Knapen_AOT/AOT_stimuli/rescaled_final/0735_fw.mp4	0.0	213.678480386734	
42	197.67110180854797	fix_post	2		12	40.0	2.5	/experiments/Knapen_AOT/AOT_stimuli/rescaled_final/0735_fw.mp4	0.0	214.60309290885925	0.10003042221069336
43	197.77113223075867	fix_pre	0		120	41.0	2.5	/experiments/Knapen_AOT/AOT_stimuli/rescaled_final/1735_rv.mp4	0.0	214.70312333106995	1.0084807872772217
43	198.3465428352356	pulse	0	t		41.0	2.5	/experiments/Knapen_AOT/AOT_stimuli/rescaled_final/1735_rv.mp4	0.0	215.27853393554688	
43	198.7796130180359	movie	1		272	41.0	2.5	/experiments/Knapen_AOT/AOT_stimuli/rescaled_final/1735_rv.mp4	0.0	215.71160411834717	2.492112398147583
43	199.94680380821228	pulse	1	t		41.0	2.5	/experiments/Knapen_AOT/AOT_stimuli/rescaled_final/1735_rv.mp4	0.0	216.87879490852356	
43	201.27172541618347	fix_post	2		12	41.0	2.5	/experiments/Knapen_AOT/AOT_stimuli/rescaled_final/1735_rv.mp4	0.0	218.20371651649475	0.10010290145874023
44	201.3718283176422	fix_pre	0		120	42.0	2.5	blank	1.0	218.3038194179535	1.0000057220458984
44	201.5469353199005	pulse	0	t		42.0	2.5	blank	1.0	218.4789264202118	
44	202.3718340396881	movie	1		300	42.0	2.5	blank	1.0	219.3038251399994	2.500366449356079
44	203.1472659111023	pulse	1	t		42.0	2.5	blank	1.0	220.07925701141357	
44	204.74773526191711	pulse	1	t		42.0	2.5	blank	1.0	221.6797263622284	
44	204.8722004890442	fix_post	2		12	42.0	2.5	blank	1.0	221.80419158935547	0.10006093978881836
45	204.972261428833	fix_pre	0		120	43.0	2.5	/experiments/Knapen_AOT/AOT_stimuli/rescaled_final/0631_fw.mp4	0.0	221.9042525291443	1.0084359645843506
45	205.98069739341736	movie	1		279	43.0	2.5	/experiments/Knapen_AOT/AOT_stimuli/rescaled_final/0631_fw.mp4	0.0	222.91268849372864	2.49212646484375
45	206.34692788124084	pulse	1	t		43.0	2.5	/experiments/Knapen_AOT/AOT_stimuli/rescaled_final/0631_fw.mp4	0.0	223.27891898155212	
45	207.94794726371765	pulse	1	t		43.0	2.5	/experiments/Knapen_AOT/AOT_stimuli/rescaled_final/0631_fw.mp4	0.0	224.87993836402893	
45	208.4728238582611	fix_post	2		12	43.0	2.5	/experiments/Knapen_AOT/AOT_stimuli/rescaled_final/0631_fw.mp4	0.0	225.4048149585724	0.09996700286865234
46	208.57279086112976	fix_pre	0		118	44.0	2.5	/experiments/Knapen_AOT/AOT_stimuli/rescaled_final/1457_rv.mp4	0.0	225.50478196144104	0.9917774200439453
46	209.54814672470093	pulse	0	t		44.0	2.5	/experiments/Knapen_AOT/AOT_stimuli/rescaled_final/1457_rv.mp4	0.0	226.4801378250122	
46	209.5645682811737	movie	1		276	44.0	2.5	/experiments/Knapen_AOT/AOT_stimuli/rescaled_final/1457_rv.mp4	0.0	226.49655938148499	2.500364065170288
46	211.14726400375366	pulse	1	t		44.0	2.5	/experiments/Knapen_AOT/AOT_stimuli/rescaled_final/1457_rv.mp4	0.0	228.07925510406494	
46	212.064932346344	fix_post	2		12	44.0	2.5	/experiments/Knapen_AOT/AOT_stimuli/rescaled_final/1457_rv.mp4	0.0	228.99692344665527	0.1000363826751709
47	212.16496872901917	fix_pre	0		120	45.0	2.5	/experiments/Knapen_AOT/AOT_stimuli/rescaled_final/1811_rv.mp4	0.0	229.09695982933044	1.008504867553711
47	212.74870586395264	pulse	0	t		45.0	2.5	/experiments/Knapen_AOT/AOT_stimuli/rescaled_final/1811_rv.mp4	0.0	229.68069696426392	
47	213.17347359657288	movie	1		287	45.0	2.5	/experiments/Knapen_AOT/AOT_stimuli/rescaled_final/1811_rv.mp4	0.0	230.10546469688416	2.492044448852539
47	214.347243309021	pulse	1	t		45.0	2.5	/experiments/Knapen_AOT/AOT_stimuli/rescaled_final/1811_rv.mp4	0.0	231.27923440933228	
47	215.66551804542542	fix_post	2		12	45.0	2.5	/experiments/Knapen_AOT/AOT_stimuli/rescaled_final/1811_rv.mp4	0.0	232.5975091457367	0.10002660751342773
48	215.76554465293884	fix_pre	0		120	46.0	2.5	/experiments/Knapen_AOT/AOT_stimuli/rescaled_final/2176_fw.mp4	0.0	232.69753575325012	1.0084640979766846
48	215.94910621643066	pulse	0	t		46.0	2.5	/experiments/Knapen_AOT/AOT_stimuli/rescaled_final/2176_fw.mp4	0.0	232.88109731674194	
48	216.77400875091553	movie	1		255	46.0	2.5	/experiments/Knapen_AOT/AOT_stimuli/rescaled_final/2176_fw.mp4	0.0	233.7059998512268	2.492175817489624
48	217.54736828804016	pulse	1	t		46.0	2.5	/experiments/Knapen_AOT/AOT_stimuli/rescaled_final/2176_fw.mp4	0.0	234.47935938835144	
48	219.1496706008911	pulse	1	t		46.0	2.5	/experiments/Knapen_AOT/AOT_stimuli/rescaled_final/2176_fw.mp4	0.0	236.0816617012024	
48	219.26618456840515	fix_post	2		12	46.0	2.5	/experiments/Knapen_AOT/AOT_stimuli/rescaled_final/2176_fw.mp4	0.0	236.19817566871643	0.09983420372009277
49	219.36601877212524	fix_pre	0		120	47.0	2.5	/experiments/Knapen_AOT/AOT_stimuli/rescaled_final/0336_fw.mp4	0.0	236.29800987243652	1.008565902709961
49	220.3745846748352	movie	1		279	47.0	2.5	/experiments/Knapen_AOT/AOT_stimuli/rescaled_final/0336_fw.mp4	0.0	237.30657577514648	2.4919793605804443
49	220.74841499328613	pulse	1	t		47.0	2.5	/experiments/Knapen_AOT/AOT_stimuli/rescaled_final/0336_fw.mp4	0.0	237.6804060935974	
49	222.34801411628723	pulse	1	t		47.0	2.5	/experiments/Knapen_AOT/AOT_stimuli/rescaled_final/0336_fw.mp4	0.0	239.2800052165985	
49	222.86656403541565	fix_post	2		12	47.0	2.5	/experiments/Knapen_AOT/AOT_stimuli/rescaled_final/0336_fw.mp4	0.0	239.79855513572693	0.10001349449157715
50	222.96657752990723	fix_pre	0		119	48.0	2.5	blank	1.0	239.8985686302185	0.9918339252471924
50	223.9503583908081	pulse	0	t		48.0	2.5	blank	1.0	240.88234949111938	
50	223.95841145515442	movie	1		301	48.0	2.5	blank	1.0	240.8904025554657	2.508735179901123
50	225.5506191253662	pulse	1	t		48.0	2.5	blank	1.0	242.4826102256775	
50	226.46714663505554	fix_post	2		12	48.0	2.5	blank	1.0	243.39913773536682	0.10001063346862793
51	226.56715726852417	fix_pre	0		120	49.0	2.5	/experiments/Knapen_AOT/AOT_stimuli/rescaled_final/0711_fw.mp4	0.0	243.49914836883545	1.0084800720214844
51	227.15083122253418	pulse	0	t		49.0	2.5	/experiments/Knapen_AOT/AOT_stimuli/rescaled_final/0711_fw.mp4	0.0	244.08282232284546	
51	227.57563734054565	movie	1		286	49.0	2.5	/experiments/Knapen_AOT/AOT_stimuli/rescaled_final/0711_fw.mp4	0.0	244.50762844085693	2.492004632949829
51	228.74936723709106	pulse	1	t		49.0	2.5	/experiments/Knapen_AOT/AOT_stimuli/rescaled_final/0711_fw.mp4	0.0	245.68135833740234	
51	230.06764197349548	fix_post	2		12	49.0	2.5	/experiments/Knapen_AOT/AOT_stimuli/rescaled_final/0711_fw.mp4	0.0	246.99963307380676	0.10003161430358887
52	230.16767358779907	fix_pre	0		120	50.0	2.5	/experiments/Knapen_AOT/AOT_stimuli/rescaled_final/0509_fw.mp4	0.0	247.09966468811035	1.0085217952728271
52	230.35128712654114	pulse	0	t		50.0	2.5	/experiments/Knapen_AOT/AOT_stimuli/rescaled_final/0509_fw.mp4	0.0	247.28327822685242	
52	231.1761953830719	movie	1		281	50.0	2.5	/experiments/Knapen_AOT/AOT_stimuli/rescaled_final/0509_fw.mp4	0.0	248.10818648338318	2.4919979572296143
52	231.9514479637146	pulse	1	t		50.0	2.5	/experiments/Knapen_AOT/AOT_stimuli/rescaled_final/0509_fw.mp4	0.0	248.88343906402588	
52	233.5497875213623	pulse	1	t		50.0	2.5	/experiments/Knapen_AOT/AOT_stimuli/rescaled_final/0509_fw.mp4	0.0	250.48177862167358	
52	233.6681933403015	fix_post	2		12	50.0	2.5	/experiments/Knapen_AOT/AOT_stimuli/rescaled_final/0509_fw.mp4	0.0	250.6001844406128	0.10001683235168457
53	233.7682101726532	fix_pre	0		120	51.0	2.5	/experiments/Knapen_AOT/AOT_stimuli/rescaled_final/0284_rv.mp4	0.0	250.70020127296448	1.008531093597412
53	234.7767412662506	movie	1		270	51.0	2.5	/experiments/Knapen_AOT/AOT_stimuli/rescaled_final/0284_rv.mp4	0.0	251.7087323665619	2.49198842048645
53	235.1506702899933	pulse	1	t		51.0	2.5	/experiments/Knapen_AOT/AOT_stimuli/rescaled_final/0284_rv.mp4	0.0	252.08266139030457	
53	236.75018191337585	pulse	1	t		51.0	2.5	/experiments/Knapen_AOT/AOT_stimuli/rescaled_final/0284_rv.mp4	0.0	253.68217301368713	
53	237.26872968673706	fix_post	2		12	51.0	2.5	/experiments/Knapen_AOT/AOT_stimuli/rescaled_final/0284_rv.mp4	0.0	254.20072078704834	0.10003423690795898
54	237.36876392364502	fix_pre	0		119	52.0	2.5	/experiments/Knapen_AOT/AOT_stimuli/rescaled_final/0873_fw.mp4	0.0	254.3007550239563	1.0001776218414307
54	238.3526782989502	pulse	0	t		52.0	2.5	/experiments/Knapen_AOT/AOT_stimuli/rescaled_final/0873_fw.mp4	0.0	255.28466939926147	
54	238.36894154548645	movie	1		277	52.0	2.5	/experiments/Knapen_AOT/AOT_stimuli/rescaled_final/0873_fw.mp4	0.0	255.30093264579773	2.500312566757202
54	239.951642036438	pulse	1	t		52.0	2.5	/experiments/Knapen_AOT/AOT_stimuli/rescaled_final/0873_fw.mp4	0.0	256.88363313674927	
54	240.86925411224365	fix_post	2		12	52.0	2.5	/experiments/Knapen_AOT/AOT_stimuli/rescaled_final/0873_fw.mp4	0.0	257.80124521255493	0.10005807876586914
55	240.96931219100952	fix_pre	0		120	53.0	2.5	/experiments/Knapen_AOT/AOT_stimuli/rescaled_final/2083_rv.mp4	0.0	257.9013032913208	1.008430004119873
55	241.5529181957245	pulse	0	t		53.0	2.5	/experiments/Knapen_AOT/AOT_stimuli/rescaled_final/2083_rv.mp4	0.0	258.48490929603577	
55	241.9777421951294	movie	1		286	53.0	2.5	/experiments/Knapen_AOT/AOT_stimuli/rescaled_final/2083_rv.mp4	0.0	258.9097332954407	2.4920709133148193
55	243.1514253616333	pulse	1	t		53.0	2.5	/experiments/Knapen_AOT/AOT_stimuli/rescaled_final/2083_rv.mp4	0.0	260.0834164619446	
55	244.4698131084442	fix_post	2		12	53.0	2.5	/experiments/Knapen_AOT/AOT_stimuli/rescaled_final/2083_rv.mp4	0.0	261.4018042087555	0.10007309913635254
56	244.56988620758057	fix_pre	0		120	54.0	2.5	/experiments/Knapen_AOT/AOT_stimuli/rescaled_final/0410_rv.mp4	0.0	261.50187730789185	1.008409023284912
56	244.75348258018494	pulse	0	t		54.0	2.5	/experiments/Knapen_AOT/AOT_stimuli/rescaled_final/0410_rv.mp4	0.0	261.6854736804962	
56	245.57829523086548	movie	1		271	54.0	2.5	/experiments/Knapen_AOT/AOT_stimuli/rescaled_final/0410_rv.mp4	0.0	262.51028633117676	2.4920592308044434
56	246.35169410705566	pulse	1	t		54.0	2.5	/experiments/Knapen_AOT/AOT_stimuli/rescaled_final/0410_rv.mp4	0.0	263.28368520736694	
56	247.9520137310028	pulse	1	t		54.0	2.5	/experiments/Knapen_AOT/AOT_stimuli/rescaled_final/0410_rv.mp4	0.0	264.8840048313141	
56	248.07035446166992	fix_post	2		12	54.0	2.5	/experiments/Knapen_AOT/AOT_stimuli/rescaled_final/0410_rv.mp4	0.0	265.0023455619812	0.10004353523254395
57	248.17039799690247	fix_pre	0		120	55.0	2.5	/experiments/Knapen_AOT/AOT_stimuli/rescaled_final/0076_rv.mp4	0.0	265.10238909721375	1.0085077285766602
57	249.17890572547913	movie	1		271	55.0	2.5	/experiments/Knapen_AOT/AOT_stimuli/rescaled_final/0076_rv.mp4	0.0	266.1108968257904	2.49198579788208
57	249.5526885986328	pulse	1	t		55.0	2.5	/experiments/Knapen_AOT/AOT_stimuli/rescaled_final/0076_rv.mp4	0.0	266.4846796989441	
57	251.15249013900757	pulse	1	t		55.0	2.5	/experiments/Knapen_AOT/AOT_stimuli/rescaled_final/0076_rv.mp4	0.0	268.08448123931885	
57	251.6708915233612	fix_post	2		12	55.0	2.5	/experiments/Knapen_AOT/AOT_stimuli/rescaled_final/0076_rv.mp4	0.0	268.6028826236725	0.10001444816589355
58	251.7709059715271	fix_pre	0		119	56.0	2.5	blank	1.0	268.7028970718384	0.9917950630187988
58	252.74725103378296	pulse	0	t		56.0	2.5	blank	1.0	269.67924213409424	
58	252.7627010345459	movie	1		301	56.0	2.5	blank	1.0	269.6946921348572	2.5087814331054688
58	254.34688901901245	pulse	1	t		56.0	2.5	blank	1.0	271.27888011932373	
58	255.27148246765137	fix_post	2		12	56.0	2.5	blank	1.0	272.20347356796265	0.09998559951782227
59	255.3714680671692	fix_pre	0		120	57.0	2.5	/experiments/Knapen_AOT/AOT_stimuli/rescaled_final/0595_fw.mp4	0.0	272.30345916748047	1.0084564685821533
59	255.94683694839478	pulse	0	t		57.0	2.5	/experiments/Knapen_AOT/AOT_stimuli/rescaled_final/0595_fw.mp4	0.0	272.87882804870605	
59	256.37992453575134	movie	1		266	57.0	2.5	/experiments/Knapen_AOT/AOT_stimuli/rescaled_final/0595_fw.mp4	0.0	273.3119156360626	2.4920639991760254
59	257.5472548007965	pulse	1	t		57.0	2.5	/experiments/Knapen_AOT/AOT_stimuli/rescaled_final/0595_fw.mp4	0.0	274.4792459011078	
59	258.87198853492737	fix_post	2		12	57.0	2.5	/experiments/Knapen_AOT/AOT_stimuli/rescaled_final/0595_fw.mp4	0.0	275.80397963523865	0.10004115104675293
60	258.9720296859741	fix_pre	0		120	58.0	2.5	/experiments/Knapen_AOT/AOT_stimuli/rescaled_final/1174_fw.mp4	0.0	275.9040207862854	1.0085082054138184
60	259.14725136756897	pulse	0	t		58.0	2.5	/experiments/Knapen_AOT/AOT_stimuli/rescaled_final/1174_fw.mp4	0.0	276.07924246788025	
60	259.98053789138794	movie	1		274	58.0	2.5	/experiments/Knapen_AOT/AOT_stimuli/rescaled_final/1174_fw.mp4	0.0	276.9125289916992	2.4920008182525635
60	260.7474753856659	pulse	1	t		58.0	2.5	/experiments/Knapen_AOT/AOT_stimuli/rescaled_final/1174_fw.mp4	0.0	277.6794664859772	
60	262.3477737903595	pulse	1	t		58.0	2.5	/experiments/Knapen_AOT/AOT_stimuli/rescaled_final/1174_fw.mp4	0.0	279.2797648906708	
60	262.4725387096405	fix_post	2		12	58.0	2.5	/experiments/Knapen_AOT/AOT_stimuli/rescaled_final/1174_fw.mp4	0.0	279.4045298099518	0.09999990463256836
61	262.57253861427307	fix_pre	0		120	59.0	2.5	/experiments/Knapen_AOT/AOT_stimuli/rescaled_final/1790_rv.mp4	0.0	279.50452971458435	1.0084779262542725
61	263.58101654052734	movie	1		265	59.0	2.5	/experiments/Knapen_AOT/AOT_stimuli/rescaled_final/1790_rv.mp4	0.0	280.5130076408386	2.4920425415039062
61	263.9481897354126	pulse	1	t		59.0	2.5	/experiments/Knapen_AOT/AOT_stimuli/rescaled_final/1790_rv.mp4	0.0	280.8801808357239	
61	265.54819655418396	pulse	1	t		59.0	2.5	/experiments/Knapen_AOT/AOT_stimuli/rescaled_final/1790_rv.mp4	0.0	282.48018765449524	
61	266.07305908203125	fix_post	2		12	59.0	2.5	/experiments/Knapen_AOT/AOT_stimuli/rescaled_final/1790_rv.mp4	0.0	283.00505018234253	0.10003113746643066
62	266.1730902194977	fix_pre	0		118	60.0	2.5	/experiments/Knapen_AOT/AOT_stimuli/rescaled_final/1617_fw.mp4	0.0	283.10508131980896	1.0002694129943848
62	267.14854764938354	pulse	0	t		60.0	2.5	/experiments/Knapen_AOT/AOT_stimuli/rescaled_final/1617_fw.mp4	0.0	284.0805387496948	
62	267.17335963249207	movie	1		266	60.0	2.5	/experiments/Knapen_AOT/AOT_stimuli/rescaled_final/1617_fw.mp4	0.0	284.10535073280334	2.4919087886810303
62	268.7473268508911	pulse	1	t		60.0	2.5	/experiments/Knapen_AOT/AOT_stimuli/rescaled_final/1617_fw.mp4	0.0	285.6793179512024	
62	269.6652684211731	fix_post	2		12	60.0	2.5	/experiments/Knapen_AOT/AOT_stimuli/rescaled_final/1617_fw.mp4	0.0	286.5972595214844	0.10006880760192871
63	269.765337228775	fix_pre	0		120	61.0	2.5	blank	1.0	286.6973283290863	1.0000967979431152
63	270.34892296791077	pulse	0	t		61.0	2.5	blank	1.0	287.28091406822205	
63	270.76543402671814	movie	1		300	61.0	2.5	blank	1.0	287.6974251270294	2.5003647804260254
63	271.94920802116394	pulse	1	t		61.0	2.5	blank	1.0	288.8811991214752	
63	273.26579880714417	fix_post	2		12	61.0	2.5	blank	1.0	290.19778990745544	0.10003876686096191
64	273.3658375740051	fix_pre	0		120	62.0	2.5	/experiments/Knapen_AOT/AOT_stimuli/rescaled_final/0378_fw.mp4	0.0	290.2978286743164	1.0085678100585938
64	273.54944920539856	pulse	0	t		62.0	2.5	/experiments/Knapen_AOT/AOT_stimuli/rescaled_final/0378_fw.mp4	0.0	290.48144030570984	
64	274.3744053840637	movie	1		270	62.0	2.5	/experiments/Knapen_AOT/AOT_stimuli/rescaled_final/0378_fw.mp4	0.0	291.306396484375	2.491966724395752
64	275.1477723121643	pulse	1	t		62.0	2.5	/experiments/Knapen_AOT/AOT_stimuli/rescaled_final/0378_fw.mp4	0.0	292.0797634124756	
64	276.7480251789093	pulse	1	t		62.0	2.5	/experiments/Knapen_AOT/AOT_stimuli/rescaled_final/0378_fw.mp4	0.0	293.6800162792206	
64	276.8663721084595	fix_post	2		12	62.0	2.5	/experiments/Knapen_AOT/AOT_stimuli/rescaled_final/0378_fw.mp4	0.0	293.79836320877075	0.09999799728393555
65	276.9663701057434	fix_pre	0		120	63.0	2.5	/experiments/Knapen_AOT/AOT_stimuli/rescaled_final/1556_rv.mp4	0.0	293.8983612060547	1.008512258529663
65	277.97488236427307	movie	1		285	63.0	2.5	/experiments/Knapen_AOT/AOT_stimuli/rescaled_final/1556_rv.mp4	0.0	294.90687346458435	2.4919869899749756
65	278.34872341156006	pulse	1	t		63.0	2.5	/experiments/Knapen_AOT/AOT_stimuli/rescaled_final/1556_rv.mp4	0.0	295.28071451187134	
65	279.94827795028687	pulse	1	t		63.0	2.5	/experiments/Knapen_AOT/AOT_stimuli/rescaled_final/1556_rv.mp4	0.0	296.88026905059814	
65	280.46686935424805	fix_post	2		12	63.0	2.5	/experiments/Knapen_AOT/AOT_stimuli/rescaled_final/1556_rv.mp4	0.0	297.3988604545593	0.10005640983581543
66	280.56692576408386	fix_pre	0		119	64.0	2.5	/experiments/Knapen_AOT/AOT_stimuli/rescaled_final/1887_fw.mp4	0.0	297.49891686439514	1.0001370906829834
66	281.55060482025146	pulse	0	t		64.0	2.5	/experiments/Knapen_AOT/AOT_stimuli/rescaled_final/1887_fw.mp4	0.0	298.48259592056274	
66	281.56706285476685	movie	1		277	64.0	2.5	/experiments/Knapen_AOT/AOT_stimuli/rescaled_final/1887_fw.mp4	0.0	298.4990539550781	2.500392198562622
66	283.15007042884827	pulse	1	t		64.0	2.5	/experiments/Knapen_AOT/AOT_stimuli/rescaled_final/1887_fw.mp4	0.0	300.08206152915955	
66	284.06745505332947	fix_post	2		12	64.0	2.5	/experiments/Knapen_AOT/AOT_stimuli/rescaled_final/1887_fw.mp4	0.0	300.99944615364075	0.09998655319213867
67	284.1674416065216	fix_pre	0		120	65.0	2.5	/experiments/Knapen_AOT/AOT_stimuli/rescaled_final/0051_fw.mp4	0.0	301.0994327068329	1.0085396766662598
67	284.7511031627655	pulse	0	t		65.0	2.5	/experiments/Knapen_AOT/AOT_stimuli/rescaled_final/0051_fw.mp4	0.0	301.6830942630768	
67	285.17598128318787	movie	1		279	65.0	2.5	/experiments/Knapen_AOT/AOT_stimuli/rescaled_final/0051_fw.mp4	0.0	302.10797238349915	2.5003790855407715
67	286.3495419025421	pulse	1	t		65.0	2.5	/experiments/Knapen_AOT/AOT_stimuli/rescaled_final/0051_fw.mp4	0.0	303.2815330028534	
67	287.67636036872864	fix_post	2		11	65.0	2.5	/experiments/Knapen_AOT/AOT_stimuli/rescaled_final/0051_fw.mp4	0.0	304.6083514690399	0.09168744087219238
68	287.76804780960083	fix_pre	0		120	66.0	2.5	/experiments/Knapen_AOT/AOT_stimuli/rescaled_final/0563_rv.mp4	0.0	304.7000389099121	1.0085172653198242
68	287.95166850090027	pulse	0	t		66.0	2.5	/experiments/Knapen_AOT/AOT_stimuli/rescaled_final/0563_rv.mp4	0.0	304.88365960121155	
68	288.77656507492065	movie	1		277	66.0	2.5	/experiments/Knapen_AOT/AOT_stimuli/rescaled_final/0563_rv.mp4	0.0	305.70855617523193	2.4921798706054688
68	289.54990339279175	pulse	1	t		66.0	2.5	/experiments/Knapen_AOT/AOT_stimuli/rescaled_final/0563_rv.mp4	0.0	306.481894493103	
68	291.15059089660645	pulse	1	t		66.0	2.5	/experiments/Knapen_AOT/AOT_stimuli/rescaled_final/0563_rv.mp4	0.0	308.0825819969177	
68	291.2687449455261	fix_post	2		12	66.0	2.5	/experiments/Knapen_AOT/AOT_stimuli/rescaled_final/0563_rv.mp4	0.0	308.2007360458374	0.09979963302612305
69	291.36854457855225	fix_pre	0		120	67.0	2.5	/experiments/Knapen_AOT/AOT_stimuli/rescaled_final/1457_fw.mp4	0.0	308.3005356788635	1.008547306060791
69	292.37709188461304	movie	1		279	67.0	2.5	/experiments/Knapen_AOT/AOT_stimuli/rescaled_final/1457_fw.mp4	0.0	309.3090829849243	2.492004156112671
69	292.7507383823395	pulse	1	t		67.0	2.5	/experiments/Knapen_AOT/AOT_stimuli/rescaled_final/1457_fw.mp4	0.0	309.68272948265076	
69	294.3506062030792	pulse	1	t		67.0	2.5	/experiments/Knapen_AOT/AOT_stimuli/rescaled_final/1457_fw.mp4	0.0	311.2825973033905	
69	294.8690960407257	fix_post	2		12	67.0	2.5	/experiments/Knapen_AOT/AOT_stimuli/rescaled_final/1457_fw.mp4	0.0	311.801087141037	0.09998846054077148
70	294.9690845012665	fix_pre	0		119	68.0	2.5	/experiments/Knapen_AOT/AOT_stimuli/rescaled_final/0214_fw.mp4	0.0	311.90107560157776	1.000147819519043
70	295.9529049396515	pulse	0	t		68.0	2.5	/experiments/Knapen_AOT/AOT_stimuli/rescaled_final/0214_fw.mp4	0.0	312.88489603996277	
70	295.9692323207855	movie	1		278	68.0	2.5	/experiments/Knapen_AOT/AOT_stimuli/rescaled_final/0214_fw.mp4	0.0	312.9012234210968	2.5003700256347656
70	297.551584482193	pulse	1	t		68.0	2.5	/experiments/Knapen_AOT/AOT_stimuli/rescaled_final/0214_fw.mp4	0.0	314.4835755825043	
70	298.4696023464203	fix_post	2		12	68.0	2.5	/experiments/Knapen_AOT/AOT_stimuli/rescaled_final/0214_fw.mp4	0.0	315.40159344673157	0.10007405281066895
71	298.56967639923096	fix_pre	0		119	69.0	2.5	/experiments/Knapen_AOT/AOT_stimuli/rescaled_final/0419_fw.mp4	0.0	315.50166749954224	1.00840425491333
71	299.1533772945404	pulse	0	t		69.0	2.5	/experiments/Knapen_AOT/AOT_stimuli/rescaled_final/0419_fw.mp4	0.0	316.0853683948517	
71	299.5780806541443	movie	1		277	69.0	2.5	/experiments/Knapen_AOT/AOT_stimuli/rescaled_final/0419_fw.mp4	0.0	316.51007175445557	2.49204421043396
71	300.75184297561646	pulse	1	t		69.0	2.5	/experiments/Knapen_AOT/AOT_stimuli/rescaled_final/0419_fw.mp4	0.0	317.68383407592773	
71	302.07012486457825	fix_post	2		12	69.0	2.5	/experiments/Knapen_AOT/AOT_stimuli/rescaled_final/0419_fw.mp4	0.0	319.0021159648895	0.10003089904785156
72	302.1701557636261	fix_pre	0		120	70.0	2.5	blank	1.0	319.1021468639374	1.0001766681671143
72	302.34700894355774	pulse	0	t		70.0	2.5	blank	1.0	319.279000043869	
72	303.1703324317932	movie	1		300	70.0	2.5	blank	1.0	320.1023235321045	2.5003886222839355
72	303.9466505050659	pulse	1	t		70.0	2.5	blank	1.0	320.8786416053772	
72	305.5464723110199	pulse	1	t		70.0	2.5	blank	1.0	322.4784634113312	
72	305.67072105407715	fix_post	2		12	70.0	2.5	blank	1.0	322.6027121543884	0.09999203681945801
73	305.7707130908966	fix_pre	0		120	71.0	2.5	/experiments/Knapen_AOT/AOT_stimuli/rescaled_final/1422_rv.mp4	0.0	322.7027041912079	1.0085060596466064
73	306.7792191505432	movie	1		271	71.0	2.5	/experiments/Knapen_AOT/AOT_stimuli/rescaled_final/1422_rv.mp4	0.0	323.7112102508545	2.49200177192688
73	307.1546769142151	pulse	1	t		71.0	2.5	/experiments/Knapen_AOT/AOT_stimuli/rescaled_final/1422_rv.mp4	0.0	324.08666801452637	
73	308.7547996044159	pulse	1	t		71.0	2.5	/experiments/Knapen_AOT/AOT_stimuli/rescaled_final/1422_rv.mp4	0.0	325.6867907047272	
73	309.2712209224701	fix_post	2		12	71.0	2.5	/experiments/Knapen_AOT/AOT_stimuli/rescaled_final/1422_rv.mp4	0.0	326.2032120227814	0.10001707077026367
74	309.37123799324036	fix_pre	0		118	72.0	2.5	/experiments/Knapen_AOT/AOT_stimuli/rescaled_final/0979_rv.mp4	0.0	326.30322909355164	0.9918093681335449
74	310.3467049598694	pulse	0	t		72.0	2.5	/experiments/Knapen_AOT/AOT_stimuli/rescaled_final/0979_rv.mp4	0.0	327.27869606018066	
74	310.3630473613739	movie	1		278	72.0	2.5	/experiments/Knapen_AOT/AOT_stimuli/rescaled_final/0979_rv.mp4	0.0	327.2950384616852	2.500401258468628
74	311.94691705703735	pulse	1	t		72.0	2.5	/experiments/Knapen_AOT/AOT_stimuli/rescaled_final/0979_rv.mp4	0.0	328.87890815734863	
74	312.86344861984253	fix_post	2		12	72.0	2.5	/experiments/Knapen_AOT/AOT_stimuli/rescaled_final/0979_rv.mp4	0.0	329.7954397201538	0.10004425048828125
75	312.9634928703308	fix_pre	0		120	73.0	2.5	/experiments/Knapen_AOT/AOT_stimuli/rescaled_final/0814_rv.mp4	0.0	329.8954839706421	1.0084409713745117
75	313.54720854759216	pulse	0	t		73.0	2.5	/experiments/Knapen_AOT/AOT_stimuli/rescaled_final/0814_rv.mp4	0.0	330.47919964790344	
75	313.9719338417053	movie	1		272	73.0	2.5	/experiments/Knapen_AOT/AOT_stimuli/rescaled_final/0814_rv.mp4	0.0	330.9039249420166	2.4920411109924316
75	315.14739179611206	pulse	1	t		73.0	2.5	/experiments/Knapen_AOT/AOT_stimuli/rescaled_final/0814_rv.mp4	0.0	332.07938289642334	
75	316.46397495269775	fix_post	2		12	73.0	2.5	/experiments/Knapen_AOT/AOT_stimuli/rescaled_final/0814_rv.mp4	0.0	333.39596605300903	0.10003232955932617
76	316.5640072822571	fix_pre	0		120	74.0	2.5	/experiments/Knapen_AOT/AOT_stimuli/rescaled_final/1038_rv.mp4	0.0	333.49599838256836	1.00848388671875
76	316.74773812294006	pulse	0	t		74.0	2.5	/experiments/Knapen_AOT/AOT_stimuli/rescaled_final/1038_rv.mp4	0.0	333.67972922325134	
76	317.57249116897583	movie	1		273	74.0	2.5	/experiments/Knapen_AOT/AOT_stimuli/rescaled_final/1038_rv.mp4	0.0	334.5044822692871	2.4921038150787354
76	318.349308013916	pulse	1	t		74.0	2.5	/experiments/Knapen_AOT/AOT_stimuli/rescaled_final/1038_rv.mp4	0.0	335.2812991142273	
76	319.9465870857239	pulse	1	t		74.0	2.5	/experiments/Knapen_AOT/AOT_stimuli/rescaled_final/1038_rv.mp4	0.0	336.87857818603516	
76	320.06459498405457	fix_post	2		12	74.0	2.5	/experiments/Knapen_AOT/AOT_stimuli/rescaled_final/1038_rv.mp4	0.0	336.99658608436584	0.09994149208068848
77	320.16453647613525	fix_pre	0		120	75.0	2.5	blank	1.0	337.09652757644653	1.0001506805419922
77	321.16468715667725	movie	1		300	75.0	2.5	blank	1.0	338.0966782569885	2.500383138656616
77	321.54833698272705	pulse	1	t		75.0	2.5	blank	1.0	338.48032808303833	
77	323.1488301753998	pulse	1	t		75.0	2.5	blank	1.0	340.08082127571106	
77	323.66507029533386	fix_post	2		12	75.0	2.5	blank	1.0	340.59706139564514	0.10001778602600098
78	323.76508808135986	fix_pre	0		119	76.0	2.5	/experiments/Knapen_AOT/AOT_stimuli/rescaled_final/2116_rv.mp4	0.0	340.69707918167114	1.0085771083831787
78	324.74889183044434	pulse	0	t		76.0	2.5	/experiments/Knapen_AOT/AOT_stimuli/rescaled_final/2116_rv.mp4	0.0	341.6808829307556	
78	324.77366518974304	movie	1		271	76.0	2.5	/experiments/Knapen_AOT/AOT_stimuli/rescaled_final/2116_rv.mp4	0.0	341.7056562900543	2.4919159412384033
78	326.3477442264557	pulse	1	t		76.0	2.5	/experiments/Knapen_AOT/AOT_stimuli/rescaled_final/2116_rv.mp4	0.0	343.27973532676697	
78	327.26558113098145	fix_post	2		12	76.0	2.5	/experiments/Knapen_AOT/AOT_stimuli/rescaled_final/2116_rv.mp4	0.0	344.1975722312927	0.10002708435058594
79	327.36560821533203	fix_pre	0		120	77.0	2.5	/experiments/Knapen_AOT/AOT_stimuli/rescaled_final/1875_rv.mp4	0.0	344.2975993156433	1.008509635925293
79	327.94943141937256	pulse	0	t		77.0	2.5	/experiments/Knapen_AOT/AOT_stimuli/rescaled_final/1875_rv.mp4	0.0	344.88142251968384	
79	328.3741178512573	movie	1		275	77.0	2.5	/experiments/Knapen_AOT/AOT_stimuli/rescaled_final/1875_rv.mp4	0.0	345.3061089515686	2.4920296669006348
79	329.5480070114136	pulse	1	t		77.0	2.5	/experiments/Knapen_AOT/AOT_stimuli/rescaled_final/1875_rv.mp4	0.0	346.47999811172485	
79	330.86614751815796	fix_post	2		12	77.0	2.5	/experiments/Knapen_AOT/AOT_stimuli/rescaled_final/1875_rv.mp4	0.0	347.79813861846924	0.10001134872436523
80	330.9661588668823	fix_pre	0		120	78.0	2.5	/experiments/Knapen_AOT/AOT_stimuli/rescaled_final/1415_fw.mp4	0.0	347.8981499671936	1.0085206031799316
80	331.1497395038605	pulse	0	t		78.0	2.5	/experiments/Knapen_AOT/AOT_stimuli/rescaled_final/1415_fw.mp4	0.0	348.08173060417175	
80	331.97467947006226	movie	1		264	78.0	2.5	/experiments/Knapen_AOT/AOT_stimuli/rescaled_final/1415_fw.mp4	0.0	348.90667057037354	2.4920079708099365
80	332.7494752407074	pulse	1	t		78.0	2.5	/experiments/Knapen_AOT/AOT_stimuli/rescaled_final/1415_fw.mp4	0.0	349.6814663410187	
80	334.34833455085754	pulse	1	t		78.0	2.5	/experiments/Knapen_AOT/AOT_stimuli/rescaled_final/1415_fw.mp4	0.0	351.2803256511688	
80	334.4666874408722	fix_post	2		12	78.0	2.5	/experiments/Knapen_AOT/AOT_stimuli/rescaled_final/1415_fw.mp4	0.0	351.3986785411835	0.10001134872436523
81	334.56669878959656	fix_pre	0		120	79.0	2.5	/experiments/Knapen_AOT/AOT_stimuli/rescaled_final/1083_rv.mp4	0.0	351.49868988990784	1.0085043907165527
81	335.5752031803131	movie	1		272	79.0	2.5	/experiments/Knapen_AOT/AOT_stimuli/rescaled_final/1083_rv.mp4	0.0	352.5071942806244	2.4920268058776855
81	335.9495656490326	pulse	1	t		79.0	2.5	/experiments/Knapen_AOT/AOT_stimuli/rescaled_final/1083_rv.mp4	0.0	352.8815567493439	
81	337.55092096328735	pulse	1	t		79.0	2.5	/experiments/Knapen_AOT/AOT_stimuli/rescaled_final/1083_rv.mp4	0.0	354.48291206359863	
81	338.0672299861908	fix_post	2		12	79.0	2.5	/experiments/Knapen_AOT/AOT_stimuli/rescaled_final/1083_rv.mp4	0.0	354.9992210865021	0.10002851486206055
82	338.16725850105286	fix_pre	0		119	80.0	2.5	/experiments/Knapen_AOT/AOT_stimuli/rescaled_final/1551_rv.mp4	0.0	355.09924960136414	1.0001616477966309
82	339.1510887145996	pulse	0	t		80.0	2.5	/experiments/Knapen_AOT/AOT_stimuli/rescaled_final/1551_rv.mp4	0.0	356.0830798149109	
82	339.1674201488495	movie	1		269	80.0	2.5	/experiments/Knapen_AOT/AOT_stimuli/rescaled_final/1551_rv.mp4	0.0	356.09941124916077	2.500382661819458
82	340.75163292884827	pulse	1	t		80.0	2.5	/experiments/Knapen_AOT/AOT_stimuli/rescaled_final/1551_rv.mp4	0.0	357.68362402915955	
82	341.66780281066895	fix_post	2		12	80.0	2.5	/experiments/Knapen_AOT/AOT_stimuli/rescaled_final/1551_rv.mp4	0.0	358.5997939109802	0.09999632835388184
83	341.7677991390228	fix_pre	0		120	81.0	2.5	/experiments/Knapen_AOT/AOT_stimuli/rescaled_final/2164_fw.mp4	0.0	358.6997902393341	1.008514642715454
83	342.3515787124634	pulse	0	t		81.0	2.5	/experiments/Knapen_AOT/AOT_stimuli/rescaled_final/2164_fw.mp4	0.0	359.28356981277466	
83	342.7763137817383	movie	1		280	81.0	2.5	/experiments/Knapen_AOT/AOT_stimuli/rescaled_final/2164_fw.mp4	0.0	359.70830488204956	2.492016553878784
83	343.94994139671326	pulse	1	t		81.0	2.5	/experiments/Knapen_AOT/AOT_stimuli/rescaled_final/2164_fw.mp4	0.0	360.88193249702454	
83	345.26833033561707	fix_post	2		12	81.0	2.5	/experiments/Knapen_AOT/AOT_stimuli/rescaled_final/2164_fw.mp4	0.0	362.20032143592834	0.09999895095825195
84	345.3683292865753	fix_pre	0		120	82.0	2.5	/experiments/Knapen_AOT/AOT_stimuli/rescaled_final/0886_fw.mp4	0.0	362.3003203868866	1.0085523128509521
84	345.55199551582336	pulse	0	t		82.0	2.5	/experiments/Knapen_AOT/AOT_stimuli/rescaled_final/0886_fw.mp4	0.0	362.48398661613464	
84	346.37688159942627	movie	1		267	82.0	2.5	/experiments/Knapen_AOT/AOT_stimuli/rescaled_final/0886_fw.mp4	0.0	363.30887269973755	2.4919753074645996
84	347.15029740333557	pulse	1	t		82.0	2.5	/experiments/Knapen_AOT/AOT_stimuli/rescaled_final/0886_fw.mp4	0.0	364.08228850364685	
84	348.7505486011505	pulse	1	t		82.0	2.5	/experiments/Knapen_AOT/AOT_stimuli/rescaled_final/0886_fw.mp4	0.0	365.6825397014618	
84	348.86885690689087	fix_post	2		12	82.0	2.5	/experiments/Knapen_AOT/AOT_stimuli/rescaled_final/0886_fw.mp4	0.0	365.80084800720215	0.10001969337463379
85	348.9688766002655	fix_pre	0		120	83.0	2.5	blank	1.0	365.9008677005768	1.0001499652862549
85	349.96902656555176	movie	1		300	83.0	2.5	blank	1.0	366.90101766586304	2.5003650188446045
85	350.352742433548	pulse	1	t		83.0	2.5	blank	1.0	367.28473353385925	
85	351.9528822898865	pulse	1	t		83.0	2.5	blank	1.0	368.88487339019775	
85	352.46939158439636	fix_post	2		12	83.0	2.5	blank	1.0	369.40138268470764	0.10004067420959473
87	352.56943225860596	stim	0		1716					369.50142335891724	14.30211615562439
87	353.5532126426697	pulse	0	t						370.48520374298096	
87	355.15359568595886	pulse	0	t						372.08558678627014	
87	356.75362396240234	pulse	0	t						373.6856150627136	
87	358.35405564308167	pulse	0	t						375.28604674339294	
87	359.94727754592896	pulse	0	t						376.87926864624023	
87	361.55444169044495	pulse	0	t						378.4864327907562	
87	363.1469557285309	pulse	0	t						380.07894682884216	
87	364.7466208934784	pulse	0	t						381.6786119937897	
87	366.3471100330353	pulse	0	t						383.27910113334656	
