trial_nr	onset	event_type	phase	response	nr_frames	movie_index	movie_duration	movie_file	blank	onset_abs	duration
0	0.15804028511047363	stim	0		45					19.126479387283325	0.3749828338623047
0	0.5249545574188232	response	0	space						19.493393659591675	
1	0.5330231189727783	stim	0		4515					19.50146222114563	37.64045691490173
1	38.163764238357544	pulse	0	t						57.132203340530396	
1	38.17348003387451	stim	1		1715					57.14191913604736	14.300729990005493
1	39.75587773323059	pulse	1	t						58.72431683540344	
1	41.356037855148315	pulse	1	t						60.32447695732117	
1	42.956456422805786	pulse	1	t						61.92489552497864	
1	44.556495904922485	pulse	1	t						63.52493500709534	
1	46.156769037246704	pulse	1	t						65.12520813941956	
1	47.75713801383972	pulse	1	t						66.72557711601257	
1	49.35724234580994	pulse	1	t						68.32568144798279	
1	50.95755410194397	pulse	1	t						69.92599320411682	
2	52.474210023880005	fix_pre	0		11	0.0	2.5	/experiments/Knapen_AOT/AOT_stimuli/rescaled_final/1296_fw.mp4	0.0	71.44264912605286	0.10839962959289551
2	52.55779409408569	pulse	0	t		0.0	2.5	/experiments/Knapen_AOT/AOT_stimuli/rescaled_final/1296_fw.mp4	0.0	71.52623319625854	
2	52.5826096534729	movie	1		277	0.0	2.5	/experiments/Knapen_AOT/AOT_stimuli/rescaled_final/1296_fw.mp4	0.0	71.55104875564575	2.4919776916503906
2	54.157711029052734	pulse	1	t		0.0	2.5	/experiments/Knapen_AOT/AOT_stimuli/rescaled_final/1296_fw.mp4	0.0	73.12615013122559	
2	55.07458734512329	fix_post	2		12	0.0	2.5	/experiments/Knapen_AOT/AOT_stimuli/rescaled_final/1296_fw.mp4	0.0	74.04302644729614	0.10000896453857422
3	55.174596309661865	fix_pre	0		120	1.0	2.5	/experiments/Knapen_AOT/AOT_stimuli/rescaled_final/2006_fw.mp4	0.0	74.14303541183472	1.0085268020629883
3	55.75818467140198	pulse	0	t		1.0	2.5	/experiments/Knapen_AOT/AOT_stimuli/rescaled_final/2006_fw.mp4	0.0	74.72662377357483	
3	56.18312311172485	movie	1		278	1.0	2.5	/experiments/Knapen_AOT/AOT_stimuli/rescaled_final/2006_fw.mp4	0.0	75.1515622138977	2.4920215606689453
3	57.35638499259949	pulse	1	t		1.0	2.5	/experiments/Knapen_AOT/AOT_stimuli/rescaled_final/2006_fw.mp4	0.0	76.32482409477234	
3	58.6751446723938	fix_post	2		12	1.0	2.5	/experiments/Knapen_AOT/AOT_stimuli/rescaled_final/2006_fw.mp4	0.0	77.64358377456665	0.10011005401611328
4	58.77525472640991	fix_pre	0		120	2.0	2.5	/experiments/Knapen_AOT/AOT_stimuli/rescaled_final/2176_rv.mp4	0.0	77.74369382858276	1.0083975791931152
4	58.95870113372803	pulse	0	t		2.0	2.5	/experiments/Knapen_AOT/AOT_stimuli/rescaled_final/2176_rv.mp4	0.0	77.92714023590088	
4	59.78365230560303	movie	1		278	2.0	2.5	/experiments/Knapen_AOT/AOT_stimuli/rescaled_final/2176_rv.mp4	0.0	78.75209140777588	2.4920103549957275
4	60.557114601135254	pulse	1	t		2.0	2.5	/experiments/Knapen_AOT/AOT_stimuli/rescaled_final/2176_rv.mp4	0.0	79.5255537033081	
4	62.1593918800354	pulse	1	t		2.0	2.5	/experiments/Knapen_AOT/AOT_stimuli/rescaled_final/2176_rv.mp4	0.0	81.12783098220825	
4	62.275662660598755	fix_post	2		12	2.0	2.5	/experiments/Knapen_AOT/AOT_stimuli/rescaled_final/2176_rv.mp4	0.0	81.2441017627716	0.10001039505004883
5	62.375673055648804	fix_pre	0		120	3.0	2.5	/experiments/Knapen_AOT/AOT_stimuli/rescaled_final/0520_rv.mp4	0.0	81.34411215782166	1.0085275173187256
5	63.38420057296753	movie	1		280	3.0	2.5	/experiments/Knapen_AOT/AOT_stimuli/rescaled_final/0520_rv.mp4	0.0	82.35263967514038	2.4920029640197754
5	63.75780773162842	pulse	1	t		3.0	2.5	/experiments/Knapen_AOT/AOT_stimuli/rescaled_final/0520_rv.mp4	0.0	82.72624683380127	
5	65.35819911956787	pulse	1	t		3.0	2.5	/experiments/Knapen_AOT/AOT_stimuli/rescaled_final/0520_rv.mp4	0.0	84.32663822174072	
5	65.8762035369873	fix_post	2		12	3.0	2.5	/experiments/Knapen_AOT/AOT_stimuli/rescaled_final/0520_rv.mp4	0.0	84.84464263916016	0.10009574890136719
6	65.97629928588867	fix_pre	0		119	4.0	2.5	/experiments/Knapen_AOT/AOT_stimuli/rescaled_final/1786_rv.mp4	0.0	84.94473838806152	1.0001487731933594
6	66.95991396903992	pulse	0	t		4.0	2.5	/experiments/Knapen_AOT/AOT_stimuli/rescaled_final/1786_rv.mp4	0.0	85.92835307121277	
6	66.97644805908203	movie	1		276	4.0	2.5	/experiments/Knapen_AOT/AOT_stimuli/rescaled_final/1786_rv.mp4	0.0	85.94488716125488	2.500434160232544
6	68.55887222290039	pulse	1	t		4.0	2.5	/experiments/Knapen_AOT/AOT_stimuli/rescaled_final/1786_rv.mp4	0.0	87.52731132507324	
6	69.47688221931458	fix_post	2		12	4.0	2.5	/experiments/Knapen_AOT/AOT_stimuli/rescaled_final/1786_rv.mp4	0.0	88.44532132148743	0.09994316101074219
7	69.57682538032532	fix_pre	0		120	5.0	2.5	/experiments/Knapen_AOT/AOT_stimuli/rescaled_final/0159_fw.mp4	0.0	88.54526448249817	1.0084624290466309
7	70.15251064300537	pulse	0	t		5.0	2.5	/experiments/Knapen_AOT/AOT_stimuli/rescaled_final/0159_fw.mp4	0.0	89.12094974517822	
7	70.58528780937195	movie	1		279	5.0	2.5	/experiments/Knapen_AOT/AOT_stimuli/rescaled_final/0159_fw.mp4	0.0	89.5537269115448	2.4920127391815186
7	71.75255012512207	pulse	1	t		5.0	2.5	/experiments/Knapen_AOT/AOT_stimuli/rescaled_final/0159_fw.mp4	0.0	90.72098922729492	
7	73.07730054855347	fix_post	2		12	5.0	2.5	/experiments/Knapen_AOT/AOT_stimuli/rescaled_final/0159_fw.mp4	0.0	92.04573965072632	0.09999942779541016
8	73.17729997634888	fix_pre	0		120	6.0	2.5	blank	1.0	92.14573907852173	1.0001940727233887
8	73.35267210006714	pulse	0	t		6.0	2.5	blank	1.0	92.32111120223999	
8	74.17749404907227	movie	1		300	6.0	2.5	blank	1.0	93.14593315124512	2.5003280639648438
8	74.95286345481873	pulse	1	t		6.0	2.5	blank	1.0	93.92130255699158	
8	76.55301284790039	pulse	1	t		6.0	2.5	blank	1.0	95.52145195007324	
8	76.67782211303711	fix_post	2		12	6.0	2.5	blank	1.0	95.64626121520996	0.10006141662597656
9	76.77788352966309	fix_pre	0		120	7.0	2.5	/experiments/Knapen_AOT/AOT_stimuli/rescaled_final/1379_rv.mp4	0.0	95.74632263183594	1.0084490776062012
9	77.78633260726929	movie	1		275	7.0	2.5	/experiments/Knapen_AOT/AOT_stimuli/rescaled_final/1379_rv.mp4	0.0	96.75477170944214	2.492037057876587
9	78.1534333229065	pulse	1	t		7.0	2.5	/experiments/Knapen_AOT/AOT_stimuli/rescaled_final/1379_rv.mp4	0.0	97.12187242507935	
9	79.75350165367126	pulse	1	t		7.0	2.5	/experiments/Knapen_AOT/AOT_stimuli/rescaled_final/1379_rv.mp4	0.0	98.72194075584412	
9	80.27836966514587	fix_post	2		12	7.0	2.5	/experiments/Knapen_AOT/AOT_stimuli/rescaled_final/1379_rv.mp4	0.0	99.24680876731873	0.10001778602600098
10	80.37838745117188	fix_pre	0		118	8.0	2.5	/experiments/Knapen_AOT/AOT_stimuli/rescaled_final/1900_rv.mp4	0.0	99.34682655334473	0.9918272495269775
10	81.35377430915833	pulse	0	t		8.0	2.5	/experiments/Knapen_AOT/AOT_stimuli/rescaled_final/1900_rv.mp4	0.0	100.32221341133118	
10	81.37021470069885	movie	1		287	8.0	2.5	/experiments/Knapen_AOT/AOT_stimuli/rescaled_final/1900_rv.mp4	0.0	100.3386538028717	2.5003750324249268
10	82.95257997512817	pulse	1	t		8.0	2.5	/experiments/Knapen_AOT/AOT_stimuli/rescaled_final/1900_rv.mp4	0.0	101.92101907730103	
10	83.87058973312378	fix_post	2		12	8.0	2.5	/experiments/Knapen_AOT/AOT_stimuli/rescaled_final/1900_rv.mp4	0.0	102.83902883529663	0.1000051498413086
11	83.97059488296509	fix_pre	0		120	9.0	2.5	/experiments/Knapen_AOT/AOT_stimuli/rescaled_final/0265_rv.mp4	0.0	102.93903398513794	1.0085253715515137
11	84.5542573928833	pulse	0	t		9.0	2.5	/experiments/Knapen_AOT/AOT_stimuli/rescaled_final/0265_rv.mp4	0.0	103.52269649505615	
11	84.9791202545166	movie	1		281	9.0	2.5	/experiments/Knapen_AOT/AOT_stimuli/rescaled_final/0265_rv.mp4	0.0	103.94755935668945	2.491997003555298
11	86.15262150764465	pulse	1	t		9.0	2.5	/experiments/Knapen_AOT/AOT_stimuli/rescaled_final/0265_rv.mp4	0.0	105.1210606098175	
11	87.4711172580719	fix_post	2		12	9.0	2.5	/experiments/Knapen_AOT/AOT_stimuli/rescaled_final/0265_rv.mp4	0.0	106.43955636024475	0.10002422332763672
12	87.57114148139954	fix_pre	0		120	10.0	2.5	/experiments/Knapen_AOT/AOT_stimuli/rescaled_final/1626_rv.mp4	0.0	106.53958058357239	1.0085196495056152
12	87.75475764274597	pulse	0	t		10.0	2.5	/experiments/Knapen_AOT/AOT_stimuli/rescaled_final/1626_rv.mp4	0.0	106.72319674491882	
12	88.57966113090515	movie	1		259	10.0	2.5	/experiments/Knapen_AOT/AOT_stimuli/rescaled_final/1626_rv.mp4	0.0	107.548100233078	2.492007255554199
12	89.3526782989502	pulse	1	t		10.0	2.5	/experiments/Knapen_AOT/AOT_stimuli/rescaled_final/1626_rv.mp4	0.0	108.32111740112305	
12	90.95322465896606	pulse	1	t		10.0	2.5	/experiments/Knapen_AOT/AOT_stimuli/rescaled_final/1626_rv.mp4	0.0	109.92166376113892	
12	91.07166838645935	fix_post	2		12	10.0	2.5	/experiments/Knapen_AOT/AOT_stimuli/rescaled_final/1626_rv.mp4	0.0	110.0401074886322	0.10002017021179199
13	91.17168855667114	fix_pre	0		120	11.0	2.5	/experiments/Knapen_AOT/AOT_stimuli/rescaled_final/0732_rv.mp4	0.0	110.140127658844	1.0084965229034424
13	92.18018507957458	movie	1		259	11.0	2.5	/experiments/Knapen_AOT/AOT_stimuli/rescaled_final/0732_rv.mp4	0.0	111.14862418174744	2.492037773132324
13	92.55382323265076	pulse	1	t		11.0	2.5	/experiments/Knapen_AOT/AOT_stimuli/rescaled_final/0732_rv.mp4	0.0	111.52226233482361	
13	94.15369844436646	pulse	1	t		11.0	2.5	/experiments/Knapen_AOT/AOT_stimuli/rescaled_final/0732_rv.mp4	0.0	113.1221375465393	
13	94.67222285270691	fix_post	2		12	11.0	2.5	/experiments/Knapen_AOT/AOT_stimuli/rescaled_final/0732_rv.mp4	0.0	113.64066195487976	0.09999227523803711
14	94.77221512794495	fix_pre	0		119	12.0	2.5	/experiments/Knapen_AOT/AOT_stimuli/rescaled_final/0310_rv.mp4	0.0	113.7406542301178	1.008521556854248
14	95.75593733787537	pulse	0	t		12.0	2.5	/experiments/Knapen_AOT/AOT_stimuli/rescaled_final/0310_rv.mp4	0.0	114.72437644004822	
14	95.7807366847992	movie	1		278	12.0	2.5	/experiments/Knapen_AOT/AOT_stimuli/rescaled_final/0310_rv.mp4	0.0	114.74917578697205	2.4919958114624023
14	97.35472416877747	pulse	1	t		12.0	2.5	/experiments/Knapen_AOT/AOT_stimuli/rescaled_final/0310_rv.mp4	0.0	116.32316327095032	
14	98.2727324962616	fix_post	2		12	12.0	2.5	/experiments/Knapen_AOT/AOT_stimuli/rescaled_final/0310_rv.mp4	0.0	117.24117159843445	0.10009980201721191
15	98.37283229827881	fix_pre	0		120	13.0	2.5	blank	1.0	117.34127140045166	1.0001583099365234
15	98.95643854141235	pulse	0	t		13.0	2.5	blank	1.0	117.9248776435852	
15	99.37299060821533	movie	1		300	13.0	2.5	blank	1.0	118.34142971038818	2.500361442565918
15	100.55662178993225	pulse	1	t		13.0	2.5	blank	1.0	119.5250608921051	
15	101.87335205078125	fix_post	2		12	13.0	2.5	blank	1.0	120.8417911529541	0.09995579719543457
16	101.97330784797668	fix_pre	0		120	14.0	2.5	/experiments/Knapen_AOT/AOT_stimuli/rescaled_final/1934_fw.mp4	0.0	120.94174695014954	1.0085680484771729
16	102.15703392028809	pulse	0	t		14.0	2.5	/experiments/Knapen_AOT/AOT_stimuli/rescaled_final/1934_fw.mp4	0.0	121.12547302246094	
16	102.98187589645386	movie	1		277	14.0	2.5	/experiments/Knapen_AOT/AOT_stimuli/rescaled_final/1934_fw.mp4	0.0	121.95031499862671	2.491950035095215
16	103.75474452972412	pulse	1	t		14.0	2.5	/experiments/Knapen_AOT/AOT_stimuli/rescaled_final/1934_fw.mp4	0.0	122.72318363189697	
16	105.3551652431488	pulse	1	t		14.0	2.5	/experiments/Knapen_AOT/AOT_stimuli/rescaled_final/1934_fw.mp4	0.0	124.32360434532166	
16	105.47382593154907	fix_post	2		12	14.0	2.5	/experiments/Knapen_AOT/AOT_stimuli/rescaled_final/1934_fw.mp4	0.0	124.44226503372192	0.10002994537353516
17	105.57385587692261	fix_pre	0		120	15.0	2.5	/experiments/Knapen_AOT/AOT_stimuli/rescaled_final/0909_fw.mp4	0.0	124.54229497909546	1.0084869861602783
17	106.58234286308289	movie	1		275	15.0	2.5	/experiments/Knapen_AOT/AOT_stimuli/rescaled_final/0909_fw.mp4	0.0	125.55078196525574	2.492018222808838
17	106.95558595657349	pulse	1	t		15.0	2.5	/experiments/Knapen_AOT/AOT_stimuli/rescaled_final/0909_fw.mp4	0.0	125.92402505874634	
17	108.55585408210754	pulse	1	t		15.0	2.5	/experiments/Knapen_AOT/AOT_stimuli/rescaled_final/0909_fw.mp4	0.0	127.5242931842804	
17	109.07436108589172	fix_post	2		12	15.0	2.5	/experiments/Knapen_AOT/AOT_stimuli/rescaled_final/0909_fw.mp4	0.0	128.04280018806458	0.10002684593200684
18	109.17438793182373	fix_pre	0		119	16.0	2.5	/experiments/Knapen_AOT/AOT_stimuli/rescaled_final/0902_rv.mp4	0.0	128.14282703399658	1.00016450881958
18	110.15814256668091	pulse	0	t		16.0	2.5	/experiments/Knapen_AOT/AOT_stimuli/rescaled_final/0902_rv.mp4	0.0	129.12658166885376	
18	110.17455244064331	movie	1		272	16.0	2.5	/experiments/Knapen_AOT/AOT_stimuli/rescaled_final/0902_rv.mp4	0.0	129.14299154281616	2.5003714561462402
18	111.75686073303223	pulse	1	t		16.0	2.5	/experiments/Knapen_AOT/AOT_stimuli/rescaled_final/0902_rv.mp4	0.0	130.72529983520508	
18	112.67492389678955	fix_post	2		12	16.0	2.5	/experiments/Knapen_AOT/AOT_stimuli/rescaled_final/0902_rv.mp4	0.0	131.6433629989624	0.10006523132324219
19	112.7749891281128	fix_pre	0		120	17.0	2.5	/experiments/Knapen_AOT/AOT_stimuli/rescaled_final/0788_rv.mp4	0.0	131.74342823028564	1.0084452629089355
19	113.3585741519928	pulse	0	t		17.0	2.5	/experiments/Knapen_AOT/AOT_stimuli/rescaled_final/0788_rv.mp4	0.0	132.32701325416565	
19	113.78343439102173	movie	1		277	17.0	2.5	/experiments/Knapen_AOT/AOT_stimuli/rescaled_final/0788_rv.mp4	0.0	132.75187349319458	2.492011547088623
19	114.95724821090698	pulse	1	t		17.0	2.5	/experiments/Knapen_AOT/AOT_stimuli/rescaled_final/0788_rv.mp4	0.0	133.92568731307983	
19	116.27544593811035	fix_post	2		12	17.0	2.5	/experiments/Knapen_AOT/AOT_stimuli/rescaled_final/0788_rv.mp4	0.0	135.2438850402832	0.10001611709594727
20	116.3754620552063	fix_pre	0		120	18.0	2.5	/experiments/Knapen_AOT/AOT_stimuli/rescaled_final/0016_fw.mp4	0.0	135.34390115737915	1.0085351467132568
20	116.55906939506531	pulse	0	t		18.0	2.5	/experiments/Knapen_AOT/AOT_stimuli/rescaled_final/0016_fw.mp4	0.0	135.52750849723816	
20	117.38399720191956	movie	1		284	18.0	2.5	/experiments/Knapen_AOT/AOT_stimuli/rescaled_final/0016_fw.mp4	0.0	136.3524363040924	2.4920003414154053
20	118.15842843055725	pulse	1	t		18.0	2.5	/experiments/Knapen_AOT/AOT_stimuli/rescaled_final/0016_fw.mp4	0.0	137.1268675327301	
20	119.7578227519989	pulse	1	t		18.0	2.5	/experiments/Knapen_AOT/AOT_stimuli/rescaled_final/0016_fw.mp4	0.0	138.72626185417175	
20	119.87599754333496	fix_post	2		12	18.0	2.5	/experiments/Knapen_AOT/AOT_stimuli/rescaled_final/0016_fw.mp4	0.0	138.8444366455078	0.10000848770141602
21	119.97600603103638	fix_pre	0		120	19.0	2.5	/experiments/Knapen_AOT/AOT_stimuli/rescaled_final/1078_rv.mp4	0.0	138.94444513320923	1.0084929466247559
21	120.98449897766113	movie	1		273	19.0	2.5	/experiments/Knapen_AOT/AOT_stimuli/rescaled_final/1078_rv.mp4	0.0	139.95293807983398	2.500493049621582
21	121.35835671424866	pulse	1	t		19.0	2.5	/experiments/Knapen_AOT/AOT_stimuli/rescaled_final/1078_rv.mp4	0.0	140.3267958164215	
21	122.95868134498596	pulse	1	t		19.0	2.5	/experiments/Knapen_AOT/AOT_stimuli/rescaled_final/1078_rv.mp4	0.0	141.9271204471588	
21	123.48499202728271	fix_post	2		11	19.0	2.5	/experiments/Knapen_AOT/AOT_stimuli/rescaled_final/1078_rv.mp4	0.0	142.45343112945557	0.09161186218261719
22	123.57660388946533	fix_pre	0		119	20.0	2.5	blank	1.0	142.54504299163818	0.9917643070220947
22	124.56026363372803	pulse	0	t		20.0	2.5	blank	1.0	143.52870273590088	
22	124.56836819648743	movie	1		301	20.0	2.5	blank	1.0	143.53680729866028	2.5086963176727295
22	126.16049361228943	pulse	1	t		20.0	2.5	blank	1.0	145.12893271446228	
22	127.07706451416016	fix_post	2		12	20.0	2.5	blank	1.0	146.045503616333	0.10003113746643066
23	127.17709565162659	fix_pre	0		120	21.0	2.5	/experiments/Knapen_AOT/AOT_stimuli/rescaled_final/0240_rv.mp4	0.0	146.14553475379944	1.0085301399230957
23	127.76076984405518	pulse	0	t		21.0	2.5	/experiments/Knapen_AOT/AOT_stimuli/rescaled_final/0240_rv.mp4	0.0	146.72920894622803	
23	128.18562579154968	movie	1		262	21.0	2.5	/experiments/Knapen_AOT/AOT_stimuli/rescaled_final/0240_rv.mp4	0.0	147.15406489372253	2.492002248764038
23	129.35302591323853	pulse	1	t		21.0	2.5	/experiments/Knapen_AOT/AOT_stimuli/rescaled_final/0240_rv.mp4	0.0	148.32146501541138	
23	130.67762804031372	fix_post	2		12	21.0	2.5	/experiments/Knapen_AOT/AOT_stimuli/rescaled_final/0240_rv.mp4	0.0	149.64606714248657	0.10002303123474121
24	130.77765107154846	fix_pre	0		120	22.0	2.5	/experiments/Knapen_AOT/AOT_stimuli/rescaled_final/0329_fw.mp4	0.0	149.7460901737213	1.008495569229126
24	130.95329642295837	pulse	0	t		22.0	2.5	/experiments/Knapen_AOT/AOT_stimuli/rescaled_final/0329_fw.mp4	0.0	149.92173552513123	
24	131.7861466407776	movie	1		267	22.0	2.5	/experiments/Knapen_AOT/AOT_stimuli/rescaled_final/0329_fw.mp4	0.0	150.75458574295044	2.492018222808838
24	132.55335235595703	pulse	1	t		22.0	2.5	/experiments/Knapen_AOT/AOT_stimuli/rescaled_final/0329_fw.mp4	0.0	151.52179145812988	
24	134.15348196029663	pulse	1	t		22.0	2.5	/experiments/Knapen_AOT/AOT_stimuli/rescaled_final/0329_fw.mp4	0.0	153.12192106246948	
24	134.27816486358643	fix_post	2		12	22.0	2.5	/experiments/Knapen_AOT/AOT_stimuli/rescaled_final/0329_fw.mp4	0.0	153.24660396575928	0.10001873970031738
25	134.37818360328674	fix_pre	0		120	23.0	2.5	/experiments/Knapen_AOT/AOT_stimuli/rescaled_final/0957_rv.mp4	0.0	153.3466227054596	1.008512258529663
25	135.3866958618164	movie	1		268	23.0	2.5	/experiments/Knapen_AOT/AOT_stimuli/rescaled_final/0957_rv.mp4	0.0	154.35513496398926	2.492011308670044
25	135.75360369682312	pulse	1	t		23.0	2.5	/experiments/Knapen_AOT/AOT_stimuli/rescaled_final/0957_rv.mp4	0.0	154.72204279899597	
25	137.35400652885437	pulse	1	t		23.0	2.5	/experiments/Knapen_AOT/AOT_stimuli/rescaled_final/0957_rv.mp4	0.0	156.32244563102722	
25	137.87870717048645	fix_post	2		12	23.0	2.5	/experiments/Knapen_AOT/AOT_stimuli/rescaled_final/0957_rv.mp4	0.0	156.8471462726593	0.1000065803527832
26	137.97871375083923	fix_pre	0		118	24.0	2.5	/experiments/Knapen_AOT/AOT_stimuli/rescaled_final/0481_fw.mp4	0.0	156.94715285301208	0.9918334484100342
26	138.95432543754578	pulse	0	t		24.0	2.5	/experiments/Knapen_AOT/AOT_stimuli/rescaled_final/0481_fw.mp4	0.0	157.92276453971863	
26	138.97054719924927	movie	1		280	24.0	2.5	/experiments/Knapen_AOT/AOT_stimuli/rescaled_final/0481_fw.mp4	0.0	157.93898630142212	2.500369071960449
26	140.5543818473816	pulse	1	t		24.0	2.5	/experiments/Knapen_AOT/AOT_stimuli/rescaled_final/0481_fw.mp4	0.0	159.52282094955444	
26	141.47091627120972	fix_post	2		12	24.0	2.5	/experiments/Knapen_AOT/AOT_stimuli/rescaled_final/0481_fw.mp4	0.0	160.43935537338257	0.10014557838439941
27	141.57106184959412	fix_pre	0		120	25.0	2.5	/experiments/Knapen_AOT/AOT_stimuli/rescaled_final/0500_fw.mp4	0.0	160.53950095176697	1.0084118843078613
27	142.15458130836487	pulse	0	t		25.0	2.5	/experiments/Knapen_AOT/AOT_stimuli/rescaled_final/0500_fw.mp4	0.0	161.12302041053772	
27	142.57947373390198	movie	1		292	25.0	2.5	/experiments/Knapen_AOT/AOT_stimuli/rescaled_final/0500_fw.mp4	0.0	161.54791283607483	2.4919660091400146
27	143.75305557250977	pulse	1	t		25.0	2.5	/experiments/Knapen_AOT/AOT_stimuli/rescaled_final/0500_fw.mp4	0.0	162.72149467468262	
27	145.071439743042	fix_post	2		12	25.0	2.5	/experiments/Knapen_AOT/AOT_stimuli/rescaled_final/0500_fw.mp4	0.0	164.03987884521484	0.10003829002380371
28	145.1714780330658	fix_pre	0		120	26.0	2.5	blank	1.0	164.13991713523865	1.0001440048217773
28	145.35502696037292	pulse	0	t		26.0	2.5	blank	1.0	164.32346606254578	
28	146.17162203788757	movie	1		300	26.0	2.5	blank	1.0	165.14006114006042	2.500393867492676
28	146.95526719093323	pulse	1	t		26.0	2.5	blank	1.0	165.92370629310608	
28	148.5555579662323	pulse	1	t		26.0	2.5	blank	1.0	167.52399706840515	
28	148.67201590538025	fix_post	2		12	26.0	2.5	blank	1.0	167.6404550075531	0.09999585151672363
29	148.77201175689697	fix_pre	0		120	27.0	2.5	/experiments/Knapen_AOT/AOT_stimuli/rescaled_final/1884_fw.mp4	0.0	167.74045085906982	1.0084991455078125
29	149.78051090240479	movie	1		262	27.0	2.5	/experiments/Knapen_AOT/AOT_stimuli/rescaled_final/1884_fw.mp4	0.0	168.74895000457764	2.4920778274536133
29	150.15411734580994	pulse	1	t		27.0	2.5	/experiments/Knapen_AOT/AOT_stimuli/rescaled_final/1884_fw.mp4	0.0	169.1225564479828	
29	151.7536699771881	pulse	1	t		27.0	2.5	/experiments/Knapen_AOT/AOT_stimuli/rescaled_final/1884_fw.mp4	0.0	170.72210907936096	
29	152.2725887298584	fix_post	2		12	27.0	2.5	/experiments/Knapen_AOT/AOT_stimuli/rescaled_final/1884_fw.mp4	0.0	171.24102783203125	0.0999758243560791
30	152.37256455421448	fix_pre	0		119	28.0	2.5	/experiments/Knapen_AOT/AOT_stimuli/rescaled_final/0838_fw.mp4	0.0	171.34100365638733	1.0001287460327148
30	153.35626602172852	pulse	0	t		28.0	2.5	/experiments/Knapen_AOT/AOT_stimuli/rescaled_final/0838_fw.mp4	0.0	172.32470512390137	
30	153.3726933002472	movie	1		277	28.0	2.5	/experiments/Knapen_AOT/AOT_stimuli/rescaled_final/0838_fw.mp4	0.0	172.34113240242004	2.5003747940063477
30	154.95585823059082	pulse	1	t		28.0	2.5	/experiments/Knapen_AOT/AOT_stimuli/rescaled_final/0838_fw.mp4	0.0	173.92429733276367	
30	155.87306809425354	fix_post	2		12	28.0	2.5	/experiments/Knapen_AOT/AOT_stimuli/rescaled_final/0838_fw.mp4	0.0	174.8415071964264	0.10001516342163086
31	155.97308325767517	fix_pre	0		120	29.0	2.5	/experiments/Knapen_AOT/AOT_stimuli/rescaled_final/1086_rv.mp4	0.0	174.94152235984802	1.0085082054138184
31	156.55693793296814	pulse	0	t		29.0	2.5	/experiments/Knapen_AOT/AOT_stimuli/rescaled_final/1086_rv.mp4	0.0	175.525377035141	
31	156.981591463089	movie	1		283	29.0	2.5	/experiments/Knapen_AOT/AOT_stimuli/rescaled_final/1086_rv.mp4	0.0	175.95003056526184	2.4920153617858887
31	158.15540218353271	pulse	1	t		29.0	2.5	/experiments/Knapen_AOT/AOT_stimuli/rescaled_final/1086_rv.mp4	0.0	177.12384128570557	
31	159.47360682487488	fix_post	2		12	29.0	2.5	/experiments/Knapen_AOT/AOT_stimuli/rescaled_final/1086_rv.mp4	0.0	178.44204592704773	0.1000981330871582
32	159.57370495796204	fix_pre	0		120	30.0	2.5	/experiments/Knapen_AOT/AOT_stimuli/rescaled_final/0611_rv.mp4	0.0	178.5421440601349	1.008418083190918
32	159.75733876228333	pulse	0	t		30.0	2.5	/experiments/Knapen_AOT/AOT_stimuli/rescaled_final/0611_rv.mp4	0.0	178.72577786445618	
32	160.58212304115295	movie	1		268	30.0	2.5	/experiments/Knapen_AOT/AOT_stimuli/rescaled_final/0611_rv.mp4	0.0	179.5505621433258	2.492053747177124
32	161.3556308746338	pulse	1	t		30.0	2.5	/experiments/Knapen_AOT/AOT_stimuli/rescaled_final/0611_rv.mp4	0.0	180.32406997680664	
32	162.95558619499207	pulse	1	t		30.0	2.5	/experiments/Knapen_AOT/AOT_stimuli/rescaled_final/0611_rv.mp4	0.0	181.92402529716492	
32	163.07417678833008	fix_post	2		12	30.0	2.5	/experiments/Knapen_AOT/AOT_stimuli/rescaled_final/0611_rv.mp4	0.0	182.04261589050293	0.10014176368713379
33	163.1743185520172	fix_pre	0		120	31.0	2.5	/experiments/Knapen_AOT/AOT_stimuli/rescaled_final/0018_fw.mp4	0.0	182.14275765419006	1.008404016494751
33	164.18272256851196	movie	1		273	31.0	2.5	/experiments/Knapen_AOT/AOT_stimuli/rescaled_final/0018_fw.mp4	0.0	183.15116167068481	2.4919817447662354
33	164.55626821517944	pulse	1	t		31.0	2.5	/experiments/Knapen_AOT/AOT_stimuli/rescaled_final/0018_fw.mp4	0.0	183.5247073173523	
33	166.15603494644165	pulse	1	t		31.0	2.5	/experiments/Knapen_AOT/AOT_stimuli/rescaled_final/0018_fw.mp4	0.0	185.1244740486145	
33	166.6747043132782	fix_post	2		12	31.0	2.5	/experiments/Knapen_AOT/AOT_stimuli/rescaled_final/0018_fw.mp4	0.0	185.64314341545105	0.10000848770141602
34	166.77471280097961	fix_pre	0		119	32.0	2.5	/experiments/Knapen_AOT/AOT_stimuli/rescaled_final/0710_fw.mp4	0.0	185.74315190315247	1.0001881122589111
34	167.7584228515625	pulse	0	t		32.0	2.5	/experiments/Knapen_AOT/AOT_stimuli/rescaled_final/0710_fw.mp4	0.0	186.72686195373535	
34	167.77490091323853	movie	1		265	32.0	2.5	/experiments/Knapen_AOT/AOT_stimuli/rescaled_final/0710_fw.mp4	0.0	186.74334001541138	2.500364065170288
34	169.3589768409729	pulse	1	t		32.0	2.5	/experiments/Knapen_AOT/AOT_stimuli/rescaled_final/0710_fw.mp4	0.0	188.32741594314575	
34	170.2752649784088	fix_post	2		12	32.0	2.5	/experiments/Knapen_AOT/AOT_stimuli/rescaled_final/0710_fw.mp4	0.0	189.24370408058167	0.1000218391418457
35	170.37528681755066	fix_pre	0		120	33.0	2.5	/experiments/Knapen_AOT/AOT_stimuli/rescaled_final/1874_fw.mp4	0.0	189.3437259197235	1.0084967613220215
35	170.95893383026123	pulse	0	t		33.0	2.5	/experiments/Knapen_AOT/AOT_stimuli/rescaled_final/1874_fw.mp4	0.0	189.92737293243408	
35	171.38378357887268	movie	1		274	33.0	2.5	/experiments/Knapen_AOT/AOT_stimuli/rescaled_final/1874_fw.mp4	0.0	190.35222268104553	2.5003244876861572
35	172.5571026802063	pulse	1	t		33.0	2.5	/experiments/Knapen_AOT/AOT_stimuli/rescaled_final/1874_fw.mp4	0.0	191.52554178237915	
35	173.88410806655884	fix_post	2		11	33.0	2.5	/experiments/Knapen_AOT/AOT_stimuli/rescaled_final/1874_fw.mp4	0.0	192.8525471687317	0.09169220924377441
36	173.9758002758026	fix_pre	0		120	34.0	2.5	/experiments/Knapen_AOT/AOT_stimuli/rescaled_final/0016_rv.mp4	0.0	192.94423937797546	1.008599042892456
36	174.15959429740906	pulse	0	t		34.0	2.5	/experiments/Knapen_AOT/AOT_stimuli/rescaled_final/0016_rv.mp4	0.0	193.1280333995819	
36	174.98439931869507	movie	1		266	34.0	2.5	/experiments/Knapen_AOT/AOT_stimuli/rescaled_final/0016_rv.mp4	0.0	193.95283842086792	2.4919474124908447
36	175.7575454711914	pulse	1	t		34.0	2.5	/experiments/Knapen_AOT/AOT_stimuli/rescaled_final/0016_rv.mp4	0.0	194.72598457336426	
36	177.35969066619873	pulse	1	t		34.0	2.5	/experiments/Knapen_AOT/AOT_stimuli/rescaled_final/0016_rv.mp4	0.0	196.32812976837158	
36	177.4763467311859	fix_post	2		12	34.0	2.5	/experiments/Knapen_AOT/AOT_stimuli/rescaled_final/0016_rv.mp4	0.0	196.44478583335876	0.09998822212219238
37	177.5763349533081	fix_pre	0		120	35.0	2.5	blank	1.0	196.54477405548096	1.0001389980316162
37	178.57647395133972	movie	1		300	35.0	2.5	blank	1.0	197.54491305351257	2.500392436981201
37	178.95291876792908	pulse	1	t		35.0	2.5	blank	1.0	197.92135787010193	
37	180.55239176750183	pulse	1	t		35.0	2.5	blank	1.0	199.52083086967468	
37	181.07686638832092	fix_post	2		12	35.0	2.5	blank	1.0	200.04530549049377	0.10001802444458008
38	181.1768844127655	fix_pre	0		118	36.0	2.5	/experiments/Knapen_AOT/AOT_stimuli/rescaled_final/0632_rv.mp4	0.0	200.14532351493835	0.9917974472045898
38	182.1522524356842	pulse	0	t		36.0	2.5	/experiments/Knapen_AOT/AOT_stimuli/rescaled_final/0632_rv.mp4	0.0	201.12069153785706	
38	182.1686818599701	movie	1		285	36.0	2.5	/experiments/Knapen_AOT/AOT_stimuli/rescaled_final/0632_rv.mp4	0.0	201.13712096214294	2.5003833770751953
38	183.7524700164795	pulse	1	t		36.0	2.5	/experiments/Knapen_AOT/AOT_stimuli/rescaled_final/0632_rv.mp4	0.0	202.72090911865234	
38	184.6690652370453	fix_post	2		12	36.0	2.5	/experiments/Knapen_AOT/AOT_stimuli/rescaled_final/0632_rv.mp4	0.0	203.63750433921814	0.10000419616699219
39	184.76906943321228	fix_pre	0		120	37.0	2.5	/experiments/Knapen_AOT/AOT_stimuli/rescaled_final/1672_rv.mp4	0.0	203.73750853538513	1.0085573196411133
39	185.35265064239502	pulse	0	t		37.0	2.5	/experiments/Knapen_AOT/AOT_stimuli/rescaled_final/1672_rv.mp4	0.0	204.32108974456787	
39	185.7776267528534	movie	1		269	37.0	2.5	/experiments/Knapen_AOT/AOT_stimuli/rescaled_final/1672_rv.mp4	0.0	204.74606585502625	2.4920084476470947
39	186.95365381240845	pulse	1	t		37.0	2.5	/experiments/Knapen_AOT/AOT_stimuli/rescaled_final/1672_rv.mp4	0.0	205.9220929145813	
39	188.2696352005005	fix_post	2		12	37.0	2.5	/experiments/Knapen_AOT/AOT_stimuli/rescaled_final/1672_rv.mp4	0.0	207.23807430267334	0.10001468658447266
40	188.36964988708496	fix_pre	0		120	38.0	2.5	/experiments/Knapen_AOT/AOT_stimuli/rescaled_final/1647_rv.mp4	0.0	207.3380889892578	1.0084795951843262
40	188.55314373970032	pulse	0	t		38.0	2.5	/experiments/Knapen_AOT/AOT_stimuli/rescaled_final/1647_rv.mp4	0.0	207.52158284187317	
40	189.3781294822693	movie	1		266	38.0	2.5	/experiments/Knapen_AOT/AOT_stimuli/rescaled_final/1647_rv.mp4	0.0	208.34656858444214	2.492032527923584
40	190.15365982055664	pulse	1	t		38.0	2.5	/experiments/Knapen_AOT/AOT_stimuli/rescaled_final/1647_rv.mp4	0.0	209.1220989227295	
40	191.75368547439575	pulse	1	t		38.0	2.5	/experiments/Knapen_AOT/AOT_stimuli/rescaled_final/1647_rv.mp4	0.0	210.7221245765686	
40	191.87016201019287	fix_post	2		12	38.0	2.5	/experiments/Knapen_AOT/AOT_stimuli/rescaled_final/1647_rv.mp4	0.0	210.83860111236572	0.1000826358795166
41	191.9702446460724	fix_pre	0		120	39.0	2.5	/experiments/Knapen_AOT/AOT_stimuli/rescaled_final/0208_rv.mp4	0.0	210.93868374824524	1.0084278583526611
41	192.97867250442505	movie	1		282	39.0	2.5	/experiments/Knapen_AOT/AOT_stimuli/rescaled_final/0208_rv.mp4	0.0	211.9471116065979	2.4920084476470947
41	193.3534173965454	pulse	1	t		39.0	2.5	/experiments/Knapen_AOT/AOT_stimuli/rescaled_final/0208_rv.mp4	0.0	212.32185649871826	
41	194.9541425704956	pulse	1	t		39.0	2.5	/experiments/Knapen_AOT/AOT_stimuli/rescaled_final/0208_rv.mp4	0.0	213.92258167266846	
41	195.47068095207214	fix_post	2		12	39.0	2.5	/experiments/Knapen_AOT/AOT_stimuli/rescaled_final/0208_rv.mp4	0.0	214.439120054245	0.10002613067626953
42	195.5707070827484	fix_pre	0		119	40.0	2.5	/experiments/Knapen_AOT/AOT_stimuli/rescaled_final/0710_rv.mp4	0.0	214.53914618492126	1.0001475811004639
42	196.55450892448425	pulse	0	t		40.0	2.5	/experiments/Knapen_AOT/AOT_stimuli/rescaled_final/0710_rv.mp4	0.0	215.5229480266571	
42	196.57085466384888	movie	1		284	40.0	2.5	/experiments/Knapen_AOT/AOT_stimuli/rescaled_final/0710_rv.mp4	0.0	215.53929376602173	2.500375986099243
42	198.15304231643677	pulse	1	t		40.0	2.5	/experiments/Knapen_AOT/AOT_stimuli/rescaled_final/0710_rv.mp4	0.0	217.12148141860962	
42	199.07123064994812	fix_post	2		12	40.0	2.5	/experiments/Knapen_AOT/AOT_stimuli/rescaled_final/0710_rv.mp4	0.0	218.03966975212097	0.10001945495605469
43	199.17125010490417	fix_pre	0		120	41.0	2.5	/experiments/Knapen_AOT/AOT_stimuli/rescaled_final/1543_fw.mp4	0.0	218.13968920707703	1.0085041522979736
43	199.75517296791077	pulse	0	t		41.0	2.5	/experiments/Knapen_AOT/AOT_stimuli/rescaled_final/1543_fw.mp4	0.0	218.72361207008362	
43	200.17975425720215	movie	1		272	41.0	2.5	/experiments/Knapen_AOT/AOT_stimuli/rescaled_final/1543_fw.mp4	0.0	219.148193359375	2.4920244216918945
43	201.35387754440308	pulse	1	t		41.0	2.5	/experiments/Knapen_AOT/AOT_stimuli/rescaled_final/1543_fw.mp4	0.0	220.32231664657593	
43	202.67177867889404	fix_post	2		12	41.0	2.5	/experiments/Knapen_AOT/AOT_stimuli/rescaled_final/1543_fw.mp4	0.0	221.6402177810669	0.10001111030578613
44	202.77178978919983	fix_pre	0		120	42.0	2.5	blank	1.0	221.74022889137268	1.0001633167266846
44	202.95538473129272	pulse	0	t		42.0	2.5	blank	1.0	221.92382383346558	
44	203.7719531059265	movie	1		300	42.0	2.5	blank	1.0	222.74039220809937	2.500439167022705
44	204.5556344985962	pulse	1	t		42.0	2.5	blank	1.0	223.52407360076904	
44	206.15587306022644	pulse	1	t		42.0	2.5	blank	1.0	225.1243121623993	
44	206.27239227294922	fix_post	2		12	42.0	2.5	blank	1.0	225.24083137512207	0.09995555877685547
45	206.37234783172607	fix_pre	0		120	43.0	2.5	/experiments/Knapen_AOT/AOT_stimuli/rescaled_final/0334_rv.mp4	0.0	225.34078693389893	1.0084681510925293
45	207.3808159828186	movie	1		281	43.0	2.5	/experiments/Knapen_AOT/AOT_stimuli/rescaled_final/0334_rv.mp4	0.0	226.34925508499146	2.492056131362915
45	207.75442504882812	pulse	1	t		43.0	2.5	/experiments/Knapen_AOT/AOT_stimuli/rescaled_final/0334_rv.mp4	0.0	226.72286415100098	
45	209.35446047782898	pulse	1	t		43.0	2.5	/experiments/Knapen_AOT/AOT_stimuli/rescaled_final/0334_rv.mp4	0.0	228.32289958000183	
45	209.87287211418152	fix_post	2		12	43.0	2.5	/experiments/Knapen_AOT/AOT_stimuli/rescaled_final/0334_rv.mp4	0.0	228.84131121635437	0.10003495216369629
46	209.97290706634521	fix_pre	0		119	44.0	2.5	/experiments/Knapen_AOT/AOT_stimuli/rescaled_final/2126_fw.mp4	0.0	228.94134616851807	1.0001213550567627
46	210.9565989971161	pulse	0	t		44.0	2.5	/experiments/Knapen_AOT/AOT_stimuli/rescaled_final/2126_fw.mp4	0.0	229.92503809928894	
46	210.97302842140198	movie	1		277	44.0	2.5	/experiments/Knapen_AOT/AOT_stimuli/rescaled_final/2126_fw.mp4	0.0	229.94146752357483	2.5003697872161865
46	212.55640268325806	pulse	1	t		44.0	2.5	/experiments/Knapen_AOT/AOT_stimuli/rescaled_final/2126_fw.mp4	0.0	231.5248417854309	
46	213.47339820861816	fix_post	2		12	44.0	2.5	/experiments/Knapen_AOT/AOT_stimuli/rescaled_final/2126_fw.mp4	0.0	232.44183731079102	0.10006570816040039
47	213.57346391677856	fix_pre	0		120	45.0	2.5	/experiments/Knapen_AOT/AOT_stimuli/rescaled_final/0399_fw.mp4	0.0	232.54190301895142	1.0084354877471924
47	214.15723061561584	pulse	0	t		45.0	2.5	/experiments/Knapen_AOT/AOT_stimuli/rescaled_final/0399_fw.mp4	0.0	233.1256697177887	
47	214.58189940452576	movie	1		272	45.0	2.5	/experiments/Knapen_AOT/AOT_stimuli/rescaled_final/0399_fw.mp4	0.0	233.5503385066986	2.492081642150879
47	215.75557446479797	pulse	1	t		45.0	2.5	/experiments/Knapen_AOT/AOT_stimuli/rescaled_final/0399_fw.mp4	0.0	234.72401356697083	
47	217.07398104667664	fix_post	2		12	45.0	2.5	/experiments/Knapen_AOT/AOT_stimuli/rescaled_final/0399_fw.mp4	0.0	236.0424201488495	0.1000359058380127
48	217.17401695251465	fix_pre	0		120	46.0	2.5	/experiments/Knapen_AOT/AOT_stimuli/rescaled_final/0086_rv.mp4	0.0	236.1424560546875	1.0084869861602783
48	217.3575222492218	pulse	0	t		46.0	2.5	/experiments/Knapen_AOT/AOT_stimuli/rescaled_final/0086_rv.mp4	0.0	236.32596135139465	
48	218.18250393867493	movie	1		268	46.0	2.5	/experiments/Knapen_AOT/AOT_stimuli/rescaled_final/0086_rv.mp4	0.0	237.15094304084778	2.491992235183716
48	218.9558629989624	pulse	1	t		46.0	2.5	/experiments/Knapen_AOT/AOT_stimuli/rescaled_final/0086_rv.mp4	0.0	237.92430210113525	
48	220.60867428779602	pulse	1	t		46.0	2.5	/experiments/Knapen_AOT/AOT_stimuli/rescaled_final/0086_rv.mp4	0.0	239.57711338996887	
48	220.67449617385864	fix_post	2		12	46.0	2.5	/experiments/Knapen_AOT/AOT_stimuli/rescaled_final/0086_rv.mp4	0.0	239.6429352760315	0.0999901294708252
49	220.77448630332947	fix_pre	0		120	47.0	2.5	/experiments/Knapen_AOT/AOT_stimuli/rescaled_final/1881_rv.mp4	0.0	239.74292540550232	1.0085246562957764
49	221.78301095962524	movie	1		275	47.0	2.5	/experiments/Knapen_AOT/AOT_stimuli/rescaled_final/1881_rv.mp4	0.0	240.7514500617981	2.492033004760742
49	222.15640544891357	pulse	1	t		47.0	2.5	/experiments/Knapen_AOT/AOT_stimuli/rescaled_final/1881_rv.mp4	0.0	241.12484455108643	
49	223.75655937194824	pulse	1	t		47.0	2.5	/experiments/Knapen_AOT/AOT_stimuli/rescaled_final/1881_rv.mp4	0.0	242.7249984741211	
49	224.275043964386	fix_post	2		12	47.0	2.5	/experiments/Knapen_AOT/AOT_stimuli/rescaled_final/1881_rv.mp4	0.0	243.24348306655884	0.09999346733093262
50	224.37503743171692	fix_pre	0		119	48.0	2.5	blank	1.0	243.34347653388977	0.9917900562286377
50	225.3587245941162	pulse	0	t		48.0	2.5	blank	1.0	244.32716369628906	
50	225.36682748794556	movie	1		301	48.0	2.5	blank	1.0	244.3352665901184	2.508721113204956
50	226.95911383628845	pulse	1	t		48.0	2.5	blank	1.0	245.9275529384613	
50	227.8755486011505	fix_post	2		12	48.0	2.5	blank	1.0	246.84398770332336	0.10004115104675293
51	227.97558975219727	fix_pre	0		120	49.0	2.5	/experiments/Knapen_AOT/AOT_stimuli/rescaled_final/1325_rv.mp4	0.0	246.94402885437012	1.0084953308105469
51	228.55929923057556	pulse	0	t		49.0	2.5	/experiments/Knapen_AOT/AOT_stimuli/rescaled_final/1325_rv.mp4	0.0	247.5277383327484	
51	228.9840850830078	movie	1		279	49.0	2.5	/experiments/Knapen_AOT/AOT_stimuli/rescaled_final/1325_rv.mp4	0.0	247.95252418518066	2.4920008182525635
51	230.1575436592102	pulse	1	t		49.0	2.5	/experiments/Knapen_AOT/AOT_stimuli/rescaled_final/1325_rv.mp4	0.0	249.12598276138306	
51	231.47608590126038	fix_post	2		12	49.0	2.5	/experiments/Knapen_AOT/AOT_stimuli/rescaled_final/1325_rv.mp4	0.0	250.44452500343323	0.10003304481506348
52	231.57611894607544	fix_pre	0		120	50.0	2.5	/experiments/Knapen_AOT/AOT_stimuli/rescaled_final/1333_rv.mp4	0.0	250.5445580482483	1.008500337600708
52	231.7598156929016	pulse	0	t		50.0	2.5	/experiments/Knapen_AOT/AOT_stimuli/rescaled_final/1333_rv.mp4	0.0	250.72825479507446	
52	232.58461928367615	movie	1		264	50.0	2.5	/experiments/Knapen_AOT/AOT_stimuli/rescaled_final/1333_rv.mp4	0.0	251.553058385849	2.4920241832733154
52	233.35790276527405	pulse	1	t		50.0	2.5	/experiments/Knapen_AOT/AOT_stimuli/rescaled_final/1333_rv.mp4	0.0	252.3263418674469	
52	234.95850372314453	pulse	1	t		50.0	2.5	/experiments/Knapen_AOT/AOT_stimuli/rescaled_final/1333_rv.mp4	0.0	253.92694282531738	
52	235.07664346694946	fix_post	2		12	50.0	2.5	/experiments/Knapen_AOT/AOT_stimuli/rescaled_final/1333_rv.mp4	0.0	254.04508256912231	0.10001873970031738
53	235.17666220664978	fix_pre	0		120	51.0	2.5	/experiments/Knapen_AOT/AOT_stimuli/rescaled_final/0785_fw.mp4	0.0	254.14510130882263	1.0084750652313232
53	236.1851372718811	movie	1		284	51.0	2.5	/experiments/Knapen_AOT/AOT_stimuli/rescaled_final/0785_fw.mp4	0.0	255.15357637405396	2.4920461177825928
53	236.5601463317871	pulse	1	t		51.0	2.5	/experiments/Knapen_AOT/AOT_stimuli/rescaled_final/0785_fw.mp4	0.0	255.52858543395996	
53	238.1526837348938	pulse	1	t		51.0	2.5	/experiments/Knapen_AOT/AOT_stimuli/rescaled_final/0785_fw.mp4	0.0	257.12112283706665	
53	238.6771833896637	fix_post	2		12	51.0	2.5	/experiments/Knapen_AOT/AOT_stimuli/rescaled_final/0785_fw.mp4	0.0	257.64562249183655	0.10001707077026367
54	238.77720046043396	fix_pre	0		118	52.0	2.5	/experiments/Knapen_AOT/AOT_stimuli/rescaled_final/0265_fw.mp4	0.0	257.7456395626068	1.0002272129058838
54	239.75276160240173	pulse	0	t		52.0	2.5	/experiments/Knapen_AOT/AOT_stimuli/rescaled_final/0265_fw.mp4	0.0	258.7212007045746	
54	239.77742767333984	movie	1		276	52.0	2.5	/experiments/Knapen_AOT/AOT_stimuli/rescaled_final/0265_fw.mp4	0.0	258.7458667755127	2.4920167922973633
54	241.35281538963318	pulse	1	t		52.0	2.5	/experiments/Knapen_AOT/AOT_stimuli/rescaled_final/0265_fw.mp4	0.0	260.32125449180603	
54	242.2694444656372	fix_post	2		12	52.0	2.5	/experiments/Knapen_AOT/AOT_stimuli/rescaled_final/0265_fw.mp4	0.0	261.23788356781006	0.09997296333312988
55	242.36941742897034	fix_pre	0		120	53.0	2.5	/experiments/Knapen_AOT/AOT_stimuli/rescaled_final/1560_fw.mp4	0.0	261.3378565311432	1.008603811264038
55	242.95303654670715	pulse	0	t		53.0	2.5	/experiments/Knapen_AOT/AOT_stimuli/rescaled_final/1560_fw.mp4	0.0	261.92147564888	
55	243.37802124023438	movie	1		281	53.0	2.5	/experiments/Knapen_AOT/AOT_stimuli/rescaled_final/1560_fw.mp4	0.0	262.3464603424072	2.4919381141662598
55	244.5532579421997	pulse	1	t		53.0	2.5	/experiments/Knapen_AOT/AOT_stimuli/rescaled_final/1560_fw.mp4	0.0	263.52169704437256	
55	245.86995935440063	fix_post	2		12	53.0	2.5	/experiments/Knapen_AOT/AOT_stimuli/rescaled_final/1560_fw.mp4	0.0	264.8383984565735	0.10008430480957031
56	245.9700436592102	fix_pre	0		120	54.0	2.5	/experiments/Knapen_AOT/AOT_stimuli/rescaled_final/1078_rv.mp4	0.0	264.93848276138306	1.0084173679351807
56	246.15356492996216	pulse	0	t		54.0	2.5	/experiments/Knapen_AOT/AOT_stimuli/rescaled_final/1078_rv.mp4	0.0	265.122004032135	
56	246.97846102714539	movie	1		278	54.0	2.5	/experiments/Knapen_AOT/AOT_stimuli/rescaled_final/1078_rv.mp4	0.0	265.94690012931824	2.492016077041626
56	247.7537636756897	pulse	1	t		54.0	2.5	/experiments/Knapen_AOT/AOT_stimuli/rescaled_final/1078_rv.mp4	0.0	266.72220277786255	
56	249.35403203964233	pulse	1	t		54.0	2.5	/experiments/Knapen_AOT/AOT_stimuli/rescaled_final/1078_rv.mp4	0.0	268.3224711418152	
56	249.470477104187	fix_post	2		12	54.0	2.5	/experiments/Knapen_AOT/AOT_stimuli/rescaled_final/1078_rv.mp4	0.0	268.43891620635986	0.10003471374511719
57	249.57051181793213	fix_pre	0		120	55.0	2.5	/experiments/Knapen_AOT/AOT_stimuli/rescaled_final/0222_rv.mp4	0.0	268.538950920105	1.0084691047668457
57	250.57898092269897	movie	1		273	55.0	2.5	/experiments/Knapen_AOT/AOT_stimuli/rescaled_final/0222_rv.mp4	0.0	269.5474200248718	2.4920079708099365
57	250.95278120040894	pulse	1	t		55.0	2.5	/experiments/Knapen_AOT/AOT_stimuli/rescaled_final/0222_rv.mp4	0.0	269.9212203025818	
57	252.55450868606567	pulse	1	t		55.0	2.5	/experiments/Knapen_AOT/AOT_stimuli/rescaled_final/0222_rv.mp4	0.0	271.5229477882385	
57	253.0709888935089	fix_post	2		12	55.0	2.5	/experiments/Knapen_AOT/AOT_stimuli/rescaled_final/0222_rv.mp4	0.0	272.03942799568176	0.10002279281616211
58	253.17101168632507	fix_pre	0		119	56.0	2.5	blank	1.0	272.1394507884979	0.9918167591094971
58	254.15485954284668	pulse	0	t		56.0	2.5	blank	1.0	273.12329864501953	
58	254.16282844543457	movie	1		301	56.0	2.5	blank	1.0	273.1312675476074	2.508772373199463
58	255.75499534606934	pulse	1	t		56.0	2.5	blank	1.0	274.7234344482422	
58	256.67160081863403	fix_post	2		12	56.0	2.5	blank	1.0	275.6400399208069	0.09998059272766113
59	256.7715814113617	fix_pre	0		120	57.0	2.5	/experiments/Knapen_AOT/AOT_stimuli/rescaled_final/1133_fw.mp4	0.0	275.74002051353455	1.0084891319274902
59	257.3552014827728	pulse	0	t		57.0	2.5	/experiments/Knapen_AOT/AOT_stimuli/rescaled_final/1133_fw.mp4	0.0	276.3236405849457	
59	257.7800705432892	movie	1		273	57.0	2.5	/experiments/Knapen_AOT/AOT_stimuli/rescaled_final/1133_fw.mp4	0.0	276.74850964546204	2.492013454437256
59	258.9539005756378	pulse	1	t		57.0	2.5	/experiments/Knapen_AOT/AOT_stimuli/rescaled_final/1133_fw.mp4	0.0	277.92233967781067	
59	260.27208399772644	fix_post	2		12	57.0	2.5	/experiments/Knapen_AOT/AOT_stimuli/rescaled_final/1133_fw.mp4	0.0	279.2405230998993	0.10004997253417969
60	260.3721339702606	fix_pre	0		120	58.0	2.5	/experiments/Knapen_AOT/AOT_stimuli/rescaled_final/0722_rv.mp4	0.0	279.3405730724335	1.0085093975067139
60	260.55570816993713	pulse	0	t		58.0	2.5	/experiments/Knapen_AOT/AOT_stimuli/rescaled_final/0722_rv.mp4	0.0	279.52414727211	
60	261.38064336776733	movie	1		281	58.0	2.5	/experiments/Knapen_AOT/AOT_stimuli/rescaled_final/0722_rv.mp4	0.0	280.3490824699402	2.492034673690796
60	262.1538224220276	pulse	1	t		58.0	2.5	/experiments/Knapen_AOT/AOT_stimuli/rescaled_final/0722_rv.mp4	0.0	281.12226152420044	
60	263.75417280197144	pulse	1	t		58.0	2.5	/experiments/Knapen_AOT/AOT_stimuli/rescaled_final/0722_rv.mp4	0.0	282.7226119041443	
60	263.87267804145813	fix_post	2		12	58.0	2.5	/experiments/Knapen_AOT/AOT_stimuli/rescaled_final/0722_rv.mp4	0.0	282.841117143631	0.0999758243560791
61	263.9726538658142	fix_pre	0		120	59.0	2.5	/experiments/Knapen_AOT/AOT_stimuli/rescaled_final/2062_rv.mp4	0.0	282.94109296798706	1.0085465908050537
61	264.98120045661926	movie	1		269	59.0	2.5	/experiments/Knapen_AOT/AOT_stimuli/rescaled_final/2062_rv.mp4	0.0	283.9496395587921	2.4919776916503906
61	265.356614112854	pulse	1	t		59.0	2.5	/experiments/Knapen_AOT/AOT_stimuli/rescaled_final/2062_rv.mp4	0.0	284.32505321502686	
61	266.95430874824524	pulse	1	t		59.0	2.5	/experiments/Knapen_AOT/AOT_stimuli/rescaled_final/2062_rv.mp4	0.0	285.9227478504181	
61	267.47317814826965	fix_post	2		12	59.0	2.5	/experiments/Knapen_AOT/AOT_stimuli/rescaled_final/2062_rv.mp4	0.0	286.4416172504425	0.10001420974731445
62	267.57319235801697	fix_pre	0		119	60.0	2.5	/experiments/Knapen_AOT/AOT_stimuli/rescaled_final/1827_fw.mp4	0.0	286.5416314601898	1.0001800060272217
62	268.55691289901733	pulse	0	t		60.0	2.5	/experiments/Knapen_AOT/AOT_stimuli/rescaled_final/1827_fw.mp4	0.0	287.5253520011902	
62	268.5733723640442	movie	1		280	60.0	2.5	/experiments/Knapen_AOT/AOT_stimuli/rescaled_final/1827_fw.mp4	0.0	287.54181146621704	2.5003466606140137
62	270.15619707107544	pulse	1	t		60.0	2.5	/experiments/Knapen_AOT/AOT_stimuli/rescaled_final/1827_fw.mp4	0.0	289.1246361732483	
62	271.0737190246582	fix_post	2		12	60.0	2.5	/experiments/Knapen_AOT/AOT_stimuli/rescaled_final/1827_fw.mp4	0.0	290.04215812683105	0.1000206470489502
63	271.17373967170715	fix_pre	0		120	61.0	2.5	/experiments/Knapen_AOT/AOT_stimuli/rescaled_final/2095_rv.mp4	0.0	290.14217877388	1.0085525512695312
63	271.7573266029358	pulse	0	t		61.0	2.5	/experiments/Knapen_AOT/AOT_stimuli/rescaled_final/2095_rv.mp4	0.0	290.72576570510864	
63	272.1822922229767	movie	1		282	61.0	2.5	/experiments/Knapen_AOT/AOT_stimuli/rescaled_final/2095_rv.mp4	0.0	291.15073132514954	2.491973638534546
63	273.3557929992676	pulse	1	t		61.0	2.5	/experiments/Knapen_AOT/AOT_stimuli/rescaled_final/2095_rv.mp4	0.0	292.32423210144043	
63	274.67426586151123	fix_post	2		12	61.0	2.5	/experiments/Knapen_AOT/AOT_stimuli/rescaled_final/2095_rv.mp4	0.0	293.6427049636841	0.1000063419342041
64	274.77427220344543	fix_pre	0		120	62.0	2.5	/experiments/Knapen_AOT/AOT_stimuli/rescaled_final/1200_rv.mp4	0.0	293.7427113056183	1.0085394382476807
64	274.95780777931213	pulse	0	t		62.0	2.5	/experiments/Knapen_AOT/AOT_stimuli/rescaled_final/1200_rv.mp4	0.0	293.926246881485	
64	275.7828116416931	movie	1		290	62.0	2.5	/experiments/Knapen_AOT/AOT_stimuli/rescaled_final/1200_rv.mp4	0.0	294.75125074386597	2.4919841289520264
64	276.5561726093292	pulse	1	t		62.0	2.5	/experiments/Knapen_AOT/AOT_stimuli/rescaled_final/1200_rv.mp4	0.0	295.5246117115021	
64	278.15611696243286	pulse	1	t		62.0	2.5	/experiments/Knapen_AOT/AOT_stimuli/rescaled_final/1200_rv.mp4	0.0	297.1245560646057	
64	278.27479577064514	fix_post	2		12	62.0	2.5	/experiments/Knapen_AOT/AOT_stimuli/rescaled_final/1200_rv.mp4	0.0	297.243234872818	0.10002779960632324
65	278.37482357025146	fix_pre	0		120	63.0	2.5	blank	1.0	297.3432626724243	1.0001513957977295
65	279.3749749660492	movie	1		300	63.0	2.5	blank	1.0	298.34341406822205	2.5003514289855957
65	279.75855827331543	pulse	1	t		63.0	2.5	blank	1.0	298.7269973754883	
65	281.35882091522217	pulse	1	t		63.0	2.5	blank	1.0	300.327260017395	
65	281.8753263950348	fix_post	2		12	63.0	2.5	blank	1.0	300.84376549720764	0.10002779960632324
66	281.9753541946411	fix_pre	0		119	64.0	2.5	/experiments/Knapen_AOT/AOT_stimuli/rescaled_final/0409_fw.mp4	0.0	300.94379329681396	1.0001473426818848
66	282.9590423107147	pulse	0	t		64.0	2.5	/experiments/Knapen_AOT/AOT_stimuli/rescaled_final/0409_fw.mp4	0.0	301.9274814128876	
66	282.975501537323	movie	1		279	64.0	2.5	/experiments/Knapen_AOT/AOT_stimuli/rescaled_final/0409_fw.mp4	0.0	301.94394063949585	2.5003955364227295
66	284.55742859840393	pulse	1	t		64.0	2.5	/experiments/Knapen_AOT/AOT_stimuli/rescaled_final/0409_fw.mp4	0.0	303.5258677005768	
66	285.4758970737457	fix_post	2		12	64.0	2.5	/experiments/Knapen_AOT/AOT_stimuli/rescaled_final/0409_fw.mp4	0.0	304.4443361759186	0.10001754760742188
67	285.57591462135315	fix_pre	0		120	65.0	2.5	/experiments/Knapen_AOT/AOT_stimuli/rescaled_final/0505_fw.mp4	0.0	304.544353723526	1.0084614753723145
67	286.1596488952637	pulse	0	t		65.0	2.5	/experiments/Knapen_AOT/AOT_stimuli/rescaled_final/0505_fw.mp4	0.0	305.1280879974365	
67	286.58437609672546	movie	1		273	65.0	2.5	/experiments/Knapen_AOT/AOT_stimuli/rescaled_final/0505_fw.mp4	0.0	305.5528151988983	2.4920382499694824
67	287.75753140449524	pulse	1	t		65.0	2.5	/experiments/Knapen_AOT/AOT_stimuli/rescaled_final/0505_fw.mp4	0.0	306.7259705066681	
67	289.07641434669495	fix_post	2		12	65.0	2.5	/experiments/Knapen_AOT/AOT_stimuli/rescaled_final/0505_fw.mp4	0.0	308.0448534488678	0.10002422332763672
68	289.1764385700226	fix_pre	0		120	66.0	2.5	/experiments/Knapen_AOT/AOT_stimuli/rescaled_final/1648_fw.mp4	0.0	308.14487767219543	1.0085432529449463
68	289.3599953651428	pulse	0	t		66.0	2.5	/experiments/Knapen_AOT/AOT_stimuli/rescaled_final/1648_fw.mp4	0.0	308.3284344673157	
68	290.18498182296753	movie	1		291	66.0	2.5	/experiments/Knapen_AOT/AOT_stimuli/rescaled_final/1648_fw.mp4	0.0	309.1534209251404	2.491997241973877
68	290.9581468105316	pulse	1	t		66.0	2.5	/experiments/Knapen_AOT/AOT_stimuli/rescaled_final/1648_fw.mp4	0.0	309.92658591270447	
68	292.5586531162262	pulse	1	t		66.0	2.5	/experiments/Knapen_AOT/AOT_stimuli/rescaled_final/1648_fw.mp4	0.0	311.52709221839905	
68	292.6769790649414	fix_post	2		12	66.0	2.5	/experiments/Knapen_AOT/AOT_stimuli/rescaled_final/1648_fw.mp4	0.0	311.64541816711426	0.10001182556152344
69	292.77699089050293	fix_pre	0		120	67.0	2.5	/experiments/Knapen_AOT/AOT_stimuli/rescaled_final/0612_rv.mp4	0.0	311.7454299926758	1.0084774494171143
69	293.78546833992004	movie	1		272	67.0	2.5	/experiments/Knapen_AOT/AOT_stimuli/rescaled_final/0612_rv.mp4	0.0	312.7539074420929	2.492047071456909
69	294.1586871147156	pulse	1	t		67.0	2.5	/experiments/Knapen_AOT/AOT_stimuli/rescaled_final/0612_rv.mp4	0.0	313.1271262168884	
69	295.75878381729126	pulse	1	t		67.0	2.5	/experiments/Knapen_AOT/AOT_stimuli/rescaled_final/0612_rv.mp4	0.0	314.7272229194641	
69	296.27751541137695	fix_post	2		12	67.0	2.5	/experiments/Knapen_AOT/AOT_stimuli/rescaled_final/0612_rv.mp4	0.0	315.2459545135498	0.10001420974731445
70	296.37752962112427	fix_pre	0		118	68.0	2.5	blank	1.0	315.3459687232971	0.9834864139556885
70	297.35303115844727	pulse	0	t		68.0	2.5	blank	1.0	316.3214702606201	
70	297.36101603507996	movie	1		301	68.0	2.5	blank	1.0	316.3294551372528	2.50873064994812
70	298.95316219329834	pulse	1	t		68.0	2.5	blank	1.0	317.9216012954712	
70	299.8697466850281	fix_post	2		12	68.0	2.5	blank	1.0	318.8381857872009	0.09999299049377441
71	299.96973967552185	fix_pre	0		120	69.0	2.5	/experiments/Knapen_AOT/AOT_stimuli/rescaled_final/0950_fw.mp4	0.0	318.9381787776947	1.0085270404815674
71	300.55339765548706	pulse	0	t		69.0	2.5	/experiments/Knapen_AOT/AOT_stimuli/rescaled_final/0950_fw.mp4	0.0	319.5218367576599	
71	300.9782667160034	movie	1		273	69.0	2.5	/experiments/Knapen_AOT/AOT_stimuli/rescaled_final/0950_fw.mp4	0.0	319.94670581817627	2.492016315460205
71	302.1536445617676	pulse	1	t		69.0	2.5	/experiments/Knapen_AOT/AOT_stimuli/rescaled_final/0950_fw.mp4	0.0	321.12208366394043	
71	303.4702830314636	fix_post	2		12	69.0	2.5	/experiments/Knapen_AOT/AOT_stimuli/rescaled_final/0950_fw.mp4	0.0	322.4387221336365	0.10001254081726074
72	303.5702955722809	fix_pre	0		120	70.0	2.5	/experiments/Knapen_AOT/AOT_stimuli/rescaled_final/0334_rv.mp4	0.0	322.53873467445374	1.00850248336792
72	303.7539246082306	pulse	0	t		70.0	2.5	/experiments/Knapen_AOT/AOT_stimuli/rescaled_final/0334_rv.mp4	0.0	322.72236371040344	
72	304.5787980556488	movie	1		280	70.0	2.5	/experiments/Knapen_AOT/AOT_stimuli/rescaled_final/0334_rv.mp4	0.0	323.54723715782166	2.4920196533203125
72	305.35409903526306	pulse	1	t		70.0	2.5	/experiments/Knapen_AOT/AOT_stimuli/rescaled_final/0334_rv.mp4	0.0	324.3225381374359	
72	306.95432448387146	pulse	1	t		70.0	2.5	/experiments/Knapen_AOT/AOT_stimuli/rescaled_final/0334_rv.mp4	0.0	325.9227635860443	
72	307.0708177089691	fix_post	2		12	70.0	2.5	/experiments/Knapen_AOT/AOT_stimuli/rescaled_final/0334_rv.mp4	0.0	326.03925681114197	0.09998846054077148
73	307.1708061695099	fix_pre	0		120	71.0	2.5	/experiments/Knapen_AOT/AOT_stimuli/rescaled_final/1078_fw.mp4	0.0	326.13924527168274	1.0085968971252441
73	308.17940306663513	movie	1		283	71.0	2.5	/experiments/Knapen_AOT/AOT_stimuli/rescaled_final/1078_fw.mp4	0.0	327.147842168808	2.491985321044922
73	308.55460810661316	pulse	1	t		71.0	2.5	/experiments/Knapen_AOT/AOT_stimuli/rescaled_final/1078_fw.mp4	0.0	327.523047208786	
73	310.15507316589355	pulse	1	t		71.0	2.5	/experiments/Knapen_AOT/AOT_stimuli/rescaled_final/1078_fw.mp4	0.0	329.1235122680664	
73	310.67138838768005	fix_post	2		12	71.0	2.5	/experiments/Knapen_AOT/AOT_stimuli/rescaled_final/1078_fw.mp4	0.0	329.6398274898529	0.09996628761291504
74	310.77135467529297	fix_pre	0		119	72.0	2.5	/experiments/Knapen_AOT/AOT_stimuli/rescaled_final/1122_fw.mp4	0.0	329.7397937774658	1.000175952911377
74	311.75514960289	pulse	0	t		72.0	2.5	/experiments/Knapen_AOT/AOT_stimuli/rescaled_final/1122_fw.mp4	0.0	330.72358870506287	
74	311.77153062820435	movie	1		278	72.0	2.5	/experiments/Knapen_AOT/AOT_stimuli/rescaled_final/1122_fw.mp4	0.0	330.7399697303772	2.5003559589385986
74	313.3537302017212	pulse	1	t		72.0	2.5	/experiments/Knapen_AOT/AOT_stimuli/rescaled_final/1122_fw.mp4	0.0	332.32216930389404	
74	314.27188658714294	fix_post	2		12	72.0	2.5	/experiments/Knapen_AOT/AOT_stimuli/rescaled_final/1122_fw.mp4	0.0	333.2403256893158	0.10002970695495605
75	314.3719162940979	fix_pre	0		120	73.0	2.5	/experiments/Knapen_AOT/AOT_stimuli/rescaled_final/2159_rv.mp4	0.0	333.34035539627075	1.0085928440093994
75	314.9556119441986	pulse	0	t		73.0	2.5	/experiments/Knapen_AOT/AOT_stimuli/rescaled_final/2159_rv.mp4	0.0	333.92405104637146	
75	315.3805091381073	movie	1		277	73.0	2.5	/experiments/Knapen_AOT/AOT_stimuli/rescaled_final/2159_rv.mp4	0.0	334.34894824028015	2.491940498352051
75	316.5540087223053	pulse	1	t		73.0	2.5	/experiments/Knapen_AOT/AOT_stimuli/rescaled_final/2159_rv.mp4	0.0	335.52244782447815	
75	317.87244963645935	fix_post	2		12	73.0	2.5	/experiments/Knapen_AOT/AOT_stimuli/rescaled_final/2159_rv.mp4	0.0	336.8408887386322	0.10000181198120117
76	317.97245144844055	fix_pre	0		120	74.0	2.5	/experiments/Knapen_AOT/AOT_stimuli/rescaled_final/0711_fw.mp4	0.0	336.9408905506134	1.0084757804870605
76	318.15609335899353	pulse	0	t		74.0	2.5	/experiments/Knapen_AOT/AOT_stimuli/rescaled_final/0711_fw.mp4	0.0	337.1245324611664	
76	318.9809272289276	movie	1		281	74.0	2.5	/experiments/Knapen_AOT/AOT_stimuli/rescaled_final/0711_fw.mp4	0.0	337.94936633110046	2.492055654525757
76	319.7540521621704	pulse	1	t		74.0	2.5	/experiments/Knapen_AOT/AOT_stimuli/rescaled_final/0711_fw.mp4	0.0	338.72249126434326	
76	321.3543999195099	pulse	1	t		74.0	2.5	/experiments/Knapen_AOT/AOT_stimuli/rescaled_final/0711_fw.mp4	0.0	340.32283902168274	
76	321.47298288345337	fix_post	2		12	74.0	2.5	/experiments/Knapen_AOT/AOT_stimuli/rescaled_final/0711_fw.mp4	0.0	340.4414219856262	0.10000491142272949
77	321.5729877948761	fix_pre	0		120	75.0	2.5	/experiments/Knapen_AOT/AOT_stimuli/rescaled_final/1065_rv.mp4	0.0	340.54142689704895	1.0085327625274658
77	322.58152055740356	movie	1		274	75.0	2.5	/experiments/Knapen_AOT/AOT_stimuli/rescaled_final/1065_rv.mp4	0.0	341.5499596595764	2.492157220840454
77	322.95593428611755	pulse	1	t		75.0	2.5	/experiments/Knapen_AOT/AOT_stimuli/rescaled_final/1065_rv.mp4	0.0	341.9243733882904	
77	324.55546712875366	pulse	1	t		75.0	2.5	/experiments/Knapen_AOT/AOT_stimuli/rescaled_final/1065_rv.mp4	0.0	343.5239062309265	
77	325.073677778244	fix_post	2		12	75.0	2.5	/experiments/Knapen_AOT/AOT_stimuli/rescaled_final/1065_rv.mp4	0.0	344.04211688041687	0.09983515739440918
78	325.1735129356384	fix_pre	0		119	76.0	2.5	blank	1.0	344.1419520378113	0.9917726516723633
78	326.15717697143555	pulse	0	t		76.0	2.5	blank	1.0	345.1256160736084	
78	326.1652855873108	movie	1		301	76.0	2.5	blank	1.0	345.13372468948364	2.508765935897827
78	327.75749135017395	pulse	1	t		76.0	2.5	blank	1.0	346.7259304523468	
78	328.6740515232086	fix_post	2		12	76.0	2.5	blank	1.0	347.64249062538147	0.100006103515625
79	328.77405762672424	fix_pre	0		120	77.0	2.5	/experiments/Knapen_AOT/AOT_stimuli/rescaled_final/2056_fw.mp4	0.0	347.7424967288971	1.008455514907837
79	329.35766434669495	pulse	0	t		77.0	2.5	/experiments/Knapen_AOT/AOT_stimuli/rescaled_final/2056_fw.mp4	0.0	348.3261034488678	
79	329.7825131416321	movie	1		277	77.0	2.5	/experiments/Knapen_AOT/AOT_stimuli/rescaled_final/2056_fw.mp4	0.0	348.75095224380493	2.4921207427978516
79	330.9564561843872	pulse	1	t		77.0	2.5	/experiments/Knapen_AOT/AOT_stimuli/rescaled_final/2056_fw.mp4	0.0	349.92489528656006	
79	332.27463388442993	fix_post	2		12	77.0	2.5	/experiments/Knapen_AOT/AOT_stimuli/rescaled_final/2056_fw.mp4	0.0	351.2430729866028	0.10003852844238281
80	332.3746724128723	fix_pre	0		120	78.0	2.5	/experiments/Knapen_AOT/AOT_stimuli/rescaled_final/1769_rv.mp4	0.0	351.34311151504517	1.0084340572357178
80	332.55826449394226	pulse	0	t		78.0	2.5	/experiments/Knapen_AOT/AOT_stimuli/rescaled_final/1769_rv.mp4	0.0	351.5267035961151	
80	333.38310647010803	movie	1		288	78.0	2.5	/experiments/Knapen_AOT/AOT_stimuli/rescaled_final/1769_rv.mp4	0.0	352.3515455722809	2.4920361042022705
80	334.15657925605774	pulse	1	t		78.0	2.5	/experiments/Knapen_AOT/AOT_stimuli/rescaled_final/1769_rv.mp4	0.0	353.1250183582306	
80	335.75690960884094	pulse	1	t		78.0	2.5	/experiments/Knapen_AOT/AOT_stimuli/rescaled_final/1769_rv.mp4	0.0	354.7253487110138	
80	335.8751425743103	fix_post	2		12	78.0	2.5	/experiments/Knapen_AOT/AOT_stimuli/rescaled_final/1769_rv.mp4	0.0	354.84358167648315	0.10006332397460938
81	335.9752058982849	fix_pre	0		120	79.0	2.5	/experiments/Knapen_AOT/AOT_stimuli/rescaled_final/0995_fw.mp4	0.0	354.94364500045776	1.0084915161132812
81	336.9836974143982	movie	1		267	79.0	2.5	/experiments/Knapen_AOT/AOT_stimuli/rescaled_final/0995_fw.mp4	0.0	355.95213651657104	2.4920008182525635
81	337.3580524921417	pulse	1	t		79.0	2.5	/experiments/Knapen_AOT/AOT_stimuli/rescaled_final/0995_fw.mp4	0.0	356.3264915943146	
81	338.9573862552643	pulse	1	t		79.0	2.5	/experiments/Knapen_AOT/AOT_stimuli/rescaled_final/0995_fw.mp4	0.0	357.92582535743713	
81	339.47569823265076	fix_post	2		12	79.0	2.5	/experiments/Knapen_AOT/AOT_stimuli/rescaled_final/0995_fw.mp4	0.0	358.4441373348236	0.09999442100524902
82	339.575692653656	fix_pre	0		119	80.0	2.5	/experiments/Knapen_AOT/AOT_stimuli/rescaled_final/0493_fw.mp4	0.0	358.54413175582886	1.0001397132873535
82	340.5596203804016	pulse	0	t		80.0	2.5	/experiments/Knapen_AOT/AOT_stimuli/rescaled_final/0493_fw.mp4	0.0	359.52805948257446	
82	340.57583236694336	movie	1		282	80.0	2.5	/experiments/Knapen_AOT/AOT_stimuli/rescaled_final/0493_fw.mp4	0.0	359.5442714691162	2.500375747680664
82	342.15816020965576	pulse	1	t		80.0	2.5	/experiments/Knapen_AOT/AOT_stimuli/rescaled_final/0493_fw.mp4	0.0	361.1265993118286	
82	343.076208114624	fix_post	2		12	80.0	2.5	/experiments/Knapen_AOT/AOT_stimuli/rescaled_final/0493_fw.mp4	0.0	362.0446472167969	0.10001969337463379
83	343.17622780799866	fix_pre	0		120	81.0	2.5	/experiments/Knapen_AOT/AOT_stimuli/rescaled_final/2078_fw.mp4	0.0	362.1446669101715	1.0084643363952637
83	343.7601990699768	pulse	0	t		81.0	2.5	/experiments/Knapen_AOT/AOT_stimuli/rescaled_final/2078_fw.mp4	0.0	362.72863817214966	
83	344.1846921443939	movie	1		278	81.0	2.5	/experiments/Knapen_AOT/AOT_stimuli/rescaled_final/2078_fw.mp4	0.0	363.1531312465668	2.492095947265625
83	345.36035227775574	pulse	1	t		81.0	2.5	/experiments/Knapen_AOT/AOT_stimuli/rescaled_final/2078_fw.mp4	0.0	364.3287913799286	
83	346.67678809165955	fix_post	2		12	81.0	2.5	/experiments/Knapen_AOT/AOT_stimuli/rescaled_final/2078_fw.mp4	0.0	365.6452271938324	0.10000276565551758
84	346.77679085731506	fix_pre	0		120	82.0	2.5	/experiments/Knapen_AOT/AOT_stimuli/rescaled_final/2025_fw.mp4	0.0	365.7452299594879	1.008479356765747
84	346.95230650901794	pulse	0	t		82.0	2.5	/experiments/Knapen_AOT/AOT_stimuli/rescaled_final/2025_fw.mp4	0.0	365.9207456111908	
84	347.7852702140808	movie	1		282	82.0	2.5	/experiments/Knapen_AOT/AOT_stimuli/rescaled_final/2025_fw.mp4	0.0	366.75370931625366	2.4920175075531006
84	348.5527138710022	pulse	1	t		82.0	2.5	/experiments/Knapen_AOT/AOT_stimuli/rescaled_final/2025_fw.mp4	0.0	367.52115297317505	
84	350.1525409221649	pulse	1	t		82.0	2.5	/experiments/Knapen_AOT/AOT_stimuli/rescaled_final/2025_fw.mp4	0.0	369.12098002433777	
84	350.2772877216339	fix_post	2		12	82.0	2.5	/experiments/Knapen_AOT/AOT_stimuli/rescaled_final/2025_fw.mp4	0.0	369.24572682380676	0.10001635551452637
85	350.37730407714844	fix_pre	0		120	83.0	2.5	blank	1.0	369.3457431793213	1.0001413822174072
85	351.37744545936584	movie	1		300	83.0	2.5	blank	1.0	370.3458845615387	2.5004305839538574
85	351.7527070045471	pulse	1	t		83.0	2.5	blank	1.0	370.72114610671997	
85	353.35299277305603	pulse	1	t		83.0	2.5	blank	1.0	372.3214318752289	
85	353.8778760433197	fix_post	2		12	83.0	2.5	blank	1.0	372.84631514549255	0.09994912147521973
87	353.9778251647949	stim	0		1716					372.9462642669678	14.302215337753296
87	354.9531946182251	pulse	0	t						373.92163372039795	
87	356.55357336997986	pulse	0	t						375.5220124721527	
87	358.153795003891	pulse	0	t						377.12223410606384	
87	359.7539918422699	pulse	0	t						378.72243094444275	
87	361.35417461395264	pulse	0	t						380.3226137161255	
87	362.9543640613556	pulse	0	t						381.92280316352844	
87	364.55469131469727	pulse	0	t						383.5231304168701	
87	366.15491223335266	pulse	0	t						385.1233513355255	
87	367.7551803588867	pulse	0	t						386.72361946105957	
