trial_nr	onset	event_type	phase	response	nr_frames	movie_index	movie_duration	movie_file	blank	onset_abs	duration
0	0.15812301635742188	stim	0		1					17.502861976623535	0.008363008499145508
0	0.159590482711792	response	0	space						17.504329442977905	
1	0.16648602485656738	stim	0		4757					17.51122498512268	39.65880274772644
1	39.815999031066895	pulse	0	t						57.16073799133301	
1	39.82528877258301	stim	1		1715					57.17002773284912	14.307554483413696
1	41.4061803817749	pulse	1	t						58.750919342041016	
1	43.00644826889038	pulse	1	t						60.351187229156494	
1	44.60657620429993	pulse	1	t						61.95131516456604	
1	46.206825494766235	pulse	1	t						63.55156445503235	
1	47.807140588760376	pulse	1	t						65.15187954902649	
1	49.40728831291199	pulse	1	t						66.7520272731781	
1	51.00762343406677	pulse	1	t						68.35236239433289	
1	52.60785150527954	pulse	1	t						69.95259046554565	
2	54.132843255996704	fix_pre	0		10	0.0	2.5	/experiments/Knapen_AOT/AOT_stimuli/rescaled_final/0086_rv.mp4	0.0	71.47758221626282	0.10000085830688477
2	54.20806050300598	pulse	0	t		0.0	2.5	/experiments/Knapen_AOT/AOT_stimuli/rescaled_final/0086_rv.mp4	0.0	71.5527994632721	
2	54.23284411430359	movie	1		265	0.0	2.5	/experiments/Knapen_AOT/AOT_stimuli/rescaled_final/0086_rv.mp4	0.0	71.5775830745697	2.4920287132263184
2	55.806577920913696	pulse	1	t		0.0	2.5	/experiments/Knapen_AOT/AOT_stimuli/rescaled_final/0086_rv.mp4	0.0	73.15131688117981	
2	56.72487282752991	fix_post	2		12	0.0	2.5	/experiments/Knapen_AOT/AOT_stimuli/rescaled_final/0086_rv.mp4	0.0	74.06961178779602	0.10001683235168457
3	56.82488965988159	fix_pre	0		120	1.0	2.5	/experiments/Knapen_AOT/AOT_stimuli/rescaled_final/1413_rv.mp4	0.0	74.1696286201477	1.008509635925293
3	57.4085328578949	pulse	0	t		1.0	2.5	/experiments/Knapen_AOT/AOT_stimuli/rescaled_final/1413_rv.mp4	0.0	74.75327181816101	
3	57.833399295806885	movie	1		271	1.0	2.5	/experiments/Knapen_AOT/AOT_stimuli/rescaled_final/1413_rv.mp4	0.0	75.178138256073	2.4920084476470947
3	59.00819635391235	pulse	1	t		1.0	2.5	/experiments/Knapen_AOT/AOT_stimuli/rescaled_final/1413_rv.mp4	0.0	76.35293531417847	
3	60.32540774345398	fix_post	2		12	1.0	2.5	/experiments/Knapen_AOT/AOT_stimuli/rescaled_final/1413_rv.mp4	0.0	77.67014670372009	0.10001420974731445
4	60.425421953201294	fix_pre	0		120	2.0	2.5	/experiments/Knapen_AOT/AOT_stimuli/rescaled_final/0874_rv.mp4	0.0	77.77016091346741	1.0085599422454834
4	60.60913944244385	pulse	0	t		2.0	2.5	/experiments/Knapen_AOT/AOT_stimuli/rescaled_final/0874_rv.mp4	0.0	77.95387840270996	
4	61.43398189544678	movie	1		255	2.0	2.5	/experiments/Knapen_AOT/AOT_stimuli/rescaled_final/0874_rv.mp4	0.0	78.77872085571289	2.4919891357421875
4	62.20947051048279	pulse	1	t		2.0	2.5	/experiments/Knapen_AOT/AOT_stimuli/rescaled_final/0874_rv.mp4	0.0	79.5542094707489	
4	63.809645891189575	pulse	1	t		2.0	2.5	/experiments/Knapen_AOT/AOT_stimuli/rescaled_final/0874_rv.mp4	0.0	81.15438485145569	
4	63.925971031188965	fix_post	2		12	2.0	2.5	/experiments/Knapen_AOT/AOT_stimuli/rescaled_final/0874_rv.mp4	0.0	81.27070999145508	0.10013651847839355
5	64.02610754966736	fix_pre	0		120	3.0	2.5	/experiments/Knapen_AOT/AOT_stimuli/rescaled_final/0995_rv.mp4	0.0	81.37084650993347	1.0083484649658203
5	65.03445601463318	movie	1		263	3.0	2.5	/experiments/Knapen_AOT/AOT_stimuli/rescaled_final/0995_rv.mp4	0.0	82.37919497489929	2.492048501968384
5	65.40845942497253	pulse	1	t		3.0	2.5	/experiments/Knapen_AOT/AOT_stimuli/rescaled_final/0995_rv.mp4	0.0	82.75319838523865	
5	67.00798416137695	pulse	1	t		3.0	2.5	/experiments/Knapen_AOT/AOT_stimuli/rescaled_final/0995_rv.mp4	0.0	84.35272312164307	
5	67.52650451660156	fix_post	2		12	3.0	2.5	/experiments/Knapen_AOT/AOT_stimuli/rescaled_final/0995_rv.mp4	0.0	84.87124347686768	0.10001158714294434
6	67.6265161037445	fix_pre	0		119	4.0	2.5	/experiments/Knapen_AOT/AOT_stimuli/rescaled_final/1140_rv.mp4	0.0	84.97125506401062	1.000192642211914
6	68.61033773422241	pulse	0	t		4.0	2.5	/experiments/Knapen_AOT/AOT_stimuli/rescaled_final/1140_rv.mp4	0.0	85.95507669448853	
6	68.62670874595642	movie	1		282	4.0	2.5	/experiments/Knapen_AOT/AOT_stimuli/rescaled_final/1140_rv.mp4	0.0	85.97144770622253	2.5003299713134766
6	70.20889377593994	pulse	1	t		4.0	2.5	/experiments/Knapen_AOT/AOT_stimuli/rescaled_final/1140_rv.mp4	0.0	87.55363273620605	
6	71.1270387172699	fix_post	2		12	4.0	2.5	/experiments/Knapen_AOT/AOT_stimuli/rescaled_final/1140_rv.mp4	0.0	88.47177767753601	0.10004258155822754
7	71.22708129882812	fix_pre	0		120	5.0	2.5	/experiments/Knapen_AOT/AOT_stimuli/rescaled_final/0612_rv.mp4	0.0	88.57182025909424	1.0084466934204102
7	71.81082510948181	pulse	0	t		5.0	2.5	/experiments/Knapen_AOT/AOT_stimuli/rescaled_final/0612_rv.mp4	0.0	89.15556406974792	
7	72.23552799224854	movie	1		267	5.0	2.5	/experiments/Knapen_AOT/AOT_stimuli/rescaled_final/0612_rv.mp4	0.0	89.58026695251465	2.4920730590820312
7	73.4087483882904	pulse	1	t		5.0	2.5	/experiments/Knapen_AOT/AOT_stimuli/rescaled_final/0612_rv.mp4	0.0	90.75348734855652	
7	74.72760105133057	fix_post	2		12	5.0	2.5	/experiments/Knapen_AOT/AOT_stimuli/rescaled_final/0612_rv.mp4	0.0	92.07234001159668	0.09998154640197754
8	74.82758259773254	fix_pre	0		120	6.0	2.5	blank	1.0	92.17232155799866	1.0002939701080322
8	75.0112853050232	pulse	0	t		6.0	2.5	blank	1.0	92.3560242652893	
8	75.82787656784058	movie	1		300	6.0	2.5	blank	1.0	93.17261552810669	2.5002198219299316
8	76.6114981174469	pulse	1	t		6.0	2.5	blank	1.0	93.95623707771301	
8	78.21167063713074	pulse	1	t		6.0	2.5	blank	1.0	95.55640959739685	
8	78.32809638977051	fix_post	2		12	6.0	2.5	blank	1.0	95.67283535003662	0.10004067420959473
9	78.4281370639801	fix_pre	0		120	7.0	2.5	/experiments/Knapen_AOT/AOT_stimuli/rescaled_final/0446_fw.mp4	0.0	95.77287602424622	1.0084919929504395
9	79.43662905693054	movie	1		269	7.0	2.5	/experiments/Knapen_AOT/AOT_stimuli/rescaled_final/0446_fw.mp4	0.0	96.78136801719666	2.492013454437256
9	79.8101282119751	pulse	1	t		7.0	2.5	/experiments/Knapen_AOT/AOT_stimuli/rescaled_final/0446_fw.mp4	0.0	97.15486717224121	
9	81.40979290008545	pulse	1	t		7.0	2.5	/experiments/Knapen_AOT/AOT_stimuli/rescaled_final/0446_fw.mp4	0.0	98.75453186035156	
9	81.9286425113678	fix_post	2		12	7.0	2.5	/experiments/Knapen_AOT/AOT_stimuli/rescaled_final/0446_fw.mp4	0.0	99.27338147163391	0.10001063346862793
10	82.02865314483643	fix_pre	0		119	8.0	2.5	/experiments/Knapen_AOT/AOT_stimuli/rescaled_final/1364_fw.mp4	0.0	99.37339210510254	1.0002856254577637
10	83.01254034042358	pulse	0	t		8.0	2.5	/experiments/Knapen_AOT/AOT_stimuli/rescaled_final/1364_fw.mp4	0.0	100.3572793006897	
10	83.02893877029419	movie	1		264	8.0	2.5	/experiments/Knapen_AOT/AOT_stimuli/rescaled_final/1364_fw.mp4	0.0	100.3736777305603	2.5002665519714355
10	84.61160182952881	pulse	1	t		8.0	2.5	/experiments/Knapen_AOT/AOT_stimuli/rescaled_final/1364_fw.mp4	0.0	101.95634078979492	
10	85.52920532226562	fix_post	2		12	8.0	2.5	/experiments/Knapen_AOT/AOT_stimuli/rescaled_final/1364_fw.mp4	0.0	102.87394428253174	0.10000491142272949
11	85.62921023368835	fix_pre	0		120	9.0	2.5	/experiments/Knapen_AOT/AOT_stimuli/rescaled_final/1316_fw.mp4	0.0	102.97394919395447	1.0085968971252441
11	86.2052571773529	pulse	0	t		9.0	2.5	/experiments/Knapen_AOT/AOT_stimuli/rescaled_final/1316_fw.mp4	0.0	103.54999613761902	
11	86.6378071308136	movie	1		271	9.0	2.5	/experiments/Knapen_AOT/AOT_stimuli/rescaled_final/1316_fw.mp4	0.0	103.98254609107971	2.4921398162841797
11	87.81115937232971	pulse	1	t		9.0	2.5	/experiments/Knapen_AOT/AOT_stimuli/rescaled_final/1316_fw.mp4	0.0	105.15589833259583	
11	89.12994694709778	fix_post	2		12	9.0	2.5	/experiments/Knapen_AOT/AOT_stimuli/rescaled_final/1316_fw.mp4	0.0	106.47468590736389	0.09981679916381836
12	89.2297637462616	fix_pre	0		120	10.0	2.5	/experiments/Knapen_AOT/AOT_stimuli/rescaled_final/1124_fw.mp4	0.0	106.57450270652771	1.0085649490356445
12	89.40535807609558	pulse	0	t		10.0	2.5	/experiments/Knapen_AOT/AOT_stimuli/rescaled_final/1124_fw.mp4	0.0	106.7500970363617	
12	90.23832869529724	movie	1		271	10.0	2.5	/experiments/Knapen_AOT/AOT_stimuli/rescaled_final/1124_fw.mp4	0.0	107.58306765556335	2.4919674396514893
12	91.00533771514893	pulse	1	t		10.0	2.5	/experiments/Knapen_AOT/AOT_stimuli/rescaled_final/1124_fw.mp4	0.0	108.35007667541504	
12	92.60550665855408	pulse	1	t		10.0	2.5	/experiments/Knapen_AOT/AOT_stimuli/rescaled_final/1124_fw.mp4	0.0	109.95024561882019	
12	92.73029613494873	fix_post	2		12	10.0	2.5	/experiments/Knapen_AOT/AOT_stimuli/rescaled_final/1124_fw.mp4	0.0	110.07503509521484	0.1000216007232666
13	92.830317735672	fix_pre	0		120	11.0	2.5	/experiments/Knapen_AOT/AOT_stimuli/rescaled_final/0188_rv.mp4	0.0	110.17505669593811	1.0084633827209473
13	93.83878111839294	movie	1		272	11.0	2.5	/experiments/Knapen_AOT/AOT_stimuli/rescaled_final/0188_rv.mp4	0.0	111.18352007865906	2.492030382156372
13	94.20620536804199	pulse	1	t		11.0	2.5	/experiments/Knapen_AOT/AOT_stimuli/rescaled_final/0188_rv.mp4	0.0	111.5509443283081	
13	95.80621147155762	pulse	1	t		11.0	2.5	/experiments/Knapen_AOT/AOT_stimuli/rescaled_final/0188_rv.mp4	0.0	113.15095043182373	
13	96.33081150054932	fix_post	2		12	11.0	2.5	/experiments/Knapen_AOT/AOT_stimuli/rescaled_final/0188_rv.mp4	0.0	113.67555046081543	0.10018420219421387
14	96.43099570274353	fix_pre	0		118	12.0	2.5	blank	1.0	113.77573466300964	0.9833171367645264
14	97.40619802474976	pulse	0	t		12.0	2.5	blank	1.0	114.75093698501587	
14	97.41431283950806	movie	1		301	12.0	2.5	blank	1.0	114.75905179977417	2.5087029933929443
14	99.0065004825592	pulse	1	t		12.0	2.5	blank	1.0	116.35123944282532	
14	99.923015832901	fix_post	2		12	12.0	2.5	blank	1.0	117.26775479316711	0.10003185272216797
15	100.02304768562317	fix_pre	0		120	13.0	2.5	/experiments/Knapen_AOT/AOT_stimuli/rescaled_final/1885_fw.mp4	0.0	117.36778664588928	1.0085279941558838
15	100.60669112205505	pulse	0	t		13.0	2.5	/experiments/Knapen_AOT/AOT_stimuli/rescaled_final/1885_fw.mp4	0.0	117.95143008232117	
15	101.03157567977905	movie	1		282	13.0	2.5	/experiments/Knapen_AOT/AOT_stimuli/rescaled_final/1885_fw.mp4	0.0	118.37631464004517	2.4919791221618652
15	102.20613241195679	pulse	1	t		13.0	2.5	/experiments/Knapen_AOT/AOT_stimuli/rescaled_final/1885_fw.mp4	0.0	119.5508713722229	
15	103.52355480194092	fix_post	2		12	13.0	2.5	/experiments/Knapen_AOT/AOT_stimuli/rescaled_final/1885_fw.mp4	0.0	120.86829376220703	0.10002756118774414
16	103.62358236312866	fix_pre	0		120	14.0	2.5	/experiments/Knapen_AOT/AOT_stimuli/rescaled_final/1325_rv.mp4	0.0	120.96832132339478	1.008500337600708
16	103.80722737312317	pulse	0	t		14.0	2.5	/experiments/Knapen_AOT/AOT_stimuli/rescaled_final/1325_rv.mp4	0.0	121.15196633338928	
16	104.63208270072937	movie	1		281	14.0	2.5	/experiments/Knapen_AOT/AOT_stimuli/rescaled_final/1325_rv.mp4	0.0	121.97682166099548	2.4920291900634766
16	105.40740847587585	pulse	1	t		14.0	2.5	/experiments/Knapen_AOT/AOT_stimuli/rescaled_final/1325_rv.mp4	0.0	122.75214743614197	
16	107.00563192367554	pulse	1	t		14.0	2.5	/experiments/Knapen_AOT/AOT_stimuli/rescaled_final/1325_rv.mp4	0.0	124.35037088394165	
16	107.12411189079285	fix_post	2		12	14.0	2.5	/experiments/Knapen_AOT/AOT_stimuli/rescaled_final/1325_rv.mp4	0.0	124.46885085105896	0.10002946853637695
17	107.22414135932922	fix_pre	0		120	15.0	2.5	/experiments/Knapen_AOT/AOT_stimuli/rescaled_final/1737_fw.mp4	0.0	124.56888031959534	1.0085208415985107
17	108.23266220092773	movie	1		284	15.0	2.5	/experiments/Knapen_AOT/AOT_stimuli/rescaled_final/1737_fw.mp4	0.0	125.57740116119385	2.491992712020874
17	108.60608863830566	pulse	1	t		15.0	2.5	/experiments/Knapen_AOT/AOT_stimuli/rescaled_final/1737_fw.mp4	0.0	125.95082759857178	
17	110.20583200454712	pulse	1	t		15.0	2.5	/experiments/Knapen_AOT/AOT_stimuli/rescaled_final/1737_fw.mp4	0.0	127.55057096481323	
17	110.72465491294861	fix_post	2		12	15.0	2.5	/experiments/Knapen_AOT/AOT_stimuli/rescaled_final/1737_fw.mp4	0.0	128.06939387321472	0.10009121894836426
18	110.82474613189697	fix_pre	0		119	16.0	2.5	/experiments/Knapen_AOT/AOT_stimuli/rescaled_final/0260_rv.mp4	0.0	128.1694850921631	1.0000827312469482
18	111.8087911605835	pulse	0	t		16.0	2.5	/experiments/Knapen_AOT/AOT_stimuli/rescaled_final/0260_rv.mp4	0.0	129.1535301208496	
18	111.82482886314392	movie	1		281	16.0	2.5	/experiments/Knapen_AOT/AOT_stimuli/rescaled_final/0260_rv.mp4	0.0	129.16956782341003	2.5003793239593506
18	113.40677285194397	pulse	1	t		16.0	2.5	/experiments/Knapen_AOT/AOT_stimuli/rescaled_final/0260_rv.mp4	0.0	130.75151181221008	
18	114.32520818710327	fix_post	2		12	16.0	2.5	/experiments/Knapen_AOT/AOT_stimuli/rescaled_final/0260_rv.mp4	0.0	131.66994714736938	0.10001111030578613
19	114.42521929740906	fix_pre	0		120	17.0	2.5	/experiments/Knapen_AOT/AOT_stimuli/rescaled_final/1672_rv.mp4	0.0	131.76995825767517	1.0084936618804932
19	115.0088632106781	pulse	0	t		17.0	2.5	/experiments/Knapen_AOT/AOT_stimuli/rescaled_final/1672_rv.mp4	0.0	132.3536021709442	
19	115.43371295928955	movie	1		282	17.0	2.5	/experiments/Knapen_AOT/AOT_stimuli/rescaled_final/1672_rv.mp4	0.0	132.77845191955566	2.4920458793640137
19	116.60694718360901	pulse	1	t		17.0	2.5	/experiments/Knapen_AOT/AOT_stimuli/rescaled_final/1672_rv.mp4	0.0	133.95168614387512	
19	117.92575883865356	fix_post	2		12	17.0	2.5	/experiments/Knapen_AOT/AOT_stimuli/rescaled_final/1672_rv.mp4	0.0	135.27049779891968	0.10007524490356445
20	118.02583408355713	fix_pre	0		120	18.0	2.5	/experiments/Knapen_AOT/AOT_stimuli/rescaled_final/1480_fw.mp4	0.0	135.37057304382324	1.0084245204925537
20	118.20953845977783	pulse	0	t		18.0	2.5	/experiments/Knapen_AOT/AOT_stimuli/rescaled_final/1480_fw.mp4	0.0	135.55427742004395	
20	119.03425860404968	movie	1		274	18.0	2.5	/experiments/Knapen_AOT/AOT_stimuli/rescaled_final/1480_fw.mp4	0.0	136.3789975643158	2.492081880569458
20	119.81137013435364	pulse	1	t		18.0	2.5	/experiments/Knapen_AOT/AOT_stimuli/rescaled_final/1480_fw.mp4	0.0	137.15610909461975	
20	121.40785145759583	pulse	1	t		18.0	2.5	/experiments/Knapen_AOT/AOT_stimuli/rescaled_final/1480_fw.mp4	0.0	138.75259041786194	
20	121.52634048461914	fix_post	2		12	18.0	2.5	/experiments/Knapen_AOT/AOT_stimuli/rescaled_final/1480_fw.mp4	0.0	138.87107944488525	0.09995222091674805
21	121.62629270553589	fix_pre	0		120	19.0	2.5	/experiments/Knapen_AOT/AOT_stimuli/rescaled_final/0957_rv.mp4	0.0	138.971031665802	1.0086257457733154
21	122.6349184513092	movie	1		277	19.0	2.5	/experiments/Knapen_AOT/AOT_stimuli/rescaled_final/0957_rv.mp4	0.0	139.97965741157532	2.49191951751709
21	123.00841927528381	pulse	1	t		19.0	2.5	/experiments/Knapen_AOT/AOT_stimuli/rescaled_final/0957_rv.mp4	0.0	140.35315823554993	
21	124.60805368423462	pulse	1	t		19.0	2.5	/experiments/Knapen_AOT/AOT_stimuli/rescaled_final/0957_rv.mp4	0.0	141.95279264450073	
21	125.1268379688263	fix_post	2		12	19.0	2.5	/experiments/Knapen_AOT/AOT_stimuli/rescaled_final/0957_rv.mp4	0.0	142.4715769290924	0.1000063419342041
22	125.2268443107605	fix_pre	0		119	20.0	2.5	blank	1.0	142.5715832710266	0.9919044971466064
22	126.21064186096191	pulse	0	t		20.0	2.5	blank	1.0	143.55538082122803	
22	126.2187488079071	movie	1		301	20.0	2.5	blank	1.0	143.56348776817322	2.508629083633423
22	127.81076836585999	pulse	1	t		20.0	2.5	blank	1.0	145.1555073261261	
22	128.72737789154053	fix_post	2		12	20.0	2.5	blank	1.0	146.07211685180664	0.09998750686645508
23	128.82736539840698	fix_pre	0		120	21.0	2.5	/experiments/Knapen_AOT/AOT_stimuli/rescaled_final/1607_rv.mp4	0.0	146.1721043586731	1.0085179805755615
23	129.41096758842468	pulse	0	t		21.0	2.5	/experiments/Knapen_AOT/AOT_stimuli/rescaled_final/1607_rv.mp4	0.0	146.7557065486908	
23	129.83588337898254	movie	1		278	21.0	2.5	/experiments/Knapen_AOT/AOT_stimuli/rescaled_final/1607_rv.mp4	0.0	147.18062233924866	2.4920058250427246
23	131.00952172279358	pulse	1	t		21.0	2.5	/experiments/Knapen_AOT/AOT_stimuli/rescaled_final/1607_rv.mp4	0.0	148.3542606830597	
23	132.32788920402527	fix_post	2		12	21.0	2.5	/experiments/Knapen_AOT/AOT_stimuli/rescaled_final/1607_rv.mp4	0.0	149.67262816429138	0.10002613067626953
24	132.42791533470154	fix_pre	0		120	22.0	2.5	/experiments/Knapen_AOT/AOT_stimuli/rescaled_final/1293_rv.mp4	0.0	149.77265429496765	1.0086119174957275
24	132.611492395401	pulse	0	t		22.0	2.5	/experiments/Knapen_AOT/AOT_stimuli/rescaled_final/1293_rv.mp4	0.0	149.95623135566711	
24	133.43652725219727	movie	1		280	22.0	2.5	/experiments/Knapen_AOT/AOT_stimuli/rescaled_final/1293_rv.mp4	0.0	150.78126621246338	2.4919016361236572
24	134.20982456207275	pulse	1	t		22.0	2.5	/experiments/Knapen_AOT/AOT_stimuli/rescaled_final/1293_rv.mp4	0.0	151.55456352233887	
24	135.8100073337555	pulse	1	t		22.0	2.5	/experiments/Knapen_AOT/AOT_stimuli/rescaled_final/1293_rv.mp4	0.0	153.1547462940216	
24	135.92842888832092	fix_post	2		12	22.0	2.5	/experiments/Knapen_AOT/AOT_stimuli/rescaled_final/1293_rv.mp4	0.0	153.27316784858704	0.10004687309265137
25	136.02847576141357	fix_pre	0		120	23.0	2.5	/experiments/Knapen_AOT/AOT_stimuli/rescaled_final/0722_fw.mp4	0.0	153.3732147216797	1.008471965789795
25	137.03694772720337	movie	1		283	23.0	2.5	/experiments/Knapen_AOT/AOT_stimuli/rescaled_final/0722_fw.mp4	0.0	154.38168668746948	2.492048740386963
25	137.41031002998352	pulse	1	t		23.0	2.5	/experiments/Knapen_AOT/AOT_stimuli/rescaled_final/0722_fw.mp4	0.0	154.75504899024963	
25	139.0117745399475	pulse	1	t		23.0	2.5	/experiments/Knapen_AOT/AOT_stimuli/rescaled_final/0722_fw.mp4	0.0	156.35651350021362	
25	139.52899646759033	fix_post	2		12	23.0	2.5	/experiments/Knapen_AOT/AOT_stimuli/rescaled_final/0722_fw.mp4	0.0	156.87373542785645	0.09999966621398926
26	139.62899613380432	fix_pre	0		118	24.0	2.5	/experiments/Knapen_AOT/AOT_stimuli/rescaled_final/0493_rv.mp4	0.0	156.97373509407043	0.991894006729126
26	140.60469770431519	pulse	0	t		24.0	2.5	/experiments/Knapen_AOT/AOT_stimuli/rescaled_final/0493_rv.mp4	0.0	157.9494366645813	
26	140.62089014053345	movie	1		273	24.0	2.5	/experiments/Knapen_AOT/AOT_stimuli/rescaled_final/0493_rv.mp4	0.0	157.96562910079956	2.500308036804199
26	142.20489835739136	pulse	1	t		24.0	2.5	/experiments/Knapen_AOT/AOT_stimuli/rescaled_final/0493_rv.mp4	0.0	159.54963731765747	
26	143.12119817733765	fix_post	2		12	24.0	2.5	/experiments/Knapen_AOT/AOT_stimuli/rescaled_final/0493_rv.mp4	0.0	160.46593713760376	0.10005569458007812
27	143.22125387191772	fix_pre	0		120	25.0	2.5	/experiments/Knapen_AOT/AOT_stimuli/rescaled_final/0300_rv.mp4	0.0	160.56599283218384	1.0084383487701416
27	143.80484414100647	pulse	0	t		25.0	2.5	/experiments/Knapen_AOT/AOT_stimuli/rescaled_final/0300_rv.mp4	0.0	161.14958310127258	
27	144.22969222068787	movie	1		267	25.0	2.5	/experiments/Knapen_AOT/AOT_stimuli/rescaled_final/0300_rv.mp4	0.0	161.57443118095398	2.492067813873291
27	145.40510272979736	pulse	1	t		25.0	2.5	/experiments/Knapen_AOT/AOT_stimuli/rescaled_final/0300_rv.mp4	0.0	162.74984169006348	
27	146.72176003456116	fix_post	2		12	25.0	2.5	/experiments/Knapen_AOT/AOT_stimuli/rescaled_final/0300_rv.mp4	0.0	164.06649899482727	0.09998440742492676
28	146.82174444198608	fix_pre	0		120	26.0	2.5	/experiments/Knapen_AOT/AOT_stimuli/rescaled_final/0495_rv.mp4	0.0	164.1664834022522	1.0086634159088135
28	147.0053210258484	pulse	0	t		26.0	2.5	/experiments/Knapen_AOT/AOT_stimuli/rescaled_final/0495_rv.mp4	0.0	164.3500599861145	
28	147.8304078578949	movie	1		273	26.0	2.5	/experiments/Knapen_AOT/AOT_stimuli/rescaled_final/0495_rv.mp4	0.0	165.175146818161	2.491889715194702
28	148.6055624485016	pulse	1	t		26.0	2.5	/experiments/Knapen_AOT/AOT_stimuli/rescaled_final/0495_rv.mp4	0.0	165.9503014087677	
28	150.20579075813293	pulse	1	t		26.0	2.5	/experiments/Knapen_AOT/AOT_stimuli/rescaled_final/0495_rv.mp4	0.0	167.55052971839905	
28	150.3222975730896	fix_post	2		12	26.0	2.5	/experiments/Knapen_AOT/AOT_stimuli/rescaled_final/0495_rv.mp4	0.0	167.6670365333557	0.10001039505004883
29	150.42230796813965	fix_pre	0		120	27.0	2.5	blank	1.0	167.76704692840576	1.0001325607299805
29	151.42244052886963	movie	1		300	27.0	2.5	blank	1.0	168.76717948913574	2.500373125076294
29	151.80618453025818	pulse	1	t		27.0	2.5	blank	1.0	169.1509234905243	
29	153.40633893013	pulse	1	t		27.0	2.5	blank	1.0	170.75107789039612	
29	153.92281365394592	fix_post	2		12	27.0	2.5	blank	1.0	171.26755261421204	0.10004854202270508
30	154.02286219596863	fix_pre	0		119	28.0	2.5	/experiments/Knapen_AOT/AOT_stimuli/rescaled_final/0309_rv.mp4	0.0	171.36760115623474	1.000121831893921
30	155.00646924972534	pulse	0	t		28.0	2.5	/experiments/Knapen_AOT/AOT_stimuli/rescaled_final/0309_rv.mp4	0.0	172.35120820999146	
30	155.02298402786255	movie	1		284	28.0	2.5	/experiments/Knapen_AOT/AOT_stimuli/rescaled_final/0309_rv.mp4	0.0	172.36772298812866	2.500352621078491
30	156.60496950149536	pulse	1	t		28.0	2.5	/experiments/Knapen_AOT/AOT_stimuli/rescaled_final/0309_rv.mp4	0.0	173.94970846176147	
30	157.52333664894104	fix_post	2		12	28.0	2.5	/experiments/Knapen_AOT/AOT_stimuli/rescaled_final/0309_rv.mp4	0.0	174.86807560920715	0.10002899169921875
31	157.62336564064026	fix_pre	0		120	29.0	2.5	/experiments/Knapen_AOT/AOT_stimuli/rescaled_final/1752_rv.mp4	0.0	174.96810460090637	1.008498191833496
31	158.20702004432678	pulse	0	t		29.0	2.5	/experiments/Knapen_AOT/AOT_stimuli/rescaled_final/1752_rv.mp4	0.0	175.5517590045929	
31	158.63186383247375	movie	1		282	29.0	2.5	/experiments/Knapen_AOT/AOT_stimuli/rescaled_final/1752_rv.mp4	0.0	175.97660279273987	2.4920382499694824
31	159.80765557289124	pulse	1	t		29.0	2.5	/experiments/Knapen_AOT/AOT_stimuli/rescaled_final/1752_rv.mp4	0.0	177.15239453315735	
31	161.12390208244324	fix_post	2		12	29.0	2.5	/experiments/Knapen_AOT/AOT_stimuli/rescaled_final/1752_rv.mp4	0.0	178.46864104270935	0.1000361442565918
32	161.22393822669983	fix_pre	0		120	30.0	2.5	/experiments/Knapen_AOT/AOT_stimuli/rescaled_final/1990_fw.mp4	0.0	178.56867718696594	1.008460283279419
32	161.40821290016174	pulse	0	t		30.0	2.5	/experiments/Knapen_AOT/AOT_stimuli/rescaled_final/1990_fw.mp4	0.0	178.75295186042786	
32	162.23239850997925	movie	1		278	30.0	2.5	/experiments/Knapen_AOT/AOT_stimuli/rescaled_final/1990_fw.mp4	0.0	179.57713747024536	2.4920549392700195
32	163.00566339492798	pulse	1	t		30.0	2.5	/experiments/Knapen_AOT/AOT_stimuli/rescaled_final/1990_fw.mp4	0.0	180.3504023551941	
32	164.6067762374878	pulse	1	t		30.0	2.5	/experiments/Knapen_AOT/AOT_stimuli/rescaled_final/1990_fw.mp4	0.0	181.9515151977539	
32	164.72445344924927	fix_post	2		12	30.0	2.5	/experiments/Knapen_AOT/AOT_stimuli/rescaled_final/1990_fw.mp4	0.0	182.06919240951538	0.10003399848937988
33	164.82448744773865	fix_pre	0		120	31.0	2.5	/experiments/Knapen_AOT/AOT_stimuli/rescaled_final/1296_rv.mp4	0.0	182.16922640800476	1.0084948539733887
33	165.83298230171204	movie	1		275	31.0	2.5	/experiments/Knapen_AOT/AOT_stimuli/rescaled_final/1296_rv.mp4	0.0	183.17772126197815	2.4920005798339844
33	166.20690059661865	pulse	1	t		31.0	2.5	/experiments/Knapen_AOT/AOT_stimuli/rescaled_final/1296_rv.mp4	0.0	183.55163955688477	
33	167.80610013008118	pulse	1	t		31.0	2.5	/experiments/Knapen_AOT/AOT_stimuli/rescaled_final/1296_rv.mp4	0.0	185.1508390903473	
33	168.32498288154602	fix_post	2		12	31.0	2.5	/experiments/Knapen_AOT/AOT_stimuli/rescaled_final/1296_rv.mp4	0.0	185.66972184181213	0.10002279281616211
34	168.42500567436218	fix_pre	0		119	32.0	2.5	/experiments/Knapen_AOT/AOT_stimuli/rescaled_final/0700_rv.mp4	0.0	185.7697446346283	1.0001192092895508
34	169.40859484672546	pulse	0	t		32.0	2.5	/experiments/Knapen_AOT/AOT_stimuli/rescaled_final/0700_rv.mp4	0.0	186.75333380699158	
34	169.42512488365173	movie	1		281	32.0	2.5	/experiments/Knapen_AOT/AOT_stimuli/rescaled_final/0700_rv.mp4	0.0	186.76986384391785	2.500415325164795
34	171.00735712051392	pulse	1	t		32.0	2.5	/experiments/Knapen_AOT/AOT_stimuli/rescaled_final/0700_rv.mp4	0.0	188.35209608078003	
34	171.92554020881653	fix_post	2		12	32.0	2.5	/experiments/Knapen_AOT/AOT_stimuli/rescaled_final/0700_rv.mp4	0.0	189.27027916908264	0.10002374649047852
35	172.025563955307	fix_pre	0		120	33.0	2.5	blank	1.0	189.37030291557312	1.000115156173706
35	172.60927867889404	pulse	0	t		33.0	2.5	blank	1.0	189.95401763916016	
35	173.0256791114807	movie	1		300	33.0	2.5	blank	1.0	190.37041807174683	2.500380277633667
35	174.20946621894836	pulse	1	t		33.0	2.5	blank	1.0	191.55420517921448	
35	175.52605938911438	fix_post	2		12	33.0	2.5	blank	1.0	192.8707983493805	0.10002589225769043
36	175.62608528137207	fix_pre	0		120	34.0	2.5	/experiments/Knapen_AOT/AOT_stimuli/rescaled_final/0446_rv.mp4	0.0	192.97082424163818	1.0084919929504395
36	175.80964136123657	pulse	0	t		34.0	2.5	/experiments/Knapen_AOT/AOT_stimuli/rescaled_final/0446_rv.mp4	0.0	193.15438032150269	
36	176.6345772743225	movie	1		282	34.0	2.5	/experiments/Knapen_AOT/AOT_stimuli/rescaled_final/0446_rv.mp4	0.0	193.97931623458862	2.492008924484253
36	177.40799236297607	pulse	1	t		34.0	2.5	/experiments/Knapen_AOT/AOT_stimuli/rescaled_final/0446_rv.mp4	0.0	194.7527313232422	
36	179.00805044174194	pulse	1	t		34.0	2.5	/experiments/Knapen_AOT/AOT_stimuli/rescaled_final/0446_rv.mp4	0.0	196.35278940200806	
36	179.12658619880676	fix_post	2		12	34.0	2.5	/experiments/Knapen_AOT/AOT_stimuli/rescaled_final/0446_rv.mp4	0.0	196.47132515907288	0.10002779960632324
37	179.2266139984131	fix_pre	0		120	35.0	2.5	/experiments/Knapen_AOT/AOT_stimuli/rescaled_final/1154_fw.mp4	0.0	196.5713529586792	1.0086746215820312
37	180.23528861999512	movie	1		267	35.0	2.5	/experiments/Knapen_AOT/AOT_stimuli/rescaled_final/1154_fw.mp4	0.0	197.58002758026123	2.4918529987335205
37	180.60889196395874	pulse	1	t		35.0	2.5	/experiments/Knapen_AOT/AOT_stimuli/rescaled_final/1154_fw.mp4	0.0	197.95363092422485	
37	182.21063709259033	pulse	1	t		35.0	2.5	/experiments/Knapen_AOT/AOT_stimuli/rescaled_final/1154_fw.mp4	0.0	199.55537605285645	
37	182.72714161872864	fix_post	2		12	35.0	2.5	/experiments/Knapen_AOT/AOT_stimuli/rescaled_final/1154_fw.mp4	0.0	200.07188057899475	0.10006570816040039
38	182.82720732688904	fix_pre	0		119	36.0	2.5	/experiments/Knapen_AOT/AOT_stimuli/rescaled_final/1515_rv.mp4	0.0	200.17194628715515	1.0001425743103027
38	183.81084084510803	pulse	0	t		36.0	2.5	/experiments/Knapen_AOT/AOT_stimuli/rescaled_final/1515_rv.mp4	0.0	201.15557980537415	
38	183.82734990119934	movie	1		267	36.0	2.5	/experiments/Knapen_AOT/AOT_stimuli/rescaled_final/1515_rv.mp4	0.0	201.17208886146545	2.5003366470336914
38	185.40955305099487	pulse	1	t		36.0	2.5	/experiments/Knapen_AOT/AOT_stimuli/rescaled_final/1515_rv.mp4	0.0	202.754292011261	
38	186.32768654823303	fix_post	2		12	36.0	2.5	/experiments/Knapen_AOT/AOT_stimuli/rescaled_final/1515_rv.mp4	0.0	203.67242550849915	0.10002446174621582
39	186.42771100997925	fix_pre	0		120	37.0	2.5	/experiments/Knapen_AOT/AOT_stimuli/rescaled_final/0240_fw.mp4	0.0	203.77244997024536	1.008502721786499
39	187.01136350631714	pulse	0	t		37.0	2.5	/experiments/Knapen_AOT/AOT_stimuli/rescaled_final/0240_fw.mp4	0.0	204.35610246658325	
39	187.43621373176575	movie	1		284	37.0	2.5	/experiments/Knapen_AOT/AOT_stimuli/rescaled_final/0240_fw.mp4	0.0	204.78095269203186	2.4920268058776855
39	188.61041593551636	pulse	1	t		37.0	2.5	/experiments/Knapen_AOT/AOT_stimuli/rescaled_final/0240_fw.mp4	0.0	205.95515489578247	
39	189.92824053764343	fix_post	2		12	37.0	2.5	/experiments/Knapen_AOT/AOT_stimuli/rescaled_final/0240_fw.mp4	0.0	207.27297949790955	0.1000521183013916
40	190.02829265594482	fix_pre	0		120	38.0	2.5	/experiments/Knapen_AOT/AOT_stimuli/rescaled_final/2087_fw.mp4	0.0	207.37303161621094	1.008483648300171
40	190.2118570804596	pulse	0	t		38.0	2.5	/experiments/Knapen_AOT/AOT_stimuli/rescaled_final/2087_fw.mp4	0.0	207.5565960407257	
40	191.036776304245	movie	1		271	38.0	2.5	/experiments/Knapen_AOT/AOT_stimuli/rescaled_final/2087_fw.mp4	0.0	208.3815152645111	2.49198055267334
40	191.8120617866516	pulse	1	t		38.0	2.5	/experiments/Knapen_AOT/AOT_stimuli/rescaled_final/2087_fw.mp4	0.0	209.15680074691772	
40	193.41017937660217	pulse	1	t		38.0	2.5	/experiments/Knapen_AOT/AOT_stimuli/rescaled_final/2087_fw.mp4	0.0	210.7549183368683	
40	193.52875685691833	fix_post	2		12	38.0	2.5	/experiments/Knapen_AOT/AOT_stimuli/rescaled_final/2087_fw.mp4	0.0	210.87349581718445	0.10003352165222168
41	193.62879037857056	fix_pre	0		120	39.0	2.5	/experiments/Knapen_AOT/AOT_stimuli/rescaled_final/0446_fw.mp4	0.0	210.97352933883667	1.0084950923919678
41	194.63728547096252	movie	1		275	39.0	2.5	/experiments/Knapen_AOT/AOT_stimuli/rescaled_final/0446_fw.mp4	0.0	211.98202443122864	2.4920241832733154
41	195.01306462287903	pulse	1	t		39.0	2.5	/experiments/Knapen_AOT/AOT_stimuli/rescaled_final/0446_fw.mp4	0.0	212.35780358314514	
41	196.6106662750244	pulse	1	t		39.0	2.5	/experiments/Knapen_AOT/AOT_stimuli/rescaled_final/0446_fw.mp4	0.0	213.95540523529053	
41	197.12930965423584	fix_post	2		12	39.0	2.5	/experiments/Knapen_AOT/AOT_stimuli/rescaled_final/0446_fw.mp4	0.0	214.47404861450195	0.10001683235168457
42	197.22932648658752	fix_pre	0		118	40.0	2.5	blank	1.0	214.57406544685364	0.9834864139556885
42	198.20519518852234	pulse	0	t		40.0	2.5	blank	1.0	215.54993414878845	
42	198.2128129005432	movie	1		301	40.0	2.5	blank	1.0	215.55755186080933	2.508751153945923
42	199.80533385276794	pulse	1	t		40.0	2.5	blank	1.0	217.15007281303406	
42	200.72156405448914	fix_post	2		12	40.0	2.5	blank	1.0	218.06630301475525	0.10000157356262207
43	200.82156562805176	fix_pre	0		120	41.0	2.5	/experiments/Knapen_AOT/AOT_stimuli/rescaled_final/1786_fw.mp4	0.0	218.16630458831787	1.0085771083831787
43	201.405193567276	pulse	0	t		41.0	2.5	/experiments/Knapen_AOT/AOT_stimuli/rescaled_final/1786_fw.mp4	0.0	218.74993252754211	
43	201.83014273643494	movie	1		270	41.0	2.5	/experiments/Knapen_AOT/AOT_stimuli/rescaled_final/1786_fw.mp4	0.0	219.17488169670105	2.491929769515991
43	203.00553488731384	pulse	1	t		41.0	2.5	/experiments/Knapen_AOT/AOT_stimuli/rescaled_final/1786_fw.mp4	0.0	220.35027384757996	
43	204.32207250595093	fix_post	2		12	41.0	2.5	/experiments/Knapen_AOT/AOT_stimuli/rescaled_final/1786_fw.mp4	0.0	221.66681146621704	0.10000801086425781
44	204.42208051681519	fix_pre	0		120	42.0	2.5	/experiments/Knapen_AOT/AOT_stimuli/rescaled_final/0017_rv.mp4	0.0	221.7668194770813	1.0084712505340576
44	204.60567212104797	pulse	0	t		42.0	2.5	/experiments/Knapen_AOT/AOT_stimuli/rescaled_final/0017_rv.mp4	0.0	221.9504110813141	
44	205.43055176734924	movie	1		279	42.0	2.5	/experiments/Knapen_AOT/AOT_stimuli/rescaled_final/0017_rv.mp4	0.0	222.77529072761536	2.4921042919158936
44	206.20590996742249	pulse	1	t		42.0	2.5	/experiments/Knapen_AOT/AOT_stimuli/rescaled_final/0017_rv.mp4	0.0	223.5506489276886	
44	207.80616116523743	pulse	1	t		42.0	2.5	/experiments/Knapen_AOT/AOT_stimuli/rescaled_final/0017_rv.mp4	0.0	225.15090012550354	
44	207.92265605926514	fix_post	2		12	42.0	2.5	/experiments/Knapen_AOT/AOT_stimuli/rescaled_final/0017_rv.mp4	0.0	225.26739501953125	0.09995841979980469
45	208.02261447906494	fix_pre	0		120	43.0	2.5	/experiments/Knapen_AOT/AOT_stimuli/rescaled_final/0995_fw.mp4	0.0	225.36735343933105	1.0084660053253174
45	209.03108048439026	movie	1		266	43.0	2.5	/experiments/Knapen_AOT/AOT_stimuli/rescaled_final/0995_fw.mp4	0.0	226.37581944465637	2.492048740386963
45	209.40660905838013	pulse	1	t		43.0	2.5	/experiments/Knapen_AOT/AOT_stimuli/rescaled_final/0995_fw.mp4	0.0	226.75134801864624	
45	211.00665950775146	pulse	1	t		43.0	2.5	/experiments/Knapen_AOT/AOT_stimuli/rescaled_final/0995_fw.mp4	0.0	228.35139846801758	
45	211.52312922477722	fix_post	2		12	43.0	2.5	/experiments/Knapen_AOT/AOT_stimuli/rescaled_final/0995_fw.mp4	0.0	228.86786818504333	0.10002636909484863
46	211.62315559387207	fix_pre	0		119	44.0	2.5	/experiments/Knapen_AOT/AOT_stimuli/rescaled_final/1086_rv.mp4	0.0	228.96789455413818	1.0001351833343506
46	212.60688877105713	pulse	0	t		44.0	2.5	/experiments/Knapen_AOT/AOT_stimuli/rescaled_final/1086_rv.mp4	0.0	229.95162773132324	
46	212.62329077720642	movie	1		270	44.0	2.5	/experiments/Knapen_AOT/AOT_stimuli/rescaled_final/1086_rv.mp4	0.0	229.96802973747253	2.500443696975708
46	214.20715045928955	pulse	1	t		44.0	2.5	/experiments/Knapen_AOT/AOT_stimuli/rescaled_final/1086_rv.mp4	0.0	231.55188941955566	
46	215.12373447418213	fix_post	2		12	44.0	2.5	/experiments/Knapen_AOT/AOT_stimuli/rescaled_final/1086_rv.mp4	0.0	232.46847343444824	0.09998559951782227
47	215.22372007369995	fix_pre	0		120	45.0	2.5	/experiments/Knapen_AOT/AOT_stimuli/rescaled_final/0608_fw.mp4	0.0	232.56845903396606	1.008631706237793
47	215.8073673248291	pulse	0	t		45.0	2.5	/experiments/Knapen_AOT/AOT_stimuli/rescaled_final/0608_fw.mp4	0.0	233.15210628509521	
47	216.23235177993774	movie	1		287	45.0	2.5	/experiments/Knapen_AOT/AOT_stimuli/rescaled_final/0608_fw.mp4	0.0	233.57709074020386	2.492039918899536
47	217.406259059906	pulse	1	t		45.0	2.5	/experiments/Knapen_AOT/AOT_stimuli/rescaled_final/0608_fw.mp4	0.0	234.75099802017212	
47	218.72439169883728	fix_post	2		12	45.0	2.5	/experiments/Knapen_AOT/AOT_stimuli/rescaled_final/0608_fw.mp4	0.0	236.0691306591034	0.09983611106872559
48	218.824227809906	fix_pre	0		120	46.0	2.5	/experiments/Knapen_AOT/AOT_stimuli/rescaled_final/0481_rv.mp4	0.0	236.16896677017212	1.0084850788116455
48	219.00781989097595	pulse	0	t		46.0	2.5	/experiments/Knapen_AOT/AOT_stimuli/rescaled_final/0481_rv.mp4	0.0	236.35255885124207	
48	219.83271288871765	movie	1		262	46.0	2.5	/experiments/Knapen_AOT/AOT_stimuli/rescaled_final/0481_rv.mp4	0.0	237.17745184898376	2.4920706748962402
48	220.72123384475708	pulse	1	t		46.0	2.5	/experiments/Knapen_AOT/AOT_stimuli/rescaled_final/0481_rv.mp4	0.0	238.0659728050232	
48	222.20651841163635	pulse	1	t		46.0	2.5	/experiments/Knapen_AOT/AOT_stimuli/rescaled_final/0481_rv.mp4	0.0	239.55125737190247	
48	222.3247835636139	fix_post	2		12	46.0	2.5	/experiments/Knapen_AOT/AOT_stimuli/rescaled_final/0481_rv.mp4	0.0	239.66952252388	0.10000252723693848
49	222.42478609085083	fix_pre	0		120	47.0	2.5	/experiments/Knapen_AOT/AOT_stimuli/rescaled_final/0399_rv.mp4	0.0	239.76952505111694	1.0086164474487305
49	223.43340253829956	movie	1		273	47.0	2.5	/experiments/Knapen_AOT/AOT_stimuli/rescaled_final/0399_rv.mp4	0.0	240.77814149856567	2.491903066635132
49	223.80702304840088	pulse	1	t		47.0	2.5	/experiments/Knapen_AOT/AOT_stimuli/rescaled_final/0399_rv.mp4	0.0	241.151762008667	
49	225.40670442581177	pulse	1	t		47.0	2.5	/experiments/Knapen_AOT/AOT_stimuli/rescaled_final/0399_rv.mp4	0.0	242.75144338607788	
49	225.9253056049347	fix_post	2		12	47.0	2.5	/experiments/Knapen_AOT/AOT_stimuli/rescaled_final/0399_rv.mp4	0.0	243.2700445652008	0.09999704360961914
50	226.0253026485443	fix_pre	0		119	48.0	2.5	blank	1.0	243.37004160881042	0.9918134212493896
50	227.0091154575348	pulse	0	t		48.0	2.5	blank	1.0	244.3538544178009	
50	227.0171160697937	movie	1		301	48.0	2.5	blank	1.0	244.36185503005981	2.5087506771087646
50	228.60933351516724	pulse	1	t		48.0	2.5	blank	1.0	245.95407247543335	
50	229.52586674690247	fix_post	2		12	48.0	2.5	blank	1.0	246.87060570716858	0.10004234313964844
51	229.62590909004211	fix_pre	0		120	49.0	2.5	/experiments/Knapen_AOT/AOT_stimuli/rescaled_final/2062_fw.mp4	0.0	246.97064805030823	1.0084331035614014
51	230.20949125289917	pulse	0	t		49.0	2.5	/experiments/Knapen_AOT/AOT_stimuli/rescaled_final/2062_fw.mp4	0.0	247.55423021316528	
51	230.63434219360352	movie	1		276	49.0	2.5	/experiments/Knapen_AOT/AOT_stimuli/rescaled_final/2062_fw.mp4	0.0	247.97908115386963	2.4920449256896973
51	231.80791091918945	pulse	1	t		49.0	2.5	/experiments/Knapen_AOT/AOT_stimuli/rescaled_final/2062_fw.mp4	0.0	249.15264987945557	
51	233.1263871192932	fix_post	2		12	49.0	2.5	/experiments/Knapen_AOT/AOT_stimuli/rescaled_final/2062_fw.mp4	0.0	250.47112607955933	0.1000370979309082
52	233.22642421722412	fix_pre	0		120	50.0	2.5	/experiments/Knapen_AOT/AOT_stimuli/rescaled_final/1525_rv.mp4	0.0	250.57116317749023	1.0084986686706543
52	233.40995931625366	pulse	0	t		50.0	2.5	/experiments/Knapen_AOT/AOT_stimuli/rescaled_final/1525_rv.mp4	0.0	250.75469827651978	
52	234.23492288589478	movie	1		277	50.0	2.5	/experiments/Knapen_AOT/AOT_stimuli/rescaled_final/1525_rv.mp4	0.0	251.5796618461609	2.492039680480957
52	235.00822138786316	pulse	1	t		50.0	2.5	/experiments/Knapen_AOT/AOT_stimuli/rescaled_final/1525_rv.mp4	0.0	252.35296034812927	
52	236.6087303161621	pulse	1	t		50.0	2.5	/experiments/Knapen_AOT/AOT_stimuli/rescaled_final/1525_rv.mp4	0.0	253.95346927642822	
52	236.72696256637573	fix_post	2		12	50.0	2.5	/experiments/Knapen_AOT/AOT_stimuli/rescaled_final/1525_rv.mp4	0.0	254.07170152664185	0.09999537467956543
53	236.8269579410553	fix_pre	0		120	51.0	2.5	/experiments/Knapen_AOT/AOT_stimuli/rescaled_final/2132_rv.mp4	0.0	254.1716969013214	1.008467435836792
53	237.8354253768921	movie	1		281	51.0	2.5	/experiments/Knapen_AOT/AOT_stimuli/rescaled_final/2132_rv.mp4	0.0	255.1801643371582	2.4920430183410645
53	238.21090745925903	pulse	1	t		51.0	2.5	/experiments/Knapen_AOT/AOT_stimuli/rescaled_final/2132_rv.mp4	0.0	255.55564641952515	
53	239.80897331237793	pulse	1	t		51.0	2.5	/experiments/Knapen_AOT/AOT_stimuli/rescaled_final/2132_rv.mp4	0.0	257.15371227264404	
53	240.32746839523315	fix_post	2		12	51.0	2.5	/experiments/Knapen_AOT/AOT_stimuli/rescaled_final/2132_rv.mp4	0.0	257.67220735549927	0.1000220775604248
54	240.42749047279358	fix_pre	0		119	52.0	2.5	/experiments/Knapen_AOT/AOT_stimuli/rescaled_final/2006_rv.mp4	0.0	257.7722294330597	1.000145673751831
54	241.41124296188354	pulse	0	t		52.0	2.5	/experiments/Knapen_AOT/AOT_stimuli/rescaled_final/2006_rv.mp4	0.0	258.75598192214966	
54	241.4276361465454	movie	1		286	52.0	2.5	/experiments/Knapen_AOT/AOT_stimuli/rescaled_final/2006_rv.mp4	0.0	258.7723751068115	2.50044846534729
54	243.01021718978882	pulse	1	t		52.0	2.5	/experiments/Knapen_AOT/AOT_stimuli/rescaled_final/2006_rv.mp4	0.0	260.35495615005493	
54	243.9280846118927	fix_post	2		12	52.0	2.5	/experiments/Knapen_AOT/AOT_stimuli/rescaled_final/2006_rv.mp4	0.0	261.2728235721588	0.09993624687194824
55	244.02802085876465	fix_pre	0		120	53.0	2.5	/experiments/Knapen_AOT/AOT_stimuli/rescaled_final/0724_rv.mp4	0.0	261.37275981903076	1.00850248336792
55	244.61168241500854	pulse	0	t		53.0	2.5	/experiments/Knapen_AOT/AOT_stimuli/rescaled_final/0724_rv.mp4	0.0	261.95642137527466	
55	245.03652334213257	movie	1		272	53.0	2.5	/experiments/Knapen_AOT/AOT_stimuli/rescaled_final/0724_rv.mp4	0.0	262.3812623023987	2.49202299118042
55	246.21032428741455	pulse	1	t		53.0	2.5	/experiments/Knapen_AOT/AOT_stimuli/rescaled_final/0724_rv.mp4	0.0	263.55506324768066	
55	247.528546333313	fix_post	2		12	53.0	2.5	/experiments/Knapen_AOT/AOT_stimuli/rescaled_final/0724_rv.mp4	0.0	264.8732852935791	0.10001683235168457
56	247.62856316566467	fix_pre	0		120	54.0	2.5	/experiments/Knapen_AOT/AOT_stimuli/rescaled_final/2094_fw.mp4	0.0	264.9733021259308	1.008558988571167
56	247.81220531463623	pulse	0	t		54.0	2.5	/experiments/Knapen_AOT/AOT_stimuli/rescaled_final/2094_fw.mp4	0.0	265.15694427490234	
56	248.63712215423584	movie	1		287	54.0	2.5	/experiments/Knapen_AOT/AOT_stimuli/rescaled_final/2094_fw.mp4	0.0	265.98186111450195	2.492006778717041
56	249.41033220291138	pulse	1	t		54.0	2.5	/experiments/Knapen_AOT/AOT_stimuli/rescaled_final/2094_fw.mp4	0.0	266.7550711631775	
56	251.01073360443115	pulse	1	t		54.0	2.5	/experiments/Knapen_AOT/AOT_stimuli/rescaled_final/2094_fw.mp4	0.0	268.35547256469727	
56	251.12912893295288	fix_post	2		12	54.0	2.5	/experiments/Knapen_AOT/AOT_stimuli/rescaled_final/2094_fw.mp4	0.0	268.473867893219	0.10004520416259766
57	251.22917413711548	fix_pre	0		120	55.0	2.5	blank	1.0	268.5739130973816	1.0001087188720703
57	252.22928285598755	movie	1		300	55.0	2.5	blank	1.0	269.57402181625366	2.500337839126587
57	252.6128692626953	pulse	1	t		55.0	2.5	blank	1.0	269.9576082229614	
57	254.2131791114807	pulse	1	t		55.0	2.5	blank	1.0	271.5579180717468	
57	254.72962069511414	fix_post	2		12	55.0	2.5	blank	1.0	272.07435965538025	0.10002803802490234
58	254.82964873313904	fix_pre	0		119	56.0	2.5	/experiments/Knapen_AOT/AOT_stimuli/rescaled_final/0722_rv.mp4	0.0	272.17438769340515	1.000143051147461
58	255.80543637275696	pulse	0	t		56.0	2.5	/experiments/Knapen_AOT/AOT_stimuli/rescaled_final/0722_rv.mp4	0.0	273.15017533302307	
58	255.8297917842865	movie	1		285	56.0	2.5	/experiments/Knapen_AOT/AOT_stimuli/rescaled_final/0722_rv.mp4	0.0	273.1745307445526	2.5004897117614746
58	257.40554428100586	pulse	1	t		56.0	2.5	/experiments/Knapen_AOT/AOT_stimuli/rescaled_final/0722_rv.mp4	0.0	274.750283241272	
58	258.330281496048	fix_post	2		12	56.0	2.5	/experiments/Knapen_AOT/AOT_stimuli/rescaled_final/0722_rv.mp4	0.0	275.6750204563141	0.09997892379760742
59	258.4302604198456	fix_pre	0		120	57.0	2.5	/experiments/Knapen_AOT/AOT_stimuli/rescaled_final/2094_rv.mp4	0.0	275.7749993801117	1.00844144821167
59	259.0055775642395	pulse	0	t		57.0	2.5	/experiments/Knapen_AOT/AOT_stimuli/rescaled_final/2094_rv.mp4	0.0	276.3503165245056	
59	259.43870186805725	movie	1		280	57.0	2.5	/experiments/Knapen_AOT/AOT_stimuli/rescaled_final/2094_rv.mp4	0.0	276.78344082832336	2.491999626159668
59	260.6056180000305	pulse	1	t		57.0	2.5	/experiments/Knapen_AOT/AOT_stimuli/rescaled_final/2094_rv.mp4	0.0	277.95035696029663	
59	261.9307014942169	fix_post	2		12	57.0	2.5	/experiments/Knapen_AOT/AOT_stimuli/rescaled_final/2094_rv.mp4	0.0	279.27544045448303	0.10001730918884277
60	262.03071880340576	fix_pre	0		120	58.0	2.5	/experiments/Knapen_AOT/AOT_stimuli/rescaled_final/2043_fw.mp4	0.0	279.3754577636719	1.008603811264038
60	262.20603704452515	pulse	0	t		58.0	2.5	/experiments/Knapen_AOT/AOT_stimuli/rescaled_final/2043_fw.mp4	0.0	279.55077600479126	
60	263.0393226146698	movie	1		283	58.0	2.5	/experiments/Knapen_AOT/AOT_stimuli/rescaled_final/2043_fw.mp4	0.0	280.3840615749359	2.491922616958618
60	263.8062334060669	pulse	1	t		58.0	2.5	/experiments/Knapen_AOT/AOT_stimuli/rescaled_final/2043_fw.mp4	0.0	281.150972366333	
60	265.4065001010895	pulse	1	t		58.0	2.5	/experiments/Knapen_AOT/AOT_stimuli/rescaled_final/2043_fw.mp4	0.0	282.7512390613556	
60	265.5312452316284	fix_post	2		12	58.0	2.5	/experiments/Knapen_AOT/AOT_stimuli/rescaled_final/2043_fw.mp4	0.0	282.87598419189453	0.10002946853637695
61	265.6312747001648	fix_pre	0		120	59.0	2.5	/experiments/Knapen_AOT/AOT_stimuli/rescaled_final/1296_rv.mp4	0.0	282.9760136604309	1.0084812641143799
61	266.6397559642792	movie	1		287	59.0	2.5	/experiments/Knapen_AOT/AOT_stimuli/rescaled_final/1296_rv.mp4	0.0	283.9844949245453	2.49202823638916
61	267.0068197250366	pulse	1	t		59.0	2.5	/experiments/Knapen_AOT/AOT_stimuli/rescaled_final/1296_rv.mp4	0.0	284.35155868530273	
61	268.6069493293762	pulse	1	t		59.0	2.5	/experiments/Knapen_AOT/AOT_stimuli/rescaled_final/1296_rv.mp4	0.0	285.95168828964233	
61	269.13178420066833	fix_post	2		12	59.0	2.5	/experiments/Knapen_AOT/AOT_stimuli/rescaled_final/1296_rv.mp4	0.0	286.47652316093445	0.10002303123474121
62	269.2318072319031	fix_pre	0		118	60.0	2.5	/experiments/Knapen_AOT/AOT_stimuli/rescaled_final/0036_rv.mp4	0.0	286.5765461921692	0.991847038269043
62	270.20735001564026	pulse	0	t		60.0	2.5	/experiments/Knapen_AOT/AOT_stimuli/rescaled_final/0036_rv.mp4	0.0	287.5520889759064	
62	270.2236542701721	movie	1		282	60.0	2.5	/experiments/Knapen_AOT/AOT_stimuli/rescaled_final/0036_rv.mp4	0.0	287.56839323043823	2.5003483295440674
62	271.8056995868683	pulse	1	t		60.0	2.5	/experiments/Knapen_AOT/AOT_stimuli/rescaled_final/0036_rv.mp4	0.0	289.1504385471344	
62	272.7240025997162	fix_post	2		12	60.0	2.5	/experiments/Knapen_AOT/AOT_stimuli/rescaled_final/0036_rv.mp4	0.0	290.0687415599823	0.10001230239868164
63	272.82401490211487	fix_pre	0		120	61.0	2.5	/experiments/Knapen_AOT/AOT_stimuli/rescaled_final/0222_rv.mp4	0.0	290.168753862381	1.0084829330444336
63	273.4077606201172	pulse	0	t		61.0	2.5	/experiments/Knapen_AOT/AOT_stimuli/rescaled_final/0222_rv.mp4	0.0	290.7524995803833	
63	273.8324978351593	movie	1		284	61.0	2.5	/experiments/Knapen_AOT/AOT_stimuli/rescaled_final/0222_rv.mp4	0.0	291.1772367954254	2.492107629776001
63	275.00576972961426	pulse	1	t		61.0	2.5	/experiments/Knapen_AOT/AOT_stimuli/rescaled_final/0222_rv.mp4	0.0	292.35050868988037	
63	276.3246054649353	fix_post	2		12	61.0	2.5	/experiments/Knapen_AOT/AOT_stimuli/rescaled_final/0222_rv.mp4	0.0	293.6693444252014	0.09994673728942871
64	276.42455220222473	fix_pre	0		120	62.0	2.5	/experiments/Knapen_AOT/AOT_stimuli/rescaled_final/0094_rv.mp4	0.0	293.76929116249084	1.008507251739502
64	276.6081175804138	pulse	0	t		62.0	2.5	/experiments/Knapen_AOT/AOT_stimuli/rescaled_final/0094_rv.mp4	0.0	293.95285654067993	
64	277.43305945396423	movie	1		293	62.0	2.5	/experiments/Knapen_AOT/AOT_stimuli/rescaled_final/0094_rv.mp4	0.0	294.77779841423035	2.4920270442962646
64	278.2060852050781	pulse	1	t		62.0	2.5	/experiments/Knapen_AOT/AOT_stimuli/rescaled_final/0094_rv.mp4	0.0	295.55082416534424	
64	279.80655550956726	pulse	1	t		62.0	2.5	/experiments/Knapen_AOT/AOT_stimuli/rescaled_final/0094_rv.mp4	0.0	297.1512944698334	
64	279.9250864982605	fix_post	2		12	62.0	2.5	/experiments/Knapen_AOT/AOT_stimuli/rescaled_final/0094_rv.mp4	0.0	297.2698254585266	0.1000216007232666
65	280.02510809898376	fix_pre	0		120	63.0	2.5	blank	1.0	297.3698470592499	1.0001790523529053
65	281.02528715133667	movie	1		300	63.0	2.5	blank	1.0	298.3700261116028	2.500358819961548
65	281.4088704586029	pulse	1	t		63.0	2.5	blank	1.0	298.753609418869	
65	283.0094220638275	pulse	1	t		63.0	2.5	blank	1.0	300.3541610240936	
65	283.5256459712982	fix_post	2		12	63.0	2.5	blank	1.0	300.87038493156433	0.10008716583251953
66	283.62573313713074	fix_pre	0		119	64.0	2.5	/experiments/Knapen_AOT/AOT_stimuli/rescaled_final/1293_rv.mp4	0.0	300.97047209739685	1.0085170269012451
66	284.60945320129395	pulse	0	t		64.0	2.5	/experiments/Knapen_AOT/AOT_stimuli/rescaled_final/1293_rv.mp4	0.0	301.95419216156006	
66	284.634250164032	movie	1		284	64.0	2.5	/experiments/Knapen_AOT/AOT_stimuli/rescaled_final/1293_rv.mp4	0.0	301.9789891242981	2.4919214248657227
66	286.20842695236206	pulse	1	t		64.0	2.5	/experiments/Knapen_AOT/AOT_stimuli/rescaled_final/1293_rv.mp4	0.0	303.5531659126282	
66	287.1261715888977	fix_post	2		12	64.0	2.5	/experiments/Knapen_AOT/AOT_stimuli/rescaled_final/1293_rv.mp4	0.0	304.4709105491638	0.10002875328063965
67	287.22620034217834	fix_pre	0		120	65.0	2.5	/experiments/Knapen_AOT/AOT_stimuli/rescaled_final/0890_rv.mp4	0.0	304.57093930244446	1.0085055828094482
67	287.8098130226135	pulse	0	t		65.0	2.5	/experiments/Knapen_AOT/AOT_stimuli/rescaled_final/0890_rv.mp4	0.0	305.15455198287964	
67	288.2347059249878	movie	1		287	65.0	2.5	/experiments/Knapen_AOT/AOT_stimuli/rescaled_final/0890_rv.mp4	0.0	305.5794448852539	2.4920127391815186
67	289.40856528282166	pulse	1	t		65.0	2.5	/experiments/Knapen_AOT/AOT_stimuli/rescaled_final/0890_rv.mp4	0.0	306.75330424308777	
67	290.7267186641693	fix_post	2		12	65.0	2.5	/experiments/Knapen_AOT/AOT_stimuli/rescaled_final/0890_rv.mp4	0.0	308.0714576244354	0.1000821590423584
68	290.82680082321167	fix_pre	0		120	66.0	2.5	/experiments/Knapen_AOT/AOT_stimuli/rescaled_final/2025_rv.mp4	0.0	308.1715397834778	1.008486032485962
68	291.01039028167725	pulse	0	t		66.0	2.5	/experiments/Knapen_AOT/AOT_stimuli/rescaled_final/2025_rv.mp4	0.0	308.35512924194336	
68	291.83528685569763	movie	1		269	66.0	2.5	/experiments/Knapen_AOT/AOT_stimuli/rescaled_final/2025_rv.mp4	0.0	309.18002581596375	2.4919607639312744
68	292.6090443134308	pulse	1	t		66.0	2.5	/experiments/Knapen_AOT/AOT_stimuli/rescaled_final/2025_rv.mp4	0.0	309.9537832736969	
68	294.2087996006012	pulse	1	t		66.0	2.5	/experiments/Knapen_AOT/AOT_stimuli/rescaled_final/2025_rv.mp4	0.0	311.5535385608673	
68	294.3272476196289	fix_post	2		12	66.0	2.5	/experiments/Knapen_AOT/AOT_stimuli/rescaled_final/2025_rv.mp4	0.0	311.671986579895	0.100067138671875
69	294.4273147583008	fix_pre	0		120	67.0	2.5	/experiments/Knapen_AOT/AOT_stimuli/rescaled_final/1934_rv.mp4	0.0	311.7720537185669	1.008467674255371
69	295.43578243255615	movie	1		279	67.0	2.5	/experiments/Knapen_AOT/AOT_stimuli/rescaled_final/1934_rv.mp4	0.0	312.78052139282227	2.492197036743164
69	295.80946803092957	pulse	1	t		67.0	2.5	/experiments/Knapen_AOT/AOT_stimuli/rescaled_final/1934_rv.mp4	0.0	313.1542069911957	
69	297.40913343429565	pulse	1	t		67.0	2.5	/experiments/Knapen_AOT/AOT_stimuli/rescaled_final/1934_rv.mp4	0.0	314.75387239456177	
69	297.9279794692993	fix_post	2		12	67.0	2.5	/experiments/Knapen_AOT/AOT_stimuli/rescaled_final/1934_rv.mp4	0.0	315.27271842956543	0.09983348846435547
70	298.0278129577637	fix_pre	0		119	68.0	2.5	blank	1.0	315.3725519180298	0.9919774532318115
70	299.0116374492645	pulse	0	t		68.0	2.5	blank	1.0	316.35637640953064	
70	299.0197904109955	movie	1		301	68.0	2.5	blank	1.0	316.3645293712616	2.5085275173187256
70	300.61178827285767	pulse	1	t		68.0	2.5	blank	1.0	317.9565272331238	
70	301.5283179283142	fix_post	2		12	68.0	2.5	blank	1.0	318.8730568885803	0.10002779960632324
71	301.62834572792053	fix_pre	0		120	69.0	2.5	/experiments/Knapen_AOT/AOT_stimuli/rescaled_final/2151_fw.mp4	0.0	318.97308468818665	1.0084974765777588
71	302.21197414398193	pulse	0	t		69.0	2.5	/experiments/Knapen_AOT/AOT_stimuli/rescaled_final/2151_fw.mp4	0.0	319.55671310424805	
71	302.6368432044983	movie	1		287	69.0	2.5	/experiments/Knapen_AOT/AOT_stimuli/rescaled_final/2151_fw.mp4	0.0	319.9815821647644	2.4920692443847656
71	303.81041979789734	pulse	1	t		69.0	2.5	/experiments/Knapen_AOT/AOT_stimuli/rescaled_final/2151_fw.mp4	0.0	321.15515875816345	
71	305.12891244888306	fix_post	2		12	69.0	2.5	/experiments/Knapen_AOT/AOT_stimuli/rescaled_final/2151_fw.mp4	0.0	322.47365140914917	0.09998798370361328
72	305.22890043258667	fix_pre	0		120	70.0	2.5	/experiments/Knapen_AOT/AOT_stimuli/rescaled_final/1996_rv.mp4	0.0	322.5736393928528	1.0085663795471191
72	305.41255474090576	pulse	0	t		70.0	2.5	/experiments/Knapen_AOT/AOT_stimuli/rescaled_final/1996_rv.mp4	0.0	322.7572937011719	
72	306.2374668121338	movie	1		285	70.0	2.5	/experiments/Knapen_AOT/AOT_stimuli/rescaled_final/1996_rv.mp4	0.0	323.5822057723999	2.491943597793579
72	307.01086163520813	pulse	1	t		70.0	2.5	/experiments/Knapen_AOT/AOT_stimuli/rescaled_final/1996_rv.mp4	0.0	324.35560059547424	
72	308.6048126220703	pulse	1	t		70.0	2.5	/experiments/Knapen_AOT/AOT_stimuli/rescaled_final/1996_rv.mp4	0.0	325.9495515823364	
72	308.72941040992737	fix_post	2		12	70.0	2.5	/experiments/Knapen_AOT/AOT_stimuli/rescaled_final/1996_rv.mp4	0.0	326.0741493701935	0.10002827644348145
73	308.82943868637085	fix_pre	0		120	71.0	2.5	/experiments/Knapen_AOT/AOT_stimuli/rescaled_final/0531_fw.mp4	0.0	326.17417764663696	1.0084764957427979
73	309.83791518211365	movie	1		258	71.0	2.5	/experiments/Knapen_AOT/AOT_stimuli/rescaled_final/0531_fw.mp4	0.0	327.18265414237976	2.4920318126678467
73	310.21344447135925	pulse	1	t		71.0	2.5	/experiments/Knapen_AOT/AOT_stimuli/rescaled_final/0531_fw.mp4	0.0	327.55818343162537	
73	311.8050887584686	pulse	1	t		71.0	2.5	/experiments/Knapen_AOT/AOT_stimuli/rescaled_final/0531_fw.mp4	0.0	329.14982771873474	
73	312.3299469947815	fix_post	2		12	71.0	2.5	/experiments/Knapen_AOT/AOT_stimuli/rescaled_final/0531_fw.mp4	0.0	329.6746859550476	0.10010123252868652
74	312.4300482273102	fix_pre	0		118	72.0	2.5	/experiments/Knapen_AOT/AOT_stimuli/rescaled_final/0366_rv.mp4	0.0	329.7747871875763	0.9917383193969727
74	313.4053404331207	pulse	0	t		72.0	2.5	/experiments/Knapen_AOT/AOT_stimuli/rescaled_final/0366_rv.mp4	0.0	330.75007939338684	
74	313.42178654670715	movie	1		284	72.0	2.5	/experiments/Knapen_AOT/AOT_stimuli/rescaled_final/0366_rv.mp4	0.0	330.76652550697327	2.500377893447876
74	315.00564432144165	pulse	1	t		72.0	2.5	/experiments/Knapen_AOT/AOT_stimuli/rescaled_final/0366_rv.mp4	0.0	332.35038328170776	
74	315.92216444015503	fix_post	2		12	72.0	2.5	/experiments/Knapen_AOT/AOT_stimuli/rescaled_final/0366_rv.mp4	0.0	333.26690340042114	0.10000848770141602
75	316.02217292785645	fix_pre	0		120	73.0	2.5	/experiments/Knapen_AOT/AOT_stimuli/rescaled_final/1133_rv.mp4	0.0	333.36691188812256	1.0085160732269287
75	316.60591340065	pulse	0	t		73.0	2.5	/experiments/Knapen_AOT/AOT_stimuli/rescaled_final/1133_rv.mp4	0.0	333.95065236091614	
75	317.0306890010834	movie	1		275	73.0	2.5	/experiments/Knapen_AOT/AOT_stimuli/rescaled_final/1133_rv.mp4	0.0	334.3754279613495	2.492009401321411
75	318.2062141895294	pulse	1	t		73.0	2.5	/experiments/Knapen_AOT/AOT_stimuli/rescaled_final/1133_rv.mp4	0.0	335.55095314979553	
75	319.5226984024048	fix_post	2		12	73.0	2.5	/experiments/Knapen_AOT/AOT_stimuli/rescaled_final/1133_rv.mp4	0.0	336.8674373626709	0.10002994537353516
76	319.6227283477783	fix_pre	0		120	74.0	2.5	/experiments/Knapen_AOT/AOT_stimuli/rescaled_final/0409_fw.mp4	0.0	336.96746730804443	1.0084936618804932
76	319.8065686225891	pulse	0	t		74.0	2.5	/experiments/Knapen_AOT/AOT_stimuli/rescaled_final/0409_fw.mp4	0.0	337.1513075828552	
76	320.6312220096588	movie	1		279	74.0	2.5	/experiments/Knapen_AOT/AOT_stimuli/rescaled_final/0409_fw.mp4	0.0	337.9759609699249	2.4920568466186523
76	321.40575075149536	pulse	1	t		74.0	2.5	/experiments/Knapen_AOT/AOT_stimuli/rescaled_final/0409_fw.mp4	0.0	338.7504897117615	
76	323.0069224834442	pulse	1	t		74.0	2.5	/experiments/Knapen_AOT/AOT_stimuli/rescaled_final/0409_fw.mp4	0.0	340.3516614437103	
76	323.12327885627747	fix_post	2		12	74.0	2.5	/experiments/Knapen_AOT/AOT_stimuli/rescaled_final/0409_fw.mp4	0.0	340.4680178165436	0.10006499290466309
77	323.22334384918213	fix_pre	0		120	75.0	2.5	blank	1.0	340.56808280944824	1.0000638961791992
77	324.2234077453613	movie	1		300	75.0	2.5	blank	1.0	341.56814670562744	2.5003693103790283
77	324.6070809364319	pulse	1	t		75.0	2.5	blank	1.0	341.951819896698	
77	326.20735478401184	pulse	1	t		75.0	2.5	blank	1.0	343.55209374427795	
77	326.72377705574036	fix_post	2		12	75.0	2.5	blank	1.0	344.06851601600647	0.10004544258117676
78	326.82382249832153	fix_pre	0		119	76.0	2.5	/experiments/Knapen_AOT/AOT_stimuli/rescaled_final/1614_fw.mp4	0.0	344.16856145858765	1.000145435333252
78	327.80759835243225	pulse	0	t		76.0	2.5	/experiments/Knapen_AOT/AOT_stimuli/rescaled_final/1614_fw.mp4	0.0	345.15233731269836	
78	327.8239679336548	movie	1		279	76.0	2.5	/experiments/Knapen_AOT/AOT_stimuli/rescaled_final/1614_fw.mp4	0.0	345.1687068939209	2.5003485679626465
78	329.40608167648315	pulse	1	t		76.0	2.5	/experiments/Knapen_AOT/AOT_stimuli/rescaled_final/1614_fw.mp4	0.0	346.75082063674927	
78	330.32431650161743	fix_post	2		12	76.0	2.5	/experiments/Knapen_AOT/AOT_stimuli/rescaled_final/1614_fw.mp4	0.0	347.66905546188354	0.10001349449157715
79	330.424329996109	fix_pre	0		120	77.0	2.5	/experiments/Knapen_AOT/AOT_stimuli/rescaled_final/0724_rv.mp4	0.0	347.7690689563751	1.008638858795166
79	331.007994890213	pulse	0	t		77.0	2.5	/experiments/Knapen_AOT/AOT_stimuli/rescaled_final/0724_rv.mp4	0.0	348.3527338504791	
79	331.4329688549042	movie	1		278	77.0	2.5	/experiments/Knapen_AOT/AOT_stimuli/rescaled_final/0724_rv.mp4	0.0	348.7777078151703	2.4918975830078125
79	332.6064364910126	pulse	1	t		77.0	2.5	/experiments/Knapen_AOT/AOT_stimuli/rescaled_final/0724_rv.mp4	0.0	349.9511754512787	
79	333.924866437912	fix_post	2		12	77.0	2.5	/experiments/Knapen_AOT/AOT_stimuli/rescaled_final/0724_rv.mp4	0.0	351.2696053981781	0.10001802444458008
80	334.02488446235657	fix_pre	0		120	78.0	2.5	/experiments/Knapen_AOT/AOT_stimuli/rescaled_final/0781_rv.mp4	0.0	351.3696234226227	1.0084795951843262
80	334.2084536552429	pulse	0	t		78.0	2.5	/experiments/Knapen_AOT/AOT_stimuli/rescaled_final/0781_rv.mp4	0.0	351.55319261550903	
80	335.0333640575409	movie	1		273	78.0	2.5	/experiments/Knapen_AOT/AOT_stimuli/rescaled_final/0781_rv.mp4	0.0	352.378103017807	2.4920403957366943
80	335.80778551101685	pulse	1	t		78.0	2.5	/experiments/Knapen_AOT/AOT_stimuli/rescaled_final/0781_rv.mp4	0.0	353.15252447128296	
80	337.40684938430786	pulse	1	t		78.0	2.5	/experiments/Knapen_AOT/AOT_stimuli/rescaled_final/0781_rv.mp4	0.0	354.751588344574	
80	337.5254044532776	fix_post	2		12	78.0	2.5	/experiments/Knapen_AOT/AOT_stimuli/rescaled_final/0781_rv.mp4	0.0	354.8701434135437	0.10001873970031738
81	337.6254231929779	fix_pre	0		120	79.0	2.5	/experiments/Knapen_AOT/AOT_stimuli/rescaled_final/1466_fw.mp4	0.0	354.970162153244	1.0085034370422363
81	338.63392663002014	movie	1		287	79.0	2.5	/experiments/Knapen_AOT/AOT_stimuli/rescaled_final/1466_fw.mp4	0.0	355.97866559028625	2.492018699645996
81	339.00877809524536	pulse	1	t		79.0	2.5	/experiments/Knapen_AOT/AOT_stimuli/rescaled_final/1466_fw.mp4	0.0	356.3535170555115	
81	340.60760831832886	pulse	1	t		79.0	2.5	/experiments/Knapen_AOT/AOT_stimuli/rescaled_final/1466_fw.mp4	0.0	357.95234727859497	
81	341.12594532966614	fix_post	2		12	79.0	2.5	/experiments/Knapen_AOT/AOT_stimuli/rescaled_final/1466_fw.mp4	0.0	358.47068428993225	0.10006284713745117
82	341.2260081768036	fix_pre	0		119	80.0	2.5	/experiments/Knapen_AOT/AOT_stimuli/rescaled_final/1972_rv.mp4	0.0	358.5707471370697	1.0001540184020996
82	342.20966815948486	pulse	0	t		80.0	2.5	/experiments/Knapen_AOT/AOT_stimuli/rescaled_final/1972_rv.mp4	0.0	359.554407119751	
82	342.2261621952057	movie	1		276	80.0	2.5	/experiments/Knapen_AOT/AOT_stimuli/rescaled_final/1972_rv.mp4	0.0	359.5709011554718	2.50032114982605
82	343.80842208862305	pulse	1	t		80.0	2.5	/experiments/Knapen_AOT/AOT_stimuli/rescaled_final/1972_rv.mp4	0.0	361.15316104888916	
82	344.72648334503174	fix_post	2		12	80.0	2.5	/experiments/Knapen_AOT/AOT_stimuli/rescaled_final/1972_rv.mp4	0.0	362.07122230529785	0.10001754760742188
83	344.82650089263916	fix_pre	0		120	81.0	2.5	/experiments/Knapen_AOT/AOT_stimuli/rescaled_final/0611_rv.mp4	0.0	362.1712398529053	1.008531093597412
83	345.41018748283386	pulse	0	t		81.0	2.5	/experiments/Knapen_AOT/AOT_stimuli/rescaled_final/0611_rv.mp4	0.0	362.7549264431	
83	345.8350319862366	movie	1		282	81.0	2.5	/experiments/Knapen_AOT/AOT_stimuli/rescaled_final/0611_rv.mp4	0.0	363.1797709465027	2.4919962882995605
83	347.00864601135254	pulse	1	t		81.0	2.5	/experiments/Knapen_AOT/AOT_stimuli/rescaled_final/0611_rv.mp4	0.0	364.35338497161865	
83	348.32702827453613	fix_post	2		12	81.0	2.5	/experiments/Knapen_AOT/AOT_stimuli/rescaled_final/0611_rv.mp4	0.0	365.67176723480225	0.10002446174621582
84	348.42705273628235	fix_pre	0		120	82.0	2.5	blank	1.0	365.77179169654846	1.0001416206359863
84	348.61062264442444	pulse	0	t		82.0	2.5	blank	1.0	365.95536160469055	
84	349.42719435691833	movie	1		300	82.0	2.5	blank	1.0	366.77193331718445	2.5003674030303955
84	350.21086621284485	pulse	1	t		82.0	2.5	blank	1.0	367.55560517311096	
84	351.8110888004303	pulse	1	t		82.0	2.5	blank	1.0	369.1558277606964	
84	351.92756175994873	fix_post	2		12	82.0	2.5	blank	1.0	369.27230072021484	0.10004234313964844
85	352.0276041030884	fix_pre	0		120	83.0	2.5	/experiments/Knapen_AOT/AOT_stimuli/rescaled_final/2143_rv.mp4	0.0	369.3723430633545	1.0084738731384277
85	353.0360779762268	movie	1		274	83.0	2.5	/experiments/Knapen_AOT/AOT_stimuli/rescaled_final/2143_rv.mp4	0.0	370.3808169364929	2.4920265674591064
85	353.4097354412079	pulse	1	t		83.0	2.5	/experiments/Knapen_AOT/AOT_stimuli/rescaled_final/2143_rv.mp4	0.0	370.754474401474	
85	355.01061820983887	pulse	1	t		83.0	2.5	/experiments/Knapen_AOT/AOT_stimuli/rescaled_final/2143_rv.mp4	0.0	372.355357170105	
85	355.5281045436859	fix_post	2		12	83.0	2.5	/experiments/Knapen_AOT/AOT_stimuli/rescaled_final/2143_rv.mp4	0.0	372.872843503952	0.10006451606750488
87	355.6281690597534	stim	0		1715					372.97290802001953	14.293774604797363
87	356.6119170188904	pulse	0	t						373.9566559791565	
87	358.21202325820923	pulse	0	t						375.55676221847534	
87	359.812593460083	pulse	0	t						377.1573324203491	
87	361.4127106666565	pulse	0	t						378.7574496269226	
87	363.0051417350769	pulse	0	t						380.349880695343	
87	364.60530710220337	pulse	0	t						381.9500460624695	
87	366.2052128314972	pulse	0	t						383.5499517917633	
87	367.80533266067505	pulse	0	t						385.15007162094116	
87	369.40559339523315	pulse	0	t						386.75033235549927	
