trial_nr	onset	event_type	phase	response	nr_frames	movie_index	movie_duration	movie_file	blank	onset_abs	duration
0	0.158158540725708	stim	0		86					17.13086247444153	0.7166411876678467
0	0.8588204383850098	response	0	space						17.83152437210083	
1	0.8747997283935547	stim	0		4578					17.847503662109375	38.16510510444641
1	39.0301992893219	pulse	0	t						56.00290322303772	
1	39.039904832839966	stim	1		1715					56.012608766555786	14.301153182983398
1	40.62270402908325	pulse	1	t						57.59540796279907	
1	42.22290587425232	pulse	1	t						59.19560980796814	
1	43.823431730270386	pulse	1	t						60.796135663986206	
1	45.4233980178833	pulse	1	t						62.39610195159912	
1	47.02367186546326	pulse	1	t						63.99637579917908	
1	48.62385058403015	pulse	1	t						65.59655451774597	
1	50.224164962768555	pulse	1	t						67.19686889648438	
1	51.82436180114746	pulse	1	t						68.79706573486328	
2	53.341058015823364	fix_pre	0		11	0.0	2.5	/experiments/Knapen_AOT/AOT_stimuli/rescaled_final/1126_fw.mp4	0.0	70.31376194953918	0.10843014717102051
2	53.42457151412964	pulse	0	t		0.0	2.5	/experiments/Knapen_AOT/AOT_stimuli/rescaled_final/1126_fw.mp4	0.0	70.39727544784546	
2	53.449488162994385	movie	1		283	0.0	2.5	/experiments/Knapen_AOT/AOT_stimuli/rescaled_final/1126_fw.mp4	0.0	70.4221920967102	2.491931438446045
2	55.02309250831604	pulse	1	t		0.0	2.5	/experiments/Knapen_AOT/AOT_stimuli/rescaled_final/1126_fw.mp4	0.0	71.99579644203186	
2	55.94141960144043	fix_post	2		12	0.0	2.5	/experiments/Knapen_AOT/AOT_stimuli/rescaled_final/1126_fw.mp4	0.0	72.91412353515625	0.10002636909484863
3	56.04144597053528	fix_pre	0		120	1.0	2.5	/experiments/Knapen_AOT/AOT_stimuli/rescaled_final/0416_rv.mp4	0.0	73.0141499042511	1.0085525512695312
3	56.62506818771362	pulse	0	t		1.0	2.5	/experiments/Knapen_AOT/AOT_stimuli/rescaled_final/0416_rv.mp4	0.0	73.59777212142944	
3	57.04999852180481	movie	1		273	1.0	2.5	/experiments/Knapen_AOT/AOT_stimuli/rescaled_final/0416_rv.mp4	0.0	74.02270245552063	2.4919703006744385
3	58.223387002944946	pulse	1	t		1.0	2.5	/experiments/Knapen_AOT/AOT_stimuli/rescaled_final/0416_rv.mp4	0.0	75.19609093666077	
3	59.54196882247925	fix_post	2		12	1.0	2.5	/experiments/Knapen_AOT/AOT_stimuli/rescaled_final/0416_rv.mp4	0.0	76.51467275619507	0.1002802848815918
4	59.64224910736084	fix_pre	0		120	2.0	2.5	/experiments/Knapen_AOT/AOT_stimuli/rescaled_final/1477_fw.mp4	0.0	76.61495304107666	1.0082464218139648
4	59.825600385665894	pulse	0	t		2.0	2.5	/experiments/Knapen_AOT/AOT_stimuli/rescaled_final/1477_fw.mp4	0.0	76.79830431938171	
4	60.650495529174805	movie	1		278	2.0	2.5	/experiments/Knapen_AOT/AOT_stimuli/rescaled_final/1477_fw.mp4	0.0	77.62319946289062	2.4920401573181152
4	61.42380499839783	pulse	1	t		2.0	2.5	/experiments/Knapen_AOT/AOT_stimuli/rescaled_final/1477_fw.mp4	0.0	78.39650893211365	
4	63.019967794418335	pulse	1	t		2.0	2.5	/experiments/Knapen_AOT/AOT_stimuli/rescaled_final/1477_fw.mp4	0.0	79.99267172813416	
4	63.14253568649292	fix_post	2		12	2.0	2.5	/experiments/Knapen_AOT/AOT_stimuli/rescaled_final/1477_fw.mp4	0.0	80.11523962020874	0.09998798370361328
5	63.24252367019653	fix_pre	0		120	3.0	2.5	/experiments/Knapen_AOT/AOT_stimuli/rescaled_final/1567_fw.mp4	0.0	80.21522760391235	1.00856614112854
5	64.25108981132507	movie	1		281	3.0	2.5	/experiments/Knapen_AOT/AOT_stimuli/rescaled_final/1567_fw.mp4	0.0	81.2237937450409	2.491966485977173
5	64.61816358566284	pulse	1	t		3.0	2.5	/experiments/Knapen_AOT/AOT_stimuli/rescaled_final/1567_fw.mp4	0.0	81.59086751937866	
5	66.21820497512817	pulse	1	t		3.0	2.5	/experiments/Knapen_AOT/AOT_stimuli/rescaled_final/1567_fw.mp4	0.0	83.190908908844	
5	66.74305629730225	fix_post	2		12	3.0	2.5	/experiments/Knapen_AOT/AOT_stimuli/rescaled_final/1567_fw.mp4	0.0	83.71576023101807	0.10007262229919434
6	66.84312891960144	fix_pre	0		118	4.0	2.5	/experiments/Knapen_AOT/AOT_stimuli/rescaled_final/0123_rv.mp4	0.0	83.81583285331726	0.991779088973999
6	67.81856536865234	pulse	0	t		4.0	2.5	/experiments/Knapen_AOT/AOT_stimuli/rescaled_final/0123_rv.mp4	0.0	84.79126930236816	
6	67.83490800857544	movie	1		276	4.0	2.5	/experiments/Knapen_AOT/AOT_stimuli/rescaled_final/0123_rv.mp4	0.0	84.80761194229126	2.500385284423828
6	69.41797184944153	pulse	1	t		4.0	2.5	/experiments/Knapen_AOT/AOT_stimuli/rescaled_final/0123_rv.mp4	0.0	86.39067578315735	
6	70.33529329299927	fix_post	2		12	4.0	2.5	/experiments/Knapen_AOT/AOT_stimuli/rescaled_final/0123_rv.mp4	0.0	87.30799722671509	0.10001111030578613
7	70.43530440330505	fix_pre	0		120	5.0	2.5	/experiments/Knapen_AOT/AOT_stimuli/rescaled_final/1677_fw.mp4	0.0	87.40800833702087	1.008486270904541
7	71.01891016960144	pulse	0	t		5.0	2.5	/experiments/Knapen_AOT/AOT_stimuli/rescaled_final/1677_fw.mp4	0.0	87.99161410331726	
7	71.4437906742096	movie	1		290	5.0	2.5	/experiments/Knapen_AOT/AOT_stimuli/rescaled_final/1677_fw.mp4	0.0	88.41649460792542	2.4920237064361572
7	72.61914896965027	pulse	1	t		5.0	2.5	/experiments/Knapen_AOT/AOT_stimuli/rescaled_final/1677_fw.mp4	0.0	89.59185290336609	
7	73.93581438064575	fix_post	2		12	5.0	2.5	/experiments/Knapen_AOT/AOT_stimuli/rescaled_final/1677_fw.mp4	0.0	90.90851831436157	0.10001516342163086
8	74.03582954406738	fix_pre	0		120	6.0	2.5	/experiments/Knapen_AOT/AOT_stimuli/rescaled_final/1284_rv.mp4	0.0	91.0085334777832	1.0085155963897705
8	74.21939897537231	pulse	0	t		6.0	2.5	/experiments/Knapen_AOT/AOT_stimuli/rescaled_final/1284_rv.mp4	0.0	91.19210290908813	
8	75.04434514045715	movie	1		284	6.0	2.5	/experiments/Knapen_AOT/AOT_stimuli/rescaled_final/1284_rv.mp4	0.0	92.01704907417297	2.4920008182525635
8	75.81948614120483	pulse	1	t		6.0	2.5	/experiments/Knapen_AOT/AOT_stimuli/rescaled_final/1284_rv.mp4	0.0	92.79219007492065	
8	77.41991424560547	pulse	1	t		6.0	2.5	/experiments/Knapen_AOT/AOT_stimuli/rescaled_final/1284_rv.mp4	0.0	94.39261817932129	
8	77.53634595870972	fix_post	2		12	6.0	2.5	/experiments/Knapen_AOT/AOT_stimuli/rescaled_final/1284_rv.mp4	0.0	94.50904989242554	0.10002970695495605
9	77.63637566566467	fix_pre	0		120	7.0	2.5	blank	1.0	94.6090795993805	1.0002365112304688
9	78.63661217689514	movie	1		300	7.0	2.5	blank	1.0	95.60931611061096	2.5002706050872803
9	79.02016615867615	pulse	1	t		7.0	2.5	blank	1.0	95.99287009239197	
9	80.62039732933044	pulse	1	t		7.0	2.5	blank	1.0	97.59310126304626	
9	81.13688278198242	fix_post	2		12	7.0	2.5	blank	1.0	98.10958671569824	0.10001611709594727
10	81.23689889907837	fix_pre	0		119	8.0	2.5	/experiments/Knapen_AOT/AOT_stimuli/rescaled_final/0296_rv.mp4	0.0	98.20960283279419	1.0001556873321533
10	82.22060894966125	pulse	0	t		8.0	2.5	/experiments/Knapen_AOT/AOT_stimuli/rescaled_final/0296_rv.mp4	0.0	99.19331288337708	
10	82.23705458641052	movie	1		287	8.0	2.5	/experiments/Knapen_AOT/AOT_stimuli/rescaled_final/0296_rv.mp4	0.0	99.20975852012634	2.500380039215088
10	83.819082736969	pulse	1	t		8.0	2.5	/experiments/Knapen_AOT/AOT_stimuli/rescaled_final/0296_rv.mp4	0.0	100.79178667068481	
10	84.73743462562561	fix_post	2		12	8.0	2.5	/experiments/Knapen_AOT/AOT_stimuli/rescaled_final/0296_rv.mp4	0.0	101.71013855934143	0.09998559951782227
11	84.83742022514343	fix_pre	0		120	9.0	2.5	/experiments/Knapen_AOT/AOT_stimuli/rescaled_final/0180_fw.mp4	0.0	101.81012415885925	1.0085937976837158
11	85.42115879058838	pulse	0	t		9.0	2.5	/experiments/Knapen_AOT/AOT_stimuli/rescaled_final/0180_fw.mp4	0.0	102.3938627243042	
11	85.84601402282715	movie	1		279	9.0	2.5	/experiments/Knapen_AOT/AOT_stimuli/rescaled_final/0180_fw.mp4	0.0	102.81871795654297	2.4919562339782715
11	87.01950359344482	pulse	1	t		9.0	2.5	/experiments/Knapen_AOT/AOT_stimuli/rescaled_final/0180_fw.mp4	0.0	103.99220752716064	
11	88.33797025680542	fix_post	2		12	9.0	2.5	/experiments/Knapen_AOT/AOT_stimuli/rescaled_final/0180_fw.mp4	0.0	105.31067419052124	0.10000753402709961
12	88.43797779083252	fix_pre	0		120	10.0	2.5	/experiments/Knapen_AOT/AOT_stimuli/rescaled_final/0742_fw.mp4	0.0	105.41068172454834	1.0085301399230957
12	88.62154197692871	pulse	0	t		10.0	2.5	/experiments/Knapen_AOT/AOT_stimuli/rescaled_final/0742_fw.mp4	0.0	105.59424591064453	
12	89.44650793075562	movie	1		274	10.0	2.5	/experiments/Knapen_AOT/AOT_stimuli/rescaled_final/0742_fw.mp4	0.0	106.41921186447144	2.491990804672241
12	90.21965718269348	pulse	1	t		10.0	2.5	/experiments/Knapen_AOT/AOT_stimuli/rescaled_final/0742_fw.mp4	0.0	107.1923611164093	
12	91.81988668441772	pulse	1	t		10.0	2.5	/experiments/Knapen_AOT/AOT_stimuli/rescaled_final/0742_fw.mp4	0.0	108.79259061813354	
12	91.93849873542786	fix_post	2		12	10.0	2.5	/experiments/Knapen_AOT/AOT_stimuli/rescaled_final/0742_fw.mp4	0.0	108.91120266914368	0.1000208854675293
13	92.03851962089539	fix_pre	0		120	11.0	2.5	/experiments/Knapen_AOT/AOT_stimuli/rescaled_final/0468_fw.mp4	0.0	109.0112235546112	1.0085489749908447
13	93.04706859588623	movie	1		291	11.0	2.5	/experiments/Knapen_AOT/AOT_stimuli/rescaled_final/0468_fw.mp4	0.0	110.01977252960205	2.4919776916503906
13	93.42095184326172	pulse	1	t		11.0	2.5	/experiments/Knapen_AOT/AOT_stimuli/rescaled_final/0468_fw.mp4	0.0	110.39365577697754	
13	95.02047657966614	pulse	1	t		11.0	2.5	/experiments/Knapen_AOT/AOT_stimuli/rescaled_final/0468_fw.mp4	0.0	111.99318051338196	
13	95.53904628753662	fix_post	2		12	11.0	2.5	/experiments/Knapen_AOT/AOT_stimuli/rescaled_final/0468_fw.mp4	0.0	112.51175022125244	0.1000823974609375
14	95.63912868499756	fix_pre	0		119	12.0	2.5	/experiments/Knapen_AOT/AOT_stimuli/rescaled_final/1284_fw.mp4	0.0	112.61183261871338	1.0001153945922852
14	96.62277913093567	pulse	0	t		12.0	2.5	/experiments/Knapen_AOT/AOT_stimuli/rescaled_final/1284_fw.mp4	0.0	113.59548306465149	
14	96.63924407958984	movie	1		288	12.0	2.5	/experiments/Knapen_AOT/AOT_stimuli/rescaled_final/1284_fw.mp4	0.0	113.61194801330566	2.5003626346588135
14	98.2216055393219	pulse	1	t		12.0	2.5	/experiments/Knapen_AOT/AOT_stimuli/rescaled_final/1284_fw.mp4	0.0	115.19430947303772	
14	99.13960671424866	fix_post	2		12	12.0	2.5	/experiments/Knapen_AOT/AOT_stimuli/rescaled_final/1284_fw.mp4	0.0	116.11231064796448	0.1000361442565918
15	99.23964285850525	fix_pre	0		120	13.0	2.5	blank	1.0	116.21234679222107	1.0001254081726074
15	99.82326030731201	pulse	0	t		13.0	2.5	blank	1.0	116.79596424102783	
15	100.23976826667786	movie	1		300	13.0	2.5	blank	1.0	117.21247220039368	2.5003762245178223
15	101.42351460456848	pulse	1	t		13.0	2.5	blank	1.0	118.3962185382843	
15	102.74014449119568	fix_post	2		12	13.0	2.5	blank	1.0	119.7128484249115	0.10000944137573242
16	102.84015393257141	fix_pre	0		120	14.0	2.5	/experiments/Knapen_AOT/AOT_stimuli/rescaled_final/0683_fw.mp4	0.0	119.81285786628723	1.0085155963897705
16	103.02403545379639	pulse	0	t		14.0	2.5	/experiments/Knapen_AOT/AOT_stimuli/rescaled_final/0683_fw.mp4	0.0	119.9967393875122	
16	103.84866952896118	movie	1		286	14.0	2.5	/experiments/Knapen_AOT/AOT_stimuli/rescaled_final/0683_fw.mp4	0.0	120.821373462677	2.492002248764038
16	104.62191963195801	pulse	1	t		14.0	2.5	/experiments/Knapen_AOT/AOT_stimuli/rescaled_final/0683_fw.mp4	0.0	121.59462356567383	
16	106.22237706184387	pulse	1	t		14.0	2.5	/experiments/Knapen_AOT/AOT_stimuli/rescaled_final/0683_fw.mp4	0.0	123.19508099555969	
16	106.34067177772522	fix_post	2		12	14.0	2.5	/experiments/Knapen_AOT/AOT_stimuli/rescaled_final/0683_fw.mp4	0.0	123.31337571144104	0.10005640983581543
17	106.44072818756104	fix_pre	0		120	15.0	2.5	/experiments/Knapen_AOT/AOT_stimuli/rescaled_final/1501_rv.mp4	0.0	123.41343212127686	1.0084733963012695
17	107.4492015838623	movie	1		281	15.0	2.5	/experiments/Knapen_AOT/AOT_stimuli/rescaled_final/1501_rv.mp4	0.0	124.42190551757812	2.492016553878784
17	107.8247332572937	pulse	1	t		15.0	2.5	/experiments/Knapen_AOT/AOT_stimuli/rescaled_final/1501_rv.mp4	0.0	124.79743719100952	
17	109.42278528213501	pulse	1	t		15.0	2.5	/experiments/Knapen_AOT/AOT_stimuli/rescaled_final/1501_rv.mp4	0.0	126.39548921585083	
17	109.94121813774109	fix_post	2		12	15.0	2.5	/experiments/Knapen_AOT/AOT_stimuli/rescaled_final/1501_rv.mp4	0.0	126.91392207145691	0.10011959075927734
18	110.04133772850037	fix_pre	0		119	16.0	2.5	/experiments/Knapen_AOT/AOT_stimuli/rescaled_final/0786_fw.mp4	0.0	127.01404166221619	1.0001749992370605
18	111.02494883537292	pulse	0	t		16.0	2.5	/experiments/Knapen_AOT/AOT_stimuli/rescaled_final/0786_fw.mp4	0.0	127.99765276908875	
18	111.04151272773743	movie	1		282	16.0	2.5	/experiments/Knapen_AOT/AOT_stimuli/rescaled_final/0786_fw.mp4	0.0	128.01421666145325	2.5002551078796387
18	112.62376761436462	pulse	1	t		16.0	2.5	/experiments/Knapen_AOT/AOT_stimuli/rescaled_final/0786_fw.mp4	0.0	129.59647154808044	
18	113.54176783561707	fix_post	2		12	16.0	2.5	/experiments/Knapen_AOT/AOT_stimuli/rescaled_final/0786_fw.mp4	0.0	130.51447176933289	0.10001635551452637
19	113.64178419113159	fix_pre	0		120	17.0	2.5	/experiments/Knapen_AOT/AOT_stimuli/rescaled_final/0445_rv.mp4	0.0	130.6144881248474	1.0086193084716797
19	114.22541451454163	pulse	0	t		17.0	2.5	/experiments/Knapen_AOT/AOT_stimuli/rescaled_final/0445_rv.mp4	0.0	131.19811844825745	
19	114.65040349960327	movie	1		274	17.0	2.5	/experiments/Knapen_AOT/AOT_stimuli/rescaled_final/0445_rv.mp4	0.0	131.6231074333191	2.4918739795684814
19	115.82379221916199	pulse	1	t		17.0	2.5	/experiments/Knapen_AOT/AOT_stimuli/rescaled_final/0445_rv.mp4	0.0	132.7964961528778	
19	117.14227747917175	fix_post	2		12	17.0	2.5	/experiments/Knapen_AOT/AOT_stimuli/rescaled_final/0445_rv.mp4	0.0	134.11498141288757	0.1000523567199707
20	117.24232983589172	fix_pre	0		120	18.0	2.5	/experiments/Knapen_AOT/AOT_stimuli/rescaled_final/0579_rv.mp4	0.0	134.21503376960754	1.0085597038269043
20	117.42586541175842	pulse	0	t		18.0	2.5	/experiments/Knapen_AOT/AOT_stimuli/rescaled_final/0579_rv.mp4	0.0	134.39856934547424	
20	118.25088953971863	movie	1		277	18.0	2.5	/experiments/Knapen_AOT/AOT_stimuli/rescaled_final/0579_rv.mp4	0.0	135.22359347343445	2.491959571838379
20	119.02408528327942	pulse	1	t		18.0	2.5	/experiments/Knapen_AOT/AOT_stimuli/rescaled_final/0579_rv.mp4	0.0	135.99678921699524	
20	120.62419867515564	pulse	1	t		18.0	2.5	/experiments/Knapen_AOT/AOT_stimuli/rescaled_final/0579_rv.mp4	0.0	137.59690260887146	
20	120.742849111557	fix_post	2		12	18.0	2.5	/experiments/Knapen_AOT/AOT_stimuli/rescaled_final/0579_rv.mp4	0.0	137.71555304527283	0.10000991821289062
21	120.8428590297699	fix_pre	0		120	19.0	2.5	blank	1.0	137.81556296348572	1.000260591506958
21	121.84311962127686	movie	1		300	19.0	2.5	blank	1.0	138.81582355499268	2.5002622604370117
21	122.21877360343933	pulse	1	t		19.0	2.5	blank	1.0	139.19147753715515	
21	123.81850337982178	pulse	1	t		19.0	2.5	blank	1.0	140.7912073135376	
21	124.34338188171387	fix_post	2		12	19.0	2.5	blank	1.0	141.3160858154297	0.10001397132873535
22	124.4433958530426	fix_pre	0		118	20.0	2.5	/experiments/Knapen_AOT/AOT_stimuli/rescaled_final/2156_rv.mp4	0.0	141.41609978675842	0.9920072555541992
22	125.41876316070557	pulse	0	t		20.0	2.5	/experiments/Knapen_AOT/AOT_stimuli/rescaled_final/2156_rv.mp4	0.0	142.3914670944214	
22	125.4354031085968	movie	1		277	20.0	2.5	/experiments/Knapen_AOT/AOT_stimuli/rescaled_final/2156_rv.mp4	0.0	142.40810704231262	2.5001935958862305
22	127.01908588409424	pulse	1	t		20.0	2.5	/experiments/Knapen_AOT/AOT_stimuli/rescaled_final/2156_rv.mp4	0.0	143.99178981781006	
22	127.93559670448303	fix_post	2		12	20.0	2.5	/experiments/Knapen_AOT/AOT_stimuli/rescaled_final/2156_rv.mp4	0.0	144.90830063819885	0.10004043579101562
23	128.03563714027405	fix_pre	0		120	21.0	2.5	/experiments/Knapen_AOT/AOT_stimuli/rescaled_final/0970_rv.mp4	0.0	145.00834107398987	1.0085194110870361
23	128.61928915977478	pulse	0	t		21.0	2.5	/experiments/Knapen_AOT/AOT_stimuli/rescaled_final/0970_rv.mp4	0.0	145.5919930934906	
23	129.04415655136108	movie	1		279	21.0	2.5	/experiments/Knapen_AOT/AOT_stimuli/rescaled_final/0970_rv.mp4	0.0	146.0168604850769	2.4919800758361816
23	130.21947813034058	pulse	1	t		21.0	2.5	/experiments/Knapen_AOT/AOT_stimuli/rescaled_final/0970_rv.mp4	0.0	147.1921820640564	
23	131.53613662719727	fix_post	2		12	21.0	2.5	/experiments/Knapen_AOT/AOT_stimuli/rescaled_final/0970_rv.mp4	0.0	148.5088405609131	0.10003161430358887
24	131.63616824150085	fix_pre	0		120	22.0	2.5	/experiments/Knapen_AOT/AOT_stimuli/rescaled_final/0304_fw.mp4	0.0	148.60887217521667	1.008467674255371
24	131.81978344917297	pulse	0	t		22.0	2.5	/experiments/Knapen_AOT/AOT_stimuli/rescaled_final/0304_fw.mp4	0.0	148.7924873828888	
24	132.64463591575623	movie	1		283	22.0	2.5	/experiments/Knapen_AOT/AOT_stimuli/rescaled_final/0304_fw.mp4	0.0	149.61733984947205	2.4920337200164795
24	133.42019486427307	pulse	1	t		22.0	2.5	/experiments/Knapen_AOT/AOT_stimuli/rescaled_final/0304_fw.mp4	0.0	150.3928987979889	
24	135.0202784538269	pulse	1	t		22.0	2.5	/experiments/Knapen_AOT/AOT_stimuli/rescaled_final/0304_fw.mp4	0.0	151.99298238754272	
24	135.1366696357727	fix_post	2		12	22.0	2.5	/experiments/Knapen_AOT/AOT_stimuli/rescaled_final/0304_fw.mp4	0.0	152.10937356948853	0.10003161430358887
25	135.2367012500763	fix_pre	0		120	23.0	2.5	/experiments/Knapen_AOT/AOT_stimuli/rescaled_final/0449_fw.mp4	0.0	152.20940518379211	1.008512020111084
25	136.24521327018738	movie	1		276	23.0	2.5	/experiments/Knapen_AOT/AOT_stimuli/rescaled_final/0449_fw.mp4	0.0	153.2179172039032	2.492011785507202
25	136.61940145492554	pulse	1	t		23.0	2.5	/experiments/Knapen_AOT/AOT_stimuli/rescaled_final/0449_fw.mp4	0.0	153.59210538864136	
25	138.21902227401733	pulse	1	t		23.0	2.5	/experiments/Knapen_AOT/AOT_stimuli/rescaled_final/0449_fw.mp4	0.0	155.19172620773315	
25	138.73722505569458	fix_post	2		12	23.0	2.5	/experiments/Knapen_AOT/AOT_stimuli/rescaled_final/0449_fw.mp4	0.0	155.7099289894104	0.1000223159790039
26	138.83724737167358	fix_pre	0		119	24.0	2.5	/experiments/Knapen_AOT/AOT_stimuli/rescaled_final/0302_rv.mp4	0.0	155.8099513053894	1.0001552104949951
26	139.82093143463135	pulse	0	t		24.0	2.5	/experiments/Knapen_AOT/AOT_stimuli/rescaled_final/0302_rv.mp4	0.0	156.79363536834717	
26	139.83740258216858	movie	1		283	24.0	2.5	/experiments/Knapen_AOT/AOT_stimuli/rescaled_final/0302_rv.mp4	0.0	156.8101065158844	2.5003483295440674
26	141.41980600357056	pulse	1	t		24.0	2.5	/experiments/Knapen_AOT/AOT_stimuli/rescaled_final/0302_rv.mp4	0.0	158.39250993728638	
26	142.33775091171265	fix_post	2		12	24.0	2.5	/experiments/Knapen_AOT/AOT_stimuli/rescaled_final/0302_rv.mp4	0.0	159.31045484542847	0.10002470016479492
27	142.43777561187744	fix_pre	0		120	25.0	2.5	/experiments/Knapen_AOT/AOT_stimuli/rescaled_final/1848_fw.mp4	0.0	159.41047954559326	1.0085511207580566
27	143.02144932746887	pulse	0	t		25.0	2.5	/experiments/Knapen_AOT/AOT_stimuli/rescaled_final/1848_fw.mp4	0.0	159.9941532611847	
27	143.4463267326355	movie	1		282	25.0	2.5	/experiments/Knapen_AOT/AOT_stimuli/rescaled_final/1848_fw.mp4	0.0	160.41903066635132	2.4919698238372803
27	144.61964058876038	pulse	1	t		25.0	2.5	/experiments/Knapen_AOT/AOT_stimuli/rescaled_final/1848_fw.mp4	0.0	161.5923445224762	
27	145.93829655647278	fix_post	2		12	25.0	2.5	/experiments/Knapen_AOT/AOT_stimuli/rescaled_final/1848_fw.mp4	0.0	162.9110004901886	0.10005450248718262
28	146.03835105895996	fix_pre	0		120	26.0	2.5	blank	1.0	163.01105499267578	1.0000882148742676
28	146.22185492515564	pulse	0	t		26.0	2.5	blank	1.0	163.19455885887146	
28	147.03843927383423	movie	1		300	26.0	2.5	blank	1.0	164.01114320755005	2.5003933906555176
28	147.82214450836182	pulse	1	t		26.0	2.5	blank	1.0	164.79484844207764	
28	149.42255210876465	pulse	1	t		26.0	2.5	blank	1.0	166.39525604248047	
28	149.53883266448975	fix_post	2		12	26.0	2.5	blank	1.0	166.51153659820557	0.10001230239868164
29	149.63884496688843	fix_pre	0		120	27.0	2.5	/experiments/Knapen_AOT/AOT_stimuli/rescaled_final/1407_fw.mp4	0.0	166.61154890060425	1.0085132122039795
29	150.6473581790924	movie	1		284	27.0	2.5	/experiments/Knapen_AOT/AOT_stimuli/rescaled_final/1407_fw.mp4	0.0	167.62006211280823	2.4920060634613037
29	151.02127885818481	pulse	1	t		27.0	2.5	/experiments/Knapen_AOT/AOT_stimuli/rescaled_final/1407_fw.mp4	0.0	167.99398279190063	
29	152.62295985221863	pulse	1	t		27.0	2.5	/experiments/Knapen_AOT/AOT_stimuli/rescaled_final/1407_fw.mp4	0.0	169.59566378593445	
29	153.1393642425537	fix_post	2		12	27.0	2.5	/experiments/Knapen_AOT/AOT_stimuli/rescaled_final/1407_fw.mp4	0.0	170.11206817626953	0.10002422332763672
30	153.23938846588135	fix_pre	0		119	28.0	2.5	/experiments/Knapen_AOT/AOT_stimuli/rescaled_final/0021_fw.mp4	0.0	170.21209239959717	1.000171422958374
30	154.2230203151703	pulse	0	t		28.0	2.5	/experiments/Knapen_AOT/AOT_stimuli/rescaled_final/0021_fw.mp4	0.0	171.1957242488861	
30	154.23955988883972	movie	1		283	28.0	2.5	/experiments/Knapen_AOT/AOT_stimuli/rescaled_final/0021_fw.mp4	0.0	171.21226382255554	2.500365972518921
30	155.82181906700134	pulse	1	t		28.0	2.5	/experiments/Knapen_AOT/AOT_stimuli/rescaled_final/0021_fw.mp4	0.0	172.79452300071716	
30	156.73992586135864	fix_post	2		12	28.0	2.5	/experiments/Knapen_AOT/AOT_stimuli/rescaled_final/0021_fw.mp4	0.0	173.71262979507446	0.09999394416809082
31	156.83991980552673	fix_pre	0		120	29.0	2.5	/experiments/Knapen_AOT/AOT_stimuli/rescaled_final/1791_rv.mp4	0.0	173.81262373924255	1.0086181163787842
31	157.42363357543945	pulse	0	t		29.0	2.5	/experiments/Knapen_AOT/AOT_stimuli/rescaled_final/1791_rv.mp4	0.0	174.39633750915527	
31	157.84853792190552	movie	1		290	29.0	2.5	/experiments/Knapen_AOT/AOT_stimuli/rescaled_final/1791_rv.mp4	0.0	174.82124185562134	2.491917610168457
31	159.02205991744995	pulse	1	t		29.0	2.5	/experiments/Knapen_AOT/AOT_stimuli/rescaled_final/1791_rv.mp4	0.0	175.99476385116577	
31	160.34045553207397	fix_post	2		12	29.0	2.5	/experiments/Knapen_AOT/AOT_stimuli/rescaled_final/1791_rv.mp4	0.0	177.3131594657898	0.10003280639648438
32	160.44048833847046	fix_pre	0		120	30.0	2.5	/experiments/Knapen_AOT/AOT_stimuli/rescaled_final/1074_rv.mp4	0.0	177.41319227218628	1.0085079669952393
32	160.62413811683655	pulse	0	t		30.0	2.5	/experiments/Knapen_AOT/AOT_stimuli/rescaled_final/1074_rv.mp4	0.0	177.59684205055237	
32	161.4489963054657	movie	1		285	30.0	2.5	/experiments/Knapen_AOT/AOT_stimuli/rescaled_final/1074_rv.mp4	0.0	178.42170023918152	2.491997480392456
32	162.22460269927979	pulse	1	t		30.0	2.5	/experiments/Knapen_AOT/AOT_stimuli/rescaled_final/1074_rv.mp4	0.0	179.1973066329956	
32	163.82304048538208	pulse	1	t		30.0	2.5	/experiments/Knapen_AOT/AOT_stimuli/rescaled_final/1074_rv.mp4	0.0	180.7957444190979	
32	163.94099378585815	fix_post	2		12	30.0	2.5	/experiments/Knapen_AOT/AOT_stimuli/rescaled_final/1074_rv.mp4	0.0	180.91369771957397	0.10002017021179199
33	164.04101395606995	fix_pre	0		120	31.0	2.5	/experiments/Knapen_AOT/AOT_stimuli/rescaled_final/1009_fw.mp4	0.0	181.01371788978577	1.0085399150848389
33	165.04955387115479	movie	1		275	31.0	2.5	/experiments/Knapen_AOT/AOT_stimuli/rescaled_final/1009_fw.mp4	0.0	182.0222578048706	2.4920129776000977
33	165.42339301109314	pulse	1	t		31.0	2.5	/experiments/Knapen_AOT/AOT_stimuli/rescaled_final/1009_fw.mp4	0.0	182.39609694480896	
33	167.0251066684723	pulse	1	t		31.0	2.5	/experiments/Knapen_AOT/AOT_stimuli/rescaled_final/1009_fw.mp4	0.0	183.9978106021881	
33	167.54156684875488	fix_post	2		12	31.0	2.5	/experiments/Knapen_AOT/AOT_stimuli/rescaled_final/1009_fw.mp4	0.0	184.5142707824707	0.10003805160522461
34	167.6416049003601	fix_pre	0		119	32.0	2.5	/experiments/Knapen_AOT/AOT_stimuli/rescaled_final/0479_fw.mp4	0.0	184.61430883407593	1.000138759613037
34	168.6252522468567	pulse	0	t		32.0	2.5	/experiments/Knapen_AOT/AOT_stimuli/rescaled_final/0479_fw.mp4	0.0	185.5979561805725	
34	168.64174365997314	movie	1		277	32.0	2.5	/experiments/Knapen_AOT/AOT_stimuli/rescaled_final/0479_fw.mp4	0.0	185.61444759368896	2.500326156616211
34	170.22600746154785	pulse	1	t		32.0	2.5	/experiments/Knapen_AOT/AOT_stimuli/rescaled_final/0479_fw.mp4	0.0	187.19871139526367	
34	171.14206981658936	fix_post	2		12	32.0	2.5	/experiments/Knapen_AOT/AOT_stimuli/rescaled_final/0479_fw.mp4	0.0	188.11477375030518	0.10002875328063965
35	171.24209856987	fix_pre	0		120	33.0	2.5	/experiments/Knapen_AOT/AOT_stimuli/rescaled_final/0224_rv.mp4	0.0	188.21480250358582	1.0086164474487305
35	171.8257293701172	pulse	0	t		33.0	2.5	/experiments/Knapen_AOT/AOT_stimuli/rescaled_final/0224_rv.mp4	0.0	188.798433303833	
35	172.25071501731873	movie	1		278	33.0	2.5	/experiments/Knapen_AOT/AOT_stimuli/rescaled_final/0224_rv.mp4	0.0	189.22341895103455	2.491905927658081
35	173.4246265888214	pulse	1	t		33.0	2.5	/experiments/Knapen_AOT/AOT_stimuli/rescaled_final/0224_rv.mp4	0.0	190.39733052253723	
35	174.7426209449768	fix_post	2		12	33.0	2.5	/experiments/Knapen_AOT/AOT_stimuli/rescaled_final/0224_rv.mp4	0.0	191.71532487869263	0.10010814666748047
36	174.8427290916443	fix_pre	0		120	34.0	2.5	blank	1.0	191.8154330253601	1.00007963180542
36	175.02620482444763	pulse	0	t		34.0	2.5	blank	1.0	191.99890875816345	
36	175.8428087234497	movie	1		300	34.0	2.5	blank	1.0	192.81551265716553	2.5005149841308594
36	176.61939525604248	pulse	1	t		34.0	2.5	blank	1.0	193.5920991897583	
36	178.21890997886658	pulse	1	t		34.0	2.5	blank	1.0	195.1916139125824	
36	178.34332370758057	fix_post	2		12	34.0	2.5	blank	1.0	195.3160276412964	0.09992766380310059
37	178.44325137138367	fix_pre	0		120	35.0	2.5	/experiments/Knapen_AOT/AOT_stimuli/rescaled_final/0124_fw.mp4	0.0	195.4159553050995	1.0084466934204102
37	179.45169806480408	movie	1		292	35.0	2.5	/experiments/Knapen_AOT/AOT_stimuli/rescaled_final/0124_fw.mp4	0.0	196.4244019985199	2.492037057876587
37	179.81900668144226	pulse	1	t		35.0	2.5	/experiments/Knapen_AOT/AOT_stimuli/rescaled_final/0124_fw.mp4	0.0	196.79171061515808	
37	181.41898107528687	pulse	1	t		35.0	2.5	/experiments/Knapen_AOT/AOT_stimuli/rescaled_final/0124_fw.mp4	0.0	198.39168500900269	
37	181.94373512268066	fix_post	2		12	35.0	2.5	/experiments/Knapen_AOT/AOT_stimuli/rescaled_final/0124_fw.mp4	0.0	198.91643905639648	0.09999394416809082
38	182.04372906684875	fix_pre	0		118	36.0	2.5	/experiments/Knapen_AOT/AOT_stimuli/rescaled_final/0817_rv.mp4	0.0	199.01643300056458	0.9918396472930908
38	183.01919174194336	pulse	0	t		36.0	2.5	/experiments/Knapen_AOT/AOT_stimuli/rescaled_final/0817_rv.mp4	0.0	199.99189567565918	
38	183.03556871414185	movie	1		274	36.0	2.5	/experiments/Knapen_AOT/AOT_stimuli/rescaled_final/0817_rv.mp4	0.0	200.00827264785767	2.50036883354187
38	184.61966633796692	pulse	1	t		36.0	2.5	/experiments/Knapen_AOT/AOT_stimuli/rescaled_final/0817_rv.mp4	0.0	201.59237027168274	
38	185.53593754768372	fix_post	2		12	36.0	2.5	/experiments/Knapen_AOT/AOT_stimuli/rescaled_final/0817_rv.mp4	0.0	202.50864148139954	0.10009312629699707
39	185.6360306739807	fix_pre	0		120	37.0	2.5	/experiments/Knapen_AOT/AOT_stimuli/rescaled_final/2071_fw.mp4	0.0	202.60873460769653	1.008423089981079
39	186.21960353851318	pulse	0	t		37.0	2.5	/experiments/Knapen_AOT/AOT_stimuli/rescaled_final/2071_fw.mp4	0.0	203.192307472229	
39	186.6444537639618	movie	1		279	37.0	2.5	/experiments/Knapen_AOT/AOT_stimuli/rescaled_final/2071_fw.mp4	0.0	203.6171576976776	2.492009162902832
39	187.8198437690735	pulse	1	t		37.0	2.5	/experiments/Knapen_AOT/AOT_stimuli/rescaled_final/2071_fw.mp4	0.0	204.7925477027893	
39	189.13646292686462	fix_post	2		12	37.0	2.5	/experiments/Knapen_AOT/AOT_stimuli/rescaled_final/2071_fw.mp4	0.0	206.10916686058044	0.1000206470489502
40	189.23648357391357	fix_pre	0		120	38.0	2.5	/experiments/Knapen_AOT/AOT_stimuli/rescaled_final/2178_fw.mp4	0.0	206.2091875076294	1.008544921875
40	189.42004895210266	pulse	0	t		38.0	2.5	/experiments/Knapen_AOT/AOT_stimuli/rescaled_final/2178_fw.mp4	0.0	206.39275288581848	
40	190.24502849578857	movie	1		279	38.0	2.5	/experiments/Knapen_AOT/AOT_stimuli/rescaled_final/2178_fw.mp4	0.0	207.2177324295044	2.492061138153076
40	191.0204906463623	pulse	1	t		38.0	2.5	/experiments/Knapen_AOT/AOT_stimuli/rescaled_final/2178_fw.mp4	0.0	207.99319458007812	
40	192.6205325126648	pulse	1	t		38.0	2.5	/experiments/Knapen_AOT/AOT_stimuli/rescaled_final/2178_fw.mp4	0.0	209.59323644638062	
40	192.73708963394165	fix_post	2		12	38.0	2.5	/experiments/Knapen_AOT/AOT_stimuli/rescaled_final/2178_fw.mp4	0.0	209.70979356765747	0.09992647171020508
41	192.83701610565186	fix_pre	0		120	39.0	2.5	/experiments/Knapen_AOT/AOT_stimuli/rescaled_final/0742_fw.mp4	0.0	209.80972003936768	1.0084919929504395
41	193.8455080986023	movie	1		284	39.0	2.5	/experiments/Knapen_AOT/AOT_stimuli/rescaled_final/0742_fw.mp4	0.0	210.81821203231812	2.492051124572754
41	194.22001361846924	pulse	1	t		39.0	2.5	/experiments/Knapen_AOT/AOT_stimuli/rescaled_final/0742_fw.mp4	0.0	211.19271755218506	
41	195.8189730644226	pulse	1	t		39.0	2.5	/experiments/Knapen_AOT/AOT_stimuli/rescaled_final/0742_fw.mp4	0.0	212.79167699813843	
41	196.33755922317505	fix_post	2		12	39.0	2.5	/experiments/Knapen_AOT/AOT_stimuli/rescaled_final/0742_fw.mp4	0.0	213.31026315689087	0.10001063346862793
42	196.43756985664368	fix_pre	0		119	40.0	2.5	blank	1.0	213.4102737903595	0.9918308258056641
42	197.42126512527466	pulse	0	t		40.0	2.5	blank	1.0	214.39396905899048	
42	197.42940068244934	movie	1		301	40.0	2.5	blank	1.0	214.40210461616516	2.5086870193481445
42	199.0214900970459	pulse	1	t		40.0	2.5	blank	1.0	215.99419403076172	
42	199.93808770179749	fix_post	2		12	40.0	2.5	blank	1.0	216.9107916355133	0.10001182556152344
43	200.038099527359	fix_pre	0		120	41.0	2.5	/experiments/Knapen_AOT/AOT_stimuli/rescaled_final/0509_fw.mp4	0.0	217.01080346107483	1.0085561275482178
43	200.6217861175537	pulse	0	t		41.0	2.5	/experiments/Knapen_AOT/AOT_stimuli/rescaled_final/0509_fw.mp4	0.0	217.59449005126953	
43	201.04665565490723	movie	1		279	41.0	2.5	/experiments/Knapen_AOT/AOT_stimuli/rescaled_final/0509_fw.mp4	0.0	218.01935958862305	2.4920003414154053
43	202.22029304504395	pulse	1	t		41.0	2.5	/experiments/Knapen_AOT/AOT_stimuli/rescaled_final/0509_fw.mp4	0.0	219.19299697875977	
43	203.53865599632263	fix_post	2		12	41.0	2.5	/experiments/Knapen_AOT/AOT_stimuli/rescaled_final/0509_fw.mp4	0.0	220.51135993003845	0.10012578964233398
44	203.63878178596497	fix_pre	0		120	42.0	2.5	/experiments/Knapen_AOT/AOT_stimuli/rescaled_final/2140_rv.mp4	0.0	220.6114857196808	1.0083727836608887
44	203.82221794128418	pulse	0	t		42.0	2.5	/experiments/Knapen_AOT/AOT_stimuli/rescaled_final/2140_rv.mp4	0.0	220.794921875	
44	204.64715456962585	movie	1		281	42.0	2.5	/experiments/Knapen_AOT/AOT_stimuli/rescaled_final/2140_rv.mp4	0.0	221.61985850334167	2.491975784301758
44	205.42196369171143	pulse	1	t		42.0	2.5	/experiments/Knapen_AOT/AOT_stimuli/rescaled_final/2140_rv.mp4	0.0	222.39466762542725	
44	207.02113270759583	pulse	1	t		42.0	2.5	/experiments/Knapen_AOT/AOT_stimuli/rescaled_final/2140_rv.mp4	0.0	223.99383664131165	
44	207.1391303539276	fix_post	2		12	42.0	2.5	/experiments/Knapen_AOT/AOT_stimuli/rescaled_final/2140_rv.mp4	0.0	224.11183428764343	0.10006523132324219
45	207.23919558525085	fix_pre	0		120	43.0	2.5	/experiments/Knapen_AOT/AOT_stimuli/rescaled_final/0393_fw.mp4	0.0	224.21189951896667	1.0085272789001465
45	208.247722864151	movie	1		280	43.0	2.5	/experiments/Knapen_AOT/AOT_stimuli/rescaled_final/0393_fw.mp4	0.0	225.22042679786682	2.4919795989990234
45	208.6212089061737	pulse	1	t		43.0	2.5	/experiments/Knapen_AOT/AOT_stimuli/rescaled_final/0393_fw.mp4	0.0	225.59391283988953	
45	210.2212474346161	pulse	1	t		43.0	2.5	/experiments/Knapen_AOT/AOT_stimuli/rescaled_final/0393_fw.mp4	0.0	227.1939513683319	
45	210.73970246315002	fix_post	2		12	43.0	2.5	/experiments/Knapen_AOT/AOT_stimuli/rescaled_final/0393_fw.mp4	0.0	227.71240639686584	0.10005521774291992
46	210.83975768089294	fix_pre	0		119	44.0	2.5	/experiments/Knapen_AOT/AOT_stimuli/rescaled_final/1126_fw.mp4	0.0	227.81246161460876	1.000112771987915
46	211.8233950138092	pulse	0	t		44.0	2.5	/experiments/Knapen_AOT/AOT_stimuli/rescaled_final/1126_fw.mp4	0.0	228.79609894752502	
46	211.83987045288086	movie	1		282	44.0	2.5	/experiments/Knapen_AOT/AOT_stimuli/rescaled_final/1126_fw.mp4	0.0	228.81257438659668	2.5003819465637207
46	213.4221954345703	pulse	1	t		44.0	2.5	/experiments/Knapen_AOT/AOT_stimuli/rescaled_final/1126_fw.mp4	0.0	230.39489936828613	
46	214.34025239944458	fix_post	2		12	44.0	2.5	/experiments/Knapen_AOT/AOT_stimuli/rescaled_final/1126_fw.mp4	0.0	231.3129563331604	0.10001349449157715
47	214.44026589393616	fix_pre	0		120	45.0	2.5	/experiments/Knapen_AOT/AOT_stimuli/rescaled_final/0648_rv.mp4	0.0	231.41296982765198	1.0085372924804688
47	215.02401423454285	pulse	0	t		45.0	2.5	/experiments/Knapen_AOT/AOT_stimuli/rescaled_final/0648_rv.mp4	0.0	231.99671816825867	
47	215.44880318641663	movie	1		277	45.0	2.5	/experiments/Knapen_AOT/AOT_stimuli/rescaled_final/0648_rv.mp4	0.0	232.42150712013245	2.4919700622558594
47	216.62208151817322	pulse	1	t		45.0	2.5	/experiments/Knapen_AOT/AOT_stimuli/rescaled_final/0648_rv.mp4	0.0	233.59478545188904	
47	217.94077324867249	fix_post	2		12	45.0	2.5	/experiments/Knapen_AOT/AOT_stimuli/rescaled_final/0648_rv.mp4	0.0	234.9134771823883	0.10002565383911133
48	218.0407989025116	fix_pre	0		104	46.0	2.5	/experiments/Knapen_AOT/AOT_stimuli/rescaled_final/0124_rv.mp4	0.0	235.01350283622742	1.0085084438323975
48	218.22435808181763	pulse	0	t		46.0	2.5	/experiments/Knapen_AOT/AOT_stimuli/rescaled_final/0124_rv.mp4	0.0	235.19706201553345	
48	219.049307346344	movie	1		287	46.0	2.5	/experiments/Knapen_AOT/AOT_stimuli/rescaled_final/0124_rv.mp4	0.0	236.02201128005981	2.4920589923858643
48	219.82268905639648	pulse	1	t		46.0	2.5	/experiments/Knapen_AOT/AOT_stimuli/rescaled_final/0124_rv.mp4	0.0	236.7953929901123	
48	221.42293667793274	pulse	1	t		46.0	2.5	/experiments/Knapen_AOT/AOT_stimuli/rescaled_final/0124_rv.mp4	0.0	238.39564061164856	
48	221.54136633872986	fix_post	2		12	46.0	2.5	/experiments/Knapen_AOT/AOT_stimuli/rescaled_final/0124_rv.mp4	0.0	238.51407027244568	0.09998297691345215
49	221.6413493156433	fix_pre	0		120	47.0	2.5	/experiments/Knapen_AOT/AOT_stimuli/rescaled_final/0296_fw.mp4	0.0	238.61405324935913	1.0085067749023438
49	222.64985609054565	movie	1		281	47.0	2.5	/experiments/Knapen_AOT/AOT_stimuli/rescaled_final/0296_fw.mp4	0.0	239.62256002426147	2.4920153617858887
49	223.0252275466919	pulse	1	t		47.0	2.5	/experiments/Knapen_AOT/AOT_stimuli/rescaled_final/0296_fw.mp4	0.0	239.99793148040771	
49	224.62593030929565	pulse	1	t		47.0	2.5	/experiments/Knapen_AOT/AOT_stimuli/rescaled_final/0296_fw.mp4	0.0	241.59863424301147	
49	225.14187145233154	fix_post	2		12	47.0	2.5	/experiments/Knapen_AOT/AOT_stimuli/rescaled_final/0296_fw.mp4	0.0	242.11457538604736	0.09997677803039551
50	225.24184823036194	fix_pre	0		119	48.0	2.5	blank	1.0	242.21455216407776	0.9918820858001709
50	226.2257251739502	pulse	0	t		48.0	2.5	blank	1.0	243.19842910766602	
50	226.2337303161621	movie	1		301	48.0	2.5	blank	1.0	243.20643424987793	2.5086758136749268
50	227.82583212852478	pulse	1	t		48.0	2.5	blank	1.0	244.7985360622406	
50	228.74240612983704	fix_post	2		12	48.0	2.5	blank	1.0	245.71511006355286	0.1000213623046875
51	228.84242749214172	fix_pre	0		120	49.0	2.5	/experiments/Knapen_AOT/AOT_stimuli/rescaled_final/0581_fw.mp4	0.0	245.81513142585754	1.0085110664367676
51	229.42606258392334	pulse	0	t		49.0	2.5	/experiments/Knapen_AOT/AOT_stimuli/rescaled_final/0581_fw.mp4	0.0	246.39876651763916	
51	229.8509385585785	movie	1		281	49.0	2.5	/experiments/Knapen_AOT/AOT_stimuli/rescaled_final/0581_fw.mp4	0.0	246.8236424922943	2.492016077041626
51	231.02452778816223	pulse	1	t		49.0	2.5	/experiments/Knapen_AOT/AOT_stimuli/rescaled_final/0581_fw.mp4	0.0	247.99723172187805	
51	232.34295463562012	fix_post	2		12	49.0	2.5	/experiments/Knapen_AOT/AOT_stimuli/rescaled_final/0581_fw.mp4	0.0	249.31565856933594	0.1000373363494873
52	232.4429919719696	fix_pre	0		120	50.0	2.5	/experiments/Knapen_AOT/AOT_stimuli/rescaled_final/2127_fw.mp4	0.0	249.41569590568542	1.0084946155548096
52	232.61857199668884	pulse	0	t		50.0	2.5	/experiments/Knapen_AOT/AOT_stimuli/rescaled_final/2127_fw.mp4	0.0	249.59127593040466	
52	233.4514865875244	movie	1		279	50.0	2.5	/experiments/Knapen_AOT/AOT_stimuli/rescaled_final/2127_fw.mp4	0.0	250.42419052124023	2.492021322250366
52	234.21849417686462	pulse	1	t		50.0	2.5	/experiments/Knapen_AOT/AOT_stimuli/rescaled_final/2127_fw.mp4	0.0	251.19119811058044	
52	235.81868839263916	pulse	1	t		50.0	2.5	/experiments/Knapen_AOT/AOT_stimuli/rescaled_final/2127_fw.mp4	0.0	252.79139232635498	
52	235.94350790977478	fix_post	2		12	50.0	2.5	/experiments/Knapen_AOT/AOT_stimuli/rescaled_final/2127_fw.mp4	0.0	252.9162118434906	0.10000848770141602
53	236.0435163974762	fix_pre	0		120	51.0	2.5	/experiments/Knapen_AOT/AOT_stimuli/rescaled_final/1824_fw.mp4	0.0	253.01622033119202	1.0084795951843262
53	237.05199599266052	movie	1		286	51.0	2.5	/experiments/Knapen_AOT/AOT_stimuli/rescaled_final/1824_fw.mp4	0.0	254.02469992637634	2.492053985595703
53	237.41899752616882	pulse	1	t		51.0	2.5	/experiments/Knapen_AOT/AOT_stimuli/rescaled_final/1824_fw.mp4	0.0	254.39170145988464	
53	239.01918387413025	pulse	1	t		51.0	2.5	/experiments/Knapen_AOT/AOT_stimuli/rescaled_final/1824_fw.mp4	0.0	255.99188780784607	
53	239.54404997825623	fix_post	2		12	51.0	2.5	/experiments/Knapen_AOT/AOT_stimuli/rescaled_final/1824_fw.mp4	0.0	256.51675391197205	0.10001468658447266
54	239.6440646648407	fix_pre	0		118	52.0	2.5	/experiments/Knapen_AOT/AOT_stimuli/rescaled_final/0913_rv.mp4	0.0	256.6167685985565	0.9918179512023926
54	240.61949849128723	pulse	0	t		52.0	2.5	/experiments/Knapen_AOT/AOT_stimuli/rescaled_final/0913_rv.mp4	0.0	257.59220242500305	
54	240.6358826160431	movie	1		278	52.0	2.5	/experiments/Knapen_AOT/AOT_stimuli/rescaled_final/0913_rv.mp4	0.0	257.6085865497589	2.500401258468628
54	242.21862077713013	pulse	1	t		52.0	2.5	/experiments/Knapen_AOT/AOT_stimuli/rescaled_final/0913_rv.mp4	0.0	259.19132471084595	
54	243.13628387451172	fix_post	2		12	52.0	2.5	/experiments/Knapen_AOT/AOT_stimuli/rescaled_final/0913_rv.mp4	0.0	260.10898780822754	0.09997892379760742
55	243.23626279830933	fix_pre	0		120	53.0	2.5	/experiments/Knapen_AOT/AOT_stimuli/rescaled_final/1024_rv.mp4	0.0	260.20896673202515	1.0084941387176514
55	243.81988143920898	pulse	0	t		53.0	2.5	/experiments/Knapen_AOT/AOT_stimuli/rescaled_final/1024_rv.mp4	0.0	260.7925853729248	
55	244.24475693702698	movie	1		282	53.0	2.5	/experiments/Knapen_AOT/AOT_stimuli/rescaled_final/1024_rv.mp4	0.0	261.2174608707428	2.4920802116394043
55	245.41839003562927	pulse	1	t		53.0	2.5	/experiments/Knapen_AOT/AOT_stimuli/rescaled_final/1024_rv.mp4	0.0	262.3910939693451	
55	246.73683714866638	fix_post	2		12	53.0	2.5	/experiments/Knapen_AOT/AOT_stimuli/rescaled_final/1024_rv.mp4	0.0	263.7095410823822	0.09996247291564941
56	246.83679962158203	fix_pre	0		120	54.0	2.5	/experiments/Knapen_AOT/AOT_stimuli/rescaled_final/0382_fw.mp4	0.0	263.80950355529785	1.008533239364624
56	247.02033305168152	pulse	0	t		54.0	2.5	/experiments/Knapen_AOT/AOT_stimuli/rescaled_final/0382_fw.mp4	0.0	263.99303698539734	
56	247.84533286094666	movie	1		270	54.0	2.5	/experiments/Knapen_AOT/AOT_stimuli/rescaled_final/0382_fw.mp4	0.0	264.8180367946625	2.4920196533203125
56	248.6185119152069	pulse	1	t		54.0	2.5	/experiments/Knapen_AOT/AOT_stimuli/rescaled_final/0382_fw.mp4	0.0	265.59121584892273	
56	250.21897053718567	pulse	1	t		54.0	2.5	/experiments/Knapen_AOT/AOT_stimuli/rescaled_final/0382_fw.mp4	0.0	267.1916744709015	
56	250.33735251426697	fix_post	2		12	54.0	2.5	/experiments/Knapen_AOT/AOT_stimuli/rescaled_final/0382_fw.mp4	0.0	267.3100564479828	0.10000085830688477
57	250.43735337257385	fix_pre	0		120	55.0	2.5	blank	1.0	267.4100573062897	1.0001704692840576
57	251.4375238418579	movie	1		300	55.0	2.5	blank	1.0	268.41022777557373	2.5003368854522705
57	251.82105255126953	pulse	1	t		55.0	2.5	blank	1.0	268.79375648498535	
57	253.42134046554565	pulse	1	t		55.0	2.5	blank	1.0	270.3940443992615	
57	253.93786072731018	fix_post	2		12	55.0	2.5	blank	1.0	270.910564661026	0.10005688667297363
58	254.03791761398315	fix_pre	0		119	56.0	2.5	/experiments/Knapen_AOT/AOT_stimuli/rescaled_final/0774_fw.mp4	0.0	271.010621547699	1.0002379417419434
58	255.02173852920532	pulse	0	t		56.0	2.5	/experiments/Knapen_AOT/AOT_stimuli/rescaled_final/0774_fw.mp4	0.0	271.99444246292114	
58	255.0381555557251	movie	1		279	56.0	2.5	/experiments/Knapen_AOT/AOT_stimuli/rescaled_final/0774_fw.mp4	0.0	272.0108594894409	2.500281572341919
58	256.6200668811798	pulse	1	t		56.0	2.5	/experiments/Knapen_AOT/AOT_stimuli/rescaled_final/0774_fw.mp4	0.0	273.59277081489563	
58	257.538437128067	fix_post	2		12	56.0	2.5	/experiments/Knapen_AOT/AOT_stimuli/rescaled_final/0774_fw.mp4	0.0	274.51114106178284	0.09999847412109375
59	257.6384356021881	fix_pre	0		120	57.0	2.5	/experiments/Knapen_AOT/AOT_stimuli/rescaled_final/1814_rv.mp4	0.0	274.61113953590393	1.0085186958312988
59	258.22203731536865	pulse	0	t		57.0	2.5	/experiments/Knapen_AOT/AOT_stimuli/rescaled_final/1814_rv.mp4	0.0	275.1947412490845	
59	258.6469542980194	movie	1		279	57.0	2.5	/experiments/Knapen_AOT/AOT_stimuli/rescaled_final/1814_rv.mp4	0.0	275.61965823173523	2.4919912815093994
59	259.820298910141	pulse	1	t		57.0	2.5	/experiments/Knapen_AOT/AOT_stimuli/rescaled_final/1814_rv.mp4	0.0	276.7930028438568	
59	261.1389455795288	fix_post	2		12	57.0	2.5	/experiments/Knapen_AOT/AOT_stimuli/rescaled_final/1814_rv.mp4	0.0	278.11164951324463	0.10002446174621582
60	261.238970041275	fix_pre	0		120	58.0	2.5	/experiments/Knapen_AOT/AOT_stimuli/rescaled_final/1734_rv.mp4	0.0	278.21167397499084	1.0085504055023193
60	261.4225504398346	pulse	0	t		58.0	2.5	/experiments/Knapen_AOT/AOT_stimuli/rescaled_final/1734_rv.mp4	0.0	278.3952543735504	
60	262.24752044677734	movie	1		274	58.0	2.5	/experiments/Knapen_AOT/AOT_stimuli/rescaled_final/1734_rv.mp4	0.0	279.22022438049316	2.4920170307159424
60	263.0227406024933	pulse	1	t		58.0	2.5	/experiments/Knapen_AOT/AOT_stimuli/rescaled_final/1734_rv.mp4	0.0	279.9954445362091	
60	264.6212754249573	pulse	1	t		58.0	2.5	/experiments/Knapen_AOT/AOT_stimuli/rescaled_final/1734_rv.mp4	0.0	281.5939793586731	
60	264.7395374774933	fix_post	2		12	58.0	2.5	/experiments/Knapen_AOT/AOT_stimuli/rescaled_final/1734_rv.mp4	0.0	281.7122414112091	0.10008001327514648
61	264.83961749076843	fix_pre	0		120	59.0	2.5	/experiments/Knapen_AOT/AOT_stimuli/rescaled_final/0393_fw.mp4	0.0	281.81232142448425	1.008387565612793
61	265.8480050563812	movie	1		275	59.0	2.5	/experiments/Knapen_AOT/AOT_stimuli/rescaled_final/0393_fw.mp4	0.0	282.82070899009705	2.492060422897339
61	266.22152733802795	pulse	1	t		59.0	2.5	/experiments/Knapen_AOT/AOT_stimuli/rescaled_final/0393_fw.mp4	0.0	283.1942312717438	
61	267.82145071029663	pulse	1	t		59.0	2.5	/experiments/Knapen_AOT/AOT_stimuli/rescaled_final/0393_fw.mp4	0.0	284.79415464401245	
61	268.34006547927856	fix_post	2		12	59.0	2.5	/experiments/Knapen_AOT/AOT_stimuli/rescaled_final/0393_fw.mp4	0.0	285.3127694129944	0.0999765396118164
62	268.4400420188904	fix_pre	0		119	60.0	2.5	/experiments/Knapen_AOT/AOT_stimuli/rescaled_final/0085_fw.mp4	0.0	285.4127459526062	1.0001747608184814
62	269.4238123893738	pulse	0	t		60.0	2.5	/experiments/Knapen_AOT/AOT_stimuli/rescaled_final/0085_fw.mp4	0.0	286.3965163230896	
62	269.44021677970886	movie	1		281	60.0	2.5	/experiments/Knapen_AOT/AOT_stimuli/rescaled_final/0085_fw.mp4	0.0	286.4129207134247	2.5003459453582764
62	271.0224368572235	pulse	1	t		60.0	2.5	/experiments/Knapen_AOT/AOT_stimuli/rescaled_final/0085_fw.mp4	0.0	287.99514079093933	
62	271.94056272506714	fix_post	2		12	60.0	2.5	/experiments/Knapen_AOT/AOT_stimuli/rescaled_final/0085_fw.mp4	0.0	288.91326665878296	0.10001444816589355
63	272.04057717323303	fix_pre	0		120	61.0	2.5	/experiments/Knapen_AOT/AOT_stimuli/rescaled_final/1481_rv.mp4	0.0	289.01328110694885	1.0084939002990723
63	272.62421441078186	pulse	0	t		61.0	2.5	/experiments/Knapen_AOT/AOT_stimuli/rescaled_final/1481_rv.mp4	0.0	289.5969183444977	
63	273.0490710735321	movie	1		271	61.0	2.5	/experiments/Knapen_AOT/AOT_stimuli/rescaled_final/1481_rv.mp4	0.0	290.0217750072479	2.492030620574951
63	274.2232048511505	pulse	1	t		61.0	2.5	/experiments/Knapen_AOT/AOT_stimuli/rescaled_final/1481_rv.mp4	0.0	291.19590878486633	
63	275.54110169410706	fix_post	2		12	61.0	2.5	/experiments/Knapen_AOT/AOT_stimuli/rescaled_final/1481_rv.mp4	0.0	292.5138056278229	0.10008549690246582
64	275.6411871910095	fix_pre	0		120	62.0	2.5	blank	1.0	292.61389112472534	1.0000882148742676
64	275.8246932029724	pulse	0	t		62.0	2.5	blank	1.0	292.79739713668823	
64	276.6412754058838	movie	1		300	62.0	2.5	blank	1.0	293.6139793395996	2.500375509262085
64	277.4249618053436	pulse	1	t		62.0	2.5	blank	1.0	294.39766573905945	
64	279.02540016174316	pulse	1	t		62.0	2.5	blank	1.0	295.998104095459	
64	279.1416509151459	fix_post	2		12	62.0	2.5	blank	1.0	296.1143548488617	0.10006451606750488
65	279.2417154312134	fix_pre	0		120	63.0	2.5	/experiments/Knapen_AOT/AOT_stimuli/rescaled_final/1315_rv.mp4	0.0	296.2144193649292	1.0084681510925293
65	280.2501835823059	movie	1		281	63.0	2.5	/experiments/Knapen_AOT/AOT_stimuli/rescaled_final/1315_rv.mp4	0.0	297.22288751602173	2.4920132160186768
65	280.62568831443787	pulse	1	t		63.0	2.5	/experiments/Knapen_AOT/AOT_stimuli/rescaled_final/1315_rv.mp4	0.0	297.5983922481537	
65	282.2237389087677	pulse	1	t		63.0	2.5	/experiments/Knapen_AOT/AOT_stimuli/rescaled_final/1315_rv.mp4	0.0	299.1964428424835	
65	282.7421967983246	fix_post	2		12	63.0	2.5	/experiments/Knapen_AOT/AOT_stimuli/rescaled_final/1315_rv.mp4	0.0	299.7149007320404	0.10000991821289062
66	282.8422067165375	fix_pre	0		119	64.0	2.5	/experiments/Knapen_AOT/AOT_stimuli/rescaled_final/0154_fw.mp4	0.0	299.8149106502533	1.00020432472229
66	283.81904220581055	pulse	0	t		64.0	2.5	/experiments/Knapen_AOT/AOT_stimuli/rescaled_final/0154_fw.mp4	0.0	300.79174613952637	
66	283.84241104125977	movie	1		287	64.0	2.5	/experiments/Knapen_AOT/AOT_stimuli/rescaled_final/0154_fw.mp4	0.0	300.8151149749756	2.5003557205200195
66	285.4245574474335	pulse	1	t		64.0	2.5	/experiments/Knapen_AOT/AOT_stimuli/rescaled_final/0154_fw.mp4	0.0	302.3972613811493	
66	286.3427667617798	fix_post	2		12	64.0	2.5	/experiments/Knapen_AOT/AOT_stimuli/rescaled_final/0154_fw.mp4	0.0	303.3154706954956	0.09998869895935059
67	286.44275546073914	fix_pre	0		120	65.0	2.5	/experiments/Knapen_AOT/AOT_stimuli/rescaled_final/1031_fw.mp4	0.0	303.41545939445496	1.008521556854248
67	287.02655124664307	pulse	0	t		65.0	2.5	/experiments/Knapen_AOT/AOT_stimuli/rescaled_final/1031_fw.mp4	0.0	303.9992551803589	
67	287.4512770175934	movie	1		270	65.0	2.5	/experiments/Knapen_AOT/AOT_stimuli/rescaled_final/1031_fw.mp4	0.0	304.4239809513092	2.491990327835083
67	288.62610626220703	pulse	1	t		65.0	2.5	/experiments/Knapen_AOT/AOT_stimuli/rescaled_final/1031_fw.mp4	0.0	305.59881019592285	
67	289.94326734542847	fix_post	2		12	65.0	2.5	/experiments/Knapen_AOT/AOT_stimuli/rescaled_final/1031_fw.mp4	0.0	306.9159712791443	0.10002279281616211
68	290.04329013824463	fix_pre	0		120	66.0	2.5	/experiments/Knapen_AOT/AOT_stimuli/rescaled_final/1481_fw.mp4	0.0	307.01599407196045	1.0085842609405518
68	290.2188322544098	pulse	0	t		66.0	2.5	/experiments/Knapen_AOT/AOT_stimuli/rescaled_final/1481_fw.mp4	0.0	307.1915361881256	
68	291.0518743991852	movie	1		276	66.0	2.5	/experiments/Knapen_AOT/AOT_stimuli/rescaled_final/1481_fw.mp4	0.0	308.024578332901	2.491950750350952
68	291.81885838508606	pulse	1	t		66.0	2.5	/experiments/Knapen_AOT/AOT_stimuli/rescaled_final/1481_fw.mp4	0.0	308.7915623188019	
68	293.41912961006165	pulse	1	t		66.0	2.5	/experiments/Knapen_AOT/AOT_stimuli/rescaled_final/1481_fw.mp4	0.0	310.39183354377747	
68	293.54382514953613	fix_post	2		12	66.0	2.5	/experiments/Knapen_AOT/AOT_stimuli/rescaled_final/1481_fw.mp4	0.0	310.51652908325195	0.10004138946533203
69	293.64386653900146	fix_pre	0		120	67.0	2.5	/experiments/Knapen_AOT/AOT_stimuli/rescaled_final/1291_rv.mp4	0.0	310.6165704727173	1.0085020065307617
69	294.6523685455322	movie	1		286	67.0	2.5	/experiments/Knapen_AOT/AOT_stimuli/rescaled_final/1291_rv.mp4	0.0	311.62507247924805	2.492018699645996
69	295.01927852630615	pulse	1	t		67.0	2.5	/experiments/Knapen_AOT/AOT_stimuli/rescaled_final/1291_rv.mp4	0.0	311.991982460022	
69	296.61965799331665	pulse	1	t		67.0	2.5	/experiments/Knapen_AOT/AOT_stimuli/rescaled_final/1291_rv.mp4	0.0	313.59236192703247	
69	297.1443872451782	fix_post	2		12	67.0	2.5	/experiments/Knapen_AOT/AOT_stimuli/rescaled_final/1291_rv.mp4	0.0	314.11709117889404	0.1000208854675293
70	297.24440813064575	fix_pre	0		118	68.0	2.5	/experiments/Knapen_AOT/AOT_stimuli/rescaled_final/1708_fw.mp4	0.0	314.2171120643616	0.991828441619873
70	298.2198419570923	pulse	0	t		68.0	2.5	/experiments/Knapen_AOT/AOT_stimuli/rescaled_final/1708_fw.mp4	0.0	315.1925458908081	
70	298.2362365722656	movie	1		276	68.0	2.5	/experiments/Knapen_AOT/AOT_stimuli/rescaled_final/1708_fw.mp4	0.0	315.20894050598145	2.5003325939178467
70	299.8200809955597	pulse	1	t		68.0	2.5	/experiments/Knapen_AOT/AOT_stimuli/rescaled_final/1708_fw.mp4	0.0	316.7927849292755	
70	300.7365691661835	fix_post	2		12	68.0	2.5	/experiments/Knapen_AOT/AOT_stimuli/rescaled_final/1708_fw.mp4	0.0	317.7092730998993	0.10002827644348145
71	300.83659744262695	fix_pre	0		120	69.0	2.5	/experiments/Knapen_AOT/AOT_stimuli/rescaled_final/0648_fw.mp4	0.0	317.8093013763428	1.0085258483886719
71	301.42023754119873	pulse	0	t		69.0	2.5	/experiments/Knapen_AOT/AOT_stimuli/rescaled_final/0648_fw.mp4	0.0	318.39294147491455	
71	301.8451232910156	movie	1		276	69.0	2.5	/experiments/Knapen_AOT/AOT_stimuli/rescaled_final/0648_fw.mp4	0.0	318.81782722473145	2.50048828125
71	303.01907181739807	pulse	1	t		69.0	2.5	/experiments/Knapen_AOT/AOT_stimuli/rescaled_final/0648_fw.mp4	0.0	319.9917757511139	
71	304.3456115722656	fix_post	2		11	69.0	2.5	/experiments/Knapen_AOT/AOT_stimuli/rescaled_final/0648_fw.mp4	0.0	321.31831550598145	0.09150815010070801
72	304.43711972236633	fix_pre	0		120	70.0	2.5	blank	1.0	321.40982365608215	1.0001518726348877
72	304.62066984176636	pulse	0	t		70.0	2.5	blank	1.0	321.5933737754822	
72	305.4372715950012	movie	1		300	70.0	2.5	blank	1.0	322.40997552871704	2.5003795623779297
72	306.22099113464355	pulse	1	t		70.0	2.5	blank	1.0	323.1936950683594	
72	307.82126450538635	pulse	1	t		70.0	2.5	blank	1.0	324.7939684391022	
72	307.93765115737915	fix_post	2		12	70.0	2.5	blank	1.0	324.91035509109497	0.10011672973632812
73	308.0377678871155	fix_pre	0		120	71.0	2.5	/experiments/Knapen_AOT/AOT_stimuli/rescaled_final/0746_rv.mp4	0.0	325.0104718208313	1.0084638595581055
73	309.0462317466736	movie	1		273	71.0	2.5	/experiments/Knapen_AOT/AOT_stimuli/rescaled_final/0746_rv.mp4	0.0	326.0189356803894	2.492008686065674
73	309.41999554634094	pulse	1	t		71.0	2.5	/experiments/Knapen_AOT/AOT_stimuli/rescaled_final/0746_rv.mp4	0.0	326.39269948005676	
73	311.0200037956238	pulse	1	t		71.0	2.5	/experiments/Knapen_AOT/AOT_stimuli/rescaled_final/0746_rv.mp4	0.0	327.9927077293396	
73	311.53824043273926	fix_post	2		12	71.0	2.5	/experiments/Knapen_AOT/AOT_stimuli/rescaled_final/0746_rv.mp4	0.0	328.5109443664551	0.09996700286865234
74	311.6382074356079	fix_pre	0		119	72.0	2.5	/experiments/Knapen_AOT/AOT_stimuli/rescaled_final/0792_fw.mp4	0.0	328.61091136932373	1.0087592601776123
74	312.6219162940979	pulse	0	t		72.0	2.5	/experiments/Knapen_AOT/AOT_stimuli/rescaled_final/0792_fw.mp4	0.0	329.5946202278137	
74	312.6469666957855	movie	1		276	72.0	2.5	/experiments/Knapen_AOT/AOT_stimuli/rescaled_final/0792_fw.mp4	0.0	329.61967062950134	2.491807699203491
74	314.22242522239685	pulse	1	t		72.0	2.5	/experiments/Knapen_AOT/AOT_stimuli/rescaled_final/0792_fw.mp4	0.0	331.19512915611267	
74	315.138774394989	fix_post	2		12	72.0	2.5	/experiments/Knapen_AOT/AOT_stimuli/rescaled_final/0792_fw.mp4	0.0	332.11147832870483	0.0999765396118164
75	315.23875093460083	fix_pre	0		120	73.0	2.5	/experiments/Knapen_AOT/AOT_stimuli/rescaled_final/1734_fw.mp4	0.0	332.21145486831665	1.0085270404815674
75	315.8224067687988	pulse	0	t		73.0	2.5	/experiments/Knapen_AOT/AOT_stimuli/rescaled_final/1734_fw.mp4	0.0	332.79511070251465	
75	316.2472779750824	movie	1		279	73.0	2.5	/experiments/Knapen_AOT/AOT_stimuli/rescaled_final/1734_fw.mp4	0.0	333.2199819087982	2.4920098781585693
75	317.42136883735657	pulse	1	t		73.0	2.5	/experiments/Knapen_AOT/AOT_stimuli/rescaled_final/1734_fw.mp4	0.0	334.3940727710724	
75	318.73928785324097	fix_post	2		11	73.0	2.5	/experiments/Knapen_AOT/AOT_stimuli/rescaled_final/1734_fw.mp4	0.0	335.7119917869568	0.10000967979431152
76	318.8392975330353	fix_pre	0		120	74.0	2.5	/experiments/Knapen_AOT/AOT_stimuli/rescaled_final/1646_rv.mp4	0.0	335.8120014667511	1.0084669589996338
76	319.0228328704834	pulse	0	t		74.0	2.5	/experiments/Knapen_AOT/AOT_stimuli/rescaled_final/1646_rv.mp4	0.0	335.9955368041992	
76	319.8477644920349	movie	1		289	74.0	2.5	/experiments/Knapen_AOT/AOT_stimuli/rescaled_final/1646_rv.mp4	0.0	336.82046842575073	2.4920456409454346
76	320.62114119529724	pulse	1	t		74.0	2.5	/experiments/Knapen_AOT/AOT_stimuli/rescaled_final/1646_rv.mp4	0.0	337.59384512901306	
76	322.22125482559204	pulse	1	t		74.0	2.5	/experiments/Knapen_AOT/AOT_stimuli/rescaled_final/1646_rv.mp4	0.0	339.19395875930786	
76	322.33981013298035	fix_post	2		12	74.0	2.5	/experiments/Knapen_AOT/AOT_stimuli/rescaled_final/1646_rv.mp4	0.0	339.31251406669617	0.1000823974609375
77	322.4398925304413	fix_pre	0		120	75.0	2.5	/experiments/Knapen_AOT/AOT_stimuli/rescaled_final/0723_rv.mp4	0.0	339.4125964641571	1.0084407329559326
77	323.4483332633972	movie	1		275	75.0	2.5	/experiments/Knapen_AOT/AOT_stimuli/rescaled_final/0723_rv.mp4	0.0	340.42103719711304	2.4920167922973633
77	323.82196736335754	pulse	1	t		75.0	2.5	/experiments/Knapen_AOT/AOT_stimuli/rescaled_final/0723_rv.mp4	0.0	340.79467129707336	
77	325.4221439361572	pulse	1	t		75.0	2.5	/experiments/Knapen_AOT/AOT_stimuli/rescaled_final/0723_rv.mp4	0.0	342.39484786987305	
77	325.9403500556946	fix_post	2		12	75.0	2.5	/experiments/Knapen_AOT/AOT_stimuli/rescaled_final/0723_rv.mp4	0.0	342.9130539894104	0.09999227523803711
78	326.0403423309326	fix_pre	0		119	76.0	2.5	/experiments/Knapen_AOT/AOT_stimuli/rescaled_final/0610_fw.mp4	0.0	343.01304626464844	1.000199556350708
78	327.0240647792816	pulse	0	t		76.0	2.5	/experiments/Knapen_AOT/AOT_stimuli/rescaled_final/0610_fw.mp4	0.0	343.99676871299744	
78	327.0405418872833	movie	1		273	76.0	2.5	/experiments/Knapen_AOT/AOT_stimuli/rescaled_final/0610_fw.mp4	0.0	344.01324582099915	2.5003514289855957
78	328.6252295970917	pulse	1	t		76.0	2.5	/experiments/Knapen_AOT/AOT_stimuli/rescaled_final/0610_fw.mp4	0.0	345.5979335308075	
78	329.5408933162689	fix_post	2		12	76.0	2.5	/experiments/Knapen_AOT/AOT_stimuli/rescaled_final/0610_fw.mp4	0.0	346.51359724998474	0.10007643699645996
79	329.6409697532654	fix_pre	0		120	77.0	2.5	blank	1.0	346.6136736869812	1.0001282691955566
79	330.2248718738556	pulse	0	t		77.0	2.5	blank	1.0	347.1975758075714	
79	330.64109802246094	movie	1		300	77.0	2.5	blank	1.0	347.61380195617676	2.5003368854522705
79	331.8248496055603	pulse	1	t		77.0	2.5	blank	1.0	348.7975535392761	
79	333.1414349079132	fix_post	2		12	77.0	2.5	blank	1.0	350.114138841629	0.10004448890686035
80	333.24147939682007	fix_pre	0		120	78.0	2.5	/experiments/Knapen_AOT/AOT_stimuli/rescaled_final/0528_fw.mp4	0.0	350.2141833305359	1.0085766315460205
80	333.4251661300659	pulse	0	t		78.0	2.5	/experiments/Knapen_AOT/AOT_stimuli/rescaled_final/0528_fw.mp4	0.0	350.39787006378174	
80	334.2500560283661	movie	1		267	78.0	2.5	/experiments/Knapen_AOT/AOT_stimuli/rescaled_final/0528_fw.mp4	0.0	351.2227599620819	2.491931676864624
80	335.0233790874481	pulse	1	t		78.0	2.5	/experiments/Knapen_AOT/AOT_stimuli/rescaled_final/0528_fw.mp4	0.0	351.99608302116394	
80	336.62384510040283	pulse	1	t		78.0	2.5	/experiments/Knapen_AOT/AOT_stimuli/rescaled_final/0528_fw.mp4	0.0	353.59654903411865	
80	336.7419877052307	fix_post	2		12	78.0	2.5	/experiments/Knapen_AOT/AOT_stimuli/rescaled_final/0528_fw.mp4	0.0	353.71469163894653	0.09999895095825195
81	336.84198665618896	fix_pre	0		120	79.0	2.5	/experiments/Knapen_AOT/AOT_stimuli/rescaled_final/1271_rv.mp4	0.0	353.8146905899048	1.0085399150848389
81	337.8505265712738	movie	1		271	79.0	2.5	/experiments/Knapen_AOT/AOT_stimuli/rescaled_final/1271_rv.mp4	0.0	354.8232305049896	2.491983652114868
81	338.2244699001312	pulse	1	t		79.0	2.5	/experiments/Knapen_AOT/AOT_stimuli/rescaled_final/1271_rv.mp4	0.0	355.19717383384705	
81	339.8249864578247	pulse	1	t		79.0	2.5	/experiments/Knapen_AOT/AOT_stimuli/rescaled_final/1271_rv.mp4	0.0	356.7976903915405	
81	340.3425102233887	fix_post	2		12	79.0	2.5	/experiments/Knapen_AOT/AOT_stimuli/rescaled_final/1271_rv.mp4	0.0	357.3152141571045	0.10008740425109863
82	340.44259762763977	fix_pre	0		119	80.0	2.5	/experiments/Knapen_AOT/AOT_stimuli/rescaled_final/1697_rv.mp4	0.0	357.4153015613556	1.0001986026763916
82	341.42625975608826	pulse	0	t		80.0	2.5	/experiments/Knapen_AOT/AOT_stimuli/rescaled_final/1697_rv.mp4	0.0	358.3989636898041	
82	341.44279623031616	movie	1		270	80.0	2.5	/experiments/Knapen_AOT/AOT_stimuli/rescaled_final/1697_rv.mp4	0.0	358.415500164032	2.5002663135528564
82	343.0250792503357	pulse	1	t		80.0	2.5	/experiments/Knapen_AOT/AOT_stimuli/rescaled_final/1697_rv.mp4	0.0	359.9977831840515	
82	343.943062543869	fix_post	2		12	80.0	2.5	/experiments/Knapen_AOT/AOT_stimuli/rescaled_final/1697_rv.mp4	0.0	360.91576647758484	0.10001301765441895
83	344.04307556152344	fix_pre	0		120	81.0	2.5	/experiments/Knapen_AOT/AOT_stimuli/rescaled_final/2064_fw.mp4	0.0	361.01577949523926	1.0085136890411377
83	344.6189658641815	pulse	0	t		81.0	2.5	/experiments/Knapen_AOT/AOT_stimuli/rescaled_final/2064_fw.mp4	0.0	361.59166979789734	
83	345.0515892505646	movie	1		264	81.0	2.5	/experiments/Knapen_AOT/AOT_stimuli/rescaled_final/2064_fw.mp4	0.0	362.0242931842804	2.492011070251465
83	346.2250437736511	pulse	1	t		81.0	2.5	/experiments/Knapen_AOT/AOT_stimuli/rescaled_final/2064_fw.mp4	0.0	363.19774770736694	
83	347.54360032081604	fix_post	2		12	81.0	2.5	/experiments/Knapen_AOT/AOT_stimuli/rescaled_final/2064_fw.mp4	0.0	364.51630425453186	0.10004425048828125
84	347.6436445713043	fix_pre	0		120	82.0	2.5	blank	1.0	364.61634850502014	1.0001144409179688
84	347.8195652961731	pulse	0	t		82.0	2.5	blank	1.0	364.7922692298889	
84	348.6437590122223	movie	1		300	82.0	2.5	blank	1.0	365.6164629459381	2.5004067420959473
84	349.41957926750183	pulse	1	t		82.0	2.5	blank	1.0	366.39228320121765	
84	351.0193841457367	pulse	1	t		82.0	2.5	blank	1.0	367.9920880794525	
84	351.14416575431824	fix_post	2		12	82.0	2.5	blank	1.0	368.11686968803406	0.10004043579101562
85	351.24420619010925	fix_pre	0		120	83.0	2.5	/experiments/Knapen_AOT/AOT_stimuli/rescaled_final/1911_fw.mp4	0.0	368.2169101238251	1.008458137512207
85	352.25266432762146	movie	1		257	83.0	2.5	/experiments/Knapen_AOT/AOT_stimuli/rescaled_final/1911_fw.mp4	0.0	369.2253682613373	2.4920272827148438
85	352.6198308467865	pulse	1	t		83.0	2.5	/experiments/Knapen_AOT/AOT_stimuli/rescaled_final/1911_fw.mp4	0.0	369.5925347805023	
85	354.22023153305054	pulse	1	t		83.0	2.5	/experiments/Knapen_AOT/AOT_stimuli/rescaled_final/1911_fw.mp4	0.0	371.19293546676636	
85	354.7446916103363	fix_post	2		12	83.0	2.5	/experiments/Knapen_AOT/AOT_stimuli/rescaled_final/1911_fw.mp4	0.0	371.7173955440521	0.10000967979431152
87	354.8447012901306	stim	0		1715					371.81740522384644	14.293828010559082
87	355.82031083106995	pulse	0	t						372.79301476478577	
87	357.4202995300293	pulse	0	t						374.3930034637451	
87	359.02055954933167	pulse	0	t						375.9932634830475	
87	360.6208791732788	pulse	0	t						377.59358310699463	
87	362.22113490104675	pulse	0	t						379.1938388347626	
87	363.8213288784027	pulse	0	t						380.79403281211853	
87	365.4214940071106	pulse	0	t						382.3941979408264	
87	367.0217831134796	pulse	0	t						383.99448704719543	
87	368.62204122543335	pulse	0	t						385.59474515914917	
