trial_nr	onset	event_type	phase	response	nr_frames	movie_index	movie_duration	movie_file	blank	onset_abs	duration
0	0.15809917449951172	stim	0		6					26.937698125839233	0.04992818832397461
0	0.20011568069458008	response	0	space						26.9797146320343	
1	0.20802736282348633	stim	0		4795					26.987626314163208	39.97301411628723
1	40.171403884887695	pulse	0	t						66.95100283622742	
1	40.18104147911072	stim	1		1715					66.96064043045044	14.301819324493408
1	41.764488697052	pulse	1	t						68.54408764839172	
1	43.36479830741882	pulse	1	t						70.14439725875854	
1	44.96499276161194	pulse	1	t						71.74459171295166	
1	46.56518054008484	pulse	1	t						73.34477949142456	
1	48.16566729545593	pulse	1	t						74.94526624679565	
1	49.765865087509155	pulse	1	t						76.54546403884888	
1	51.36585450172424	pulse	1	t						78.14545345306396	
1	52.966158866882324	pulse	1	t						79.74575781822205	
2	54.482860803604126	fix_pre	0		11	0.0	2.5	/experiments/Knapen_AOT/AOT_stimuli/rescaled_final/0521_fw.mp4	0.0	81.26245975494385	0.10848736763000488
2	54.566561460494995	pulse	0	t		0.0	2.5	/experiments/Knapen_AOT/AOT_stimuli/rescaled_final/0521_fw.mp4	0.0	81.34616041183472	
2	54.59134817123413	movie	1		294	0.0	2.5	/experiments/Knapen_AOT/AOT_stimuli/rescaled_final/0521_fw.mp4	0.0	81.37094712257385	2.4918580055236816
2	56.165204763412476	pulse	1	t		0.0	2.5	/experiments/Knapen_AOT/AOT_stimuli/rescaled_final/0521_fw.mp4	0.0	82.9448037147522	
2	57.08320617675781	fix_post	2		12	0.0	2.5	/experiments/Knapen_AOT/AOT_stimuli/rescaled_final/0521_fw.mp4	0.0	83.86280512809753	0.10008621215820312
3	57.183292388916016	fix_pre	0		120	1.0	2.5	/experiments/Knapen_AOT/AOT_stimuli/rescaled_final/0290_rv.mp4	0.0	83.96289134025574	1.0084707736968994
3	57.766844749450684	pulse	0	t		1.0	2.5	/experiments/Knapen_AOT/AOT_stimuli/rescaled_final/0290_rv.mp4	0.0	84.5464437007904	
3	58.191763162612915	movie	1		286	1.0	2.5	/experiments/Knapen_AOT/AOT_stimuli/rescaled_final/0290_rv.mp4	0.0	84.97136211395264	2.492075204849243
3	59.36699342727661	pulse	1	t		1.0	2.5	/experiments/Knapen_AOT/AOT_stimuli/rescaled_final/0290_rv.mp4	0.0	86.14659237861633	
3	60.68383836746216	fix_post	2		12	1.0	2.5	/experiments/Knapen_AOT/AOT_stimuli/rescaled_final/0290_rv.mp4	0.0	87.46343731880188	0.1001272201538086
4	60.78396558761597	fix_pre	0		120	2.0	2.5	/experiments/Knapen_AOT/AOT_stimuli/rescaled_final/0541_fw.mp4	0.0	87.56356453895569	1.0083303451538086
4	60.967472314834595	pulse	0	t		2.0	2.5	/experiments/Knapen_AOT/AOT_stimuli/rescaled_final/0541_fw.mp4	0.0	87.74707126617432	
4	61.792295932769775	movie	1		283	2.0	2.5	/experiments/Knapen_AOT/AOT_stimuli/rescaled_final/0541_fw.mp4	0.0	88.5718948841095	2.4920284748077393
4	62.56637215614319	pulse	1	t		2.0	2.5	/experiments/Knapen_AOT/AOT_stimuli/rescaled_final/0541_fw.mp4	0.0	89.34597110748291	
4	64.16734957695007	pulse	1	t		2.0	2.5	/experiments/Knapen_AOT/AOT_stimuli/rescaled_final/0541_fw.mp4	0.0	90.9469485282898	
4	64.28432440757751	fix_post	2		12	2.0	2.5	/experiments/Knapen_AOT/AOT_stimuli/rescaled_final/0541_fw.mp4	0.0	91.06392335891724	0.10001158714294434
5	64.38433599472046	fix_pre	0		120	3.0	2.5	/experiments/Knapen_AOT/AOT_stimuli/rescaled_final/1313_fw.mp4	0.0	91.16393494606018	1.0086567401885986
5	65.39299273490906	movie	1		279	3.0	2.5	/experiments/Knapen_AOT/AOT_stimuli/rescaled_final/1313_fw.mp4	0.0	92.17259168624878	2.491903305053711
5	65.76662755012512	pulse	1	t		3.0	2.5	/experiments/Knapen_AOT/AOT_stimuli/rescaled_final/1313_fw.mp4	0.0	92.54622650146484	
5	67.36606907844543	pulse	1	t		3.0	2.5	/experiments/Knapen_AOT/AOT_stimuli/rescaled_final/1313_fw.mp4	0.0	94.14566802978516	
5	67.88489603996277	fix_post	2		12	3.0	2.5	/experiments/Knapen_AOT/AOT_stimuli/rescaled_final/1313_fw.mp4	0.0	94.66449499130249	0.10001301765441895
6	67.98490905761719	fix_pre	0		119	4.0	2.5	/experiments/Knapen_AOT/AOT_stimuli/rescaled_final/1919_fw.mp4	0.0	94.76450800895691	1.0002286434173584
6	68.96884512901306	pulse	0	t		4.0	2.5	/experiments/Knapen_AOT/AOT_stimuli/rescaled_final/1919_fw.mp4	0.0	95.74844408035278	
6	68.98513770103455	movie	1		293	4.0	2.5	/experiments/Knapen_AOT/AOT_stimuli/rescaled_final/1919_fw.mp4	0.0	95.76473665237427	2.50028395652771
6	70.5673360824585	pulse	1	t		4.0	2.5	/experiments/Knapen_AOT/AOT_stimuli/rescaled_final/1919_fw.mp4	0.0	97.34693503379822	
6	71.48542165756226	fix_post	2		12	4.0	2.5	/experiments/Knapen_AOT/AOT_stimuli/rescaled_final/1919_fw.mp4	0.0	98.26502060890198	0.10001206398010254
7	71.58543372154236	fix_pre	0		120	5.0	2.5	/experiments/Knapen_AOT/AOT_stimuli/rescaled_final/1725_rv.mp4	0.0	98.36503267288208	1.00852370262146
7	72.16110634803772	pulse	0	t		5.0	2.5	/experiments/Knapen_AOT/AOT_stimuli/rescaled_final/1725_rv.mp4	0.0	98.94070529937744	
7	72.59395742416382	movie	1		292	5.0	2.5	/experiments/Knapen_AOT/AOT_stimuli/rescaled_final/1725_rv.mp4	0.0	99.37355637550354	2.491969108581543
7	73.76127934455872	pulse	1	t		5.0	2.5	/experiments/Knapen_AOT/AOT_stimuli/rescaled_final/1725_rv.mp4	0.0	100.54087829589844	
7	75.08592653274536	fix_post	2		12	5.0	2.5	/experiments/Knapen_AOT/AOT_stimuli/rescaled_final/1725_rv.mp4	0.0	101.86552548408508	0.1000065803527832
8	75.18593311309814	fix_pre	0		120	6.0	2.5	blank	1.0	101.96553206443787	1.000180959701538
8	75.36143398284912	pulse	0	t		6.0	2.5	blank	1.0	102.14103293418884	
8	76.18611407279968	movie	1		300	6.0	2.5	blank	1.0	102.9657130241394	2.5003840923309326
8	76.9614953994751	pulse	1	t		6.0	2.5	blank	1.0	103.74109435081482	
8	78.56167531013489	pulse	1	t		6.0	2.5	blank	1.0	105.34127426147461	
8	78.68649816513062	fix_post	2		12	6.0	2.5	blank	1.0	105.46609711647034	0.10011458396911621
9	78.78661274909973	fix_pre	0		120	7.0	2.5	/experiments/Knapen_AOT/AOT_stimuli/rescaled_final/0405_fw.mp4	0.0	105.56621170043945	1.0083787441253662
9	79.7949914932251	movie	1		290	7.0	2.5	/experiments/Knapen_AOT/AOT_stimuli/rescaled_final/0405_fw.mp4	0.0	106.57459044456482	2.4919917583465576
9	80.16194367408752	pulse	1	t		7.0	2.5	/experiments/Knapen_AOT/AOT_stimuli/rescaled_final/0405_fw.mp4	0.0	106.94154262542725	
9	81.76207447052002	pulse	1	t		7.0	2.5	/experiments/Knapen_AOT/AOT_stimuli/rescaled_final/0405_fw.mp4	0.0	108.54167342185974	
9	82.28698325157166	fix_post	2		12	7.0	2.5	/experiments/Knapen_AOT/AOT_stimuli/rescaled_final/0405_fw.mp4	0.0	109.06658220291138	0.10001969337463379
10	82.38700294494629	fix_pre	0		118	8.0	2.5	/experiments/Knapen_AOT/AOT_stimuli/rescaled_final/1179_rv.mp4	0.0	109.16660189628601	0.9918961524963379
10	83.36245155334473	pulse	0	t		8.0	2.5	/experiments/Knapen_AOT/AOT_stimuli/rescaled_final/1179_rv.mp4	0.0	110.14205050468445	
10	83.37889909744263	movie	1		293	8.0	2.5	/experiments/Knapen_AOT/AOT_stimuli/rescaled_final/1179_rv.mp4	0.0	110.15849804878235	2.50032639503479
10	84.96273994445801	pulse	1	t		8.0	2.5	/experiments/Knapen_AOT/AOT_stimuli/rescaled_final/1179_rv.mp4	0.0	111.74233889579773	
10	85.87922549247742	fix_post	2		12	8.0	2.5	/experiments/Knapen_AOT/AOT_stimuli/rescaled_final/1179_rv.mp4	0.0	112.65882444381714	0.1000068187713623
11	85.97923231124878	fix_pre	0		120	9.0	2.5	/experiments/Knapen_AOT/AOT_stimuli/rescaled_final/1225_rv.mp4	0.0	112.7588312625885	1.0003092288970947
11	86.56283807754517	pulse	0	t		9.0	2.5	/experiments/Knapen_AOT/AOT_stimuli/rescaled_final/1225_rv.mp4	0.0	113.34243702888489	
11	86.97954154014587	movie	1		296	9.0	2.5	/experiments/Knapen_AOT/AOT_stimuli/rescaled_final/1225_rv.mp4	0.0	113.7591404914856	2.5002071857452393
11	88.16312718391418	pulse	1	t		9.0	2.5	/experiments/Knapen_AOT/AOT_stimuli/rescaled_final/1225_rv.mp4	0.0	114.9427261352539	
11	89.47974872589111	fix_post	2		12	9.0	2.5	/experiments/Knapen_AOT/AOT_stimuli/rescaled_final/1225_rv.mp4	0.0	116.25934767723083	0.1000969409942627
12	89.57984566688538	fix_pre	0		120	10.0	2.5	/experiments/Knapen_AOT/AOT_stimuli/rescaled_final/0698_rv.mp4	0.0	116.3594446182251	1.0084235668182373
12	89.76332426071167	pulse	0	t		10.0	2.5	/experiments/Knapen_AOT/AOT_stimuli/rescaled_final/0698_rv.mp4	0.0	116.54292321205139	
12	90.58826923370361	movie	1		298	10.0	2.5	/experiments/Knapen_AOT/AOT_stimuli/rescaled_final/0698_rv.mp4	0.0	117.36786818504333	2.4920499324798584
12	91.36355447769165	pulse	1	t		10.0	2.5	/experiments/Knapen_AOT/AOT_stimuli/rescaled_final/0698_rv.mp4	0.0	118.14315342903137	
12	92.96383857727051	pulse	1	t		10.0	2.5	/experiments/Knapen_AOT/AOT_stimuli/rescaled_final/0698_rv.mp4	0.0	119.74343752861023	
12	93.08031916618347	fix_post	2		12	10.0	2.5	/experiments/Knapen_AOT/AOT_stimuli/rescaled_final/0698_rv.mp4	0.0	119.8599181175232	0.09998607635498047
13	93.18030524253845	fix_pre	0		120	11.0	2.5	/experiments/Knapen_AOT/AOT_stimuli/rescaled_final/0072_fw.mp4	0.0	119.95990419387817	1.0085053443908691
13	94.18881058692932	movie	1		295	11.0	2.5	/experiments/Knapen_AOT/AOT_stimuli/rescaled_final/0072_fw.mp4	0.0	120.96840953826904	2.49204421043396
13	94.56406998634338	pulse	1	t		11.0	2.5	/experiments/Knapen_AOT/AOT_stimuli/rescaled_final/0072_fw.mp4	0.0	121.3436689376831	
13	96.1614990234375	pulse	1	t		11.0	2.5	/experiments/Knapen_AOT/AOT_stimuli/rescaled_final/0072_fw.mp4	0.0	122.94109797477722	
13	96.68085479736328	fix_post	2		12	11.0	2.5	/experiments/Knapen_AOT/AOT_stimuli/rescaled_final/0072_fw.mp4	0.0	123.460453748703	0.10000467300415039
14	96.78085947036743	fix_pre	0		119	12.0	2.5	blank	1.0	123.56045842170715	0.991915225982666
14	97.76452898979187	pulse	0	t		12.0	2.5	blank	1.0	124.54412794113159	
14	97.7727746963501	movie	1		301	12.0	2.5	blank	1.0	124.55237364768982	2.5086162090301514
14	99.36484932899475	pulse	1	t		12.0	2.5	blank	1.0	126.14444828033447	
14	100.28139090538025	fix_post	2		12	12.0	2.5	blank	1.0	127.06098985671997	0.10003113746643066
15	100.38142204284668	fix_pre	0		120	13.0	2.5	/experiments/Knapen_AOT/AOT_stimuli/rescaled_final/0655_rv.mp4	0.0	127.1610209941864	1.0085079669952393
15	100.9651050567627	pulse	0	t		13.0	2.5	/experiments/Knapen_AOT/AOT_stimuli/rescaled_final/0655_rv.mp4	0.0	127.74470400810242	
15	101.38993000984192	movie	1		283	13.0	2.5	/experiments/Knapen_AOT/AOT_stimuli/rescaled_final/0655_rv.mp4	0.0	128.16952896118164	2.4921329021453857
15	102.5634446144104	pulse	1	t		13.0	2.5	/experiments/Knapen_AOT/AOT_stimuli/rescaled_final/0655_rv.mp4	0.0	129.34304356575012	
15	103.8820629119873	fix_post	2		12	13.0	2.5	/experiments/Knapen_AOT/AOT_stimuli/rescaled_final/0655_rv.mp4	0.0	130.66166186332703	0.09989643096923828
16	103.98195934295654	fix_pre	0		120	14.0	2.5	/experiments/Knapen_AOT/AOT_stimuli/rescaled_final/0062_fw.mp4	0.0	130.76155829429626	1.0085148811340332
16	104.16552495956421	pulse	0	t		14.0	2.5	/experiments/Knapen_AOT/AOT_stimuli/rescaled_final/0062_fw.mp4	0.0	130.94512391090393	
16	104.99047422409058	movie	1		292	14.0	2.5	/experiments/Knapen_AOT/AOT_stimuli/rescaled_final/0062_fw.mp4	0.0	131.7700731754303	2.492046356201172
16	105.76396822929382	pulse	1	t		14.0	2.5	/experiments/Knapen_AOT/AOT_stimuli/rescaled_final/0062_fw.mp4	0.0	132.54356718063354	
16	107.3641369342804	pulse	1	t		14.0	2.5	/experiments/Knapen_AOT/AOT_stimuli/rescaled_final/0062_fw.mp4	0.0	134.14373588562012	
16	107.48252058029175	fix_post	2		12	14.0	2.5	/experiments/Knapen_AOT/AOT_stimuli/rescaled_final/0062_fw.mp4	0.0	134.26211953163147	0.0999917984008789
17	107.58251237869263	fix_pre	0		120	15.0	2.5	/experiments/Knapen_AOT/AOT_stimuli/rescaled_final/0039_rv.mp4	0.0	134.36211133003235	1.0085053443908691
17	108.5910177230835	movie	1		277	15.0	2.5	/experiments/Knapen_AOT/AOT_stimuli/rescaled_final/0039_rv.mp4	0.0	135.37061667442322	2.4920217990875244
17	108.9644992351532	pulse	1	t		15.0	2.5	/experiments/Knapen_AOT/AOT_stimuli/rescaled_final/0039_rv.mp4	0.0	135.74409818649292	
17	110.56420302391052	pulse	1	t		15.0	2.5	/experiments/Knapen_AOT/AOT_stimuli/rescaled_final/0039_rv.mp4	0.0	137.34380197525024	
17	111.08303952217102	fix_post	2		12	15.0	2.5	/experiments/Knapen_AOT/AOT_stimuli/rescaled_final/0039_rv.mp4	0.0	137.86263847351074	0.09999704360961914
18	111.18303656578064	fix_pre	0		119	16.0	2.5	/experiments/Knapen_AOT/AOT_stimuli/rescaled_final/1574_rv.mp4	0.0	137.96263551712036	1.0002343654632568
18	112.16694235801697	pulse	0	t		16.0	2.5	/experiments/Knapen_AOT/AOT_stimuli/rescaled_final/1574_rv.mp4	0.0	138.9465413093567	
18	112.1832709312439	movie	1		291	16.0	2.5	/experiments/Knapen_AOT/AOT_stimuli/rescaled_final/1574_rv.mp4	0.0	138.96286988258362	2.500328540802002
18	113.76591038703918	pulse	1	t		16.0	2.5	/experiments/Knapen_AOT/AOT_stimuli/rescaled_final/1574_rv.mp4	0.0	140.5455093383789	
18	114.6835994720459	fix_post	2		12	16.0	2.5	/experiments/Knapen_AOT/AOT_stimuli/rescaled_final/1574_rv.mp4	0.0	141.46319842338562	0.09999251365661621
19	114.78359198570251	fix_pre	0		120	17.0	2.5	/experiments/Knapen_AOT/AOT_stimuli/rescaled_final/1854_rv.mp4	0.0	141.56319093704224	1.0085289478302002
19	115.3672149181366	pulse	0	t		17.0	2.5	/experiments/Knapen_AOT/AOT_stimuli/rescaled_final/1854_rv.mp4	0.0	142.14681386947632	
19	115.79212093353271	movie	1		279	17.0	2.5	/experiments/Knapen_AOT/AOT_stimuli/rescaled_final/1854_rv.mp4	0.0	142.57171988487244	2.492003917694092
19	116.9657952785492	pulse	1	t		17.0	2.5	/experiments/Knapen_AOT/AOT_stimuli/rescaled_final/1854_rv.mp4	0.0	143.74539422988892	
19	118.2841248512268	fix_post	2		12	17.0	2.5	/experiments/Knapen_AOT/AOT_stimuli/rescaled_final/1854_rv.mp4	0.0	145.06372380256653	0.10011029243469238
20	118.3842351436615	fix_pre	0		120	18.0	2.5	/experiments/Knapen_AOT/AOT_stimuli/rescaled_final/0627_fw.mp4	0.0	145.16383409500122	1.0083954334259033
20	118.56767797470093	pulse	0	t		18.0	2.5	/experiments/Knapen_AOT/AOT_stimuli/rescaled_final/0627_fw.mp4	0.0	145.34727692604065	
20	119.3926305770874	movie	1		269	18.0	2.5	/experiments/Knapen_AOT/AOT_stimuli/rescaled_final/0627_fw.mp4	0.0	146.17222952842712	2.492027997970581
20	120.16597867012024	pulse	1	t		18.0	2.5	/experiments/Knapen_AOT/AOT_stimuli/rescaled_final/0627_fw.mp4	0.0	146.94557762145996	
20	121.76651763916016	pulse	1	t		18.0	2.5	/experiments/Knapen_AOT/AOT_stimuli/rescaled_final/0627_fw.mp4	0.0	148.54611659049988	
20	121.88465857505798	fix_post	2		12	18.0	2.5	/experiments/Knapen_AOT/AOT_stimuli/rescaled_final/0627_fw.mp4	0.0	148.6642575263977	0.10012507438659668
21	121.98478364944458	fix_pre	0		120	19.0	2.5	/experiments/Knapen_AOT/AOT_stimuli/rescaled_final/1673_rv.mp4	0.0	148.7643826007843	1.0084507465362549
21	122.99323439598083	movie	1		265	19.0	2.5	/experiments/Knapen_AOT/AOT_stimuli/rescaled_final/1673_rv.mp4	0.0	149.77283334732056	2.4919543266296387
21	123.36856603622437	pulse	1	t		19.0	2.5	/experiments/Knapen_AOT/AOT_stimuli/rescaled_final/1673_rv.mp4	0.0	150.1481649875641	
21	124.96684789657593	pulse	1	t		19.0	2.5	/experiments/Knapen_AOT/AOT_stimuli/rescaled_final/1673_rv.mp4	0.0	151.74644684791565	
21	125.48518872261047	fix_post	2		12	19.0	2.5	/experiments/Knapen_AOT/AOT_stimuli/rescaled_final/1673_rv.mp4	0.0	152.2647876739502	0.10001039505004883
22	125.58519911766052	fix_pre	0		119	20.0	2.5	/experiments/Knapen_AOT/AOT_stimuli/rescaled_final/0015_fw.mp4	0.0	152.36479806900024	1.0001721382141113
22	126.56899166107178	pulse	0	t		20.0	2.5	/experiments/Knapen_AOT/AOT_stimuli/rescaled_final/0015_fw.mp4	0.0	153.3485906124115	
22	126.58537125587463	movie	1		288	20.0	2.5	/experiments/Knapen_AOT/AOT_stimuli/rescaled_final/0015_fw.mp4	0.0	153.36497020721436	2.5003678798675537
22	128.16781854629517	pulse	1	t		20.0	2.5	/experiments/Knapen_AOT/AOT_stimuli/rescaled_final/0015_fw.mp4	0.0	154.9474174976349	
22	129.0857391357422	fix_post	2		12	20.0	2.5	/experiments/Knapen_AOT/AOT_stimuli/rescaled_final/0015_fw.mp4	0.0	155.8653380870819	0.10001516342163086
23	129.18575429916382	fix_pre	0		120	21.0	2.5	blank	1.0	155.96535325050354	1.0003130435943604
23	129.76147484779358	pulse	0	t		21.0	2.5	blank	1.0	156.5410737991333	
23	130.18606734275818	movie	1		299	21.0	2.5	blank	1.0	156.9656662940979	2.500216007232666
23	131.36150193214417	pulse	1	t		21.0	2.5	blank	1.0	158.1411008834839	
23	132.68628334999084	fix_post	2		12	21.0	2.5	blank	1.0	159.46588230133057	0.1000053882598877
24	132.78628873825073	fix_pre	0		120	22.0	2.5	/experiments/Knapen_AOT/AOT_stimuli/rescaled_final/0661_fw.mp4	0.0	159.56588768959045	1.008531093597412
24	132.96158289909363	pulse	0	t		22.0	2.5	/experiments/Knapen_AOT/AOT_stimuli/rescaled_final/0661_fw.mp4	0.0	159.74118185043335	
24	133.79481983184814	movie	1		282	22.0	2.5	/experiments/Knapen_AOT/AOT_stimuli/rescaled_final/0661_fw.mp4	0.0	160.57441878318787	2.492007255554199
24	134.56176924705505	pulse	1	t		22.0	2.5	/experiments/Knapen_AOT/AOT_stimuli/rescaled_final/0661_fw.mp4	0.0	161.34136819839478	
24	136.16211676597595	pulse	1	t		22.0	2.5	/experiments/Knapen_AOT/AOT_stimuli/rescaled_final/0661_fw.mp4	0.0	162.94171571731567	
24	136.28682708740234	fix_post	2		12	22.0	2.5	/experiments/Knapen_AOT/AOT_stimuli/rescaled_final/0661_fw.mp4	0.0	163.06642603874207	0.10003161430358887
25	136.38685870170593	fix_pre	0		120	23.0	2.5	/experiments/Knapen_AOT/AOT_stimuli/rescaled_final/1602_rv.mp4	0.0	163.16645765304565	1.0085344314575195
25	137.39539313316345	movie	1		283	23.0	2.5	/experiments/Knapen_AOT/AOT_stimuli/rescaled_final/1602_rv.mp4	0.0	164.17499208450317	2.4919488430023193
25	137.76130747795105	pulse	1	t		23.0	2.5	/experiments/Knapen_AOT/AOT_stimuli/rescaled_final/1602_rv.mp4	0.0	164.54090642929077	
25	139.36186289787292	pulse	1	t		23.0	2.5	/experiments/Knapen_AOT/AOT_stimuli/rescaled_final/1602_rv.mp4	0.0	166.14146184921265	
25	139.88734197616577	fix_post	2		12	23.0	2.5	/experiments/Knapen_AOT/AOT_stimuli/rescaled_final/1602_rv.mp4	0.0	166.6669409275055	0.10013151168823242
26	139.987473487854	fix_pre	0		118	24.0	2.5	/experiments/Knapen_AOT/AOT_stimuli/rescaled_final/1768_rv.mp4	0.0	166.76707243919373	0.9918265342712402
26	140.96278285980225	pulse	0	t		24.0	2.5	/experiments/Knapen_AOT/AOT_stimuli/rescaled_final/1768_rv.mp4	0.0	167.74238181114197	
26	140.97930002212524	movie	1		284	24.0	2.5	/experiments/Knapen_AOT/AOT_stimuli/rescaled_final/1768_rv.mp4	0.0	167.75889897346497	2.5002896785736084
26	142.5616114139557	pulse	1	t		24.0	2.5	/experiments/Knapen_AOT/AOT_stimuli/rescaled_final/1768_rv.mp4	0.0	169.3412103652954	
26	143.47958970069885	fix_post	2		12	24.0	2.5	/experiments/Knapen_AOT/AOT_stimuli/rescaled_final/1768_rv.mp4	0.0	170.25918865203857	0.10001516342163086
27	143.57960486412048	fix_pre	0		120	25.0	2.5	/experiments/Knapen_AOT/AOT_stimuli/rescaled_final/0219_rv.mp4	0.0	170.3592038154602	1.008500337600708
27	144.1632730960846	pulse	0	t		25.0	2.5	/experiments/Knapen_AOT/AOT_stimuli/rescaled_final/0219_rv.mp4	0.0	170.94287204742432	
27	144.5881052017212	movie	1		286	25.0	2.5	/experiments/Knapen_AOT/AOT_stimuli/rescaled_final/0219_rv.mp4	0.0	171.3677041530609	2.4919939041137695
27	145.7616364955902	pulse	1	t		25.0	2.5	/experiments/Knapen_AOT/AOT_stimuli/rescaled_final/0219_rv.mp4	0.0	172.54123544692993	
27	147.08009910583496	fix_post	2		12	25.0	2.5	/experiments/Knapen_AOT/AOT_stimuli/rescaled_final/0219_rv.mp4	0.0	173.85969805717468	0.10002875328063965
28	147.1801278591156	fix_pre	0		120	26.0	2.5	/experiments/Knapen_AOT/AOT_stimuli/rescaled_final/1827_rv.mp4	0.0	173.95972681045532	1.0085136890411377
28	147.36377120018005	pulse	0	t		26.0	2.5	/experiments/Knapen_AOT/AOT_stimuli/rescaled_final/1827_rv.mp4	0.0	174.14337015151978	
28	148.18864154815674	movie	1		284	26.0	2.5	/experiments/Knapen_AOT/AOT_stimuli/rescaled_final/1827_rv.mp4	0.0	174.96824049949646	2.492018699645996
28	148.96212887763977	pulse	1	t		26.0	2.5	/experiments/Knapen_AOT/AOT_stimuli/rescaled_final/1827_rv.mp4	0.0	175.7417278289795	
28	150.56233048439026	pulse	1	t		26.0	2.5	/experiments/Knapen_AOT/AOT_stimuli/rescaled_final/1827_rv.mp4	0.0	177.34192943572998	
28	150.68066024780273	fix_post	2		12	26.0	2.5	/experiments/Knapen_AOT/AOT_stimuli/rescaled_final/1827_rv.mp4	0.0	177.46025919914246	0.10003137588500977
29	150.78069162368774	fix_pre	0		120	27.0	2.5	/experiments/Knapen_AOT/AOT_stimuli/rescaled_final/0331_fw.mp4	0.0	177.56029057502747	1.0085208415985107
29	151.78921246528625	movie	1		286	27.0	2.5	/experiments/Knapen_AOT/AOT_stimuli/rescaled_final/0331_fw.mp4	0.0	178.56881141662598	2.4920036792755127
29	152.16314816474915	pulse	1	t		27.0	2.5	/experiments/Knapen_AOT/AOT_stimuli/rescaled_final/0331_fw.mp4	0.0	178.94274711608887	
29	153.76240062713623	pulse	1	t		27.0	2.5	/experiments/Knapen_AOT/AOT_stimuli/rescaled_final/0331_fw.mp4	0.0	180.54199957847595	
29	154.28121614456177	fix_post	2		12	27.0	2.5	/experiments/Knapen_AOT/AOT_stimuli/rescaled_final/0331_fw.mp4	0.0	181.0608150959015	0.09999275207519531
30	154.38120889663696	fix_pre	0		119	28.0	2.5	blank	1.0	181.16080784797668	0.9918162822723389
30	155.3649959564209	pulse	0	t		28.0	2.5	blank	1.0	182.14459490776062	
30	155.3730251789093	movie	1		301	28.0	2.5	blank	1.0	182.15262413024902	2.508739709854126
30	156.96512603759766	pulse	1	t		28.0	2.5	blank	1.0	183.74472498893738	
30	157.88176488876343	fix_post	2		12	28.0	2.5	blank	1.0	184.66136384010315	0.0999898910522461
31	157.98175477981567	fix_pre	0		120	29.0	2.5	/experiments/Knapen_AOT/AOT_stimuli/rescaled_final/0375_rv.mp4	0.0	184.7613537311554	1.0084927082061768
31	158.56538558006287	pulse	0	t		29.0	2.5	/experiments/Knapen_AOT/AOT_stimuli/rescaled_final/0375_rv.mp4	0.0	185.3449845314026	
31	158.99024748802185	movie	1		282	29.0	2.5	/experiments/Knapen_AOT/AOT_stimuli/rescaled_final/0375_rv.mp4	0.0	185.76984643936157	2.49202561378479
31	160.16377806663513	pulse	1	t		29.0	2.5	/experiments/Knapen_AOT/AOT_stimuli/rescaled_final/0375_rv.mp4	0.0	186.94337701797485	
31	161.48227310180664	fix_post	2		12	29.0	2.5	/experiments/Knapen_AOT/AOT_stimuli/rescaled_final/0375_rv.mp4	0.0	188.26187205314636	0.1000070571899414
32	161.58228015899658	fix_pre	0		120	30.0	2.5	/experiments/Knapen_AOT/AOT_stimuli/rescaled_final/1544_fw.mp4	0.0	188.3618791103363	1.0085420608520508
32	161.7658498287201	pulse	0	t		30.0	2.5	/experiments/Knapen_AOT/AOT_stimuli/rescaled_final/1544_fw.mp4	0.0	188.54544878005981	
32	162.59082221984863	movie	1		290	30.0	2.5	/experiments/Knapen_AOT/AOT_stimuli/rescaled_final/1544_fw.mp4	0.0	189.37042117118835	2.4920406341552734
32	163.36430835723877	pulse	1	t		30.0	2.5	/experiments/Knapen_AOT/AOT_stimuli/rescaled_final/1544_fw.mp4	0.0	190.1439073085785	
32	164.9644513130188	pulse	1	t		30.0	2.5	/experiments/Knapen_AOT/AOT_stimuli/rescaled_final/1544_fw.mp4	0.0	191.74405026435852	
32	165.0828628540039	fix_post	2		12	30.0	2.5	/experiments/Knapen_AOT/AOT_stimuli/rescaled_final/1544_fw.mp4	0.0	191.86246180534363	0.09996914863586426
33	165.18283200263977	fix_pre	0		120	31.0	2.5	/experiments/Knapen_AOT/AOT_stimuli/rescaled_final/0392_fw.mp4	0.0	191.9624309539795	1.0085029602050781
33	166.19133496284485	movie	1		289	31.0	2.5	/experiments/Knapen_AOT/AOT_stimuli/rescaled_final/0392_fw.mp4	0.0	192.97093391418457	2.4919936656951904
33	166.5668466091156	pulse	1	t		31.0	2.5	/experiments/Knapen_AOT/AOT_stimuli/rescaled_final/0392_fw.mp4	0.0	193.34644556045532	
33	168.16474056243896	pulse	1	t		31.0	2.5	/experiments/Knapen_AOT/AOT_stimuli/rescaled_final/0392_fw.mp4	0.0	194.9443395137787	
33	168.68332862854004	fix_post	2		12	31.0	2.5	/experiments/Knapen_AOT/AOT_stimuli/rescaled_final/0392_fw.mp4	0.0	195.46292757987976	0.10000729560852051
34	168.78333592414856	fix_pre	0		119	32.0	2.5	/experiments/Knapen_AOT/AOT_stimuli/rescaled_final/0437_fw.mp4	0.0	195.56293487548828	1.0002152919769287
34	169.76703310012817	pulse	0	t		32.0	2.5	/experiments/Knapen_AOT/AOT_stimuli/rescaled_final/0437_fw.mp4	0.0	196.5466320514679	
34	169.7835512161255	movie	1		297	32.0	2.5	/experiments/Knapen_AOT/AOT_stimuli/rescaled_final/0437_fw.mp4	0.0	196.5631501674652	2.500321865081787
34	171.36324310302734	pulse	1	t		32.0	2.5	/experiments/Knapen_AOT/AOT_stimuli/rescaled_final/0437_fw.mp4	0.0	198.14284205436707	
34	172.28387308120728	fix_post	2		12	32.0	2.5	/experiments/Knapen_AOT/AOT_stimuli/rescaled_final/0437_fw.mp4	0.0	199.063472032547	0.09999680519104004
35	172.38386988639832	fix_pre	0		120	33.0	2.5	blank	1.0	199.16346883773804	1.000192642211914
35	172.96752429008484	pulse	0	t		33.0	2.5	blank	1.0	199.74712324142456	
35	173.38406252861023	movie	1		300	33.0	2.5	blank	1.0	200.16366147994995	2.5003719329833984
35	174.56777620315552	pulse	1	t		33.0	2.5	blank	1.0	201.34737515449524	
35	175.88443446159363	fix_post	2		12	33.0	2.5	blank	1.0	202.66403341293335	0.10001373291015625
36	175.98444819450378	fix_pre	0		120	34.0	2.5	/experiments/Knapen_AOT/AOT_stimuli/rescaled_final/0484_fw.mp4	0.0	202.7640471458435	1.0085515975952148
36	176.16806745529175	pulse	0	t		34.0	2.5	/experiments/Knapen_AOT/AOT_stimuli/rescaled_final/0484_fw.mp4	0.0	202.94766640663147	
36	176.992999792099	movie	1		295	34.0	2.5	/experiments/Knapen_AOT/AOT_stimuli/rescaled_final/0484_fw.mp4	0.0	203.77259874343872	2.492105007171631
36	177.76392817497253	pulse	1	t		34.0	2.5	/experiments/Knapen_AOT/AOT_stimuli/rescaled_final/0484_fw.mp4	0.0	204.54352712631226	
36	179.36586475372314	pulse	1	t		34.0	2.5	/experiments/Knapen_AOT/AOT_stimuli/rescaled_final/0484_fw.mp4	0.0	206.14546370506287	
36	179.48510479927063	fix_post	2		12	34.0	2.5	/experiments/Knapen_AOT/AOT_stimuli/rescaled_final/0484_fw.mp4	0.0	206.26470375061035	0.09990096092224121
37	179.58500576019287	fix_pre	0		120	35.0	2.5	/experiments/Knapen_AOT/AOT_stimuli/rescaled_final/1869_fw.mp4	0.0	206.3646047115326	1.0085792541503906
37	180.59358501434326	movie	1		293	35.0	2.5	/experiments/Knapen_AOT/AOT_stimuli/rescaled_final/1869_fw.mp4	0.0	207.37318396568298	2.4919097423553467
37	180.9663393497467	pulse	1	t		35.0	2.5	/experiments/Knapen_AOT/AOT_stimuli/rescaled_final/1869_fw.mp4	0.0	207.74593830108643	
37	182.56604862213135	pulse	1	t		35.0	2.5	/experiments/Knapen_AOT/AOT_stimuli/rescaled_final/1869_fw.mp4	0.0	209.34564757347107	
37	183.0854947566986	fix_post	2		11	35.0	2.5	/experiments/Knapen_AOT/AOT_stimuli/rescaled_final/1869_fw.mp4	0.0	209.86509370803833	0.09169530868530273
38	183.1771900653839	fix_pre	0		120	36.0	2.5	/experiments/Knapen_AOT/AOT_stimuli/rescaled_final/0957_fw.mp4	0.0	209.95678901672363	1.0084800720214844
38	184.1619532108307	pulse	0	t		36.0	2.5	/experiments/Knapen_AOT/AOT_stimuli/rescaled_final/0957_fw.mp4	0.0	210.9415521621704	
38	184.1856701374054	movie	1		293	36.0	2.5	/experiments/Knapen_AOT/AOT_stimuli/rescaled_final/0957_fw.mp4	0.0	210.96526908874512	2.500368595123291
38	185.7669095993042	pulse	1	t		36.0	2.5	/experiments/Knapen_AOT/AOT_stimuli/rescaled_final/0957_fw.mp4	0.0	212.54650855064392	
38	186.6860387325287	fix_post	2		12	36.0	2.5	/experiments/Knapen_AOT/AOT_stimuli/rescaled_final/0957_fw.mp4	0.0	213.4656376838684	0.10003399848937988
39	186.78607273101807	fix_pre	0		120	37.0	2.5	/experiments/Knapen_AOT/AOT_stimuli/rescaled_final/0661_fw.mp4	0.0	213.5656716823578	1.0001070499420166
39	187.36966109275818	pulse	0	t		37.0	2.5	/experiments/Knapen_AOT/AOT_stimuli/rescaled_final/0661_fw.mp4	0.0	214.1492600440979	
39	187.78617978096008	movie	1		295	37.0	2.5	/experiments/Knapen_AOT/AOT_stimuli/rescaled_final/0661_fw.mp4	0.0	214.5657787322998	2.5004117488861084
39	188.96206760406494	pulse	1	t		37.0	2.5	/experiments/Knapen_AOT/AOT_stimuli/rescaled_final/0661_fw.mp4	0.0	215.74166655540466	
39	190.2865915298462	fix_post	2		12	37.0	2.5	/experiments/Knapen_AOT/AOT_stimuli/rescaled_final/0661_fw.mp4	0.0	217.0661904811859	0.10003805160522461
40	190.38662958145142	fix_pre	0		120	38.0	2.5	/experiments/Knapen_AOT/AOT_stimuli/rescaled_final/0426_fw.mp4	0.0	217.16622853279114	1.008491039276123
40	190.56179022789001	pulse	0	t		38.0	2.5	/experiments/Knapen_AOT/AOT_stimuli/rescaled_final/0426_fw.mp4	0.0	217.34138917922974	
40	191.39512062072754	movie	1		294	38.0	2.5	/experiments/Knapen_AOT/AOT_stimuli/rescaled_final/0426_fw.mp4	0.0	218.17471957206726	2.492008924484253
40	192.1620969772339	pulse	1	t		38.0	2.5	/experiments/Knapen_AOT/AOT_stimuli/rescaled_final/0426_fw.mp4	0.0	218.9416959285736	
40	193.76224827766418	pulse	1	t		38.0	2.5	/experiments/Knapen_AOT/AOT_stimuli/rescaled_final/0426_fw.mp4	0.0	220.5418472290039	
40	193.8871295452118	fix_post	2		12	38.0	2.5	/experiments/Knapen_AOT/AOT_stimuli/rescaled_final/0426_fw.mp4	0.0	220.6667284965515	0.10001230239868164
41	193.98714184761047	fix_pre	0		120	39.0	2.5	/experiments/Knapen_AOT/AOT_stimuli/rescaled_final/0698_fw.mp4	0.0	220.7667407989502	1.008507490158081
41	194.99564933776855	movie	1		289	39.0	2.5	/experiments/Knapen_AOT/AOT_stimuli/rescaled_final/0698_fw.mp4	0.0	221.77524828910828	2.4920237064361572
41	195.3626527786255	pulse	1	t		39.0	2.5	/experiments/Knapen_AOT/AOT_stimuli/rescaled_final/0698_fw.mp4	0.0	222.1422517299652	
41	196.96274590492249	pulse	1	t		39.0	2.5	/experiments/Knapen_AOT/AOT_stimuli/rescaled_final/0698_fw.mp4	0.0	223.7423448562622	
41	197.4876730442047	fix_post	2		12	39.0	2.5	/experiments/Knapen_AOT/AOT_stimuli/rescaled_final/0698_fw.mp4	0.0	224.26727199554443	0.10002326965332031
42	197.58769631385803	fix_pre	0		118	40.0	2.5	/experiments/Knapen_AOT/AOT_stimuli/rescaled_final/1641_fw.mp4	0.0	224.36729526519775	0.9918251037597656
42	198.56296825408936	pulse	0	t		40.0	2.5	/experiments/Knapen_AOT/AOT_stimuli/rescaled_final/1641_fw.mp4	0.0	225.34256720542908	
42	198.5795214176178	movie	1		293	40.0	2.5	/experiments/Knapen_AOT/AOT_stimuli/rescaled_final/1641_fw.mp4	0.0	225.35912036895752	2.5003538131713867
42	200.16328287124634	pulse	1	t		40.0	2.5	/experiments/Knapen_AOT/AOT_stimuli/rescaled_final/1641_fw.mp4	0.0	226.94288182258606	
42	201.07987523078918	fix_post	2		12	40.0	2.5	/experiments/Knapen_AOT/AOT_stimuli/rescaled_final/1641_fw.mp4	0.0	227.8594741821289	0.10001564025878906
43	201.17989087104797	fix_pre	0		120	41.0	2.5	/experiments/Knapen_AOT/AOT_stimuli/rescaled_final/0256_fw.mp4	0.0	227.9594898223877	1.0086231231689453
43	201.763521194458	pulse	0	t		41.0	2.5	/experiments/Knapen_AOT/AOT_stimuli/rescaled_final/0256_fw.mp4	0.0	228.54312014579773	
43	202.18851399421692	movie	1		289	41.0	2.5	/experiments/Knapen_AOT/AOT_stimuli/rescaled_final/0256_fw.mp4	0.0	228.96811294555664	2.4919381141662598
43	203.3636989593506	pulse	1	t		41.0	2.5	/experiments/Knapen_AOT/AOT_stimuli/rescaled_final/0256_fw.mp4	0.0	230.1432979106903	
43	204.68045210838318	fix_post	2		12	41.0	2.5	/experiments/Knapen_AOT/AOT_stimuli/rescaled_final/0256_fw.mp4	0.0	231.4600510597229	0.09998512268066406
44	204.78043723106384	fix_pre	0		120	42.0	2.5	blank	1.0	231.56003618240356	1.0001375675201416
44	204.96404600143433	pulse	0	t		42.0	2.5	blank	1.0	231.74364495277405	
44	205.78057479858398	movie	1		300	42.0	2.5	blank	1.0	232.5601737499237	2.5004281997680664
44	206.56435704231262	pulse	1	t		42.0	2.5	blank	1.0	233.34395599365234	
44	208.1645302772522	pulse	1	t		42.0	2.5	blank	1.0	234.94412922859192	
44	208.28100299835205	fix_post	2		12	42.0	2.5	blank	1.0	235.06060194969177	0.1000208854675293
45	208.38102388381958	fix_pre	0		120	43.0	2.5	/experiments/Knapen_AOT/AOT_stimuli/rescaled_final/1362_fw.mp4	0.0	235.1606228351593	1.0084519386291504
45	209.38947582244873	movie	1		270	43.0	2.5	/experiments/Knapen_AOT/AOT_stimuli/rescaled_final/1362_fw.mp4	0.0	236.16907477378845	2.492076873779297
45	209.7636251449585	pulse	1	t		43.0	2.5	/experiments/Knapen_AOT/AOT_stimuli/rescaled_final/1362_fw.mp4	0.0	236.54322409629822	
45	211.36798119544983	pulse	1	t		43.0	2.5	/experiments/Knapen_AOT/AOT_stimuli/rescaled_final/1362_fw.mp4	0.0	238.14758014678955	
45	211.88155269622803	fix_post	2		12	43.0	2.5	/experiments/Knapen_AOT/AOT_stimuli/rescaled_final/1362_fw.mp4	0.0	238.66115164756775	0.10021567344665527
46	211.98176836967468	fix_pre	0		119	44.0	2.5	/experiments/Knapen_AOT/AOT_stimuli/rescaled_final/0655_fw.mp4	0.0	238.7613673210144	0.9999401569366455
46	212.96528506278992	pulse	0	t		44.0	2.5	/experiments/Knapen_AOT/AOT_stimuli/rescaled_final/0655_fw.mp4	0.0	239.74488401412964	
46	212.98170852661133	movie	1		265	44.0	2.5	/experiments/Knapen_AOT/AOT_stimuli/rescaled_final/0655_fw.mp4	0.0	239.76130747795105	2.500342607498169
46	214.5645945072174	pulse	1	t		44.0	2.5	/experiments/Knapen_AOT/AOT_stimuli/rescaled_final/0655_fw.mp4	0.0	241.34419345855713	
46	215.4820511341095	fix_post	2		12	44.0	2.5	/experiments/Knapen_AOT/AOT_stimuli/rescaled_final/0655_fw.mp4	0.0	242.26165008544922	0.10002660751342773
47	215.58207774162292	fix_pre	0		120	45.0	2.5	/experiments/Knapen_AOT/AOT_stimuli/rescaled_final/1313_rv.mp4	0.0	242.36167669296265	1.008634328842163
47	216.16580653190613	pulse	0	t		45.0	2.5	/experiments/Knapen_AOT/AOT_stimuli/rescaled_final/1313_rv.mp4	0.0	242.94540548324585	
47	216.5907120704651	movie	1		280	45.0	2.5	/experiments/Knapen_AOT/AOT_stimuli/rescaled_final/1313_rv.mp4	0.0	243.3703110218048	2.4918923377990723
47	217.7638394832611	pulse	1	t		45.0	2.5	/experiments/Knapen_AOT/AOT_stimuli/rescaled_final/1313_rv.mp4	0.0	244.54343843460083	
47	219.08260440826416	fix_post	2		12	45.0	2.5	/experiments/Knapen_AOT/AOT_stimuli/rescaled_final/1313_rv.mp4	0.0	245.86220335960388	0.0999915599822998
48	219.18259596824646	fix_pre	0		120	46.0	2.5	/experiments/Knapen_AOT/AOT_stimuli/rescaled_final/1202_rv.mp4	0.0	245.96219491958618	1.0085148811340332
48	219.36622524261475	pulse	0	t		46.0	2.5	/experiments/Knapen_AOT/AOT_stimuli/rescaled_final/1202_rv.mp4	0.0	246.14582419395447	
48	220.1911108493805	movie	1		281	46.0	2.5	/experiments/Knapen_AOT/AOT_stimuli/rescaled_final/1202_rv.mp4	0.0	246.97070980072021	2.492023229598999
48	220.96608519554138	pulse	1	t		46.0	2.5	/experiments/Knapen_AOT/AOT_stimuli/rescaled_final/1202_rv.mp4	0.0	247.7456841468811	
48	222.5649151802063	pulse	1	t		46.0	2.5	/experiments/Knapen_AOT/AOT_stimuli/rescaled_final/1202_rv.mp4	0.0	249.34451413154602	
48	222.6831340789795	fix_post	2		12	46.0	2.5	/experiments/Knapen_AOT/AOT_stimuli/rescaled_final/1202_rv.mp4	0.0	249.4627330303192	0.1000223159790039
49	222.7831563949585	fix_pre	0		120	47.0	2.5	/experiments/Knapen_AOT/AOT_stimuli/rescaled_final/1246_fw.mp4	0.0	249.56275534629822	1.0084893703460693
49	223.79164576530457	movie	1		273	47.0	2.5	/experiments/Knapen_AOT/AOT_stimuli/rescaled_final/1246_fw.mp4	0.0	250.5712447166443	2.4920711517333984
49	224.16662120819092	pulse	1	t		47.0	2.5	/experiments/Knapen_AOT/AOT_stimuli/rescaled_final/1246_fw.mp4	0.0	250.94622015953064	
49	225.76543354988098	pulse	1	t		47.0	2.5	/experiments/Knapen_AOT/AOT_stimuli/rescaled_final/1246_fw.mp4	0.0	252.5450325012207	
49	226.28371691703796	fix_post	2		12	47.0	2.5	/experiments/Knapen_AOT/AOT_stimuli/rescaled_final/1246_fw.mp4	0.0	253.06331586837769	0.1000070571899414
50	226.3837239742279	fix_pre	0		119	48.0	2.5	/experiments/Knapen_AOT/AOT_stimuli/rescaled_final/0698_fw.mp4	0.0	253.16332292556763	1.000129222869873
50	227.36765718460083	pulse	0	t		48.0	2.5	/experiments/Knapen_AOT/AOT_stimuli/rescaled_final/0698_fw.mp4	0.0	254.14725613594055	
50	227.38385319709778	movie	1		276	48.0	2.5	/experiments/Knapen_AOT/AOT_stimuli/rescaled_final/0698_fw.mp4	0.0	254.1634521484375	2.5003695487976074
50	228.96624374389648	pulse	1	t		48.0	2.5	/experiments/Knapen_AOT/AOT_stimuli/rescaled_final/0698_fw.mp4	0.0	255.7458426952362	
50	229.88422274589539	fix_post	2		12	48.0	2.5	/experiments/Knapen_AOT/AOT_stimuli/rescaled_final/0698_fw.mp4	0.0	256.6638216972351	0.10001873970031738
51	229.9842414855957	fix_pre	0		120	49.0	2.5	blank	1.0	256.7638404369354	1.000148057937622
51	230.56789445877075	pulse	0	t		49.0	2.5	blank	1.0	257.3474934101105	
51	230.98438954353333	movie	1		300	49.0	2.5	blank	1.0	257.76398849487305	2.500389575958252
51	232.16806650161743	pulse	1	t		49.0	2.5	blank	1.0	258.94766545295715	
51	233.48477911949158	fix_post	2		12	49.0	2.5	blank	1.0	260.2643780708313	0.10008096694946289
52	233.58486008644104	fix_pre	0		120	50.0	2.5	/experiments/Knapen_AOT/AOT_stimuli/rescaled_final/0104_rv.mp4	0.0	260.36445903778076	1.0084238052368164
52	233.76836323738098	pulse	0	t		50.0	2.5	/experiments/Knapen_AOT/AOT_stimuli/rescaled_final/0104_rv.mp4	0.0	260.5479621887207	
52	234.59328389167786	movie	1		287	50.0	2.5	/experiments/Knapen_AOT/AOT_stimuli/rescaled_final/0104_rv.mp4	0.0	261.3728828430176	2.492072343826294
52	235.36657881736755	pulse	1	t		50.0	2.5	/experiments/Knapen_AOT/AOT_stimuli/rescaled_final/0104_rv.mp4	0.0	262.1461777687073	
52	236.96699738502502	pulse	1	t		50.0	2.5	/experiments/Knapen_AOT/AOT_stimuli/rescaled_final/0104_rv.mp4	0.0	263.74659633636475	
52	237.08535623550415	fix_post	2		12	50.0	2.5	/experiments/Knapen_AOT/AOT_stimuli/rescaled_final/0104_rv.mp4	0.0	263.8649551868439	0.09998393058776855
53	237.18534016609192	fix_pre	0		120	51.0	2.5	/experiments/Knapen_AOT/AOT_stimuli/rescaled_final/0413_fw.mp4	0.0	263.96493911743164	1.008500337600708
53	238.19384050369263	movie	1		284	51.0	2.5	/experiments/Knapen_AOT/AOT_stimuli/rescaled_final/0413_fw.mp4	0.0	264.97343945503235	2.492076873779297
53	238.56765031814575	pulse	1	t		51.0	2.5	/experiments/Knapen_AOT/AOT_stimuli/rescaled_final/0413_fw.mp4	0.0	265.3472492694855	
53	240.1613428592682	pulse	1	t		51.0	2.5	/experiments/Knapen_AOT/AOT_stimuli/rescaled_final/0413_fw.mp4	0.0	266.9409418106079	
53	240.68591737747192	fix_post	2		12	51.0	2.5	/experiments/Knapen_AOT/AOT_stimuli/rescaled_final/0413_fw.mp4	0.0	267.46551632881165	0.09997320175170898
54	240.78589057922363	fix_pre	0		118	52.0	2.5	/experiments/Knapen_AOT/AOT_stimuli/rescaled_final/1206_rv.mp4	0.0	267.56548953056335	0.9918317794799805
54	241.7613124847412	pulse	0	t		52.0	2.5	/experiments/Knapen_AOT/AOT_stimuli/rescaled_final/1206_rv.mp4	0.0	268.54091143608093	
54	241.7777223587036	movie	1		292	52.0	2.5	/experiments/Knapen_AOT/AOT_stimuli/rescaled_final/1206_rv.mp4	0.0	268.55732131004333	2.5003013610839844
54	243.3617057800293	pulse	1	t		52.0	2.5	/experiments/Knapen_AOT/AOT_stimuli/rescaled_final/1206_rv.mp4	0.0	270.141304731369	
54	244.2780237197876	fix_post	2		12	52.0	2.5	/experiments/Knapen_AOT/AOT_stimuli/rescaled_final/1206_rv.mp4	0.0	271.0576226711273	0.10001349449157715
55	244.37803721427917	fix_pre	0		120	53.0	2.5	/experiments/Knapen_AOT/AOT_stimuli/rescaled_final/0007_rv.mp4	0.0	271.1576361656189	1.0085463523864746
55	244.96177530288696	pulse	0	t		53.0	2.5	/experiments/Knapen_AOT/AOT_stimuli/rescaled_final/0007_rv.mp4	0.0	271.7413742542267	
55	245.38658356666565	movie	1		291	53.0	2.5	/experiments/Knapen_AOT/AOT_stimuli/rescaled_final/0007_rv.mp4	0.0	272.16618251800537	2.4919919967651367
55	246.56188583374023	pulse	1	t		53.0	2.5	/experiments/Knapen_AOT/AOT_stimuli/rescaled_final/0007_rv.mp4	0.0	273.34148478507996	
55	247.8785755634308	fix_post	2		12	53.0	2.5	/experiments/Knapen_AOT/AOT_stimuli/rescaled_final/0007_rv.mp4	0.0	274.6581745147705	0.10001969337463379
56	247.97859525680542	fix_pre	0		120	54.0	2.5	/experiments/Knapen_AOT/AOT_stimuli/rescaled_final/0012_fw.mp4	0.0	274.75819420814514	1.0085468292236328
56	248.16210198402405	pulse	0	t		54.0	2.5	/experiments/Knapen_AOT/AOT_stimuli/rescaled_final/0012_fw.mp4	0.0	274.94170093536377	
56	248.98714208602905	movie	1		292	54.0	2.5	/experiments/Knapen_AOT/AOT_stimuli/rescaled_final/0012_fw.mp4	0.0	275.7667410373688	2.4919626712799072
56	249.76243376731873	pulse	1	t		54.0	2.5	/experiments/Knapen_AOT/AOT_stimuli/rescaled_final/0012_fw.mp4	0.0	276.54203271865845	
56	251.36268711090088	pulse	1	t		54.0	2.5	/experiments/Knapen_AOT/AOT_stimuli/rescaled_final/0012_fw.mp4	0.0	278.1422860622406	
56	251.47910475730896	fix_post	2		12	54.0	2.5	/experiments/Knapen_AOT/AOT_stimuli/rescaled_final/0012_fw.mp4	0.0	278.2587037086487	0.10001850128173828
57	251.5791232585907	fix_pre	0		120	55.0	2.5	blank	1.0	278.3587222099304	1.000143051147461
57	252.57926630973816	movie	1		300	55.0	2.5	blank	1.0	279.3588652610779	2.50038480758667
57	252.96284937858582	pulse	1	t		55.0	2.5	blank	1.0	279.74244832992554	
57	254.56309270858765	pulse	1	t		55.0	2.5	blank	1.0	281.34269165992737	
57	255.07965111732483	fix_post	2		12	55.0	2.5	blank	1.0	281.85925006866455	0.10004615783691406
58	255.17969727516174	fix_pre	0		119	56.0	2.5	/experiments/Knapen_AOT/AOT_stimuli/rescaled_final/1699_rv.mp4	0.0	281.95929622650146	1.0001652240753174
58	256.16340613365173	pulse	0	t		56.0	2.5	/experiments/Knapen_AOT/AOT_stimuli/rescaled_final/1699_rv.mp4	0.0	282.94300508499146	
58	256.17986249923706	movie	1		287	56.0	2.5	/experiments/Knapen_AOT/AOT_stimuli/rescaled_final/1699_rv.mp4	0.0	282.9594614505768	2.5003623962402344
58	257.76210141181946	pulse	1	t		56.0	2.5	/experiments/Knapen_AOT/AOT_stimuli/rescaled_final/1699_rv.mp4	0.0	284.5417003631592	
58	258.6802248954773	fix_post	2		12	56.0	2.5	/experiments/Knapen_AOT/AOT_stimuli/rescaled_final/1699_rv.mp4	0.0	285.459823846817	0.10007333755493164
59	258.7802982330322	fix_pre	0		120	57.0	2.5	/experiments/Knapen_AOT/AOT_stimuli/rescaled_final/0695_rv.mp4	0.0	285.55989718437195	1.0086073875427246
59	259.36396622657776	pulse	0	t		57.0	2.5	/experiments/Knapen_AOT/AOT_stimuli/rescaled_final/0695_rv.mp4	0.0	286.1435651779175	
59	259.78890562057495	movie	1		279	57.0	2.5	/experiments/Knapen_AOT/AOT_stimuli/rescaled_final/0695_rv.mp4	0.0	286.5685045719147	2.4918570518493652
59	260.96243381500244	pulse	1	t		57.0	2.5	/experiments/Knapen_AOT/AOT_stimuli/rescaled_final/0695_rv.mp4	0.0	287.74203276634216	
59	262.2807626724243	fix_post	2		12	57.0	2.5	/experiments/Knapen_AOT/AOT_stimuli/rescaled_final/0695_rv.mp4	0.0	289.06036162376404	0.10000967979431152
60	262.3807723522186	fix_pre	0		120	58.0	2.5	/experiments/Knapen_AOT/AOT_stimuli/rescaled_final/1857_rv.mp4	0.0	289.16037130355835	1.0085577964782715
60	262.56435990333557	pulse	0	t		58.0	2.5	/experiments/Knapen_AOT/AOT_stimuli/rescaled_final/1857_rv.mp4	0.0	289.3439588546753	
60	263.3893301486969	movie	1		279	58.0	2.5	/experiments/Knapen_AOT/AOT_stimuli/rescaled_final/1857_rv.mp4	0.0	290.1689291000366	2.4919919967651367
60	264.1635391712189	pulse	1	t		58.0	2.5	/experiments/Knapen_AOT/AOT_stimuli/rescaled_final/1857_rv.mp4	0.0	290.9431381225586	
60	265.7628948688507	pulse	1	t		58.0	2.5	/experiments/Knapen_AOT/AOT_stimuli/rescaled_final/1857_rv.mp4	0.0	292.54249382019043	
60	265.88132214546204	fix_post	2		12	58.0	2.5	/experiments/Knapen_AOT/AOT_stimuli/rescaled_final/1857_rv.mp4	0.0	292.66092109680176	0.10004544258117676
61	265.9813675880432	fix_pre	0		120	59.0	2.5	/experiments/Knapen_AOT/AOT_stimuli/rescaled_final/1531_rv.mp4	0.0	292.76096653938293	1.0084514617919922
61	266.9898190498352	movie	1		279	59.0	2.5	/experiments/Knapen_AOT/AOT_stimuli/rescaled_final/1531_rv.mp4	0.0	293.7694180011749	2.492020845413208
61	267.3636088371277	pulse	1	t		59.0	2.5	/experiments/Knapen_AOT/AOT_stimuli/rescaled_final/1531_rv.mp4	0.0	294.1432077884674	
61	268.9632623195648	pulse	1	t		59.0	2.5	/experiments/Knapen_AOT/AOT_stimuli/rescaled_final/1531_rv.mp4	0.0	295.74286127090454	
61	269.4818398952484	fix_post	2		12	59.0	2.5	/experiments/Knapen_AOT/AOT_stimuli/rescaled_final/1531_rv.mp4	0.0	296.26143884658813	0.10006237030029297
62	269.5819022655487	fix_pre	0		119	60.0	2.5	/experiments/Knapen_AOT/AOT_stimuli/rescaled_final/1164_rv.mp4	0.0	296.3615012168884	1.000112771987915
62	270.5655403137207	pulse	0	t		60.0	2.5	/experiments/Knapen_AOT/AOT_stimuli/rescaled_final/1164_rv.mp4	0.0	297.3451392650604	
62	270.5820150375366	movie	1		286	60.0	2.5	/experiments/Knapen_AOT/AOT_stimuli/rescaled_final/1164_rv.mp4	0.0	297.36161398887634	2.500358819961548
62	272.16542172431946	pulse	1	t		60.0	2.5	/experiments/Knapen_AOT/AOT_stimuli/rescaled_final/1164_rv.mp4	0.0	298.9450206756592	
62	273.08237385749817	fix_post	2		12	60.0	2.5	/experiments/Knapen_AOT/AOT_stimuli/rescaled_final/1164_rv.mp4	0.0	299.8619728088379	0.10003376007080078
63	273.18240761756897	fix_pre	0		120	61.0	2.5	blank	1.0	299.9620065689087	1.0001418590545654
63	273.76610469818115	pulse	0	t		61.0	2.5	blank	1.0	300.5457036495209	
63	274.18254947662354	movie	1		300	61.0	2.5	blank	1.0	300.96214842796326	2.500365972518921
63	275.3663532733917	pulse	1	t		61.0	2.5	blank	1.0	302.14595222473145	
63	276.68291544914246	fix_post	2		12	61.0	2.5	blank	1.0	303.4625144004822	0.1000051498413086
64	276.78292059898376	fix_pre	0		120	62.0	2.5	/experiments/Knapen_AOT/AOT_stimuli/rescaled_final/1854_fw.mp4	0.0	303.5625195503235	1.0085291862487793
64	276.96669816970825	pulse	0	t		62.0	2.5	/experiments/Knapen_AOT/AOT_stimuli/rescaled_final/1854_fw.mp4	0.0	303.746297121048	
64	277.79144978523254	movie	1		283	62.0	2.5	/experiments/Knapen_AOT/AOT_stimuli/rescaled_final/1854_fw.mp4	0.0	304.57104873657227	2.4920153617858887
64	278.5650227069855	pulse	1	t		62.0	2.5	/experiments/Knapen_AOT/AOT_stimuli/rescaled_final/1854_fw.mp4	0.0	305.3446216583252	
64	280.16510248184204	pulse	1	t		62.0	2.5	/experiments/Knapen_AOT/AOT_stimuli/rescaled_final/1854_fw.mp4	0.0	306.94470143318176	
64	280.28346514701843	fix_post	2		12	62.0	2.5	/experiments/Knapen_AOT/AOT_stimuli/rescaled_final/1854_fw.mp4	0.0	307.06306409835815	0.10007381439208984
65	280.3835389614105	fix_pre	0		120	63.0	2.5	/experiments/Knapen_AOT/AOT_stimuli/rescaled_final/2159_fw.mp4	0.0	307.16313791275024	1.0084450244903564
65	281.3919839859009	movie	1		275	63.0	2.5	/experiments/Knapen_AOT/AOT_stimuli/rescaled_final/2159_fw.mp4	0.0	308.1715829372406	2.4920215606689453
65	281.76552414894104	pulse	1	t		63.0	2.5	/experiments/Knapen_AOT/AOT_stimuli/rescaled_final/2159_fw.mp4	0.0	308.54512310028076	
65	283.3655924797058	pulse	1	t		63.0	2.5	/experiments/Knapen_AOT/AOT_stimuli/rescaled_final/2159_fw.mp4	0.0	310.14519143104553	
65	283.8840055465698	fix_post	2		11	63.0	2.5	/experiments/Knapen_AOT/AOT_stimuli/rescaled_final/2159_fw.mp4	0.0	310.66360449790955	0.10005807876586914
66	283.9840636253357	fix_pre	0		119	64.0	2.5	/experiments/Knapen_AOT/AOT_stimuli/rescaled_final/1841_fw.mp4	0.0	310.7636625766754	1.0001420974731445
66	284.9677724838257	pulse	0	t		64.0	2.5	/experiments/Knapen_AOT/AOT_stimuli/rescaled_final/1841_fw.mp4	0.0	311.7473714351654	
66	284.98420572280884	movie	1		274	64.0	2.5	/experiments/Knapen_AOT/AOT_stimuli/rescaled_final/1841_fw.mp4	0.0	311.76380467414856	2.500361442565918
66	286.5677607059479	pulse	1	t		64.0	2.5	/experiments/Knapen_AOT/AOT_stimuli/rescaled_final/1841_fw.mp4	0.0	313.3473596572876	
66	287.48456716537476	fix_post	2		12	64.0	2.5	/experiments/Knapen_AOT/AOT_stimuli/rescaled_final/1841_fw.mp4	0.0	314.2641661167145	0.10000467300415039
67	287.5845718383789	fix_pre	0		120	65.0	2.5	/experiments/Knapen_AOT/AOT_stimuli/rescaled_final/1841_rv.mp4	0.0	314.3641707897186	1.0084991455078125
67	288.1682722568512	pulse	0	t		65.0	2.5	/experiments/Knapen_AOT/AOT_stimuli/rescaled_final/1841_rv.mp4	0.0	314.9478712081909	
67	288.5930709838867	movie	1		277	65.0	2.5	/experiments/Knapen_AOT/AOT_stimuli/rescaled_final/1841_rv.mp4	0.0	315.37266993522644	2.492053270339966
67	289.7665910720825	pulse	1	t		65.0	2.5	/experiments/Knapen_AOT/AOT_stimuli/rescaled_final/1841_rv.mp4	0.0	316.54619002342224	
67	291.0851242542267	fix_post	2		12	65.0	2.5	/experiments/Knapen_AOT/AOT_stimuli/rescaled_final/1841_rv.mp4	0.0	317.8647232055664	0.09996700286865234
68	291.18509125709534	fix_pre	0		120	66.0	2.5	/experiments/Knapen_AOT/AOT_stimuli/rescaled_final/1981_rv.mp4	0.0	317.96469020843506	1.008533239364624
68	291.3690016269684	pulse	0	t		66.0	2.5	/experiments/Knapen_AOT/AOT_stimuli/rescaled_final/1981_rv.mp4	0.0	318.1486005783081	
68	292.19362449645996	movie	1		274	66.0	2.5	/experiments/Knapen_AOT/AOT_stimuli/rescaled_final/1981_rv.mp4	0.0	318.9732234477997	2.4920763969421387
68	292.9673206806183	pulse	1	t		66.0	2.5	/experiments/Knapen_AOT/AOT_stimuli/rescaled_final/1981_rv.mp4	0.0	319.746919631958	
68	294.56744408607483	pulse	1	t		66.0	2.5	/experiments/Knapen_AOT/AOT_stimuli/rescaled_final/1981_rv.mp4	0.0	321.34704303741455	
68	294.6857008934021	fix_post	2		12	66.0	2.5	/experiments/Knapen_AOT/AOT_stimuli/rescaled_final/1981_rv.mp4	0.0	321.4652998447418	0.09998106956481934
69	294.7856819629669	fix_pre	0		120	67.0	2.5	/experiments/Knapen_AOT/AOT_stimuli/rescaled_final/1313_rv.mp4	0.0	321.56528091430664	1.0084736347198486
69	295.79415559768677	movie	1		275	67.0	2.5	/experiments/Knapen_AOT/AOT_stimuli/rescaled_final/1313_rv.mp4	0.0	322.5737545490265	2.4920456409454346
69	296.16867780685425	pulse	1	t		67.0	2.5	/experiments/Knapen_AOT/AOT_stimuli/rescaled_final/1313_rv.mp4	0.0	322.94827675819397	
69	297.7682042121887	pulse	1	t		67.0	2.5	/experiments/Knapen_AOT/AOT_stimuli/rescaled_final/1313_rv.mp4	0.0	324.54780316352844	
69	298.2862012386322	fix_post	2		12	67.0	2.5	/experiments/Knapen_AOT/AOT_stimuli/rescaled_final/1313_rv.mp4	0.0	325.0658001899719	0.09998250007629395
70	298.3861837387085	fix_pre	0		118	68.0	2.5	/experiments/Knapen_AOT/AOT_stimuli/rescaled_final/2092_fw.mp4	0.0	325.1657826900482	0.9918224811553955
70	299.36176466941833	pulse	0	t		68.0	2.5	/experiments/Knapen_AOT/AOT_stimuli/rescaled_final/2092_fw.mp4	0.0	326.14136362075806	
70	299.3780062198639	movie	1		265	68.0	2.5	/experiments/Knapen_AOT/AOT_stimuli/rescaled_final/2092_fw.mp4	0.0	326.1576051712036	2.5003960132598877
70	300.96216225624084	pulse	1	t		68.0	2.5	/experiments/Knapen_AOT/AOT_stimuli/rescaled_final/2092_fw.mp4	0.0	327.74176120758057	
70	301.8784022331238	fix_post	2		12	68.0	2.5	/experiments/Knapen_AOT/AOT_stimuli/rescaled_final/2092_fw.mp4	0.0	328.6580011844635	0.10003113746643066
71	301.9784333705902	fix_pre	0		120	69.0	2.5	/experiments/Knapen_AOT/AOT_stimuli/rescaled_final/0062_rv.mp4	0.0	328.75803232192993	1.0084593296051025
71	302.5621340274811	pulse	0	t		69.0	2.5	/experiments/Knapen_AOT/AOT_stimuli/rescaled_final/0062_rv.mp4	0.0	329.3417329788208	
71	302.9868927001953	movie	1		274	69.0	2.5	/experiments/Knapen_AOT/AOT_stimuli/rescaled_final/0062_rv.mp4	0.0	329.76649165153503	2.492020845413208
71	304.16244530677795	pulse	1	t		69.0	2.5	/experiments/Knapen_AOT/AOT_stimuli/rescaled_final/0062_rv.mp4	0.0	330.9420442581177	
71	305.4789135456085	fix_post	2		12	69.0	2.5	/experiments/Knapen_AOT/AOT_stimuli/rescaled_final/0062_rv.mp4	0.0	332.25851249694824	0.10006189346313477
72	305.57897543907166	fix_pre	0		120	70.0	2.5	blank	1.0	332.3585743904114	1.0001184940338135
72	305.7626495361328	pulse	0	t		70.0	2.5	blank	1.0	332.54224848747253	
72	306.57909393310547	movie	1		300	70.0	2.5	blank	1.0	333.3586928844452	2.5005042552948
72	307.36285305023193	pulse	1	t		70.0	2.5	blank	1.0	334.14245200157166	
72	308.9630174636841	pulse	1	t		70.0	2.5	blank	1.0	335.7426164150238	
72	309.07959818840027	fix_post	2		12	70.0	2.5	blank	1.0	335.85919713974	0.09990811347961426
73	309.1795063018799	fix_pre	0		120	71.0	2.5	/experiments/Knapen_AOT/AOT_stimuli/rescaled_final/0812_rv.mp4	0.0	335.9591052532196	1.0084693431854248
73	310.1879756450653	movie	1		273	71.0	2.5	/experiments/Knapen_AOT/AOT_stimuli/rescaled_final/0812_rv.mp4	0.0	336.96757459640503	2.4920270442962646
73	310.5618278980255	pulse	1	t		71.0	2.5	/experiments/Knapen_AOT/AOT_stimuli/rescaled_final/0812_rv.mp4	0.0	337.34142684936523	
73	312.1636211872101	pulse	1	t		71.0	2.5	/experiments/Knapen_AOT/AOT_stimuli/rescaled_final/0812_rv.mp4	0.0	338.9432201385498	
73	312.6800026893616	fix_post	2		12	71.0	2.5	/experiments/Knapen_AOT/AOT_stimuli/rescaled_final/0812_rv.mp4	0.0	339.4596016407013	0.10004878044128418
74	312.78005146980286	fix_pre	0		119	72.0	2.5	/experiments/Knapen_AOT/AOT_stimuli/rescaled_final/1164_fw.mp4	0.0	339.5596504211426	1.0001261234283447
74	313.76378059387207	pulse	0	t		72.0	2.5	/experiments/Knapen_AOT/AOT_stimuli/rescaled_final/1164_fw.mp4	0.0	340.5433795452118	
74	313.7801775932312	movie	1		271	72.0	2.5	/experiments/Knapen_AOT/AOT_stimuli/rescaled_final/1164_fw.mp4	0.0	340.5597765445709	2.500384569168091
74	315.36387968063354	pulse	1	t		72.0	2.5	/experiments/Knapen_AOT/AOT_stimuli/rescaled_final/1164_fw.mp4	0.0	342.14347863197327	
74	316.2805621623993	fix_post	2		12	72.0	2.5	/experiments/Knapen_AOT/AOT_stimuli/rescaled_final/1164_fw.mp4	0.0	343.060161113739	0.10002899169921875
75	316.3805911540985	fix_pre	0		120	73.0	2.5	/experiments/Knapen_AOT/AOT_stimuli/rescaled_final/1605_rv.mp4	0.0	343.16019010543823	1.0084471702575684
75	316.96421790122986	pulse	0	t		73.0	2.5	/experiments/Knapen_AOT/AOT_stimuli/rescaled_final/1605_rv.mp4	0.0	343.7438168525696	
75	317.3890383243561	movie	1		283	73.0	2.5	/experiments/Knapen_AOT/AOT_stimuli/rescaled_final/1605_rv.mp4	0.0	344.1686372756958	2.4920969009399414
75	318.5633795261383	pulse	1	t		73.0	2.5	/experiments/Knapen_AOT/AOT_stimuli/rescaled_final/1605_rv.mp4	0.0	345.342978477478	
75	319.881135225296	fix_post	2		12	73.0	2.5	/experiments/Knapen_AOT/AOT_stimuli/rescaled_final/1605_rv.mp4	0.0	346.66073417663574	0.09994816780090332
76	319.9810833930969	fix_pre	0		119	74.0	2.5	/experiments/Knapen_AOT/AOT_stimuli/rescaled_final/2024_fw.mp4	0.0	346.76068234443665	1.0085563659667969
76	320.1646828651428	pulse	0	t		74.0	2.5	/experiments/Knapen_AOT/AOT_stimuli/rescaled_final/2024_fw.mp4	0.0	346.94428181648254	
76	320.9896397590637	movie	1		274	74.0	2.5	/experiments/Knapen_AOT/AOT_stimuli/rescaled_final/2024_fw.mp4	0.0	347.76923871040344	2.500365972518921
76	321.7635328769684	pulse	1	t		74.0	2.5	/experiments/Knapen_AOT/AOT_stimuli/rescaled_final/2024_fw.mp4	0.0	348.5431318283081	
76	323.36420035362244	pulse	1	t		74.0	2.5	/experiments/Knapen_AOT/AOT_stimuli/rescaled_final/2024_fw.mp4	0.0	350.14379930496216	
76	323.49000573158264	fix_post	2		11	74.0	2.5	/experiments/Knapen_AOT/AOT_stimuli/rescaled_final/2024_fw.mp4	0.0	350.26960468292236	0.09168529510498047
77	323.5816910266876	fix_pre	0		120	75.0	2.5	/experiments/Knapen_AOT/AOT_stimuli/rescaled_final/2155_fw.mp4	0.0	350.36128997802734	1.008436679840088
77	324.5901277065277	movie	1		266	75.0	2.5	/experiments/Knapen_AOT/AOT_stimuli/rescaled_final/2155_fw.mp4	0.0	351.36972665786743	2.4920287132263184
77	324.96355390548706	pulse	1	t		75.0	2.5	/experiments/Knapen_AOT/AOT_stimuli/rescaled_final/2155_fw.mp4	0.0	351.7431528568268	
77	326.5646266937256	pulse	1	t		75.0	2.5	/experiments/Knapen_AOT/AOT_stimuli/rescaled_final/2155_fw.mp4	0.0	353.3442256450653	
77	327.082156419754	fix_post	2		12	75.0	2.5	/experiments/Knapen_AOT/AOT_stimuli/rescaled_final/2155_fw.mp4	0.0	353.86175537109375	0.1000218391418457
78	327.1821782588959	fix_pre	0		118	76.0	2.5	blank	1.0	353.9617772102356	0.991868257522583
78	328.16595339775085	pulse	0	t		76.0	2.5	blank	1.0	354.9455523490906	
78	328.17404651641846	movie	1		301	76.0	2.5	blank	1.0	354.9536454677582	2.5086565017700195
78	329.7661442756653	pulse	1	t		76.0	2.5	blank	1.0	356.545743227005	
78	330.6827030181885	fix_post	2		12	76.0	2.5	blank	1.0	357.4623019695282	0.10004019737243652
79	330.7827432155609	fix_pre	0		120	77.0	2.5	/experiments/Knapen_AOT/AOT_stimuli/rescaled_final/1841_rv.mp4	0.0	357.56234216690063	1.0084457397460938
79	331.3663647174835	pulse	0	t		77.0	2.5	/experiments/Knapen_AOT/AOT_stimuli/rescaled_final/1841_rv.mp4	0.0	358.14596366882324	
79	331.791188955307	movie	1		271	77.0	2.5	/experiments/Knapen_AOT/AOT_stimuli/rescaled_final/1841_rv.mp4	0.0	358.57078790664673	2.492053985595703
79	332.9645619392395	pulse	1	t		77.0	2.5	/experiments/Knapen_AOT/AOT_stimuli/rescaled_final/1841_rv.mp4	0.0	359.7441608905792	
79	334.2832429409027	fix_post	2		12	77.0	2.5	/experiments/Knapen_AOT/AOT_stimuli/rescaled_final/1841_rv.mp4	0.0	361.06284189224243	0.10013484954833984
80	334.38337779045105	fix_pre	0		120	78.0	2.5	/experiments/Knapen_AOT/AOT_stimuli/rescaled_final/2163_rv.mp4	0.0	361.16297674179077	1.008413314819336
80	334.5669095516205	pulse	0	t		78.0	2.5	/experiments/Knapen_AOT/AOT_stimuli/rescaled_final/2163_rv.mp4	0.0	361.3465085029602	
80	335.3917911052704	movie	1		285	78.0	2.5	/experiments/Knapen_AOT/AOT_stimuli/rescaled_final/2163_rv.mp4	0.0	362.1713900566101	2.4920361042022705
80	336.1653208732605	pulse	1	t		78.0	2.5	/experiments/Knapen_AOT/AOT_stimuli/rescaled_final/2163_rv.mp4	0.0	362.9449198246002	
80	337.76559615135193	pulse	1	t		78.0	2.5	/experiments/Knapen_AOT/AOT_stimuli/rescaled_final/2163_rv.mp4	0.0	364.54519510269165	
80	337.88382720947266	fix_post	2		12	78.0	2.5	/experiments/Knapen_AOT/AOT_stimuli/rescaled_final/2163_rv.mp4	0.0	364.6634261608124	0.09998369216918945
81	337.98381090164185	fix_pre	0		120	79.0	2.5	/experiments/Knapen_AOT/AOT_stimuli/rescaled_final/0437_rv.mp4	0.0	364.76340985298157	1.0085563659667969
81	338.99236726760864	movie	1		271	79.0	2.5	/experiments/Knapen_AOT/AOT_stimuli/rescaled_final/0437_rv.mp4	0.0	365.77196621894836	2.4919593334198
81	339.365779876709	pulse	1	t		79.0	2.5	/experiments/Knapen_AOT/AOT_stimuli/rescaled_final/0437_rv.mp4	0.0	366.1453788280487	
81	340.9664237499237	pulse	1	t		79.0	2.5	/experiments/Knapen_AOT/AOT_stimuli/rescaled_final/0437_rv.mp4	0.0	367.7460227012634	
81	341.48432660102844	fix_post	2		12	79.0	2.5	/experiments/Knapen_AOT/AOT_stimuli/rescaled_final/0437_rv.mp4	0.0	368.26392555236816	0.10005474090576172
82	341.5843813419342	fix_pre	0		119	80.0	2.5	/experiments/Knapen_AOT/AOT_stimuli/rescaled_final/0905_fw.mp4	0.0	368.3639802932739	1.000211477279663
82	342.56808853149414	pulse	0	t		80.0	2.5	/experiments/Knapen_AOT/AOT_stimuli/rescaled_final/0905_fw.mp4	0.0	369.34768748283386	
82	342.58459281921387	movie	1		277	80.0	2.5	/experiments/Knapen_AOT/AOT_stimuli/rescaled_final/0905_fw.mp4	0.0	369.3641917705536	2.5002777576446533
82	344.1670083999634	pulse	1	t		80.0	2.5	/experiments/Knapen_AOT/AOT_stimuli/rescaled_final/0905_fw.mp4	0.0	370.9466073513031	
82	345.0848705768585	fix_post	2		12	80.0	2.5	/experiments/Knapen_AOT/AOT_stimuli/rescaled_final/0905_fw.mp4	0.0	371.86446952819824	0.10009455680847168
83	345.184965133667	fix_pre	0		120	81.0	2.5	/experiments/Knapen_AOT/AOT_stimuli/rescaled_final/1416_rv.mp4	0.0	371.9645640850067	1.008406162261963
83	345.76866912841797	pulse	0	t		81.0	2.5	/experiments/Knapen_AOT/AOT_stimuli/rescaled_final/1416_rv.mp4	0.0	372.5482680797577	
83	346.19337129592896	movie	1		273	81.0	2.5	/experiments/Knapen_AOT/AOT_stimuli/rescaled_final/1416_rv.mp4	0.0	372.9729702472687	2.4921369552612305
83	347.36697697639465	pulse	1	t		81.0	2.5	/experiments/Knapen_AOT/AOT_stimuli/rescaled_final/1416_rv.mp4	0.0	374.1465759277344	
83	348.6855082511902	fix_post	2		12	81.0	2.5	/experiments/Knapen_AOT/AOT_stimuli/rescaled_final/1416_rv.mp4	0.0	375.4651072025299	0.09998726844787598
84	348.78549551963806	fix_pre	0		120	82.0	2.5	/experiments/Knapen_AOT/AOT_stimuli/rescaled_final/1725_fw.mp4	0.0	375.5650944709778	1.0085422992706299
84	348.9692177772522	pulse	0	t		82.0	2.5	/experiments/Knapen_AOT/AOT_stimuli/rescaled_final/1725_fw.mp4	0.0	375.7488167285919	
84	349.7940378189087	movie	1		264	82.0	2.5	/experiments/Knapen_AOT/AOT_stimuli/rescaled_final/1725_fw.mp4	0.0	376.5736367702484	2.500225782394409
84	350.5675461292267	pulse	1	t		82.0	2.5	/experiments/Knapen_AOT/AOT_stimuli/rescaled_final/1725_fw.mp4	0.0	377.3471450805664	
84	352.16779613494873	pulse	1	t		82.0	2.5	/experiments/Knapen_AOT/AOT_stimuli/rescaled_final/1725_fw.mp4	0.0	378.94739508628845	
84	352.2942636013031	fix_post	2		11	82.0	2.5	/experiments/Knapen_AOT/AOT_stimuli/rescaled_final/1725_fw.mp4	0.0	379.0738625526428	0.09177350997924805
85	352.38603711128235	fix_pre	0		120	83.0	2.5	blank	1.0	379.16563606262207	1.000105857849121
85	353.38614296913147	movie	1		300	83.0	2.5	blank	1.0	380.1657419204712	2.5003855228424072
85	353.76331210136414	pulse	1	t		83.0	2.5	blank	1.0	380.54291105270386	
85	355.3622250556946	pulse	1	t		83.0	2.5	blank	1.0	382.1418240070343	
85	355.8865284919739	fix_post	2		11	83.0	2.5	blank	1.0	382.6661274433136	0.09999608993530273
87	355.9865245819092	stim	0		1715					382.7661235332489	14.29388165473938
87	356.96218252182007	pulse	0	t						383.7417814731598	
87	358.56220531463623	pulse	0	t						385.34180426597595	
87	360.1624844074249	pulse	0	t						386.94208335876465	
87	361.76275062561035	pulse	0	t						388.5423495769501	
87	363.3628599643707	pulse	0	t						390.14245891571045	
87	364.9631292819977	pulse	0	t						391.7427282333374	
87	366.5633680820465	pulse	0	t						393.34296703338623	
87	368.1636731624603	pulse	0	t						394.94327211380005	
87	369.76371812820435	pulse	0	t						396.54331707954407	
