trial_nr	onset	event_type	phase	response	nr_frames	movie_index	movie_duration	movie_file	blank	onset_abs	duration
0	0.14987993240356445	stim	0		35					21.48712992668152	0.29167819023132324
0	0.4335041046142578	response	0	space						21.770754098892212	
1	0.4415581226348877	stim	0		4745					21.778808116912842	39.54145383834839
1	39.9731240272522	pulse	0	t						61.31037402153015	
1	39.983011960983276	stim	1		1717					61.32026195526123	14.308259010314941
1	41.567497968673706	pulse	1	t						62.90474796295166	
1	43.16744112968445	pulse	1	t						64.5046911239624	
1	44.766849994659424	pulse	1	t						66.10409998893738	
1	46.36697196960449	pulse	1	t						67.70422196388245	
1	47.967190980911255	pulse	1	t						69.30444097518921	
1	49.566494941711426	pulse	1	t						70.90374493598938	
1	51.16645812988281	pulse	1	t						72.50370812416077	
1	52.76646304130554	pulse	1	t						74.1037130355835	
2	54.29127097129822	fix_pre	0		10	0.0	2.5	/experiments/AOT/AOT_stimuli/rescaled_final/1775_fw.mp4	0.0	75.62852096557617	0.0833430290222168
2	54.36641001701355	pulse	0	t		0.0	2.5	/experiments/AOT/AOT_stimuli/rescaled_final/1775_fw.mp4	0.0	75.7036600112915	
2	54.374614000320435	movie	1		244	0.0	2.5	/experiments/AOT/AOT_stimuli/rescaled_final/1775_fw.mp4	0.0	75.71186399459839	2.5083160400390625
2	55.97486114501953	pulse	1	t		0.0	2.5	/experiments/AOT/AOT_stimuli/rescaled_final/1775_fw.mp4	0.0	77.31211113929749	
2	56.8829300403595	fix_post	2		12	0.0	2.5	/experiments/AOT/AOT_stimuli/rescaled_final/1775_fw.mp4	0.0	78.22018003463745	0.09997296333312988
3	56.98290300369263	fix_pre	0		120	1.0	2.5	/experiments/AOT/AOT_stimuli/rescaled_final/0386_fw.mp4	0.0	78.32015299797058	1.0000360012054443
3	57.56730008125305	pulse	0	t		1.0	2.5	/experiments/AOT/AOT_stimuli/rescaled_final/0386_fw.mp4	0.0	78.904550075531	
3	57.98293900489807	movie	1		246	1.0	2.5	/experiments/AOT/AOT_stimuli/rescaled_final/0386_fw.mp4	0.0	79.32018899917603	2.499943971633911
3	59.167500019073486	pulse	1	t		1.0	2.5	/experiments/AOT/AOT_stimuli/rescaled_final/0386_fw.mp4	0.0	80.50475001335144	
3	60.48288297653198	fix_post	2		12	1.0	2.5	/experiments/AOT/AOT_stimuli/rescaled_final/0386_fw.mp4	0.0	81.82013297080994	0.10005307197570801
4	60.58293604850769	fix_pre	0		120	2.0	2.5	/experiments/AOT/AOT_stimuli/rescaled_final/1394_rv.mp4	0.0	81.92018604278564	0.9999361038208008
4	60.76719403266907	pulse	0	t		2.0	2.5	/experiments/AOT/AOT_stimuli/rescaled_final/1394_rv.mp4	0.0	82.10444402694702	
4	61.58287215232849	movie	1		246	2.0	2.5	/experiments/AOT/AOT_stimuli/rescaled_final/1394_rv.mp4	0.0	82.92012214660645	2.500032901763916
4	62.36742115020752	pulse	1	t		2.0	2.5	/experiments/AOT/AOT_stimuli/rescaled_final/1394_rv.mp4	0.0	83.70467114448547	
4	63.97480797767639	pulse	1	t		2.0	2.5	/experiments/AOT/AOT_stimuli/rescaled_final/1394_rv.mp4	0.0	85.31205797195435	
4	64.08290505409241	fix_post	2		12	2.0	2.5	/experiments/AOT/AOT_stimuli/rescaled_final/1394_rv.mp4	0.0	85.42015504837036	0.09995794296264648
5	64.18286299705505	fix_pre	0		120	3.0	2.5	/experiments/AOT/AOT_stimuli/rescaled_final/0544_fw.mp4	0.0	85.52011299133301	1.0000519752502441
5	65.1829149723053	movie	1		247	3.0	2.5	/experiments/AOT/AOT_stimuli/rescaled_final/0544_fw.mp4	0.0	86.52016496658325	2.4999849796295166
5	65.57481408119202	pulse	1	t		3.0	2.5	/experiments/AOT/AOT_stimuli/rescaled_final/0544_fw.mp4	0.0	86.91206407546997	
5	67.16722202301025	pulse	1	t		3.0	2.5	/experiments/AOT/AOT_stimuli/rescaled_final/0544_fw.mp4	0.0	88.50447201728821	
5	67.68289995193481	fix_post	2		12	3.0	2.5	/experiments/AOT/AOT_stimuli/rescaled_final/0544_fw.mp4	0.0	89.02014994621277	0.09999799728393555
6	67.78289794921875	fix_pre	0		119	4.0	2.5	/experiments/AOT/AOT_stimuli/rescaled_final/0945_rv.mp4	0.0	89.1201479434967	0.9916841983795166
6	68.76642513275146	pulse	0	t		4.0	2.5	/experiments/AOT/AOT_stimuli/rescaled_final/0945_rv.mp4	0.0	90.10367512702942	
6	68.77458214759827	movie	1		244	4.0	2.5	/experiments/AOT/AOT_stimuli/rescaled_final/0945_rv.mp4	0.0	90.11183214187622	2.5082919597625732
6	70.37483811378479	pulse	1	t		4.0	2.5	/experiments/AOT/AOT_stimuli/rescaled_final/0945_rv.mp4	0.0	91.71208810806274	
6	71.28287410736084	fix_post	2		12	4.0	2.5	/experiments/AOT/AOT_stimuli/rescaled_final/0945_rv.mp4	0.0	92.6201241016388	0.09999799728393555
7	71.38287210464478	fix_pre	0		120	5.0	2.5	/experiments/AOT/AOT_stimuli/rescaled_final/1804_rv.mp4	0.0	92.72012209892273	1.0000228881835938
7	71.96727895736694	pulse	0	t		5.0	2.5	/experiments/AOT/AOT_stimuli/rescaled_final/1804_rv.mp4	0.0	93.3045289516449	
7	72.38289499282837	movie	1		246	5.0	2.5	/experiments/AOT/AOT_stimuli/rescaled_final/1804_rv.mp4	0.0	93.72014498710632	2.499943971633911
7	73.56737112998962	pulse	1	t		5.0	2.5	/experiments/AOT/AOT_stimuli/rescaled_final/1804_rv.mp4	0.0	94.90462112426758	
7	74.88283896446228	fix_post	2		12	5.0	2.5	/experiments/AOT/AOT_stimuli/rescaled_final/1804_rv.mp4	0.0	96.22008895874023	0.10001301765441895
8	74.9828519821167	fix_pre	0		120	6.0	2.5	/experiments/AOT/AOT_stimuli/rescaled_final/1448_rv.mp4	0.0	96.32010197639465	1.0000090599060059
8	75.16730308532715	pulse	0	t		6.0	2.5	/experiments/AOT/AOT_stimuli/rescaled_final/1448_rv.mp4	0.0	96.5045530796051	
8	75.9828610420227	movie	1		244	6.0	2.5	/experiments/AOT/AOT_stimuli/rescaled_final/1448_rv.mp4	0.0	97.32011103630066	2.499556064605713
8	76.76726794242859	pulse	1	t		6.0	2.5	/experiments/AOT/AOT_stimuli/rescaled_final/1448_rv.mp4	0.0	98.10451793670654	
8	78.3747820854187	pulse	1	t		6.0	2.5	/experiments/AOT/AOT_stimuli/rescaled_final/1448_rv.mp4	0.0	99.71203207969666	
8	78.48241710662842	fix_post	2		12	6.0	2.5	/experiments/AOT/AOT_stimuli/rescaled_final/1448_rv.mp4	0.0	99.81966710090637	0.10043501853942871
9	78.58285212516785	fix_pre	0		120	7.0	2.5	blank	1.0	99.9201021194458	1.0000009536743164
9	79.58285307884216	movie	1		300	7.0	2.5	blank	1.0	100.92010307312012	2.50004506111145
9	79.96713495254517	pulse	1	t		7.0	2.5	blank	1.0	101.30438494682312	
9	81.56718707084656	pulse	1	t		7.0	2.5	blank	1.0	102.90443706512451	
9	82.08289813995361	fix_post	2		12	7.0	2.5	blank	1.0	103.42014813423157	0.09993386268615723
10	82.18283200263977	fix_pre	0		119	8.0	2.5	/experiments/AOT/AOT_stimuli/rescaled_final/1596_fw.mp4	0.0	103.52008199691772	0.9917130470275879
10	83.16646599769592	pulse	0	t		8.0	2.5	/experiments/AOT/AOT_stimuli/rescaled_final/1596_fw.mp4	0.0	104.50371599197388	
10	83.17454504966736	movie	1		246	8.0	2.5	/experiments/AOT/AOT_stimuli/rescaled_final/1596_fw.mp4	0.0	104.51179504394531	2.508208990097046
10	84.77475714683533	pulse	1	t		8.0	2.5	/experiments/AOT/AOT_stimuli/rescaled_final/1596_fw.mp4	0.0	106.11200714111328	
10	85.6827540397644	fix_post	2		12	8.0	2.5	/experiments/AOT/AOT_stimuli/rescaled_final/1596_fw.mp4	0.0	107.02000403404236	0.10012292861938477
11	85.78287696838379	fix_pre	0		120	9.0	2.5	/experiments/AOT/AOT_stimuli/rescaled_final/1394_rv.mp4	0.0	107.12012696266174	0.99989914894104
11	86.36634397506714	pulse	0	t		9.0	2.5	/experiments/AOT/AOT_stimuli/rescaled_final/1394_rv.mp4	0.0	107.70359396934509	
11	86.78277611732483	movie	1		245	9.0	2.5	/experiments/AOT/AOT_stimuli/rescaled_final/1394_rv.mp4	0.0	108.12002611160278	2.5000598430633545
11	87.96727395057678	pulse	1	t		9.0	2.5	/experiments/AOT/AOT_stimuli/rescaled_final/1394_rv.mp4	0.0	109.30452394485474	
11	89.28283596038818	fix_post	2		12	9.0	2.5	/experiments/AOT/AOT_stimuli/rescaled_final/1394_rv.mp4	0.0	110.62008595466614	0.10001397132873535
12	89.38284993171692	fix_pre	0		120	10.0	2.5	/experiments/AOT/AOT_stimuli/rescaled_final/0683_fw.mp4	0.0	110.72009992599487	0.9999220371246338
12	89.56715607643127	pulse	0	t		10.0	2.5	/experiments/AOT/AOT_stimuli/rescaled_final/0683_fw.mp4	0.0	110.90440607070923	
12	90.38277196884155	movie	1		244	10.0	2.5	/experiments/AOT/AOT_stimuli/rescaled_final/0683_fw.mp4	0.0	111.7200219631195	2.499608039855957
12	91.16715908050537	pulse	1	t		10.0	2.5	/experiments/AOT/AOT_stimuli/rescaled_final/0683_fw.mp4	0.0	112.50440907478333	
12	92.76713514328003	pulse	1	t		10.0	2.5	/experiments/AOT/AOT_stimuli/rescaled_final/0683_fw.mp4	0.0	114.10438513755798	
12	92.88238000869751	fix_post	2		12	10.0	2.5	/experiments/AOT/AOT_stimuli/rescaled_final/0683_fw.mp4	0.0	114.21963000297546	0.10040402412414551
13	92.98278403282166	fix_pre	0		120	11.0	2.5	/experiments/AOT/AOT_stimuli/rescaled_final/1663_fw.mp4	0.0	114.32003402709961	0.9999539852142334
13	93.98273801803589	movie	1		244	11.0	2.5	/experiments/AOT/AOT_stimuli/rescaled_final/1663_fw.mp4	0.0	115.31998801231384	2.500020980834961
13	94.37475109100342	pulse	1	t		11.0	2.5	/experiments/AOT/AOT_stimuli/rescaled_final/1663_fw.mp4	0.0	115.71200108528137	
13	95.96715593338013	pulse	1	t		11.0	2.5	/experiments/AOT/AOT_stimuli/rescaled_final/1663_fw.mp4	0.0	117.30440592765808	
13	96.48275899887085	fix_post	2		12	11.0	2.5	/experiments/AOT/AOT_stimuli/rescaled_final/1663_fw.mp4	0.0	117.8200089931488	0.10000014305114746
14	96.582759141922	fix_pre	0		120	12.0	2.5	/experiments/AOT/AOT_stimuli/rescaled_final/1582_fw.mp4	0.0	117.92000913619995	1.0001089572906494
14	97.56704807281494	pulse	0	t		12.0	2.5	/experiments/AOT/AOT_stimuli/rescaled_final/1582_fw.mp4	0.0	118.9042980670929	
14	97.58286809921265	movie	1		245	12.0	2.5	/experiments/AOT/AOT_stimuli/rescaled_final/1582_fw.mp4	0.0	118.9201180934906	2.507823944091797
14	99.17472410202026	pulse	1	t		12.0	2.5	/experiments/AOT/AOT_stimuli/rescaled_final/1582_fw.mp4	0.0	120.51197409629822	
14	100.09069204330444	fix_post	2		12	12.0	2.5	/experiments/AOT/AOT_stimuli/rescaled_final/1582_fw.mp4	0.0	121.4279420375824	0.10001397132873535
15	100.19070601463318	fix_pre	0		120	13.0	2.5	blank	1.0	121.52795600891113	1.000373125076294
15	100.76664304733276	pulse	0	t		13.0	2.5	blank	1.0	122.10389304161072	
15	101.19107913970947	movie	1		300	13.0	2.5	blank	1.0	122.52832913398743	2.4998998641967773
15	102.36677813529968	pulse	1	t		13.0	2.5	blank	1.0	123.70402812957764	
15	103.69097900390625	fix_post	2		12	13.0	2.5	blank	1.0	125.0282289981842	0.10040903091430664
16	103.79138803482056	fix_pre	0		120	14.0	2.5	/experiments/AOT/AOT_stimuli/rescaled_final/1669_fw.mp4	0.0	125.12863802909851	0.9996769428253174
16	103.97452592849731	pulse	0	t		14.0	2.5	/experiments/AOT/AOT_stimuli/rescaled_final/1669_fw.mp4	0.0	125.31177592277527	
16	104.79106497764587	movie	1		247	14.0	2.5	/experiments/AOT/AOT_stimuli/rescaled_final/1669_fw.mp4	0.0	126.12831497192383	2.499979019165039
16	105.57457494735718	pulse	1	t		14.0	2.5	/experiments/AOT/AOT_stimuli/rescaled_final/1669_fw.mp4	0.0	126.91182494163513	
16	107.17068004608154	pulse	1	t		14.0	2.5	/experiments/AOT/AOT_stimuli/rescaled_final/1669_fw.mp4	0.0	128.5079300403595	
16	107.29104399681091	fix_post	2		12	14.0	2.5	/experiments/AOT/AOT_stimuli/rescaled_final/1669_fw.mp4	0.0	128.62829399108887	0.10005998611450195
17	107.39110398292542	fix_pre	0		120	15.0	2.5	/experiments/AOT/AOT_stimuli/rescaled_final/1573_fw.mp4	0.0	128.72835397720337	0.9999549388885498
17	108.39105892181396	movie	1		245	15.0	2.5	/experiments/AOT/AOT_stimuli/rescaled_final/1573_fw.mp4	0.0	129.72830891609192	2.4999451637268066
17	108.77386593818665	pulse	1	t		15.0	2.5	/experiments/AOT/AOT_stimuli/rescaled_final/1573_fw.mp4	0.0	130.1111159324646	
17	110.3672730922699	pulse	1	t		15.0	2.5	/experiments/AOT/AOT_stimuli/rescaled_final/1573_fw.mp4	0.0	131.70452308654785	
17	110.89100408554077	fix_post	2		12	15.0	2.5	/experiments/AOT/AOT_stimuli/rescaled_final/1573_fw.mp4	0.0	132.22825407981873	0.10000085830688477
18	110.99100494384766	fix_pre	0		119	16.0	2.5	/experiments/AOT/AOT_stimuli/rescaled_final/0401_rv.mp4	0.0	132.3282549381256	0.991657018661499
18	111.96696901321411	pulse	0	t		16.0	2.5	/experiments/AOT/AOT_stimuli/rescaled_final/0401_rv.mp4	0.0	133.30421900749207	
18	111.98266196250916	movie	1		248	16.0	2.5	/experiments/AOT/AOT_stimuli/rescaled_final/0401_rv.mp4	0.0	133.3199119567871	2.5083320140838623
18	113.57429814338684	pulse	1	t		16.0	2.5	/experiments/AOT/AOT_stimuli/rescaled_final/0401_rv.mp4	0.0	134.9115481376648	
18	114.49099397659302	fix_post	2		12	16.0	2.5	/experiments/AOT/AOT_stimuli/rescaled_final/0401_rv.mp4	0.0	135.82824397087097	0.09999203681945801
19	114.59098601341248	fix_pre	0		120	17.0	2.5	/experiments/AOT/AOT_stimuli/rescaled_final/1274_rv.mp4	0.0	135.92823600769043	1.0000240802764893
19	115.16695308685303	pulse	0	t		17.0	2.5	/experiments/AOT/AOT_stimuli/rescaled_final/1274_rv.mp4	0.0	136.50420308113098	
19	115.59101009368896	movie	1		246	17.0	2.5	/experiments/AOT/AOT_stimuli/rescaled_final/1274_rv.mp4	0.0	136.92826008796692	2.4999289512634277
19	116.77452802658081	pulse	1	t		17.0	2.5	/experiments/AOT/AOT_stimuli/rescaled_final/1274_rv.mp4	0.0	138.11177802085876	
19	118.09093904495239	fix_post	2		12	17.0	2.5	/experiments/AOT/AOT_stimuli/rescaled_final/1274_rv.mp4	0.0	139.42818903923035	0.10001707077026367
20	118.19095611572266	fix_pre	0		120	18.0	2.5	/experiments/AOT/AOT_stimuli/rescaled_final/1666_fw.mp4	0.0	139.5282061100006	0.9999978542327881
20	118.36690711975098	pulse	0	t		18.0	2.5	/experiments/AOT/AOT_stimuli/rescaled_final/1666_fw.mp4	0.0	139.70415711402893	
20	119.19095396995544	movie	1		244	18.0	2.5	/experiments/AOT/AOT_stimuli/rescaled_final/1666_fw.mp4	0.0	140.5282039642334	2.5000171661376953
20	119.97442412376404	pulse	1	t		18.0	2.5	/experiments/AOT/AOT_stimuli/rescaled_final/1666_fw.mp4	0.0	141.311674118042	
20	121.57311606407166	pulse	1	t		18.0	2.5	/experiments/AOT/AOT_stimuli/rescaled_final/1666_fw.mp4	0.0	142.9103660583496	
20	121.69097113609314	fix_post	2		12	18.0	2.5	/experiments/AOT/AOT_stimuli/rescaled_final/1666_fw.mp4	0.0	143.0282211303711	0.09998178482055664
21	121.7909529209137	fix_pre	0		120	19.0	2.5	blank	1.0	143.12820291519165	1.0000171661376953
21	122.79097008705139	movie	1		300	19.0	2.5	blank	1.0	144.12822008132935	2.4999959468841553
21	123.1744921207428	pulse	1	t		19.0	2.5	blank	1.0	144.51174211502075	
21	124.76690411567688	pulse	1	t		19.0	2.5	blank	1.0	146.10415410995483	
21	125.29096603393555	fix_post	2		12	19.0	2.5	blank	1.0	146.6282160282135	0.0999600887298584
22	125.3909261226654	fix_pre	0		119	20.0	2.5	/experiments/AOT/AOT_stimuli/rescaled_final/1383_fw.mp4	0.0	146.72817611694336	0.9917268753051758
22	126.36693811416626	pulse	0	t		20.0	2.5	/experiments/AOT/AOT_stimuli/rescaled_final/1383_fw.mp4	0.0	147.7041881084442	
22	126.38265299797058	movie	1		247	20.0	2.5	/experiments/AOT/AOT_stimuli/rescaled_final/1383_fw.mp4	0.0	147.71990299224854	2.5083370208740234
22	127.97463607788086	pulse	1	t		20.0	2.5	/experiments/AOT/AOT_stimuli/rescaled_final/1383_fw.mp4	0.0	149.3118860721588	
22	128.8909900188446	fix_post	2		12	20.0	2.5	/experiments/AOT/AOT_stimuli/rescaled_final/1383_fw.mp4	0.0	150.22824001312256	0.09994292259216309
23	128.99093294143677	fix_pre	0		120	21.0	2.5	/experiments/AOT/AOT_stimuli/rescaled_final/1899_rv.mp4	0.0	150.32818293571472	0.9999661445617676
23	129.566987991333	pulse	0	t		21.0	2.5	/experiments/AOT/AOT_stimuli/rescaled_final/1899_rv.mp4	0.0	150.90423798561096	
23	129.99089908599854	movie	1		245	21.0	2.5	/experiments/AOT/AOT_stimuli/rescaled_final/1899_rv.mp4	0.0	151.3281490802765	2.500016927719116
23	131.1744899749756	pulse	1	t		21.0	2.5	/experiments/AOT/AOT_stimuli/rescaled_final/1899_rv.mp4	0.0	152.51173996925354	
23	132.49091601371765	fix_post	2		12	21.0	2.5	/experiments/AOT/AOT_stimuli/rescaled_final/1899_rv.mp4	0.0	153.8281660079956	0.10003304481506348
24	132.59094905853271	fix_pre	0		120	22.0	2.5	/experiments/AOT/AOT_stimuli/rescaled_final/2177_rv.mp4	0.0	153.92819905281067	1.0000028610229492
24	132.76691102981567	pulse	0	t		22.0	2.5	/experiments/AOT/AOT_stimuli/rescaled_final/2177_rv.mp4	0.0	154.10416102409363	
24	133.59095191955566	movie	1		245	22.0	2.5	/experiments/AOT/AOT_stimuli/rescaled_final/2177_rv.mp4	0.0	154.92820191383362	2.4995691776275635
24	134.36703300476074	pulse	1	t		22.0	2.5	/experiments/AOT/AOT_stimuli/rescaled_final/2177_rv.mp4	0.0	155.7042829990387	
24	135.97287607192993	pulse	1	t		22.0	2.5	/experiments/AOT/AOT_stimuli/rescaled_final/2177_rv.mp4	0.0	157.31012606620789	
24	136.09052109718323	fix_post	2		12	22.0	2.5	/experiments/AOT/AOT_stimuli/rescaled_final/2177_rv.mp4	0.0	157.42777109146118	0.10044384002685547
25	136.19096493721008	fix_pre	0		120	23.0	2.5	/experiments/AOT/AOT_stimuli/rescaled_final/0328_fw.mp4	0.0	157.52821493148804	0.99996018409729
25	137.19092512130737	movie	1		244	23.0	2.5	/experiments/AOT/AOT_stimuli/rescaled_final/0328_fw.mp4	0.0	158.52817511558533	2.500013828277588
25	137.57417798042297	pulse	1	t		23.0	2.5	/experiments/AOT/AOT_stimuli/rescaled_final/0328_fw.mp4	0.0	158.91142797470093	
25	139.17441296577454	pulse	1	t		23.0	2.5	/experiments/AOT/AOT_stimuli/rescaled_final/0328_fw.mp4	0.0	160.5116629600525	
25	139.69093894958496	fix_post	2		12	23.0	2.5	/experiments/AOT/AOT_stimuli/rescaled_final/0328_fw.mp4	0.0	161.02818894386292	0.09993815422058105
26	139.79087710380554	fix_pre	0		119	24.0	2.5	/experiments/AOT/AOT_stimuli/rescaled_final/1451_rv.mp4	0.0	161.1281270980835	0.9916908740997314
26	140.7744140625	pulse	0	t		24.0	2.5	/experiments/AOT/AOT_stimuli/rescaled_final/1451_rv.mp4	0.0	162.11166405677795	
26	140.78256797790527	movie	1		244	24.0	2.5	/experiments/AOT/AOT_stimuli/rescaled_final/1451_rv.mp4	0.0	162.11981797218323	2.5078420639038086
26	142.37423014640808	pulse	1	t		24.0	2.5	/experiments/AOT/AOT_stimuli/rescaled_final/1451_rv.mp4	0.0	163.71148014068604	
26	143.29041004180908	fix_post	2		12	24.0	2.5	/experiments/AOT/AOT_stimuli/rescaled_final/1451_rv.mp4	0.0	164.62766003608704	0.10044288635253906
27	143.39085292816162	fix_pre	0		120	25.0	2.5	/experiments/AOT/AOT_stimuli/rescaled_final/2050_fw.mp4	0.0	164.72810292243958	0.9999511241912842
27	143.9744279384613	pulse	0	t		25.0	2.5	/experiments/AOT/AOT_stimuli/rescaled_final/2050_fw.mp4	0.0	165.31167793273926	
27	144.3908040523529	movie	1		243	25.0	2.5	/experiments/AOT/AOT_stimuli/rescaled_final/2050_fw.mp4	0.0	165.72805404663086	2.5000510215759277
27	145.57444310188293	pulse	1	t		25.0	2.5	/experiments/AOT/AOT_stimuli/rescaled_final/2050_fw.mp4	0.0	166.9116930961609	
27	146.89085507392883	fix_post	2		12	25.0	2.5	/experiments/AOT/AOT_stimuli/rescaled_final/2050_fw.mp4	0.0	168.2281050682068	0.0999460220336914
28	146.99080109596252	fix_pre	0		120	26.0	2.5	blank	1.0	168.32805109024048	1.000072956085205
28	147.16682600975037	pulse	0	t		26.0	2.5	blank	1.0	168.50407600402832	
28	147.99087405204773	movie	1		300	26.0	2.5	blank	1.0	169.32812404632568	2.4999940395355225
28	148.76680302619934	pulse	1	t		26.0	2.5	blank	1.0	170.1040530204773	
28	150.36664199829102	pulse	1	t		26.0	2.5	blank	1.0	171.70389199256897	
28	150.49086809158325	fix_post	2		12	26.0	2.5	blank	1.0	171.8281180858612	0.09998083114624023
29	150.5908489227295	fix_pre	0		120	27.0	2.5	/experiments/AOT/AOT_stimuli/rescaled_final/2068_fw.mp4	0.0	171.92809891700745	1.0000231266021729
29	151.59087204933167	movie	1		244	27.0	2.5	/experiments/AOT/AOT_stimuli/rescaled_final/2068_fw.mp4	0.0	172.92812204360962	2.499953031539917
29	151.97396993637085	pulse	1	t		27.0	2.5	/experiments/AOT/AOT_stimuli/rescaled_final/2068_fw.mp4	0.0	173.3112199306488	
29	153.57442998886108	pulse	1	t		27.0	2.5	/experiments/AOT/AOT_stimuli/rescaled_final/2068_fw.mp4	0.0	174.91167998313904	
29	154.09082508087158	fix_post	2		12	27.0	2.5	/experiments/AOT/AOT_stimuli/rescaled_final/2068_fw.mp4	0.0	175.42807507514954	0.09998106956481934
30	154.1908061504364	fix_pre	0		119	28.0	2.5	/experiments/AOT/AOT_stimuli/rescaled_final/1397_rv.mp4	0.0	175.52805614471436	0.9916598796844482
30	155.17452192306519	pulse	0	t		28.0	2.5	/experiments/AOT/AOT_stimuli/rescaled_final/1397_rv.mp4	0.0	176.51177191734314	
30	155.18246603012085	movie	1		247	28.0	2.5	/experiments/AOT/AOT_stimuli/rescaled_final/1397_rv.mp4	0.0	176.5197160243988	2.508418083190918
30	156.7734980583191	pulse	1	t		28.0	2.5	/experiments/AOT/AOT_stimuli/rescaled_final/1397_rv.mp4	0.0	178.11074805259705	
30	157.69088411331177	fix_post	2		12	28.0	2.5	/experiments/AOT/AOT_stimuli/rescaled_final/1397_rv.mp4	0.0	179.02813410758972	0.1000368595123291
31	157.7909209728241	fix_pre	0		120	29.0	2.5	/experiments/AOT/AOT_stimuli/rescaled_final/0536_rv.mp4	0.0	179.12817096710205	1.0000989437103271
31	158.36696314811707	pulse	0	t		29.0	2.5	/experiments/AOT/AOT_stimuli/rescaled_final/0536_rv.mp4	0.0	179.70421314239502	
31	158.79101991653442	movie	1		243	29.0	2.5	/experiments/AOT/AOT_stimuli/rescaled_final/0536_rv.mp4	0.0	180.12826991081238	2.4994001388549805
31	159.97435808181763	pulse	1	t		29.0	2.5	/experiments/AOT/AOT_stimuli/rescaled_final/0536_rv.mp4	0.0	181.31160807609558	
31	161.2904200553894	fix_post	2		12	29.0	2.5	/experiments/AOT/AOT_stimuli/rescaled_final/0536_rv.mp4	0.0	182.62767004966736	0.10042095184326172
32	161.39084100723267	fix_pre	0		120	30.0	2.5	/experiments/AOT/AOT_stimuli/rescaled_final/1627_fw.mp4	0.0	182.72809100151062	1.0000231266021729
32	161.566810131073	pulse	0	t		30.0	2.5	/experiments/AOT/AOT_stimuli/rescaled_final/1627_fw.mp4	0.0	182.90406012535095	
32	162.39086413383484	movie	1		244	30.0	2.5	/experiments/AOT/AOT_stimuli/rescaled_final/1627_fw.mp4	0.0	183.7281141281128	2.499600887298584
32	163.16678500175476	pulse	1	t		30.0	2.5	/experiments/AOT/AOT_stimuli/rescaled_final/1627_fw.mp4	0.0	184.50403499603271	
32	164.77286005020142	pulse	1	t		30.0	2.5	/experiments/AOT/AOT_stimuli/rescaled_final/1627_fw.mp4	0.0	186.11011004447937	
32	164.89046502113342	fix_post	2		12	30.0	2.5	/experiments/AOT/AOT_stimuli/rescaled_final/1627_fw.mp4	0.0	186.22771501541138	0.10031390190124512
33	164.99077892303467	fix_pre	0		120	31.0	2.5	/experiments/AOT/AOT_stimuli/rescaled_final/0344_fw.mp4	0.0	186.32802891731262	1.0000131130218506
33	165.99079203605652	movie	1		244	31.0	2.5	/experiments/AOT/AOT_stimuli/rescaled_final/0344_fw.mp4	0.0	187.32804203033447	2.4998979568481445
33	166.37359595298767	pulse	1	t		31.0	2.5	/experiments/AOT/AOT_stimuli/rescaled_final/0344_fw.mp4	0.0	187.71084594726562	
33	167.9743640422821	pulse	1	t		31.0	2.5	/experiments/AOT/AOT_stimuli/rescaled_final/0344_fw.mp4	0.0	189.31161403656006	
33	168.49068999290466	fix_post	2		12	31.0	2.5	/experiments/AOT/AOT_stimuli/rescaled_final/0344_fw.mp4	0.0	189.82793998718262	0.10003209114074707
34	168.5907220840454	fix_pre	0		119	32.0	2.5	/experiments/AOT/AOT_stimuli/rescaled_final/0544_rv.mp4	0.0	189.92797207832336	0.9916949272155762
34	169.57422804832458	pulse	0	t		32.0	2.5	/experiments/AOT/AOT_stimuli/rescaled_final/0544_rv.mp4	0.0	190.91147804260254	
34	169.582417011261	movie	1		246	32.0	2.5	/experiments/AOT/AOT_stimuli/rescaled_final/0544_rv.mp4	0.0	190.91966700553894	2.508413076400757
34	171.17405104637146	pulse	1	t		32.0	2.5	/experiments/AOT/AOT_stimuli/rescaled_final/0544_rv.mp4	0.0	192.5113010406494	
34	172.09083008766174	fix_post	2		12	32.0	2.5	/experiments/AOT/AOT_stimuli/rescaled_final/0544_rv.mp4	0.0	193.4280800819397	0.09990787506103516
35	172.19073796272278	fix_pre	0		120	33.0	2.5	blank	1.0	193.52798795700073	1.0001370906829834
35	172.77416110038757	pulse	0	t		33.0	2.5	blank	1.0	194.11141109466553	
35	173.19087505340576	movie	1		300	33.0	2.5	blank	1.0	194.52812504768372	2.499851942062378
35	174.37426614761353	pulse	1	t		33.0	2.5	blank	1.0	195.71151614189148	
35	175.69072699546814	fix_post	2		12	33.0	2.5	blank	1.0	197.0279769897461	0.10016202926635742
36	175.7908890247345	fix_pre	0		120	34.0	2.5	/experiments/AOT/AOT_stimuli/rescaled_final/1238_rv.mp4	0.0	197.12813901901245	0.9999051094055176
36	175.97430396080017	pulse	0	t		34.0	2.5	/experiments/AOT/AOT_stimuli/rescaled_final/1238_rv.mp4	0.0	197.31155395507812	
36	176.79079413414001	movie	1		245	34.0	2.5	/experiments/AOT/AOT_stimuli/rescaled_final/1238_rv.mp4	0.0	198.12804412841797	2.499959945678711
36	177.56739902496338	pulse	1	t		34.0	2.5	/experiments/AOT/AOT_stimuli/rescaled_final/1238_rv.mp4	0.0	198.90464901924133	
36	179.17322206497192	pulse	1	t		34.0	2.5	/experiments/AOT/AOT_stimuli/rescaled_final/1238_rv.mp4	0.0	200.51047205924988	
36	179.29075407981873	fix_post	2		12	34.0	2.5	/experiments/AOT/AOT_stimuli/rescaled_final/1238_rv.mp4	0.0	200.62800407409668	0.09995102882385254
37	179.39070510864258	fix_pre	0		120	35.0	2.5	/experiments/AOT/AOT_stimuli/rescaled_final/2120_fw.mp4	0.0	200.72795510292053	0.9999608993530273
37	180.3906660079956	movie	1		245	35.0	2.5	/experiments/AOT/AOT_stimuli/rescaled_final/2120_fw.mp4	0.0	201.72791600227356	2.4995529651641846
37	180.7738709449768	pulse	1	t		35.0	2.5	/experiments/AOT/AOT_stimuli/rescaled_final/2120_fw.mp4	0.0	202.11112093925476	
37	182.36683797836304	pulse	1	t		35.0	2.5	/experiments/AOT/AOT_stimuli/rescaled_final/2120_fw.mp4	0.0	203.704087972641	
37	182.8902189731598	fix_post	2		12	35.0	2.5	/experiments/AOT/AOT_stimuli/rescaled_final/2120_fw.mp4	0.0	204.22746896743774	0.10046005249023438
38	182.99067902565002	fix_pre	0		119	36.0	2.5	/experiments/AOT/AOT_stimuli/rescaled_final/1480_rv.mp4	0.0	204.32792901992798	0.9916720390319824
38	183.97416305541992	pulse	0	t		36.0	2.5	/experiments/AOT/AOT_stimuli/rescaled_final/1480_rv.mp4	0.0	205.31141304969788	
38	183.982351064682	movie	1		246	36.0	2.5	/experiments/AOT/AOT_stimuli/rescaled_final/1480_rv.mp4	0.0	205.31960105895996	2.5082900524139404
38	185.573637008667	pulse	1	t		36.0	2.5	/experiments/AOT/AOT_stimuli/rescaled_final/1480_rv.mp4	0.0	206.91088700294495	
38	186.49064111709595	fix_post	2		12	36.0	2.5	/experiments/AOT/AOT_stimuli/rescaled_final/1480_rv.mp4	0.0	207.8278911113739	0.10005593299865723
39	186.5906970500946	fix_pre	0		120	37.0	2.5	/experiments/AOT/AOT_stimuli/rescaled_final/2079_rv.mp4	0.0	207.92794704437256	0.9999620914459229
39	187.17409992218018	pulse	0	t		37.0	2.5	/experiments/AOT/AOT_stimuli/rescaled_final/2079_rv.mp4	0.0	208.51134991645813	
39	187.59065914154053	movie	1		244	37.0	2.5	/experiments/AOT/AOT_stimuli/rescaled_final/2079_rv.mp4	0.0	208.92790913581848	2.5000178813934326
39	188.7742600440979	pulse	1	t		37.0	2.5	/experiments/AOT/AOT_stimuli/rescaled_final/2079_rv.mp4	0.0	210.11151003837585	
39	190.09067702293396	fix_post	2		12	37.0	2.5	/experiments/AOT/AOT_stimuli/rescaled_final/2079_rv.mp4	0.0	211.4279270172119	0.09998798370361328
40	190.19066500663757	fix_pre	0		120	38.0	2.5	/experiments/AOT/AOT_stimuli/rescaled_final/0612_rv.mp4	0.0	211.52791500091553	0.9995660781860352
40	190.37409114837646	pulse	0	t		38.0	2.5	/experiments/AOT/AOT_stimuli/rescaled_final/0612_rv.mp4	0.0	211.71134114265442	
40	191.1902310848236	movie	1		244	38.0	2.5	/experiments/AOT/AOT_stimuli/rescaled_final/0612_rv.mp4	0.0	212.52748107910156	2.499945878982544
40	191.97421002388	pulse	1	t		38.0	2.5	/experiments/AOT/AOT_stimuli/rescaled_final/0612_rv.mp4	0.0	213.31146001815796	
40	193.57289505004883	pulse	1	t		38.0	2.5	/experiments/AOT/AOT_stimuli/rescaled_final/0612_rv.mp4	0.0	214.91014504432678	
40	193.69017696380615	fix_post	2		12	38.0	2.5	/experiments/AOT/AOT_stimuli/rescaled_final/0612_rv.mp4	0.0	215.0274269580841	0.10042405128479004
41	193.79060101509094	fix_pre	0		120	39.0	2.5	/experiments/AOT/AOT_stimuli/rescaled_final/0945_fw.mp4	0.0	215.1278510093689	0.9999289512634277
41	194.79052996635437	movie	1		244	39.0	2.5	/experiments/AOT/AOT_stimuli/rescaled_final/0945_fw.mp4	0.0	216.12777996063232	2.500058174133301
41	195.17427110671997	pulse	1	t		39.0	2.5	/experiments/AOT/AOT_stimuli/rescaled_final/0945_fw.mp4	0.0	216.51152110099792	
41	196.76681303977966	pulse	1	t		39.0	2.5	/experiments/AOT/AOT_stimuli/rescaled_final/0945_fw.mp4	0.0	218.10406303405762	
41	197.29058814048767	fix_post	2		12	39.0	2.5	/experiments/AOT/AOT_stimuli/rescaled_final/0945_fw.mp4	0.0	218.62783813476562	0.09957194328308105
42	197.39016008377075	fix_pre	0		119	40.0	2.5	blank	1.0	218.7274100780487	0.9921009540557861
42	198.36659598350525	pulse	0	t		40.0	2.5	blank	1.0	219.7038459777832	
42	198.38226103782654	movie	1		301	40.0	2.5	blank	1.0	219.7195110321045	2.508263111114502
42	199.97409105300903	pulse	1	t		40.0	2.5	blank	1.0	221.311341047287	
42	200.89052414894104	fix_post	2		12	40.0	2.5	blank	1.0	222.227774143219	0.10004997253417969
43	200.99057412147522	fix_pre	0		120	41.0	2.5	/experiments/AOT/AOT_stimuli/rescaled_final/0690_rv.mp4	0.0	222.32782411575317	0.9999308586120605
43	201.57412195205688	pulse	0	t		41.0	2.5	/experiments/AOT/AOT_stimuli/rescaled_final/0690_rv.mp4	0.0	222.91137194633484	
43	201.99050498008728	movie	1		246	41.0	2.5	/experiments/AOT/AOT_stimuli/rescaled_final/0690_rv.mp4	0.0	223.32775497436523	2.5001490116119385
43	203.17419004440308	pulse	1	t		41.0	2.5	/experiments/AOT/AOT_stimuli/rescaled_final/0690_rv.mp4	0.0	224.51144003868103	
43	204.49065399169922	fix_post	2		12	41.0	2.5	/experiments/AOT/AOT_stimuli/rescaled_final/0690_rv.mp4	0.0	225.82790398597717	0.09992098808288574
44	204.5905749797821	fix_pre	0		120	42.0	2.5	/experiments/AOT/AOT_stimuli/rescaled_final/1480_fw.mp4	0.0	225.92782497406006	1.0000300407409668
44	204.77410507202148	pulse	0	t		42.0	2.5	/experiments/AOT/AOT_stimuli/rescaled_final/1480_fw.mp4	0.0	226.11135506629944	
44	205.59060502052307	movie	1		244	42.0	2.5	/experiments/AOT/AOT_stimuli/rescaled_final/1480_fw.mp4	0.0	226.92785501480103	2.4995360374450684
44	206.37405395507812	pulse	1	t		42.0	2.5	/experiments/AOT/AOT_stimuli/rescaled_final/1480_fw.mp4	0.0	227.71130394935608	
44	207.9726059436798	pulse	1	t		42.0	2.5	/experiments/AOT/AOT_stimuli/rescaled_final/1480_fw.mp4	0.0	229.30985593795776	
44	208.09014105796814	fix_post	2		12	42.0	2.5	/experiments/AOT/AOT_stimuli/rescaled_final/1480_fw.mp4	0.0	229.4273910522461	0.10043692588806152
45	208.1905779838562	fix_pre	0		120	43.0	2.5	/experiments/AOT/AOT_stimuli/rescaled_final/1124_fw.mp4	0.0	229.52782797813416	1.0001189708709717
45	209.19069695472717	movie	1		245	43.0	2.5	/experiments/AOT/AOT_stimuli/rescaled_final/1124_fw.mp4	0.0	230.52794694900513	2.499873161315918
45	209.5737509727478	pulse	1	t		43.0	2.5	/experiments/AOT/AOT_stimuli/rescaled_final/1124_fw.mp4	0.0	230.91100096702576	
45	211.1739640235901	pulse	1	t		43.0	2.5	/experiments/AOT/AOT_stimuli/rescaled_final/1124_fw.mp4	0.0	232.51121401786804	
45	211.6905701160431	fix_post	2		12	43.0	2.5	/experiments/AOT/AOT_stimuli/rescaled_final/1124_fw.mp4	0.0	233.02782011032104	0.10000491142272949
46	211.79057502746582	fix_pre	0		119	44.0	2.5	/experiments/AOT/AOT_stimuli/rescaled_final/2035_rv.mp4	0.0	233.12782502174377	0.991225004196167
46	212.77362298965454	pulse	0	t		44.0	2.5	/experiments/AOT/AOT_stimuli/rescaled_final/2035_rv.mp4	0.0	234.1108729839325	
46	212.781800031662	movie	1		244	44.0	2.5	/experiments/AOT/AOT_stimuli/rescaled_final/2035_rv.mp4	0.0	234.11905002593994	2.509082078933716
46	214.37377095222473	pulse	1	t		44.0	2.5	/experiments/AOT/AOT_stimuli/rescaled_final/2035_rv.mp4	0.0	235.71102094650269	
46	215.2908821105957	fix_post	2		12	44.0	2.5	/experiments/AOT/AOT_stimuli/rescaled_final/2035_rv.mp4	0.0	236.62813210487366	0.09957003593444824
47	215.39045214653015	fix_pre	0		120	45.0	2.5	/experiments/AOT/AOT_stimuli/rescaled_final/1473_rv.mp4	0.0	236.7277021408081	1.000114917755127
47	215.9740309715271	pulse	0	t		45.0	2.5	/experiments/AOT/AOT_stimuli/rescaled_final/1473_rv.mp4	0.0	237.31128096580505	
47	216.39056706428528	movie	1		248	45.0	2.5	/experiments/AOT/AOT_stimuli/rescaled_final/1473_rv.mp4	0.0	237.72781705856323	2.4999539852142334
47	217.57411813735962	pulse	1	t		45.0	2.5	/experiments/AOT/AOT_stimuli/rescaled_final/1473_rv.mp4	0.0	238.91136813163757	
47	218.8905210494995	fix_post	2		12	45.0	2.5	/experiments/AOT/AOT_stimuli/rescaled_final/1473_rv.mp4	0.0	240.22777104377747	0.10002589225769043
48	218.9905469417572	fix_pre	0		120	46.0	2.5	/experiments/AOT/AOT_stimuli/rescaled_final/2068_rv.mp4	0.0	240.32779693603516	0.9999780654907227
48	219.1741349697113	pulse	0	t		46.0	2.5	/experiments/AOT/AOT_stimuli/rescaled_final/2068_rv.mp4	0.0	240.51138496398926	
48	219.99052500724792	movie	1		245	46.0	2.5	/experiments/AOT/AOT_stimuli/rescaled_final/2068_rv.mp4	0.0	241.32777500152588	2.499643087387085
48	220.77408003807068	pulse	1	t		46.0	2.5	/experiments/AOT/AOT_stimuli/rescaled_final/2068_rv.mp4	0.0	242.11133003234863	
48	222.37265300750732	pulse	1	t		46.0	2.5	/experiments/AOT/AOT_stimuli/rescaled_final/2068_rv.mp4	0.0	243.70990300178528	
48	222.490168094635	fix_post	2		12	46.0	2.5	/experiments/AOT/AOT_stimuli/rescaled_final/2068_rv.mp4	0.0	243.82741808891296	0.10029101371765137
49	222.59045910835266	fix_pre	0		120	47.0	2.5	blank	1.0	243.92770910263062	0.9995529651641846
49	223.59001207351685	movie	1		300	47.0	2.5	blank	1.0	244.9272620677948	2.500472068786621
49	223.97400498390198	pulse	1	t		47.0	2.5	blank	1.0	245.31125497817993	
49	225.57398796081543	pulse	1	t		47.0	2.5	blank	1.0	246.91123795509338	
49	226.09048414230347	fix_post	2		12	47.0	2.5	blank	1.0	247.42773413658142	0.09991788864135742
50	226.19040203094482	fix_pre	0		119	48.0	2.5	/experiments/AOT/AOT_stimuli/rescaled_final/1393_rv.mp4	0.0	247.52765202522278	0.9917221069335938
50	227.17409014701843	pulse	0	t		48.0	2.5	/experiments/AOT/AOT_stimuli/rescaled_final/1393_rv.mp4	0.0	248.5113401412964	
50	227.18212413787842	movie	1		246	48.0	2.5	/experiments/AOT/AOT_stimuli/rescaled_final/1393_rv.mp4	0.0	248.51937413215637	2.5078799724578857
50	228.7736189365387	pulse	1	t		48.0	2.5	/experiments/AOT/AOT_stimuli/rescaled_final/1393_rv.mp4	0.0	250.11086893081665	
50	229.6900041103363	fix_post	2		12	48.0	2.5	/experiments/AOT/AOT_stimuli/rescaled_final/1393_rv.mp4	0.0	251.02725410461426	0.1004488468170166
51	229.79045295715332	fix_pre	0		120	49.0	2.5	/experiments/AOT/AOT_stimuli/rescaled_final/2050_rv.mp4	0.0	251.12770295143127	1.000028133392334
51	230.37387108802795	pulse	0	t		49.0	2.5	/experiments/AOT/AOT_stimuli/rescaled_final/2050_rv.mp4	0.0	251.7111210823059	
51	230.79048109054565	movie	1		243	49.0	2.5	/experiments/AOT/AOT_stimuli/rescaled_final/2050_rv.mp4	0.0	252.1277310848236	2.5000648498535156
51	231.97415208816528	pulse	1	t		49.0	2.5	/experiments/AOT/AOT_stimuli/rescaled_final/2050_rv.mp4	0.0	253.31140208244324	
51	233.29054594039917	fix_post	2		12	49.0	2.5	/experiments/AOT/AOT_stimuli/rescaled_final/2050_rv.mp4	0.0	254.62779593467712	0.0995321273803711
52	233.39007806777954	fix_pre	0		120	50.0	2.5	/experiments/AOT/AOT_stimuli/rescaled_final/1514_fw.mp4	0.0	254.7273280620575	1.0003628730773926
52	233.5740349292755	pulse	0	t		50.0	2.5	/experiments/AOT/AOT_stimuli/rescaled_final/1514_fw.mp4	0.0	254.91128492355347	
52	234.39044094085693	movie	1		243	50.0	2.5	/experiments/AOT/AOT_stimuli/rescaled_final/1514_fw.mp4	0.0	255.7276909351349	2.500058174133301
52	235.1739640235901	pulse	1	t		50.0	2.5	/experiments/AOT/AOT_stimuli/rescaled_final/1514_fw.mp4	0.0	256.51121401786804	
52	236.77255392074585	pulse	1	t		50.0	2.5	/experiments/AOT/AOT_stimuli/rescaled_final/1514_fw.mp4	0.0	258.1098039150238	
52	236.89049911499023	fix_post	2		12	50.0	2.5	/experiments/AOT/AOT_stimuli/rescaled_final/1514_fw.mp4	0.0	258.2277491092682	0.09993600845336914
53	236.9904351234436	fix_pre	0		120	51.0	2.5	/experiments/AOT/AOT_stimuli/rescaled_final/1050_fw.mp4	0.0	258.32768511772156	0.999945878982544
53	237.99038100242615	movie	1		244	51.0	2.5	/experiments/AOT/AOT_stimuli/rescaled_final/1050_fw.mp4	0.0	259.3276309967041	2.500002145767212
53	238.37368202209473	pulse	1	t		51.0	2.5	/experiments/AOT/AOT_stimuli/rescaled_final/1050_fw.mp4	0.0	259.7109320163727	
53	239.9738850593567	pulse	1	t		51.0	2.5	/experiments/AOT/AOT_stimuli/rescaled_final/1050_fw.mp4	0.0	261.31113505363464	
53	240.49038314819336	fix_post	2		12	51.0	2.5	/experiments/AOT/AOT_stimuli/rescaled_final/1050_fw.mp4	0.0	261.8276331424713	0.10004997253417969
54	240.59043312072754	fix_pre	0		119	52.0	2.5	/experiments/AOT/AOT_stimuli/rescaled_final/1158_rv.mp4	0.0	261.9276831150055	0.9916348457336426
54	241.57394409179688	pulse	0	t		52.0	2.5	/experiments/AOT/AOT_stimuli/rescaled_final/1158_rv.mp4	0.0	262.91119408607483	
54	241.58206796646118	movie	1		247	52.0	2.5	/experiments/AOT/AOT_stimuli/rescaled_final/1158_rv.mp4	0.0	262.91931796073914	2.508296012878418
54	243.17342400550842	pulse	1	t		52.0	2.5	/experiments/AOT/AOT_stimuli/rescaled_final/1158_rv.mp4	0.0	264.5106739997864	
54	244.0903639793396	fix_post	2		12	52.0	2.5	/experiments/AOT/AOT_stimuli/rescaled_final/1158_rv.mp4	0.0	265.42761397361755	0.10000205039978027
55	244.19036602973938	fix_pre	0		120	53.0	2.5	/experiments/AOT/AOT_stimuli/rescaled_final/1535_fw.mp4	0.0	265.52761602401733	1.000032901763916
55	244.7738959789276	pulse	0	t		53.0	2.5	/experiments/AOT/AOT_stimuli/rescaled_final/1535_fw.mp4	0.0	266.11114597320557	
55	245.1903989315033	movie	1		245	53.0	2.5	/experiments/AOT/AOT_stimuli/rescaled_final/1535_fw.mp4	0.0	266.52764892578125	2.4995570182800293
55	246.37393999099731	pulse	1	t		53.0	2.5	/experiments/AOT/AOT_stimuli/rescaled_final/1535_fw.mp4	0.0	267.71118998527527	
55	247.68995594978333	fix_post	2		12	53.0	2.5	/experiments/AOT/AOT_stimuli/rescaled_final/1535_fw.mp4	0.0	269.0272059440613	0.1004490852355957
56	247.79040503501892	fix_pre	0		120	54.0	2.5	blank	1.0	269.1276550292969	0.9999830722808838
56	247.9739339351654	pulse	0	t		54.0	2.5	blank	1.0	269.31118392944336	
56	248.7903881072998	movie	1		300	54.0	2.5	blank	1.0	270.12763810157776	2.4999258518218994
56	249.57382893562317	pulse	1	t		54.0	2.5	blank	1.0	270.9110789299011	
56	251.1738440990448	pulse	1	t		54.0	2.5	blank	1.0	272.51109409332275	
56	251.2903139591217	fix_post	2		12	54.0	2.5	blank	1.0	272.62756395339966	0.09958410263061523
57	251.38989806175232	fix_pre	0		120	55.0	2.5	/experiments/AOT/AOT_stimuli/rescaled_final/1669_fw.mp4	0.0	272.7271480560303	1.0004959106445312
57	252.39039397239685	movie	1		244	55.0	2.5	/experiments/AOT/AOT_stimuli/rescaled_final/1669_fw.mp4	0.0	273.7276439666748	2.5000319480895996
57	252.7732081413269	pulse	1	t		55.0	2.5	/experiments/AOT/AOT_stimuli/rescaled_final/1669_fw.mp4	0.0	274.11045813560486	
57	254.37381100654602	pulse	1	t		55.0	2.5	/experiments/AOT/AOT_stimuli/rescaled_final/1669_fw.mp4	0.0	275.711061000824	
57	254.89042592048645	fix_post	2		12	55.0	2.5	/experiments/AOT/AOT_stimuli/rescaled_final/1669_fw.mp4	0.0	276.2276759147644	0.09986114501953125
58	254.99028706550598	fix_pre	0		119	56.0	2.5	/experiments/AOT/AOT_stimuli/rescaled_final/0536_fw.mp4	0.0	276.32753705978394	0.9916749000549316
58	255.97379112243652	pulse	0	t		56.0	2.5	/experiments/AOT/AOT_stimuli/rescaled_final/0536_fw.mp4	0.0	277.3110411167145	
58	255.9819619655609	movie	1		245	56.0	2.5	/experiments/AOT/AOT_stimuli/rescaled_final/0536_fw.mp4	0.0	277.31921195983887	2.5079410076141357
58	257.57390999794006	pulse	1	t		56.0	2.5	/experiments/AOT/AOT_stimuli/rescaled_final/0536_fw.mp4	0.0	278.911159992218	
58	258.48990297317505	fix_post	2		12	56.0	2.5	/experiments/AOT/AOT_stimuli/rescaled_final/0536_fw.mp4	0.0	279.827152967453	0.10045313835144043
59	258.5903561115265	fix_pre	0		120	57.0	2.5	/experiments/AOT/AOT_stimuli/rescaled_final/0074_fw.mp4	0.0	279.92760610580444	1.0000288486480713
59	259.173789024353	pulse	0	t		57.0	2.5	/experiments/AOT/AOT_stimuli/rescaled_final/0074_fw.mp4	0.0	280.511039018631	
59	259.59038496017456	movie	1		247	57.0	2.5	/experiments/AOT/AOT_stimuli/rescaled_final/0074_fw.mp4	0.0	280.9276349544525	2.4998931884765625
59	260.77388095855713	pulse	1	t		57.0	2.5	/experiments/AOT/AOT_stimuli/rescaled_final/0074_fw.mp4	0.0	282.1111309528351	
59	262.0902781486511	fix_post	2		12	57.0	2.5	/experiments/AOT/AOT_stimuli/rescaled_final/0074_fw.mp4	0.0	283.4275281429291	0.1000528335571289
60	262.19033098220825	fix_pre	0		120	58.0	2.5	/experiments/AOT/AOT_stimuli/rescaled_final/1978_rv.mp4	0.0	283.5275809764862	1.0000600814819336
60	262.373820066452	pulse	0	t		58.0	2.5	/experiments/AOT/AOT_stimuli/rescaled_final/1978_rv.mp4	0.0	283.71107006073	
60	263.1903910636902	movie	1		244	58.0	2.5	/experiments/AOT/AOT_stimuli/rescaled_final/1978_rv.mp4	0.0	284.52764105796814	2.499436855316162
60	263.97378611564636	pulse	1	t		58.0	2.5	/experiments/AOT/AOT_stimuli/rescaled_final/1978_rv.mp4	0.0	285.3110361099243	
60	265.5725100040436	pulse	1	t		58.0	2.5	/experiments/AOT/AOT_stimuli/rescaled_final/1978_rv.mp4	0.0	286.90975999832153	
60	265.68982791900635	fix_post	2		12	58.0	2.5	/experiments/AOT/AOT_stimuli/rescaled_final/1978_rv.mp4	0.0	287.0270779132843	0.1000521183013916
61	265.78988003730774	fix_pre	0		120	59.0	2.5	/experiments/AOT/AOT_stimuli/rescaled_final/1548_fw.mp4	0.0	287.1271300315857	1.000443935394287
61	266.790323972702	movie	1		247	59.0	2.5	/experiments/AOT/AOT_stimuli/rescaled_final/1548_fw.mp4	0.0	288.12757396698	2.49963116645813
61	267.173299074173	pulse	1	t		59.0	2.5	/experiments/AOT/AOT_stimuli/rescaled_final/1548_fw.mp4	0.0	288.5105490684509	
61	268.7732689380646	pulse	1	t		59.0	2.5	/experiments/AOT/AOT_stimuli/rescaled_final/1548_fw.mp4	0.0	290.11051893234253	
61	269.28995513916016	fix_post	2		12	59.0	2.5	/experiments/AOT/AOT_stimuli/rescaled_final/1548_fw.mp4	0.0	290.6272051334381	0.09995889663696289
62	269.3899140357971	fix_pre	0		119	60.0	2.5	/experiments/AOT/AOT_stimuli/rescaled_final/0344_fw.mp4	0.0	290.7271640300751	0.9923160076141357
62	270.37396693229675	pulse	0	t		60.0	2.5	/experiments/AOT/AOT_stimuli/rescaled_final/0344_fw.mp4	0.0	291.7112169265747	
62	270.38223004341125	movie	1		247	60.0	2.5	/experiments/AOT/AOT_stimuli/rescaled_final/0344_fw.mp4	0.0	291.7194800376892	2.5080559253692627
62	271.97372698783875	pulse	1	t		60.0	2.5	/experiments/AOT/AOT_stimuli/rescaled_final/0344_fw.mp4	0.0	293.3109769821167	
62	272.8902859687805	fix_post	2		12	60.0	2.5	/experiments/AOT/AOT_stimuli/rescaled_final/0344_fw.mp4	0.0	294.2275359630585	0.10001611709594727
63	272.99030208587646	fix_pre	0		120	61.0	2.5	blank	1.0	294.3275520801544	0.9999690055847168
63	273.57378101348877	pulse	0	t		61.0	2.5	blank	1.0	294.9110310077667	
63	273.9902710914612	movie	1		300	61.0	2.5	blank	1.0	295.32752108573914	2.499969959259033
63	275.17373394966125	pulse	1	t		61.0	2.5	blank	1.0	296.5109839439392	
63	276.4902410507202	fix_post	2		12	61.0	2.5	blank	1.0	297.82749104499817	0.09995102882385254
64	276.59019207954407	fix_pre	0		120	62.0	2.5	/experiments/AOT/AOT_stimuli/rescaled_final/0764_fw.mp4	0.0	297.927442073822	0.9997169971466064
64	276.7736690044403	pulse	0	t		62.0	2.5	/experiments/AOT/AOT_stimuli/rescaled_final/0764_fw.mp4	0.0	298.11091899871826	
64	277.5899090766907	movie	1		246	62.0	2.5	/experiments/AOT/AOT_stimuli/rescaled_final/0764_fw.mp4	0.0	298.9271590709686	2.5002899169921875
64	278.373633146286	pulse	1	t		62.0	2.5	/experiments/AOT/AOT_stimuli/rescaled_final/0764_fw.mp4	0.0	299.71088314056396	
64	279.9738841056824	pulse	1	t		62.0	2.5	/experiments/AOT/AOT_stimuli/rescaled_final/0764_fw.mp4	0.0	301.3111340999603	
64	280.09019899368286	fix_post	2		12	62.0	2.5	/experiments/AOT/AOT_stimuli/rescaled_final/0764_fw.mp4	0.0	301.4274489879608	0.09998893737792969
65	280.1901879310608	fix_pre	0		120	63.0	2.5	/experiments/AOT/AOT_stimuli/rescaled_final/1383_fw.mp4	0.0	301.52743792533875	1.0000441074371338
65	281.1902320384979	movie	1		244	63.0	2.5	/experiments/AOT/AOT_stimuli/rescaled_final/1383_fw.mp4	0.0	302.5274820327759	2.4999170303344727
65	281.57329297065735	pulse	1	t		63.0	2.5	/experiments/AOT/AOT_stimuli/rescaled_final/1383_fw.mp4	0.0	302.9105429649353	
65	283.17360401153564	pulse	1	t		63.0	2.5	/experiments/AOT/AOT_stimuli/rescaled_final/1383_fw.mp4	0.0	304.5108540058136	
65	283.6901490688324	fix_post	2		12	63.0	2.5	/experiments/AOT/AOT_stimuli/rescaled_final/1383_fw.mp4	0.0	305.02739906311035	0.1000518798828125
66	283.7902009487152	fix_pre	0		119	64.0	2.5	/experiments/AOT/AOT_stimuli/rescaled_final/0764_fw.mp4	0.0	305.12745094299316	0.9915931224822998
66	284.77374792099	pulse	0	t		64.0	2.5	/experiments/AOT/AOT_stimuli/rescaled_final/0764_fw.mp4	0.0	306.11099791526794	
66	284.7817940711975	movie	1		248	64.0	2.5	/experiments/AOT/AOT_stimuli/rescaled_final/0764_fw.mp4	0.0	306.11904406547546	2.508413076400757
66	286.37315797805786	pulse	1	t		64.0	2.5	/experiments/AOT/AOT_stimuli/rescaled_final/0764_fw.mp4	0.0	307.7104079723358	
66	287.29020714759827	fix_post	2		12	64.0	2.5	/experiments/AOT/AOT_stimuli/rescaled_final/0764_fw.mp4	0.0	308.6274571418762	0.09954595565795898
67	287.3897531032562	fix_pre	0		120	65.0	2.5	/experiments/AOT/AOT_stimuli/rescaled_final/2177_fw.mp4	0.0	308.7270030975342	1.0000419616699219
67	287.973708152771	pulse	0	t		65.0	2.5	/experiments/AOT/AOT_stimuli/rescaled_final/2177_fw.mp4	0.0	309.31095814704895	
67	288.38979506492615	movie	1		247	65.0	2.5	/experiments/AOT/AOT_stimuli/rescaled_final/2177_fw.mp4	0.0	309.7270450592041	2.500308036804199
67	289.5737941265106	pulse	1	t		65.0	2.5	/experiments/AOT/AOT_stimuli/rescaled_final/2177_fw.mp4	0.0	310.9110441207886	
67	290.89010310173035	fix_post	2		12	65.0	2.5	/experiments/AOT/AOT_stimuli/rescaled_final/2177_fw.mp4	0.0	312.2273530960083	0.1000368595123291
68	290.9901399612427	fix_pre	0		120	66.0	2.5	/experiments/AOT/AOT_stimuli/rescaled_final/1288_rv.mp4	0.0	312.32738995552063	0.9999489784240723
68	291.1737461090088	pulse	0	t		66.0	2.5	/experiments/AOT/AOT_stimuli/rescaled_final/1288_rv.mp4	0.0	312.51099610328674	
68	291.99008893966675	movie	1		246	66.0	2.5	/experiments/AOT/AOT_stimuli/rescaled_final/1288_rv.mp4	0.0	313.3273389339447	2.5000832080841064
68	292.77361607551575	pulse	1	t		66.0	2.5	/experiments/AOT/AOT_stimuli/rescaled_final/1288_rv.mp4	0.0	314.1108660697937	
68	294.36988592147827	pulse	1	t		66.0	2.5	/experiments/AOT/AOT_stimuli/rescaled_final/1288_rv.mp4	0.0	315.7071359157562	
68	294.49017214775085	fix_post	2		12	66.0	2.5	/experiments/AOT/AOT_stimuli/rescaled_final/1288_rv.mp4	0.0	315.8274221420288	0.09999895095825195
69	294.5901710987091	fix_pre	0		120	67.0	2.5	/experiments/AOT/AOT_stimuli/rescaled_final/1976_rv.mp4	0.0	315.92742109298706	1.0000460147857666
69	295.5902171134949	movie	1		245	67.0	2.5	/experiments/AOT/AOT_stimuli/rescaled_final/1976_rv.mp4	0.0	316.9274671077728	2.49953293800354
69	295.97343707084656	pulse	1	t		67.0	2.5	/experiments/AOT/AOT_stimuli/rescaled_final/1976_rv.mp4	0.0	317.3106870651245	
69	297.57365703582764	pulse	1	t		67.0	2.5	/experiments/AOT/AOT_stimuli/rescaled_final/1976_rv.mp4	0.0	318.9109070301056	
69	298.0897500514984	fix_post	2		12	67.0	2.5	/experiments/AOT/AOT_stimuli/rescaled_final/1976_rv.mp4	0.0	319.42700004577637	0.10041093826293945
70	298.19016098976135	fix_pre	0		119	68.0	2.5	blank	1.0	319.5274109840393	0.9916720390319824
70	299.17365193367004	pulse	0	t		68.0	2.5	blank	1.0	320.510901927948	
70	299.18183302879333	movie	1		301	68.0	2.5	blank	1.0	320.5190830230713	2.5083041191101074
70	300.77360105514526	pulse	1	t		68.0	2.5	blank	1.0	322.1108510494232	
70	301.69013714790344	fix_post	2		12	68.0	2.5	blank	1.0	323.0273871421814	0.09993791580200195
71	301.79007506370544	fix_pre	0		120	69.0	2.5	/experiments/AOT/AOT_stimuli/rescaled_final/1374_fw.mp4	0.0	323.1273250579834	0.9999990463256836
71	302.37371802330017	pulse	0	t		69.0	2.5	/experiments/AOT/AOT_stimuli/rescaled_final/1374_fw.mp4	0.0	323.7109680175781	
71	302.7900741100311	movie	1		245	69.0	2.5	/experiments/AOT/AOT_stimuli/rescaled_final/1374_fw.mp4	0.0	324.1273241043091	2.5000569820404053
71	303.9737229347229	pulse	1	t		69.0	2.5	/experiments/AOT/AOT_stimuli/rescaled_final/1374_fw.mp4	0.0	325.31097292900085	
71	305.29013109207153	fix_post	2		12	69.0	2.5	/experiments/AOT/AOT_stimuli/rescaled_final/1374_fw.mp4	0.0	326.6273810863495	0.09997892379760742
72	305.39011001586914	fix_pre	0		120	70.0	2.5	/experiments/AOT/AOT_stimuli/rescaled_final/2019_rv.mp4	0.0	326.7273600101471	0.999985933303833
72	305.57362699508667	pulse	0	t		70.0	2.5	/experiments/AOT/AOT_stimuli/rescaled_final/2019_rv.mp4	0.0	326.9108769893646	
72	306.390095949173	movie	1		247	70.0	2.5	/experiments/AOT/AOT_stimuli/rescaled_final/2019_rv.mp4	0.0	327.7273459434509	2.4999921321868896
72	307.173712015152	pulse	1	t		70.0	2.5	/experiments/AOT/AOT_stimuli/rescaled_final/2019_rv.mp4	0.0	328.51096200942993	
72	308.7735290527344	pulse	1	t		70.0	2.5	/experiments/AOT/AOT_stimuli/rescaled_final/2019_rv.mp4	0.0	330.11077904701233	
72	308.89008808135986	fix_post	2		12	70.0	2.5	/experiments/AOT/AOT_stimuli/rescaled_final/2019_rv.mp4	0.0	330.2273380756378	0.0996859073638916
73	308.98977398872375	fix_pre	0		120	71.0	2.5	/experiments/AOT/AOT_stimuli/rescaled_final/1448_fw.mp4	0.0	330.3270239830017	1.0003349781036377
73	309.9901089668274	movie	1		246	71.0	2.5	/experiments/AOT/AOT_stimuli/rescaled_final/1448_fw.mp4	0.0	331.32735896110535	2.4995691776275635
73	310.37311601638794	pulse	1	t		71.0	2.5	/experiments/AOT/AOT_stimuli/rescaled_final/1448_fw.mp4	0.0	331.7103660106659	
73	311.9735851287842	pulse	1	t		71.0	2.5	/experiments/AOT/AOT_stimuli/rescaled_final/1448_fw.mp4	0.0	333.31083512306213	
73	312.48967814445496	fix_post	2		12	71.0	2.5	/experiments/AOT/AOT_stimuli/rescaled_final/1448_fw.mp4	0.0	333.8269281387329	0.10040688514709473
74	312.59008502960205	fix_pre	0		119	72.0	2.5	/experiments/AOT/AOT_stimuli/rescaled_final/1580_rv.mp4	0.0	333.92733502388	0.9916670322418213
74	313.57360100746155	pulse	0	t		72.0	2.5	/experiments/AOT/AOT_stimuli/rescaled_final/1580_rv.mp4	0.0	334.9108510017395	
74	313.5817520618439	movie	1		246	72.0	2.5	/experiments/AOT/AOT_stimuli/rescaled_final/1580_rv.mp4	0.0	334.9190020561218	2.507874011993408
74	315.17367792129517	pulse	1	t		72.0	2.5	/experiments/AOT/AOT_stimuli/rescaled_final/1580_rv.mp4	0.0	336.5109279155731	
74	316.0896260738373	fix_post	2		12	72.0	2.5	/experiments/AOT/AOT_stimuli/rescaled_final/1580_rv.mp4	0.0	337.42687606811523	0.10037493705749512
75	316.1900010108948	fix_pre	0		120	73.0	2.5	/experiments/AOT/AOT_stimuli/rescaled_final/1617_rv.mp4	0.0	337.52725100517273	0.9999949932098389
75	316.77355194091797	pulse	0	t		73.0	2.5	/experiments/AOT/AOT_stimuli/rescaled_final/1617_rv.mp4	0.0	338.1108019351959	
75	317.1899960041046	movie	1		244	73.0	2.5	/experiments/AOT/AOT_stimuli/rescaled_final/1617_rv.mp4	0.0	338.52724599838257	2.499993085861206
75	318.3735921382904	pulse	1	t		73.0	2.5	/experiments/AOT/AOT_stimuli/rescaled_final/1617_rv.mp4	0.0	339.71084213256836	
75	319.6899890899658	fix_post	2		12	73.0	2.5	/experiments/AOT/AOT_stimuli/rescaled_final/1617_rv.mp4	0.0	341.0272390842438	0.09998488426208496
76	319.7899739742279	fix_pre	0		120	74.0	2.5	/experiments/AOT/AOT_stimuli/rescaled_final/2120_rv.mp4	0.0	341.12722396850586	0.9999830722808838
76	319.9735839366913	pulse	0	t		74.0	2.5	/experiments/AOT/AOT_stimuli/rescaled_final/2120_rv.mp4	0.0	341.31083393096924	
76	320.7899570465088	movie	1		245	74.0	2.5	/experiments/AOT/AOT_stimuli/rescaled_final/2120_rv.mp4	0.0	342.12720704078674	2.5000810623168945
76	321.57363414764404	pulse	1	t		74.0	2.5	/experiments/AOT/AOT_stimuli/rescaled_final/2120_rv.mp4	0.0	342.910884141922	
76	323.17220091819763	pulse	1	t		74.0	2.5	/experiments/AOT/AOT_stimuli/rescaled_final/2120_rv.mp4	0.0	344.5094509124756	
76	323.2900381088257	fix_post	2		12	74.0	2.5	/experiments/AOT/AOT_stimuli/rescaled_final/2120_rv.mp4	0.0	344.62728810310364	0.10007691383361816
77	323.3901150226593	fix_pre	0		120	75.0	2.5	blank	1.0	344.72736501693726	0.9994509220123291
77	324.38956594467163	movie	1		300	75.0	2.5	blank	1.0	345.7268159389496	2.5002970695495605
77	324.7730829715729	pulse	1	t		75.0	2.5	blank	1.0	346.11033296585083	
77	326.37333393096924	pulse	1	t		75.0	2.5	blank	1.0	347.7105839252472	
77	326.8898630142212	fix_post	2		12	75.0	2.5	blank	1.0	348.22711300849915	0.0999600887298584
78	326.98982310295105	fix_pre	0		119	76.0	2.5	/experiments/AOT/AOT_stimuli/rescaled_final/0683_rv.mp4	0.0	348.327073097229	0.9918580055236816
78	327.97358202934265	pulse	0	t		76.0	2.5	/experiments/AOT/AOT_stimuli/rescaled_final/0683_rv.mp4	0.0	349.3108320236206	
78	327.98168110847473	movie	1		246	76.0	2.5	/experiments/AOT/AOT_stimuli/rescaled_final/0683_rv.mp4	0.0	349.3189311027527	2.508280038833618
78	329.57338094711304	pulse	1	t		76.0	2.5	/experiments/AOT/AOT_stimuli/rescaled_final/0683_rv.mp4	0.0	350.910630941391	
78	330.48996114730835	fix_post	2		12	76.0	2.5	/experiments/AOT/AOT_stimuli/rescaled_final/0683_rv.mp4	0.0	351.8272111415863	0.10014081001281738
79	330.59010195732117	fix_pre	0		120	77.0	2.5	/experiments/AOT/AOT_stimuli/rescaled_final/1664_fw.mp4	0.0	351.9273519515991	0.9998669624328613
79	331.1735019683838	pulse	0	t		77.0	2.5	/experiments/AOT/AOT_stimuli/rescaled_final/1664_fw.mp4	0.0	352.51075196266174	
79	331.589968919754	movie	1		247	77.0	2.5	/experiments/AOT/AOT_stimuli/rescaled_final/1664_fw.mp4	0.0	352.927218914032	2.499549150466919
79	332.77355194091797	pulse	1	t		77.0	2.5	/experiments/AOT/AOT_stimuli/rescaled_final/1664_fw.mp4	0.0	354.1108019351959	
79	334.08951807022095	fix_post	2		12	77.0	2.5	/experiments/AOT/AOT_stimuli/rescaled_final/1664_fw.mp4	0.0	355.4267680644989	0.10037493705749512
80	334.18989300727844	fix_pre	0		120	78.0	2.5	/experiments/AOT/AOT_stimuli/rescaled_final/1569_rv.mp4	0.0	355.5271430015564	1.0000429153442383
80	334.3734381198883	pulse	0	t		78.0	2.5	/experiments/AOT/AOT_stimuli/rescaled_final/1569_rv.mp4	0.0	355.71068811416626	
80	335.1899359226227	movie	1		245	78.0	2.5	/experiments/AOT/AOT_stimuli/rescaled_final/1569_rv.mp4	0.0	356.52718591690063	2.499545097351074
80	335.9734790325165	pulse	1	t		78.0	2.5	/experiments/AOT/AOT_stimuli/rescaled_final/1569_rv.mp4	0.0	357.31072902679443	
80	337.5717589855194	pulse	1	t		78.0	2.5	/experiments/AOT/AOT_stimuli/rescaled_final/1569_rv.mp4	0.0	358.90900897979736	
80	337.68948101997375	fix_post	2		12	78.0	2.5	/experiments/AOT/AOT_stimuli/rescaled_final/1569_rv.mp4	0.0	359.0267310142517	0.10041403770446777
81	337.7898950576782	fix_pre	0		120	79.0	2.5	/experiments/AOT/AOT_stimuli/rescaled_final/1274_rv.mp4	0.0	359.1271450519562	1.0000219345092773
81	338.7899169921875	movie	1		245	79.0	2.5	/experiments/AOT/AOT_stimuli/rescaled_final/1274_rv.mp4	0.0	360.12716698646545	2.4999771118164062
81	339.17296504974365	pulse	1	t		79.0	2.5	/experiments/AOT/AOT_stimuli/rescaled_final/1274_rv.mp4	0.0	360.5102150440216	
81	340.7733280658722	pulse	1	t		79.0	2.5	/experiments/AOT/AOT_stimuli/rescaled_final/1274_rv.mp4	0.0	362.11057806015015	
81	341.2898941040039	fix_post	2		12	79.0	2.5	/experiments/AOT/AOT_stimuli/rescaled_final/1274_rv.mp4	0.0	362.62714409828186	0.10004186630249023
82	341.3899359703064	fix_pre	0		119	80.0	2.5	/experiments/AOT/AOT_stimuli/rescaled_final/1102_fw.mp4	0.0	362.72718596458435	0.9917731285095215
82	342.37349104881287	pulse	0	t		80.0	2.5	/experiments/AOT/AOT_stimuli/rescaled_final/1102_fw.mp4	0.0	363.7107410430908	
82	342.3817090988159	movie	1		246	80.0	2.5	/experiments/AOT/AOT_stimuli/rescaled_final/1102_fw.mp4	0.0	363.7189590930939	2.508201837539673
82	343.9728379249573	pulse	1	t		80.0	2.5	/experiments/AOT/AOT_stimuli/rescaled_final/1102_fw.mp4	0.0	365.31008791923523	
82	344.8899109363556	fix_post	2		12	80.0	2.5	/experiments/AOT/AOT_stimuli/rescaled_final/1102_fw.mp4	0.0	366.22716093063354	0.10000205039978027
83	344.98991298675537	fix_pre	0		120	81.0	2.5	/experiments/AOT/AOT_stimuli/rescaled_final/1469_rv.mp4	0.0	366.3271629810333	0.9999189376831055
83	345.57364106178284	pulse	0	t		81.0	2.5	/experiments/AOT/AOT_stimuli/rescaled_final/1469_rv.mp4	0.0	366.9108910560608	
83	345.9898319244385	movie	1		243	81.0	2.5	/experiments/AOT/AOT_stimuli/rescaled_final/1469_rv.mp4	0.0	367.32708191871643	2.5001020431518555
83	347.1734459400177	pulse	1	t		81.0	2.5	/experiments/AOT/AOT_stimuli/rescaled_final/1469_rv.mp4	0.0	368.51069593429565	
83	348.48993396759033	fix_post	2		12	81.0	2.5	/experiments/AOT/AOT_stimuli/rescaled_final/1469_rv.mp4	0.0	369.8271839618683	0.09989595413208008
84	348.5898299217224	fix_pre	0		120	82.0	2.5	/experiments/AOT/AOT_stimuli/rescaled_final/0366_fw.mp4	0.0	369.92707991600037	1.0000710487365723
84	348.7733380794525	pulse	0	t		82.0	2.5	/experiments/AOT/AOT_stimuli/rescaled_final/0366_fw.mp4	0.0	370.11058807373047	
84	349.589900970459	movie	1		245	82.0	2.5	/experiments/AOT/AOT_stimuli/rescaled_final/0366_fw.mp4	0.0	370.92715096473694	2.499598979949951
84	350.37333512306213	pulse	1	t		82.0	2.5	/experiments/AOT/AOT_stimuli/rescaled_final/0366_fw.mp4	0.0	371.7105851173401	
84	351.97310400009155	pulse	1	t		82.0	2.5	/experiments/AOT/AOT_stimuli/rescaled_final/0366_fw.mp4	0.0	373.3103539943695	
84	352.08949995040894	fix_post	2		12	82.0	2.5	/experiments/AOT/AOT_stimuli/rescaled_final/0366_fw.mp4	0.0	373.4267499446869	0.10035109519958496
85	352.1898510456085	fix_pre	0		120	83.0	2.5	blank	1.0	373.5271010398865	0.9995908737182617
85	353.1894419193268	movie	1		300	83.0	2.5	blank	1.0	374.52669191360474	2.500427007675171
85	353.57336807250977	pulse	1	t		83.0	2.5	blank	1.0	374.9106180667877	
85	355.1732771396637	pulse	1	t		83.0	2.5	blank	1.0	376.51052713394165	
85	355.68986892700195	fix_post	2		12	83.0	2.5	blank	1.0	377.0271189212799	0.09999299049377441
87	355.7898619174957	stim	0		1716					377.1271119117737	14.299979209899902
87	356.7733371257782	pulse	0	t						378.11058712005615	
87	358.37328910827637	pulse	0	t						379.7105391025543	
87	359.97326612472534	pulse	0	t						381.3105161190033	
87	361.57340002059937	pulse	0	t						382.9106500148773	
87	363.17320013046265	pulse	0	t						384.5104501247406	
87	364.7733359336853	pulse	0	t						386.11058592796326	
87	366.37335109710693	pulse	0	t						387.7106010913849	
87	367.97321701049805	pulse	0	t						389.310467004776	
87	369.57321405410767	pulse	0	t						390.9104640483856	
