trial_nr	onset	event_type	phase	response	nr_frames	movie_index	movie_duration	movie_file	blank	onset_abs	duration
0	0.18321609497070312	stim	0		12					12.603111982345581	0.09995698928833008
0	0.2679879665374756	response	0	space						12.687883853912354	
1	0.2831730842590332	stim	0		4699					12.703068971633911	39.17330503463745
1	39.44647717475891	pulse	0	t						51.86637306213379	
1	39.456478118896484	stim	1		1716					51.87637400627136	14.301374912261963
1	41.03939604759216	pulse	1	t						53.45929193496704	
1	42.63971710205078	pulse	1	t						55.05961298942566	
1	44.239896059036255	pulse	1	t						56.65979194641113	
1	45.84022116661072	pulse	1	t						58.260117053985596	
1	47.440489053726196	pulse	1	t						59.860384941101074	
1	49.040738105773926	pulse	1	t						61.460633993148804	
1	50.64083814620972	pulse	1	t						63.060734033584595	
1	52.24102306365967	pulse	1	t						64.66091895103455	
2	53.75785303115845	fix_pre	0		11	0.0	2.5	/experiments/knapen_AOT/AOT_stimuli/rescaled_final/0714_rv.mp4	0.0	66.17774891853333	0.17507004737854004
2	53.84141397476196	pulse	0	t		0.0	2.5	/experiments/knapen_AOT/AOT_stimuli/rescaled_final/0714_rv.mp4	0.0	66.26130986213684	
2	53.93292307853699	movie	1		218	0.0	2.5	/experiments/knapen_AOT/AOT_stimuli/rescaled_final/0714_rv.mp4	0.0	66.35281896591187	2.4252920150756836
2	55.440301179885864	pulse	1	t		0.0	2.5	/experiments/knapen_AOT/AOT_stimuli/rescaled_final/0714_rv.mp4	0.0	67.86019706726074	
2	56.35821509361267	fix_post	2		12	0.0	2.5	/experiments/knapen_AOT/AOT_stimuli/rescaled_final/0714_rv.mp4	0.0	68.77811098098755	0.10003900527954102
3	56.45825409889221	fix_pre	0		120	1.0	2.5	/experiments/knapen_AOT/AOT_stimuli/rescaled_final/0943_rv.mp4	0.0	68.87814998626709	1.0669770240783691
3	57.04180717468262	pulse	0	t		1.0	2.5	/experiments/knapen_AOT/AOT_stimuli/rescaled_final/0943_rv.mp4	0.0	69.4617030620575	
3	57.52523112297058	movie	1		226	1.0	2.5	/experiments/knapen_AOT/AOT_stimuli/rescaled_final/0943_rv.mp4	0.0	69.94512701034546	2.4335179328918457
3	58.641945123672485	pulse	1	t		1.0	2.5	/experiments/knapen_AOT/AOT_stimuli/rescaled_final/0943_rv.mp4	0.0	71.06184101104736	
3	59.95874905586243	fix_post	2		12	1.0	2.5	/experiments/knapen_AOT/AOT_stimuli/rescaled_final/0943_rv.mp4	0.0	72.3786449432373	0.10004210472106934
4	60.058791160583496	fix_pre	0		120	2.0	2.5	/experiments/knapen_AOT/AOT_stimuli/rescaled_final/0548_fw.mp4	0.0	72.47868704795837	1.0586109161376953
4	60.24239206314087	pulse	0	t		2.0	2.5	/experiments/knapen_AOT/AOT_stimuli/rescaled_final/0548_fw.mp4	0.0	72.66228795051575	
4	61.11740207672119	movie	1		228	2.0	2.5	/experiments/knapen_AOT/AOT_stimuli/rescaled_final/0548_fw.mp4	0.0	73.53729796409607	2.4418599605560303
4	61.841124057769775	pulse	1	t		2.0	2.5	/experiments/knapen_AOT/AOT_stimuli/rescaled_final/0548_fw.mp4	0.0	74.26101994514465	
4	63.442440032958984	pulse	1	t		2.0	2.5	/experiments/knapen_AOT/AOT_stimuli/rescaled_final/0548_fw.mp4	0.0	75.86233592033386	
4	63.55926203727722	fix_post	2		12	2.0	2.5	/experiments/knapen_AOT/AOT_stimuli/rescaled_final/0548_fw.mp4	0.0	75.9791579246521	0.10004806518554688
5	63.65931010246277	fix_pre	0		120	3.0	2.5	/experiments/knapen_AOT/AOT_stimuli/rescaled_final/0060_fw.mp4	0.0	76.07920598983765	1.09185791015625
5	64.75116801261902	movie	1		222	3.0	2.5	/experiments/knapen_AOT/AOT_stimuli/rescaled_final/0060_fw.mp4	0.0	77.1710638999939	2.4003570079803467
5	65.03888607025146	pulse	1	t		3.0	2.5	/experiments/knapen_AOT/AOT_stimuli/rescaled_final/0060_fw.mp4	0.0	77.45878195762634	
5	66.64164805412292	pulse	1	t		3.0	2.5	/experiments/knapen_AOT/AOT_stimuli/rescaled_final/0060_fw.mp4	0.0	79.0615439414978	
5	67.15152502059937	fix_post	2		12	3.0	2.5	/experiments/knapen_AOT/AOT_stimuli/rescaled_final/0060_fw.mp4	0.0	79.57142090797424	0.09999394416809082
6	67.25151896476746	fix_pre	0		120	4.0	2.5	/experiments/knapen_AOT/AOT_stimuli/rescaled_final/0285_fw.mp4	0.0	79.67141485214233	1.08384108543396
6	68.23620796203613	pulse	0	t		4.0	2.5	/experiments/knapen_AOT/AOT_stimuli/rescaled_final/0285_fw.mp4	0.0	80.65610384941101	
6	68.33536005020142	movie	1		222	4.0	2.5	/experiments/knapen_AOT/AOT_stimuli/rescaled_final/0285_fw.mp4	0.0	80.7552559375763	2.433340072631836
6	69.84381914138794	pulse	1	t		4.0	2.5	/experiments/knapen_AOT/AOT_stimuli/rescaled_final/0285_fw.mp4	0.0	82.26371502876282	
6	70.76870012283325	fix_post	2		11	4.0	2.5	/experiments/knapen_AOT/AOT_stimuli/rescaled_final/0285_fw.mp4	0.0	83.18859601020813	0.09170889854431152
7	70.86040902137756	fix_pre	0		120	5.0	2.5	/experiments/knapen_AOT/AOT_stimuli/rescaled_final/0943_rv.mp4	0.0	83.28030490875244	1.0668330192565918
7	71.43569898605347	pulse	0	t		5.0	2.5	/experiments/knapen_AOT/AOT_stimuli/rescaled_final/0943_rv.mp4	0.0	83.85559487342834	
7	71.92724204063416	movie	1		223	5.0	2.5	/experiments/knapen_AOT/AOT_stimuli/rescaled_final/0943_rv.mp4	0.0	84.34713792800903	2.4336769580841064
7	73.03581809997559	pulse	1	t		5.0	2.5	/experiments/knapen_AOT/AOT_stimuli/rescaled_final/0943_rv.mp4	0.0	85.45571398735046	
7	74.36091899871826	fix_post	2		12	5.0	2.5	/experiments/knapen_AOT/AOT_stimuli/rescaled_final/0943_rv.mp4	0.0	86.78081488609314	0.09999513626098633
8	74.46091413497925	fix_pre	0		120	6.0	2.5	blank	1.0	86.88081002235413	1.0001769065856934
8	74.63620114326477	pulse	0	t		6.0	2.5	blank	1.0	87.05609703063965	
8	75.46109104156494	movie	1		300	6.0	2.5	blank	1.0	87.88098692893982	2.500432014465332
8	76.23641300201416	pulse	1	t		6.0	2.5	blank	1.0	88.65630888938904	
8	77.8365831375122	pulse	1	t		6.0	2.5	blank	1.0	90.25647902488708	
8	77.96152305603027	fix_post	2		12	6.0	2.5	blank	1.0	90.38141894340515	0.09991908073425293
9	78.06144213676453	fix_pre	0		119	7.0	2.5	/experiments/knapen_AOT/AOT_stimuli/rescaled_final/1977_fw.mp4	0.0	90.4813380241394	1.0585620403289795
9	79.1200041770935	movie	1		250	7.0	2.5	/experiments/knapen_AOT/AOT_stimuli/rescaled_final/1977_fw.mp4	0.0	91.53990006446838	2.433637857437134
9	79.43567609786987	pulse	1	t		7.0	2.5	/experiments/knapen_AOT/AOT_stimuli/rescaled_final/1977_fw.mp4	0.0	91.85557198524475	
9	81.03628897666931	pulse	1	t		7.0	2.5	/experiments/knapen_AOT/AOT_stimuli/rescaled_final/1977_fw.mp4	0.0	93.45618486404419	
9	81.55364203453064	fix_post	2		10	7.0	2.5	/experiments/knapen_AOT/AOT_stimuli/rescaled_final/1977_fw.mp4	0.0	93.97353792190552	0.10000991821289062
10	81.65365195274353	fix_pre	0		119	8.0	2.5	/experiments/knapen_AOT/AOT_stimuli/rescaled_final/1343_rv.mp4	0.0	94.07354784011841	1.0669000148773193
10	82.63735604286194	pulse	0	t		8.0	2.5	/experiments/knapen_AOT/AOT_stimuli/rescaled_final/1343_rv.mp4	0.0	95.05725193023682	
10	82.72055196762085	movie	1		251	8.0	2.5	/experiments/knapen_AOT/AOT_stimuli/rescaled_final/1343_rv.mp4	0.0	95.14044785499573	2.4336249828338623
10	84.23765015602112	pulse	1	t		8.0	2.5	/experiments/knapen_AOT/AOT_stimuli/rescaled_final/1343_rv.mp4	0.0	96.657546043396	
10	85.15417695045471	fix_post	2		12	8.0	2.5	/experiments/knapen_AOT/AOT_stimuli/rescaled_final/1343_rv.mp4	0.0	97.57407283782959	0.10002017021179199
11	85.2541971206665	fix_pre	0		120	9.0	2.5	/experiments/knapen_AOT/AOT_stimuli/rescaled_final/1403_fw.mp4	0.0	97.67409300804138	1.083500862121582
11	85.83794903755188	pulse	0	t		9.0	2.5	/experiments/knapen_AOT/AOT_stimuli/rescaled_final/1403_fw.mp4	0.0	98.25784492492676	
11	86.33769798278809	movie	1		231	9.0	2.5	/experiments/knapen_AOT/AOT_stimuli/rescaled_final/1403_fw.mp4	0.0	98.75759387016296	2.4170331954956055
11	87.43664503097534	pulse	1	t		9.0	2.5	/experiments/knapen_AOT/AOT_stimuli/rescaled_final/1403_fw.mp4	0.0	99.85654091835022	
11	88.75473117828369	fix_post	2		12	9.0	2.5	/experiments/knapen_AOT/AOT_stimuli/rescaled_final/1403_fw.mp4	0.0	101.17462706565857	0.09999489784240723
12	88.8547260761261	fix_pre	0		120	10.0	2.5	/experiments/knapen_AOT/AOT_stimuli/rescaled_final/1398_rv.mp4	0.0	101.27462196350098	1.0752849578857422
12	89.03827714920044	pulse	0	t		10.0	2.5	/experiments/knapen_AOT/AOT_stimuli/rescaled_final/1398_rv.mp4	0.0	101.45817303657532	
12	89.93001103401184	movie	1		233	10.0	2.5	/experiments/knapen_AOT/AOT_stimuli/rescaled_final/1398_rv.mp4	0.0	102.34990692138672	2.425265073776245
12	90.63826894760132	pulse	1	t		10.0	2.5	/experiments/knapen_AOT/AOT_stimuli/rescaled_final/1398_rv.mp4	0.0	103.0581648349762	
12	92.23723196983337	pulse	1	t		10.0	2.5	/experiments/knapen_AOT/AOT_stimuli/rescaled_final/1398_rv.mp4	0.0	104.65712785720825	
12	92.35527610778809	fix_post	2		12	10.0	2.5	/experiments/knapen_AOT/AOT_stimuli/rescaled_final/1398_rv.mp4	0.0	104.77517199516296	0.10001802444458008
13	92.45529413223267	fix_pre	0		120	11.0	2.5	/experiments/knapen_AOT/AOT_stimuli/rescaled_final/1228_fw.mp4	0.0	104.87519001960754	1.075265884399414
13	93.53056001663208	movie	1		233	11.0	2.5	/experiments/knapen_AOT/AOT_stimuli/rescaled_final/1228_fw.mp4	0.0	105.95045590400696	2.416903018951416
13	93.83750700950623	pulse	1	t		11.0	2.5	/experiments/knapen_AOT/AOT_stimuli/rescaled_final/1228_fw.mp4	0.0	106.2574028968811	
13	95.43892502784729	pulse	1	t		11.0	2.5	/experiments/knapen_AOT/AOT_stimuli/rescaled_final/1228_fw.mp4	0.0	107.85882091522217	
13	95.9474630355835	fix_post	2		12	11.0	2.5	/experiments/knapen_AOT/AOT_stimuli/rescaled_final/1228_fw.mp4	0.0	108.36735892295837	0.10001397132873535
14	96.04747700691223	fix_pre	0		120	12.0	2.5	/experiments/knapen_AOT/AOT_stimuli/rescaled_final/0463_fw.mp4	0.0	108.46737289428711	1.083616018295288
14	97.03961515426636	pulse	0	t		12.0	2.5	/experiments/knapen_AOT/AOT_stimuli/rescaled_final/0463_fw.mp4	0.0	109.45951104164124	
14	97.13109302520752	movie	1		238	12.0	2.5	/experiments/knapen_AOT/AOT_stimuli/rescaled_final/0463_fw.mp4	0.0	109.5509889125824	2.425246000289917
14	98.63979315757751	pulse	1	t		12.0	2.5	/experiments/knapen_AOT/AOT_stimuli/rescaled_final/0463_fw.mp4	0.0	111.05968904495239	
14	99.55633902549744	fix_post	2		12	12.0	2.5	/experiments/knapen_AOT/AOT_stimuli/rescaled_final/0463_fw.mp4	0.0	111.97623491287231	0.10000801086425781
15	99.6563470363617	fix_pre	0		120	13.0	2.5	/experiments/knapen_AOT/AOT_stimuli/rescaled_final/0190_fw.mp4	0.0	112.07624292373657	1.0502381324768066
15	100.23994708061218	pulse	0	t		13.0	2.5	/experiments/knapen_AOT/AOT_stimuli/rescaled_final/0190_fw.mp4	0.0	112.65984296798706	
15	100.7065851688385	movie	1		238	13.0	2.5	/experiments/knapen_AOT/AOT_stimuli/rescaled_final/0190_fw.mp4	0.0	113.12648105621338	2.4503629207611084
15	101.83947110176086	pulse	1	t		13.0	2.5	/experiments/knapen_AOT/AOT_stimuli/rescaled_final/0190_fw.mp4	0.0	114.25936698913574	
15	103.15694808959961	fix_post	2		12	13.0	2.5	/experiments/knapen_AOT/AOT_stimuli/rescaled_final/0190_fw.mp4	0.0	115.57684397697449	0.09991693496704102
16	103.25686502456665	fix_pre	0		120	14.0	2.5	blank	1.0	115.67676091194153	1.0001859664916992
16	103.44057297706604	pulse	0	t		14.0	2.5	blank	1.0	115.86046886444092	
16	104.25705099105835	movie	1		300	14.0	2.5	blank	1.0	116.67694687843323	2.500370979309082
16	105.04061102867126	pulse	1	t		14.0	2.5	blank	1.0	117.46050691604614	
16	106.64084601402283	pulse	1	t		14.0	2.5	blank	1.0	119.0607419013977	
16	106.75742197036743	fix_post	2		12	14.0	2.5	blank	1.0	119.17731785774231	0.10000419616699219
17	106.85742616653442	fix_pre	0		120	15.0	2.5	/experiments/knapen_AOT/AOT_stimuli/rescaled_final/0989_rv.mp4	0.0	119.2773220539093	1.0751688480377197
17	107.93259501457214	movie	1		238	15.0	2.5	/experiments/knapen_AOT/AOT_stimuli/rescaled_final/0989_rv.mp4	0.0	120.35249090194702	2.417020082473755
17	108.23974013328552	pulse	1	t		15.0	2.5	/experiments/knapen_AOT/AOT_stimuli/rescaled_final/0989_rv.mp4	0.0	120.6596360206604	
17	109.840096950531	pulse	1	t		15.0	2.5	/experiments/knapen_AOT/AOT_stimuli/rescaled_final/0989_rv.mp4	0.0	122.25999283790588	
17	110.3496150970459	fix_post	2		12	15.0	2.5	/experiments/knapen_AOT/AOT_stimuli/rescaled_final/0989_rv.mp4	0.0	122.76951098442078	0.10001707077026367
18	110.44963216781616	fix_pre	0		120	16.0	2.5	/experiments/knapen_AOT/AOT_stimuli/rescaled_final/0177_rv.mp4	0.0	122.86952805519104	1.0836799144744873
18	111.44173002243042	pulse	0	t		16.0	2.5	/experiments/knapen_AOT/AOT_stimuli/rescaled_final/0177_rv.mp4	0.0	123.8616259098053	
18	111.53331208229065	movie	1		242	16.0	2.5	/experiments/knapen_AOT/AOT_stimuli/rescaled_final/0177_rv.mp4	0.0	123.95320796966553	2.425163984298706
18	113.04032516479492	pulse	1	t		16.0	2.5	/experiments/knapen_AOT/AOT_stimuli/rescaled_final/0177_rv.mp4	0.0	125.4602210521698	
18	113.95847606658936	fix_post	2		12	16.0	2.5	/experiments/knapen_AOT/AOT_stimuli/rescaled_final/0177_rv.mp4	0.0	126.37837195396423	0.10004806518554688
19	114.0585241317749	fix_pre	0		120	17.0	2.5	/experiments/knapen_AOT/AOT_stimuli/rescaled_final/0264_rv.mp4	0.0	126.47842001914978	1.066925048828125
19	114.6421229839325	pulse	0	t		17.0	2.5	/experiments/knapen_AOT/AOT_stimuli/rescaled_final/0264_rv.mp4	0.0	127.06201887130737	
19	115.12544918060303	movie	1		255	17.0	2.5	/experiments/knapen_AOT/AOT_stimuli/rescaled_final/0264_rv.mp4	0.0	127.5453450679779	2.433560848236084
19	116.24191904067993	pulse	1	t		17.0	2.5	/experiments/knapen_AOT/AOT_stimuli/rescaled_final/0264_rv.mp4	0.0	128.6618149280548	
19	117.55901002883911	fix_post	2		12	17.0	2.5	/experiments/knapen_AOT/AOT_stimuli/rescaled_final/0264_rv.mp4	0.0	129.978905916214	0.10001993179321289
20	117.65902996063232	fix_pre	0		120	18.0	2.5	/experiments/knapen_AOT/AOT_stimuli/rescaled_final/0227_fw.mp4	0.0	130.0789258480072	1.0501651763916016
20	117.84274816513062	pulse	0	t		18.0	2.5	/experiments/knapen_AOT/AOT_stimuli/rescaled_final/0227_fw.mp4	0.0	130.2626440525055	
20	118.70919513702393	movie	1		231	18.0	2.5	/experiments/knapen_AOT/AOT_stimuli/rescaled_final/0227_fw.mp4	0.0	131.1290910243988	2.4503748416900635
20	119.44111609458923	pulse	1	t		18.0	2.5	/experiments/knapen_AOT/AOT_stimuli/rescaled_final/0227_fw.mp4	0.0	131.8610119819641	
20	121.0426139831543	pulse	1	t		18.0	2.5	/experiments/knapen_AOT/AOT_stimuli/rescaled_final/0227_fw.mp4	0.0	133.46250987052917	
20	121.15956997871399	fix_post	2		12	18.0	2.5	/experiments/knapen_AOT/AOT_stimuli/rescaled_final/0227_fw.mp4	0.0	133.57946586608887	0.1000070571899414
21	121.25957703590393	fix_pre	0		120	19.0	2.5	/experiments/knapen_AOT/AOT_stimuli/rescaled_final/1628_rv.mp4	0.0	133.6794729232788	1.0919361114501953
21	122.35151314735413	movie	1		221	19.0	2.5	/experiments/knapen_AOT/AOT_stimuli/rescaled_final/1628_rv.mp4	0.0	134.771409034729	2.400230884552002
21	122.64343094825745	pulse	1	t		19.0	2.5	/experiments/knapen_AOT/AOT_stimuli/rescaled_final/1628_rv.mp4	0.0	135.06332683563232	
21	124.24203300476074	pulse	1	t		19.0	2.5	/experiments/knapen_AOT/AOT_stimuli/rescaled_final/1628_rv.mp4	0.0	136.66192889213562	
21	124.75174403190613	fix_post	2		12	19.0	2.5	/experiments/knapen_AOT/AOT_stimuli/rescaled_final/1628_rv.mp4	0.0	137.171639919281	0.10003399848937988
22	124.85177803039551	fix_pre	0		120	20.0	2.5	blank	1.0	137.27167391777039	1.0001559257507324
22	125.83616900444031	pulse	0	t		20.0	2.5	blank	1.0	138.25606489181519	
22	125.85193395614624	movie	1		301	20.0	2.5	blank	1.0	138.27182984352112	2.508702039718628
22	127.4366021156311	pulse	1	t		20.0	2.5	blank	1.0	139.85649800300598	
22	128.36063599586487	fix_post	2		12	20.0	2.5	blank	1.0	140.78053188323975	0.10000205039978027
23	128.46063804626465	fix_pre	0		120	21.0	2.5	/experiments/knapen_AOT/AOT_stimuli/rescaled_final/0117_rv.mp4	0.0	140.88053393363953	1.0751841068267822
23	129.03679513931274	pulse	0	t		21.0	2.5	/experiments/knapen_AOT/AOT_stimuli/rescaled_final/0117_rv.mp4	0.0	141.45669102668762	
23	129.53582215309143	movie	1		238	21.0	2.5	/experiments/knapen_AOT/AOT_stimuli/rescaled_final/0117_rv.mp4	0.0	141.9557180404663	2.4253528118133545
23	130.64271998405457	pulse	1	t		21.0	2.5	/experiments/knapen_AOT/AOT_stimuli/rescaled_final/0117_rv.mp4	0.0	143.06261587142944	
23	131.96117496490479	fix_post	2		12	21.0	2.5	/experiments/knapen_AOT/AOT_stimuli/rescaled_final/0117_rv.mp4	0.0	144.38107085227966	0.10001707077026367
24	132.06119203567505	fix_pre	0		120	22.0	2.5	/experiments/knapen_AOT/AOT_stimuli/rescaled_final/0259_rv.mp4	0.0	144.48108792304993	1.0669090747833252
24	132.23641109466553	pulse	0	t		22.0	2.5	/experiments/knapen_AOT/AOT_stimuli/rescaled_final/0259_rv.mp4	0.0	144.6563069820404	
24	133.12810111045837	movie	1		224	22.0	2.5	/experiments/knapen_AOT/AOT_stimuli/rescaled_final/0259_rv.mp4	0.0	145.54799699783325	2.433603048324585
24	133.8366620540619	pulse	1	t		22.0	2.5	/experiments/knapen_AOT/AOT_stimuli/rescaled_final/0259_rv.mp4	0.0	146.25655794143677	
24	135.4367959499359	pulse	1	t		22.0	2.5	/experiments/knapen_AOT/AOT_stimuli/rescaled_final/0259_rv.mp4	0.0	147.8566918373108	
24	135.56170415878296	fix_post	2		12	22.0	2.5	/experiments/knapen_AOT/AOT_stimuli/rescaled_final/0259_rv.mp4	0.0	147.98160004615784	0.09999799728393555
25	135.6617021560669	fix_pre	0		119	23.0	2.5	/experiments/knapen_AOT/AOT_stimuli/rescaled_final/1007_fw.mp4	0.0	148.08159804344177	1.0585949420928955
25	136.7202970981598	movie	1		223	23.0	2.5	/experiments/knapen_AOT/AOT_stimuli/rescaled_final/1007_fw.mp4	0.0	149.14019298553467	2.4335968494415283
25	137.03713703155518	pulse	1	t		23.0	2.5	/experiments/knapen_AOT/AOT_stimuli/rescaled_final/1007_fw.mp4	0.0	149.45703291893005	
25	138.63635110855103	pulse	1	t		23.0	2.5	/experiments/knapen_AOT/AOT_stimuli/rescaled_final/1007_fw.mp4	0.0	151.0562469959259	
25	139.15389394760132	fix_post	2		12	23.0	2.5	/experiments/knapen_AOT/AOT_stimuli/rescaled_final/1007_fw.mp4	0.0	151.5737898349762	0.10001921653747559
26	139.2539131641388	fix_pre	0		119	24.0	2.5	/experiments/knapen_AOT/AOT_stimuli/rescaled_final/1304_rv.mp4	0.0	151.67380905151367	1.0585439205169678
26	140.2376799583435	pulse	0	t		24.0	2.5	/experiments/knapen_AOT/AOT_stimuli/rescaled_final/1304_rv.mp4	0.0	152.65757584571838	
26	140.31245708465576	movie	1		219	24.0	2.5	/experiments/knapen_AOT/AOT_stimuli/rescaled_final/1304_rv.mp4	0.0	152.73235297203064	2.4419450759887695
26	141.8363320827484	pulse	1	t		24.0	2.5	/experiments/knapen_AOT/AOT_stimuli/rescaled_final/1304_rv.mp4	0.0	154.2562279701233	
26	142.75440216064453	fix_post	2		12	24.0	2.5	/experiments/knapen_AOT/AOT_stimuli/rescaled_final/1304_rv.mp4	0.0	155.1742980480194	0.1000678539276123
27	142.85447001457214	fix_pre	0		120	25.0	2.5	/experiments/knapen_AOT/AOT_stimuli/rescaled_final/1207_rv.mp4	0.0	155.27436590194702	1.0919530391693115
27	143.43799710273743	pulse	0	t		25.0	2.5	/experiments/knapen_AOT/AOT_stimuli/rescaled_final/1207_rv.mp4	0.0	155.8578929901123	
27	143.94642305374146	movie	1		230	25.0	2.5	/experiments/knapen_AOT/AOT_stimuli/rescaled_final/1207_rv.mp4	0.0	156.36631894111633	2.4085779190063477
27	145.03715705871582	pulse	1	t		25.0	2.5	/experiments/knapen_AOT/AOT_stimuli/rescaled_final/1207_rv.mp4	0.0	157.4570529460907	
27	146.3550009727478	fix_post	2		12	25.0	2.5	/experiments/knapen_AOT/AOT_stimuli/rescaled_final/1207_rv.mp4	0.0	158.77489686012268	0.09993720054626465
28	146.45493817329407	fix_pre	0		120	26.0	2.5	blank	1.0	158.87483406066895	1.0002338886260986
28	146.63866305351257	pulse	0	t		26.0	2.5	blank	1.0	159.05855894088745	
28	147.45517206192017	movie	1		300	26.0	2.5	blank	1.0	159.87506794929504	2.5003769397735596
28	148.2387411594391	pulse	1	t		26.0	2.5	blank	1.0	160.65863704681396	
28	149.83899116516113	pulse	1	t		26.0	2.5	blank	1.0	162.258887052536	
28	149.95554900169373	fix_post	2		12	26.0	2.5	blank	1.0	162.3754448890686	0.09998703002929688
29	150.05553603172302	fix_pre	0		120	27.0	2.5	/experiments/knapen_AOT/AOT_stimuli/rescaled_final/1959_rv.mp4	0.0	162.4754319190979	1.0752220153808594
29	151.13075804710388	movie	1		224	27.0	2.5	/experiments/knapen_AOT/AOT_stimuli/rescaled_final/1959_rv.mp4	0.0	163.55065393447876	2.41694712638855
29	151.43787217140198	pulse	1	t		27.0	2.5	/experiments/knapen_AOT/AOT_stimuli/rescaled_final/1959_rv.mp4	0.0	163.85776805877686	
29	153.03923797607422	pulse	1	t		27.0	2.5	/experiments/knapen_AOT/AOT_stimuli/rescaled_final/1959_rv.mp4	0.0	165.4591338634491	
29	153.54770517349243	fix_post	2		12	27.0	2.5	/experiments/knapen_AOT/AOT_stimuli/rescaled_final/1959_rv.mp4	0.0	165.9676010608673	0.10001683235168457
30	153.64772200584412	fix_pre	0		120	28.0	2.5	/experiments/knapen_AOT/AOT_stimuli/rescaled_final/0246_fw.mp4	0.0	166.067617893219	1.0669050216674805
30	154.63975596427917	pulse	0	t		28.0	2.5	/experiments/knapen_AOT/AOT_stimuli/rescaled_final/0246_fw.mp4	0.0	167.05965185165405	
30	154.7146270275116	movie	1		231	28.0	2.5	/experiments/knapen_AOT/AOT_stimuli/rescaled_final/0246_fw.mp4	0.0	167.13452291488647	2.4419569969177246
30	156.2386450767517	pulse	1	t		28.0	2.5	/experiments/knapen_AOT/AOT_stimuli/rescaled_final/0246_fw.mp4	0.0	168.6585409641266	
30	157.15658402442932	fix_post	2		12	28.0	2.5	/experiments/knapen_AOT/AOT_stimuli/rescaled_final/0246_fw.mp4	0.0	169.5764799118042	0.10002899169921875
31	157.25661301612854	fix_pre	0		120	29.0	2.5	/experiments/knapen_AOT/AOT_stimuli/rescaled_final/1363_fw.mp4	0.0	169.67650890350342	1.0501811504364014
31	157.84020900726318	pulse	0	t		29.0	2.5	/experiments/knapen_AOT/AOT_stimuli/rescaled_final/1363_fw.mp4	0.0	170.26010489463806	
31	158.30679416656494	movie	1		228	29.0	2.5	/experiments/knapen_AOT/AOT_stimuli/rescaled_final/1363_fw.mp4	0.0	170.72669005393982	2.450361967086792
31	159.44048404693604	pulse	1	t		29.0	2.5	/experiments/knapen_AOT/AOT_stimuli/rescaled_final/1363_fw.mp4	0.0	171.8603799343109	
31	160.75715613365173	fix_post	2		8	29.0	2.5	/experiments/knapen_AOT/AOT_stimuli/rescaled_final/1363_fw.mp4	0.0	173.1770520210266	0.0999748706817627
32	160.8571310043335	fix_pre	0		120	30.0	2.5	/experiments/knapen_AOT/AOT_stimuli/rescaled_final/0721_fw.mp4	0.0	173.27702689170837	1.091933012008667
32	161.04072904586792	pulse	0	t		30.0	2.5	/experiments/knapen_AOT/AOT_stimuli/rescaled_final/0721_fw.mp4	0.0	173.4606249332428	
32	161.94906401634216	movie	1		227	30.0	2.5	/experiments/knapen_AOT/AOT_stimuli/rescaled_final/0721_fw.mp4	0.0	174.36895990371704	2.408601999282837
32	162.6401650905609	pulse	1	t		30.0	2.5	/experiments/knapen_AOT/AOT_stimuli/rescaled_final/0721_fw.mp4	0.0	175.0600609779358	
32	164.24136900901794	pulse	1	t		30.0	2.5	/experiments/knapen_AOT/AOT_stimuli/rescaled_final/0721_fw.mp4	0.0	176.66126489639282	
32	164.357666015625	fix_post	2		12	30.0	2.5	/experiments/knapen_AOT/AOT_stimuli/rescaled_final/0721_fw.mp4	0.0	176.77756190299988	0.0999751091003418
33	164.45764112472534	fix_pre	0		120	31.0	2.5	/experiments/knapen_AOT/AOT_stimuli/rescaled_final/0637_fw.mp4	0.0	176.87753701210022	1.0752270221710205
33	165.53286814689636	movie	1		234	31.0	2.5	/experiments/knapen_AOT/AOT_stimuli/rescaled_final/0637_fw.mp4	0.0	177.95276403427124	2.4169960021972656
33	165.83997797966003	pulse	1	t		31.0	2.5	/experiments/knapen_AOT/AOT_stimuli/rescaled_final/0637_fw.mp4	0.0	178.2598738670349	
33	167.44046115875244	pulse	1	t		31.0	2.5	/experiments/knapen_AOT/AOT_stimuli/rescaled_final/0637_fw.mp4	0.0	179.86035704612732	
33	167.94986414909363	fix_post	2		12	31.0	2.5	/experiments/knapen_AOT/AOT_stimuli/rescaled_final/0637_fw.mp4	0.0	180.3697600364685	0.10003781318664551
34	168.04990196228027	fix_pre	0		120	32.0	2.5	/experiments/knapen_AOT/AOT_stimuli/rescaled_final/1958_fw.mp4	0.0	180.46979784965515	1.075200080871582
34	169.0418791770935	pulse	0	t		32.0	2.5	/experiments/knapen_AOT/AOT_stimuli/rescaled_final/1958_fw.mp4	0.0	181.46177506446838	
34	169.12510204315186	movie	1		234	32.0	2.5	/experiments/knapen_AOT/AOT_stimuli/rescaled_final/1958_fw.mp4	0.0	181.54499793052673	2.4336321353912354
34	170.64079594612122	pulse	1	t		32.0	2.5	/experiments/knapen_AOT/AOT_stimuli/rescaled_final/1958_fw.mp4	0.0	183.0606918334961	
34	171.5587341785431	fix_post	2		12	32.0	2.5	/experiments/knapen_AOT/AOT_stimuli/rescaled_final/1958_fw.mp4	0.0	183.97863006591797	0.10001897811889648
35	171.658753156662	fix_pre	0		120	33.0	2.5	/experiments/knapen_AOT/AOT_stimuli/rescaled_final/0264_fw.mp4	0.0	184.07864904403687	1.0668718814849854
35	172.24242496490479	pulse	0	t		33.0	2.5	/experiments/knapen_AOT/AOT_stimuli/rescaled_final/0264_fw.mp4	0.0	184.66232085227966	
35	172.72562503814697	movie	1		243	33.0	2.5	/experiments/knapen_AOT/AOT_stimuli/rescaled_final/0264_fw.mp4	0.0	185.14552092552185	2.4336609840393066
35	173.84208798408508	pulse	1	t		33.0	2.5	/experiments/knapen_AOT/AOT_stimuli/rescaled_final/0264_fw.mp4	0.0	186.26198387145996	
35	175.15928602218628	fix_post	2		12	33.0	2.5	/experiments/knapen_AOT/AOT_stimuli/rescaled_final/0264_fw.mp4	0.0	187.57918190956116	0.100006103515625
36	175.2592921257019	fix_pre	0		120	34.0	2.5	blank	1.0	187.67918801307678	1.0000958442687988
36	175.44293212890625	pulse	0	t		34.0	2.5	blank	1.0	187.86282801628113	
36	176.2593879699707	movie	1		300	34.0	2.5	blank	1.0	188.67928385734558	2.500458002090454
36	177.04316806793213	pulse	1	t		34.0	2.5	blank	1.0	189.463063955307	
36	178.63590097427368	pulse	1	t		34.0	2.5	blank	1.0	191.05579686164856	
36	178.75984597206116	fix_post	2		12	34.0	2.5	blank	1.0	191.17974185943604	0.09999799728393555
37	178.8598439693451	fix_pre	0		119	35.0	2.5	/experiments/knapen_AOT/AOT_stimuli/rescaled_final/0463_rv.mp4	0.0	191.27973985671997	1.0422420501708984
37	179.902086019516	movie	1		231	35.0	2.5	/experiments/knapen_AOT/AOT_stimuli/rescaled_final/0463_rv.mp4	0.0	192.32198190689087	2.4499499797821045
37	180.24357914924622	pulse	1	t		35.0	2.5	/experiments/knapen_AOT/AOT_stimuli/rescaled_final/0463_rv.mp4	0.0	192.6634750366211	
37	181.84227395057678	pulse	1	t		35.0	2.5	/experiments/knapen_AOT/AOT_stimuli/rescaled_final/0463_rv.mp4	0.0	194.26216983795166	
37	182.3520359992981	fix_post	2		12	35.0	2.5	/experiments/knapen_AOT/AOT_stimuli/rescaled_final/0463_rv.mp4	0.0	194.77193188667297	0.10001301765441895
38	182.45204901695251	fix_pre	0		120	36.0	2.5	/experiments/knapen_AOT/AOT_stimuli/rescaled_final/0109_rv.mp4	0.0	194.8719449043274	1.0835199356079102
38	183.43642616271973	pulse	0	t		36.0	2.5	/experiments/knapen_AOT/AOT_stimuli/rescaled_final/0109_rv.mp4	0.0	195.8563220500946	
38	183.53556895256042	movie	1		232	36.0	2.5	/experiments/knapen_AOT/AOT_stimuli/rescaled_final/0109_rv.mp4	0.0	195.9554648399353	2.4337100982666016
38	185.04440212249756	pulse	1	t		36.0	2.5	/experiments/knapen_AOT/AOT_stimuli/rescaled_final/0109_rv.mp4	0.0	197.46429800987244	
38	185.96927905082703	fix_post	2		11	36.0	2.5	/experiments/knapen_AOT/AOT_stimuli/rescaled_final/0109_rv.mp4	0.0	198.3891749382019	0.09164309501647949
39	186.0609221458435	fix_pre	0		120	37.0	2.5	/experiments/knapen_AOT/AOT_stimuli/rescaled_final/0264_rv.mp4	0.0	198.48081803321838	1.0668158531188965
39	186.63616609573364	pulse	0	t		37.0	2.5	/experiments/knapen_AOT/AOT_stimuli/rescaled_final/0264_rv.mp4	0.0	199.05606198310852	
39	187.1277379989624	movie	1		249	37.0	2.5	/experiments/knapen_AOT/AOT_stimuli/rescaled_final/0264_rv.mp4	0.0	199.54763388633728	2.4336600303649902
39	188.23635005950928	pulse	1	t		37.0	2.5	/experiments/knapen_AOT/AOT_stimuli/rescaled_final/0264_rv.mp4	0.0	200.65624594688416	
39	189.5613980293274	fix_post	2		12	37.0	2.5	/experiments/knapen_AOT/AOT_stimuli/rescaled_final/0264_rv.mp4	0.0	201.98129391670227	0.1000521183013916
40	189.66145014762878	fix_pre	0		120	38.0	2.5	/experiments/knapen_AOT/AOT_stimuli/rescaled_final/1626_rv.mp4	0.0	202.08134603500366	1.0668649673461914
40	189.83669805526733	pulse	0	t		38.0	2.5	/experiments/knapen_AOT/AOT_stimuli/rescaled_final/1626_rv.mp4	0.0	202.2565939426422	
40	190.72831511497498	movie	1		231	38.0	2.5	/experiments/knapen_AOT/AOT_stimuli/rescaled_final/1626_rv.mp4	0.0	203.14821100234985	2.4336490631103516
40	191.43689608573914	pulse	1	t		38.0	2.5	/experiments/knapen_AOT/AOT_stimuli/rescaled_final/1626_rv.mp4	0.0	203.856791973114	
40	193.03706097602844	pulse	1	t		38.0	2.5	/experiments/knapen_AOT/AOT_stimuli/rescaled_final/1626_rv.mp4	0.0	205.45695686340332	
40	193.16196417808533	fix_post	2		12	38.0	2.5	/experiments/knapen_AOT/AOT_stimuli/rescaled_final/1626_rv.mp4	0.0	205.5818600654602	0.10003399848937988
41	193.2619981765747	fix_pre	0		119	39.0	2.5	/experiments/knapen_AOT/AOT_stimuli/rescaled_final/1353_rv.mp4	0.0	205.68189406394958	1.0585269927978516
41	194.32052516937256	movie	1		233	39.0	2.5	/experiments/knapen_AOT/AOT_stimuli/rescaled_final/1353_rv.mp4	0.0	206.74042105674744	2.433628797531128
41	194.63737297058105	pulse	1	t		39.0	2.5	/experiments/knapen_AOT/AOT_stimuli/rescaled_final/1353_rv.mp4	0.0	207.05726885795593	
41	196.2376720905304	pulse	1	t		39.0	2.5	/experiments/knapen_AOT/AOT_stimuli/rescaled_final/1353_rv.mp4	0.0	208.65756797790527	
41	196.7541539669037	fix_post	2		12	39.0	2.5	/experiments/knapen_AOT/AOT_stimuli/rescaled_final/1353_rv.mp4	0.0	209.17404985427856	0.10001611709594727
42	196.85417008399963	fix_pre	0		119	40.0	2.5	/experiments/knapen_AOT/AOT_stimuli/rescaled_final/1026_fw.mp4	0.0	209.2740659713745	1.058561086654663
42	197.83784198760986	pulse	0	t		40.0	2.5	/experiments/knapen_AOT/AOT_stimuli/rescaled_final/1026_fw.mp4	0.0	210.25773787498474	
42	197.9127311706543	movie	1		233	40.0	2.5	/experiments/knapen_AOT/AOT_stimuli/rescaled_final/1026_fw.mp4	0.0	210.33262705802917	2.441943883895874
42	199.43634796142578	pulse	1	t		40.0	2.5	/experiments/knapen_AOT/AOT_stimuli/rescaled_final/1026_fw.mp4	0.0	211.85624384880066	
42	200.35467505455017	fix_post	2		12	40.0	2.5	/experiments/knapen_AOT/AOT_stimuli/rescaled_final/1026_fw.mp4	0.0	212.77457094192505	0.10002303123474121
43	200.4546980857849	fix_pre	0		120	41.0	2.5	/experiments/knapen_AOT/AOT_stimuli/rescaled_final/1018_rv.mp4	0.0	212.8745939731598	1.09197998046875
43	201.03846096992493	pulse	0	t		41.0	2.5	/experiments/knapen_AOT/AOT_stimuli/rescaled_final/1018_rv.mp4	0.0	213.4583568572998	
43	201.54667806625366	movie	1		236	41.0	2.5	/experiments/knapen_AOT/AOT_stimuli/rescaled_final/1018_rv.mp4	0.0	213.96657395362854	2.40857195854187
43	202.63716411590576	pulse	1	t		41.0	2.5	/experiments/knapen_AOT/AOT_stimuli/rescaled_final/1018_rv.mp4	0.0	215.05706000328064	
43	203.95525002479553	fix_post	2		12	41.0	2.5	/experiments/knapen_AOT/AOT_stimuli/rescaled_final/1018_rv.mp4	0.0	216.3751459121704	0.10001802444458008
44	204.0552680492401	fix_pre	0		120	42.0	2.5	blank	1.0	216.475163936615	1.0001609325408936
44	204.23874807357788	pulse	0	t		42.0	2.5	blank	1.0	216.65864396095276	
44	205.055428981781	movie	1		300	42.0	2.5	blank	1.0	217.47532486915588	2.500354051589966
44	205.83897709846497	pulse	1	t		42.0	2.5	blank	1.0	218.25887298583984	
44	207.4392969608307	pulse	1	t		42.0	2.5	blank	1.0	219.85919284820557	
44	207.55578303337097	fix_post	2		12	42.0	2.5	blank	1.0	219.97567892074585	0.10007905960083008
45	207.6558620929718	fix_pre	0		119	43.0	2.5	/experiments/knapen_AOT/AOT_stimuli/rescaled_final/0849_fw.mp4	0.0	220.07575798034668	1.0753660202026367
45	208.73122811317444	movie	1		234	43.0	2.5	/experiments/knapen_AOT/AOT_stimuli/rescaled_final/0849_fw.mp4	0.0	221.15112400054932	2.4167439937591553
45	209.03778100013733	pulse	1	t		43.0	2.5	/experiments/knapen_AOT/AOT_stimuli/rescaled_final/0849_fw.mp4	0.0	221.4576768875122	
45	210.63937997817993	pulse	1	t		43.0	2.5	/experiments/knapen_AOT/AOT_stimuli/rescaled_final/0849_fw.mp4	0.0	223.0592758655548	
45	211.1479721069336	fix_post	2		12	43.0	2.5	/experiments/knapen_AOT/AOT_stimuli/rescaled_final/0849_fw.mp4	0.0	223.56786799430847	0.10004091262817383
46	211.24801301956177	fix_pre	0		120	44.0	2.5	/experiments/knapen_AOT/AOT_stimuli/rescaled_final/1313_fw.mp4	0.0	223.66790890693665	1.0752129554748535
46	212.23996210098267	pulse	0	t		44.0	2.5	/experiments/knapen_AOT/AOT_stimuli/rescaled_final/1313_fw.mp4	0.0	224.65985798835754	
46	212.32322597503662	movie	1		260	44.0	2.5	/experiments/knapen_AOT/AOT_stimuli/rescaled_final/1313_fw.mp4	0.0	224.7431218624115	2.433619976043701
46	213.8385570049286	pulse	1	t		44.0	2.5	/experiments/knapen_AOT/AOT_stimuli/rescaled_final/1313_fw.mp4	0.0	226.25845289230347	
46	214.75684595108032	fix_post	2		12	44.0	2.5	/experiments/knapen_AOT/AOT_stimuli/rescaled_final/1313_fw.mp4	0.0	227.1767418384552	0.10003113746643066
47	214.85687708854675	fix_pre	0		120	45.0	2.5	/experiments/knapen_AOT/AOT_stimuli/rescaled_final/1215_rv.mp4	0.0	227.27677297592163	1.0501699447631836
47	215.44060015678406	pulse	0	t		45.0	2.5	/experiments/knapen_AOT/AOT_stimuli/rescaled_final/1215_rv.mp4	0.0	227.86049604415894	
47	215.90704703330994	movie	1		237	45.0	2.5	/experiments/knapen_AOT/AOT_stimuli/rescaled_final/1215_rv.mp4	0.0	228.32694292068481	2.4503180980682373
47	217.03981494903564	pulse	1	t		45.0	2.5	/experiments/knapen_AOT/AOT_stimuli/rescaled_final/1215_rv.mp4	0.0	229.45971083641052	
47	218.35736513137817	fix_post	2		12	45.0	2.5	/experiments/knapen_AOT/AOT_stimuli/rescaled_final/1215_rv.mp4	0.0	230.77726101875305	0.10004496574401855
48	218.4574100971222	fix_pre	0		120	46.0	2.5	/experiments/knapen_AOT/AOT_stimuli/rescaled_final/2123_rv.mp4	0.0	230.87730598449707	1.0920400619506836
48	218.64092016220093	pulse	0	t		46.0	2.5	/experiments/knapen_AOT/AOT_stimuli/rescaled_final/2123_rv.mp4	0.0	231.0608160495758	
48	219.54945015907288	movie	1		237	46.0	2.5	/experiments/knapen_AOT/AOT_stimuli/rescaled_final/2123_rv.mp4	0.0	231.96934604644775	2.4084908962249756
48	220.23961305618286	pulse	1	t		46.0	2.5	/experiments/knapen_AOT/AOT_stimuli/rescaled_final/2123_rv.mp4	0.0	232.65950894355774	
48	221.84035205841064	pulse	1	t		46.0	2.5	/experiments/knapen_AOT/AOT_stimuli/rescaled_final/2123_rv.mp4	0.0	234.26024794578552	
48	221.95794105529785	fix_post	2		12	46.0	2.5	/experiments/knapen_AOT/AOT_stimuli/rescaled_final/2123_rv.mp4	0.0	234.37783694267273	0.10004496574401855
49	222.05798602104187	fix_pre	0		115	47.0	2.5	blank	1.0	234.47788190841675	1.0001070499420166
49	223.0580930709839	movie	1		299	47.0	2.5	blank	1.0	235.47798895835876	2.49206805229187
49	223.44171595573425	pulse	1	t		47.0	2.5	blank	1.0	235.86161184310913	
49	225.0418529510498	pulse	1	t		47.0	2.5	blank	1.0	237.46174883842468	
49	225.55016112327576	fix_post	2		12	47.0	2.5	blank	1.0	237.97005701065063	0.09994888305664062
50	225.6501100063324	fix_pre	0		120	48.0	2.5	/experiments/knapen_AOT/AOT_stimuli/rescaled_final/0125_fw.mp4	0.0	238.07000589370728	1.08355712890625
50	226.64223313331604	pulse	0	t		48.0	2.5	/experiments/knapen_AOT/AOT_stimuli/rescaled_final/0125_fw.mp4	0.0	239.06212902069092	
50	226.73366713523865	movie	1		224	48.0	2.5	/experiments/knapen_AOT/AOT_stimuli/rescaled_final/0125_fw.mp4	0.0	239.15356302261353	2.4253928661346436
50	228.2409451007843	pulse	1	t		48.0	2.5	/experiments/knapen_AOT/AOT_stimuli/rescaled_final/0125_fw.mp4	0.0	240.66084098815918	
50	229.1590600013733	fix_post	2		12	48.0	2.5	/experiments/knapen_AOT/AOT_stimuli/rescaled_final/0125_fw.mp4	0.0	241.57895588874817	0.10001301765441895
51	229.2590730190277	fix_pre	0		120	49.0	2.5	/experiments/knapen_AOT/AOT_stimuli/rescaled_final/0562_fw.mp4	0.0	241.6789689064026	1.067147970199585
51	229.84264016151428	pulse	0	t		49.0	2.5	/experiments/knapen_AOT/AOT_stimuli/rescaled_final/0562_fw.mp4	0.0	242.26253604888916	
51	230.3262209892273	movie	1		244	49.0	2.5	/experiments/knapen_AOT/AOT_stimuli/rescaled_final/0562_fw.mp4	0.0	242.74611687660217	2.4333510398864746
51	231.44176411628723	pulse	1	t		49.0	2.5	/experiments/knapen_AOT/AOT_stimuli/rescaled_final/0562_fw.mp4	0.0	243.8616600036621	
51	232.75957202911377	fix_post	2		12	49.0	2.5	/experiments/knapen_AOT/AOT_stimuli/rescaled_final/0562_fw.mp4	0.0	245.17946791648865	0.09997105598449707
52	232.85954308509827	fix_pre	0		120	50.0	2.5	/experiments/knapen_AOT/AOT_stimuli/rescaled_final/1196_fw.mp4	0.0	245.27943897247314	1.0586519241333008
52	233.0431649684906	pulse	0	t		50.0	2.5	/experiments/knapen_AOT/AOT_stimuli/rescaled_final/1196_fw.mp4	0.0	245.46306085586548	
52	233.91819500923157	movie	1		230	50.0	2.5	/experiments/knapen_AOT/AOT_stimuli/rescaled_final/1196_fw.mp4	0.0	246.33809089660645	2.441869020462036
52	234.64179396629333	pulse	1	t		50.0	2.5	/experiments/knapen_AOT/AOT_stimuli/rescaled_final/1196_fw.mp4	0.0	247.0616898536682	
52	236.24306106567383	pulse	1	t		50.0	2.5	/experiments/knapen_AOT/AOT_stimuli/rescaled_final/1196_fw.mp4	0.0	248.6629569530487	
52	236.3600640296936	fix_post	2		12	50.0	2.5	/experiments/knapen_AOT/AOT_stimuli/rescaled_final/1196_fw.mp4	0.0	248.77995991706848	0.10003995895385742
53	236.46010398864746	fix_pre	0		120	51.0	2.5	/experiments/knapen_AOT/AOT_stimuli/rescaled_final/1362_fw.mp4	0.0	248.87999987602234	1.0918540954589844
53	237.55195808410645	movie	1		224	51.0	2.5	/experiments/knapen_AOT/AOT_stimuli/rescaled_final/1362_fw.mp4	0.0	249.97185397148132	2.4002978801727295
53	237.8438801765442	pulse	1	t		51.0	2.5	/experiments/knapen_AOT/AOT_stimuli/rescaled_final/1362_fw.mp4	0.0	250.26377606391907	
53	239.4425401687622	pulse	1	t		51.0	2.5	/experiments/knapen_AOT/AOT_stimuli/rescaled_final/1362_fw.mp4	0.0	251.86243605613708	
53	239.95225596427917	fix_post	2		12	51.0	2.5	/experiments/knapen_AOT/AOT_stimuli/rescaled_final/1362_fw.mp4	0.0	252.37215185165405	0.10005617141723633
54	240.0523121356964	fix_pre	0		120	52.0	2.5	/experiments/knapen_AOT/AOT_stimuli/rescaled_final/0610_rv.mp4	0.0	252.4722080230713	1.0919129848480225
54	241.03671312332153	pulse	0	t		52.0	2.5	/experiments/knapen_AOT/AOT_stimuli/rescaled_final/0610_rv.mp4	0.0	253.4566090106964	
54	241.14422512054443	movie	1		227	52.0	2.5	/experiments/knapen_AOT/AOT_stimuli/rescaled_final/0610_rv.mp4	0.0	253.5641210079193	2.425261974334717
54	242.64459204673767	pulse	1	t		52.0	2.5	/experiments/knapen_AOT/AOT_stimuli/rescaled_final/0610_rv.mp4	0.0	255.06448793411255	
54	243.56948709487915	fix_post	2		11	52.0	2.5	/experiments/knapen_AOT/AOT_stimuli/rescaled_final/0610_rv.mp4	0.0	255.98938298225403	0.0916600227355957
55	243.66114711761475	fix_pre	0		120	53.0	2.5	/experiments/knapen_AOT/AOT_stimuli/rescaled_final/0688_fw.mp4	0.0	256.0810430049896	1.0753350257873535
55	244.23727703094482	pulse	0	t		53.0	2.5	/experiments/knapen_AOT/AOT_stimuli/rescaled_final/0688_fw.mp4	0.0	256.6571729183197	
55	244.7364821434021	movie	1		238	53.0	2.5	/experiments/knapen_AOT/AOT_stimuli/rescaled_final/0688_fw.mp4	0.0	257.156378030777	2.4252138137817383
55	245.8367919921875	pulse	1	t		53.0	2.5	/experiments/knapen_AOT/AOT_stimuli/rescaled_final/0688_fw.mp4	0.0	258.2566878795624	
55	247.16169595718384	fix_post	2		12	53.0	2.5	/experiments/knapen_AOT/AOT_stimuli/rescaled_final/0688_fw.mp4	0.0	259.5815918445587	0.09998822212219238
56	247.26168417930603	fix_pre	0		120	54.0	2.5	/experiments/knapen_AOT/AOT_stimuli/rescaled_final/0117_fw.mp4	0.0	259.6815800666809	1.0669457912445068
56	247.43683695793152	pulse	0	t		54.0	2.5	/experiments/knapen_AOT/AOT_stimuli/rescaled_final/0117_fw.mp4	0.0	259.8567328453064	
56	248.32862997055054	movie	1		223	54.0	2.5	/experiments/knapen_AOT/AOT_stimuli/rescaled_final/0117_fw.mp4	0.0	260.7485258579254	2.4335989952087402
56	249.037260055542	pulse	1	t		54.0	2.5	/experiments/knapen_AOT/AOT_stimuli/rescaled_final/0117_fw.mp4	0.0	261.45715594291687	
56	250.63743114471436	pulse	1	t		54.0	2.5	/experiments/knapen_AOT/AOT_stimuli/rescaled_final/0117_fw.mp4	0.0	263.05732703208923	
56	250.76222896575928	fix_post	2		12	54.0	2.5	/experiments/knapen_AOT/AOT_stimuli/rescaled_final/0117_fw.mp4	0.0	263.18212485313416	0.10003209114074707
57	250.86226105690002	fix_pre	0		119	55.0	2.5	blank	1.0	263.2821569442749	0.9918310642242432
57	251.85409212112427	movie	1		300	55.0	2.5	blank	1.0	264.27398800849915	2.500361919403076
57	252.2376470565796	pulse	1	t		55.0	2.5	blank	1.0	264.65754294395447	
57	253.83782315254211	pulse	1	t		55.0	2.5	blank	1.0	266.257719039917	
57	254.35445404052734	fix_post	2		12	55.0	2.5	blank	1.0	266.7743499279022	0.09995198249816895
58	254.4544060230255	fix_pre	0		119	56.0	2.5	/experiments/knapen_AOT/AOT_stimuli/rescaled_final/0533_fw.mp4	0.0	266.8743019104004	1.0586950778961182
58	255.43824100494385	pulse	0	t		56.0	2.5	/experiments/knapen_AOT/AOT_stimuli/rescaled_final/0533_fw.mp4	0.0	267.8581368923187	
58	255.51310110092163	movie	1		233	56.0	2.5	/experiments/knapen_AOT/AOT_stimuli/rescaled_final/0533_fw.mp4	0.0	267.9329969882965	2.441869020462036
58	257.0368700027466	pulse	1	t		56.0	2.5	/experiments/knapen_AOT/AOT_stimuli/rescaled_final/0533_fw.mp4	0.0	269.45676589012146	
58	257.95497012138367	fix_post	2		12	56.0	2.5	/experiments/knapen_AOT/AOT_stimuli/rescaled_final/0533_fw.mp4	0.0	270.37486600875854	0.10003495216369629
59	258.05500507354736	fix_pre	0		120	57.0	2.5	/experiments/knapen_AOT/AOT_stimuli/rescaled_final/0070_rv.mp4	0.0	270.47490096092224	1.0502269268035889
59	258.6385610103607	pulse	0	t		57.0	2.5	/experiments/knapen_AOT/AOT_stimuli/rescaled_final/0070_rv.mp4	0.0	271.0584568977356	
59	259.10523200035095	movie	1		249	57.0	2.5	/experiments/knapen_AOT/AOT_stimuli/rescaled_final/0070_rv.mp4	0.0	271.52512788772583	2.4502921104431152
59	260.23841404914856	pulse	1	t		57.0	2.5	/experiments/knapen_AOT/AOT_stimuli/rescaled_final/0070_rv.mp4	0.0	272.65830993652344	
59	261.55552411079407	fix_post	2		12	57.0	2.5	/experiments/knapen_AOT/AOT_stimuli/rescaled_final/0070_rv.mp4	0.0	273.97541999816895	0.09998583793640137
60	261.65550994873047	fix_pre	0		120	58.0	2.5	/experiments/knapen_AOT/AOT_stimuli/rescaled_final/0823_fw.mp4	0.0	274.07540583610535	1.0835871696472168
60	261.8392071723938	pulse	0	t		58.0	2.5	/experiments/knapen_AOT/AOT_stimuli/rescaled_final/0823_fw.mp4	0.0	274.2591030597687	
60	262.7390971183777	movie	1		240	58.0	2.5	/experiments/knapen_AOT/AOT_stimuli/rescaled_final/0823_fw.mp4	0.0	275.15899300575256	2.416935920715332
60	263.43817496299744	pulse	1	t		58.0	2.5	/experiments/knapen_AOT/AOT_stimuli/rescaled_final/0823_fw.mp4	0.0	275.8580708503723	
60	265.0383520126343	pulse	1	t		58.0	2.5	/experiments/knapen_AOT/AOT_stimuli/rescaled_final/0823_fw.mp4	0.0	277.45824790000916	
60	265.156033039093	fix_post	2		12	58.0	2.5	/experiments/knapen_AOT/AOT_stimuli/rescaled_final/0823_fw.mp4	0.0	277.5759289264679	0.10003209114074707
61	265.25606513023376	fix_pre	0		120	59.0	2.5	/experiments/knapen_AOT/AOT_stimuli/rescaled_final/2123_fw.mp4	0.0	277.67596101760864	1.0752110481262207
61	266.33127617836	movie	1		221	59.0	2.5	/experiments/knapen_AOT/AOT_stimuli/rescaled_final/2123_fw.mp4	0.0	278.75117206573486	2.4169728755950928
61	266.63836908340454	pulse	1	t		59.0	2.5	/experiments/knapen_AOT/AOT_stimuli/rescaled_final/2123_fw.mp4	0.0	279.0582649707794	
61	268.2426869869232	pulse	1	t		59.0	2.5	/experiments/knapen_AOT/AOT_stimuli/rescaled_final/2123_fw.mp4	0.0	280.6625828742981	
61	268.7482490539551	fix_post	2		12	59.0	2.5	/experiments/knapen_AOT/AOT_stimuli/rescaled_final/2123_fw.mp4	0.0	281.16814494132996	0.10001611709594727
62	268.848265171051	fix_pre	0		120	60.0	2.5	/experiments/knapen_AOT/AOT_stimuli/rescaled_final/0533_fw.mp4	0.0	281.2681610584259	1.0752818584442139
62	269.84034609794617	pulse	0	t		60.0	2.5	/experiments/knapen_AOT/AOT_stimuli/rescaled_final/0533_fw.mp4	0.0	282.26024198532104	
62	269.92354702949524	movie	1		217	60.0	2.5	/experiments/knapen_AOT/AOT_stimuli/rescaled_final/0533_fw.mp4	0.0	282.3434429168701	2.433583974838257
62	271.43876600265503	pulse	1	t		60.0	2.5	/experiments/knapen_AOT/AOT_stimuli/rescaled_final/0533_fw.mp4	0.0	283.8586618900299	
62	272.3571310043335	fix_post	2		12	60.0	2.5	/experiments/knapen_AOT/AOT_stimuli/rescaled_final/0533_fw.mp4	0.0	284.7770268917084	0.0999760627746582
63	272.45710706710815	fix_pre	0		120	61.0	2.5	/experiments/knapen_AOT/AOT_stimuli/rescaled_final/1765_rv.mp4	0.0	284.87700295448303	1.0586349964141846
63	273.04109716415405	pulse	0	t		61.0	2.5	/experiments/knapen_AOT/AOT_stimuli/rescaled_final/1765_rv.mp4	0.0	285.46099305152893	
63	273.51574206352234	movie	1		251	61.0	2.5	/experiments/knapen_AOT/AOT_stimuli/rescaled_final/1765_rv.mp4	0.0	285.9356379508972	2.441962957382202
63	274.64049911499023	pulse	1	t		61.0	2.5	/experiments/knapen_AOT/AOT_stimuli/rescaled_final/1765_rv.mp4	0.0	287.0603950023651	
63	275.95770502090454	fix_post	2		12	61.0	2.5	/experiments/knapen_AOT/AOT_stimuli/rescaled_final/1765_rv.mp4	0.0	288.3776009082794	0.09995102882385254
64	276.0576560497284	fix_pre	0		120	62.0	2.5	/experiments/knapen_AOT/AOT_stimuli/rescaled_final/0523_fw.mp4	0.0	288.47755193710327	1.0502419471740723
64	276.241338968277	pulse	0	t		62.0	2.5	/experiments/knapen_AOT/AOT_stimuli/rescaled_final/0523_fw.mp4	0.0	288.66123485565186	
64	277.10789799690247	movie	1		249	62.0	2.5	/experiments/knapen_AOT/AOT_stimuli/rescaled_final/0523_fw.mp4	0.0	289.52779388427734	2.4502930641174316
64	277.84003806114197	pulse	1	t		62.0	2.5	/experiments/knapen_AOT/AOT_stimuli/rescaled_final/0523_fw.mp4	0.0	290.25993394851685	
64	279.4410710334778	pulse	1	t		62.0	2.5	/experiments/knapen_AOT/AOT_stimuli/rescaled_final/0523_fw.mp4	0.0	291.86096692085266	
64	279.5581910610199	fix_post	2		12	62.0	2.5	/experiments/knapen_AOT/AOT_stimuli/rescaled_final/0523_fw.mp4	0.0	291.9780869483948	0.09999608993530273
65	279.6581871509552	fix_pre	0		120	63.0	2.5	blank	1.0	292.0780830383301	1.0001628398895264
65	280.6583499908447	movie	1		299	63.0	2.5	blank	1.0	293.0782458782196	2.4920811653137207
65	281.04191613197327	pulse	1	t		63.0	2.5	blank	1.0	293.46181201934814	
65	282.64216208457947	pulse	1	t		63.0	2.5	blank	1.0	295.06205797195435	
65	283.15043115615845	fix_post	2		12	63.0	2.5	blank	1.0	295.5703270435333	0.10002779960632324
66	283.25045895576477	fix_pre	0		120	64.0	2.5	/experiments/knapen_AOT/AOT_stimuli/rescaled_final/1736_rv.mp4	0.0	295.67035484313965	1.0835330486297607
66	284.2424781322479	pulse	0	t		64.0	2.5	/experiments/knapen_AOT/AOT_stimuli/rescaled_final/1736_rv.mp4	0.0	296.6623740196228	
66	284.33399200439453	movie	1		227	64.0	2.5	/experiments/knapen_AOT/AOT_stimuli/rescaled_final/1736_rv.mp4	0.0	296.7538878917694	2.4252829551696777
66	285.84266114234924	pulse	1	t		64.0	2.5	/experiments/knapen_AOT/AOT_stimuli/rescaled_final/1736_rv.mp4	0.0	298.2625570297241	
66	286.7592749595642	fix_post	2		12	64.0	2.5	/experiments/knapen_AOT/AOT_stimuli/rescaled_final/1736_rv.mp4	0.0	299.1791708469391	0.10001206398010254
67	286.8592870235443	fix_pre	0		120	65.0	2.5	/experiments/knapen_AOT/AOT_stimuli/rescaled_final/2075_rv.mp4	0.0	299.2791829109192	1.0668339729309082
67	287.44285917282104	pulse	0	t		65.0	2.5	/experiments/knapen_AOT/AOT_stimuli/rescaled_final/2075_rv.mp4	0.0	299.8627550601959	
67	287.9261209964752	movie	1		257	65.0	2.5	/experiments/knapen_AOT/AOT_stimuli/rescaled_final/2075_rv.mp4	0.0	300.3460168838501	2.4337401390075684
67	289.0422410964966	pulse	1	t		65.0	2.5	/experiments/knapen_AOT/AOT_stimuli/rescaled_final/2075_rv.mp4	0.0	301.46213698387146	
67	290.3598611354828	fix_post	2		12	65.0	2.5	/experiments/knapen_AOT/AOT_stimuli/rescaled_final/2075_rv.mp4	0.0	302.77975702285767	0.09994101524353027
68	290.4598021507263	fix_pre	0		120	66.0	2.5	/experiments/knapen_AOT/AOT_stimuli/rescaled_final/1068_rv.mp4	0.0	302.8796980381012	1.0586960315704346
68	290.64332604408264	pulse	0	t		66.0	2.5	/experiments/knapen_AOT/AOT_stimuli/rescaled_final/1068_rv.mp4	0.0	303.0632219314575	
68	291.51849818229675	movie	1		219	66.0	2.5	/experiments/knapen_AOT/AOT_stimuli/rescaled_final/1068_rv.mp4	0.0	303.93839406967163	2.441840887069702
68	292.2421841621399	pulse	1	t		66.0	2.5	/experiments/knapen_AOT/AOT_stimuli/rescaled_final/1068_rv.mp4	0.0	304.66208004951477	
68	293.84359407424927	pulse	1	t		66.0	2.5	/experiments/knapen_AOT/AOT_stimuli/rescaled_final/1068_rv.mp4	0.0	306.26348996162415	
68	293.96033906936646	fix_post	2		12	66.0	2.5	/experiments/knapen_AOT/AOT_stimuli/rescaled_final/1068_rv.mp4	0.0	306.38023495674133	0.09999608993530273
69	294.06033515930176	fix_pre	0		120	67.0	2.5	/experiments/knapen_AOT/AOT_stimuli/rescaled_final/0926_rv.mp4	0.0	306.48023104667664	1.0920798778533936
69	295.15241503715515	movie	1		225	67.0	2.5	/experiments/knapen_AOT/AOT_stimuli/rescaled_final/0926_rv.mp4	0.0	307.57231092453003	2.4001519680023193
69	295.44384002685547	pulse	1	t		67.0	2.5	/experiments/knapen_AOT/AOT_stimuli/rescaled_final/0926_rv.mp4	0.0	307.86373591423035	
69	297.04261016845703	pulse	1	t		67.0	2.5	/experiments/knapen_AOT/AOT_stimuli/rescaled_final/0926_rv.mp4	0.0	309.4625060558319	
69	297.55256700515747	fix_post	2		12	67.0	2.5	/experiments/knapen_AOT/AOT_stimuli/rescaled_final/0926_rv.mp4	0.0	309.97246289253235	0.0999760627746582
70	297.65254306793213	fix_pre	0		119	68.0	2.5	/experiments/knapen_AOT/AOT_stimuli/rescaled_final/0841_fw.mp4	0.0	310.072438955307	1.050225019454956
70	298.6363570690155	pulse	0	t		68.0	2.5	/experiments/knapen_AOT/AOT_stimuli/rescaled_final/0841_fw.mp4	0.0	311.0562529563904	
70	298.7027680873871	movie	1		225	68.0	2.5	/experiments/knapen_AOT/AOT_stimuli/rescaled_final/0841_fw.mp4	0.0	311.12266397476196	2.450305938720703
70	300.2364890575409	pulse	1	t		68.0	2.5	/experiments/knapen_AOT/AOT_stimuli/rescaled_final/0841_fw.mp4	0.0	312.65638494491577	
70	301.1530740261078	fix_post	2		12	68.0	2.5	/experiments/knapen_AOT/AOT_stimuli/rescaled_final/0841_fw.mp4	0.0	313.57296991348267	0.10005998611450195
71	301.2531340122223	fix_pre	0		115	69.0	2.5	blank	1.0	313.67302989959717	1.0001089572906494
71	301.83664202690125	pulse	0	t		69.0	2.5	blank	1.0	314.2565379142761	
71	302.25324296951294	movie	1		300	69.0	2.5	blank	1.0	314.6731388568878	2.5003881454467773
71	303.43691205978394	pulse	1	t		69.0	2.5	blank	1.0	315.8568079471588	
71	304.7536311149597	fix_post	2		12	69.0	2.5	blank	1.0	317.1735270023346	0.09998202323913574
72	304.85361313819885	fix_pre	0		120	70.0	2.5	/experiments/knapen_AOT/AOT_stimuli/rescaled_final/0035_rv.mp4	0.0	317.27350902557373	1.075225830078125
72	305.03729605674744	pulse	0	t		70.0	2.5	/experiments/knapen_AOT/AOT_stimuli/rescaled_final/0035_rv.mp4	0.0	317.4571919441223	
72	305.928838968277	movie	1		249	70.0	2.5	/experiments/knapen_AOT/AOT_stimuli/rescaled_final/0035_rv.mp4	0.0	318.34873485565186	2.4253931045532227
72	306.6368820667267	pulse	1	t		70.0	2.5	/experiments/knapen_AOT/AOT_stimuli/rescaled_final/0035_rv.mp4	0.0	319.05677795410156	
72	308.2377290725708	pulse	1	t		70.0	2.5	/experiments/knapen_AOT/AOT_stimuli/rescaled_final/0035_rv.mp4	0.0	320.6576249599457	
72	308.3542320728302	fix_post	2		12	70.0	2.5	/experiments/knapen_AOT/AOT_stimuli/rescaled_final/0035_rv.mp4	0.0	320.7741279602051	0.09993505477905273
73	308.45416712760925	fix_pre	0		120	71.0	2.5	/experiments/knapen_AOT/AOT_stimuli/rescaled_final/0828_rv.mp4	0.0	320.87406301498413	1.0751969814300537
73	309.5293641090393	movie	1		243	71.0	2.5	/experiments/knapen_AOT/AOT_stimuli/rescaled_final/0828_rv.mp4	0.0	321.9492599964142	2.416977882385254
73	309.83782601356506	pulse	1	t		71.0	2.5	/experiments/knapen_AOT/AOT_stimuli/rescaled_final/0828_rv.mp4	0.0	322.25772190093994	
73	311.43766617774963	pulse	1	t		71.0	2.5	/experiments/knapen_AOT/AOT_stimuli/rescaled_final/0828_rv.mp4	0.0	323.8575620651245	
73	311.94634199142456	fix_post	2		12	71.0	2.5	/experiments/knapen_AOT/AOT_stimuli/rescaled_final/0828_rv.mp4	0.0	324.36623787879944	0.10002613067626953
74	312.04636812210083	fix_pre	0		120	72.0	2.5	/experiments/knapen_AOT/AOT_stimuli/rescaled_final/0637_fw.mp4	0.0	324.4662640094757	1.07527494430542
74	313.03844118118286	pulse	0	t		72.0	2.5	/experiments/knapen_AOT/AOT_stimuli/rescaled_final/0637_fw.mp4	0.0	325.45833706855774	
74	313.12164306640625	movie	1		221	72.0	2.5	/experiments/knapen_AOT/AOT_stimuli/rescaled_final/0637_fw.mp4	0.0	325.5415389537811	2.4335761070251465
74	314.63696217536926	pulse	1	t		72.0	2.5	/experiments/knapen_AOT/AOT_stimuli/rescaled_final/0637_fw.mp4	0.0	327.05685806274414	
74	315.5552191734314	fix_post	2		12	72.0	2.5	/experiments/knapen_AOT/AOT_stimuli/rescaled_final/0637_fw.mp4	0.0	327.9751150608063	0.09999799728393555
75	315.65521717071533	fix_pre	0		120	73.0	2.5	/experiments/knapen_AOT/AOT_stimuli/rescaled_final/0737_fw.mp4	0.0	328.0751130580902	1.0586328506469727
75	316.23880410194397	pulse	0	t		73.0	2.5	/experiments/knapen_AOT/AOT_stimuli/rescaled_final/0737_fw.mp4	0.0	328.65869998931885	
75	316.7138500213623	movie	1		231	73.0	2.5	/experiments/knapen_AOT/AOT_stimuli/rescaled_final/0737_fw.mp4	0.0	329.1337459087372	2.4419021606445312
75	317.83914399147034	pulse	1	t		73.0	2.5	/experiments/knapen_AOT/AOT_stimuli/rescaled_final/0737_fw.mp4	0.0	330.2590398788452	
75	319.15575218200684	fix_post	2		12	73.0	2.5	/experiments/knapen_AOT/AOT_stimuli/rescaled_final/0737_fw.mp4	0.0	331.5756480693817	0.10005378723144531
76	319.2558059692383	fix_pre	0		120	74.0	2.5	/experiments/knapen_AOT/AOT_stimuli/rescaled_final/0089_rv.mp4	0.0	331.67570185661316	1.0836081504821777
76	319.4393410682678	pulse	0	t		74.0	2.5	/experiments/knapen_AOT/AOT_stimuli/rescaled_final/0089_rv.mp4	0.0	331.8592369556427	
76	320.33941411972046	movie	1		228	74.0	2.5	/experiments/knapen_AOT/AOT_stimuli/rescaled_final/0089_rv.mp4	0.0	332.75931000709534	2.4168858528137207
76	321.03855895996094	pulse	1	t		74.0	2.5	/experiments/knapen_AOT/AOT_stimuli/rescaled_final/0089_rv.mp4	0.0	333.4584548473358	
76	322.63987016677856	pulse	1	t		74.0	2.5	/experiments/knapen_AOT/AOT_stimuli/rescaled_final/0089_rv.mp4	0.0	335.05976605415344	
76	322.7562999725342	fix_post	2		12	74.0	2.5	/experiments/knapen_AOT/AOT_stimuli/rescaled_final/0089_rv.mp4	0.0	335.17619585990906	0.10000109672546387
77	322.85630106925964	fix_pre	0		120	75.0	2.5	blank	1.0	335.2761969566345	1.0001740455627441
77	323.8564751148224	movie	1		299	75.0	2.5	blank	1.0	336.27637100219727	2.4920918941497803
77	324.2401020526886	pulse	1	t		75.0	2.5	blank	1.0	336.6599979400635	
77	325.8403170108795	pulse	1	t		75.0	2.5	blank	1.0	338.2602128982544	
77	326.34856700897217	fix_post	2		12	75.0	2.5	blank	1.0	338.76846289634705	0.09993696212768555
78	326.44850397109985	fix_pre	0		120	76.0	2.5	/experiments/knapen_AOT/AOT_stimuli/rescaled_final/1965_fw.mp4	0.0	338.86839985847473	1.0668799877166748
78	327.44053506851196	pulse	0	t		76.0	2.5	/experiments/knapen_AOT/AOT_stimuli/rescaled_final/1965_fw.mp4	0.0	339.86043095588684	
78	327.5153839588165	movie	1		228	76.0	2.5	/experiments/knapen_AOT/AOT_stimuli/rescaled_final/1965_fw.mp4	0.0	339.9352798461914	2.441992998123169
78	329.0394649505615	pulse	1	t		76.0	2.5	/experiments/knapen_AOT/AOT_stimuli/rescaled_final/1965_fw.mp4	0.0	341.4593608379364	
78	329.9573769569397	fix_post	2		12	76.0	2.5	/experiments/knapen_AOT/AOT_stimuli/rescaled_final/1965_fw.mp4	0.0	342.3772728443146	0.0999901294708252
79	330.0573670864105	fix_pre	0		120	77.0	2.5	/experiments/knapen_AOT/AOT_stimuli/rescaled_final/0094_fw.mp4	0.0	342.4772629737854	1.0585579872131348
79	330.641074180603	pulse	0	t		77.0	2.5	/experiments/knapen_AOT/AOT_stimuli/rescaled_final/0094_fw.mp4	0.0	343.0609700679779	
79	331.11592507362366	movie	1		216	77.0	2.5	/experiments/knapen_AOT/AOT_stimuli/rescaled_final/0094_fw.mp4	0.0	343.53582096099854	2.441977024078369
79	332.24289202690125	pulse	1	t		77.0	2.5	/experiments/knapen_AOT/AOT_stimuli/rescaled_final/0094_fw.mp4	0.0	344.6627879142761	
79	333.557902097702	fix_post	2		12	77.0	2.5	/experiments/knapen_AOT/AOT_stimuli/rescaled_final/0094_fw.mp4	0.0	345.9777979850769	0.10003495216369629
80	333.6579370498657	fix_pre	0		120	78.0	2.5	/experiments/knapen_AOT/AOT_stimuli/rescaled_final/2106_rv.mp4	0.0	346.0778329372406	1.0835130214691162
80	333.8415901660919	pulse	0	t		78.0	2.5	/experiments/knapen_AOT/AOT_stimuli/rescaled_final/2106_rv.mp4	0.0	346.2614860534668	
80	334.74145007133484	movie	1		225	78.0	2.5	/experiments/knapen_AOT/AOT_stimuli/rescaled_final/2106_rv.mp4	0.0	347.1613459587097	2.4170138835906982
80	335.44075417518616	pulse	1	t		78.0	2.5	/experiments/knapen_AOT/AOT_stimuli/rescaled_final/2106_rv.mp4	0.0	347.86065006256104	
80	337.0408639907837	pulse	1	t		78.0	2.5	/experiments/knapen_AOT/AOT_stimuli/rescaled_final/2106_rv.mp4	0.0	349.46075987815857	
80	337.15846395492554	fix_post	2		12	78.0	2.5	/experiments/knapen_AOT/AOT_stimuli/rescaled_final/2106_rv.mp4	0.0	349.5783598423004	0.09999608993530273
81	337.25846004486084	fix_pre	0		120	79.0	2.5	/experiments/knapen_AOT/AOT_stimuli/rescaled_final/1248_rv.mp4	0.0	349.6783559322357	1.0836169719696045
81	338.34207701683044	movie	1		232	79.0	2.5	/experiments/knapen_AOT/AOT_stimuli/rescaled_final/1248_rv.mp4	0.0	350.7619729042053	2.408576011657715
81	338.64235615730286	pulse	1	t		79.0	2.5	/experiments/knapen_AOT/AOT_stimuli/rescaled_final/1248_rv.mp4	0.0	351.06225204467773	
81	340.24144315719604	pulse	1	t		79.0	2.5	/experiments/knapen_AOT/AOT_stimuli/rescaled_final/1248_rv.mp4	0.0	352.6613390445709	
81	340.75065302848816	fix_post	2		12	79.0	2.5	/experiments/knapen_AOT/AOT_stimuli/rescaled_final/1248_rv.mp4	0.0	353.17054891586304	0.0999910831451416
82	340.8506441116333	fix_pre	0		120	80.0	2.5	/experiments/knapen_AOT/AOT_stimuli/rescaled_final/1073_rv.mp4	0.0	353.2705399990082	1.0919609069824219
82	341.84262013435364	pulse	0	t		80.0	2.5	/experiments/knapen_AOT/AOT_stimuli/rescaled_final/1073_rv.mp4	0.0	354.2625160217285	
82	341.9426050186157	movie	1		235	80.0	2.5	/experiments/knapen_AOT/AOT_stimuli/rescaled_final/1073_rv.mp4	0.0	354.3625009059906	2.416918992996216
82	343.4430000782013	pulse	1	t		80.0	2.5	/experiments/knapen_AOT/AOT_stimuli/rescaled_final/1073_rv.mp4	0.0	355.8628959655762	
82	344.35952401161194	fix_post	2		12	80.0	2.5	/experiments/knapen_AOT/AOT_stimuli/rescaled_final/1073_rv.mp4	0.0	356.7794198989868	0.10001015663146973
83	344.4595341682434	fix_pre	0		120	81.0	2.5	/experiments/knapen_AOT/AOT_stimuli/rescaled_final/1644_rv.mp4	0.0	356.8794300556183	1.0669829845428467
83	345.0432620048523	pulse	0	t		81.0	2.5	/experiments/knapen_AOT/AOT_stimuli/rescaled_final/1644_rv.mp4	0.0	357.4631578922272	
83	345.52651715278625	movie	1		227	81.0	2.5	/experiments/knapen_AOT/AOT_stimuli/rescaled_final/1644_rv.mp4	0.0	357.94641304016113	2.433562994003296
83	346.64286613464355	pulse	1	t		81.0	2.5	/experiments/knapen_AOT/AOT_stimuli/rescaled_final/1644_rv.mp4	0.0	359.06276202201843	
83	347.96008014678955	fix_post	2		12	81.0	2.5	/experiments/knapen_AOT/AOT_stimuli/rescaled_final/1644_rv.mp4	0.0	360.37997603416443	0.09999585151672363
84	348.0600759983063	fix_pre	0		120	82.0	2.5	/experiments/knapen_AOT/AOT_stimuli/rescaled_final/1243_fw.mp4	0.0	360.47997188568115	1.0502030849456787
84	348.24367594718933	pulse	0	t		82.0	2.5	/experiments/knapen_AOT/AOT_stimuli/rescaled_final/1243_fw.mp4	0.0	360.6635718345642	
84	349.11027908325195	movie	1		236	82.0	2.5	/experiments/knapen_AOT/AOT_stimuli/rescaled_final/1243_fw.mp4	0.0	361.53017497062683	2.450321912765503
84	349.84216713905334	pulse	1	t		82.0	2.5	/experiments/knapen_AOT/AOT_stimuli/rescaled_final/1243_fw.mp4	0.0	362.2620630264282	
84	351.44350600242615	pulse	1	t		82.0	2.5	/experiments/knapen_AOT/AOT_stimuli/rescaled_final/1243_fw.mp4	0.0	363.863401889801	
84	351.56060099601746	fix_post	2		12	82.0	2.5	/experiments/knapen_AOT/AOT_stimuli/rescaled_final/1243_fw.mp4	0.0	363.98049688339233	0.1000220775604248
85	351.6606230735779	fix_pre	0		120	83.0	2.5	blank	1.0	364.08051896095276	1.0001490116119385
85	352.6607720851898	movie	1		295	83.0	2.5	blank	1.0	365.0806679725647	2.492017984390259
85	353.03615498542786	pulse	1	t		83.0	2.5	blank	1.0	365.45605087280273	
85	354.636146068573	pulse	1	t		83.0	2.5	blank	1.0	367.0560419559479	
85	355.1527900695801	fix_post	2		12	83.0	2.5	blank	1.0	367.57268595695496	0.1000370979309082
87	355.252827167511	stim	0		1716					367.67272305488586	14.302226781845093
87	356.23650598526	pulse	0	t						368.6564018726349	
87	357.8367211818695	pulse	0	t						370.2566170692444	
87	359.4369320869446	pulse	0	t						371.85682797431946	
87	361.03728199005127	pulse	0	t						373.45717787742615	
87	362.637403011322	pulse	0	t						375.0572988986969	
87	364.2376501560211	pulse	0	t						376.657546043396	
87	365.83781909942627	pulse	0	t						378.25771498680115	
87	367.4382290840149	pulse	0	t						379.85812497138977	
87	369.0384249687195	pulse	0	t						381.45832085609436	
