trial_nr	onset	event_type	phase	response	nr_frames	movie_index	movie_duration	movie_file	blank	onset_abs	duration
0	0.14999699592590332	stim	0		44					21.049474000930786	0.36665987968444824
0	0.508538007736206	response	0	space						21.40801501274109	
1	0.5166568756103516	stim	0		4422					21.416133880615234	36.84974002838135
1	37.36244487762451	pulse	0	t						58.261921882629395	
1	37.3663969039917	stim	1		1717					58.26587390899658	14.308304071426392
1	38.958245038986206	pulse	1	t						59.85772204399109	
1	40.55820894241333	pulse	1	t						61.45768594741821	
1	42.158347845077515	pulse	1	t						63.0578248500824	
1	43.75832200050354	pulse	1	t						64.65779900550842	
1	45.35827684402466	pulse	1	t						66.25775384902954	
1	46.95832896232605	pulse	1	t						67.85780596733093	
1	48.55795097351074	pulse	1	t						69.45742797851562	
1	50.15810489654541	pulse	1	t						71.0575819015503	
2	51.67470097541809	fix_pre	0		11	0.0	2.5	/experiments/AOT/AOT_stimuli/rescaled_final/1991_rv.mp4	0.0	72.57417798042297	0.09167003631591797
2	51.758260011672974	pulse	0	t		0.0	2.5	/experiments/AOT/AOT_stimuli/rescaled_final/1991_rv.mp4	0.0	72.65773701667786	
2	51.76637101173401	movie	1		244	0.0	2.5	/experiments/AOT/AOT_stimuli/rescaled_final/1991_rv.mp4	0.0	72.66584801673889	2.5083048343658447
2	53.35802698135376	pulse	1	t		0.0	2.5	/experiments/AOT/AOT_stimuli/rescaled_final/1991_rv.mp4	0.0	74.25750398635864	
2	54.27467584609985	fix_post	2		12	0.0	2.5	/experiments/AOT/AOT_stimuli/rescaled_final/1991_rv.mp4	0.0	75.17415285110474	0.10002017021179199
3	54.374696016311646	fix_pre	0		120	1.0	2.5	/experiments/AOT/AOT_stimuli/rescaled_final/1644_rv.mp4	0.0	75.27417302131653	0.9999549388885498
3	54.95822596549988	pulse	0	t		1.0	2.5	/experiments/AOT/AOT_stimuli/rescaled_final/1644_rv.mp4	0.0	75.85770297050476	
3	55.374650955200195	movie	1		245	1.0	2.5	/experiments/AOT/AOT_stimuli/rescaled_final/1644_rv.mp4	0.0	76.27412796020508	2.4999349117279053
3	56.558225870132446	pulse	1	t		1.0	2.5	/experiments/AOT/AOT_stimuli/rescaled_final/1644_rv.mp4	0.0	77.45770287513733	
3	57.8745858669281	fix_post	2		12	1.0	2.5	/experiments/AOT/AOT_stimuli/rescaled_final/1644_rv.mp4	0.0	78.77406287193298	0.10009217262268066
4	57.97467803955078	fix_pre	0		120	2.0	2.5	/experiments/AOT/AOT_stimuli/rescaled_final/2150_rv.mp4	0.0	78.87415504455566	1.0000197887420654
4	58.15820097923279	pulse	0	t		2.0	2.5	/experiments/AOT/AOT_stimuli/rescaled_final/2150_rv.mp4	0.0	79.05767798423767	
4	58.97469782829285	movie	1		243	2.0	2.5	/experiments/AOT/AOT_stimuli/rescaled_final/2150_rv.mp4	0.0	79.87417483329773	2.5000040531158447
4	59.75804591178894	pulse	1	t		2.0	2.5	/experiments/AOT/AOT_stimuli/rescaled_final/2150_rv.mp4	0.0	80.65752291679382	
4	61.356613874435425	pulse	1	t		2.0	2.5	/experiments/AOT/AOT_stimuli/rescaled_final/2150_rv.mp4	0.0	82.25609087944031	
4	61.47470188140869	fix_post	2		12	2.0	2.5	/experiments/AOT/AOT_stimuli/rescaled_final/2150_rv.mp4	0.0	82.37417888641357	0.09999203681945801
5	61.57469391822815	fix_pre	0		120	3.0	2.5	/experiments/AOT/AOT_stimuli/rescaled_final/1996_fw.mp4	0.0	82.47417092323303	0.9999949932098389
5	62.57468891143799	movie	1		245	3.0	2.5	/experiments/AOT/AOT_stimuli/rescaled_final/1996_fw.mp4	0.0	83.47416591644287	2.499988079071045
5	62.95749282836914	pulse	1	t		3.0	2.5	/experiments/AOT/AOT_stimuli/rescaled_final/1996_fw.mp4	0.0	83.85696983337402	
5	64.5580780506134	pulse	1	t		3.0	2.5	/experiments/AOT/AOT_stimuli/rescaled_final/1996_fw.mp4	0.0	85.45755505561829	
5	65.07467699050903	fix_post	2		12	3.0	2.5	/experiments/AOT/AOT_stimuli/rescaled_final/1996_fw.mp4	0.0	85.97415399551392	0.10001301765441895
6	65.17469000816345	fix_pre	0		119	4.0	2.5	/experiments/AOT/AOT_stimuli/rescaled_final/1472_rv.mp4	0.0	86.07416701316833	0.9916319847106934
6	66.15821695327759	pulse	0	t		4.0	2.5	/experiments/AOT/AOT_stimuli/rescaled_final/1472_rv.mp4	0.0	87.05769395828247	
6	66.16632199287415	movie	1		247	4.0	2.5	/experiments/AOT/AOT_stimuli/rescaled_final/1472_rv.mp4	0.0	87.06579899787903	2.508291006088257
6	67.75881099700928	pulse	1	t		4.0	2.5	/experiments/AOT/AOT_stimuli/rescaled_final/1472_rv.mp4	0.0	88.65828800201416	
6	68.6746129989624	fix_post	2		12	4.0	2.5	/experiments/AOT/AOT_stimuli/rescaled_final/1472_rv.mp4	0.0	89.57409000396729	0.09999585151672363
7	68.77460885047913	fix_pre	0		120	5.0	2.5	/experiments/AOT/AOT_stimuli/rescaled_final/1697_fw.mp4	0.0	89.67408585548401	0.9999761581420898
7	69.35811591148376	pulse	0	t		5.0	2.5	/experiments/AOT/AOT_stimuli/rescaled_final/1697_fw.mp4	0.0	90.25759291648865	
7	69.77458500862122	movie	1		244	5.0	2.5	/experiments/AOT/AOT_stimuli/rescaled_final/1697_fw.mp4	0.0	90.6740620136261	2.5000038146972656
7	70.9581880569458	pulse	1	t		5.0	2.5	/experiments/AOT/AOT_stimuli/rescaled_final/1697_fw.mp4	0.0	91.85766506195068	
7	72.27458882331848	fix_post	2		12	5.0	2.5	/experiments/AOT/AOT_stimuli/rescaled_final/1697_fw.mp4	0.0	93.17406582832336	0.10000419616699219
8	72.37459301948547	fix_pre	0		120	6.0	2.5	/experiments/AOT/AOT_stimuli/rescaled_final/0721_fw.mp4	0.0	93.27407002449036	1.0000200271606445
8	72.55816698074341	pulse	0	t		6.0	2.5	/experiments/AOT/AOT_stimuli/rescaled_final/0721_fw.mp4	0.0	93.45764398574829	
8	73.37461304664612	movie	1		244	6.0	2.5	/experiments/AOT/AOT_stimuli/rescaled_final/0721_fw.mp4	0.0	94.274090051651	2.499964952468872
8	74.1582670211792	pulse	1	t		6.0	2.5	/experiments/AOT/AOT_stimuli/rescaled_final/0721_fw.mp4	0.0	95.05774402618408	
8	75.7565369606018	pulse	1	t		6.0	2.5	/experiments/AOT/AOT_stimuli/rescaled_final/0721_fw.mp4	0.0	96.65601396560669	
8	75.87457799911499	fix_post	2		12	6.0	2.5	/experiments/AOT/AOT_stimuli/rescaled_final/0721_fw.mp4	0.0	96.77405500411987	0.09957695007324219
9	75.97415494918823	fix_pre	0		120	7.0	2.5	blank	1.0	96.87363195419312	1.0004150867462158
9	76.97457003593445	movie	1		300	7.0	2.5	blank	1.0	97.87404704093933	2.500037908554077
9	77.35807394981384	pulse	1	t		7.0	2.5	blank	1.0	98.25755095481873	
9	78.95802593231201	pulse	1	t		7.0	2.5	blank	1.0	99.8575029373169	
9	79.47460794448853	fix_post	2		12	7.0	2.5	blank	1.0	100.37408494949341	0.10003209114074707
10	79.57464003562927	fix_pre	0		119	8.0	2.5	/experiments/AOT/AOT_stimuli/rescaled_final/1690_fw.mp4	0.0	100.47411704063416	0.9915518760681152
10	80.55798387527466	pulse	0	t		8.0	2.5	/experiments/AOT/AOT_stimuli/rescaled_final/1690_fw.mp4	0.0	101.45746088027954	
10	80.56619191169739	movie	1		245	8.0	2.5	/experiments/AOT/AOT_stimuli/rescaled_final/1690_fw.mp4	0.0	101.46566891670227	2.508359909057617
10	82.15810704231262	pulse	1	t		8.0	2.5	/experiments/AOT/AOT_stimuli/rescaled_final/1690_fw.mp4	0.0	103.0575840473175	
10	83.074551820755	fix_post	2		12	8.0	2.5	/experiments/AOT/AOT_stimuli/rescaled_final/1690_fw.mp4	0.0	103.97402882575989	0.10002613067626953
11	83.17457795143127	fix_pre	0		120	9.0	2.5	/experiments/AOT/AOT_stimuli/rescaled_final/1410_rv.mp4	0.0	104.07405495643616	1.0000169277191162
11	83.75812101364136	pulse	0	t		9.0	2.5	/experiments/AOT/AOT_stimuli/rescaled_final/1410_rv.mp4	0.0	104.65759801864624	
11	84.17459487915039	movie	1		245	9.0	2.5	/experiments/AOT/AOT_stimuli/rescaled_final/1410_rv.mp4	0.0	105.07407188415527	2.4994759559631348
11	85.35817384719849	pulse	1	t		9.0	2.5	/experiments/AOT/AOT_stimuli/rescaled_final/1410_rv.mp4	0.0	106.25765085220337	
11	86.67407083511353	fix_post	2		12	9.0	2.5	/experiments/AOT/AOT_stimuli/rescaled_final/1410_rv.mp4	0.0	107.57354784011841	0.1004800796508789
12	86.7745509147644	fix_pre	0		120	10.0	2.5	/experiments/AOT/AOT_stimuli/rescaled_final/1301_fw.mp4	0.0	107.67402791976929	1.000014066696167
12	86.95805597305298	pulse	0	t		10.0	2.5	/experiments/AOT/AOT_stimuli/rescaled_final/1301_fw.mp4	0.0	107.85753297805786	
12	87.77456498146057	movie	1		245	10.0	2.5	/experiments/AOT/AOT_stimuli/rescaled_final/1301_fw.mp4	0.0	108.67404198646545	2.50006103515625
12	88.55823183059692	pulse	1	t		10.0	2.5	/experiments/AOT/AOT_stimuli/rescaled_final/1301_fw.mp4	0.0	109.4577088356018	
12	90.15670394897461	pulse	1	t		10.0	2.5	/experiments/AOT/AOT_stimuli/rescaled_final/1301_fw.mp4	0.0	111.05618095397949	
12	90.27462601661682	fix_post	2		12	10.0	2.5	/experiments/AOT/AOT_stimuli/rescaled_final/1301_fw.mp4	0.0	111.1741030216217	0.09954500198364258
13	90.37417101860046	fix_pre	0		120	11.0	2.5	/experiments/AOT/AOT_stimuli/rescaled_final/0165_fw.mp4	0.0	111.27364802360535	0.9999909400939941
13	91.37416195869446	movie	1		243	11.0	2.5	/experiments/AOT/AOT_stimuli/rescaled_final/0165_fw.mp4	0.0	112.27363896369934	2.5004100799560547
13	91.75752687454224	pulse	1	t		11.0	2.5	/experiments/AOT/AOT_stimuli/rescaled_final/0165_fw.mp4	0.0	112.65700387954712	
13	93.35802698135376	pulse	1	t		11.0	2.5	/experiments/AOT/AOT_stimuli/rescaled_final/0165_fw.mp4	0.0	114.25750398635864	
13	93.87457203865051	fix_post	2		12	11.0	2.5	/experiments/AOT/AOT_stimuli/rescaled_final/0165_fw.mp4	0.0	114.7740490436554	0.0999000072479248
14	93.97447204589844	fix_pre	0		119	12.0	2.5	/experiments/AOT/AOT_stimuli/rescaled_final/0239_rv.mp4	0.0	114.87394905090332	0.9917159080505371
14	94.95805788040161	pulse	0	t		12.0	2.5	/experiments/AOT/AOT_stimuli/rescaled_final/0239_rv.mp4	0.0	115.8575348854065	
14	94.96618795394897	movie	1		246	12.0	2.5	/experiments/AOT/AOT_stimuli/rescaled_final/0239_rv.mp4	0.0	115.86566495895386	2.507822036743164
14	96.55752396583557	pulse	1	t		12.0	2.5	/experiments/AOT/AOT_stimuli/rescaled_final/0239_rv.mp4	0.0	117.45700097084045	
14	97.47400999069214	fix_post	2		12	12.0	2.5	/experiments/AOT/AOT_stimuli/rescaled_final/0239_rv.mp4	0.0	118.37348699569702	0.10048294067382812
15	97.57449293136597	fix_pre	0		120	13.0	2.5	/experiments/AOT/AOT_stimuli/rescaled_final/0790_fw.mp4	0.0	118.47396993637085	0.99993896484375
15	98.15802693367004	pulse	0	t		13.0	2.5	/experiments/AOT/AOT_stimuli/rescaled_final/0790_fw.mp4	0.0	119.05750393867493	
15	98.57443189620972	movie	1		244	13.0	2.5	/experiments/AOT/AOT_stimuli/rescaled_final/0790_fw.mp4	0.0	119.4739089012146	2.499630928039551
15	99.75808882713318	pulse	1	t		13.0	2.5	/experiments/AOT/AOT_stimuli/rescaled_final/0790_fw.mp4	0.0	120.65756583213806	
15	101.07406282424927	fix_post	2		12	13.0	2.5	/experiments/AOT/AOT_stimuli/rescaled_final/0790_fw.mp4	0.0	121.97353982925415	0.10045123100280762
16	101.17451405525208	fix_pre	0		120	14.0	2.5	blank	1.0	122.07399106025696	0.9999868869781494
16	101.35803389549255	pulse	0	t		14.0	2.5	blank	1.0	122.25751090049744	
16	102.17450094223022	movie	1		300	14.0	2.5	blank	1.0	123.07397794723511	2.499675989151001
16	102.9575400352478	pulse	1	t		14.0	2.5	blank	1.0	123.85701704025269	
16	104.55767893791199	pulse	1	t		14.0	2.5	blank	1.0	125.45715594291687	
16	104.67417693138123	fix_post	2		12	14.0	2.5	blank	1.0	125.57365393638611	0.10045099258422852
17	104.77462792396545	fix_pre	0		120	15.0	2.5	/experiments/AOT/AOT_stimuli/rescaled_final/0087_rv.mp4	0.0	125.67410492897034	1.0000801086425781
17	105.77470803260803	movie	1		244	15.0	2.5	/experiments/AOT/AOT_stimuli/rescaled_final/0087_rv.mp4	0.0	126.67418503761292	2.499778985977173
17	106.15758895874023	pulse	1	t		15.0	2.5	/experiments/AOT/AOT_stimuli/rescaled_final/0087_rv.mp4	0.0	127.05706596374512	
17	107.75788187980652	pulse	1	t		15.0	2.5	/experiments/AOT/AOT_stimuli/rescaled_final/0087_rv.mp4	0.0	128.6573588848114	
17	108.2744870185852	fix_post	2		12	15.0	2.5	/experiments/AOT/AOT_stimuli/rescaled_final/0087_rv.mp4	0.0	129.1739640235901	0.09994792938232422
18	108.37443494796753	fix_pre	0		119	16.0	2.5	/experiments/AOT/AOT_stimuli/rescaled_final/1364_rv.mp4	0.0	129.2739119529724	0.9916729927062988
18	109.3580539226532	pulse	0	t		16.0	2.5	/experiments/AOT/AOT_stimuli/rescaled_final/1364_rv.mp4	0.0	130.25753092765808	
18	109.36610794067383	movie	1		248	16.0	2.5	/experiments/AOT/AOT_stimuli/rescaled_final/1364_rv.mp4	0.0	130.2655849456787	2.5082709789276123
18	110.95756697654724	pulse	1	t		16.0	2.5	/experiments/AOT/AOT_stimuli/rescaled_final/1364_rv.mp4	0.0	131.85704398155212	
18	111.87437891960144	fix_post	2		12	16.0	2.5	/experiments/AOT/AOT_stimuli/rescaled_final/1364_rv.mp4	0.0	132.77385592460632	0.10004210472106934
19	111.97442102432251	fix_pre	0		120	17.0	2.5	/experiments/AOT/AOT_stimuli/rescaled_final/0721_rv.mp4	0.0	132.8738980293274	1.000060796737671
19	112.55786085128784	pulse	0	t		17.0	2.5	/experiments/AOT/AOT_stimuli/rescaled_final/0721_rv.mp4	0.0	133.45733785629272	
19	112.97448182106018	movie	1		245	17.0	2.5	/experiments/AOT/AOT_stimuli/rescaled_final/0721_rv.mp4	0.0	133.87395882606506	2.4999070167541504
19	114.15790104866028	pulse	1	t		17.0	2.5	/experiments/AOT/AOT_stimuli/rescaled_final/0721_rv.mp4	0.0	135.05737805366516	
19	115.47438883781433	fix_post	2		12	17.0	2.5	/experiments/AOT/AOT_stimuli/rescaled_final/0721_rv.mp4	0.0	136.3738658428192	0.09999608993530273
20	115.57438492774963	fix_pre	0		120	18.0	2.5	/experiments/AOT/AOT_stimuli/rescaled_final/1046_rv.mp4	0.0	136.47386193275452	0.9995989799499512
20	115.75784087181091	pulse	0	t		18.0	2.5	/experiments/AOT/AOT_stimuli/rescaled_final/1046_rv.mp4	0.0	136.6573178768158	
20	116.57398390769958	movie	1		244	18.0	2.5	/experiments/AOT/AOT_stimuli/rescaled_final/1046_rv.mp4	0.0	137.47346091270447	2.5003669261932373
20	117.3578748703003	pulse	1	t		18.0	2.5	/experiments/AOT/AOT_stimuli/rescaled_final/1046_rv.mp4	0.0	138.25735187530518	
20	118.96629786491394	pulse	1	t		18.0	2.5	/experiments/AOT/AOT_stimuli/rescaled_final/1046_rv.mp4	0.0	139.86577486991882	
20	119.07435083389282	fix_post	2		12	18.0	2.5	/experiments/AOT/AOT_stimuli/rescaled_final/1046_rv.mp4	0.0	139.9738278388977	0.09999513626098633
21	119.17434597015381	fix_pre	0		120	19.0	2.5	blank	1.0	140.0738229751587	1.0000219345092773
21	120.17436790466309	movie	1		300	19.0	2.5	blank	1.0	141.07384490966797	2.500009059906006
21	120.55794286727905	pulse	1	t		19.0	2.5	blank	1.0	141.45741987228394	
21	122.15780186653137	pulse	1	t		19.0	2.5	blank	1.0	143.05727887153625	
21	122.67437696456909	fix_post	2		12	19.0	2.5	blank	1.0	143.57385396957397	0.09963393211364746
22	122.77401089668274	fix_pre	0		119	20.0	2.5	/experiments/AOT/AOT_stimuli/rescaled_final/1093_fw.mp4	0.0	143.67348790168762	0.9919919967651367
22	123.75785303115845	pulse	0	t		20.0	2.5	/experiments/AOT/AOT_stimuli/rescaled_final/1093_fw.mp4	0.0	144.65733003616333	
22	123.76600289344788	movie	1		245	20.0	2.5	/experiments/AOT/AOT_stimuli/rescaled_final/1093_fw.mp4	0.0	144.66547989845276	2.5083250999450684
22	125.35766100883484	pulse	1	t		20.0	2.5	/experiments/AOT/AOT_stimuli/rescaled_final/1093_fw.mp4	0.0	146.25713801383972	
22	126.27432799339294	fix_post	2		12	20.0	2.5	/experiments/AOT/AOT_stimuli/rescaled_final/1093_fw.mp4	0.0	147.17380499839783	0.09999299049377441
23	126.37432098388672	fix_pre	0		120	21.0	2.5	/experiments/AOT/AOT_stimuli/rescaled_final/1802_rv.mp4	0.0	147.2737979888916	1.0000829696655273
23	126.95782089233398	pulse	0	t		21.0	2.5	/experiments/AOT/AOT_stimuli/rescaled_final/1802_rv.mp4	0.0	147.85729789733887	
23	127.37440395355225	movie	1		245	21.0	2.5	/experiments/AOT/AOT_stimuli/rescaled_final/1802_rv.mp4	0.0	148.27388095855713	2.499490976333618
23	128.5579240322113	pulse	1	t		21.0	2.5	/experiments/AOT/AOT_stimuli/rescaled_final/1802_rv.mp4	0.0	149.4574010372162	
23	129.87389492988586	fix_post	2		12	21.0	2.5	/experiments/AOT/AOT_stimuli/rescaled_final/1802_rv.mp4	0.0	150.77337193489075	0.10048699378967285
24	129.97438192367554	fix_pre	0		120	22.0	2.5	/experiments/AOT/AOT_stimuli/rescaled_final/1207_rv.mp4	0.0	150.87385892868042	0.9999608993530273
24	130.15778493881226	pulse	0	t		22.0	2.5	/experiments/AOT/AOT_stimuli/rescaled_final/1207_rv.mp4	0.0	151.05726194381714	
24	130.97434282302856	movie	1		246	22.0	2.5	/experiments/AOT/AOT_stimuli/rescaled_final/1207_rv.mp4	0.0	151.87381982803345	2.4999001026153564
24	131.75782895088196	pulse	1	t		22.0	2.5	/experiments/AOT/AOT_stimuli/rescaled_final/1207_rv.mp4	0.0	152.65730595588684	
24	133.3567988872528	pulse	1	t		22.0	2.5	/experiments/AOT/AOT_stimuli/rescaled_final/1207_rv.mp4	0.0	154.2562758922577	
24	133.47424292564392	fix_post	2		12	22.0	2.5	/experiments/AOT/AOT_stimuli/rescaled_final/1207_rv.mp4	0.0	154.3737199306488	0.10001301765441895
25	133.57425594329834	fix_pre	0		120	23.0	2.5	/experiments/AOT/AOT_stimuli/rescaled_final/2130_rv.mp4	0.0	154.47373294830322	0.9995620250701904
25	134.57381796836853	movie	1		247	23.0	2.5	/experiments/AOT/AOT_stimuli/rescaled_final/2130_rv.mp4	0.0	155.4732949733734	2.500040054321289
25	134.95756602287292	pulse	1	t		23.0	2.5	/experiments/AOT/AOT_stimuli/rescaled_final/2130_rv.mp4	0.0	155.8570430278778	
25	136.55768704414368	pulse	1	t		23.0	2.5	/experiments/AOT/AOT_stimuli/rescaled_final/2130_rv.mp4	0.0	157.45716404914856	
25	137.07385802268982	fix_post	2		12	23.0	2.5	/experiments/AOT/AOT_stimuli/rescaled_final/2130_rv.mp4	0.0	157.9733350276947	0.10044503211975098
26	137.17430305480957	fix_pre	0		119	24.0	2.5	/experiments/AOT/AOT_stimuli/rescaled_final/0810_fw.mp4	0.0	158.07378005981445	0.991602897644043
26	138.15779995918274	pulse	0	t		24.0	2.5	/experiments/AOT/AOT_stimuli/rescaled_final/0810_fw.mp4	0.0	159.05727696418762	
26	138.1659059524536	movie	1		245	24.0	2.5	/experiments/AOT/AOT_stimuli/rescaled_final/0810_fw.mp4	0.0	159.0653829574585	2.5079610347747803
26	139.75745487213135	pulse	1	t		24.0	2.5	/experiments/AOT/AOT_stimuli/rescaled_final/0810_fw.mp4	0.0	160.65693187713623	
26	140.6738669872284	fix_post	2		12	24.0	2.5	/experiments/AOT/AOT_stimuli/rescaled_final/0810_fw.mp4	0.0	161.57334399223328	0.1004178524017334
27	140.77428483963013	fix_pre	0		120	25.0	2.5	/experiments/AOT/AOT_stimuli/rescaled_final/0043_rv.mp4	0.0	161.673761844635	0.9999639987945557
27	141.35779905319214	pulse	0	t		25.0	2.5	/experiments/AOT/AOT_stimuli/rescaled_final/0043_rv.mp4	0.0	162.25727605819702	
27	141.77424883842468	movie	1		243	25.0	2.5	/experiments/AOT/AOT_stimuli/rescaled_final/0043_rv.mp4	0.0	162.67372584342957	2.499988079071045
27	142.95780682563782	pulse	1	t		25.0	2.5	/experiments/AOT/AOT_stimuli/rescaled_final/0043_rv.mp4	0.0	163.8572838306427	
27	144.27423691749573	fix_post	2		12	25.0	2.5	/experiments/AOT/AOT_stimuli/rescaled_final/0043_rv.mp4	0.0	165.1737139225006	0.10001301765441895
28	144.37424993515015	fix_pre	0		120	26.0	2.5	/experiments/AOT/AOT_stimuli/rescaled_final/1364_fw.mp4	0.0	165.27372694015503	0.9999749660491943
28	144.5577688217163	pulse	0	t		26.0	2.5	/experiments/AOT/AOT_stimuli/rescaled_final/1364_fw.mp4	0.0	165.4572458267212	
28	145.37422490119934	movie	1		244	26.0	2.5	/experiments/AOT/AOT_stimuli/rescaled_final/1364_fw.mp4	0.0	166.27370190620422	2.500062942504883
28	146.1576328277588	pulse	1	t		26.0	2.5	/experiments/AOT/AOT_stimuli/rescaled_final/1364_fw.mp4	0.0	167.05710983276367	
28	147.76619696617126	pulse	1	t		26.0	2.5	/experiments/AOT/AOT_stimuli/rescaled_final/1364_fw.mp4	0.0	168.66567397117615	
28	147.87428784370422	fix_post	2		12	26.0	2.5	/experiments/AOT/AOT_stimuli/rescaled_final/1364_fw.mp4	0.0	168.7737648487091	0.09999299049377441
29	147.974280834198	fix_pre	0		120	27.0	2.5	/experiments/AOT/AOT_stimuli/rescaled_final/0667_rv.mp4	0.0	168.87375783920288	0.9995441436767578
29	148.97382497787476	movie	1		242	27.0	2.5	/experiments/AOT/AOT_stimuli/rescaled_final/0667_rv.mp4	0.0	169.87330198287964	2.50039005279541
29	149.35731196403503	pulse	1	t		27.0	2.5	/experiments/AOT/AOT_stimuli/rescaled_final/0667_rv.mp4	0.0	170.25678896903992	
29	150.9576919078827	pulse	1	t		27.0	2.5	/experiments/AOT/AOT_stimuli/rescaled_final/0667_rv.mp4	0.0	171.85716891288757	
29	151.47421503067017	fix_post	2		12	27.0	2.5	/experiments/AOT/AOT_stimuli/rescaled_final/0667_rv.mp4	0.0	172.37369203567505	0.09998893737792969
30	151.5742039680481	fix_pre	0		119	28.0	2.5	blank	1.0	172.47368097305298	0.9916379451751709
30	152.55773496627808	pulse	0	t		28.0	2.5	blank	1.0	173.45721197128296	
30	152.56584191322327	movie	1		301	28.0	2.5	blank	1.0	173.46531891822815	2.5083460807800293
30	154.15770983695984	pulse	1	t		28.0	2.5	blank	1.0	175.05718684196472	
30	155.0741879940033	fix_post	2		12	28.0	2.5	blank	1.0	175.97366499900818	0.10006284713745117
31	155.17425084114075	fix_pre	0		120	29.0	2.5	/experiments/AOT/AOT_stimuli/rescaled_final/0192_fw.mp4	0.0	176.07372784614563	0.9995410442352295
31	155.75781202316284	pulse	0	t		29.0	2.5	/experiments/AOT/AOT_stimuli/rescaled_final/0192_fw.mp4	0.0	176.65728902816772	
31	156.17379188537598	movie	1		247	29.0	2.5	/experiments/AOT/AOT_stimuli/rescaled_final/0192_fw.mp4	0.0	177.07326889038086	2.499997138977051
31	157.35789489746094	pulse	1	t		29.0	2.5	/experiments/AOT/AOT_stimuli/rescaled_final/0192_fw.mp4	0.0	178.25737190246582	
31	158.67378902435303	fix_post	2		12	29.0	2.5	/experiments/AOT/AOT_stimuli/rescaled_final/0192_fw.mp4	0.0	179.5732660293579	0.10048890113830566
32	158.77427792549133	fix_pre	0		120	30.0	2.5	/experiments/AOT/AOT_stimuli/rescaled_final/0130_rv.mp4	0.0	179.67375493049622	0.9995601177215576
32	158.95779705047607	pulse	0	t		30.0	2.5	/experiments/AOT/AOT_stimuli/rescaled_final/0130_rv.mp4	0.0	179.85727405548096	
32	159.7738380432129	movie	1		244	30.0	2.5	/experiments/AOT/AOT_stimuli/rescaled_final/0130_rv.mp4	0.0	180.67331504821777	2.4999098777770996
32	160.55780792236328	pulse	1	t		30.0	2.5	/experiments/AOT/AOT_stimuli/rescaled_final/0130_rv.mp4	0.0	181.45728492736816	
32	162.1576669216156	pulse	1	t		30.0	2.5	/experiments/AOT/AOT_stimuli/rescaled_final/0130_rv.mp4	0.0	183.05714392662048	
32	162.27374792099	fix_post	2		12	30.0	2.5	/experiments/AOT/AOT_stimuli/rescaled_final/0130_rv.mp4	0.0	183.17322492599487	0.10042190551757812
33	162.37416982650757	fix_pre	0		120	31.0	2.5	/experiments/AOT/AOT_stimuli/rescaled_final/0153_rv.mp4	0.0	183.27364683151245	1.0000410079956055
33	163.37421083450317	movie	1		244	31.0	2.5	/experiments/AOT/AOT_stimuli/rescaled_final/0153_rv.mp4	0.0	184.27368783950806	2.499488115310669
33	163.7569019794464	pulse	1	t		31.0	2.5	/experiments/AOT/AOT_stimuli/rescaled_final/0153_rv.mp4	0.0	184.6563789844513	
33	165.35758686065674	pulse	1	t		31.0	2.5	/experiments/AOT/AOT_stimuli/rescaled_final/0153_rv.mp4	0.0	186.25706386566162	
33	165.87369894981384	fix_post	2		12	31.0	2.5	/experiments/AOT/AOT_stimuli/rescaled_final/0153_rv.mp4	0.0	186.77317595481873	0.10046195983886719
34	165.9741609096527	fix_pre	0		119	32.0	2.5	/experiments/AOT/AOT_stimuli/rescaled_final/2012_rv.mp4	0.0	186.8736379146576	0.9916520118713379
34	166.95757484436035	pulse	0	t		32.0	2.5	/experiments/AOT/AOT_stimuli/rescaled_final/2012_rv.mp4	0.0	187.85705184936523	
34	166.96581292152405	movie	1		245	32.0	2.5	/experiments/AOT/AOT_stimuli/rescaled_final/2012_rv.mp4	0.0	187.86528992652893	2.508388042449951
34	168.55756402015686	pulse	1	t		32.0	2.5	/experiments/AOT/AOT_stimuli/rescaled_final/2012_rv.mp4	0.0	189.45704102516174	
34	169.474200963974	fix_post	2		12	32.0	2.5	/experiments/AOT/AOT_stimuli/rescaled_final/2012_rv.mp4	0.0	190.37367796897888	0.09992003440856934
35	169.57412099838257	fix_pre	0		120	33.0	2.5	/experiments/AOT/AOT_stimuli/rescaled_final/1910_fw.mp4	0.0	190.47359800338745	0.999992847442627
35	170.15753293037415	pulse	0	t		33.0	2.5	/experiments/AOT/AOT_stimuli/rescaled_final/1910_fw.mp4	0.0	191.05700993537903	
35	170.5741138458252	movie	1		244	33.0	2.5	/experiments/AOT/AOT_stimuli/rescaled_final/1910_fw.mp4	0.0	191.47359085083008	2.4995360374450684
35	171.7576379776001	pulse	1	t		33.0	2.5	/experiments/AOT/AOT_stimuli/rescaled_final/1910_fw.mp4	0.0	192.65711498260498	
35	173.07364988327026	fix_post	2		12	33.0	2.5	/experiments/AOT/AOT_stimuli/rescaled_final/1910_fw.mp4	0.0	193.97312688827515	0.10049295425415039
36	173.1741428375244	fix_pre	0		120	34.0	2.5	/experiments/AOT/AOT_stimuli/rescaled_final/1153_rv.mp4	0.0	194.0736198425293	0.9995670318603516
36	173.35759496688843	pulse	0	t		34.0	2.5	/experiments/AOT/AOT_stimuli/rescaled_final/1153_rv.mp4	0.0	194.2570719718933	
36	174.17370986938477	movie	1		244	34.0	2.5	/experiments/AOT/AOT_stimuli/rescaled_final/1153_rv.mp4	0.0	195.07318687438965	2.4999639987945557
36	174.95748090744019	pulse	1	t		34.0	2.5	/experiments/AOT/AOT_stimuli/rescaled_final/1153_rv.mp4	0.0	195.85695791244507	
36	176.56621193885803	pulse	1	t		34.0	2.5	/experiments/AOT/AOT_stimuli/rescaled_final/1153_rv.mp4	0.0	197.46568894386292	
36	176.67367386817932	fix_post	2		12	34.0	2.5	/experiments/AOT/AOT_stimuli/rescaled_final/1153_rv.mp4	0.0	197.5731508731842	0.10037899017333984
37	176.77405285835266	fix_pre	0		120	35.0	2.5	blank	1.0	197.67352986335754	1.0001440048217773
37	177.77419686317444	movie	1		300	35.0	2.5	blank	1.0	198.67367386817932	2.499850034713745
37	178.15762591362	pulse	1	t		35.0	2.5	blank	1.0	199.05710291862488	
37	179.75759196281433	pulse	1	t		35.0	2.5	blank	1.0	200.6570689678192	
37	180.27404689788818	fix_post	2		12	35.0	2.5	blank	1.0	201.17352390289307	0.10003113746643066
38	180.37407803535461	fix_pre	0		119	36.0	2.5	/experiments/AOT/AOT_stimuli/rescaled_final/1945_rv.mp4	0.0	201.2735550403595	0.9916648864746094
38	181.35761904716492	pulse	0	t		36.0	2.5	/experiments/AOT/AOT_stimuli/rescaled_final/1945_rv.mp4	0.0	202.2570960521698	
38	181.36574292182922	movie	1		245	36.0	2.5	/experiments/AOT/AOT_stimuli/rescaled_final/1945_rv.mp4	0.0	202.2652199268341	2.5083959102630615
38	182.95718002319336	pulse	1	t		36.0	2.5	/experiments/AOT/AOT_stimuli/rescaled_final/1945_rv.mp4	0.0	203.85665702819824	
38	183.87413883209229	fix_post	2		12	36.0	2.5	/experiments/AOT/AOT_stimuli/rescaled_final/1945_rv.mp4	0.0	204.77361583709717	0.09997105598449707
39	183.97410988807678	fix_pre	0		120	37.0	2.5	/experiments/AOT/AOT_stimuli/rescaled_final/2130_fw.mp4	0.0	204.87358689308167	0.999528169631958
39	184.55752396583557	pulse	0	t		37.0	2.5	/experiments/AOT/AOT_stimuli/rescaled_final/2130_fw.mp4	0.0	205.45700097084045	
39	184.97363805770874	movie	1		248	37.0	2.5	/experiments/AOT/AOT_stimuli/rescaled_final/2130_fw.mp4	0.0	205.87311506271362	2.5004169940948486
39	186.15772104263306	pulse	1	t		37.0	2.5	/experiments/AOT/AOT_stimuli/rescaled_final/2130_fw.mp4	0.0	207.05719804763794	
39	187.4740550518036	fix_post	2		12	37.0	2.5	/experiments/AOT/AOT_stimuli/rescaled_final/2130_fw.mp4	0.0	208.37353205680847	0.09995198249816895
40	187.57400703430176	fix_pre	0		120	38.0	2.5	/experiments/AOT/AOT_stimuli/rescaled_final/1647_fw.mp4	0.0	208.47348403930664	1.000072956085205
40	187.7575240135193	pulse	0	t		38.0	2.5	/experiments/AOT/AOT_stimuli/rescaled_final/1647_fw.mp4	0.0	208.65700101852417	
40	188.57407999038696	movie	1		243	38.0	2.5	/experiments/AOT/AOT_stimuli/rescaled_final/1647_fw.mp4	0.0	209.47355699539185	2.499845027923584
40	189.35749697685242	pulse	1	t		38.0	2.5	/experiments/AOT/AOT_stimuli/rescaled_final/1647_fw.mp4	0.0	210.2569739818573	
40	190.96594190597534	pulse	1	t		38.0	2.5	/experiments/AOT/AOT_stimuli/rescaled_final/1647_fw.mp4	0.0	211.86541891098022	
40	191.07392501831055	fix_post	2		12	38.0	2.5	/experiments/AOT/AOT_stimuli/rescaled_final/1647_fw.mp4	0.0	211.97340202331543	0.10028600692749023
41	191.17421102523804	fix_pre	0		120	39.0	2.5	/experiments/AOT/AOT_stimuli/rescaled_final/1499_rv.mp4	0.0	212.07368803024292	0.9997730255126953
41	192.17398405075073	movie	1		244	39.0	2.5	/experiments/AOT/AOT_stimuli/rescaled_final/1499_rv.mp4	0.0	213.07346105575562	2.5000038146972656
41	192.5571858882904	pulse	1	t		39.0	2.5	/experiments/AOT/AOT_stimuli/rescaled_final/1499_rv.mp4	0.0	213.4566628932953	
41	194.1575698852539	pulse	1	t		39.0	2.5	/experiments/AOT/AOT_stimuli/rescaled_final/1499_rv.mp4	0.0	215.0570468902588	
41	194.673987865448	fix_post	2		12	39.0	2.5	/experiments/AOT/AOT_stimuli/rescaled_final/1499_rv.mp4	0.0	215.57346487045288	0.09992814064025879
42	194.77391600608826	fix_pre	0		119	40.0	2.5	blank	1.0	215.67339301109314	0.9917168617248535
42	195.7576768398285	pulse	0	t		40.0	2.5	blank	1.0	216.65715384483337	
42	195.7656328678131	movie	1		301	40.0	2.5	blank	1.0	216.665109872818	2.5082900524139404
42	197.35749983787537	pulse	1	t		40.0	2.5	blank	1.0	218.25697684288025	
42	198.27392292022705	fix_post	2		12	40.0	2.5	blank	1.0	219.17339992523193	0.1001279354095459
43	198.3740508556366	fix_pre	0		120	41.0	2.5	/experiments/AOT/AOT_stimuli/rescaled_final/0996_fw.mp4	0.0	219.27352786064148	0.999981164932251
43	198.95749187469482	pulse	0	t		41.0	2.5	/experiments/AOT/AOT_stimuli/rescaled_final/0996_fw.mp4	0.0	219.8569688796997	
43	199.37403202056885	movie	1		245	41.0	2.5	/experiments/AOT/AOT_stimuli/rescaled_final/0996_fw.mp4	0.0	220.27350902557373	2.499521017074585
43	200.55756092071533	pulse	1	t		41.0	2.5	/experiments/AOT/AOT_stimuli/rescaled_final/0996_fw.mp4	0.0	221.45703792572021	
43	201.87355303764343	fix_post	2		12	41.0	2.5	/experiments/AOT/AOT_stimuli/rescaled_final/0996_fw.mp4	0.0	222.77303004264832	0.10038590431213379
44	201.97393894195557	fix_pre	0		120	42.0	2.5	/experiments/AOT/AOT_stimuli/rescaled_final/0546_fw.mp4	0.0	222.87341594696045	1.0000851154327393
44	202.15749382972717	pulse	0	t		42.0	2.5	/experiments/AOT/AOT_stimuli/rescaled_final/0546_fw.mp4	0.0	223.05697083473206	
44	202.9740240573883	movie	1		244	42.0	2.5	/experiments/AOT/AOT_stimuli/rescaled_final/0546_fw.mp4	0.0	223.8735010623932	2.4999029636383057
44	203.75747394561768	pulse	1	t		42.0	2.5	/experiments/AOT/AOT_stimuli/rescaled_final/0546_fw.mp4	0.0	224.65695095062256	
44	205.365895986557	pulse	1	t		42.0	2.5	/experiments/AOT/AOT_stimuli/rescaled_final/0546_fw.mp4	0.0	226.2653729915619	
44	205.4739270210266	fix_post	2		12	42.0	2.5	/experiments/AOT/AOT_stimuli/rescaled_final/0546_fw.mp4	0.0	226.3734040260315	0.1000669002532959
45	205.5739939212799	fix_pre	0		120	43.0	2.5	/experiments/AOT/AOT_stimuli/rescaled_final/1992_fw.mp4	0.0	226.4734709262848	1.0000460147857666
45	206.57403993606567	movie	1		243	43.0	2.5	/experiments/AOT/AOT_stimuli/rescaled_final/1992_fw.mp4	0.0	227.47351694107056	2.499922037124634
45	206.95701599121094	pulse	1	t		43.0	2.5	/experiments/AOT/AOT_stimuli/rescaled_final/1992_fw.mp4	0.0	227.85649299621582	
45	208.55739402770996	pulse	1	t		43.0	2.5	/experiments/AOT/AOT_stimuli/rescaled_final/1992_fw.mp4	0.0	229.45687103271484	
45	209.0739619731903	fix_post	2		12	43.0	2.5	/experiments/AOT/AOT_stimuli/rescaled_final/1992_fw.mp4	0.0	229.9734389781952	0.10002493858337402
46	209.17398691177368	fix_pre	0		119	44.0	2.5	/experiments/AOT/AOT_stimuli/rescaled_final/1099_fw.mp4	0.0	230.07346391677856	0.9916081428527832
46	210.15747690200806	pulse	0	t		44.0	2.5	/experiments/AOT/AOT_stimuli/rescaled_final/1099_fw.mp4	0.0	231.05695390701294	
46	210.16559505462646	movie	1		245	44.0	2.5	/experiments/AOT/AOT_stimuli/rescaled_final/1099_fw.mp4	0.0	231.06507205963135	2.5080788135528564
46	211.7571349143982	pulse	1	t		44.0	2.5	/experiments/AOT/AOT_stimuli/rescaled_final/1099_fw.mp4	0.0	232.65661191940308	
46	212.67367386817932	fix_post	2		12	44.0	2.5	/experiments/AOT/AOT_stimuli/rescaled_final/1099_fw.mp4	0.0	233.5731508731842	0.10027408599853516
47	212.77394795417786	fix_pre	0		120	45.0	2.5	/experiments/AOT/AOT_stimuli/rescaled_final/0023_fw.mp4	0.0	233.67342495918274	1.0001049041748047
47	213.35739493370056	pulse	0	t		45.0	2.5	/experiments/AOT/AOT_stimuli/rescaled_final/0023_fw.mp4	0.0	234.25687193870544	
47	213.77405285835266	movie	1		244	45.0	2.5	/experiments/AOT/AOT_stimuli/rescaled_final/0023_fw.mp4	0.0	234.67352986335754	2.499951124191284
47	214.95700597763062	pulse	1	t		45.0	2.5	/experiments/AOT/AOT_stimuli/rescaled_final/0023_fw.mp4	0.0	235.8564829826355	
47	216.27400398254395	fix_post	2		12	45.0	2.5	/experiments/AOT/AOT_stimuli/rescaled_final/0023_fw.mp4	0.0	237.17348098754883	0.1000819206237793
48	216.37408590316772	fix_pre	0		120	46.0	2.5	/experiments/AOT/AOT_stimuli/rescaled_final/1046_rv.mp4	0.0	237.2735629081726	1.0000920295715332
48	216.55761003494263	pulse	0	t		46.0	2.5	/experiments/AOT/AOT_stimuli/rescaled_final/1046_rv.mp4	0.0	237.4570870399475	
48	217.37417793273926	movie	1		243	46.0	2.5	/experiments/AOT/AOT_stimuli/rescaled_final/1046_rv.mp4	0.0	238.27365493774414	2.49977707862854
48	218.15733098983765	pulse	1	t		46.0	2.5	/experiments/AOT/AOT_stimuli/rescaled_final/1046_rv.mp4	0.0	239.05680799484253	
48	219.7658669948578	pulse	1	t		46.0	2.5	/experiments/AOT/AOT_stimuli/rescaled_final/1046_rv.mp4	0.0	240.66534399986267	
48	219.8739550113678	fix_post	2		12	46.0	2.5	/experiments/AOT/AOT_stimuli/rescaled_final/1046_rv.mp4	0.0	240.77343201637268	0.09946894645690918
49	219.9734239578247	fix_pre	0		120	47.0	2.5	blank	1.0	240.8729009628296	1.0004940032958984
49	220.9739179611206	movie	1		300	47.0	2.5	blank	1.0	241.8733949661255	2.4999239444732666
49	221.35732984542847	pulse	1	t		47.0	2.5	blank	1.0	242.25680685043335	
49	222.95730304718018	pulse	1	t		47.0	2.5	blank	1.0	243.85678005218506	
49	223.47384190559387	fix_post	2		12	47.0	2.5	blank	1.0	244.37331891059875	0.09998512268066406
50	223.57382702827454	fix_pre	0		119	48.0	2.5	/experiments/AOT/AOT_stimuli/rescaled_final/0940_rv.mp4	0.0	244.47330403327942	0.9917550086975098
50	224.55736899375916	pulse	0	t		48.0	2.5	/experiments/AOT/AOT_stimuli/rescaled_final/0940_rv.mp4	0.0	245.45684599876404	
50	224.56558203697205	movie	1		245	48.0	2.5	/experiments/AOT/AOT_stimuli/rescaled_final/0940_rv.mp4	0.0	245.46505904197693	2.5078728199005127
50	226.15696692466736	pulse	1	t		48.0	2.5	/experiments/AOT/AOT_stimuli/rescaled_final/0940_rv.mp4	0.0	247.05644392967224	
50	227.07345485687256	fix_post	2		12	48.0	2.5	/experiments/AOT/AOT_stimuli/rescaled_final/0940_rv.mp4	0.0	247.97293186187744	0.10039401054382324
51	227.17384886741638	fix_pre	0		120	49.0	2.5	/experiments/AOT/AOT_stimuli/rescaled_final/0913_fw.mp4	0.0	248.07332587242126	1.0000791549682617
51	227.7572798728943	pulse	0	t		49.0	2.5	/experiments/AOT/AOT_stimuli/rescaled_final/0913_fw.mp4	0.0	248.65675687789917	
51	228.17392802238464	movie	1		246	49.0	2.5	/experiments/AOT/AOT_stimuli/rescaled_final/0913_fw.mp4	0.0	249.07340502738953	2.4999430179595947
51	229.3573739528656	pulse	1	t		49.0	2.5	/experiments/AOT/AOT_stimuli/rescaled_final/0913_fw.mp4	0.0	250.25685095787048	
51	230.67387104034424	fix_post	2		12	49.0	2.5	/experiments/AOT/AOT_stimuli/rescaled_final/0913_fw.mp4	0.0	251.57334804534912	0.09995794296264648
52	230.77382898330688	fix_pre	0		120	50.0	2.5	/experiments/AOT/AOT_stimuli/rescaled_final/0907_rv.mp4	0.0	251.67330598831177	0.9996130466461182
52	230.95740604400635	pulse	0	t		50.0	2.5	/experiments/AOT/AOT_stimuli/rescaled_final/0907_rv.mp4	0.0	251.85688304901123	
52	231.773442029953	movie	1		244	50.0	2.5	/experiments/AOT/AOT_stimuli/rescaled_final/0907_rv.mp4	0.0	252.67291903495789	2.499980926513672
52	232.5573468208313	pulse	1	t		50.0	2.5	/experiments/AOT/AOT_stimuli/rescaled_final/0907_rv.mp4	0.0	253.45682382583618	
52	234.16577982902527	pulse	1	t		50.0	2.5	/experiments/AOT/AOT_stimuli/rescaled_final/0907_rv.mp4	0.0	255.06525683403015	
52	234.27342295646667	fix_post	2		12	50.0	2.5	/experiments/AOT/AOT_stimuli/rescaled_final/0907_rv.mp4	0.0	255.17289996147156	0.10043787956237793
53	234.37386083602905	fix_pre	0		120	51.0	2.5	/experiments/AOT/AOT_stimuli/rescaled_final/1506_fw.mp4	0.0	255.27333784103394	0.9995701313018799
53	235.37343096733093	movie	1		243	51.0	2.5	/experiments/AOT/AOT_stimuli/rescaled_final/1506_fw.mp4	0.0	256.2729079723358	2.4999959468841553
53	235.75721788406372	pulse	1	t		51.0	2.5	/experiments/AOT/AOT_stimuli/rescaled_final/1506_fw.mp4	0.0	256.6566948890686	
53	237.35725903511047	pulse	1	t		51.0	2.5	/experiments/AOT/AOT_stimuli/rescaled_final/1506_fw.mp4	0.0	258.25673604011536	
53	237.8734269142151	fix_post	2		12	51.0	2.5	/experiments/AOT/AOT_stimuli/rescaled_final/1506_fw.mp4	0.0	258.77290391921997	0.10036611557006836
54	237.97379302978516	fix_pre	0		119	52.0	2.5	/experiments/AOT/AOT_stimuli/rescaled_final/0239_rv.mp4	0.0	258.87327003479004	0.9916989803314209
54	238.95729684829712	pulse	0	t		52.0	2.5	/experiments/AOT/AOT_stimuli/rescaled_final/0239_rv.mp4	0.0	259.856773853302	
54	238.96549201011658	movie	1		245	52.0	2.5	/experiments/AOT/AOT_stimuli/rescaled_final/0239_rv.mp4	0.0	259.86496901512146	2.5082879066467285
54	240.55711483955383	pulse	1	t		52.0	2.5	/experiments/AOT/AOT_stimuli/rescaled_final/0239_rv.mp4	0.0	261.4565918445587	
54	241.4737799167633	fix_post	2		12	52.0	2.5	/experiments/AOT/AOT_stimuli/rescaled_final/0239_rv.mp4	0.0	262.3732569217682	0.09993910789489746
55	241.5737190246582	fix_pre	0		120	53.0	2.5	/experiments/AOT/AOT_stimuli/rescaled_final/1833_rv.mp4	0.0	262.4731960296631	1.0001788139343262
55	242.15722703933716	pulse	0	t		53.0	2.5	/experiments/AOT/AOT_stimuli/rescaled_final/1833_rv.mp4	0.0	263.05670404434204	
55	242.57389783859253	movie	1		243	53.0	2.5	/experiments/AOT/AOT_stimuli/rescaled_final/1833_rv.mp4	0.0	263.4733748435974	2.4994711875915527
55	243.75732588768005	pulse	1	t		53.0	2.5	/experiments/AOT/AOT_stimuli/rescaled_final/1833_rv.mp4	0.0	264.65680289268494	
55	245.07336902618408	fix_post	2		12	53.0	2.5	/experiments/AOT/AOT_stimuli/rescaled_final/1833_rv.mp4	0.0	265.97284603118896	0.10045695304870605
56	245.1738259792328	fix_pre	0		120	54.0	2.5	blank	1.0	266.07330298423767	0.99959397315979
56	245.35729789733887	pulse	0	t		54.0	2.5	blank	1.0	266.25677490234375	
56	246.17341995239258	movie	1		300	54.0	2.5	blank	1.0	267.07289695739746	2.5004520416259766
56	246.95733189582825	pulse	1	t		54.0	2.5	blank	1.0	267.85680890083313	
56	248.55721998214722	pulse	1	t		54.0	2.5	blank	1.0	269.4566969871521	
56	248.67387199401855	fix_post	2		12	54.0	2.5	blank	1.0	269.57334899902344	0.09995388984680176
57	248.77382588386536	fix_pre	0		120	55.0	2.5	/experiments/AOT/AOT_stimuli/rescaled_final/2150_fw.mp4	0.0	269.67330288887024	0.9999840259552002
57	249.77380990982056	movie	1		243	55.0	2.5	/experiments/AOT/AOT_stimuli/rescaled_final/2150_fw.mp4	0.0	270.67328691482544	2.4995710849761963
57	250.15739393234253	pulse	1	t		55.0	2.5	/experiments/AOT/AOT_stimuli/rescaled_final/2150_fw.mp4	0.0	271.0568709373474	
57	251.7572159767151	pulse	1	t		55.0	2.5	/experiments/AOT/AOT_stimuli/rescaled_final/2150_fw.mp4	0.0	272.65669298171997	
57	252.27338099479675	fix_post	2		12	55.0	2.5	/experiments/AOT/AOT_stimuli/rescaled_final/2150_fw.mp4	0.0	273.17285799980164	0.10041403770446777
58	252.37379503250122	fix_pre	0		119	56.0	2.5	/experiments/AOT/AOT_stimuli/rescaled_final/1612_fw.mp4	0.0	273.2732720375061	0.9915637969970703
58	253.35723495483398	pulse	0	t		56.0	2.5	/experiments/AOT/AOT_stimuli/rescaled_final/1612_fw.mp4	0.0	274.25671195983887	
58	253.3653588294983	movie	1		245	56.0	2.5	/experiments/AOT/AOT_stimuli/rescaled_final/1612_fw.mp4	0.0	274.2648358345032	2.5083110332489014
58	254.95734286308289	pulse	1	t		56.0	2.5	/experiments/AOT/AOT_stimuli/rescaled_final/1612_fw.mp4	0.0	275.85681986808777	
58	255.8736698627472	fix_post	2		12	56.0	2.5	/experiments/AOT/AOT_stimuli/rescaled_final/1612_fw.mp4	0.0	276.7731468677521	0.09969305992126465
59	255.97336292266846	fix_pre	0		120	57.0	2.5	/experiments/AOT/AOT_stimuli/rescaled_final/0312_rv.mp4	0.0	276.87283992767334	1.0003459453582764
59	256.5571839809418	pulse	0	t		57.0	2.5	/experiments/AOT/AOT_stimuli/rescaled_final/0312_rv.mp4	0.0	277.45666098594666	
59	256.97370886802673	movie	1		242	57.0	2.5	/experiments/AOT/AOT_stimuli/rescaled_final/0312_rv.mp4	0.0	277.8731858730316	2.4995901584625244
59	258.15738105773926	pulse	1	t		57.0	2.5	/experiments/AOT/AOT_stimuli/rescaled_final/0312_rv.mp4	0.0	279.05685806274414	
59	259.47329902648926	fix_post	2		12	57.0	2.5	/experiments/AOT/AOT_stimuli/rescaled_final/0312_rv.mp4	0.0	280.37277603149414	0.10036897659301758
60	259.5736680030823	fix_pre	0		120	58.0	2.5	/experiments/AOT/AOT_stimuli/rescaled_final/0962_fw.mp4	0.0	280.47314500808716	1.0001308917999268
60	259.75718998908997	pulse	0	t		58.0	2.5	/experiments/AOT/AOT_stimuli/rescaled_final/0962_fw.mp4	0.0	280.65666699409485	
60	260.5737988948822	movie	1		245	58.0	2.5	/experiments/AOT/AOT_stimuli/rescaled_final/0962_fw.mp4	0.0	281.4732758998871	2.499474048614502
60	261.3572008609772	pulse	1	t		58.0	2.5	/experiments/AOT/AOT_stimuli/rescaled_final/0962_fw.mp4	0.0	282.25667786598206	
60	262.95761799812317	pulse	1	t		58.0	2.5	/experiments/AOT/AOT_stimuli/rescaled_final/0962_fw.mp4	0.0	283.85709500312805	
60	263.0732729434967	fix_post	2		12	58.0	2.5	/experiments/AOT/AOT_stimuli/rescaled_final/0962_fw.mp4	0.0	283.9727499485016	0.10013890266418457
61	263.1734118461609	fix_pre	0		120	59.0	2.5	/experiments/AOT/AOT_stimuli/rescaled_final/1388_rv.mp4	0.0	284.07288885116577	1.0002341270446777
61	264.17364597320557	movie	1		243	59.0	2.5	/experiments/AOT/AOT_stimuli/rescaled_final/1388_rv.mp4	0.0	285.07312297821045	2.4996719360351562
61	264.55824303627014	pulse	1	t		59.0	2.5	/experiments/AOT/AOT_stimuli/rescaled_final/1388_rv.mp4	0.0	285.457720041275	
61	266.1573588848114	pulse	1	t		59.0	2.5	/experiments/AOT/AOT_stimuli/rescaled_final/1388_rv.mp4	0.0	287.0568358898163	
61	266.6733179092407	fix_post	2		12	59.0	2.5	/experiments/AOT/AOT_stimuli/rescaled_final/1388_rv.mp4	0.0	287.5727949142456	0.10044407844543457
62	266.77376198768616	fix_pre	0		119	60.0	2.5	/experiments/AOT/AOT_stimuli/rescaled_final/1895_rv.mp4	0.0	287.67323899269104	0.9915359020233154
62	267.75715684890747	pulse	0	t		60.0	2.5	/experiments/AOT/AOT_stimuli/rescaled_final/1895_rv.mp4	0.0	288.65663385391235	
62	267.7652978897095	movie	1		249	60.0	2.5	/experiments/AOT/AOT_stimuli/rescaled_final/1895_rv.mp4	0.0	288.66477489471436	2.507981061935425
62	269.3570339679718	pulse	1	t		60.0	2.5	/experiments/AOT/AOT_stimuli/rescaled_final/1895_rv.mp4	0.0	290.2565109729767	
62	270.2732789516449	fix_post	2		12	60.0	2.5	/experiments/AOT/AOT_stimuli/rescaled_final/1895_rv.mp4	0.0	291.1727559566498	0.10000491142272949
63	270.3732838630676	fix_pre	0		120	61.0	2.5	/experiments/AOT/AOT_stimuli/rescaled_final/1101_fw.mp4	0.0	291.2727608680725	0.9999589920043945
63	270.9580879211426	pulse	0	t		61.0	2.5	/experiments/AOT/AOT_stimuli/rescaled_final/1101_fw.mp4	0.0	291.85756492614746	
63	271.373242855072	movie	1		245	61.0	2.5	/experiments/AOT/AOT_stimuli/rescaled_final/1101_fw.mp4	0.0	292.2727198600769	2.500369071960449
63	272.5573718547821	pulse	1	t		61.0	2.5	/experiments/AOT/AOT_stimuli/rescaled_final/1101_fw.mp4	0.0	293.456848859787	
63	273.87361192703247	fix_post	2		12	61.0	2.5	/experiments/AOT/AOT_stimuli/rescaled_final/1101_fw.mp4	0.0	294.77308893203735	0.10006308555603027
64	273.9736750125885	fix_pre	0		120	62.0	2.5	/experiments/AOT/AOT_stimuli/rescaled_final/1207_fw.mp4	0.0	294.8731520175934	1.0000479221343994
64	274.1571729183197	pulse	0	t		62.0	2.5	/experiments/AOT/AOT_stimuli/rescaled_final/1207_fw.mp4	0.0	295.0566499233246	
64	274.9737229347229	movie	1		245	62.0	2.5	/experiments/AOT/AOT_stimuli/rescaled_final/1207_fw.mp4	0.0	295.8731999397278	2.499847888946533
64	275.75709199905396	pulse	1	t		62.0	2.5	/experiments/AOT/AOT_stimuli/rescaled_final/1207_fw.mp4	0.0	296.65656900405884	
64	277.3654680252075	pulse	1	t		62.0	2.5	/experiments/AOT/AOT_stimuli/rescaled_final/1207_fw.mp4	0.0	298.2649450302124	
64	277.47357082366943	fix_post	2		12	62.0	2.5	/experiments/AOT/AOT_stimuli/rescaled_final/1207_fw.mp4	0.0	298.3730478286743	0.10015606880187988
65	277.5737268924713	fix_pre	0		120	63.0	2.5	blank	1.0	298.4732038974762	0.9999010562896729
65	278.573627948761	movie	1		300	63.0	2.5	blank	1.0	299.47310495376587	2.499967098236084
65	278.9570369720459	pulse	1	t		63.0	2.5	blank	1.0	299.8565139770508	
65	280.5571119785309	pulse	1	t		63.0	2.5	blank	1.0	301.45658898353577	
65	281.07359504699707	fix_post	2		12	63.0	2.5	blank	1.0	301.97307205200195	0.09995794296264648
66	281.1735529899597	fix_pre	0		119	64.0	2.5	/experiments/AOT/AOT_stimuli/rescaled_final/1895_rv.mp4	0.0	302.0730299949646	0.9917118549346924
66	282.1571478843689	pulse	0	t		64.0	2.5	/experiments/AOT/AOT_stimuli/rescaled_final/1895_rv.mp4	0.0	303.0566248893738	
66	282.1652648448944	movie	1		247	64.0	2.5	/experiments/AOT/AOT_stimuli/rescaled_final/1895_rv.mp4	0.0	303.0647418498993	2.508331060409546
66	283.756551027298	pulse	1	t		64.0	2.5	/experiments/AOT/AOT_stimuli/rescaled_final/1895_rv.mp4	0.0	304.65602803230286	
66	284.67359590530396	fix_post	2		12	64.0	2.5	/experiments/AOT/AOT_stimuli/rescaled_final/1895_rv.mp4	0.0	305.57307291030884	0.10011506080627441
67	284.77371096611023	fix_pre	0		120	65.0	2.5	/experiments/AOT/AOT_stimuli/rescaled_final/0087_fw.mp4	0.0	305.6731879711151	0.9994819164276123
67	285.35836696624756	pulse	0	t		65.0	2.5	/experiments/AOT/AOT_stimuli/rescaled_final/0087_fw.mp4	0.0	306.25784397125244	
67	285.77319288253784	movie	1		245	65.0	2.5	/experiments/AOT/AOT_stimuli/rescaled_final/0087_fw.mp4	0.0	306.6726698875427	2.5004119873046875
67	286.95708203315735	pulse	1	t		65.0	2.5	/experiments/AOT/AOT_stimuli/rescaled_final/0087_fw.mp4	0.0	307.85655903816223	
67	288.27360486984253	fix_post	2		12	65.0	2.5	/experiments/AOT/AOT_stimuli/rescaled_final/0087_fw.mp4	0.0	309.1730818748474	0.09992003440856934
68	288.3735249042511	fix_pre	0		120	66.0	2.5	/experiments/AOT/AOT_stimuli/rescaled_final/0630_rv.mp4	0.0	309.273001909256	1.0000669956207275
68	288.5579550266266	pulse	0	t		66.0	2.5	/experiments/AOT/AOT_stimuli/rescaled_final/0630_rv.mp4	0.0	309.45743203163147	
68	289.3735918998718	movie	1		245	66.0	2.5	/experiments/AOT/AOT_stimuli/rescaled_final/0630_rv.mp4	0.0	310.2730689048767	2.4999799728393555
68	290.1579439640045	pulse	1	t		66.0	2.5	/experiments/AOT/AOT_stimuli/rescaled_final/0630_rv.mp4	0.0	311.0574209690094	
68	291.758003950119	pulse	1	t		66.0	2.5	/experiments/AOT/AOT_stimuli/rescaled_final/0630_rv.mp4	0.0	312.6574809551239	
68	291.8735718727112	fix_post	2		12	66.0	2.5	/experiments/AOT/AOT_stimuli/rescaled_final/0630_rv.mp4	0.0	312.77304887771606	0.09961509704589844
69	291.9731869697571	fix_pre	0		120	67.0	2.5	/experiments/AOT/AOT_stimuli/rescaled_final/0866_rv.mp4	0.0	312.87266397476196	1.0003318786621094
69	292.9735188484192	movie	1		245	67.0	2.5	/experiments/AOT/AOT_stimuli/rescaled_final/0866_rv.mp4	0.0	313.8729958534241	2.500025987625122
69	293.36558294296265	pulse	1	t		67.0	2.5	/experiments/AOT/AOT_stimuli/rescaled_final/0866_rv.mp4	0.0	314.26505994796753	
69	294.95702600479126	pulse	1	t		67.0	2.5	/experiments/AOT/AOT_stimuli/rescaled_final/0866_rv.mp4	0.0	315.85650300979614	
69	295.4735448360443	fix_post	2		12	67.0	2.5	/experiments/AOT/AOT_stimuli/rescaled_final/0866_rv.mp4	0.0	316.3730218410492	0.1000070571899414
70	295.57355189323425	fix_pre	0		119	68.0	2.5	blank	1.0	316.47302889823914	0.9916279315948486
70	296.5571508407593	pulse	0	t		68.0	2.5	blank	1.0	317.45662784576416	
70	296.5651798248291	movie	1		301	68.0	2.5	blank	1.0	317.464656829834	2.5078601837158203
70	298.1570110321045	pulse	1	t		68.0	2.5	blank	1.0	319.0564880371094	
70	299.0730400085449	fix_post	2		12	68.0	2.5	blank	1.0	319.9725170135498	0.10008001327514648
71	299.17312002182007	fix_pre	0		120	69.0	2.5	/experiments/AOT/AOT_stimuli/rescaled_final/2091_rv.mp4	0.0	320.07259702682495	1.0004208087921143
71	299.7570459842682	pulse	0	t		69.0	2.5	/experiments/AOT/AOT_stimuli/rescaled_final/2091_rv.mp4	0.0	320.65652298927307	
71	300.1735408306122	movie	1		245	69.0	2.5	/experiments/AOT/AOT_stimuli/rescaled_final/2091_rv.mp4	0.0	321.07301783561707	2.4995741844177246
71	301.35709404945374	pulse	1	t		69.0	2.5	/experiments/AOT/AOT_stimuli/rescaled_final/2091_rv.mp4	0.0	322.2565710544586	
71	302.6731150150299	fix_post	2		12	69.0	2.5	/experiments/AOT/AOT_stimuli/rescaled_final/2091_rv.mp4	0.0	323.5725920200348	0.10040497779846191
72	302.77351999282837	fix_pre	0		120	70.0	2.5	/experiments/AOT/AOT_stimuli/rescaled_final/0233_rv.mp4	0.0	323.67299699783325	1.0000450611114502
72	302.9570748806	pulse	0	t		70.0	2.5	/experiments/AOT/AOT_stimuli/rescaled_final/0233_rv.mp4	0.0	323.85655188560486	
72	303.7735650539398	movie	1		243	70.0	2.5	/experiments/AOT/AOT_stimuli/rescaled_final/0233_rv.mp4	0.0	324.6730420589447	2.499513864517212
72	304.55782103538513	pulse	1	t		70.0	2.5	/experiments/AOT/AOT_stimuli/rescaled_final/0233_rv.mp4	0.0	325.45729804039	
72	306.16541504859924	pulse	1	t		70.0	2.5	/experiments/AOT/AOT_stimuli/rescaled_final/0233_rv.mp4	0.0	327.0648920536041	
72	306.27307891845703	fix_post	2		12	70.0	2.5	/experiments/AOT/AOT_stimuli/rescaled_final/0233_rv.mp4	0.0	327.1725559234619	0.1003270149230957
73	306.3734059333801	fix_pre	0		120	71.0	2.5	/experiments/AOT/AOT_stimuli/rescaled_final/1099_fw.mp4	0.0	327.272882938385	1.000006914138794
73	307.3734128475189	movie	1		244	71.0	2.5	/experiments/AOT/AOT_stimuli/rescaled_final/1099_fw.mp4	0.0	328.2728898525238	2.5000321865081787
73	307.76528787612915	pulse	1	t		71.0	2.5	/experiments/AOT/AOT_stimuli/rescaled_final/1099_fw.mp4	0.0	328.66476488113403	
73	309.35691595077515	pulse	1	t		71.0	2.5	/experiments/AOT/AOT_stimuli/rescaled_final/1099_fw.mp4	0.0	330.25639295578003	
73	309.8734450340271	fix_post	2		12	71.0	2.5	/experiments/AOT/AOT_stimuli/rescaled_final/1099_fw.mp4	0.0	330.772922039032	0.10001397132873535
74	309.97345900535583	fix_pre	0		119	72.0	2.5	/experiments/AOT/AOT_stimuli/rescaled_final/0028_rv.mp4	0.0	330.8729360103607	0.9917550086975098
74	310.9568679332733	pulse	0	t		72.0	2.5	/experiments/AOT/AOT_stimuli/rescaled_final/0028_rv.mp4	0.0	331.8563449382782	
74	310.96521401405334	movie	1		245	72.0	2.5	/experiments/AOT/AOT_stimuli/rescaled_final/0028_rv.mp4	0.0	331.8646910190582	2.507877826690674
74	312.55670404434204	pulse	1	t		72.0	2.5	/experiments/AOT/AOT_stimuli/rescaled_final/0028_rv.mp4	0.0	333.4561810493469	
74	313.473091840744	fix_post	2		12	72.0	2.5	/experiments/AOT/AOT_stimuli/rescaled_final/0028_rv.mp4	0.0	334.3725688457489	0.1004340648651123
75	313.57352590560913	fix_pre	0		120	73.0	2.5	/experiments/AOT/AOT_stimuli/rescaled_final/1405_rv.mp4	0.0	334.473002910614	0.999549150466919
75	314.1569929122925	pulse	0	t		73.0	2.5	/experiments/AOT/AOT_stimuli/rescaled_final/1405_rv.mp4	0.0	335.05646991729736	
75	314.57307505607605	movie	1		244	73.0	2.5	/experiments/AOT/AOT_stimuli/rescaled_final/1405_rv.mp4	0.0	335.47255206108093	2.50030779838562
75	315.756963968277	pulse	1	t		73.0	2.5	/experiments/AOT/AOT_stimuli/rescaled_final/1405_rv.mp4	0.0	336.65644097328186	
75	317.07338285446167	fix_post	2		12	73.0	2.5	/experiments/AOT/AOT_stimuli/rescaled_final/1405_rv.mp4	0.0	337.97285985946655	0.09998798370361328
76	317.1733708381653	fix_pre	0		120	74.0	2.5	/experiments/AOT/AOT_stimuli/rescaled_final/0510_rv.mp4	0.0	338.07284784317017	1.000148057937622
76	317.3568398952484	pulse	0	t		74.0	2.5	/experiments/AOT/AOT_stimuli/rescaled_final/0510_rv.mp4	0.0	338.2563169002533	
76	318.1735188961029	movie	1		244	74.0	2.5	/experiments/AOT/AOT_stimuli/rescaled_final/0510_rv.mp4	0.0	339.0729959011078	2.4994559288024902
76	318.95699286460876	pulse	1	t		74.0	2.5	/experiments/AOT/AOT_stimuli/rescaled_final/0510_rv.mp4	0.0	339.85646986961365	
76	320.5653018951416	pulse	1	t		74.0	2.5	/experiments/AOT/AOT_stimuli/rescaled_final/0510_rv.mp4	0.0	341.4647789001465	
76	320.6729748249054	fix_post	2		12	74.0	2.5	/experiments/AOT/AOT_stimuli/rescaled_final/0510_rv.mp4	0.0	341.5724518299103	0.10044407844543457
77	320.77341890335083	fix_pre	0		120	75.0	2.5	/experiments/AOT/AOT_stimuli/rescaled_final/1038_fw.mp4	0.0	341.6728959083557	0.999932050704956
77	321.7733509540558	movie	1		242	75.0	2.5	/experiments/AOT/AOT_stimuli/rescaled_final/1038_fw.mp4	0.0	342.67282795906067	2.4996628761291504
77	322.1652810573578	pulse	1	t		75.0	2.5	/experiments/AOT/AOT_stimuli/rescaled_final/1038_fw.mp4	0.0	343.06475806236267	
77	323.75777888298035	pulse	1	t		75.0	2.5	/experiments/AOT/AOT_stimuli/rescaled_final/1038_fw.mp4	0.0	344.65725588798523	
77	324.27301383018494	fix_post	2		12	75.0	2.5	/experiments/AOT/AOT_stimuli/rescaled_final/1038_fw.mp4	0.0	345.1724908351898	0.10052204132080078
78	324.37353587150574	fix_pre	0		119	76.0	2.5	blank	1.0	345.2730128765106	0.9915270805358887
78	325.3569338321686	pulse	0	t		76.0	2.5	blank	1.0	346.25641083717346	
78	325.3650629520416	movie	1		301	76.0	2.5	blank	1.0	346.2645399570465	2.5084359645843506
78	326.95721983909607	pulse	1	t		76.0	2.5	blank	1.0	347.85669684410095	
78	327.873498916626	fix_post	2		12	76.0	2.5	blank	1.0	348.77297592163086	0.10013794898986816
79	327.97363686561584	fix_pre	0		120	77.0	2.5	/experiments/AOT/AOT_stimuli/rescaled_final/0861_fw.mp4	0.0	348.8731138706207	0.9995930194854736
79	328.55676889419556	pulse	0	t		77.0	2.5	/experiments/AOT/AOT_stimuli/rescaled_final/0861_fw.mp4	0.0	349.45624589920044	
79	328.9732298851013	movie	1		243	77.0	2.5	/experiments/AOT/AOT_stimuli/rescaled_final/0861_fw.mp4	0.0	349.8727068901062	2.500185966491699
79	330.1569490432739	pulse	1	t		77.0	2.5	/experiments/AOT/AOT_stimuli/rescaled_final/0861_fw.mp4	0.0	351.0564260482788	
79	331.473415851593	fix_post	2		12	77.0	2.5	/experiments/AOT/AOT_stimuli/rescaled_final/0861_fw.mp4	0.0	352.3728928565979	0.10001611709594727
80	331.57343196868896	fix_pre	0		120	78.0	2.5	/experiments/AOT/AOT_stimuli/rescaled_final/0627_fw.mp4	0.0	352.47290897369385	0.9999439716339111
80	331.75685691833496	pulse	0	t		78.0	2.5	/experiments/AOT/AOT_stimuli/rescaled_final/0627_fw.mp4	0.0	352.65633392333984	
80	332.5733759403229	movie	1		242	78.0	2.5	/experiments/AOT/AOT_stimuli/rescaled_final/0627_fw.mp4	0.0	353.47285294532776	2.499998092651367
80	333.35683488845825	pulse	1	t		78.0	2.5	/experiments/AOT/AOT_stimuli/rescaled_final/0627_fw.mp4	0.0	354.25631189346313	
80	334.9662058353424	pulse	1	t		78.0	2.5	/experiments/AOT/AOT_stimuli/rescaled_final/0627_fw.mp4	0.0	355.8656828403473	
80	335.07337403297424	fix_post	2		12	78.0	2.5	/experiments/AOT/AOT_stimuli/rescaled_final/0627_fw.mp4	0.0	355.9728510379791	0.09997892379760742
81	335.17335295677185	fix_pre	0		120	79.0	2.5	/experiments/AOT/AOT_stimuli/rescaled_final/0087_fw.mp4	0.0	356.07282996177673	1.000011920928955
81	336.1733648777008	movie	1		245	79.0	2.5	/experiments/AOT/AOT_stimuli/rescaled_final/0087_fw.mp4	0.0	357.0728418827057	2.4999430179595947
81	336.5581798553467	pulse	1	t		79.0	2.5	/experiments/AOT/AOT_stimuli/rescaled_final/0087_fw.mp4	0.0	357.45765686035156	
81	338.1576499938965	pulse	1	t		79.0	2.5	/experiments/AOT/AOT_stimuli/rescaled_final/0087_fw.mp4	0.0	359.05712699890137	
81	338.6733078956604	fix_post	2		12	79.0	2.5	/experiments/AOT/AOT_stimuli/rescaled_final/0087_fw.mp4	0.0	359.5727849006653	0.09996604919433594
82	338.77327394485474	fix_pre	0		120	80.0	2.5	/experiments/AOT/AOT_stimuli/rescaled_final/1237_fw.mp4	0.0	359.6727509498596	1.0001120567321777
82	339.75765085220337	pulse	0	t		80.0	2.5	/experiments/AOT/AOT_stimuli/rescaled_final/1237_fw.mp4	0.0	360.65712785720825	
82	339.7733860015869	movie	1		247	80.0	2.5	/experiments/AOT/AOT_stimuli/rescaled_final/1237_fw.mp4	0.0	360.6728630065918	2.50821590423584
82	341.35694003105164	pulse	1	t		80.0	2.5	/experiments/AOT/AOT_stimuli/rescaled_final/1237_fw.mp4	0.0	362.2564170360565	
82	342.28160190582275	fix_post	2		12	80.0	2.5	/experiments/AOT/AOT_stimuli/rescaled_final/1237_fw.mp4	0.0	363.18107891082764	0.0999751091003418
83	342.3815770149231	fix_pre	0		120	81.0	2.5	/experiments/AOT/AOT_stimuli/rescaled_final/1833_fw.mp4	0.0	363.281054019928	1.0000498294830322
83	342.9568028450012	pulse	0	t		81.0	2.5	/experiments/AOT/AOT_stimuli/rescaled_final/1833_fw.mp4	0.0	363.8562798500061	
83	343.3816268444061	movie	1		245	81.0	2.5	/experiments/AOT/AOT_stimuli/rescaled_final/1833_fw.mp4	0.0	364.281103849411	2.499981164932251
83	344.56518483161926	pulse	1	t		81.0	2.5	/experiments/AOT/AOT_stimuli/rescaled_final/1833_fw.mp4	0.0	365.46466183662415	
83	345.8816080093384	fix_post	2		12	81.0	2.5	/experiments/AOT/AOT_stimuli/rescaled_final/1833_fw.mp4	0.0	366.78108501434326	0.10002303123474121
84	345.9816310405731	fix_pre	0		120	82.0	2.5	/experiments/AOT/AOT_stimuli/rescaled_final/1301_rv.mp4	0.0	366.881108045578	0.999553918838501
84	346.15678787231445	pulse	0	t		82.0	2.5	/experiments/AOT/AOT_stimuli/rescaled_final/1301_rv.mp4	0.0	367.05626487731934	
84	346.9811849594116	movie	1		245	82.0	2.5	/experiments/AOT/AOT_stimuli/rescaled_final/1301_rv.mp4	0.0	367.8806619644165	2.499979019165039
84	347.75674200057983	pulse	1	t		82.0	2.5	/experiments/AOT/AOT_stimuli/rescaled_final/1301_rv.mp4	0.0	368.6562190055847	
84	349.3567810058594	pulse	1	t		82.0	2.5	/experiments/AOT/AOT_stimuli/rescaled_final/1301_rv.mp4	0.0	370.25625801086426	
84	349.48116397857666	fix_post	2		12	82.0	2.5	/experiments/AOT/AOT_stimuli/rescaled_final/1301_rv.mp4	0.0	370.38064098358154	0.10040593147277832
85	349.58156991004944	fix_pre	0		120	83.0	2.5	blank	1.0	370.4810469150543	1.0000059604644775
85	350.5815758705139	movie	1		300	83.0	2.5	blank	1.0	371.4810528755188	2.499997138977051
85	350.9567928314209	pulse	1	t		83.0	2.5	blank	1.0	371.8562698364258	
85	352.5567829608917	pulse	1	t		83.0	2.5	blank	1.0	373.4562599658966	
85	353.08157300949097	fix_post	2		12	83.0	2.5	blank	1.0	373.98105001449585	0.09996891021728516
87	353.18154191970825	stim	0		1716					374.08101892471313	14.300146102905273
87	354.15772891044617	pulse	0	t						375.05720591545105	
87	355.75764894485474	pulse	0	t						376.6571259498596	
87	357.3567440509796	pulse	0	t						378.2562210559845	
87	358.95679092407227	pulse	0	t						379.85626792907715	
87	360.55666399002075	pulse	0	t						381.45614099502563	
87	362.15669798851013	pulse	0	t						383.056174993515	
87	363.7567210197449	pulse	0	t						384.65619802474976	
87	365.3566780090332	pulse	0	t						386.2561550140381	
87	366.9567229747772	pulse	0	t						387.8561999797821	
