trial_nr	onset	event_type	phase	response	nr_frames	movie_index	movie_duration	movie_file	blank	onset_abs	duration
0	0.1579298973083496	stim	0		40					21.039484977722168	0.33333897590637207
0	0.48296594619750977	response	0	space						21.364521026611328	
1	0.4912688732147217	stim	0		2193					21.37282395362854	18.283421993255615
1	18.762325048446655	pulse	0	t						39.643880128860474	
1	18.774690866470337	stim	1		1716					39.656245946884155	14.300093173980713
1	20.35785484313965	pulse	1	t						41.23940992355347	
1	21.95783305168152	pulse	1	t						42.83938813209534	
1	23.558276891708374	pulse	1	t						44.43983197212219	
1	25.158459901809692	pulse	1	t						46.04001498222351	
1	26.758333921432495	pulse	1	t						47.63988900184631	
1	28.358155012130737	pulse	1	t						49.239710092544556	
1	29.95816397666931	pulse	1	t						50.83971905708313	
1	31.558218002319336	pulse	1	t						52.439773082733154	
2	33.07478404045105	fix_pre	0		11	0.0	2.5	/experiments/AOT/AOT_stimuli/rescaled_final/0037_fw.mp4	0.0	53.95633912086487	0.0990138053894043
2	33.156911849975586	pulse	0	t		0.0	2.5	/experiments/AOT/AOT_stimuli/rescaled_final/0037_fw.mp4	0.0	54.038466930389404	
2	33.173797845840454	movie	1		243	0.0	2.5	/experiments/AOT/AOT_stimuli/rescaled_final/0037_fw.mp4	0.0	54.05535292625427	2.499566078186035
2	34.75790190696716	pulse	1	t		0.0	2.5	/experiments/AOT/AOT_stimuli/rescaled_final/0037_fw.mp4	0.0	55.63945698738098	
2	35.67336392402649	fix_post	2		12	0.0	2.5	/experiments/AOT/AOT_stimuli/rescaled_final/0037_fw.mp4	0.0	56.55491900444031	0.10149097442626953
3	35.77485489845276	fix_pre	0		120	1.0	2.5	/experiments/AOT/AOT_stimuli/rescaled_final/1579_rv.mp4	0.0	56.65640997886658	0.9990880489349365
3	36.35735297203064	pulse	0	t		1.0	2.5	/experiments/AOT/AOT_stimuli/rescaled_final/1579_rv.mp4	0.0	57.23890805244446	
3	36.773942947387695	movie	1		243	1.0	2.5	/experiments/AOT/AOT_stimuli/rescaled_final/1579_rv.mp4	0.0	57.655498027801514	2.4994990825653076
3	37.95649003982544	pulse	1	t		1.0	2.5	/experiments/AOT/AOT_stimuli/rescaled_final/1579_rv.mp4	0.0	58.83804512023926	
3	39.273442029953	fix_post	2		12	1.0	2.5	/experiments/AOT/AOT_stimuli/rescaled_final/1579_rv.mp4	0.0	60.15499711036682	0.10001492500305176
4	39.373456954956055	fix_pre	0		120	2.0	2.5	/experiments/AOT/AOT_stimuli/rescaled_final/1817_fw.mp4	0.0	60.25501203536987	0.9999918937683105
4	39.55694389343262	pulse	0	t		2.0	2.5	/experiments/AOT/AOT_stimuli/rescaled_final/1817_fw.mp4	0.0	60.438498973846436	
4	40.373448848724365	movie	1		243	2.0	2.5	/experiments/AOT/AOT_stimuli/rescaled_final/1817_fw.mp4	0.0	61.255003929138184	2.5001862049102783
4	41.15692090988159	pulse	1	t		2.0	2.5	/experiments/AOT/AOT_stimuli/rescaled_final/1817_fw.mp4	0.0	62.03847599029541	
4	42.75585889816284	pulse	1	t		2.0	2.5	/experiments/AOT/AOT_stimuli/rescaled_final/1817_fw.mp4	0.0	63.63741397857666	
4	42.873635053634644	fix_post	2		12	2.0	2.5	/experiments/AOT/AOT_stimuli/rescaled_final/1817_fw.mp4	0.0	63.75519013404846	0.10015392303466797
5	42.97378897666931	fix_pre	0		120	3.0	2.5	/experiments/AOT/AOT_stimuli/rescaled_final/0369_rv.mp4	0.0	63.85534405708313	0.999647855758667
5	43.97343683242798	movie	1		244	3.0	2.5	/experiments/AOT/AOT_stimuli/rescaled_final/0369_rv.mp4	0.0	64.8549919128418	2.5002920627593994
5	44.35807204246521	pulse	1	t		3.0	2.5	/experiments/AOT/AOT_stimuli/rescaled_final/0369_rv.mp4	0.0	65.23962712287903	
5	45.956799030303955	pulse	1	t		3.0	2.5	/experiments/AOT/AOT_stimuli/rescaled_final/0369_rv.mp4	0.0	66.83835411071777	
5	46.47372889518738	fix_post	2		12	3.0	2.5	/experiments/AOT/AOT_stimuli/rescaled_final/0369_rv.mp4	0.0	67.3552839756012	0.10002493858337402
6	46.57375383377075	fix_pre	0		119	4.0	2.5	/experiments/AOT/AOT_stimuli/rescaled_final/1816_rv.mp4	0.0	67.45530891418457	0.9916951656341553
6	47.55683493614197	pulse	0	t		4.0	2.5	/experiments/AOT/AOT_stimuli/rescaled_final/1816_rv.mp4	0.0	68.43839001655579	
6	47.56544899940491	movie	1		245	4.0	2.5	/experiments/AOT/AOT_stimuli/rescaled_final/1816_rv.mp4	0.0	68.44700407981873	2.5079400539398193
6	49.157798051834106	pulse	1	t		4.0	2.5	/experiments/AOT/AOT_stimuli/rescaled_final/1816_rv.mp4	0.0	70.03935313224792	
6	50.07338905334473	fix_post	2		12	4.0	2.5	/experiments/AOT/AOT_stimuli/rescaled_final/1816_rv.mp4	0.0	70.95494413375854	0.10035896301269531
7	50.17374801635742	fix_pre	0		120	5.0	2.5	/experiments/AOT/AOT_stimuli/rescaled_final/0615_rv.mp4	0.0	71.05530309677124	0.999992847442627
7	50.75726890563965	pulse	0	t		5.0	2.5	/experiments/AOT/AOT_stimuli/rescaled_final/0615_rv.mp4	0.0	71.63882398605347	
7	51.17374086380005	movie	1		244	5.0	2.5	/experiments/AOT/AOT_stimuli/rescaled_final/0615_rv.mp4	0.0	72.05529594421387	2.4991040229797363
7	52.356338024139404	pulse	1	t		5.0	2.5	/experiments/AOT/AOT_stimuli/rescaled_final/0615_rv.mp4	0.0	73.23789310455322	
7	53.672844886779785	fix_post	2		12	5.0	2.5	/experiments/AOT/AOT_stimuli/rescaled_final/0615_rv.mp4	0.0	74.5543999671936	0.10047006607055664
8	53.77331495285034	fix_pre	0		120	6.0	2.5	blank	1.0	74.65487003326416	1.0005059242248535
8	53.95630097389221	pulse	0	t		6.0	2.5	blank	1.0	74.83785605430603	
8	54.773820877075195	movie	1		300	6.0	2.5	blank	1.0	75.65537595748901	2.4989750385284424
8	55.55633783340454	pulse	1	t		6.0	2.5	blank	1.0	76.43789291381836	
8	57.15632700920105	pulse	1	t		6.0	2.5	blank	1.0	78.03788208961487	
8	57.27279591560364	fix_post	2		12	6.0	2.5	blank	1.0	78.15435099601746	0.10002708435058594
9	57.372822999954224	fix_pre	0		120	7.0	2.5	/experiments/AOT/AOT_stimuli/rescaled_final/0465_fw.mp4	0.0	78.25437808036804	1.0000040531158447
9	58.37282705307007	movie	1		243	7.0	2.5	/experiments/AOT/AOT_stimuli/rescaled_final/0465_fw.mp4	0.0	79.25438213348389	2.500847816467285
9	58.756449937820435	pulse	1	t		7.0	2.5	/experiments/AOT/AOT_stimuli/rescaled_final/0465_fw.mp4	0.0	79.63800501823425	
9	60.357136964797974	pulse	1	t		7.0	2.5	/experiments/AOT/AOT_stimuli/rescaled_final/0465_fw.mp4	0.0	81.23869204521179	
9	60.87367486953735	fix_post	2		12	7.0	2.5	/experiments/AOT/AOT_stimuli/rescaled_final/0465_fw.mp4	0.0	81.75522994995117	0.09998202323913574
10	60.97365689277649	fix_pre	0		119	8.0	2.5	/experiments/AOT/AOT_stimuli/rescaled_final/1056_rv.mp4	0.0	81.85521197319031	0.9916939735412598
10	61.95627284049988	pulse	0	t		8.0	2.5	/experiments/AOT/AOT_stimuli/rescaled_final/1056_rv.mp4	0.0	82.8378279209137	
10	61.96535086631775	movie	1		244	8.0	2.5	/experiments/AOT/AOT_stimuli/rescaled_final/1056_rv.mp4	0.0	82.84690594673157	2.507436990737915
10	63.555959939956665	pulse	1	t		8.0	2.5	/experiments/AOT/AOT_stimuli/rescaled_final/1056_rv.mp4	0.0	84.43751502037048	
10	64.47278785705566	fix_post	2		12	8.0	2.5	/experiments/AOT/AOT_stimuli/rescaled_final/1056_rv.mp4	0.0	85.35434293746948	0.10088014602661133
11	64.57366800308228	fix_pre	0		120	9.0	2.5	/experiments/AOT/AOT_stimuli/rescaled_final/1834_fw.mp4	0.0	85.4552230834961	1.000044822692871
11	65.15632390975952	pulse	0	t		9.0	2.5	/experiments/AOT/AOT_stimuli/rescaled_final/1834_fw.mp4	0.0	86.03787899017334	
11	65.57371282577515	movie	1		243	9.0	2.5	/experiments/AOT/AOT_stimuli/rescaled_final/1834_fw.mp4	0.0	86.45526790618896	2.500256061553955
11	66.75633001327515	pulse	1	t		9.0	2.5	/experiments/AOT/AOT_stimuli/rescaled_final/1834_fw.mp4	0.0	87.63788509368896	
11	68.0739688873291	fix_post	2		12	9.0	2.5	/experiments/AOT/AOT_stimuli/rescaled_final/1834_fw.mp4	0.0	88.95552396774292	0.09981608390808105
12	68.17378497123718	fix_pre	0		120	10.0	2.5	/experiments/AOT/AOT_stimuli/rescaled_final/1935_rv.mp4	0.0	89.055340051651	1.0000889301300049
12	68.35734295845032	pulse	0	t		10.0	2.5	/experiments/AOT/AOT_stimuli/rescaled_final/1935_rv.mp4	0.0	89.23889803886414	
12	69.17387390136719	movie	1		244	10.0	2.5	/experiments/AOT/AOT_stimuli/rescaled_final/1935_rv.mp4	0.0	90.055428981781	2.498861074447632
12	69.95710897445679	pulse	1	t		10.0	2.5	/experiments/AOT/AOT_stimuli/rescaled_final/1935_rv.mp4	0.0	90.8386640548706	
12	71.55266904830933	pulse	1	t		10.0	2.5	/experiments/AOT/AOT_stimuli/rescaled_final/1935_rv.mp4	0.0	92.43422412872314	
12	71.67273497581482	fix_post	2		12	10.0	2.5	/experiments/AOT/AOT_stimuli/rescaled_final/1935_rv.mp4	0.0	92.55429005622864	0.10006284713745117
13	71.77279782295227	fix_pre	0		120	11.0	2.5	/experiments/AOT/AOT_stimuli/rescaled_final/1783_rv.mp4	0.0	92.65435290336609	0.9999651908874512
13	72.77276301383972	movie	1		243	11.0	2.5	/experiments/AOT/AOT_stimuli/rescaled_final/1783_rv.mp4	0.0	93.65431809425354	2.499980926513672
13	73.1574239730835	pulse	1	t		11.0	2.5	/experiments/AOT/AOT_stimuli/rescaled_final/1783_rv.mp4	0.0	94.03897905349731	
13	74.75615096092224	pulse	1	t		11.0	2.5	/experiments/AOT/AOT_stimuli/rescaled_final/1783_rv.mp4	0.0	95.63770604133606	
13	75.2727439403534	fix_post	2		12	11.0	2.5	/experiments/AOT/AOT_stimuli/rescaled_final/1783_rv.mp4	0.0	96.15429902076721	0.10000300407409668
14	75.37274694442749	fix_pre	0		119	12.0	2.5	/experiments/AOT/AOT_stimuli/rescaled_final/0164_fw.mp4	0.0	96.25430202484131	0.9916219711303711
14	76.35621285438538	pulse	0	t		12.0	2.5	/experiments/AOT/AOT_stimuli/rescaled_final/0164_fw.mp4	0.0	97.2377679347992	
14	76.36436891555786	movie	1		244	12.0	2.5	/experiments/AOT/AOT_stimuli/rescaled_final/0164_fw.mp4	0.0	97.24592399597168	2.5083630084991455
14	77.95652389526367	pulse	1	t		12.0	2.5	/experiments/AOT/AOT_stimuli/rescaled_final/0164_fw.mp4	0.0	98.83807897567749	
14	78.872731924057	fix_post	2		12	12.0	2.5	/experiments/AOT/AOT_stimuli/rescaled_final/0164_fw.mp4	0.0	99.75428700447083	0.10014104843139648
15	78.9728729724884	fix_pre	0		120	13.0	2.5	blank	1.0	99.85442805290222	0.9998650550842285
15	79.55617785453796	pulse	0	t		13.0	2.5	blank	1.0	100.43773293495178	
15	79.97273802757263	movie	1		300	13.0	2.5	blank	1.0	100.85429310798645	2.5008108615875244
15	81.15702700614929	pulse	1	t		13.0	2.5	blank	1.0	102.03858208656311	
15	82.47354888916016	fix_post	2		12	13.0	2.5	blank	1.0	103.35510396957397	0.09920310974121094
16	82.57275199890137	fix_pre	0		120	14.0	2.5	/experiments/AOT/AOT_stimuli/rescaled_final/1217_rv.mp4	0.0	103.45430707931519	0.9999189376831055
16	82.75621795654297	pulse	0	t		14.0	2.5	/experiments/AOT/AOT_stimuli/rescaled_final/1217_rv.mp4	0.0	103.63777303695679	
16	83.57267093658447	movie	1		243	14.0	2.5	/experiments/AOT/AOT_stimuli/rescaled_final/1217_rv.mp4	0.0	104.45422601699829	2.5008668899536133
16	84.35698986053467	pulse	1	t		14.0	2.5	/experiments/AOT/AOT_stimuli/rescaled_final/1217_rv.mp4	0.0	105.23854494094849	
16	85.95468497276306	pulse	1	t		14.0	2.5	/experiments/AOT/AOT_stimuli/rescaled_final/1217_rv.mp4	0.0	106.83624005317688	
16	86.07353782653809	fix_post	2		12	14.0	2.5	/experiments/AOT/AOT_stimuli/rescaled_final/1217_rv.mp4	0.0	106.9550929069519	0.09914517402648926
17	86.17268300056458	fix_pre	0		120	15.0	2.5	/experiments/AOT/AOT_stimuli/rescaled_final/0425_fw.mp4	0.0	107.0542380809784	1.0000019073486328
17	87.17268490791321	movie	1		243	15.0	2.5	/experiments/AOT/AOT_stimuli/rescaled_final/0425_fw.mp4	0.0	108.05423998832703	2.500030994415283
17	87.55639600753784	pulse	1	t		15.0	2.5	/experiments/AOT/AOT_stimuli/rescaled_final/0425_fw.mp4	0.0	108.43795108795166	
17	89.15704894065857	pulse	1	t		15.0	2.5	/experiments/AOT/AOT_stimuli/rescaled_final/0425_fw.mp4	0.0	110.03860402107239	
17	89.67271590232849	fix_post	2		12	15.0	2.5	/experiments/AOT/AOT_stimuli/rescaled_final/0425_fw.mp4	0.0	110.55427098274231	0.09994697570800781
18	89.7726628780365	fix_pre	0		119	16.0	2.5	/experiments/AOT/AOT_stimuli/rescaled_final/0418_fw.mp4	0.0	110.65421795845032	0.992617130279541
18	90.7570550441742	pulse	0	t		16.0	2.5	/experiments/AOT/AOT_stimuli/rescaled_final/0418_fw.mp4	0.0	111.63861012458801	
18	90.76528000831604	movie	1		245	16.0	2.5	/experiments/AOT/AOT_stimuli/rescaled_final/0418_fw.mp4	0.0	111.64683508872986	2.5074410438537598
18	92.35629987716675	pulse	1	t		16.0	2.5	/experiments/AOT/AOT_stimuli/rescaled_final/0418_fw.mp4	0.0	113.23785495758057	
18	93.2727210521698	fix_post	2		12	16.0	2.5	/experiments/AOT/AOT_stimuli/rescaled_final/0418_fw.mp4	0.0	114.15427613258362	0.09995889663696289
19	93.37267994880676	fix_pre	0		120	17.0	2.5	/experiments/AOT/AOT_stimuli/rescaled_final/1264_fw.mp4	0.0	114.25423502922058	1.000046968460083
19	93.95699882507324	pulse	0	t		17.0	2.5	/experiments/AOT/AOT_stimuli/rescaled_final/1264_fw.mp4	0.0	114.83855390548706	
19	94.37272691726685	movie	1		244	17.0	2.5	/experiments/AOT/AOT_stimuli/rescaled_final/1264_fw.mp4	0.0	115.25428199768066	2.499906063079834
19	95.55625486373901	pulse	1	t		17.0	2.5	/experiments/AOT/AOT_stimuli/rescaled_final/1264_fw.mp4	0.0	116.43780994415283	
19	96.87263298034668	fix_post	2		12	17.0	2.5	/experiments/AOT/AOT_stimuli/rescaled_final/1264_fw.mp4	0.0	117.7541880607605	0.10094404220581055
20	96.97357702255249	fix_pre	0		120	18.0	2.5	/experiments/AOT/AOT_stimuli/rescaled_final/0466_fw.mp4	0.0	117.85513210296631	0.9990479946136475
20	97.15610003471375	pulse	0	t		18.0	2.5	/experiments/AOT/AOT_stimuli/rescaled_final/0466_fw.mp4	0.0	118.03765511512756	
20	97.97262501716614	movie	1		243	18.0	2.5	/experiments/AOT/AOT_stimuli/rescaled_final/0466_fw.mp4	0.0	118.85418009757996	2.5013790130615234
20	98.75605583190918	pulse	1	t		18.0	2.5	/experiments/AOT/AOT_stimuli/rescaled_final/0466_fw.mp4	0.0	119.637610912323	
20	100.3563129901886	pulse	1	t		18.0	2.5	/experiments/AOT/AOT_stimuli/rescaled_final/0466_fw.mp4	0.0	121.23786807060242	
20	100.47400403022766	fix_post	2		12	18.0	2.5	/experiments/AOT/AOT_stimuli/rescaled_final/0466_fw.mp4	0.0	121.35555911064148	0.10007882118225098
21	100.57408285140991	fix_pre	0		120	19.0	2.5	/experiments/AOT/AOT_stimuli/rescaled_final/1326_fw.mp4	0.0	121.45563793182373	1.0004642009735107
21	101.57454705238342	movie	1		243	19.0	2.5	/experiments/AOT/AOT_stimuli/rescaled_final/1326_fw.mp4	0.0	122.45610213279724	2.499889850616455
21	101.9573700428009	pulse	1	t		19.0	2.5	/experiments/AOT/AOT_stimuli/rescaled_final/1326_fw.mp4	0.0	122.83892512321472	
21	103.55792498588562	pulse	1	t		19.0	2.5	/experiments/AOT/AOT_stimuli/rescaled_final/1326_fw.mp4	0.0	124.43948006629944	
21	104.07443690299988	fix_post	2		12	19.0	2.5	/experiments/AOT/AOT_stimuli/rescaled_final/1326_fw.mp4	0.0	124.9559919834137	0.09954094886779785
22	104.17397785186768	fix_pre	0		119	20.0	2.5	/experiments/AOT/AOT_stimuli/rescaled_final/0325_rv.mp4	0.0	125.0555329322815	0.9921140670776367
22	105.15742087364197	pulse	0	t		20.0	2.5	/experiments/AOT/AOT_stimuli/rescaled_final/0325_rv.mp4	0.0	126.03897595405579	
22	105.16609191894531	movie	1		244	20.0	2.5	/experiments/AOT/AOT_stimuli/rescaled_final/0325_rv.mp4	0.0	126.04764699935913	2.508273124694824
22	106.75961804389954	pulse	1	t		20.0	2.5	/experiments/AOT/AOT_stimuli/rescaled_final/0325_rv.mp4	0.0	127.64117312431335	
22	107.67436504364014	fix_post	2		12	20.0	2.5	/experiments/AOT/AOT_stimuli/rescaled_final/0325_rv.mp4	0.0	128.55592012405396	0.0996239185333252
23	107.77398896217346	fix_pre	0		120	21.0	2.5	blank	1.0	128.65554404258728	0.9999380111694336
23	108.3573808670044	pulse	0	t		21.0	2.5	blank	1.0	129.2389359474182	
23	108.7739269733429	movie	1		300	21.0	2.5	blank	1.0	129.6554820537567	2.5003468990325928
23	109.95740795135498	pulse	1	t		21.0	2.5	blank	1.0	130.8389630317688	
23	111.27427387237549	fix_post	2		12	21.0	2.5	blank	1.0	132.1558289527893	0.09972596168518066
24	111.37399983406067	fix_pre	0		120	22.0	2.5	/experiments/AOT/AOT_stimuli/rescaled_final/1229_rv.mp4	0.0	132.2555549144745	1.0005261898040771
24	111.55745387077332	pulse	0	t		22.0	2.5	/experiments/AOT/AOT_stimuli/rescaled_final/1229_rv.mp4	0.0	132.43900895118713	
24	112.37452602386475	movie	1		244	22.0	2.5	/experiments/AOT/AOT_stimuli/rescaled_final/1229_rv.mp4	0.0	133.25608110427856	2.4993739128112793
24	113.15785789489746	pulse	1	t		22.0	2.5	/experiments/AOT/AOT_stimuli/rescaled_final/1229_rv.mp4	0.0	134.03941297531128	
24	114.7566089630127	pulse	1	t		22.0	2.5	/experiments/AOT/AOT_stimuli/rescaled_final/1229_rv.mp4	0.0	135.6381640434265	
24	114.87389993667603	fix_post	2		12	22.0	2.5	/experiments/AOT/AOT_stimuli/rescaled_final/1229_rv.mp4	0.0	135.75545501708984	0.10044598579406738
25	114.97434592247009	fix_pre	0		120	23.0	2.5	/experiments/AOT/AOT_stimuli/rescaled_final/0577_fw.mp4	0.0	135.8559010028839	0.9996120929718018
25	115.9739580154419	movie	1		242	23.0	2.5	/experiments/AOT/AOT_stimuli/rescaled_final/0577_fw.mp4	0.0	136.8555130958557	2.5000619888305664
25	116.35751700401306	pulse	1	t		23.0	2.5	/experiments/AOT/AOT_stimuli/rescaled_final/0577_fw.mp4	0.0	137.23907208442688	
25	117.95746088027954	pulse	1	t		23.0	2.5	/experiments/AOT/AOT_stimuli/rescaled_final/0577_fw.mp4	0.0	138.83901596069336	
25	118.47402000427246	fix_post	2		12	23.0	2.5	/experiments/AOT/AOT_stimuli/rescaled_final/0577_fw.mp4	0.0	139.35557508468628	0.10024404525756836
26	118.57426404953003	fix_pre	0		119	24.0	2.5	/experiments/AOT/AOT_stimuli/rescaled_final/0225_fw.mp4	0.0	139.45581912994385	0.9916808605194092
26	119.5567729473114	pulse	0	t		24.0	2.5	/experiments/AOT/AOT_stimuli/rescaled_final/0225_fw.mp4	0.0	140.43832802772522	
26	119.56594491004944	movie	1		243	24.0	2.5	/experiments/AOT/AOT_stimuli/rescaled_final/0225_fw.mp4	0.0	140.44749999046326	2.507972002029419
26	121.1573338508606	pulse	1	t		24.0	2.5	/experiments/AOT/AOT_stimuli/rescaled_final/0225_fw.mp4	0.0	142.0388889312744	
26	122.07391691207886	fix_post	2		12	24.0	2.5	/experiments/AOT/AOT_stimuli/rescaled_final/0225_fw.mp4	0.0	142.95547199249268	0.09995794296264648
27	122.1738748550415	fix_pre	0		120	25.0	2.5	/experiments/AOT/AOT_stimuli/rescaled_final/1643_fw.mp4	0.0	143.05542993545532	1.000082015991211
27	122.75783705711365	pulse	0	t		25.0	2.5	/experiments/AOT/AOT_stimuli/rescaled_final/1643_fw.mp4	0.0	143.63939213752747	
27	123.17395687103271	movie	1		243	25.0	2.5	/experiments/AOT/AOT_stimuli/rescaled_final/1643_fw.mp4	0.0	144.05551195144653	2.500197172164917
27	124.35827589035034	pulse	1	t		25.0	2.5	/experiments/AOT/AOT_stimuli/rescaled_final/1643_fw.mp4	0.0	145.23983097076416	
27	125.67415404319763	fix_post	2		12	25.0	2.5	/experiments/AOT/AOT_stimuli/rescaled_final/1643_fw.mp4	0.0	146.55570912361145	0.10002398490905762
28	125.77417802810669	fix_pre	0		120	26.0	2.5	blank	1.0	146.6557331085205	1.000147819519043
28	125.95773482322693	pulse	0	t		26.0	2.5	blank	1.0	146.83928990364075	
28	126.77432584762573	movie	1		300	26.0	2.5	blank	1.0	147.65588092803955	2.49997615814209
28	127.55772995948792	pulse	1	t		26.0	2.5	blank	1.0	148.43928503990173	
28	129.15770196914673	pulse	1	t		26.0	2.5	blank	1.0	150.03925704956055	
28	129.27430200576782	fix_post	2		12	26.0	2.5	blank	1.0	150.15585708618164	0.09991192817687988
29	129.3742139339447	fix_pre	0		120	27.0	2.5	/experiments/AOT/AOT_stimuli/rescaled_final/0587_fw.mp4	0.0	150.25576901435852	0.9996120929718018
29	130.3738260269165	movie	1		243	27.0	2.5	/experiments/AOT/AOT_stimuli/rescaled_final/0587_fw.mp4	0.0	151.25538110733032	2.4991369247436523
29	130.75726294517517	pulse	1	t		27.0	2.5	/experiments/AOT/AOT_stimuli/rescaled_final/0587_fw.mp4	0.0	151.638818025589	
29	132.35764598846436	pulse	1	t		27.0	2.5	/experiments/AOT/AOT_stimuli/rescaled_final/0587_fw.mp4	0.0	153.23920106887817	
29	132.87296295166016	fix_post	2		12	27.0	2.5	/experiments/AOT/AOT_stimuli/rescaled_final/0587_fw.mp4	0.0	153.75451803207397	0.10133099555969238
30	132.97429394721985	fix_pre	0		119	28.0	2.5	/experiments/AOT/AOT_stimuli/rescaled_final/1682_rv.mp4	0.0	153.85584902763367	0.9916229248046875
30	133.9568169116974	pulse	0	t		28.0	2.5	/experiments/AOT/AOT_stimuli/rescaled_final/1682_rv.mp4	0.0	154.8383719921112	
30	133.96591687202454	movie	1		245	28.0	2.5	/experiments/AOT/AOT_stimuli/rescaled_final/1682_rv.mp4	0.0	154.84747195243835	2.5069761276245117
30	135.5563359260559	pulse	1	t		28.0	2.5	/experiments/AOT/AOT_stimuli/rescaled_final/1682_rv.mp4	0.0	156.43789100646973	
30	136.47289299964905	fix_post	2		12	28.0	2.5	/experiments/AOT/AOT_stimuli/rescaled_final/1682_rv.mp4	0.0	157.35444808006287	0.10005998611450195
31	136.57295298576355	fix_pre	0		120	29.0	2.5	/experiments/AOT/AOT_stimuli/rescaled_final/0356_rv.mp4	0.0	157.45450806617737	0.9999549388885498
31	137.1563880443573	pulse	0	t		29.0	2.5	/experiments/AOT/AOT_stimuli/rescaled_final/0356_rv.mp4	0.0	158.03794312477112	
31	137.5729079246521	movie	1		243	29.0	2.5	/experiments/AOT/AOT_stimuli/rescaled_final/0356_rv.mp4	0.0	158.45446300506592	2.5000009536743164
31	138.75593304634094	pulse	1	t		29.0	2.5	/experiments/AOT/AOT_stimuli/rescaled_final/0356_rv.mp4	0.0	159.63748812675476	
31	140.07290887832642	fix_post	2		12	29.0	2.5	/experiments/AOT/AOT_stimuli/rescaled_final/0356_rv.mp4	0.0	160.95446395874023	0.09998202323913574
32	140.17289090156555	fix_pre	0		120	30.0	2.5	/experiments/AOT/AOT_stimuli/rescaled_final/0418_rv.mp4	0.0	161.05444598197937	1.000380039215088
32	140.3563289642334	pulse	0	t		30.0	2.5	/experiments/AOT/AOT_stimuli/rescaled_final/0418_rv.mp4	0.0	161.23788404464722	
32	141.17327094078064	movie	1		243	30.0	2.5	/experiments/AOT/AOT_stimuli/rescaled_final/0418_rv.mp4	0.0	162.05482602119446	2.499972105026245
32	141.9562759399414	pulse	1	t		30.0	2.5	/experiments/AOT/AOT_stimuli/rescaled_final/0418_rv.mp4	0.0	162.83783102035522	
32	143.55532884597778	pulse	1	t		30.0	2.5	/experiments/AOT/AOT_stimuli/rescaled_final/0418_rv.mp4	0.0	164.4368839263916	
32	143.67324304580688	fix_post	2		12	30.0	2.5	/experiments/AOT/AOT_stimuli/rescaled_final/0418_rv.mp4	0.0	164.5547981262207	0.09973883628845215
33	143.77298188209534	fix_pre	0		120	31.0	2.5	/experiments/AOT/AOT_stimuli/rescaled_final/2158_rv.mp4	0.0	164.65453696250916	0.9998860359191895
33	144.77286791801453	movie	1		243	31.0	2.5	/experiments/AOT/AOT_stimuli/rescaled_final/2158_rv.mp4	0.0	165.65442299842834	2.500077962875366
33	145.15737986564636	pulse	1	t		31.0	2.5	/experiments/AOT/AOT_stimuli/rescaled_final/2158_rv.mp4	0.0	166.03893494606018	
33	146.7558789253235	pulse	1	t		31.0	2.5	/experiments/AOT/AOT_stimuli/rescaled_final/2158_rv.mp4	0.0	167.6374340057373	
33	147.2729458808899	fix_post	2		12	31.0	2.5	/experiments/AOT/AOT_stimuli/rescaled_final/2158_rv.mp4	0.0	168.1545009613037	0.09992814064025879
34	147.37287402153015	fix_pre	0		119	32.0	2.5	/experiments/AOT/AOT_stimuli/rescaled_final/0543_fw.mp4	0.0	168.25442910194397	0.9920399188995361
34	148.35675692558289	pulse	0	t		32.0	2.5	/experiments/AOT/AOT_stimuli/rescaled_final/0543_fw.mp4	0.0	169.2383120059967	
34	148.3649139404297	movie	1		245	32.0	2.5	/experiments/AOT/AOT_stimuli/rescaled_final/0543_fw.mp4	0.0	169.2464690208435	2.50748610496521
34	149.95741891860962	pulse	1	t		32.0	2.5	/experiments/AOT/AOT_stimuli/rescaled_final/0543_fw.mp4	0.0	170.83897399902344	
34	150.8724000453949	fix_post	2		12	32.0	2.5	/experiments/AOT/AOT_stimuli/rescaled_final/0543_fw.mp4	0.0	171.75395512580872	0.10081195831298828
35	150.97321200370789	fix_pre	0		120	33.0	2.5	/experiments/AOT/AOT_stimuli/rescaled_final/1597_fw.mp4	0.0	171.8547670841217	0.9991099834442139
35	151.55585193634033	pulse	0	t		33.0	2.5	/experiments/AOT/AOT_stimuli/rescaled_final/1597_fw.mp4	0.0	172.43740701675415	
35	151.9723219871521	movie	1		244	33.0	2.5	/experiments/AOT/AOT_stimuli/rescaled_final/1597_fw.mp4	0.0	172.85387706756592	2.5000109672546387
35	153.15682983398438	pulse	1	t		33.0	2.5	/experiments/AOT/AOT_stimuli/rescaled_final/1597_fw.mp4	0.0	174.0383849143982	
35	154.47233295440674	fix_post	2		12	33.0	2.5	/experiments/AOT/AOT_stimuli/rescaled_final/1597_fw.mp4	0.0	175.35388803482056	0.10054898262023926
36	154.57288193702698	fix_pre	0		120	34.0	2.5	blank	1.0	175.4544370174408	0.999640941619873
36	154.75706601142883	pulse	0	t		34.0	2.5	blank	1.0	175.63862109184265	
36	155.57252287864685	movie	1		300	34.0	2.5	blank	1.0	176.45407795906067	2.5006091594696045
36	156.35584998130798	pulse	1	t		34.0	2.5	blank	1.0	177.2374050617218	
36	157.95670700073242	pulse	1	t		34.0	2.5	blank	1.0	178.83826208114624	
36	158.07313203811646	fix_post	2		12	34.0	2.5	blank	1.0	178.95468711853027	0.1000978946685791
37	158.17322993278503	fix_pre	0		120	35.0	2.5	/experiments/AOT/AOT_stimuli/rescaled_final/1935_fw.mp4	0.0	179.05478501319885	0.9990758895874023
37	159.17230582237244	movie	1		245	35.0	2.5	/experiments/AOT/AOT_stimuli/rescaled_final/1935_fw.mp4	0.0	180.05386090278625	2.5
37	159.55570888519287	pulse	1	t		35.0	2.5	/experiments/AOT/AOT_stimuli/rescaled_final/1935_fw.mp4	0.0	180.4372639656067	
37	161.15575098991394	pulse	1	t		35.0	2.5	/experiments/AOT/AOT_stimuli/rescaled_final/1935_fw.mp4	0.0	182.03730607032776	
37	161.67230582237244	fix_post	2		12	35.0	2.5	/experiments/AOT/AOT_stimuli/rescaled_final/1935_fw.mp4	0.0	182.55386090278625	0.09995818138122559
38	161.77226400375366	fix_pre	0		119	36.0	2.5	/experiments/AOT/AOT_stimuli/rescaled_final/1547_fw.mp4	0.0	182.65381908416748	0.992534875869751
38	162.75660395622253	pulse	0	t		36.0	2.5	/experiments/AOT/AOT_stimuli/rescaled_final/1547_fw.mp4	0.0	183.63815903663635	
38	162.7647988796234	movie	1		245	36.0	2.5	/experiments/AOT/AOT_stimuli/rescaled_final/1547_fw.mp4	0.0	183.64635396003723	2.507542133331299
38	164.35609197616577	pulse	1	t		36.0	2.5	/experiments/AOT/AOT_stimuli/rescaled_final/1547_fw.mp4	0.0	185.2376470565796	
38	165.2723410129547	fix_post	2		12	36.0	2.5	/experiments/AOT/AOT_stimuli/rescaled_final/1547_fw.mp4	0.0	186.15389609336853	0.09994387626647949
39	165.3722848892212	fix_pre	0		120	37.0	2.5	/experiments/AOT/AOT_stimuli/rescaled_final/1247_rv.mp4	0.0	186.253839969635	1.0000519752502441
39	165.95574402809143	pulse	0	t		37.0	2.5	/experiments/AOT/AOT_stimuli/rescaled_final/1247_rv.mp4	0.0	186.83729910850525	
39	166.37233686447144	movie	1		243	37.0	2.5	/experiments/AOT/AOT_stimuli/rescaled_final/1247_rv.mp4	0.0	187.25389194488525	2.4999539852142334
39	167.55579805374146	pulse	1	t		37.0	2.5	/experiments/AOT/AOT_stimuli/rescaled_final/1247_rv.mp4	0.0	188.43735313415527	
39	168.87229084968567	fix_post	2		12	37.0	2.5	/experiments/AOT/AOT_stimuli/rescaled_final/1247_rv.mp4	0.0	189.7538459300995	0.10001707077026367
40	168.97230792045593	fix_pre	0		120	38.0	2.5	/experiments/AOT/AOT_stimuli/rescaled_final/1547_fw.mp4	0.0	189.85386300086975	0.9999470710754395
40	169.15581488609314	pulse	0	t		38.0	2.5	/experiments/AOT/AOT_stimuli/rescaled_final/1547_fw.mp4	0.0	190.03736996650696	
40	169.97225499153137	movie	1		244	38.0	2.5	/experiments/AOT/AOT_stimuli/rescaled_final/1547_fw.mp4	0.0	190.8538100719452	2.5000338554382324
40	170.75574684143066	pulse	1	t		38.0	2.5	/experiments/AOT/AOT_stimuli/rescaled_final/1547_fw.mp4	0.0	191.63730192184448	
40	172.3554470539093	pulse	1	t		38.0	2.5	/experiments/AOT/AOT_stimuli/rescaled_final/1547_fw.mp4	0.0	193.23700213432312	
40	172.4722888469696	fix_post	2		12	38.0	2.5	/experiments/AOT/AOT_stimuli/rescaled_final/1547_fw.mp4	0.0	193.35384392738342	0.10001420974731445
41	172.57230305671692	fix_pre	0		120	39.0	2.5	/experiments/AOT/AOT_stimuli/rescaled_final/0060_rv.mp4	0.0	193.45385813713074	0.9999468326568604
41	173.57224988937378	movie	1		244	39.0	2.5	/experiments/AOT/AOT_stimuli/rescaled_final/0060_rv.mp4	0.0	194.4538049697876	2.5000369548797607
41	173.95702695846558	pulse	1	t		39.0	2.5	/experiments/AOT/AOT_stimuli/rescaled_final/0060_rv.mp4	0.0	194.8385820388794	
41	175.55564999580383	pulse	1	t		39.0	2.5	/experiments/AOT/AOT_stimuli/rescaled_final/0060_rv.mp4	0.0	196.43720507621765	
41	176.07228684425354	fix_post	2		12	39.0	2.5	/experiments/AOT/AOT_stimuli/rescaled_final/0060_rv.mp4	0.0	196.95384192466736	0.0999000072479248
42	176.17218685150146	fix_pre	0		119	40.0	2.5	blank	1.0	197.05374193191528	0.9929490089416504
42	177.1557219028473	pulse	0	t		40.0	2.5	blank	1.0	198.0372769832611	
42	177.16513586044312	movie	1		301	40.0	2.5	blank	1.0	198.04669094085693	2.507254123687744
42	178.75576901435852	pulse	1	t		40.0	2.5	blank	1.0	199.63732409477234	
42	179.67238998413086	fix_post	2		12	40.0	2.5	blank	1.0	200.55394506454468	0.09999799728393555
43	179.7723879814148	fix_pre	0		120	41.0	2.5	/experiments/AOT/AOT_stimuli/rescaled_final/1131_fw.mp4	0.0	200.6539430618286	1.0008878707885742
43	180.35590505599976	pulse	0	t		41.0	2.5	/experiments/AOT/AOT_stimuli/rescaled_final/1131_fw.mp4	0.0	201.23746013641357	
43	180.77327585220337	movie	1		244	41.0	2.5	/experiments/AOT/AOT_stimuli/rescaled_final/1131_fw.mp4	0.0	201.6548309326172	2.4988861083984375
43	181.95656204223633	pulse	1	t		41.0	2.5	/experiments/AOT/AOT_stimuli/rescaled_final/1131_fw.mp4	0.0	202.83811712265015	
43	183.2721619606018	fix_post	2		12	41.0	2.5	/experiments/AOT/AOT_stimuli/rescaled_final/1131_fw.mp4	0.0	204.15371704101562	0.10004806518554688
44	183.37221002578735	fix_pre	0		120	42.0	2.5	/experiments/AOT/AOT_stimuli/rescaled_final/1217_fw.mp4	0.0	204.25376510620117	1.0000009536743164
44	183.55563592910767	pulse	0	t		42.0	2.5	/experiments/AOT/AOT_stimuli/rescaled_final/1217_fw.mp4	0.0	204.43719100952148	
44	184.37221097946167	movie	1		243	42.0	2.5	/experiments/AOT/AOT_stimuli/rescaled_final/1217_fw.mp4	0.0	205.2537660598755	2.500062942504883
44	185.15649604797363	pulse	1	t		42.0	2.5	/experiments/AOT/AOT_stimuli/rescaled_final/1217_fw.mp4	0.0	206.03805112838745	
44	186.75428295135498	pulse	1	t		42.0	2.5	/experiments/AOT/AOT_stimuli/rescaled_final/1217_fw.mp4	0.0	207.6358380317688	
44	186.87227392196655	fix_post	2		12	42.0	2.5	/experiments/AOT/AOT_stimuli/rescaled_final/1217_fw.mp4	0.0	207.75382900238037	0.09992003440856934
45	186.97219395637512	fix_pre	0		120	43.0	2.5	/experiments/AOT/AOT_stimuli/rescaled_final/1803_rv.mp4	0.0	207.85374903678894	0.9999189376831055
45	187.97211289405823	movie	1		242	43.0	2.5	/experiments/AOT/AOT_stimuli/rescaled_final/1803_rv.mp4	0.0	208.85366797447205	2.501002073287964
45	188.3569359779358	pulse	1	t		43.0	2.5	/experiments/AOT/AOT_stimuli/rescaled_final/1803_rv.mp4	0.0	209.2384910583496	
45	189.95570182800293	pulse	1	t		43.0	2.5	/experiments/AOT/AOT_stimuli/rescaled_final/1803_rv.mp4	0.0	210.83725690841675	
45	190.4731149673462	fix_post	2		12	43.0	2.5	/experiments/AOT/AOT_stimuli/rescaled_final/1803_rv.mp4	0.0	211.35467004776	0.09906888008117676
46	190.57218384742737	fix_pre	0		119	44.0	2.5	/experiments/AOT/AOT_stimuli/rescaled_final/1148_rv.mp4	0.0	211.4537389278412	0.9926321506500244
46	191.55570101737976	pulse	0	t		44.0	2.5	/experiments/AOT/AOT_stimuli/rescaled_final/1148_rv.mp4	0.0	212.43725609779358	
46	191.5648159980774	movie	1		243	44.0	2.5	/experiments/AOT/AOT_stimuli/rescaled_final/1148_rv.mp4	0.0	212.4463710784912	2.5088419914245605
46	193.1561210155487	pulse	1	t		44.0	2.5	/experiments/AOT/AOT_stimuli/rescaled_final/1148_rv.mp4	0.0	214.03767609596252	
46	194.07365798950195	fix_post	2		12	44.0	2.5	/experiments/AOT/AOT_stimuli/rescaled_final/1148_rv.mp4	0.0	214.95521306991577	0.10027885437011719
47	194.17393684387207	fix_pre	0		120	45.0	2.5	/experiments/AOT/AOT_stimuli/rescaled_final/0418_rv.mp4	0.0	215.0554919242859	0.9999821186065674
47	194.75701093673706	pulse	0	t		45.0	2.5	/experiments/AOT/AOT_stimuli/rescaled_final/0418_rv.mp4	0.0	215.63856601715088	
47	195.17391896247864	movie	1		243	45.0	2.5	/experiments/AOT/AOT_stimuli/rescaled_final/0418_rv.mp4	0.0	216.05547404289246	2.4995498657226562
47	196.35746097564697	pulse	1	t		45.0	2.5	/experiments/AOT/AOT_stimuli/rescaled_final/0418_rv.mp4	0.0	217.2390160560608	
47	197.6734688282013	fix_post	2		12	45.0	2.5	/experiments/AOT/AOT_stimuli/rescaled_final/0418_rv.mp4	0.0	218.5550239086151	0.10042405128479004
48	197.77389287948608	fix_pre	0		120	46.0	2.5	/experiments/AOT/AOT_stimuli/rescaled_final/0454_fw.mp4	0.0	218.6554479598999	1.0000581741333008
48	197.95691800117493	pulse	0	t		46.0	2.5	/experiments/AOT/AOT_stimuli/rescaled_final/0454_fw.mp4	0.0	218.83847308158875	
48	198.77395105361938	movie	1		243	46.0	2.5	/experiments/AOT/AOT_stimuli/rescaled_final/0454_fw.mp4	0.0	219.6555061340332	2.4998228549957275
48	199.5575020313263	pulse	1	t		46.0	2.5	/experiments/AOT/AOT_stimuli/rescaled_final/0454_fw.mp4	0.0	220.4390571117401	
48	201.15550088882446	pulse	1	t		46.0	2.5	/experiments/AOT/AOT_stimuli/rescaled_final/0454_fw.mp4	0.0	222.03705596923828	
48	201.2737739086151	fix_post	2		12	46.0	2.5	/experiments/AOT/AOT_stimuli/rescaled_final/0454_fw.mp4	0.0	222.15532898902893	0.10031604766845703
49	201.37408995628357	fix_pre	0		120	47.0	2.5	/experiments/AOT/AOT_stimuli/rescaled_final/0760_rv.mp4	0.0	222.2556450366974	0.9998860359191895
49	202.37397599220276	movie	1		244	47.0	2.5	/experiments/AOT/AOT_stimuli/rescaled_final/0760_rv.mp4	0.0	223.25553107261658	2.4994330406188965
49	202.758131980896	pulse	1	t		47.0	2.5	/experiments/AOT/AOT_stimuli/rescaled_final/0760_rv.mp4	0.0	223.63968706130981	
49	204.35740900039673	pulse	1	t		47.0	2.5	/experiments/AOT/AOT_stimuli/rescaled_final/0760_rv.mp4	0.0	225.23896408081055	
49	204.87340903282166	fix_post	2		12	47.0	2.5	/experiments/AOT/AOT_stimuli/rescaled_final/0760_rv.mp4	0.0	225.75496411323547	0.10053682327270508
50	204.97394585609436	fix_pre	0		119	48.0	2.5	blank	1.0	225.85550093650818	0.9911031723022461
50	205.95731401443481	pulse	0	t		48.0	2.5	blank	1.0	226.83886909484863	
50	205.9650490283966	movie	1		301	48.0	2.5	blank	1.0	226.84660410881042	2.5088160037994385
50	207.5573489665985	pulse	1	t		48.0	2.5	blank	1.0	228.43890404701233	
50	208.47386503219604	fix_post	2		12	48.0	2.5	blank	1.0	229.35542011260986	0.09998393058776855
51	208.5738489627838	fix_pre	0		120	49.0	2.5	/experiments/AOT/AOT_stimuli/rescaled_final/1440_rv.mp4	0.0	229.45540404319763	0.9995279312133789
51	209.1572549343109	pulse	0	t		49.0	2.5	/experiments/AOT/AOT_stimuli/rescaled_final/1440_rv.mp4	0.0	230.03881001472473	
51	209.5733768939972	movie	1		243	49.0	2.5	/experiments/AOT/AOT_stimuli/rescaled_final/1440_rv.mp4	0.0	230.454931974411	2.5
51	210.7570140361786	pulse	1	t		49.0	2.5	/experiments/AOT/AOT_stimuli/rescaled_final/1440_rv.mp4	0.0	231.6385691165924	
51	212.0733768939972	fix_post	2		12	49.0	2.5	/experiments/AOT/AOT_stimuli/rescaled_final/1440_rv.mp4	0.0	232.954931974411	0.1003580093383789
52	212.17373490333557	fix_pre	0		120	50.0	2.5	/experiments/AOT/AOT_stimuli/rescaled_final/0257_rv.mp4	0.0	233.0552899837494	0.9996659755706787
52	212.3572759628296	pulse	0	t		50.0	2.5	/experiments/AOT/AOT_stimuli/rescaled_final/0257_rv.mp4	0.0	233.2388310432434	
52	213.17340087890625	movie	1		243	50.0	2.5	/experiments/AOT/AOT_stimuli/rescaled_final/0257_rv.mp4	0.0	234.05495595932007	2.5004100799560547
52	213.95732998847961	pulse	1	t		50.0	2.5	/experiments/AOT/AOT_stimuli/rescaled_final/0257_rv.mp4	0.0	234.83888506889343	
52	215.5555489063263	pulse	1	t		50.0	2.5	/experiments/AOT/AOT_stimuli/rescaled_final/0257_rv.mp4	0.0	236.4371039867401	
52	215.6738109588623	fix_post	2		12	50.0	2.5	/experiments/AOT/AOT_stimuli/rescaled_final/0257_rv.mp4	0.0	236.55536603927612	0.10028290748596191
53	215.77409386634827	fix_pre	0		120	51.0	2.5	/experiments/AOT/AOT_stimuli/rescaled_final/0980_fw.mp4	0.0	236.65564894676208	0.9997541904449463
53	216.7738480567932	movie	1		242	51.0	2.5	/experiments/AOT/AOT_stimuli/rescaled_final/0980_fw.mp4	0.0	237.65540313720703	2.499682903289795
53	217.15674591064453	pulse	1	t		51.0	2.5	/experiments/AOT/AOT_stimuli/rescaled_final/0980_fw.mp4	0.0	238.03830099105835	
53	218.7569019794464	pulse	1	t		51.0	2.5	/experiments/AOT/AOT_stimuli/rescaled_final/0980_fw.mp4	0.0	239.63845705986023	
53	219.273530960083	fix_post	2		12	51.0	2.5	/experiments/AOT/AOT_stimuli/rescaled_final/0980_fw.mp4	0.0	240.15508604049683	0.10018706321716309
54	219.37371802330017	fix_pre	0		119	52.0	2.5	/experiments/AOT/AOT_stimuli/rescaled_final/1327_rv.mp4	0.0	240.255273103714	0.9918549060821533
54	220.3568139076233	pulse	0	t		52.0	2.5	/experiments/AOT/AOT_stimuli/rescaled_final/1327_rv.mp4	0.0	241.2383689880371	
54	220.36557292938232	movie	1		245	52.0	2.5	/experiments/AOT/AOT_stimuli/rescaled_final/1327_rv.mp4	0.0	241.24712800979614	2.507796049118042
54	221.95729899406433	pulse	1	t		52.0	2.5	/experiments/AOT/AOT_stimuli/rescaled_final/1327_rv.mp4	0.0	242.83885407447815	
54	222.87336897850037	fix_post	2		12	52.0	2.5	/experiments/AOT/AOT_stimuli/rescaled_final/1327_rv.mp4	0.0	243.75492405891418	0.09996604919433594
55	222.9733350276947	fix_pre	0		120	53.0	2.5	/experiments/AOT/AOT_stimuli/rescaled_final/1607_rv.mp4	0.0	243.85489010810852	1.0004699230194092
55	223.556823015213	pulse	0	t		53.0	2.5	/experiments/AOT/AOT_stimuli/rescaled_final/1607_rv.mp4	0.0	244.43837809562683	
55	223.9738049507141	movie	1		244	53.0	2.5	/experiments/AOT/AOT_stimuli/rescaled_final/1607_rv.mp4	0.0	244.85536003112793	2.499891996383667
55	225.1573519706726	pulse	1	t		53.0	2.5	/experiments/AOT/AOT_stimuli/rescaled_final/1607_rv.mp4	0.0	246.03890705108643	
55	226.47369694709778	fix_post	2		12	53.0	2.5	/experiments/AOT/AOT_stimuli/rescaled_final/1607_rv.mp4	0.0	247.3552520275116	0.1000669002532959
56	226.57376384735107	fix_pre	0		120	54.0	2.5	/experiments/AOT/AOT_stimuli/rescaled_final/1815_rv.mp4	0.0	247.4553189277649	0.9999680519104004
56	226.757385969162	pulse	0	t		54.0	2.5	/experiments/AOT/AOT_stimuli/rescaled_final/1815_rv.mp4	0.0	247.6389410495758	
56	227.57373189926147	movie	1		242	54.0	2.5	/experiments/AOT/AOT_stimuli/rescaled_final/1815_rv.mp4	0.0	248.4552869796753	2.500049114227295
56	228.35730290412903	pulse	1	t		54.0	2.5	/experiments/AOT/AOT_stimuli/rescaled_final/1815_rv.mp4	0.0	249.23885798454285	
56	229.9535939693451	pulse	1	t		54.0	2.5	/experiments/AOT/AOT_stimuli/rescaled_final/1815_rv.mp4	0.0	250.8351490497589	
56	230.07378101348877	fix_post	2		12	54.0	2.5	/experiments/AOT/AOT_stimuli/rescaled_final/1815_rv.mp4	0.0	250.9553360939026	0.09994292259216309
57	230.17372393608093	fix_pre	0		120	55.0	2.5	/experiments/AOT/AOT_stimuli/rescaled_final/0019_rv.mp4	0.0	251.05527901649475	0.9995250701904297
57	231.17324900627136	movie	1		242	55.0	2.5	/experiments/AOT/AOT_stimuli/rescaled_final/0019_rv.mp4	0.0	252.05480408668518	2.500471830368042
57	231.557363986969	pulse	1	t		55.0	2.5	/experiments/AOT/AOT_stimuli/rescaled_final/0019_rv.mp4	0.0	252.4389190673828	
57	233.15677905082703	pulse	1	t		55.0	2.5	/experiments/AOT/AOT_stimuli/rescaled_final/0019_rv.mp4	0.0	254.03833413124084	
57	233.6737208366394	fix_post	2		12	55.0	2.5	/experiments/AOT/AOT_stimuli/rescaled_final/0019_rv.mp4	0.0	254.55527591705322	0.10001921653747559
58	233.77374005317688	fix_pre	0		119	56.0	2.5	blank	1.0	254.6552951335907	0.9917328357696533
58	234.75729894638062	pulse	0	t		56.0	2.5	blank	1.0	255.63885402679443	
58	234.76547288894653	movie	1		301	56.0	2.5	blank	1.0	255.64702796936035	2.5085201263427734
58	236.3574869632721	pulse	1	t		56.0	2.5	blank	1.0	257.2390420436859	
58	237.2739930152893	fix_post	2		12	56.0	2.5	blank	1.0	258.1555480957031	0.09981083869934082
59	237.37380385398865	fix_pre	0		120	57.0	2.5	/experiments/AOT/AOT_stimuli/rescaled_final/1440_rv.mp4	0.0	258.25535893440247	1.0000550746917725
59	237.95680284500122	pulse	0	t		57.0	2.5	/experiments/AOT/AOT_stimuli/rescaled_final/1440_rv.mp4	0.0	258.83835792541504	
59	238.37385892868042	movie	1		244	57.0	2.5	/experiments/AOT/AOT_stimuli/rescaled_final/1440_rv.mp4	0.0	259.25541400909424	2.499423027038574
59	239.55681705474854	pulse	1	t		57.0	2.5	/experiments/AOT/AOT_stimuli/rescaled_final/1440_rv.mp4	0.0	260.43837213516235	
59	240.873281955719	fix_post	2		12	57.0	2.5	/experiments/AOT/AOT_stimuli/rescaled_final/1440_rv.mp4	0.0	261.7548370361328	0.09997892379760742
60	240.9732608795166	fix_pre	0		120	58.0	2.5	/experiments/AOT/AOT_stimuli/rescaled_final/1834_fw.mp4	0.0	261.8548159599304	1.000391960144043
60	241.15675282478333	pulse	0	t		58.0	2.5	/experiments/AOT/AOT_stimuli/rescaled_final/1834_fw.mp4	0.0	262.03830790519714	
60	241.97365283966064	movie	1		242	58.0	2.5	/experiments/AOT/AOT_stimuli/rescaled_final/1834_fw.mp4	0.0	262.85520792007446	2.4995901584625244
60	242.75667095184326	pulse	1	t		58.0	2.5	/experiments/AOT/AOT_stimuli/rescaled_final/1834_fw.mp4	0.0	263.6382260322571	
60	244.35527801513672	pulse	1	t		58.0	2.5	/experiments/AOT/AOT_stimuli/rescaled_final/1834_fw.mp4	0.0	265.23683309555054	
60	244.47324299812317	fix_post	2		12	58.0	2.5	/experiments/AOT/AOT_stimuli/rescaled_final/1834_fw.mp4	0.0	265.354798078537	0.10044693946838379
61	244.57368993759155	fix_pre	0		120	59.0	2.5	/experiments/AOT/AOT_stimuli/rescaled_final/1532_rv.mp4	0.0	265.45524501800537	0.9997000694274902
61	245.57339000701904	movie	1		242	59.0	2.5	/experiments/AOT/AOT_stimuli/rescaled_final/1532_rv.mp4	0.0	266.45494508743286	2.4998619556427
61	245.9568910598755	pulse	1	t		59.0	2.5	/experiments/AOT/AOT_stimuli/rescaled_final/1532_rv.mp4	0.0	266.8384461402893	
61	247.55675792694092	pulse	1	t		59.0	2.5	/experiments/AOT/AOT_stimuli/rescaled_final/1532_rv.mp4	0.0	268.43831300735474	
61	248.07325196266174	fix_post	2		12	59.0	2.5	/experiments/AOT/AOT_stimuli/rescaled_final/1532_rv.mp4	0.0	268.95480704307556	0.09997391700744629
62	248.1732258796692	fix_pre	0		119	60.0	2.5	/experiments/AOT/AOT_stimuli/rescaled_final/0262_fw.mp4	0.0	269.054780960083	0.9915950298309326
62	249.1571979522705	pulse	0	t		60.0	2.5	/experiments/AOT/AOT_stimuli/rescaled_final/0262_fw.mp4	0.0	270.0387530326843	
62	249.16482090950012	movie	1		245	60.0	2.5	/experiments/AOT/AOT_stimuli/rescaled_final/0262_fw.mp4	0.0	270.04637598991394	2.508652925491333
62	250.75673985481262	pulse	1	t		60.0	2.5	/experiments/AOT/AOT_stimuli/rescaled_final/0262_fw.mp4	0.0	271.63829493522644	
62	251.67347383499146	fix_post	2		12	60.0	2.5	/experiments/AOT/AOT_stimuli/rescaled_final/0262_fw.mp4	0.0	272.5550289154053	0.10017514228820801
63	251.77364897727966	fix_pre	0		120	61.0	2.5	blank	1.0	272.6552040576935	0.9989969730377197
63	252.35801005363464	pulse	0	t		61.0	2.5	blank	1.0	273.23956513404846	
63	252.77264595031738	movie	1		300	61.0	2.5	blank	1.0	273.6542010307312	2.5009729862213135
63	253.95708584785461	pulse	1	t		61.0	2.5	blank	1.0	274.83864092826843	
63	255.2736189365387	fix_post	2		12	61.0	2.5	blank	1.0	276.1551740169525	0.10002589225769043
64	255.3736448287964	fix_pre	0		120	62.0	2.5	/experiments/AOT/AOT_stimuli/rescaled_final/1747_rv.mp4	0.0	276.2551999092102	1.0000131130218506
64	255.5566098690033	pulse	0	t		62.0	2.5	/experiments/AOT/AOT_stimuli/rescaled_final/1747_rv.mp4	0.0	276.4381649494171	
64	256.37365794181824	movie	1		242	62.0	2.5	/experiments/AOT/AOT_stimuli/rescaled_final/1747_rv.mp4	0.0	277.25521302223206	2.4995570182800293
64	257.15708899497986	pulse	1	t		62.0	2.5	/experiments/AOT/AOT_stimuli/rescaled_final/1747_rv.mp4	0.0	278.0386440753937	
64	258.7557580471039	pulse	1	t		62.0	2.5	/experiments/AOT/AOT_stimuli/rescaled_final/1747_rv.mp4	0.0	279.6373131275177	
64	258.87321496009827	fix_post	2		12	62.0	2.5	/experiments/AOT/AOT_stimuli/rescaled_final/1747_rv.mp4	0.0	279.7547700405121	0.10036206245422363
65	258.9735770225525	fix_pre	0		120	63.0	2.5	/experiments/AOT/AOT_stimuli/rescaled_final/1972_rv.mp4	0.0	279.8551321029663	0.9995629787445068
65	259.973140001297	movie	1		244	63.0	2.5	/experiments/AOT/AOT_stimuli/rescaled_final/1972_rv.mp4	0.0	280.8546950817108	2.4995579719543457
65	260.3562068939209	pulse	1	t		63.0	2.5	/experiments/AOT/AOT_stimuli/rescaled_final/1972_rv.mp4	0.0	281.2377619743347	
65	261.9566218852997	pulse	1	t		63.0	2.5	/experiments/AOT/AOT_stimuli/rescaled_final/1972_rv.mp4	0.0	282.8381769657135	
65	262.47269797325134	fix_post	2		12	63.0	2.5	/experiments/AOT/AOT_stimuli/rescaled_final/1972_rv.mp4	0.0	283.35425305366516	0.1005239486694336
66	262.5732219219208	fix_pre	0		119	64.0	2.5	/experiments/AOT/AOT_stimuli/rescaled_final/1731_fw.mp4	0.0	283.4547770023346	0.9916419982910156
66	263.5567409992218	pulse	0	t		64.0	2.5	/experiments/AOT/AOT_stimuli/rescaled_final/1731_fw.mp4	0.0	284.4382960796356	
66	263.5648639202118	movie	1		244	64.0	2.5	/experiments/AOT/AOT_stimuli/rescaled_final/1731_fw.mp4	0.0	284.4464190006256	2.5082130432128906
66	265.1585738658905	pulse	1	t		64.0	2.5	/experiments/AOT/AOT_stimuli/rescaled_final/1731_fw.mp4	0.0	286.0401289463043	
66	266.0730769634247	fix_post	2		12	64.0	2.5	/experiments/AOT/AOT_stimuli/rescaled_final/1731_fw.mp4	0.0	286.9546320438385	0.10052800178527832
67	266.17360496520996	fix_pre	0		120	65.0	2.5	/experiments/AOT/AOT_stimuli/rescaled_final/1247_fw.mp4	0.0	287.0551600456238	0.9999229907989502
67	266.7571108341217	pulse	0	t		65.0	2.5	/experiments/AOT/AOT_stimuli/rescaled_final/1247_fw.mp4	0.0	287.6386659145355	
67	267.1735279560089	movie	1		242	65.0	2.5	/experiments/AOT/AOT_stimuli/rescaled_final/1247_fw.mp4	0.0	288.05508303642273	2.499613046646118
67	268.357106924057	pulse	1	t		65.0	2.5	/experiments/AOT/AOT_stimuli/rescaled_final/1247_fw.mp4	0.0	289.2386620044708	
67	269.67314100265503	fix_post	2		12	65.0	2.5	/experiments/AOT/AOT_stimuli/rescaled_final/1247_fw.mp4	0.0	290.55469608306885	0.1004328727722168
68	269.77357387542725	fix_pre	0		120	66.0	2.5	/experiments/AOT/AOT_stimuli/rescaled_final/1984_fw.mp4	0.0	290.65512895584106	0.9995021820068359
68	269.9565670490265	pulse	0	t		66.0	2.5	/experiments/AOT/AOT_stimuli/rescaled_final/1984_fw.mp4	0.0	290.8381221294403	
68	270.7730760574341	movie	1		244	66.0	2.5	/experiments/AOT/AOT_stimuli/rescaled_final/1984_fw.mp4	0.0	291.6546311378479	2.500088930130005
68	271.55695605278015	pulse	1	t		66.0	2.5	/experiments/AOT/AOT_stimuli/rescaled_final/1984_fw.mp4	0.0	292.43851113319397	
68	273.1569490432739	pulse	1	t		66.0	2.5	/experiments/AOT/AOT_stimuli/rescaled_final/1984_fw.mp4	0.0	294.03850412368774	
68	273.2731649875641	fix_post	2		12	66.0	2.5	/experiments/AOT/AOT_stimuli/rescaled_final/1984_fw.mp4	0.0	294.1547200679779	0.10037899017333984
69	273.3735439777374	fix_pre	0		120	67.0	2.5	/experiments/AOT/AOT_stimuli/rescaled_final/1688_rv.mp4	0.0	294.25509905815125	0.9995648860931396
69	274.37310886383057	movie	1		242	67.0	2.5	/experiments/AOT/AOT_stimuli/rescaled_final/1688_rv.mp4	0.0	295.2546639442444	2.4998791217803955
69	274.7569668292999	pulse	1	t		67.0	2.5	/experiments/AOT/AOT_stimuli/rescaled_final/1688_rv.mp4	0.0	295.63852190971375	
69	276.3566679954529	pulse	1	t		67.0	2.5	/experiments/AOT/AOT_stimuli/rescaled_final/1688_rv.mp4	0.0	297.2382230758667	
69	276.87298798561096	fix_post	2		12	67.0	2.5	/experiments/AOT/AOT_stimuli/rescaled_final/1688_rv.mp4	0.0	297.7545430660248	0.10060000419616699
70	276.97358798980713	fix_pre	0		119	68.0	2.5	/experiments/AOT/AOT_stimuli/rescaled_final/1239_rv.mp4	0.0	297.85514307022095	0.9916038513183594
70	277.9570200443268	pulse	0	t		68.0	2.5	/experiments/AOT/AOT_stimuli/rescaled_final/1239_rv.mp4	0.0	298.8385751247406	
70	277.9651918411255	movie	1		246	68.0	2.5	/experiments/AOT/AOT_stimuli/rescaled_final/1239_rv.mp4	0.0	298.8467469215393	2.5078070163726807
70	279.5565359592438	pulse	1	t		68.0	2.5	/experiments/AOT/AOT_stimuli/rescaled_final/1239_rv.mp4	0.0	300.4380910396576	
70	280.47299885749817	fix_post	2		12	68.0	2.5	/experiments/AOT/AOT_stimuli/rescaled_final/1239_rv.mp4	0.0	301.354553937912	0.10044503211975098
71	280.5734438896179	fix_pre	0		120	69.0	2.5	blank	1.0	301.45499897003174	1.0001089572906494
71	281.15654397010803	pulse	0	t		69.0	2.5	blank	1.0	302.03809905052185	
71	281.57355284690857	movie	1		300	69.0	2.5	blank	1.0	302.4551079273224	2.4995150566101074
71	282.75692200660706	pulse	1	t		69.0	2.5	blank	1.0	303.6384770870209	
71	284.0730679035187	fix_post	2		12	69.0	2.5	blank	1.0	304.9546229839325	0.10042309761047363
72	284.17349100112915	fix_pre	0		120	70.0	2.5	/experiments/AOT/AOT_stimuli/rescaled_final/1543_fw.mp4	0.0	305.05504608154297	0.9995100498199463
72	284.35644793510437	pulse	0	t		70.0	2.5	/experiments/AOT/AOT_stimuli/rescaled_final/1543_fw.mp4	0.0	305.2380030155182	
72	285.1730010509491	movie	1		241	70.0	2.5	/experiments/AOT/AOT_stimuli/rescaled_final/1543_fw.mp4	0.0	306.0545561313629	2.5000698566436768
72	285.9564640522003	pulse	1	t		70.0	2.5	/experiments/AOT/AOT_stimuli/rescaled_final/1543_fw.mp4	0.0	306.83801913261414	
72	287.5549910068512	pulse	1	t		70.0	2.5	/experiments/AOT/AOT_stimuli/rescaled_final/1543_fw.mp4	0.0	308.436546087265	
72	287.6730709075928	fix_post	2		12	70.0	2.5	/experiments/AOT/AOT_stimuli/rescaled_final/1543_fw.mp4	0.0	308.5546259880066	0.10042095184326172
73	287.77349185943604	fix_pre	0		120	71.0	2.5	/experiments/AOT/AOT_stimuli/rescaled_final/1894_fw.mp4	0.0	308.65504693984985	0.9995360374450684
73	288.7730278968811	movie	1		244	71.0	2.5	/experiments/AOT/AOT_stimuli/rescaled_final/1894_fw.mp4	0.0	309.6545829772949	2.500002145767212
73	289.1557469367981	pulse	1	t		71.0	2.5	/experiments/AOT/AOT_stimuli/rescaled_final/1894_fw.mp4	0.0	310.0373020172119	
73	290.75668597221375	pulse	1	t		71.0	2.5	/experiments/AOT/AOT_stimuli/rescaled_final/1894_fw.mp4	0.0	311.63824105262756	
73	291.2730300426483	fix_post	2		12	71.0	2.5	/experiments/AOT/AOT_stimuli/rescaled_final/1894_fw.mp4	0.0	312.15458512306213	0.10048580169677734
74	291.3735158443451	fix_pre	0		119	72.0	2.5	/experiments/AOT/AOT_stimuli/rescaled_final/2054_rv.mp4	0.0	312.2550709247589	0.9917981624603271
74	292.35714292526245	pulse	0	t		72.0	2.5	/experiments/AOT/AOT_stimuli/rescaled_final/2054_rv.mp4	0.0	313.23869800567627	
74	292.3653140068054	movie	1		244	72.0	2.5	/experiments/AOT/AOT_stimuli/rescaled_final/2054_rv.mp4	0.0	313.24686908721924	2.5076730251312256
74	293.95632004737854	pulse	1	t		72.0	2.5	/experiments/AOT/AOT_stimuli/rescaled_final/2054_rv.mp4	0.0	314.83787512779236	
74	294.87298703193665	fix_post	2		12	72.0	2.5	/experiments/AOT/AOT_stimuli/rescaled_final/2054_rv.mp4	0.0	315.75454211235046	0.09992289543151855
75	294.97290992736816	fix_pre	0		120	73.0	2.5	/experiments/AOT/AOT_stimuli/rescaled_final/1643_rv.mp4	0.0	315.854465007782	1.000072956085205
75	295.55640602111816	pulse	0	t		73.0	2.5	/experiments/AOT/AOT_stimuli/rescaled_final/1643_rv.mp4	0.0	316.437961101532	
75	295.97298288345337	movie	1		242	73.0	2.5	/experiments/AOT/AOT_stimuli/rescaled_final/1643_rv.mp4	0.0	316.8545379638672	2.49997615814209
75	297.1566138267517	pulse	1	t		73.0	2.5	/experiments/AOT/AOT_stimuli/rescaled_final/1643_rv.mp4	0.0	318.0381689071655	
75	298.47295904159546	fix_post	2		12	73.0	2.5	/experiments/AOT/AOT_stimuli/rescaled_final/1643_rv.mp4	0.0	319.3545141220093	0.10051989555358887
76	298.57347893714905	fix_pre	0		120	74.0	2.5	/experiments/AOT/AOT_stimuli/rescaled_final/1894_rv.mp4	0.0	319.45503401756287	1.0001280307769775
76	298.7564158439636	pulse	0	t		74.0	2.5	/experiments/AOT/AOT_stimuli/rescaled_final/1894_rv.mp4	0.0	319.63797092437744	
76	299.573606967926	movie	1		243	74.0	2.5	/experiments/AOT/AOT_stimuli/rescaled_final/1894_rv.mp4	0.0	320.45516204833984	2.4998018741607666
76	300.35646295547485	pulse	1	t		74.0	2.5	/experiments/AOT/AOT_stimuli/rescaled_final/1894_rv.mp4	0.0	321.2380180358887	
76	301.9553048610687	pulse	1	t		74.0	2.5	/experiments/AOT/AOT_stimuli/rescaled_final/1894_rv.mp4	0.0	322.83685994148254	
76	302.0734088420868	fix_post	2		12	74.0	2.5	/experiments/AOT/AOT_stimuli/rescaled_final/1894_rv.mp4	0.0	322.9549639225006	0.09952020645141602
77	302.1729290485382	fix_pre	0		120	75.0	2.5	/experiments/AOT/AOT_stimuli/rescaled_final/0740_rv.mp4	0.0	323.054484128952	1.0004549026489258
77	303.17338395118713	movie	1		245	75.0	2.5	/experiments/AOT/AOT_stimuli/rescaled_final/0740_rv.mp4	0.0	324.05493903160095	2.499617099761963
77	303.55601501464844	pulse	1	t		75.0	2.5	/experiments/AOT/AOT_stimuli/rescaled_final/0740_rv.mp4	0.0	324.43757009506226	
77	305.15679693222046	pulse	1	t		75.0	2.5	/experiments/AOT/AOT_stimuli/rescaled_final/0740_rv.mp4	0.0	326.0383520126343	
77	305.6730010509491	fix_post	2		12	75.0	2.5	/experiments/AOT/AOT_stimuli/rescaled_final/0740_rv.mp4	0.0	326.5545561313629	0.10034799575805664
78	305.77334904670715	fix_pre	0		119	76.0	2.5	/experiments/AOT/AOT_stimuli/rescaled_final/1923_fw.mp4	0.0	326.654904127121	0.9912309646606445
78	306.7564718723297	pulse	0	t		76.0	2.5	/experiments/AOT/AOT_stimuli/rescaled_final/1923_fw.mp4	0.0	327.63802695274353	
78	306.7645800113678	movie	1		246	76.0	2.5	/experiments/AOT/AOT_stimuli/rescaled_final/1923_fw.mp4	0.0	327.6461350917816	2.5087978839874268
78	308.35789585113525	pulse	1	t		76.0	2.5	/experiments/AOT/AOT_stimuli/rescaled_final/1923_fw.mp4	0.0	329.2394509315491	
78	309.2733778953552	fix_post	2		12	76.0	2.5	/experiments/AOT/AOT_stimuli/rescaled_final/1923_fw.mp4	0.0	330.15493297576904	0.09958600997924805
79	309.3729639053345	fix_pre	0		120	77.0	2.5	blank	1.0	330.2545189857483	1.000446081161499
79	309.95834589004517	pulse	0	t		77.0	2.5	blank	1.0	330.839900970459	
79	310.373409986496	movie	1		300	77.0	2.5	blank	1.0	331.2549650669098	2.4998998641967773
79	311.5568599700928	pulse	1	t		77.0	2.5	blank	1.0	332.4384150505066	
79	312.87330985069275	fix_post	2		12	77.0	2.5	blank	1.0	333.75486493110657	0.0999910831451416
80	312.9733009338379	fix_pre	0		120	78.0	2.5	/experiments/AOT/AOT_stimuli/rescaled_final/1803_rv.mp4	0.0	333.8548560142517	1.000046968460083
80	313.1565878391266	pulse	0	t		78.0	2.5	/experiments/AOT/AOT_stimuli/rescaled_final/1803_rv.mp4	0.0	334.0381429195404	
80	313.973347902298	movie	1		241	78.0	2.5	/experiments/AOT/AOT_stimuli/rescaled_final/1803_rv.mp4	0.0	334.8549029827118	2.4985949993133545
80	314.75634002685547	pulse	1	t		78.0	2.5	/experiments/AOT/AOT_stimuli/rescaled_final/1803_rv.mp4	0.0	335.6378951072693	
80	316.35566687583923	pulse	1	t		78.0	2.5	/experiments/AOT/AOT_stimuli/rescaled_final/1803_rv.mp4	0.0	337.23722195625305	
80	316.4719429016113	fix_post	2		12	78.0	2.5	/experiments/AOT/AOT_stimuli/rescaled_final/1803_rv.mp4	0.0	337.35349798202515	0.10130095481872559
81	316.57324385643005	fix_pre	0		120	79.0	2.5	/experiments/AOT/AOT_stimuli/rescaled_final/1934_rv.mp4	0.0	337.4547989368439	0.9999799728393555
81	317.5732238292694	movie	1		242	79.0	2.5	/experiments/AOT/AOT_stimuli/rescaled_final/1934_rv.mp4	0.0	338.4547789096832	2.4991860389709473
81	317.95625591278076	pulse	1	t		79.0	2.5	/experiments/AOT/AOT_stimuli/rescaled_final/1934_rv.mp4	0.0	338.8378109931946	
81	319.5567009449005	pulse	1	t		79.0	2.5	/experiments/AOT/AOT_stimuli/rescaled_final/1934_rv.mp4	0.0	340.43825602531433	
81	320.07240986824036	fix_post	2		12	79.0	2.5	/experiments/AOT/AOT_stimuli/rescaled_final/1934_rv.mp4	0.0	340.9539649486542	0.10081696510314941
82	320.1732268333435	fix_pre	0		119	80.0	2.5	/experiments/AOT/AOT_stimuli/rescaled_final/0082_rv.mp4	0.0	341.0547819137573	0.9917171001434326
82	321.15536093711853	pulse	0	t		80.0	2.5	/experiments/AOT/AOT_stimuli/rescaled_final/0082_rv.mp4	0.0	342.03691601753235	
82	321.16494393348694	movie	1		244	80.0	2.5	/experiments/AOT/AOT_stimuli/rescaled_final/0082_rv.mp4	0.0	342.04649901390076	2.5069470405578613
82	322.75534987449646	pulse	1	t		80.0	2.5	/experiments/AOT/AOT_stimuli/rescaled_final/0082_rv.mp4	0.0	343.6369049549103	
82	323.6718909740448	fix_post	2		12	80.0	2.5	/experiments/AOT/AOT_stimuli/rescaled_final/0082_rv.mp4	0.0	344.5534460544586	0.10031294822692871
83	323.77220392227173	fix_pre	0		120	81.0	2.5	/experiments/AOT/AOT_stimuli/rescaled_final/1634_fw.mp4	0.0	344.65375900268555	0.9997470378875732
83	324.35595703125	pulse	0	t		81.0	2.5	/experiments/AOT/AOT_stimuli/rescaled_final/1634_fw.mp4	0.0	345.2375121116638	
83	324.7719509601593	movie	1		247	81.0	2.5	/experiments/AOT/AOT_stimuli/rescaled_final/1634_fw.mp4	0.0	345.6535060405731	2.4999890327453613
83	325.95546889305115	pulse	1	t		81.0	2.5	/experiments/AOT/AOT_stimuli/rescaled_final/1634_fw.mp4	0.0	346.83702397346497	
83	327.27193999290466	fix_post	2		12	81.0	2.5	/experiments/AOT/AOT_stimuli/rescaled_final/1634_fw.mp4	0.0	348.1534950733185	0.09991598129272461
84	327.3718559741974	fix_pre	0		120	82.0	2.5	blank	1.0	348.2534110546112	1.0000169277191162
84	327.55671191215515	pulse	0	t		82.0	2.5	blank	1.0	348.43826699256897	
84	328.3718729019165	movie	1		300	82.0	2.5	blank	1.0	349.2534279823303	2.5002541542053223
84	329.15540194511414	pulse	1	t		82.0	2.5	blank	1.0	350.03695702552795	
84	330.755735874176	pulse	1	t		82.0	2.5	blank	1.0	351.63729095458984	
84	330.8721270561218	fix_post	2		12	82.0	2.5	blank	1.0	351.75368213653564	0.09973287582397461
85	330.9718599319458	fix_pre	0		120	83.0	2.5	/experiments/AOT/AOT_stimuli/rescaled_final/1411_fw.mp4	0.0	351.8534150123596	1.0000169277191162
85	331.9718768596649	movie	1		243	83.0	2.5	/experiments/AOT/AOT_stimuli/rescaled_final/1411_fw.mp4	0.0	352.85343194007874	2.5000040531158447
85	332.3561680316925	pulse	1	t		83.0	2.5	/experiments/AOT/AOT_stimuli/rescaled_final/1411_fw.mp4	0.0	353.2377231121063	
85	333.9553599357605	pulse	1	t		83.0	2.5	/experiments/AOT/AOT_stimuli/rescaled_final/1411_fw.mp4	0.0	354.8369150161743	
85	334.47188091278076	fix_post	2		12	83.0	2.5	/experiments/AOT/AOT_stimuli/rescaled_final/1411_fw.mp4	0.0	355.3534359931946	0.09995102882385254
87	334.5718319416046	stim	0		1716					355.45338702201843	14.300695896148682
87	335.55532789230347	pulse	0	t						356.4368829727173	
87	337.15571689605713	pulse	0	t						358.03727197647095	
87	338.7557759284973	pulse	0	t						359.63733100891113	
87	340.3548548221588	pulse	0	t						361.23640990257263	
87	341.95525002479553	pulse	0	t						362.83680510520935	
87	343.5548198223114	pulse	0	t						364.4363749027252	
87	345.15484499931335	pulse	0	t						366.0364000797272	
87	346.75576996803284	pulse	0	t						367.63732504844666	
87	348.355908870697	pulse	0	t						369.23746395111084	
