trial_nr	onset	event_type	phase	response	nr_frames	movie_index	movie_duration	movie_file	blank	onset_abs	duration
0	0.1912529468536377	stim	0		23					35.68354392051697	0.25811004638671875
0	0.4396538734436035	response	0	space						35.931944847106934	
1	0.44936299324035645	stim	0		4527					35.94165396690369	37.74031901359558
1	38.17951989173889	pulse	0	t						73.67181086540222	
1	38.18968200683594	stim	1		1715					73.68197298049927	14.300768852233887
1	39.77207398414612	pulse	1	t						75.26436495780945	
1	41.37243390083313	pulse	1	t						76.86472487449646	
1	42.97263693809509	pulse	1	t						78.46492791175842	
1	44.56544494628906	pulse	1	t						80.05773591995239	
1	46.16548800468445	pulse	1	t						81.65777897834778	
1	47.76571488380432	pulse	1	t						83.25800585746765	
1	49.36591100692749	pulse	1	t						84.85820198059082	
1	50.965298891067505	pulse	1	t						86.45758986473083	
2	52.490450859069824	fix_pre	0		9	0.0	2.5	/experiments/knapen_AOT/AOT_stimuli/rescaled_final/1579_rv.mp4	0.0	87.98274183273315	0.09187102317810059
2	52.565566062927246	pulse	0	t		0.0	2.5	/experiments/knapen_AOT/AOT_stimuli/rescaled_final/1579_rv.mp4	0.0	88.05785703659058	
2	52.582321882247925	movie	1		207	0.0	2.5	/experiments/knapen_AOT/AOT_stimuli/rescaled_final/1579_rv.mp4	0.0	88.07461285591125	2.5001821517944336
2	54.1678729057312	pulse	1	t		0.0	2.5	/experiments/knapen_AOT/AOT_stimuli/rescaled_final/1579_rv.mp4	0.0	89.66016387939453	
2	55.08250403404236	fix_post	2		12	0.0	2.5	/experiments/knapen_AOT/AOT_stimuli/rescaled_final/1579_rv.mp4	0.0	90.57479500770569	0.10001492500305176
3	55.18251895904541	fix_pre	0		120	1.0	2.5	/experiments/knapen_AOT/AOT_stimuli/rescaled_final/1931_rv.mp4	0.0	90.67480993270874	1.0001580715179443
3	55.766170024871826	pulse	0	t		1.0	2.5	/experiments/knapen_AOT/AOT_stimuli/rescaled_final/1931_rv.mp4	0.0	91.25846099853516	
3	56.182677030563354	movie	1		223	1.0	2.5	/experiments/knapen_AOT/AOT_stimuli/rescaled_final/1931_rv.mp4	0.0	91.67496800422668	2.5087859630584717
3	57.36645007133484	pulse	1	t		1.0	2.5	/experiments/knapen_AOT/AOT_stimuli/rescaled_final/1931_rv.mp4	0.0	92.85874104499817	
3	58.691462993621826	fix_post	2		11	1.0	2.5	/experiments/knapen_AOT/AOT_stimuli/rescaled_final/1931_rv.mp4	0.0	94.18375396728516	0.09159207344055176
4	58.78305506706238	fix_pre	0		120	2.0	2.5	/experiments/knapen_AOT/AOT_stimuli/rescaled_final/1059_rv.mp4	0.0	94.27534604072571	1.0001769065856934
4	58.966557025909424	pulse	0	t		2.0	2.5	/experiments/knapen_AOT/AOT_stimuli/rescaled_final/1059_rv.mp4	0.0	94.45884799957275	
4	59.78323197364807	movie	1		229	2.0	2.5	/experiments/knapen_AOT/AOT_stimuli/rescaled_final/1059_rv.mp4	0.0	95.2755229473114	2.500437021255493
4	60.56690001487732	pulse	1	t		2.0	2.5	/experiments/knapen_AOT/AOT_stimuli/rescaled_final/1059_rv.mp4	0.0	96.05919098854065	
4	62.16716003417969	pulse	1	t		2.0	2.5	/experiments/knapen_AOT/AOT_stimuli/rescaled_final/1059_rv.mp4	0.0	97.65945100784302	
4	62.283668994903564	fix_post	2		12	2.0	2.5	/experiments/knapen_AOT/AOT_stimuli/rescaled_final/1059_rv.mp4	0.0	97.7759599685669	0.09992408752441406
5	62.38359308242798	fix_pre	0		120	3.0	2.5	/experiments/knapen_AOT/AOT_stimuli/rescaled_final/0442_fw.mp4	0.0	97.87588405609131	1.0001327991485596
5	63.38372588157654	movie	1		243	3.0	2.5	/experiments/knapen_AOT/AOT_stimuli/rescaled_final/0442_fw.mp4	0.0	98.87601685523987	2.5006051063537598
5	63.7680549621582	pulse	1	t		3.0	2.5	/experiments/knapen_AOT/AOT_stimuli/rescaled_final/0442_fw.mp4	0.0	99.26034593582153	
5	65.36760687828064	pulse	1	t		3.0	2.5	/experiments/knapen_AOT/AOT_stimuli/rescaled_final/0442_fw.mp4	0.0	100.85989785194397	
5	65.8843309879303	fix_post	2		12	3.0	2.5	/experiments/knapen_AOT/AOT_stimuli/rescaled_final/0442_fw.mp4	0.0	101.37662196159363	0.0997929573059082
6	65.9841239452362	fix_pre	0		119	4.0	2.5	/experiments/knapen_AOT/AOT_stimuli/rescaled_final/1703_fw.mp4	0.0	101.47641491889954	0.991832971572876
6	66.96776390075684	pulse	0	t		4.0	2.5	/experiments/knapen_AOT/AOT_stimuli/rescaled_final/1703_fw.mp4	0.0	102.46005487442017	
6	66.97595691680908	movie	1		243	4.0	2.5	/experiments/knapen_AOT/AOT_stimuli/rescaled_final/1703_fw.mp4	0.0	102.46824789047241	2.5087671279907227
6	68.56844592094421	pulse	1	t		4.0	2.5	/experiments/knapen_AOT/AOT_stimuli/rescaled_final/1703_fw.mp4	0.0	104.06073689460754	
6	69.4847240447998	fix_post	2		12	4.0	2.5	/experiments/knapen_AOT/AOT_stimuli/rescaled_final/1703_fw.mp4	0.0	104.97701501846313	0.09998893737792969
7	69.58471298217773	fix_pre	0		120	5.0	2.5	/experiments/knapen_AOT/AOT_stimuli/rescaled_final/0772_rv.mp4	0.0	105.07700395584106	1.0001111030578613
7	70.16836094856262	pulse	0	t		5.0	2.5	/experiments/knapen_AOT/AOT_stimuli/rescaled_final/0772_rv.mp4	0.0	105.66065192222595	
7	70.5848240852356	movie	1		243	5.0	2.5	/experiments/knapen_AOT/AOT_stimuli/rescaled_final/0772_rv.mp4	0.0	106.07711505889893	2.5005319118499756
7	71.76857900619507	pulse	1	t		5.0	2.5	/experiments/knapen_AOT/AOT_stimuli/rescaled_final/0772_rv.mp4	0.0	107.2608699798584	
7	73.08535599708557	fix_post	2		12	5.0	2.5	/experiments/knapen_AOT/AOT_stimuli/rescaled_final/0772_rv.mp4	0.0	108.5776469707489	0.09982800483703613
8	73.18518400192261	fix_pre	0		117	6.0	2.5	blank	1.0	108.67747497558594	1.0001778602600098
8	73.36878705024719	pulse	0	t		6.0	2.5	blank	1.0	108.86107802391052	
8	74.18536186218262	movie	1		300	6.0	2.5	blank	1.0	109.67765283584595	2.500394105911255
8	74.96914505958557	pulse	1	t		6.0	2.5	blank	1.0	110.4614360332489	
8	76.56928896903992	pulse	1	t		6.0	2.5	blank	1.0	112.06157994270325	
8	76.68575596809387	fix_post	2		12	6.0	2.5	blank	1.0	112.1780469417572	0.09996509552001953
9	76.78572106361389	fix_pre	0		120	7.0	2.5	/experiments/knapen_AOT/AOT_stimuli/rescaled_final/0105_fw.mp4	0.0	112.27801203727722	1.0001988410949707
9	77.78591990470886	movie	1		242	7.0	2.5	/experiments/knapen_AOT/AOT_stimuli/rescaled_final/0105_fw.mp4	0.0	113.27821087837219	2.492033004760742
9	78.1707980632782	pulse	1	t		7.0	2.5	/experiments/knapen_AOT/AOT_stimuli/rescaled_final/0105_fw.mp4	0.0	113.66308903694153	
9	79.76970601081848	pulse	1	t		7.0	2.5	/experiments/knapen_AOT/AOT_stimuli/rescaled_final/0105_fw.mp4	0.0	115.26199698448181	
9	80.2779529094696	fix_post	2		12	7.0	2.5	/experiments/knapen_AOT/AOT_stimuli/rescaled_final/0105_fw.mp4	0.0	115.77024388313293	0.1000521183013916
10	80.378005027771	fix_pre	0		120	8.0	2.5	/experiments/knapen_AOT/AOT_stimuli/rescaled_final/1457_fw.mp4	0.0	115.87029600143433	1.0001628398895264
10	81.37002301216125	pulse	0	t		8.0	2.5	/experiments/knapen_AOT/AOT_stimuli/rescaled_final/1457_fw.mp4	0.0	116.86231398582458	
10	81.37816786766052	movie	1		244	8.0	2.5	/experiments/knapen_AOT/AOT_stimuli/rescaled_final/1457_fw.mp4	0.0	116.87045884132385	2.5086669921875
10	82.97083401679993	pulse	1	t		8.0	2.5	/experiments/knapen_AOT/AOT_stimuli/rescaled_final/1457_fw.mp4	0.0	118.46312499046326	
10	83.88683485984802	fix_post	2		12	8.0	2.5	/experiments/knapen_AOT/AOT_stimuli/rescaled_final/1457_fw.mp4	0.0	119.37912583351135	0.0999610424041748
11	83.9867959022522	fix_pre	0		120	9.0	2.5	/experiments/knapen_AOT/AOT_stimuli/rescaled_final/1240_fw.mp4	0.0	119.47908687591553	1.0002529621124268
11	84.57048392295837	pulse	0	t		9.0	2.5	/experiments/knapen_AOT/AOT_stimuli/rescaled_final/1240_fw.mp4	0.0	120.0627748966217	
11	84.98704886436462	movie	1		243	9.0	2.5	/experiments/knapen_AOT/AOT_stimuli/rescaled_final/1240_fw.mp4	0.0	120.47933983802795	2.500441074371338
11	86.16631293296814	pulse	1	t		9.0	2.5	/experiments/knapen_AOT/AOT_stimuli/rescaled_final/1240_fw.mp4	0.0	121.65860390663147	
11	87.48748993873596	fix_post	2		12	9.0	2.5	/experiments/knapen_AOT/AOT_stimuli/rescaled_final/1240_fw.mp4	0.0	122.97978091239929	0.09988093376159668
12	87.58737087249756	fix_pre	0		120	10.0	2.5	/experiments/knapen_AOT/AOT_stimuli/rescaled_final/0386_fw.mp4	0.0	123.07966184616089	1.0001220703125
12	87.77095007896423	pulse	0	t		10.0	2.5	/experiments/knapen_AOT/AOT_stimuli/rescaled_final/0386_fw.mp4	0.0	123.26324105262756	
12	88.58749294281006	movie	1		244	10.0	2.5	/experiments/knapen_AOT/AOT_stimuli/rescaled_final/0386_fw.mp4	0.0	124.07978391647339	2.5003790855407715
12	89.37128400802612	pulse	1	t		10.0	2.5	/experiments/knapen_AOT/AOT_stimuli/rescaled_final/0386_fw.mp4	0.0	124.86357498168945	
12	90.97146606445312	pulse	1	t		10.0	2.5	/experiments/knapen_AOT/AOT_stimuli/rescaled_final/0386_fw.mp4	0.0	126.46375703811646	
12	91.08787202835083	fix_post	2		12	10.0	2.5	/experiments/knapen_AOT/AOT_stimuli/rescaled_final/0386_fw.mp4	0.0	126.58016300201416	0.10000896453857422
13	91.1878809928894	fix_pre	0		120	11.0	2.5	/experiments/knapen_AOT/AOT_stimuli/rescaled_final/0951_fw.mp4	0.0	126.68017196655273	1.0001370906829834
13	92.18801808357239	movie	1		243	11.0	2.5	/experiments/knapen_AOT/AOT_stimuli/rescaled_final/0951_fw.mp4	0.0	127.68030905723572	2.492081880569458
13	92.57219386100769	pulse	1	t		11.0	2.5	/experiments/knapen_AOT/AOT_stimuli/rescaled_final/0951_fw.mp4	0.0	128.06448483467102	
13	94.17188000679016	pulse	1	t		11.0	2.5	/experiments/knapen_AOT/AOT_stimuli/rescaled_final/0951_fw.mp4	0.0	129.6641709804535	
13	94.68009996414185	fix_post	2		12	11.0	2.5	/experiments/knapen_AOT/AOT_stimuli/rescaled_final/0951_fw.mp4	0.0	130.17239093780518	0.10008001327514648
14	94.78017997741699	fix_pre	0		120	12.0	2.5	/experiments/knapen_AOT/AOT_stimuli/rescaled_final/0601_rv.mp4	0.0	130.27247095108032	1.000108003616333
14	95.77223491668701	pulse	0	t		12.0	2.5	/experiments/knapen_AOT/AOT_stimuli/rescaled_final/0601_rv.mp4	0.0	131.26452589035034	
14	95.78028798103333	movie	1		245	12.0	2.5	/experiments/knapen_AOT/AOT_stimuli/rescaled_final/0601_rv.mp4	0.0	131.27257895469666	2.5086538791656494
14	97.37297296524048	pulse	1	t		12.0	2.5	/experiments/knapen_AOT/AOT_stimuli/rescaled_final/0601_rv.mp4	0.0	132.8652639389038	
14	98.28894186019897	fix_post	2		12	12.0	2.5	/experiments/knapen_AOT/AOT_stimuli/rescaled_final/0601_rv.mp4	0.0	133.7812328338623	0.10004901885986328
15	98.38899087905884	fix_pre	0		120	13.0	2.5	/experiments/knapen_AOT/AOT_stimuli/rescaled_final/0768_rv.mp4	0.0	133.88128185272217	1.0001490116119385
15	98.97261691093445	pulse	0	t		13.0	2.5	/experiments/knapen_AOT/AOT_stimuli/rescaled_final/0768_rv.mp4	0.0	134.46490788459778	
15	99.38913989067078	movie	1		244	13.0	2.5	/experiments/knapen_AOT/AOT_stimuli/rescaled_final/0768_rv.mp4	0.0	134.8814308643341	2.5003249645233154
15	100.56514501571655	pulse	1	t		13.0	2.5	/experiments/knapen_AOT/AOT_stimuli/rescaled_final/0768_rv.mp4	0.0	136.05743598937988	
15	101.88946485519409	fix_post	2		12	13.0	2.5	/experiments/knapen_AOT/AOT_stimuli/rescaled_final/0768_rv.mp4	0.0	137.38175582885742	0.10004615783691406
16	101.989511013031	fix_pre	0		120	14.0	2.5	blank	1.0	137.48180198669434	1.0002338886260986
16	102.16547203063965	pulse	0	t		14.0	2.5	blank	1.0	137.65776300430298	
16	102.9897449016571	movie	1		300	14.0	2.5	blank	1.0	138.48203587532043	2.5003020763397217
16	103.76509094238281	pulse	1	t		14.0	2.5	blank	1.0	139.25738191604614	
16	105.36520385742188	pulse	1	t		14.0	2.5	blank	1.0	140.8574948310852	
16	105.49004697799683	fix_post	2		12	14.0	2.5	blank	1.0	140.98233795166016	0.0999898910522461
17	105.59003686904907	fix_pre	0		120	15.0	2.5	/experiments/knapen_AOT/AOT_stimuli/rescaled_final/0817_fw.mp4	0.0	141.0823278427124	1.0002410411834717
17	106.59027791023254	movie	1		241	15.0	2.5	/experiments/knapen_AOT/AOT_stimuli/rescaled_final/0817_fw.mp4	0.0	142.08256888389587	2.492112159729004
17	106.96536207199097	pulse	1	t		15.0	2.5	/experiments/knapen_AOT/AOT_stimuli/rescaled_final/0817_fw.mp4	0.0	142.4576530456543	
17	108.56568503379822	pulse	1	t		15.0	2.5	/experiments/knapen_AOT/AOT_stimuli/rescaled_final/0817_fw.mp4	0.0	144.05797600746155	
17	109.08239006996155	fix_post	2		12	15.0	2.5	/experiments/knapen_AOT/AOT_stimuli/rescaled_final/0817_fw.mp4	0.0	144.57468104362488	0.09986281394958496
18	109.18225288391113	fix_pre	0		119	16.0	2.5	/experiments/knapen_AOT/AOT_stimuli/rescaled_final/1692_rv.mp4	0.0	144.67454385757446	0.9917900562286377
18	110.16594290733337	pulse	0	t		16.0	2.5	/experiments/knapen_AOT/AOT_stimuli/rescaled_final/1692_rv.mp4	0.0	145.6582338809967	
18	110.17404294013977	movie	1		243	16.0	2.5	/experiments/knapen_AOT/AOT_stimuli/rescaled_final/1692_rv.mp4	0.0	145.6663339138031	2.5088069438934326
18	111.76741790771484	pulse	1	t		16.0	2.5	/experiments/knapen_AOT/AOT_stimuli/rescaled_final/1692_rv.mp4	0.0	147.25970888137817	
18	112.6828498840332	fix_post	2		12	16.0	2.5	/experiments/knapen_AOT/AOT_stimuli/rescaled_final/1692_rv.mp4	0.0	148.17514085769653	0.09992814064025879
19	112.78277802467346	fix_pre	0		120	17.0	2.5	/experiments/knapen_AOT/AOT_stimuli/rescaled_final/0287_rv.mp4	0.0	148.2750689983368	1.000148057937622
19	113.3701388835907	pulse	0	t		17.0	2.5	/experiments/knapen_AOT/AOT_stimuli/rescaled_final/0287_rv.mp4	0.0	148.86242985725403	
19	113.78292608261108	movie	1		242	17.0	2.5	/experiments/knapen_AOT/AOT_stimuli/rescaled_final/0287_rv.mp4	0.0	149.2752170562744	2.5006089210510254
19	114.96665501594543	pulse	1	t		17.0	2.5	/experiments/knapen_AOT/AOT_stimuli/rescaled_final/0287_rv.mp4	0.0	150.45894598960876	
19	116.28353500366211	fix_post	2		12	17.0	2.5	/experiments/knapen_AOT/AOT_stimuli/rescaled_final/0287_rv.mp4	0.0	151.77582597732544	0.0998239517211914
20	116.3833589553833	fix_pre	0		120	18.0	2.5	/experiments/knapen_AOT/AOT_stimuli/rescaled_final/1680_fw.mp4	0.0	151.87564992904663	1.0001099109649658
20	116.56683993339539	pulse	0	t		18.0	2.5	/experiments/knapen_AOT/AOT_stimuli/rescaled_final/1680_fw.mp4	0.0	152.05913090705872	
20	117.38346886634827	movie	1		242	18.0	2.5	/experiments/knapen_AOT/AOT_stimuli/rescaled_final/1680_fw.mp4	0.0	152.8757598400116	2.500469207763672
20	118.16723108291626	pulse	1	t		18.0	2.5	/experiments/knapen_AOT/AOT_stimuli/rescaled_final/1680_fw.mp4	0.0	153.6595220565796	
20	119.76795601844788	pulse	1	t		18.0	2.5	/experiments/knapen_AOT/AOT_stimuli/rescaled_final/1680_fw.mp4	0.0	155.2602469921112	
20	119.88393807411194	fix_post	2		12	18.0	2.5	/experiments/knapen_AOT/AOT_stimuli/rescaled_final/1680_fw.mp4	0.0	155.37622904777527	0.09988999366760254
21	119.98382806777954	fix_pre	0		120	19.0	2.5	/experiments/knapen_AOT/AOT_stimuli/rescaled_final/1208_rv.mp4	0.0	155.47611904144287	1.0001637935638428
21	120.98399186134338	movie	1		243	19.0	2.5	/experiments/knapen_AOT/AOT_stimuli/rescaled_final/1208_rv.mp4	0.0	156.4762828350067	2.492117166519165
21	121.36804103851318	pulse	1	t		19.0	2.5	/experiments/knapen_AOT/AOT_stimuli/rescaled_final/1208_rv.mp4	0.0	156.8603320121765	
21	122.96784496307373	pulse	1	t		19.0	2.5	/experiments/knapen_AOT/AOT_stimuli/rescaled_final/1208_rv.mp4	0.0	158.46013593673706	
21	123.47610902786255	fix_post	2		12	19.0	2.5	/experiments/knapen_AOT/AOT_stimuli/rescaled_final/1208_rv.mp4	0.0	158.96840000152588	0.09997296333312988
22	123.57608199119568	fix_pre	0		120	20.0	2.5	blank	1.0	159.068372964859	1.0001740455627441
22	124.56804895401001	pulse	0	t		20.0	2.5	blank	1.0	160.06033992767334	
22	124.57625603675842	movie	1		301	20.0	2.5	blank	1.0	160.06854701042175	2.508723020553589
22	126.16840600967407	pulse	1	t		20.0	2.5	blank	1.0	161.6606969833374	
22	127.08497905731201	fix_post	2		12	20.0	2.5	blank	1.0	162.57727003097534	0.09997081756591797
23	127.18494987487793	fix_pre	0		120	21.0	2.5	/experiments/knapen_AOT/AOT_stimuli/rescaled_final/1646_rv.mp4	0.0	162.67724084854126	1.0001630783081055
23	127.76867389678955	pulse	0	t		21.0	2.5	/experiments/knapen_AOT/AOT_stimuli/rescaled_final/1646_rv.mp4	0.0	163.26096487045288	
23	128.18511295318604	movie	1		242	21.0	2.5	/experiments/knapen_AOT/AOT_stimuli/rescaled_final/1646_rv.mp4	0.0	163.67740392684937	2.5004360675811768
23	129.3688850402832	pulse	1	t		21.0	2.5	/experiments/knapen_AOT/AOT_stimuli/rescaled_final/1646_rv.mp4	0.0	164.86117601394653	
23	130.6855490207672	fix_post	2		12	21.0	2.5	/experiments/knapen_AOT/AOT_stimuli/rescaled_final/1646_rv.mp4	0.0	166.17783999443054	0.09991288185119629
24	130.7854619026184	fix_pre	0		120	22.0	2.5	/experiments/knapen_AOT/AOT_stimuli/rescaled_final/0029_fw.mp4	0.0	166.27775287628174	1.000180959701538
24	130.96906995773315	pulse	0	t		22.0	2.5	/experiments/knapen_AOT/AOT_stimuli/rescaled_final/0029_fw.mp4	0.0	166.46136093139648	
24	131.78564286231995	movie	1		244	22.0	2.5	/experiments/knapen_AOT/AOT_stimuli/rescaled_final/0029_fw.mp4	0.0	167.27793383598328	2.5003480911254883
24	132.56925988197327	pulse	1	t		22.0	2.5	/experiments/knapen_AOT/AOT_stimuli/rescaled_final/0029_fw.mp4	0.0	168.0615508556366	
24	134.169420003891	pulse	1	t		22.0	2.5	/experiments/knapen_AOT/AOT_stimuli/rescaled_final/0029_fw.mp4	0.0	169.66171097755432	
24	134.28599095344543	fix_post	2		12	22.0	2.5	/experiments/knapen_AOT/AOT_stimuli/rescaled_final/0029_fw.mp4	0.0	169.77828192710876	0.10002303123474121
25	134.38601398468018	fix_pre	0		120	23.0	2.5	/experiments/knapen_AOT/AOT_stimuli/rescaled_final/0105_rv.mp4	0.0	169.8783049583435	1.0001449584960938
25	135.38615894317627	movie	1		238	23.0	2.5	/experiments/knapen_AOT/AOT_stimuli/rescaled_final/0105_rv.mp4	0.0	170.8784499168396	2.492077112197876
25	135.77036595344543	pulse	1	t		23.0	2.5	/experiments/knapen_AOT/AOT_stimuli/rescaled_final/0105_rv.mp4	0.0	171.26265692710876	
25	137.37000799179077	pulse	1	t		23.0	2.5	/experiments/knapen_AOT/AOT_stimuli/rescaled_final/0105_rv.mp4	0.0	172.8622989654541	
25	137.87823605537415	fix_post	2		12	23.0	2.5	/experiments/knapen_AOT/AOT_stimuli/rescaled_final/0105_rv.mp4	0.0	173.37052702903748	0.09998583793640137
26	137.97822189331055	fix_pre	0		120	24.0	2.5	/experiments/knapen_AOT/AOT_stimuli/rescaled_final/1457_fw.mp4	0.0	173.47051286697388	1.0001230239868164
26	138.97019600868225	pulse	0	t		24.0	2.5	/experiments/knapen_AOT/AOT_stimuli/rescaled_final/1457_fw.mp4	0.0	174.46248698234558	
26	138.97834491729736	movie	1		244	24.0	2.5	/experiments/knapen_AOT/AOT_stimuli/rescaled_final/1457_fw.mp4	0.0	174.4706358909607	2.508733034133911
26	140.57188892364502	pulse	1	t		24.0	2.5	/experiments/knapen_AOT/AOT_stimuli/rescaled_final/1457_fw.mp4	0.0	176.06417989730835	
26	141.48707795143127	fix_post	2		12	24.0	2.5	/experiments/knapen_AOT/AOT_stimuli/rescaled_final/1457_fw.mp4	0.0	176.9793689250946	0.09998512268066406
27	141.58706307411194	fix_pre	0		120	25.0	2.5	/experiments/knapen_AOT/AOT_stimuli/rescaled_final/0835_rv.mp4	0.0	177.07935404777527	1.0001299381256104
27	142.170716047287	pulse	0	t		25.0	2.5	/experiments/knapen_AOT/AOT_stimuli/rescaled_final/0835_rv.mp4	0.0	177.66300702095032	
27	142.58719301223755	movie	1		244	25.0	2.5	/experiments/knapen_AOT/AOT_stimuli/rescaled_final/0835_rv.mp4	0.0	178.07948398590088	2.500385046005249
27	143.77475500106812	pulse	1	t		25.0	2.5	/experiments/knapen_AOT/AOT_stimuli/rescaled_final/0835_rv.mp4	0.0	179.26704597473145	
27	145.0875780582428	fix_post	2		12	25.0	2.5	/experiments/knapen_AOT/AOT_stimuli/rescaled_final/0835_rv.mp4	0.0	180.57986903190613	0.10003495216369629
28	145.1876130104065	fix_pre	0		120	26.0	2.5	/experiments/knapen_AOT/AOT_stimuli/rescaled_final/0922_fw.mp4	0.0	180.67990398406982	1.000135898590088
28	145.3711700439453	pulse	0	t		26.0	2.5	/experiments/knapen_AOT/AOT_stimuli/rescaled_final/0922_fw.mp4	0.0	180.86346101760864	
28	146.18774890899658	movie	1		244	26.0	2.5	/experiments/knapen_AOT/AOT_stimuli/rescaled_final/0922_fw.mp4	0.0	181.6800398826599	2.5004019737243652
28	146.97141885757446	pulse	1	t		26.0	2.5	/experiments/knapen_AOT/AOT_stimuli/rescaled_final/0922_fw.mp4	0.0	182.4637098312378	
28	148.57190990447998	pulse	1	t		26.0	2.5	/experiments/knapen_AOT/AOT_stimuli/rescaled_final/0922_fw.mp4	0.0	184.0642008781433	
28	148.68815088272095	fix_post	2		12	26.0	2.5	/experiments/knapen_AOT/AOT_stimuli/rescaled_final/0922_fw.mp4	0.0	184.18044185638428	0.10001111030578613
29	148.78816199302673	fix_pre	0		120	27.0	2.5	/experiments/knapen_AOT/AOT_stimuli/rescaled_final/0761_rv.mp4	0.0	184.28045296669006	1.0001530647277832
29	149.78831505775452	movie	1		243	27.0	2.5	/experiments/knapen_AOT/AOT_stimuli/rescaled_final/0761_rv.mp4	0.0	185.28060603141785	2.4920380115509033
29	150.17316198349	pulse	1	t		27.0	2.5	/experiments/knapen_AOT/AOT_stimuli/rescaled_final/0761_rv.mp4	0.0	185.66545295715332	
29	151.77216506004333	pulse	1	t		27.0	2.5	/experiments/knapen_AOT/AOT_stimuli/rescaled_final/0761_rv.mp4	0.0	187.26445603370667	
29	152.28035306930542	fix_post	2		12	27.0	2.5	/experiments/knapen_AOT/AOT_stimuli/rescaled_final/0761_rv.mp4	0.0	187.77264404296875	0.10004687309265137
30	152.38039994239807	fix_pre	0		120	28.0	2.5	blank	1.0	187.8726909160614	1.0000951290130615
30	153.3759729862213	pulse	0	t		28.0	2.5	blank	1.0	188.86826395988464	
30	153.38049507141113	movie	1		301	28.0	2.5	blank	1.0	188.87278604507446	2.5087039470672607
30	154.97262597084045	pulse	1	t		28.0	2.5	blank	1.0	190.46491694450378	
30	155.8891990184784	fix_post	2		12	28.0	2.5	blank	1.0	191.38148999214172	0.10006594657897949
31	155.98926496505737	fix_pre	0		120	29.0	2.5	/experiments/knapen_AOT/AOT_stimuli/rescaled_final/1078_fw.mp4	0.0	191.4815559387207	1.0001170635223389
31	156.5766909122467	pulse	0	t		29.0	2.5	/experiments/knapen_AOT/AOT_stimuli/rescaled_final/1078_fw.mp4	0.0	192.06898188591003	
31	156.9893820285797	movie	1		243	29.0	2.5	/experiments/knapen_AOT/AOT_stimuli/rescaled_final/1078_fw.mp4	0.0	192.48167300224304	2.500375986099243
31	158.17325806617737	pulse	1	t		29.0	2.5	/experiments/knapen_AOT/AOT_stimuli/rescaled_final/1078_fw.mp4	0.0	193.6655490398407	
31	159.48975801467896	fix_post	2		12	29.0	2.5	/experiments/knapen_AOT/AOT_stimuli/rescaled_final/1078_fw.mp4	0.0	194.98204898834229	0.10006284713745117
32	159.5898208618164	fix_pre	0		120	30.0	2.5	/experiments/knapen_AOT/AOT_stimuli/rescaled_final/1107_fw.mp4	0.0	195.08211183547974	1.0001251697540283
32	159.76600694656372	pulse	0	t		30.0	2.5	/experiments/knapen_AOT/AOT_stimuli/rescaled_final/1107_fw.mp4	0.0	195.25829792022705	
32	160.58994603157043	movie	1		242	30.0	2.5	/experiments/knapen_AOT/AOT_stimuli/rescaled_final/1107_fw.mp4	0.0	196.08223700523376	2.500454902648926
32	161.3661789894104	pulse	1	t		30.0	2.5	/experiments/knapen_AOT/AOT_stimuli/rescaled_final/1107_fw.mp4	0.0	196.85846996307373	
32	162.97350001335144	pulse	1	t		30.0	2.5	/experiments/knapen_AOT/AOT_stimuli/rescaled_final/1107_fw.mp4	0.0	198.46579098701477	
32	163.09040093421936	fix_post	2		12	30.0	2.5	/experiments/knapen_AOT/AOT_stimuli/rescaled_final/1107_fw.mp4	0.0	198.5826919078827	0.09989500045776367
33	163.19029593467712	fix_pre	0		120	31.0	2.5	/experiments/knapen_AOT/AOT_stimuli/rescaled_final/1321_fw.mp4	0.0	198.68258690834045	1.00018310546875
33	164.19047904014587	movie	1		244	31.0	2.5	/experiments/knapen_AOT/AOT_stimuli/rescaled_final/1321_fw.mp4	0.0	199.6827700138092	2.500347852706909
33	164.56583499908447	pulse	1	t		31.0	2.5	/experiments/knapen_AOT/AOT_stimuli/rescaled_final/1321_fw.mp4	0.0	200.0581259727478	
33	166.16605186462402	pulse	1	t		31.0	2.5	/experiments/knapen_AOT/AOT_stimuli/rescaled_final/1321_fw.mp4	0.0	201.65834283828735	
33	166.69082689285278	fix_post	2		12	31.0	2.5	/experiments/knapen_AOT/AOT_stimuli/rescaled_final/1321_fw.mp4	0.0	202.1831178665161	0.10003399848937988
34	166.79086089134216	fix_pre	0		118	32.0	2.5	/experiments/knapen_AOT/AOT_stimuli/rescaled_final/1671_rv.mp4	0.0	202.2831518650055	0.9835209846496582
34	167.76616287231445	pulse	0	t		32.0	2.5	/experiments/knapen_AOT/AOT_stimuli/rescaled_final/1671_rv.mp4	0.0	203.25845384597778	
34	167.77438187599182	movie	1		244	32.0	2.5	/experiments/knapen_AOT/AOT_stimuli/rescaled_final/1671_rv.mp4	0.0	203.26667284965515	2.5087180137634277
34	169.36692905426025	pulse	1	t		32.0	2.5	/experiments/knapen_AOT/AOT_stimuli/rescaled_final/1671_rv.mp4	0.0	204.85922002792358	
34	170.28309988975525	fix_post	2		12	32.0	2.5	/experiments/knapen_AOT/AOT_stimuli/rescaled_final/1671_rv.mp4	0.0	205.77539086341858	0.09999608993530273
35	170.38309597969055	fix_pre	0		120	33.0	2.5	blank	1.0	205.87538695335388	1.0000839233398438
35	170.9702968597412	pulse	0	t		33.0	2.5	blank	1.0	206.46258783340454	
35	171.3831799030304	movie	1		300	33.0	2.5	blank	1.0	206.87547087669373	2.5003819465637207
35	172.56704998016357	pulse	1	t		33.0	2.5	blank	1.0	208.0593409538269	
35	173.88356184959412	fix_post	2		12	33.0	2.5	blank	1.0	209.37585282325745	0.10000920295715332
36	173.98357105255127	fix_pre	0		120	34.0	2.5	/experiments/knapen_AOT/AOT_stimuli/rescaled_final/0287_rv.mp4	0.0	209.4758620262146	1.0001978874206543
36	174.16716384887695	pulse	0	t		34.0	2.5	/experiments/knapen_AOT/AOT_stimuli/rescaled_final/0287_rv.mp4	0.0	209.65945482254028	
36	174.98376893997192	movie	1		242	34.0	2.5	/experiments/knapen_AOT/AOT_stimuli/rescaled_final/0287_rv.mp4	0.0	210.47605991363525	2.5004000663757324
36	175.7673499584198	pulse	1	t		34.0	2.5	/experiments/knapen_AOT/AOT_stimuli/rescaled_final/0287_rv.mp4	0.0	211.25964093208313	
36	177.3676619529724	pulse	1	t		34.0	2.5	/experiments/knapen_AOT/AOT_stimuli/rescaled_final/0287_rv.mp4	0.0	212.85995292663574	
36	177.48416900634766	fix_post	2		12	34.0	2.5	/experiments/knapen_AOT/AOT_stimuli/rescaled_final/0287_rv.mp4	0.0	212.976459980011	0.09992003440856934
37	177.58408904075623	fix_pre	0		120	35.0	2.5	/experiments/knapen_AOT/AOT_stimuli/rescaled_final/1151_fw.mp4	0.0	213.07638001441956	1.000216007232666
37	178.5843050479889	movie	1		242	35.0	2.5	/experiments/knapen_AOT/AOT_stimuli/rescaled_final/1151_fw.mp4	0.0	214.07659602165222	2.4919779300689697
37	178.9683060646057	pulse	1	t		35.0	2.5	/experiments/knapen_AOT/AOT_stimuli/rescaled_final/1151_fw.mp4	0.0	214.46059703826904	
37	180.5681939125061	pulse	1	t		35.0	2.5	/experiments/knapen_AOT/AOT_stimuli/rescaled_final/1151_fw.mp4	0.0	216.06048488616943	
37	181.07628297805786	fix_post	2		12	35.0	2.5	/experiments/knapen_AOT/AOT_stimuli/rescaled_final/1151_fw.mp4	0.0	216.5685739517212	0.10005903244018555
38	181.17634201049805	fix_pre	0		120	36.0	2.5	/experiments/knapen_AOT/AOT_stimuli/rescaled_final/0761_rv.mp4	0.0	216.66863298416138	1.000079870223999
38	182.17202806472778	pulse	0	t		36.0	2.5	/experiments/knapen_AOT/AOT_stimuli/rescaled_final/0761_rv.mp4	0.0	217.6643190383911	
38	182.17642188072205	movie	1		245	36.0	2.5	/experiments/knapen_AOT/AOT_stimuli/rescaled_final/0761_rv.mp4	0.0	217.66871285438538	2.5088400840759277
38	183.77211594581604	pulse	1	t		36.0	2.5	/experiments/knapen_AOT/AOT_stimuli/rescaled_final/0761_rv.mp4	0.0	219.26440691947937	
38	184.68526196479797	fix_post	2		12	36.0	2.5	/experiments/knapen_AOT/AOT_stimuli/rescaled_final/0761_rv.mp4	0.0	220.1775529384613	0.09990310668945312
39	184.78516507148743	fix_pre	0		120	37.0	2.5	/experiments/knapen_AOT/AOT_stimuli/rescaled_final/0210_rv.mp4	0.0	220.27745604515076	1.0002009868621826
39	185.3688440322876	pulse	0	t		37.0	2.5	/experiments/knapen_AOT/AOT_stimuli/rescaled_final/0210_rv.mp4	0.0	220.86113500595093	
39	185.7853660583496	movie	1		243	37.0	2.5	/experiments/knapen_AOT/AOT_stimuli/rescaled_final/0210_rv.mp4	0.0	221.27765703201294	2.5003228187561035
39	186.96910405158997	pulse	1	t		37.0	2.5	/experiments/knapen_AOT/AOT_stimuli/rescaled_final/0210_rv.mp4	0.0	222.4613950252533	
39	188.2856888771057	fix_post	2		12	37.0	2.5	/experiments/knapen_AOT/AOT_stimuli/rescaled_final/0210_rv.mp4	0.0	223.77797985076904	0.10006403923034668
40	188.38575291633606	fix_pre	0		120	38.0	2.5	/experiments/knapen_AOT/AOT_stimuli/rescaled_final/1798_rv.mp4	0.0	223.8780438899994	1.0001320838928223
40	188.56932187080383	pulse	0	t		38.0	2.5	/experiments/knapen_AOT/AOT_stimuli/rescaled_final/1798_rv.mp4	0.0	224.06161284446716	
40	189.38588500022888	movie	1		243	38.0	2.5	/experiments/knapen_AOT/AOT_stimuli/rescaled_final/1798_rv.mp4	0.0	224.8781759738922	2.5003550052642822
40	190.16954803466797	pulse	1	t		38.0	2.5	/experiments/knapen_AOT/AOT_stimuli/rescaled_final/1798_rv.mp4	0.0	225.6618390083313	
40	191.76969289779663	pulse	1	t		38.0	2.5	/experiments/knapen_AOT/AOT_stimuli/rescaled_final/1798_rv.mp4	0.0	227.26198387145996	
40	191.88624000549316	fix_post	2		12	38.0	2.5	/experiments/knapen_AOT/AOT_stimuli/rescaled_final/1798_rv.mp4	0.0	227.3785309791565	0.10008692741394043
41	191.9863269329071	fix_pre	0		120	39.0	2.5	/experiments/knapen_AOT/AOT_stimuli/rescaled_final/0397_rv.mp4	0.0	227.47861790657043	1.0001001358032227
41	192.98642706871033	movie	1		243	39.0	2.5	/experiments/knapen_AOT/AOT_stimuli/rescaled_final/0397_rv.mp4	0.0	228.47871804237366	2.5005109310150146
41	193.3703329563141	pulse	1	t		39.0	2.5	/experiments/knapen_AOT/AOT_stimuli/rescaled_final/0397_rv.mp4	0.0	228.86262392997742	
41	194.9703688621521	pulse	1	t		39.0	2.5	/experiments/knapen_AOT/AOT_stimuli/rescaled_final/0397_rv.mp4	0.0	230.46265983581543	
41	195.48693799972534	fix_post	2		12	39.0	2.5	/experiments/knapen_AOT/AOT_stimuli/rescaled_final/0397_rv.mp4	0.0	230.97922897338867	0.09990406036376953
42	195.5868420600891	fix_pre	0		119	40.0	2.5	/experiments/knapen_AOT/AOT_stimuli/rescaled_final/1532_rv.mp4	0.0	231.07913303375244	0.9917688369750977
42	196.57060503959656	pulse	0	t		40.0	2.5	/experiments/knapen_AOT/AOT_stimuli/rescaled_final/1532_rv.mp4	0.0	232.0628960132599	
42	196.5786108970642	movie	1		244	40.0	2.5	/experiments/knapen_AOT/AOT_stimuli/rescaled_final/1532_rv.mp4	0.0	232.07090187072754	2.50870418548584
42	198.17126202583313	pulse	1	t		40.0	2.5	/experiments/knapen_AOT/AOT_stimuli/rescaled_final/1532_rv.mp4	0.0	233.66355299949646	
42	199.08731508255005	fix_post	2		12	40.0	2.5	/experiments/knapen_AOT/AOT_stimuli/rescaled_final/1532_rv.mp4	0.0	234.57960605621338	0.10009598731994629
43	199.18741106987	fix_pre	0		117	41.0	2.5	blank	1.0	234.67970204353333	1.0000948905944824
43	199.77088689804077	pulse	0	t		41.0	2.5	blank	1.0	235.2631778717041	
43	200.18750596046448	movie	1		300	41.0	2.5	blank	1.0	235.6797969341278	2.500364065170288
43	201.37119793891907	pulse	1	t		41.0	2.5	blank	1.0	236.8634889125824	
43	202.68787002563477	fix_post	2		12	41.0	2.5	blank	1.0	238.1801609992981	0.10005688667297363
44	202.78792691230774	fix_pre	0		120	42.0	2.5	/experiments/knapen_AOT/AOT_stimuli/rescaled_final/2164_fw.mp4	0.0	238.28021788597107	1.0001490116119385
44	202.97154998779297	pulse	0	t		42.0	2.5	/experiments/knapen_AOT/AOT_stimuli/rescaled_final/2164_fw.mp4	0.0	238.4638409614563	
44	203.78807592391968	movie	1		243	42.0	2.5	/experiments/knapen_AOT/AOT_stimuli/rescaled_final/2164_fw.mp4	0.0	239.280366897583	2.5003039836883545
44	204.57166695594788	pulse	1	t		42.0	2.5	/experiments/knapen_AOT/AOT_stimuli/rescaled_final/2164_fw.mp4	0.0	240.0639579296112	
44	206.1719000339508	pulse	1	t		42.0	2.5	/experiments/knapen_AOT/AOT_stimuli/rescaled_final/2164_fw.mp4	0.0	241.66419100761414	
44	206.28837990760803	fix_post	2		12	42.0	2.5	/experiments/knapen_AOT/AOT_stimuli/rescaled_final/2164_fw.mp4	0.0	241.78067088127136	0.10007905960083008
45	206.38845896720886	fix_pre	0		120	43.0	2.5	/experiments/knapen_AOT/AOT_stimuli/rescaled_final/1253_fw.mp4	0.0	241.8807499408722	1.0001189708709717
45	207.38857793807983	movie	1		241	43.0	2.5	/experiments/knapen_AOT/AOT_stimuli/rescaled_final/1253_fw.mp4	0.0	242.88086891174316	2.4920809268951416
45	207.77311491966248	pulse	1	t		43.0	2.5	/experiments/knapen_AOT/AOT_stimuli/rescaled_final/1253_fw.mp4	0.0	243.2654058933258	
45	209.37247586250305	pulse	1	t		43.0	2.5	/experiments/knapen_AOT/AOT_stimuli/rescaled_final/1253_fw.mp4	0.0	244.86476683616638	
45	209.88065886497498	fix_post	2		12	43.0	2.5	/experiments/knapen_AOT/AOT_stimuli/rescaled_final/1253_fw.mp4	0.0	245.3729498386383	0.09996700286865234
46	209.98062586784363	fix_pre	0		120	44.0	2.5	/experiments/knapen_AOT/AOT_stimuli/rescaled_final/1171_rv.mp4	0.0	245.47291684150696	1.0002021789550781
46	210.97625088691711	pulse	0	t		44.0	2.5	/experiments/knapen_AOT/AOT_stimuli/rescaled_final/1171_rv.mp4	0.0	246.46854186058044	
46	210.9808280467987	movie	1		244	44.0	2.5	/experiments/knapen_AOT/AOT_stimuli/rescaled_final/1171_rv.mp4	0.0	246.47311902046204	2.5086770057678223
46	212.56543707847595	pulse	1	t		44.0	2.5	/experiments/knapen_AOT/AOT_stimuli/rescaled_final/1171_rv.mp4	0.0	248.05772805213928	
46	213.48950505256653	fix_post	2		12	44.0	2.5	/experiments/knapen_AOT/AOT_stimuli/rescaled_final/1171_rv.mp4	0.0	248.98179602622986	0.0999758243560791
47	213.5894808769226	fix_pre	0		120	45.0	2.5	/experiments/knapen_AOT/AOT_stimuli/rescaled_final/0712_rv.mp4	0.0	249.08177185058594	1.0001771450042725
47	214.16550588607788	pulse	0	t		45.0	2.5	/experiments/knapen_AOT/AOT_stimuli/rescaled_final/0712_rv.mp4	0.0	249.6577968597412	
47	214.58965802192688	movie	1		244	45.0	2.5	/experiments/knapen_AOT/AOT_stimuli/rescaled_final/0712_rv.mp4	0.0	250.0819489955902	2.5003559589385986
47	215.76550698280334	pulse	1	t		45.0	2.5	/experiments/knapen_AOT/AOT_stimuli/rescaled_final/0712_rv.mp4	0.0	251.25779795646667	
47	217.09001398086548	fix_post	2		12	45.0	2.5	/experiments/knapen_AOT/AOT_stimuli/rescaled_final/0712_rv.mp4	0.0	252.5823049545288	0.10002398490905762
48	217.19003796577454	fix_pre	0		120	46.0	2.5	/experiments/knapen_AOT/AOT_stimuli/rescaled_final/0319_fw.mp4	0.0	252.68232893943787	1.0001389980316162
48	217.36613392829895	pulse	0	t		46.0	2.5	/experiments/knapen_AOT/AOT_stimuli/rescaled_final/0319_fw.mp4	0.0	252.85842490196228	
48	218.19017696380615	movie	1		243	46.0	2.5	/experiments/knapen_AOT/AOT_stimuli/rescaled_final/0319_fw.mp4	0.0	253.68246793746948	2.50039005279541
48	218.96553087234497	pulse	1	t		46.0	2.5	/experiments/knapen_AOT/AOT_stimuli/rescaled_final/0319_fw.mp4	0.0	254.4578218460083	
48	220.56936597824097	pulse	1	t		46.0	2.5	/experiments/knapen_AOT/AOT_stimuli/rescaled_final/0319_fw.mp4	0.0	256.0616569519043	
48	220.69056701660156	fix_post	2		12	46.0	2.5	/experiments/knapen_AOT/AOT_stimuli/rescaled_final/0319_fw.mp4	0.0	256.1828579902649	0.10007190704345703
49	220.79063892364502	fix_pre	0		120	47.0	2.5	/experiments/knapen_AOT/AOT_stimuli/rescaled_final/1437_rv.mp4	0.0	256.28292989730835	1.0000510215759277
49	221.79068994522095	movie	1		243	47.0	2.5	/experiments/knapen_AOT/AOT_stimuli/rescaled_final/1437_rv.mp4	0.0	257.2829809188843	2.500369071960449
49	222.16955089569092	pulse	1	t		47.0	2.5	/experiments/knapen_AOT/AOT_stimuli/rescaled_final/1437_rv.mp4	0.0	257.66184186935425	
49	223.76646494865417	pulse	1	t		47.0	2.5	/experiments/knapen_AOT/AOT_stimuli/rescaled_final/1437_rv.mp4	0.0	259.2587559223175	
49	224.2910590171814	fix_post	2		12	47.0	2.5	/experiments/knapen_AOT/AOT_stimuli/rescaled_final/1437_rv.mp4	0.0	259.7833499908447	0.10006499290466309
50	224.39112401008606	fix_pre	0		118	48.0	2.5	/experiments/knapen_AOT/AOT_stimuli/rescaled_final/1990_fw.mp4	0.0	259.8834149837494	0.983428955078125
50	225.36642503738403	pulse	0	t		48.0	2.5	/experiments/knapen_AOT/AOT_stimuli/rescaled_final/1990_fw.mp4	0.0	260.85871601104736	
50	225.37455296516418	movie	1		245	48.0	2.5	/experiments/knapen_AOT/AOT_stimuli/rescaled_final/1990_fw.mp4	0.0	260.8668439388275	2.5087549686431885
50	226.9671289920807	pulse	1	t		48.0	2.5	/experiments/knapen_AOT/AOT_stimuli/rescaled_final/1990_fw.mp4	0.0	262.459419965744	
50	227.88330793380737	fix_post	2		12	48.0	2.5	/experiments/knapen_AOT/AOT_stimuli/rescaled_final/1990_fw.mp4	0.0	263.3755989074707	0.09998106956481934
51	227.9832890033722	fix_pre	0		120	49.0	2.5	blank	1.0	263.4755799770355	1.0001819133758545
51	228.56690001487732	pulse	0	t		49.0	2.5	blank	1.0	264.05919098854065	
51	228.98347091674805	movie	1		300	49.0	2.5	blank	1.0	264.4757618904114	2.5004401206970215
51	230.16711592674255	pulse	1	t		49.0	2.5	blank	1.0	265.6594069004059	
51	231.48391103744507	fix_post	2		12	49.0	2.5	blank	1.0	266.9762020111084	0.09989285469055176
52	231.58380389213562	fix_pre	0		120	50.0	2.5	/experiments/knapen_AOT/AOT_stimuli/rescaled_final/1532_fw.mp4	0.0	267.07609486579895	1.0002009868621826
52	231.76740288734436	pulse	0	t		50.0	2.5	/experiments/knapen_AOT/AOT_stimuli/rescaled_final/1532_fw.mp4	0.0	267.2596938610077	
52	232.5840048789978	movie	1		243	50.0	2.5	/experiments/knapen_AOT/AOT_stimuli/rescaled_final/1532_fw.mp4	0.0	268.07629585266113	2.5003650188446045
52	233.36761689186096	pulse	1	t		50.0	2.5	/experiments/knapen_AOT/AOT_stimuli/rescaled_final/1532_fw.mp4	0.0	268.8599078655243	
52	234.96790885925293	pulse	1	t		50.0	2.5	/experiments/knapen_AOT/AOT_stimuli/rescaled_final/1532_fw.mp4	0.0	270.46019983291626	
52	235.0843698978424	fix_post	2		12	50.0	2.5	/experiments/knapen_AOT/AOT_stimuli/rescaled_final/1532_fw.mp4	0.0	270.57666087150574	0.10011601448059082
53	235.184485912323	fix_pre	0		120	51.0	2.5	/experiments/knapen_AOT/AOT_stimuli/rescaled_final/0801_rv.mp4	0.0	270.6767768859863	1.0000221729278564
53	236.18450808525085	movie	1		243	51.0	2.5	/experiments/knapen_AOT/AOT_stimuli/rescaled_final/0801_rv.mp4	0.0	271.6767990589142	2.492072820663452
53	236.572998046875	pulse	1	t		51.0	2.5	/experiments/knapen_AOT/AOT_stimuli/rescaled_final/0801_rv.mp4	0.0	272.06528902053833	
53	238.16832399368286	pulse	1	t		51.0	2.5	/experiments/knapen_AOT/AOT_stimuli/rescaled_final/0801_rv.mp4	0.0	273.6606149673462	
53	238.6765809059143	fix_post	2		12	51.0	2.5	/experiments/knapen_AOT/AOT_stimuli/rescaled_final/0801_rv.mp4	0.0	274.16887187957764	0.09999704360961914
54	238.77657794952393	fix_pre	0		120	52.0	2.5	/experiments/knapen_AOT/AOT_stimuli/rescaled_final/1457_rv.mp4	0.0	274.26886892318726	1.0001530647277832
54	239.76857686042786	pulse	0	t		52.0	2.5	/experiments/knapen_AOT/AOT_stimuli/rescaled_final/1457_rv.mp4	0.0	275.2608678340912	
54	239.7767310142517	movie	1		245	52.0	2.5	/experiments/knapen_AOT/AOT_stimuli/rescaled_final/1457_rv.mp4	0.0	275.26902198791504	2.508697986602783
54	241.36944198608398	pulse	1	t		52.0	2.5	/experiments/knapen_AOT/AOT_stimuli/rescaled_final/1457_rv.mp4	0.0	276.8617329597473	
54	242.2854290008545	fix_post	2		12	52.0	2.5	/experiments/knapen_AOT/AOT_stimuli/rescaled_final/1457_rv.mp4	0.0	277.7777199745178	0.10005402565002441
55	242.38548302650452	fix_pre	0		120	53.0	2.5	/experiments/knapen_AOT/AOT_stimuli/rescaled_final/1343_fw.mp4	0.0	277.87777400016785	1.0000879764556885
55	242.96914887428284	pulse	0	t		53.0	2.5	/experiments/knapen_AOT/AOT_stimuli/rescaled_final/1343_fw.mp4	0.0	278.46143984794617	
55	243.3855710029602	movie	1		244	53.0	2.5	/experiments/knapen_AOT/AOT_stimuli/rescaled_final/1343_fw.mp4	0.0	278.87786197662354	2.500411033630371
55	244.56937193870544	pulse	1	t		53.0	2.5	/experiments/knapen_AOT/AOT_stimuli/rescaled_final/1343_fw.mp4	0.0	280.0616629123688	
55	245.88598203659058	fix_post	2		12	53.0	2.5	/experiments/knapen_AOT/AOT_stimuli/rescaled_final/1343_fw.mp4	0.0	281.3782730102539	0.10000085830688477
56	245.98598289489746	fix_pre	0		120	54.0	2.5	/experiments/knapen_AOT/AOT_stimuli/rescaled_final/1537_fw.mp4	0.0	281.4782738685608	1.000154972076416
56	246.16951489448547	pulse	0	t		54.0	2.5	/experiments/knapen_AOT/AOT_stimuli/rescaled_final/1537_fw.mp4	0.0	281.6618058681488	
56	246.98613786697388	movie	1		243	54.0	2.5	/experiments/knapen_AOT/AOT_stimuli/rescaled_final/1537_fw.mp4	0.0	282.4784288406372	2.500349998474121
56	247.76973605155945	pulse	1	t		54.0	2.5	/experiments/knapen_AOT/AOT_stimuli/rescaled_final/1537_fw.mp4	0.0	283.2620270252228	
56	249.36992502212524	pulse	1	t		54.0	2.5	/experiments/knapen_AOT/AOT_stimuli/rescaled_final/1537_fw.mp4	0.0	284.8622159957886	
56	249.486487865448	fix_post	2		12	54.0	2.5	/experiments/knapen_AOT/AOT_stimuli/rescaled_final/1537_fw.mp4	0.0	284.9787788391113	0.10008621215820312
57	249.5865740776062	fix_pre	0		120	55.0	2.5	/experiments/knapen_AOT/AOT_stimuli/rescaled_final/1171_fw.mp4	0.0	285.07886505126953	1.0000998973846436
57	250.58667397499084	movie	1		242	55.0	2.5	/experiments/knapen_AOT/AOT_stimuli/rescaled_final/1171_fw.mp4	0.0	286.0789649486542	2.492043972015381
57	250.97081303596497	pulse	1	t		55.0	2.5	/experiments/knapen_AOT/AOT_stimuli/rescaled_final/1171_fw.mp4	0.0	286.4631040096283	
57	252.57047700881958	pulse	1	t		55.0	2.5	/experiments/knapen_AOT/AOT_stimuli/rescaled_final/1171_fw.mp4	0.0	288.0627679824829	
57	253.07871794700623	fix_post	2		12	55.0	2.5	/experiments/knapen_AOT/AOT_stimuli/rescaled_final/1171_fw.mp4	0.0	288.57100892066956	0.10001802444458008
58	253.1787359714508	fix_pre	0		120	56.0	2.5	blank	1.0	288.67102694511414	1.000133991241455
58	254.17069387435913	pulse	0	t		56.0	2.5	blank	1.0	289.66298484802246	
58	254.17886996269226	movie	1		301	56.0	2.5	blank	1.0	289.6711609363556	2.508704900741577
58	255.77102899551392	pulse	1	t		56.0	2.5	blank	1.0	291.26331996917725	
58	256.68757486343384	fix_post	2		12	56.0	2.5	blank	1.0	292.17986583709717	0.10000801086425781
59	256.7875828742981	fix_pre	0		120	57.0	2.5	/experiments/knapen_AOT/AOT_stimuli/rescaled_final/1650_rv.mp4	0.0	292.2798738479614	1.0001540184020996
59	257.37135887145996	pulse	0	t		57.0	2.5	/experiments/knapen_AOT/AOT_stimuli/rescaled_final/1650_rv.mp4	0.0	292.8636498451233	
59	257.7877368927002	movie	1		243	57.0	2.5	/experiments/knapen_AOT/AOT_stimuli/rescaled_final/1650_rv.mp4	0.0	293.2800278663635	2.5004119873046875
59	258.9716019630432	pulse	1	t		57.0	2.5	/experiments/knapen_AOT/AOT_stimuli/rescaled_final/1650_rv.mp4	0.0	294.46389293670654	
59	260.2881488800049	fix_post	2		12	57.0	2.5	/experiments/knapen_AOT/AOT_stimuli/rescaled_final/1650_rv.mp4	0.0	295.7804398536682	0.09998512268066406
60	260.38813400268555	fix_pre	0		120	58.0	2.5	/experiments/knapen_AOT/AOT_stimuli/rescaled_final/1542_rv.mp4	0.0	295.8804249763489	1.0001640319824219
60	260.5716359615326	pulse	0	t		58.0	2.5	/experiments/knapen_AOT/AOT_stimuli/rescaled_final/1542_rv.mp4	0.0	296.0639269351959	
60	261.38829803466797	movie	1		240	58.0	2.5	/experiments/knapen_AOT/AOT_stimuli/rescaled_final/1542_rv.mp4	0.0	296.8805890083313	2.500358819961548
60	262.1719169616699	pulse	1	t		58.0	2.5	/experiments/knapen_AOT/AOT_stimuli/rescaled_final/1542_rv.mp4	0.0	297.66420793533325	
60	263.7738518714905	pulse	1	t		58.0	2.5	/experiments/knapen_AOT/AOT_stimuli/rescaled_final/1542_rv.mp4	0.0	299.2661428451538	
60	263.8886568546295	fix_post	2		12	58.0	2.5	/experiments/knapen_AOT/AOT_stimuli/rescaled_final/1542_rv.mp4	0.0	299.38094782829285	0.10004210472106934
61	263.9886989593506	fix_pre	0		120	59.0	2.5	/experiments/knapen_AOT/AOT_stimuli/rescaled_final/0761_fw.mp4	0.0	299.4809899330139	1.0001881122589111
61	264.9888870716095	movie	1		244	59.0	2.5	/experiments/knapen_AOT/AOT_stimuli/rescaled_final/0761_fw.mp4	0.0	300.4811780452728	2.4919497966766357
61	265.37364196777344	pulse	1	t		59.0	2.5	/experiments/knapen_AOT/AOT_stimuli/rescaled_final/0761_fw.mp4	0.0	300.86593294143677	
61	266.9726219177246	pulse	1	t		59.0	2.5	/experiments/knapen_AOT/AOT_stimuli/rescaled_final/0761_fw.mp4	0.0	302.46491289138794	
61	267.48083686828613	fix_post	2		12	59.0	2.5	/experiments/knapen_AOT/AOT_stimuli/rescaled_final/0761_fw.mp4	0.0	302.97312784194946	0.10009503364562988
62	267.58093190193176	fix_pre	0		120	60.0	2.5	/experiments/knapen_AOT/AOT_stimuli/rescaled_final/1378_rv.mp4	0.0	303.0732228755951	1.0000669956207275
62	268.57291197776794	pulse	0	t		60.0	2.5	/experiments/knapen_AOT/AOT_stimuli/rescaled_final/1378_rv.mp4	0.0	304.0652029514313	
62	268.5809988975525	movie	1		246	60.0	2.5	/experiments/knapen_AOT/AOT_stimuli/rescaled_final/1378_rv.mp4	0.0	304.0732898712158	2.5087549686431885
62	270.1737389564514	pulse	1	t		60.0	2.5	/experiments/knapen_AOT/AOT_stimuli/rescaled_final/1378_rv.mp4	0.0	305.66602993011475	
62	271.0897538661957	fix_post	2		12	60.0	2.5	/experiments/knapen_AOT/AOT_stimuli/rescaled_final/1378_rv.mp4	0.0	306.582044839859	0.10001301765441895
63	271.1897668838501	fix_pre	0		120	61.0	2.5	/experiments/knapen_AOT/AOT_stimuli/rescaled_final/2133_fw.mp4	0.0	306.6820578575134	1.0001230239868164
63	271.7734589576721	pulse	0	t		61.0	2.5	/experiments/knapen_AOT/AOT_stimuli/rescaled_final/2133_fw.mp4	0.0	307.26574993133545	
63	272.1898899078369	movie	1		243	61.0	2.5	/experiments/knapen_AOT/AOT_stimuli/rescaled_final/2133_fw.mp4	0.0	307.68218088150024	2.5003950595855713
63	273.37368392944336	pulse	1	t		61.0	2.5	/experiments/knapen_AOT/AOT_stimuli/rescaled_final/2133_fw.mp4	0.0	308.8659749031067	
63	274.6902849674225	fix_post	2		12	61.0	2.5	/experiments/knapen_AOT/AOT_stimuli/rescaled_final/2133_fw.mp4	0.0	310.1825759410858	0.09999203681945801
64	274.79027700424194	fix_pre	0		120	62.0	2.5	blank	1.0	310.2825679779053	1.0001530647277832
64	274.96630692481995	pulse	0	t		62.0	2.5	blank	1.0	310.4585978984833	
64	275.7904300689697	movie	1		300	62.0	2.5	blank	1.0	311.28272104263306	2.5003838539123535
64	276.5664629936218	pulse	1	t		62.0	2.5	blank	1.0	312.05875396728516	
64	278.1668288707733	pulse	1	t		62.0	2.5	blank	1.0	313.65911984443665	
64	278.2908139228821	fix_post	2		12	62.0	2.5	blank	1.0	313.7831048965454	0.10001611709594727
65	278.390830039978	fix_pre	0		120	63.0	2.5	/experiments/knapen_AOT/AOT_stimuli/rescaled_final/1537_rv.mp4	0.0	313.88312101364136	1.0001919269561768
65	279.3910219669342	movie	1		242	63.0	2.5	/experiments/knapen_AOT/AOT_stimuli/rescaled_final/1537_rv.mp4	0.0	314.88331294059753	2.4920060634613037
65	279.7664830684662	pulse	1	t		63.0	2.5	/experiments/knapen_AOT/AOT_stimuli/rescaled_final/1537_rv.mp4	0.0	315.2587740421295	
65	281.3665089607239	pulse	1	t		63.0	2.5	/experiments/knapen_AOT/AOT_stimuli/rescaled_final/1537_rv.mp4	0.0	316.8587999343872	
65	281.8830280303955	fix_post	2		12	63.0	2.5	/experiments/knapen_AOT/AOT_stimuli/rescaled_final/1537_rv.mp4	0.0	317.37531900405884	0.10008096694946289
66	281.98310899734497	fix_pre	0		119	64.0	2.5	/experiments/knapen_AOT/AOT_stimuli/rescaled_final/0579_rv.mp4	0.0	317.4753999710083	0.9917700290679932
66	282.96661591529846	pulse	0	t		64.0	2.5	/experiments/knapen_AOT/AOT_stimuli/rescaled_final/0579_rv.mp4	0.0	318.4589068889618	
66	282.97487902641296	movie	1		244	64.0	2.5	/experiments/knapen_AOT/AOT_stimuli/rescaled_final/0579_rv.mp4	0.0	318.4671700000763	2.5086498260498047
66	284.5714440345764	pulse	1	t		64.0	2.5	/experiments/knapen_AOT/AOT_stimuli/rescaled_final/0579_rv.mp4	0.0	320.06373500823975	
66	285.48352885246277	fix_post	2		12	64.0	2.5	/experiments/knapen_AOT/AOT_stimuli/rescaled_final/0579_rv.mp4	0.0	320.9758198261261	0.10002708435058594
67	285.58355593681335	fix_pre	0		120	65.0	2.5	/experiments/knapen_AOT/AOT_stimuli/rescaled_final/1138_rv.mp4	0.0	321.0758469104767	1.0001730918884277
67	286.1672959327698	pulse	0	t		65.0	2.5	/experiments/knapen_AOT/AOT_stimuli/rescaled_final/1138_rv.mp4	0.0	321.6595869064331	
67	286.5837290287018	movie	1		243	65.0	2.5	/experiments/knapen_AOT/AOT_stimuli/rescaled_final/1138_rv.mp4	0.0	322.0760200023651	2.500380039215088
67	287.7674779891968	pulse	1	t		65.0	2.5	/experiments/knapen_AOT/AOT_stimuli/rescaled_final/1138_rv.mp4	0.0	323.2597689628601	
67	289.08410906791687	fix_post	2		12	65.0	2.5	/experiments/knapen_AOT/AOT_stimuli/rescaled_final/1138_rv.mp4	0.0	324.5764000415802	0.0999917984008789
68	289.18410086631775	fix_pre	0		120	66.0	2.5	/experiments/knapen_AOT/AOT_stimuli/rescaled_final/0803_fw.mp4	0.0	324.6763918399811	1.0001940727233887
68	289.3676030635834	pulse	0	t		66.0	2.5	/experiments/knapen_AOT/AOT_stimuli/rescaled_final/0803_fw.mp4	0.0	324.8598940372467	
68	290.18429493904114	movie	1		243	66.0	2.5	/experiments/knapen_AOT/AOT_stimuli/rescaled_final/0803_fw.mp4	0.0	325.67658591270447	2.5003111362457275
68	290.9678440093994	pulse	1	t		66.0	2.5	/experiments/knapen_AOT/AOT_stimuli/rescaled_final/0803_fw.mp4	0.0	326.46013498306274	
68	292.56793785095215	pulse	1	t		66.0	2.5	/experiments/knapen_AOT/AOT_stimuli/rescaled_final/0803_fw.mp4	0.0	328.0602288246155	
68	292.68460607528687	fix_post	2		12	66.0	2.5	/experiments/knapen_AOT/AOT_stimuli/rescaled_final/0803_fw.mp4	0.0	328.1768970489502	0.10006093978881836
69	292.7846670150757	fix_pre	0		119	67.0	2.5	/experiments/knapen_AOT/AOT_stimuli/rescaled_final/1063_rv.mp4	0.0	328.276957988739	0.9917609691619873
69	293.77642798423767	movie	1		244	67.0	2.5	/experiments/knapen_AOT/AOT_stimuli/rescaled_final/1063_rv.mp4	0.0	329.268718957901	2.5003859996795654
69	294.16856598854065	pulse	1	t		67.0	2.5	/experiments/knapen_AOT/AOT_stimuli/rescaled_final/1063_rv.mp4	0.0	329.660856962204	
69	295.76866006851196	pulse	1	t		67.0	2.5	/experiments/knapen_AOT/AOT_stimuli/rescaled_final/1063_rv.mp4	0.0	331.2609510421753	
69	296.27681398391724	fix_post	2		12	67.0	2.5	/experiments/knapen_AOT/AOT_stimuli/rescaled_final/1063_rv.mp4	0.0	331.76910495758057	0.10001587867736816
70	296.3768298625946	fix_pre	0		120	68.0	2.5	/experiments/knapen_AOT/AOT_stimuli/rescaled_final/0879_fw.mp4	0.0	331.86912083625793	1.000209093093872
70	297.3687779903412	pulse	0	t		68.0	2.5	/experiments/knapen_AOT/AOT_stimuli/rescaled_final/0879_fw.mp4	0.0	332.8610689640045	
70	297.3770389556885	movie	1		246	68.0	2.5	/experiments/knapen_AOT/AOT_stimuli/rescaled_final/0879_fw.mp4	0.0	332.8693299293518	2.5086441040039062
70	298.97015285491943	pulse	1	t		68.0	2.5	/experiments/knapen_AOT/AOT_stimuli/rescaled_final/0879_fw.mp4	0.0	334.46244382858276	
70	299.8856830596924	fix_post	2		12	68.0	2.5	/experiments/knapen_AOT/AOT_stimuli/rescaled_final/0879_fw.mp4	0.0	335.3779740333557	0.10001897811889648
71	299.9857020378113	fix_pre	0		120	69.0	2.5	/experiments/knapen_AOT/AOT_stimuli/rescaled_final/1427_fw.mp4	0.0	335.4779930114746	1.0001499652862549
71	300.5694000720978	pulse	0	t		69.0	2.5	/experiments/knapen_AOT/AOT_stimuli/rescaled_final/1427_fw.mp4	0.0	336.0616910457611	
71	300.98585200309753	movie	1		250	69.0	2.5	/experiments/knapen_AOT/AOT_stimuli/rescaled_final/1427_fw.mp4	0.0	336.47814297676086	2.500364065170288
71	302.1697430610657	pulse	1	t		69.0	2.5	/experiments/knapen_AOT/AOT_stimuli/rescaled_final/1427_fw.mp4	0.0	337.662034034729	
71	303.4862160682678	fix_post	2		12	69.0	2.5	/experiments/knapen_AOT/AOT_stimuli/rescaled_final/1427_fw.mp4	0.0	338.97850704193115	0.10011482238769531
72	303.5863308906555	fix_pre	0		120	70.0	2.5	blank	1.0	339.07862186431885	1.0000619888305664
72	303.7697958946228	pulse	0	t		70.0	2.5	blank	1.0	339.26208686828613	
72	304.5863928794861	movie	1		300	70.0	2.5	blank	1.0	340.0786838531494	2.500375986099243
72	305.3699848651886	pulse	1	t		70.0	2.5	blank	1.0	340.86227583885193	
72	306.970263004303	pulse	1	t		70.0	2.5	blank	1.0	342.4625539779663	
72	307.0867688655853	fix_post	2		12	70.0	2.5	blank	1.0	342.57905983924866	0.10001015663146973
73	307.1867790222168	fix_pre	0		116	71.0	2.5	/experiments/knapen_AOT/AOT_stimuli/rescaled_final/0930_rv.mp4	0.0	342.6790699958801	0.9918620586395264
73	308.1786410808563	movie	1		243	71.0	2.5	/experiments/knapen_AOT/AOT_stimuli/rescaled_final/0930_rv.mp4	0.0	343.67093205451965	2.500365972518921
73	308.57057094573975	pulse	1	t		71.0	2.5	/experiments/knapen_AOT/AOT_stimuli/rescaled_final/0930_rv.mp4	0.0	344.0628619194031	
73	310.17080092430115	pulse	1	t		71.0	2.5	/experiments/knapen_AOT/AOT_stimuli/rescaled_final/0930_rv.mp4	0.0	345.6630918979645	
73	310.67900705337524	fix_post	2		12	71.0	2.5	/experiments/knapen_AOT/AOT_stimuli/rescaled_final/0930_rv.mp4	0.0	346.1712980270386	0.09997892379760742
74	310.77898597717285	fix_pre	0		120	72.0	2.5	/experiments/knapen_AOT/AOT_stimuli/rescaled_final/0121_fw.mp4	0.0	346.2712769508362	1.0001530647277832
74	311.77099204063416	pulse	0	t		72.0	2.5	/experiments/knapen_AOT/AOT_stimuli/rescaled_final/0121_fw.mp4	0.0	347.2632830142975	
74	311.77913904190063	movie	1		244	72.0	2.5	/experiments/knapen_AOT/AOT_stimuli/rescaled_final/0121_fw.mp4	0.0	347.27143001556396	2.5086958408355713
74	313.3718318939209	pulse	1	t		72.0	2.5	/experiments/knapen_AOT/AOT_stimuli/rescaled_final/0121_fw.mp4	0.0	348.86412286758423	
74	314.2878348827362	fix_post	2		12	72.0	2.5	/experiments/knapen_AOT/AOT_stimuli/rescaled_final/0121_fw.mp4	0.0	349.78012585639954	0.10004997253417969
75	314.3878848552704	fix_pre	0		120	73.0	2.5	/experiments/knapen_AOT/AOT_stimuli/rescaled_final/1646_fw.mp4	0.0	349.8801758289337	1.0001440048217773
75	314.97155499458313	pulse	0	t		73.0	2.5	/experiments/knapen_AOT/AOT_stimuli/rescaled_final/1646_fw.mp4	0.0	350.46384596824646	
75	315.38802886009216	movie	1		243	73.0	2.5	/experiments/knapen_AOT/AOT_stimuli/rescaled_final/1646_fw.mp4	0.0	350.8803198337555	2.5003371238708496
75	316.57179594039917	pulse	1	t		73.0	2.5	/experiments/knapen_AOT/AOT_stimuli/rescaled_final/1646_fw.mp4	0.0	352.0640869140625	
75	317.888365983963	fix_post	2		12	73.0	2.5	/experiments/knapen_AOT/AOT_stimuli/rescaled_final/1646_fw.mp4	0.0	353.38065695762634	0.10003209114074707
76	317.98839807510376	fix_pre	0		120	74.0	2.5	/experiments/knapen_AOT/AOT_stimuli/rescaled_final/2004_rv.mp4	0.0	353.4806890487671	1.0001859664916992
76	318.1719870567322	pulse	0	t		74.0	2.5	/experiments/knapen_AOT/AOT_stimuli/rescaled_final/2004_rv.mp4	0.0	353.6642780303955	
76	318.98858404159546	movie	1		243	74.0	2.5	/experiments/knapen_AOT/AOT_stimuli/rescaled_final/2004_rv.mp4	0.0	354.4808750152588	2.5003199577331543
76	319.77218294143677	pulse	1	t		74.0	2.5	/experiments/knapen_AOT/AOT_stimuli/rescaled_final/2004_rv.mp4	0.0	355.2644739151001	
76	321.3726050853729	pulse	1	t		74.0	2.5	/experiments/knapen_AOT/AOT_stimuli/rescaled_final/2004_rv.mp4	0.0	356.86489605903625	
76	321.4889039993286	fix_post	2		12	74.0	2.5	/experiments/knapen_AOT/AOT_stimuli/rescaled_final/2004_rv.mp4	0.0	356.98119497299194	0.10001993179321289
77	321.5889239311218	fix_pre	0		120	75.0	2.5	/experiments/knapen_AOT/AOT_stimuli/rescaled_final/0674_rv.mp4	0.0	357.08121490478516	1.0001540184020996
77	322.5890779495239	movie	1		243	75.0	2.5	/experiments/knapen_AOT/AOT_stimuli/rescaled_final/0674_rv.mp4	0.0	358.08136892318726	2.4920499324798584
77	322.9733428955078	pulse	1	t		75.0	2.5	/experiments/knapen_AOT/AOT_stimuli/rescaled_final/0674_rv.mp4	0.0	358.46563386917114	
77	324.57298707962036	pulse	1	t		75.0	2.5	/experiments/knapen_AOT/AOT_stimuli/rescaled_final/0674_rv.mp4	0.0	360.0652780532837	
77	325.0811278820038	fix_post	2		12	75.0	2.5	/experiments/knapen_AOT/AOT_stimuli/rescaled_final/0674_rv.mp4	0.0	360.5734188556671	0.10001111030578613
78	325.18113899230957	fix_pre	0		120	76.0	2.5	blank	1.0	360.6734299659729	1.0001940727233887
78	326.1657588481903	pulse	0	t		76.0	2.5	blank	1.0	361.65804982185364	
78	326.18133306503296	movie	1		301	76.0	2.5	blank	1.0	361.6736240386963	2.5086748600006104
78	327.76584792137146	pulse	1	t		76.0	2.5	blank	1.0	363.2581388950348	
78	328.69000792503357	fix_post	2		12	76.0	2.5	blank	1.0	364.1822988986969	0.100006103515625
79	328.7900140285492	fix_pre	0		120	77.0	2.5	/experiments/knapen_AOT/AOT_stimuli/rescaled_final/1376_rv.mp4	0.0	364.2823050022125	1.0001089572906494
79	329.36605286598206	pulse	0	t		77.0	2.5	/experiments/knapen_AOT/AOT_stimuli/rescaled_final/1376_rv.mp4	0.0	364.8583438396454	
79	329.79012298583984	movie	1		243	77.0	2.5	/experiments/knapen_AOT/AOT_stimuli/rescaled_final/1376_rv.mp4	0.0	365.2824139595032	2.5004160404205322
79	330.9669439792633	pulse	1	t		77.0	2.5	/experiments/knapen_AOT/AOT_stimuli/rescaled_final/1376_rv.mp4	0.0	366.45923495292664	
79	332.2905390262604	fix_post	2		12	77.0	2.5	/experiments/knapen_AOT/AOT_stimuli/rescaled_final/1376_rv.mp4	0.0	367.7828299999237	0.0999898910522461
80	332.3905289173126	fix_pre	0		120	78.0	2.5	/experiments/knapen_AOT/AOT_stimuli/rescaled_final/0806_fw.mp4	0.0	367.88281989097595	1.000148057937622
80	332.5658988952637	pulse	0	t		78.0	2.5	/experiments/knapen_AOT/AOT_stimuli/rescaled_final/0806_fw.mp4	0.0	368.058189868927	
80	333.39067697525024	movie	1		243	78.0	2.5	/experiments/knapen_AOT/AOT_stimuli/rescaled_final/0806_fw.mp4	0.0	368.8829679489136	2.5003750324249268
80	334.16600704193115	pulse	1	t		78.0	2.5	/experiments/knapen_AOT/AOT_stimuli/rescaled_final/0806_fw.mp4	0.0	369.6582980155945	
80	335.76620602607727	pulse	1	t		78.0	2.5	/experiments/knapen_AOT/AOT_stimuli/rescaled_final/0806_fw.mp4	0.0	371.2584969997406	
80	335.89105200767517	fix_post	2		12	78.0	2.5	/experiments/knapen_AOT/AOT_stimuli/rescaled_final/0806_fw.mp4	0.0	371.3833429813385	0.10003185272216797
81	335.99108386039734	fix_pre	0		119	79.0	2.5	/experiments/knapen_AOT/AOT_stimuli/rescaled_final/2164_fw.mp4	0.0	371.48337483406067	0.9918181896209717
81	336.9829020500183	movie	1		243	79.0	2.5	/experiments/knapen_AOT/AOT_stimuli/rescaled_final/2164_fw.mp4	0.0	372.47519302368164	2.500386953353882
81	337.36727595329285	pulse	1	t		79.0	2.5	/experiments/knapen_AOT/AOT_stimuli/rescaled_final/2164_fw.mp4	0.0	372.8595669269562	
81	338.96668100357056	pulse	1	t		79.0	2.5	/experiments/knapen_AOT/AOT_stimuli/rescaled_final/2164_fw.mp4	0.0	374.4589719772339	
81	339.4832890033722	fix_post	2		12	79.0	2.5	/experiments/knapen_AOT/AOT_stimuli/rescaled_final/2164_fw.mp4	0.0	374.9755799770355	0.10001087188720703
82	339.5832998752594	fix_pre	0		119	80.0	2.5	/experiments/knapen_AOT/AOT_stimuli/rescaled_final/0725_fw.mp4	0.0	375.07559084892273	0.9918041229248047
82	340.5670578479767	pulse	0	t		80.0	2.5	/experiments/knapen_AOT/AOT_stimuli/rescaled_final/0725_fw.mp4	0.0	376.05934882164	
82	340.5751039981842	movie	1		246	80.0	2.5	/experiments/knapen_AOT/AOT_stimuli/rescaled_final/0725_fw.mp4	0.0	376.06739497184753	2.5087239742279053
82	342.17169189453125	pulse	1	t		80.0	2.5	/experiments/knapen_AOT/AOT_stimuli/rescaled_final/0725_fw.mp4	0.0	377.6639828681946	
82	343.0838279724121	fix_post	2		12	80.0	2.5	/experiments/knapen_AOT/AOT_stimuli/rescaled_final/0725_fw.mp4	0.0	378.57611894607544	0.10000395774841309
83	343.1838319301605	fix_pre	0		120	81.0	2.5	/experiments/knapen_AOT/AOT_stimuli/rescaled_final/0525_rv.mp4	0.0	378.67612290382385	1.0001850128173828
83	343.76739597320557	pulse	0	t		81.0	2.5	/experiments/knapen_AOT/AOT_stimuli/rescaled_final/0525_rv.mp4	0.0	379.2596869468689	
83	344.1840169429779	movie	1		244	81.0	2.5	/experiments/knapen_AOT/AOT_stimuli/rescaled_final/0525_rv.mp4	0.0	379.67630791664124	2.5003321170806885
83	345.36771607398987	pulse	1	t		81.0	2.5	/experiments/knapen_AOT/AOT_stimuli/rescaled_final/0525_rv.mp4	0.0	380.8600070476532	
83	346.6843490600586	fix_post	2		12	81.0	2.5	/experiments/knapen_AOT/AOT_stimuli/rescaled_final/0525_rv.mp4	0.0	382.1766400337219	0.10000181198120117
84	346.7843508720398	fix_pre	0		120	82.0	2.5	/experiments/knapen_AOT/AOT_stimuli/rescaled_final/0803_rv.mp4	0.0	382.2766418457031	1.000143051147461
84	346.9680390357971	pulse	0	t		82.0	2.5	/experiments/knapen_AOT/AOT_stimuli/rescaled_final/0803_rv.mp4	0.0	382.46033000946045	
84	347.78449392318726	movie	1		244	82.0	2.5	/experiments/knapen_AOT/AOT_stimuli/rescaled_final/0803_rv.mp4	0.0	383.2767848968506	2.5003960132598877
84	348.56814789772034	pulse	1	t		82.0	2.5	/experiments/knapen_AOT/AOT_stimuli/rescaled_final/0803_rv.mp4	0.0	384.06043887138367	
84	350.1685950756073	pulse	1	t		82.0	2.5	/experiments/knapen_AOT/AOT_stimuli/rescaled_final/0803_rv.mp4	0.0	385.66088604927063	
84	350.28488993644714	fix_post	2		12	82.0	2.5	/experiments/knapen_AOT/AOT_stimuli/rescaled_final/0803_rv.mp4	0.0	385.7771809101105	0.10001492500305176
85	350.3849048614502	fix_pre	0		120	83.0	2.5	blank	1.0	385.8771958351135	1.000136137008667
85	351.38504099845886	movie	1		299	83.0	2.5	blank	1.0	386.8773319721222	2.4920449256896973
85	351.7685639858246	pulse	1	t		83.0	2.5	blank	1.0	387.2608549594879	
85	353.3688819408417	pulse	1	t		83.0	2.5	blank	1.0	388.861172914505	
85	353.87708592414856	fix_post	2		12	83.0	2.5	blank	1.0	389.3693768978119	0.10005593299865723
87	353.9771418571472	stim	0		1716					389.46943283081055	14.302255153656006
87	354.9692368507385	pulse	0	t						390.46152782440186	
87	356.56940388679504	pulse	0	t						392.0616948604584	
87	358.1695420742035	pulse	0	t						393.6618330478668	
87	359.7698760032654	pulse	0	t						395.2621669769287	
87	361.37011790275574	pulse	0	t						396.86240887641907	
87	362.9703290462494	pulse	0	t						398.4626200199127	
87	364.5705099105835	pulse	0	t						400.0628008842468	
87	366.1706759929657	pulse	0	t						401.662966966629	
87	367.77102398872375	pulse	0	t						403.2633149623871	
