trial_nr	onset	event_type	phase	response	nr_frames	movie_index	movie_duration	movie_file	blank	onset_abs	duration
0	0.20838594436645508	stim	0		1780					26.882171869277954	14.835461139678955
0	15.028635025024414	response	0	space						41.70242094993591	
1	15.04384708404541	stim	0		4746					41.71763300895691	39.568772077560425
1	54.597599029541016	pulse	0	t						81.27138495445251	
1	54.612619161605835	stim	1		1715					81.28640508651733	14.297591924667358
1	56.19187116622925	pulse	1	t						82.86565709114075	
1	57.792068004608154	pulse	1	t						84.46585392951965	
1	59.39232611656189	pulse	1	t						86.06611204147339	
1	60.99262809753418	pulse	1	t						87.66641402244568	
1	62.59297704696655	pulse	1	t						89.26676297187805	
1	64.19302415847778	pulse	1	t						90.86681008338928	
1	65.78580594062805	pulse	1	t						92.45959186553955	
1	67.38588094711304	pulse	1	t						94.05966687202454	
2	68.9102110862732	fix_pre	0		11	0.0	2.5	/experiments/knapen_AOT/AOT_stimuli/rescaled_final/1797_fw.mp4	0.0	95.58399701118469	0.09171199798583984
2	68.98620104789734	pulse	0	t		0.0	2.5	/experiments/knapen_AOT/AOT_stimuli/rescaled_final/1797_fw.mp4	0.0	95.65998697280884	
2	69.00192308425903	movie	1		245	0.0	2.5	/experiments/knapen_AOT/AOT_stimuli/rescaled_final/1797_fw.mp4	0.0	95.67570900917053	2.508687973022461
2	70.59463405609131	pulse	1	t		0.0	2.5	/experiments/knapen_AOT/AOT_stimuli/rescaled_final/1797_fw.mp4	0.0	97.26841998100281	
2	71.5106110572815	fix_post	2		12	0.0	2.5	/experiments/knapen_AOT/AOT_stimuli/rescaled_final/1797_fw.mp4	0.0	98.184396982193	0.10003995895385742
3	71.61065101623535	fix_pre	0		120	1.0	2.5	/experiments/knapen_AOT/AOT_stimuli/rescaled_final/0013_rv.mp4	0.0	98.28443694114685	1.0001249313354492
3	72.1867151260376	pulse	0	t		1.0	2.5	/experiments/knapen_AOT/AOT_stimuli/rescaled_final/0013_rv.mp4	0.0	98.8605010509491	
3	72.6107759475708	movie	1		244	1.0	2.5	/experiments/knapen_AOT/AOT_stimuli/rescaled_final/0013_rv.mp4	0.0	99.2845618724823	2.500354051589966
3	73.7874960899353	pulse	1	t		1.0	2.5	/experiments/knapen_AOT/AOT_stimuli/rescaled_final/0013_rv.mp4	0.0	100.4612820148468	
3	75.11112999916077	fix_post	2		12	1.0	2.5	/experiments/knapen_AOT/AOT_stimuli/rescaled_final/0013_rv.mp4	0.0	101.78491592407227	0.10005903244018555
4	75.21118903160095	fix_pre	0		120	2.0	2.5	/experiments/knapen_AOT/AOT_stimuli/rescaled_final/2020_rv.mp4	0.0	101.88497495651245	1.0001440048217773
4	75.38630795478821	pulse	0	t		2.0	2.5	/experiments/knapen_AOT/AOT_stimuli/rescaled_final/2020_rv.mp4	0.0	102.0600938796997	
4	76.21133303642273	movie	1		243	2.0	2.5	/experiments/knapen_AOT/AOT_stimuli/rescaled_final/2020_rv.mp4	0.0	102.88511896133423	2.500391960144043
4	76.98672795295715	pulse	1	t		2.0	2.5	/experiments/knapen_AOT/AOT_stimuli/rescaled_final/2020_rv.mp4	0.0	103.66051387786865	
4	78.58700895309448	pulse	1	t		2.0	2.5	/experiments/knapen_AOT/AOT_stimuli/rescaled_final/2020_rv.mp4	0.0	105.26079487800598	
4	78.71172499656677	fix_post	2		12	2.0	2.5	/experiments/knapen_AOT/AOT_stimuli/rescaled_final/2020_rv.mp4	0.0	105.38551092147827	0.09998416900634766
5	78.81170916557312	fix_pre	0		120	3.0	2.5	/experiments/knapen_AOT/AOT_stimuli/rescaled_final/0194_rv.mp4	0.0	105.48549509048462	1.0001349449157715
5	79.81184411048889	movie	1		246	3.0	2.5	/experiments/knapen_AOT/AOT_stimuli/rescaled_final/0194_rv.mp4	0.0	106.48563003540039	2.49202299118042
5	80.18714499473572	pulse	1	t		3.0	2.5	/experiments/knapen_AOT/AOT_stimuli/rescaled_final/0194_rv.mp4	0.0	106.86093091964722	
5	81.78738498687744	pulse	1	t		3.0	2.5	/experiments/knapen_AOT/AOT_stimuli/rescaled_final/0194_rv.mp4	0.0	108.46117091178894	
5	82.30386710166931	fix_post	2		12	3.0	2.5	/experiments/knapen_AOT/AOT_stimuli/rescaled_final/0194_rv.mp4	0.0	108.97765302658081	0.10008406639099121
6	82.4039511680603	fix_pre	0		119	4.0	2.5	/experiments/knapen_AOT/AOT_stimuli/rescaled_final/1506_rv.mp4	0.0	109.0777370929718	0.9918098449707031
6	83.38767409324646	pulse	0	t		4.0	2.5	/experiments/knapen_AOT/AOT_stimuli/rescaled_final/1506_rv.mp4	0.0	110.06146001815796	
6	83.395761013031	movie	1		244	4.0	2.5	/experiments/knapen_AOT/AOT_stimuli/rescaled_final/1506_rv.mp4	0.0	110.0695469379425	2.5086381435394287
6	84.98831295967102	pulse	1	t		4.0	2.5	/experiments/knapen_AOT/AOT_stimuli/rescaled_final/1506_rv.mp4	0.0	111.66209888458252	
6	85.90439915657043	fix_post	2		12	4.0	2.5	/experiments/knapen_AOT/AOT_stimuli/rescaled_final/1506_rv.mp4	0.0	112.57818508148193	0.10006284713745117
7	86.00446200370789	fix_pre	0		120	5.0	2.5	/experiments/knapen_AOT/AOT_stimuli/rescaled_final/0589_rv.mp4	0.0	112.67824792861938	1.0001521110534668
7	86.58815217018127	pulse	0	t		5.0	2.5	/experiments/knapen_AOT/AOT_stimuli/rescaled_final/0589_rv.mp4	0.0	113.26193809509277	
7	87.00461411476135	movie	1		246	5.0	2.5	/experiments/knapen_AOT/AOT_stimuli/rescaled_final/0589_rv.mp4	0.0	113.67840003967285	2.500347852706909
7	88.18837809562683	pulse	1	t		5.0	2.5	/experiments/knapen_AOT/AOT_stimuli/rescaled_final/0589_rv.mp4	0.0	114.86216402053833	
7	89.50496196746826	fix_post	2		12	5.0	2.5	/experiments/knapen_AOT/AOT_stimuli/rescaled_final/0589_rv.mp4	0.0	116.17874789237976	0.10004401206970215
8	89.60500597953796	fix_pre	0		120	6.0	2.5	/experiments/knapen_AOT/AOT_stimuli/rescaled_final/0925_rv.mp4	0.0	116.27879190444946	1.0001270771026611
8	89.78855395317078	pulse	0	t		6.0	2.5	/experiments/knapen_AOT/AOT_stimuli/rescaled_final/0925_rv.mp4	0.0	116.46233987808228	
8	90.60513305664062	movie	1		244	6.0	2.5	/experiments/knapen_AOT/AOT_stimuli/rescaled_final/0925_rv.mp4	0.0	117.27891898155212	2.5004448890686035
8	91.38890814781189	pulse	1	t		6.0	2.5	/experiments/knapen_AOT/AOT_stimuli/rescaled_final/0925_rv.mp4	0.0	118.06269407272339	
8	92.98905110359192	pulse	1	t		6.0	2.5	/experiments/knapen_AOT/AOT_stimuli/rescaled_final/0925_rv.mp4	0.0	119.66283702850342	
8	93.10557794570923	fix_post	2		12	6.0	2.5	/experiments/knapen_AOT/AOT_stimuli/rescaled_final/0925_rv.mp4	0.0	119.77936387062073	0.09992003440856934
9	93.2054979801178	fix_pre	0		120	7.0	2.5	blank	1.0	119.8792839050293	1.0001740455627441
9	94.20567202568054	movie	1		299	7.0	2.5	blank	1.0	120.87945795059204	2.4920380115509033
9	94.58924508094788	pulse	1	t		7.0	2.5	blank	1.0	121.26303100585938	
9	96.18950700759888	pulse	1	t		7.0	2.5	blank	1.0	122.86329293251038	
9	96.69771003723145	fix_post	2		12	7.0	2.5	blank	1.0	123.37149596214294	0.09999990463256836
10	96.79770994186401	fix_pre	0		120	8.0	2.5	/experiments/knapen_AOT/AOT_stimuli/rescaled_final/0375_rv.mp4	0.0	123.47149586677551	1.0002071857452393
10	97.78981709480286	pulse	0	t		8.0	2.5	/experiments/knapen_AOT/AOT_stimuli/rescaled_final/0375_rv.mp4	0.0	124.46360301971436	
10	97.79791712760925	movie	1		245	8.0	2.5	/experiments/knapen_AOT/AOT_stimuli/rescaled_final/0375_rv.mp4	0.0	124.47170305252075	2.50872802734375
10	99.39058709144592	pulse	1	t		8.0	2.5	/experiments/knapen_AOT/AOT_stimuli/rescaled_final/0375_rv.mp4	0.0	126.06437301635742	
10	100.306645154953	fix_post	2		12	8.0	2.5	/experiments/knapen_AOT/AOT_stimuli/rescaled_final/0375_rv.mp4	0.0	126.9804310798645	0.0999138355255127
11	100.40655899047852	fix_pre	0		120	9.0	2.5	/experiments/knapen_AOT/AOT_stimuli/rescaled_final/0814_fw.mp4	0.0	127.08034491539001	1.0001721382141113
11	100.99024200439453	pulse	0	t		9.0	2.5	/experiments/knapen_AOT/AOT_stimuli/rescaled_final/0814_fw.mp4	0.0	127.66402792930603	
11	101.40673112869263	movie	1		245	9.0	2.5	/experiments/knapen_AOT/AOT_stimuli/rescaled_final/0814_fw.mp4	0.0	128.08051705360413	2.5003669261932373
11	102.59051704406738	pulse	1	t		9.0	2.5	/experiments/knapen_AOT/AOT_stimuli/rescaled_final/0814_fw.mp4	0.0	129.26430296897888	
11	103.90709805488586	fix_post	2		12	9.0	2.5	/experiments/knapen_AOT/AOT_stimuli/rescaled_final/0814_fw.mp4	0.0	130.58088397979736	0.10001707077026367
12	104.00711512565613	fix_pre	0		120	10.0	2.5	/experiments/knapen_AOT/AOT_stimuli/rescaled_final/2014_fw.mp4	0.0	130.68090105056763	1.0001649856567383
12	104.19067716598511	pulse	0	t		10.0	2.5	/experiments/knapen_AOT/AOT_stimuli/rescaled_final/2014_fw.mp4	0.0	130.8644630908966	
12	105.00728011131287	movie	1		246	10.0	2.5	/experiments/knapen_AOT/AOT_stimuli/rescaled_final/2014_fw.mp4	0.0	131.68106603622437	2.5003628730773926
12	105.79103994369507	pulse	1	t		10.0	2.5	/experiments/knapen_AOT/AOT_stimuli/rescaled_final/2014_fw.mp4	0.0	132.46482586860657	
12	107.39117312431335	pulse	1	t		10.0	2.5	/experiments/knapen_AOT/AOT_stimuli/rescaled_final/2014_fw.mp4	0.0	134.06495904922485	
12	107.50764298439026	fix_post	2		12	10.0	2.5	/experiments/knapen_AOT/AOT_stimuli/rescaled_final/2014_fw.mp4	0.0	134.18142890930176	0.09998703002929688
13	107.60763001441956	fix_pre	0		120	11.0	2.5	/experiments/knapen_AOT/AOT_stimuli/rescaled_final/2029_rv.mp4	0.0	134.28141593933105	1.0001821517944336
13	108.60781216621399	movie	1		244	11.0	2.5	/experiments/knapen_AOT/AOT_stimuli/rescaled_final/2029_rv.mp4	0.0	135.2815980911255	2.492036819458008
13	108.99197697639465	pulse	1	t		11.0	2.5	/experiments/knapen_AOT/AOT_stimuli/rescaled_final/2029_rv.mp4	0.0	135.66576290130615	
13	110.59161615371704	pulse	1	t		11.0	2.5	/experiments/knapen_AOT/AOT_stimuli/rescaled_final/2029_rv.mp4	0.0	137.26540207862854	
13	111.099848985672	fix_post	2		12	11.0	2.5	/experiments/knapen_AOT/AOT_stimuli/rescaled_final/2029_rv.mp4	0.0	137.7736349105835	0.1000211238861084
14	111.1998701095581	fix_pre	0		120	12.0	2.5	/experiments/knapen_AOT/AOT_stimuli/rescaled_final/1900_fw.mp4	0.0	137.8736560344696	1.0001659393310547
14	112.19195008277893	pulse	0	t		12.0	2.5	/experiments/knapen_AOT/AOT_stimuli/rescaled_final/1900_fw.mp4	0.0	138.86573600769043	
14	112.20003604888916	movie	1		245	12.0	2.5	/experiments/knapen_AOT/AOT_stimuli/rescaled_final/1900_fw.mp4	0.0	138.87382197380066	2.508718967437744
14	113.79271411895752	pulse	1	t		12.0	2.5	/experiments/knapen_AOT/AOT_stimuli/rescaled_final/1900_fw.mp4	0.0	140.46650004386902	
14	114.7087550163269	fix_post	2		12	12.0	2.5	/experiments/knapen_AOT/AOT_stimuli/rescaled_final/1900_fw.mp4	0.0	141.3825409412384	0.09998512268066406
15	114.80874013900757	fix_pre	0		120	13.0	2.5	/experiments/knapen_AOT/AOT_stimuli/rescaled_final/0268_rv.mp4	0.0	141.48252606391907	1.0001788139343262
15	115.39230298995972	pulse	0	t		13.0	2.5	/experiments/knapen_AOT/AOT_stimuli/rescaled_final/0268_rv.mp4	0.0	142.06608891487122	
15	115.8089189529419	movie	1		241	13.0	2.5	/experiments/knapen_AOT/AOT_stimuli/rescaled_final/0268_rv.mp4	0.0	142.4827048778534	2.50040602684021
15	116.99270296096802	pulse	1	t		13.0	2.5	/experiments/knapen_AOT/AOT_stimuli/rescaled_final/0268_rv.mp4	0.0	143.66648888587952	
15	118.3093249797821	fix_post	2		12	13.0	2.5	/experiments/knapen_AOT/AOT_stimuli/rescaled_final/0268_rv.mp4	0.0	144.9831109046936	0.09996509552001953
16	118.40929007530212	fix_pre	0		120	14.0	2.5	blank	1.0	145.08307600021362	1.0001280307769775
16	118.59281611442566	pulse	0	t		14.0	2.5	blank	1.0	145.26660203933716	
16	119.4094181060791	movie	1		300	14.0	2.5	blank	1.0	146.0832040309906	2.500396966934204
16	120.1855161190033	pulse	1	t		14.0	2.5	blank	1.0	146.8593020439148	
16	121.78579211235046	pulse	1	t		14.0	2.5	blank	1.0	148.45957803726196	
16	121.9098150730133	fix_post	2		12	14.0	2.5	blank	1.0	148.5836009979248	0.09998893737792969
17	122.00980401039124	fix_pre	0		120	15.0	2.5	/experiments/knapen_AOT/AOT_stimuli/rescaled_final/0775_rv.mp4	0.0	148.68358993530273	1.0001659393310547
17	123.00996994972229	movie	1		244	15.0	2.5	/experiments/knapen_AOT/AOT_stimuli/rescaled_final/0775_rv.mp4	0.0	149.6837558746338	2.492061138153076
17	123.39414310455322	pulse	1	t		15.0	2.5	/experiments/knapen_AOT/AOT_stimuli/rescaled_final/0775_rv.mp4	0.0	150.06792902946472	
17	124.98561501502991	pulse	1	t		15.0	2.5	/experiments/knapen_AOT/AOT_stimuli/rescaled_final/0775_rv.mp4	0.0	151.6594009399414	
17	125.50203108787537	fix_post	2		12	15.0	2.5	/experiments/knapen_AOT/AOT_stimuli/rescaled_final/0775_rv.mp4	0.0	152.17581701278687	0.0999910831451416
18	125.60202217102051	fix_pre	0		119	16.0	2.5	/experiments/knapen_AOT/AOT_stimuli/rescaled_final/0450_fw.mp4	0.0	152.275808095932	0.9919149875640869
18	126.58561301231384	pulse	0	t		16.0	2.5	/experiments/knapen_AOT/AOT_stimuli/rescaled_final/0450_fw.mp4	0.0	153.25939893722534	
18	126.5939371585846	movie	1		246	16.0	2.5	/experiments/knapen_AOT/AOT_stimuli/rescaled_final/0450_fw.mp4	0.0	153.2677230834961	2.5085768699645996
18	128.18670296669006	pulse	1	t		16.0	2.5	/experiments/knapen_AOT/AOT_stimuli/rescaled_final/0450_fw.mp4	0.0	154.86048889160156	
18	129.1025140285492	fix_post	2		12	16.0	2.5	/experiments/knapen_AOT/AOT_stimuli/rescaled_final/0450_fw.mp4	0.0	155.7762999534607	0.10000991821289062
19	129.20252394676208	fix_pre	0		120	17.0	2.5	/experiments/knapen_AOT/AOT_stimuli/rescaled_final/1037_fw.mp4	0.0	155.87630987167358	1.0001530647277832
19	129.7862160205841	pulse	0	t		17.0	2.5	/experiments/knapen_AOT/AOT_stimuli/rescaled_final/1037_fw.mp4	0.0	156.4600019454956	
19	130.20267701148987	movie	1		244	17.0	2.5	/experiments/knapen_AOT/AOT_stimuli/rescaled_final/1037_fw.mp4	0.0	156.87646293640137	2.500386953353882
19	131.38647603988647	pulse	1	t		17.0	2.5	/experiments/knapen_AOT/AOT_stimuli/rescaled_final/1037_fw.mp4	0.0	158.06026196479797	
19	132.70306396484375	fix_post	2		12	17.0	2.5	/experiments/knapen_AOT/AOT_stimuli/rescaled_final/1037_fw.mp4	0.0	159.37684988975525	0.10003018379211426
20	132.80309414863586	fix_pre	0		120	18.0	2.5	/experiments/knapen_AOT/AOT_stimuli/rescaled_final/1755_fw.mp4	0.0	159.47688007354736	1.0001418590545654
20	132.98669910430908	pulse	0	t		18.0	2.5	/experiments/knapen_AOT/AOT_stimuli/rescaled_final/1755_fw.mp4	0.0	159.66048502922058	
20	133.80323600769043	movie	1		243	18.0	2.5	/experiments/knapen_AOT/AOT_stimuli/rescaled_final/1755_fw.mp4	0.0	160.47702193260193	2.500383138656616
20	134.5868639945984	pulse	1	t		18.0	2.5	/experiments/knapen_AOT/AOT_stimuli/rescaled_final/1755_fw.mp4	0.0	161.2606499195099	
20	136.18703293800354	pulse	1	t		18.0	2.5	/experiments/knapen_AOT/AOT_stimuli/rescaled_final/1755_fw.mp4	0.0	162.86081886291504	
20	136.30361914634705	fix_post	2		12	18.0	2.5	/experiments/knapen_AOT/AOT_stimuli/rescaled_final/1755_fw.mp4	0.0	162.97740507125854	0.10000300407409668
21	136.40362215042114	fix_pre	0		120	19.0	2.5	blank	1.0	163.07740807533264	1.0002148151397705
21	137.4038369655609	movie	1		299	19.0	2.5	blank	1.0	164.0776228904724	2.492035150527954
21	137.7872941493988	pulse	1	t		19.0	2.5	blank	1.0	164.4610800743103	
21	139.3876690864563	pulse	1	t		19.0	2.5	blank	1.0	166.0614550113678	
21	139.89587211608887	fix_post	2		12	19.0	2.5	blank	1.0	166.56965804100037	0.1000058650970459
22	139.9958779811859	fix_pre	0		120	20.0	2.5	/experiments/knapen_AOT/AOT_stimuli/rescaled_final/2141_fw.mp4	0.0	166.6696639060974	1.00018310546875
22	140.9878511428833	pulse	0	t		20.0	2.5	/experiments/knapen_AOT/AOT_stimuli/rescaled_final/2141_fw.mp4	0.0	167.6616370677948	
22	140.99606108665466	movie	1		244	20.0	2.5	/experiments/knapen_AOT/AOT_stimuli/rescaled_final/2141_fw.mp4	0.0	167.66984701156616	2.5086259841918945
22	142.58877801895142	pulse	1	t		20.0	2.5	/experiments/knapen_AOT/AOT_stimuli/rescaled_final/2141_fw.mp4	0.0	169.26256394386292	
22	143.50468707084656	fix_post	2		12	20.0	2.5	/experiments/knapen_AOT/AOT_stimuli/rescaled_final/2141_fw.mp4	0.0	170.17847299575806	0.1000359058380127
23	143.60472297668457	fix_pre	0		120	21.0	2.5	/experiments/knapen_AOT/AOT_stimuli/rescaled_final/0119_rv.mp4	0.0	170.27850890159607	1.0001270771026611
23	144.1883089542389	pulse	0	t		21.0	2.5	/experiments/knapen_AOT/AOT_stimuli/rescaled_final/0119_rv.mp4	0.0	170.8620948791504	
23	144.60485005378723	movie	1		243	21.0	2.5	/experiments/knapen_AOT/AOT_stimuli/rescaled_final/0119_rv.mp4	0.0	171.27863597869873	2.5003559589385986
23	145.78870105743408	pulse	1	t		21.0	2.5	/experiments/knapen_AOT/AOT_stimuli/rescaled_final/0119_rv.mp4	0.0	172.46248698234558	
23	147.10520601272583	fix_post	2		12	21.0	2.5	/experiments/knapen_AOT/AOT_stimuli/rescaled_final/0119_rv.mp4	0.0	173.77899193763733	0.10001707077026367
24	147.2052230834961	fix_pre	0		120	22.0	2.5	/experiments/knapen_AOT/AOT_stimuli/rescaled_final/2033_fw.mp4	0.0	173.8790090084076	1.0001699924468994
24	147.38883900642395	pulse	0	t		22.0	2.5	/experiments/knapen_AOT/AOT_stimuli/rescaled_final/2033_fw.mp4	0.0	174.06262493133545	
24	148.205393075943	movie	1		244	22.0	2.5	/experiments/knapen_AOT/AOT_stimuli/rescaled_final/2033_fw.mp4	0.0	174.8791790008545	2.5003719329833984
24	148.98905515670776	pulse	1	t		22.0	2.5	/experiments/knapen_AOT/AOT_stimuli/rescaled_final/2033_fw.mp4	0.0	175.66284108161926	
24	150.58932995796204	pulse	1	t		22.0	2.5	/experiments/knapen_AOT/AOT_stimuli/rescaled_final/2033_fw.mp4	0.0	177.26311588287354	
24	150.7057650089264	fix_post	2		12	22.0	2.5	/experiments/knapen_AOT/AOT_stimuli/rescaled_final/2033_fw.mp4	0.0	177.3795509338379	0.10002899169921875
25	150.8057940006256	fix_pre	0		120	23.0	2.5	/experiments/knapen_AOT/AOT_stimuli/rescaled_final/1052_rv.mp4	0.0	177.4795799255371	1.000162124633789
25	151.8059561252594	movie	1		243	23.0	2.5	/experiments/knapen_AOT/AOT_stimuli/rescaled_final/1052_rv.mp4	0.0	178.4797420501709	2.4920079708099365
25	152.18989610671997	pulse	1	t		23.0	2.5	/experiments/knapen_AOT/AOT_stimuli/rescaled_final/1052_rv.mp4	0.0	178.86368203163147	
25	153.7899091243744	pulse	1	t		23.0	2.5	/experiments/knapen_AOT/AOT_stimuli/rescaled_final/1052_rv.mp4	0.0	180.4636950492859	
25	154.29796409606934	fix_post	2		12	23.0	2.5	/experiments/knapen_AOT/AOT_stimuli/rescaled_final/1052_rv.mp4	0.0	180.97175002098083	0.10002493858337402
26	154.3979890346527	fix_pre	0		120	24.0	2.5	/experiments/knapen_AOT/AOT_stimuli/rescaled_final/1175_fw.mp4	0.0	181.0717749595642	1.0001111030578613
26	155.3900489807129	pulse	0	t		24.0	2.5	/experiments/knapen_AOT/AOT_stimuli/rescaled_final/1175_fw.mp4	0.0	182.0638349056244	
26	155.39810013771057	movie	1		245	24.0	2.5	/experiments/knapen_AOT/AOT_stimuli/rescaled_final/1175_fw.mp4	0.0	182.07188606262207	2.508744955062866
26	156.9948799610138	pulse	1	t		24.0	2.5	/experiments/knapen_AOT/AOT_stimuli/rescaled_final/1175_fw.mp4	0.0	183.6686658859253	
26	157.90684509277344	fix_post	2		12	24.0	2.5	/experiments/knapen_AOT/AOT_stimuli/rescaled_final/1175_fw.mp4	0.0	184.58063101768494	0.10000896453857422
27	158.006854057312	fix_pre	0		120	25.0	2.5	/experiments/knapen_AOT/AOT_stimuli/rescaled_final/0416_fw.mp4	0.0	184.6806399822235	1.0001740455627441
27	158.5904941558838	pulse	0	t		25.0	2.5	/experiments/knapen_AOT/AOT_stimuli/rescaled_final/0416_fw.mp4	0.0	185.2642800807953	
27	159.00702810287476	movie	1		244	25.0	2.5	/experiments/knapen_AOT/AOT_stimuli/rescaled_final/0416_fw.mp4	0.0	185.68081402778625	2.5003409385681152
27	160.19081807136536	pulse	1	t		25.0	2.5	/experiments/knapen_AOT/AOT_stimuli/rescaled_final/0416_fw.mp4	0.0	186.86460399627686	
27	161.50736904144287	fix_post	2		12	25.0	2.5	/experiments/knapen_AOT/AOT_stimuli/rescaled_final/0416_fw.mp4	0.0	188.18115496635437	0.10012006759643555
28	161.6074891090393	fix_pre	0		120	26.0	2.5	blank	1.0	188.2812750339508	1.0000619888305664
28	161.791011095047	pulse	0	t		26.0	2.5	blank	1.0	188.4647970199585	
28	162.60755109786987	movie	1		300	26.0	2.5	blank	1.0	189.28133702278137	2.500380039215088
28	163.39116501808167	pulse	1	t		26.0	2.5	blank	1.0	190.06495094299316	
28	164.9913830757141	pulse	1	t		26.0	2.5	blank	1.0	191.6651690006256	
28	165.10793113708496	fix_post	2		12	26.0	2.5	blank	1.0	191.78171706199646	0.10000896453857422
29	165.20794010162354	fix_pre	0		120	27.0	2.5	/experiments/knapen_AOT/AOT_stimuli/rescaled_final/1953_fw.mp4	0.0	191.88172602653503	1.0001368522644043
29	166.20807695388794	movie	1		242	27.0	2.5	/experiments/knapen_AOT/AOT_stimuli/rescaled_final/1953_fw.mp4	0.0	192.88186287879944	2.492035150527954
29	166.59283900260925	pulse	1	t		27.0	2.5	/experiments/knapen_AOT/AOT_stimuli/rescaled_final/1953_fw.mp4	0.0	193.26662492752075	
29	168.19192004203796	pulse	1	t		27.0	2.5	/experiments/knapen_AOT/AOT_stimuli/rescaled_final/1953_fw.mp4	0.0	194.86570596694946	
29	168.7001121044159	fix_post	2		12	27.0	2.5	/experiments/knapen_AOT/AOT_stimuli/rescaled_final/1953_fw.mp4	0.0	195.3738980293274	0.10001897811889648
30	168.8001310825348	fix_pre	0		120	28.0	2.5	/experiments/knapen_AOT/AOT_stimuli/rescaled_final/0914_fw.mp4	0.0	195.4739170074463	1.0002009868621826
30	169.79215717315674	pulse	0	t		28.0	2.5	/experiments/knapen_AOT/AOT_stimuli/rescaled_final/0914_fw.mp4	0.0	196.46594309806824	
30	169.80033206939697	movie	1		247	28.0	2.5	/experiments/knapen_AOT/AOT_stimuli/rescaled_final/0914_fw.mp4	0.0	196.47411799430847	2.508641004562378
30	171.3930470943451	pulse	1	t		28.0	2.5	/experiments/knapen_AOT/AOT_stimuli/rescaled_final/0914_fw.mp4	0.0	198.0668330192566	
30	172.30897307395935	fix_post	2		12	28.0	2.5	/experiments/knapen_AOT/AOT_stimuli/rescaled_final/0914_fw.mp4	0.0	198.98275899887085	0.10002398490905762
31	172.4089970588684	fix_pre	0		120	29.0	2.5	/experiments/knapen_AOT/AOT_stimuli/rescaled_final/0057_rv.mp4	0.0	199.0827829837799	1.0001249313354492
31	172.99271416664124	pulse	0	t		29.0	2.5	/experiments/knapen_AOT/AOT_stimuli/rescaled_final/0057_rv.mp4	0.0	199.66650009155273	
31	173.40912199020386	movie	1		245	29.0	2.5	/experiments/knapen_AOT/AOT_stimuli/rescaled_final/0057_rv.mp4	0.0	200.08290791511536	2.5003931522369385
31	174.58891916275024	pulse	1	t		29.0	2.5	/experiments/knapen_AOT/AOT_stimuli/rescaled_final/0057_rv.mp4	0.0	201.26270508766174	
31	175.9095151424408	fix_post	2		8	29.0	2.5	/experiments/knapen_AOT/AOT_stimuli/rescaled_final/0057_rv.mp4	0.0	202.5833010673523	0.10005402565002441
32	176.00956916809082	fix_pre	0		120	30.0	2.5	/experiments/knapen_AOT/AOT_stimuli/rescaled_final/0402_fw.mp4	0.0	202.68335509300232	1.0001389980316162
32	176.19315195083618	pulse	0	t		30.0	2.5	/experiments/knapen_AOT/AOT_stimuli/rescaled_final/0402_fw.mp4	0.0	202.86693787574768	
32	177.00970816612244	movie	1		244	30.0	2.5	/experiments/knapen_AOT/AOT_stimuli/rescaled_final/0402_fw.mp4	0.0	203.68349409103394	2.500349998474121
32	177.79328107833862	pulse	1	t		30.0	2.5	/experiments/knapen_AOT/AOT_stimuli/rescaled_final/0402_fw.mp4	0.0	204.46706700325012	
32	179.3853681087494	pulse	1	t		30.0	2.5	/experiments/knapen_AOT/AOT_stimuli/rescaled_final/0402_fw.mp4	0.0	206.0591540336609	
32	179.51005816459656	fix_post	2		12	30.0	2.5	/experiments/knapen_AOT/AOT_stimuli/rescaled_final/0402_fw.mp4	0.0	206.18384408950806	0.1000058650970459
33	179.6100640296936	fix_pre	0		120	31.0	2.5	/experiments/knapen_AOT/AOT_stimuli/rescaled_final/1214_rv.mp4	0.0	206.2838499546051	1.0001490116119385
33	180.61021304130554	movie	1		243	31.0	2.5	/experiments/knapen_AOT/AOT_stimuli/rescaled_final/1214_rv.mp4	0.0	207.28399896621704	2.4920289516448975
33	180.98540806770325	pulse	1	t		31.0	2.5	/experiments/knapen_AOT/AOT_stimuli/rescaled_final/1214_rv.mp4	0.0	207.65919399261475	
33	182.58579206466675	pulse	1	t		31.0	2.5	/experiments/knapen_AOT/AOT_stimuli/rescaled_final/1214_rv.mp4	0.0	209.25957798957825	
33	183.10224199295044	fix_post	2		12	31.0	2.5	/experiments/knapen_AOT/AOT_stimuli/rescaled_final/1214_rv.mp4	0.0	209.77602791786194	0.10005617141723633
34	183.20229816436768	fix_pre	0		119	32.0	2.5	/experiments/knapen_AOT/AOT_stimuli/rescaled_final/2057_rv.mp4	0.0	209.87608408927917	0.991790771484375
34	184.18601608276367	pulse	0	t		32.0	2.5	/experiments/knapen_AOT/AOT_stimuli/rescaled_final/2057_rv.mp4	0.0	210.85980200767517	
34	184.19408893585205	movie	1		244	32.0	2.5	/experiments/knapen_AOT/AOT_stimuli/rescaled_final/2057_rv.mp4	0.0	210.86787486076355	2.5087242126464844
34	185.7867250442505	pulse	1	t		32.0	2.5	/experiments/knapen_AOT/AOT_stimuli/rescaled_final/2057_rv.mp4	0.0	212.460510969162	
34	186.70281314849854	fix_post	2		12	32.0	2.5	/experiments/knapen_AOT/AOT_stimuli/rescaled_final/2057_rv.mp4	0.0	213.37659907341003	0.10000991821289062
35	186.80282306671143	fix_pre	0		120	33.0	2.5	/experiments/knapen_AOT/AOT_stimuli/rescaled_final/0247_rv.mp4	0.0	213.47660899162292	1.0001420974731445
35	187.38637495040894	pulse	0	t		33.0	2.5	/experiments/knapen_AOT/AOT_stimuli/rescaled_final/0247_rv.mp4	0.0	214.06016087532043	
35	187.80296516418457	movie	1		244	33.0	2.5	/experiments/knapen_AOT/AOT_stimuli/rescaled_final/0247_rv.mp4	0.0	214.47675108909607	2.5003538131713867
35	188.98674511909485	pulse	1	t		33.0	2.5	/experiments/knapen_AOT/AOT_stimuli/rescaled_final/0247_rv.mp4	0.0	215.66053104400635	
35	190.30331897735596	fix_post	2		12	33.0	2.5	/experiments/knapen_AOT/AOT_stimuli/rescaled_final/0247_rv.mp4	0.0	216.97710490226746	0.10003399848937988
36	190.40335297584534	fix_pre	0		120	34.0	2.5	blank	1.0	217.07713890075684	1.0001499652862549
36	190.5869700908661	pulse	0	t		34.0	2.5	blank	1.0	217.2607560157776	
36	191.4035029411316	movie	1		300	34.0	2.5	blank	1.0	218.0772888660431	2.5004072189331055
36	192.18718099594116	pulse	1	t		34.0	2.5	blank	1.0	218.86096692085266	
36	193.78727507591248	pulse	1	t		34.0	2.5	blank	1.0	220.46106100082397	
36	193.9039101600647	fix_post	2		12	34.0	2.5	blank	1.0	220.5776960849762	0.09999394416809082
37	194.0039041042328	fix_pre	0		120	35.0	2.5	/experiments/knapen_AOT/AOT_stimuli/rescaled_final/1064_fw.mp4	0.0	220.6776900291443	1.0002000331878662
37	195.00410413742065	movie	1		243	35.0	2.5	/experiments/knapen_AOT/AOT_stimuli/rescaled_final/1064_fw.mp4	0.0	221.67789006233215	2.4919610023498535
37	195.38825011253357	pulse	1	t		35.0	2.5	/experiments/knapen_AOT/AOT_stimuli/rescaled_final/1064_fw.mp4	0.0	222.06203603744507	
37	196.98793601989746	pulse	1	t		35.0	2.5	/experiments/knapen_AOT/AOT_stimuli/rescaled_final/1064_fw.mp4	0.0	223.66172194480896	
37	197.4960651397705	fix_post	2		12	35.0	2.5	/experiments/knapen_AOT/AOT_stimuli/rescaled_final/1064_fw.mp4	0.0	224.169851064682	0.10005784034729004
38	197.5961229801178	fix_pre	0		120	36.0	2.5	/experiments/knapen_AOT/AOT_stimuli/rescaled_final/0726_fw.mp4	0.0	224.2699089050293	1.000154972076416
38	198.58822107315063	pulse	0	t		36.0	2.5	/experiments/knapen_AOT/AOT_stimuli/rescaled_final/0726_fw.mp4	0.0	225.26200699806213	
38	198.5962779521942	movie	1		247	36.0	2.5	/experiments/knapen_AOT/AOT_stimuli/rescaled_final/0726_fw.mp4	0.0	225.2700638771057	2.5087060928344727
38	200.1890151500702	pulse	1	t		36.0	2.5	/experiments/knapen_AOT/AOT_stimuli/rescaled_final/0726_fw.mp4	0.0	226.8628010749817	
38	201.1049840450287	fix_post	2		12	36.0	2.5	/experiments/knapen_AOT/AOT_stimuli/rescaled_final/0726_fw.mp4	0.0	227.77876996994019	0.09998297691345215
39	201.20496702194214	fix_pre	0		120	37.0	2.5	/experiments/knapen_AOT/AOT_stimuli/rescaled_final/0531_rv.mp4	0.0	227.87875294685364	1.0002450942993164
39	201.7885639667511	pulse	0	t		37.0	2.5	/experiments/knapen_AOT/AOT_stimuli/rescaled_final/0531_rv.mp4	0.0	228.4623498916626	
39	202.20521211624146	movie	1		244	37.0	2.5	/experiments/knapen_AOT/AOT_stimuli/rescaled_final/0531_rv.mp4	0.0	228.87899804115295	2.5002870559692383
39	203.38886404037476	pulse	1	t		37.0	2.5	/experiments/knapen_AOT/AOT_stimuli/rescaled_final/0531_rv.mp4	0.0	230.06264996528625	
39	204.7054991722107	fix_post	2		12	37.0	2.5	/experiments/knapen_AOT/AOT_stimuli/rescaled_final/0531_rv.mp4	0.0	231.3792850971222	0.0999917984008789
40	204.80549097061157	fix_pre	0		120	38.0	2.5	/experiments/knapen_AOT/AOT_stimuli/rescaled_final/0929_fw.mp4	0.0	231.47927689552307	1.0001530647277832
40	204.9890320301056	pulse	0	t		38.0	2.5	/experiments/knapen_AOT/AOT_stimuli/rescaled_final/0929_fw.mp4	0.0	231.6628179550171	
40	205.80564403533936	movie	1		246	38.0	2.5	/experiments/knapen_AOT/AOT_stimuli/rescaled_final/0929_fw.mp4	0.0	232.47942996025085	2.5003769397735596
40	206.58933806419373	pulse	1	t		38.0	2.5	/experiments/knapen_AOT/AOT_stimuli/rescaled_final/0929_fw.mp4	0.0	233.26312398910522	
40	208.18957901000977	pulse	1	t		38.0	2.5	/experiments/knapen_AOT/AOT_stimuli/rescaled_final/0929_fw.mp4	0.0	234.86336493492126	
40	208.30602097511292	fix_post	2		12	38.0	2.5	/experiments/knapen_AOT/AOT_stimuli/rescaled_final/0929_fw.mp4	0.0	234.9798069000244	0.10001111030578613
41	208.4060320854187	fix_pre	0		120	39.0	2.5	/experiments/knapen_AOT/AOT_stimuli/rescaled_final/0589_rv.mp4	0.0	235.0798180103302	1.00016188621521
41	209.4061939716339	movie	1		245	39.0	2.5	/experiments/knapen_AOT/AOT_stimuli/rescaled_final/0589_rv.mp4	0.0	236.0799798965454	2.492098093032837
41	209.79354310035706	pulse	1	t		39.0	2.5	/experiments/knapen_AOT/AOT_stimuli/rescaled_final/0589_rv.mp4	0.0	236.46732902526855	
41	211.3900649547577	pulse	1	t		39.0	2.5	/experiments/knapen_AOT/AOT_stimuli/rescaled_final/0589_rv.mp4	0.0	238.0638508796692	
41	211.89829206466675	fix_post	2		12	39.0	2.5	/experiments/knapen_AOT/AOT_stimuli/rescaled_final/0589_rv.mp4	0.0	238.57207798957825	0.09997892379760742
42	211.99827098846436	fix_pre	0		120	40.0	2.5	/experiments/knapen_AOT/AOT_stimuli/rescaled_final/0435_fw.mp4	0.0	238.67205691337585	1.0001251697540283
42	212.99031114578247	pulse	0	t		40.0	2.5	/experiments/knapen_AOT/AOT_stimuli/rescaled_final/0435_fw.mp4	0.0	239.66409707069397	
42	212.99839615821838	movie	1		245	40.0	2.5	/experiments/knapen_AOT/AOT_stimuli/rescaled_final/0435_fw.mp4	0.0	239.67218208312988	2.5086989402770996
42	214.59133100509644	pulse	1	t		40.0	2.5	/experiments/knapen_AOT/AOT_stimuli/rescaled_final/0435_fw.mp4	0.0	241.26511693000793	
42	215.50709509849548	fix_post	2		12	40.0	2.5	/experiments/knapen_AOT/AOT_stimuli/rescaled_final/0435_fw.mp4	0.0	242.18088102340698	0.10001206398010254
43	215.6071071624756	fix_pre	0		120	41.0	2.5	/experiments/knapen_AOT/AOT_stimuli/rescaled_final/1077_fw.mp4	0.0	242.28089308738708	1.0002198219299316
43	216.19077014923096	pulse	0	t		41.0	2.5	/experiments/knapen_AOT/AOT_stimuli/rescaled_final/1077_fw.mp4	0.0	242.86455607414246	
43	216.60732698440552	movie	1		243	41.0	2.5	/experiments/knapen_AOT/AOT_stimuli/rescaled_final/1077_fw.mp4	0.0	243.28111290931702	2.500303030014038
43	217.79108214378357	pulse	1	t		41.0	2.5	/experiments/knapen_AOT/AOT_stimuli/rescaled_final/1077_fw.mp4	0.0	244.46486806869507	
43	219.10763001441956	fix_post	2		12	41.0	2.5	/experiments/knapen_AOT/AOT_stimuli/rescaled_final/1077_fw.mp4	0.0	245.78141593933105	0.10001802444458008
44	219.20764803886414	fix_pre	0		120	42.0	2.5	blank	1.0	245.88143396377563	1.0002379417419434
44	219.39133310317993	pulse	0	t		42.0	2.5	blank	1.0	246.06511902809143	
44	220.20788598060608	movie	1		300	42.0	2.5	blank	1.0	246.88167190551758	2.500296115875244
44	220.99142694473267	pulse	1	t		42.0	2.5	blank	1.0	247.66521286964417	
44	222.59181594848633	pulse	1	t		42.0	2.5	blank	1.0	249.26560187339783	
44	222.70818209648132	fix_post	2		12	42.0	2.5	blank	1.0	249.38196802139282	0.09998703002929688
45	222.80816912651062	fix_pre	0		120	43.0	2.5	/experiments/knapen_AOT/AOT_stimuli/rescaled_final/0874_fw.mp4	0.0	249.48195505142212	1.0001749992370605
45	223.80834412574768	movie	1		242	43.0	2.5	/experiments/knapen_AOT/AOT_stimuli/rescaled_final/0874_fw.mp4	0.0	250.48213005065918	2.4920248985290527
45	224.19288897514343	pulse	1	t		43.0	2.5	/experiments/knapen_AOT/AOT_stimuli/rescaled_final/0874_fw.mp4	0.0	250.86667490005493	
45	225.79228806495667	pulse	1	t		43.0	2.5	/experiments/knapen_AOT/AOT_stimuli/rescaled_final/0874_fw.mp4	0.0	252.46607398986816	
45	226.30036902427673	fix_post	2		12	43.0	2.5	/experiments/knapen_AOT/AOT_stimuli/rescaled_final/0874_fw.mp4	0.0	252.97415494918823	0.10007214546203613
46	226.40044116973877	fix_pre	0		120	44.0	2.5	/experiments/knapen_AOT/AOT_stimuli/rescaled_final/1235_rv.mp4	0.0	253.07422709465027	1.0001449584960938
46	227.39237809181213	pulse	0	t		44.0	2.5	/experiments/knapen_AOT/AOT_stimuli/rescaled_final/1235_rv.mp4	0.0	254.06616401672363	
46	227.40058612823486	movie	1		245	44.0	2.5	/experiments/knapen_AOT/AOT_stimuli/rescaled_final/1235_rv.mp4	0.0	254.07437205314636	2.508659839630127
46	228.9966320991516	pulse	1	t		44.0	2.5	/experiments/knapen_AOT/AOT_stimuli/rescaled_final/1235_rv.mp4	0.0	255.6704180240631	
46	229.909245967865	fix_post	2		12	44.0	2.5	/experiments/knapen_AOT/AOT_stimuli/rescaled_final/1235_rv.mp4	0.0	256.5830318927765	0.10003304481506348
47	230.00927901268005	fix_pre	0		120	45.0	2.5	/experiments/knapen_AOT/AOT_stimuli/rescaled_final/0929_rv.mp4	0.0	256.68306493759155	1.000180959701538
47	230.59291005134583	pulse	0	t		45.0	2.5	/experiments/knapen_AOT/AOT_stimuli/rescaled_final/0929_rv.mp4	0.0	257.2666959762573	
47	231.0094599723816	movie	1		246	45.0	2.5	/experiments/knapen_AOT/AOT_stimuli/rescaled_final/0929_rv.mp4	0.0	257.6832458972931	2.500322103500366
47	232.193176984787	pulse	1	t		45.0	2.5	/experiments/knapen_AOT/AOT_stimuli/rescaled_final/0929_rv.mp4	0.0	258.8669629096985	
47	233.50978207588196	fix_post	2		12	45.0	2.5	/experiments/knapen_AOT/AOT_stimuli/rescaled_final/0929_rv.mp4	0.0	260.18356800079346	0.10005402565002441
48	233.60983610153198	fix_pre	0		120	46.0	2.5	/experiments/knapen_AOT/AOT_stimuli/rescaled_final/0825_fw.mp4	0.0	260.2836220264435	1.0001258850097656
48	233.7857949733734	pulse	0	t		46.0	2.5	/experiments/knapen_AOT/AOT_stimuli/rescaled_final/0825_fw.mp4	0.0	260.4595808982849	
48	234.60996198654175	movie	1		240	46.0	2.5	/experiments/knapen_AOT/AOT_stimuli/rescaled_final/0825_fw.mp4	0.0	261.28374791145325	2.500349998474121
48	235.38612604141235	pulse	1	t		46.0	2.5	/experiments/knapen_AOT/AOT_stimuli/rescaled_final/0825_fw.mp4	0.0	262.05991196632385	
48	236.99391293525696	pulse	1	t		46.0	2.5	/experiments/knapen_AOT/AOT_stimuli/rescaled_final/0825_fw.mp4	0.0	263.66769886016846	
48	237.11031198501587	fix_post	2		12	46.0	2.5	/experiments/knapen_AOT/AOT_stimuli/rescaled_final/0825_fw.mp4	0.0	263.78409790992737	0.10006403923034668
49	237.21037602424622	fix_pre	0		120	47.0	2.5	/experiments/knapen_AOT/AOT_stimuli/rescaled_final/1630_fw.mp4	0.0	263.8841619491577	1.0001399517059326
49	238.21051597595215	movie	1		243	47.0	2.5	/experiments/knapen_AOT/AOT_stimuli/rescaled_final/1630_fw.mp4	0.0	264.88430190086365	2.492002010345459
49	238.594624042511	pulse	1	t		47.0	2.5	/experiments/knapen_AOT/AOT_stimuli/rescaled_final/1630_fw.mp4	0.0	265.2684099674225	
49	240.1862051486969	pulse	1	t		47.0	2.5	/experiments/knapen_AOT/AOT_stimuli/rescaled_final/1630_fw.mp4	0.0	266.8599910736084	
49	240.7025179862976	fix_post	2		12	47.0	2.5	/experiments/knapen_AOT/AOT_stimuli/rescaled_final/1630_fw.mp4	0.0	267.3763039112091	0.10009407997131348
50	240.80261206626892	fix_pre	0		119	48.0	2.5	blank	1.0	267.4763979911804	0.991811990737915
50	241.78614902496338	pulse	0	t		48.0	2.5	blank	1.0	268.4599349498749	
50	241.79442405700684	movie	1		301	48.0	2.5	blank	1.0	268.46820998191833	2.5086450576782227
50	243.38646006584167	pulse	1	t		48.0	2.5	blank	1.0	270.0602459907532	
50	244.30306911468506	fix_post	2		12	48.0	2.5	blank	1.0	270.97685503959656	0.10004782676696777
51	244.40311694145203	fix_pre	0		120	49.0	2.5	/experiments/knapen_AOT/AOT_stimuli/rescaled_final/2014_fw.mp4	0.0	271.0769028663635	1.000129222869873
51	244.98672008514404	pulse	0	t		49.0	2.5	/experiments/knapen_AOT/AOT_stimuli/rescaled_final/2014_fw.mp4	0.0	271.66050601005554	
51	245.4032461643219	movie	1		246	49.0	2.5	/experiments/knapen_AOT/AOT_stimuli/rescaled_final/2014_fw.mp4	0.0	272.0770320892334	2.5003879070281982
51	246.58704805374146	pulse	1	t		49.0	2.5	/experiments/knapen_AOT/AOT_stimuli/rescaled_final/2014_fw.mp4	0.0	273.26083397865295	
51	247.9036340713501	fix_post	2		12	49.0	2.5	/experiments/knapen_AOT/AOT_stimuli/rescaled_final/2014_fw.mp4	0.0	274.5774199962616	0.1000669002532959
52	248.0037009716034	fix_pre	0		120	50.0	2.5	/experiments/knapen_AOT/AOT_stimuli/rescaled_final/1778_rv.mp4	0.0	274.6774868965149	1.0000741481781006
52	248.1872091293335	pulse	0	t		50.0	2.5	/experiments/knapen_AOT/AOT_stimuli/rescaled_final/1778_rv.mp4	0.0	274.860995054245	
52	249.0037751197815	movie	1		245	50.0	2.5	/experiments/knapen_AOT/AOT_stimuli/rescaled_final/1778_rv.mp4	0.0	275.677561044693	2.5003998279571533
52	249.78736400604248	pulse	1	t		50.0	2.5	/experiments/knapen_AOT/AOT_stimuli/rescaled_final/1778_rv.mp4	0.0	276.461149930954	
52	251.3877580165863	pulse	1	t		50.0	2.5	/experiments/knapen_AOT/AOT_stimuli/rescaled_final/1778_rv.mp4	0.0	278.0615439414978	
52	251.50417494773865	fix_post	2		12	50.0	2.5	/experiments/knapen_AOT/AOT_stimuli/rescaled_final/1778_rv.mp4	0.0	278.17796087265015	0.09998512268066406
53	251.6041600704193	fix_pre	0		119	51.0	2.5	/experiments/knapen_AOT/AOT_stimuli/rescaled_final/0589_fw.mp4	0.0	278.2779459953308	0.9918360710144043
53	252.59599614143372	movie	1		247	51.0	2.5	/experiments/knapen_AOT/AOT_stimuli/rescaled_final/0589_fw.mp4	0.0	279.2697820663452	2.500412940979004
53	252.98811101913452	pulse	1	t		51.0	2.5	/experiments/knapen_AOT/AOT_stimuli/rescaled_final/0589_fw.mp4	0.0	279.661896944046	
53	254.58833599090576	pulse	1	t		51.0	2.5	/experiments/knapen_AOT/AOT_stimuli/rescaled_final/0589_fw.mp4	0.0	281.26212191581726	
53	255.09640908241272	fix_post	2		12	51.0	2.5	/experiments/knapen_AOT/AOT_stimuli/rescaled_final/0589_fw.mp4	0.0	281.7701950073242	0.10004186630249023
54	255.1964509487152	fix_pre	0		120	52.0	2.5	/experiments/knapen_AOT/AOT_stimuli/rescaled_final/0013_fw.mp4	0.0	281.8702368736267	1.0001652240753174
54	256.1883201599121	pulse	0	t		52.0	2.5	/experiments/knapen_AOT/AOT_stimuli/rescaled_final/0013_fw.mp4	0.0	282.8621060848236	
54	256.1966161727905	movie	1		245	52.0	2.5	/experiments/knapen_AOT/AOT_stimuli/rescaled_final/0013_fw.mp4	0.0	282.870402097702	2.5085928440093994
54	257.78895711898804	pulse	1	t		52.0	2.5	/experiments/knapen_AOT/AOT_stimuli/rescaled_final/0013_fw.mp4	0.0	284.46274304389954	
54	258.7052090167999	fix_post	2		12	52.0	2.5	/experiments/knapen_AOT/AOT_stimuli/rescaled_final/0013_fw.mp4	0.0	285.3789949417114	0.10006999969482422
55	258.80527901649475	fix_pre	0		120	53.0	2.5	/experiments/knapen_AOT/AOT_stimuli/rescaled_final/0847_fw.mp4	0.0	285.47906494140625	1.000148057937622
55	259.38892912864685	pulse	0	t		53.0	2.5	/experiments/knapen_AOT/AOT_stimuli/rescaled_final/0847_fw.mp4	0.0	286.06271505355835	
55	259.8054270744324	movie	1		244	53.0	2.5	/experiments/knapen_AOT/AOT_stimuli/rescaled_final/0847_fw.mp4	0.0	286.4792129993439	2.5003490447998047
55	260.98923206329346	pulse	1	t		53.0	2.5	/experiments/knapen_AOT/AOT_stimuli/rescaled_final/0847_fw.mp4	0.0	287.66301798820496	
55	262.3057761192322	fix_post	2		12	53.0	2.5	/experiments/knapen_AOT/AOT_stimuli/rescaled_final/0847_fw.mp4	0.0	288.9795620441437	0.10006499290466309
56	262.40584111213684	fix_pre	0		120	54.0	2.5	/experiments/knapen_AOT/AOT_stimuli/rescaled_final/1978_fw.mp4	0.0	289.07962703704834	1.000079870223999
56	262.5892491340637	pulse	0	t		54.0	2.5	/experiments/knapen_AOT/AOT_stimuli/rescaled_final/1978_fw.mp4	0.0	289.2630350589752	
56	263.40592098236084	movie	1		244	54.0	2.5	/experiments/knapen_AOT/AOT_stimuli/rescaled_final/1978_fw.mp4	0.0	290.07970690727234	2.5003950595855713
56	264.1896150112152	pulse	1	t		54.0	2.5	/experiments/knapen_AOT/AOT_stimuli/rescaled_final/1978_fw.mp4	0.0	290.8634009361267	
56	265.78967213630676	pulse	1	t		54.0	2.5	/experiments/knapen_AOT/AOT_stimuli/rescaled_final/1978_fw.mp4	0.0	292.46345806121826	
56	265.9063160419464	fix_post	2		12	54.0	2.5	/experiments/knapen_AOT/AOT_stimuli/rescaled_final/1978_fw.mp4	0.0	292.5801019668579	0.1000509262084961
57	266.0063669681549	fix_pre	0		120	55.0	2.5	/experiments/knapen_AOT/AOT_stimuli/rescaled_final/0598_fw.mp4	0.0	292.6801528930664	1.0001001358032227
57	267.00646710395813	movie	1		246	55.0	2.5	/experiments/knapen_AOT/AOT_stimuli/rescaled_final/0598_fw.mp4	0.0	293.68025302886963	2.4920690059661865
57	267.390634059906	pulse	1	t		55.0	2.5	/experiments/knapen_AOT/AOT_stimuli/rescaled_final/0598_fw.mp4	0.0	294.0644199848175	
57	268.9902400970459	pulse	1	t		55.0	2.5	/experiments/knapen_AOT/AOT_stimuli/rescaled_final/0598_fw.mp4	0.0	295.6640260219574	
57	269.4985361099243	fix_post	2		12	55.0	2.5	/experiments/knapen_AOT/AOT_stimuli/rescaled_final/0598_fw.mp4	0.0	296.1723220348358	0.09997391700744629
58	269.59851002693176	fix_pre	0		120	56.0	2.5	blank	1.0	296.27229595184326	1.0001389980316162
58	270.5904860496521	pulse	0	t		56.0	2.5	blank	1.0	297.2642719745636	
58	270.5986490249634	movie	1		301	56.0	2.5	blank	1.0	297.2724349498749	2.5087599754333496
58	272.19078612327576	pulse	1	t		56.0	2.5	blank	1.0	298.86457204818726	
58	273.10740900039673	fix_post	2		12	56.0	2.5	blank	1.0	299.7811949253082	0.10001301765441895
59	273.20742201805115	fix_pre	0		120	57.0	2.5	/experiments/knapen_AOT/AOT_stimuli/rescaled_final/1175_rv.mp4	0.0	299.88120794296265	1.0001239776611328
59	273.7910771369934	pulse	0	t		57.0	2.5	/experiments/knapen_AOT/AOT_stimuli/rescaled_final/1175_rv.mp4	0.0	300.4648630619049	
59	274.2075459957123	movie	1		244	57.0	2.5	/experiments/knapen_AOT/AOT_stimuli/rescaled_final/1175_rv.mp4	0.0	300.8813319206238	2.5003621578216553
59	275.39128613471985	pulse	1	t		57.0	2.5	/experiments/knapen_AOT/AOT_stimuli/rescaled_final/1175_rv.mp4	0.0	302.06507205963135	
59	276.70790815353394	fix_post	2		12	57.0	2.5	/experiments/knapen_AOT/AOT_stimuli/rescaled_final/1175_rv.mp4	0.0	303.38169407844543	0.10003781318664551
60	276.8079459667206	fix_pre	0		120	58.0	2.5	/experiments/knapen_AOT/AOT_stimuli/rescaled_final/1899_rv.mp4	0.0	303.4817318916321	1.0001220703125
60	276.9914040565491	pulse	0	t		58.0	2.5	/experiments/knapen_AOT/AOT_stimuli/rescaled_final/1899_rv.mp4	0.0	303.66518998146057	
60	277.8080680370331	movie	1		243	58.0	2.5	/experiments/knapen_AOT/AOT_stimuli/rescaled_final/1899_rv.mp4	0.0	304.4818539619446	2.5003890991210938
60	278.5917601585388	pulse	1	t		58.0	2.5	/experiments/knapen_AOT/AOT_stimuli/rescaled_final/1899_rv.mp4	0.0	305.2655460834503	
60	280.19182801246643	pulse	1	t		58.0	2.5	/experiments/knapen_AOT/AOT_stimuli/rescaled_final/1899_rv.mp4	0.0	306.86561393737793	
60	280.3084571361542	fix_post	2		12	58.0	2.5	/experiments/knapen_AOT/AOT_stimuli/rescaled_final/1899_rv.mp4	0.0	306.9822430610657	0.10001182556152344
61	280.4084689617157	fix_pre	0		119	59.0	2.5	/experiments/knapen_AOT/AOT_stimuli/rescaled_final/2117_rv.mp4	0.0	307.0822548866272	0.9918169975280762
61	281.4002859592438	movie	1		246	59.0	2.5	/experiments/knapen_AOT/AOT_stimuli/rescaled_final/2117_rv.mp4	0.0	308.0740718841553	2.5003600120544434
61	281.78843212127686	pulse	1	t		59.0	2.5	/experiments/knapen_AOT/AOT_stimuli/rescaled_final/2117_rv.mp4	0.0	308.46221804618835	
61	283.3924250602722	pulse	1	t		59.0	2.5	/experiments/knapen_AOT/AOT_stimuli/rescaled_final/2117_rv.mp4	0.0	310.0662109851837	
61	283.9006459712982	fix_post	2		12	59.0	2.5	/experiments/knapen_AOT/AOT_stimuli/rescaled_final/2117_rv.mp4	0.0	310.5744318962097	0.10009407997131348
62	284.00074005126953	fix_pre	0		120	60.0	2.5	/experiments/knapen_AOT/AOT_stimuli/rescaled_final/0824_rv.mp4	0.0	310.67452597618103	1.0000929832458496
62	284.99263215065	pulse	0	t		60.0	2.5	/experiments/knapen_AOT/AOT_stimuli/rescaled_final/0824_rv.mp4	0.0	311.6664180755615	
62	285.0008330345154	movie	1		245	60.0	2.5	/experiments/knapen_AOT/AOT_stimuli/rescaled_final/0824_rv.mp4	0.0	311.6746189594269	2.508718967437744
62	286.5972340106964	pulse	1	t		60.0	2.5	/experiments/knapen_AOT/AOT_stimuli/rescaled_final/0824_rv.mp4	0.0	313.2710199356079	
62	287.5095520019531	fix_post	2		12	60.0	2.5	/experiments/knapen_AOT/AOT_stimuli/rescaled_final/0824_rv.mp4	0.0	314.1833379268646	0.09998512268066406
63	287.6095371246338	fix_pre	0		120	61.0	2.5	/experiments/knapen_AOT/AOT_stimuli/rescaled_final/0402_fw.mp4	0.0	314.2833230495453	1.000152826309204
63	288.18572306632996	pulse	0	t		61.0	2.5	/experiments/knapen_AOT/AOT_stimuli/rescaled_final/0402_fw.mp4	0.0	314.85950899124146	
63	288.609689950943	movie	1		244	61.0	2.5	/experiments/knapen_AOT/AOT_stimuli/rescaled_final/0402_fw.mp4	0.0	315.2834758758545	2.5003910064697266
63	289.78554701805115	pulse	1	t		61.0	2.5	/experiments/knapen_AOT/AOT_stimuli/rescaled_final/0402_fw.mp4	0.0	316.45933294296265	
63	291.1100809574127	fix_post	2		12	61.0	2.5	/experiments/knapen_AOT/AOT_stimuli/rescaled_final/0402_fw.mp4	0.0	317.7838668823242	0.100006103515625
64	291.21008706092834	fix_pre	0		120	62.0	2.5	blank	1.0	317.88387298583984	1.000133991241455
64	291.38605093955994	pulse	0	t		62.0	2.5	blank	1.0	318.05983686447144	
64	292.2102210521698	movie	1		300	62.0	2.5	blank	1.0	318.8840069770813	2.5004000663757324
64	292.98553013801575	pulse	1	t		62.0	2.5	blank	1.0	319.65931606292725	
64	294.58567094802856	pulse	1	t		62.0	2.5	blank	1.0	321.25945687294006	
64	294.71062111854553	fix_post	2		12	62.0	2.5	blank	1.0	321.38440704345703	0.09999895095825195
65	294.8106200695038	fix_pre	0		120	63.0	2.5	/experiments/knapen_AOT/AOT_stimuli/rescaled_final/0962_fw.mp4	0.0	321.4844059944153	1.0001859664916992
65	295.8108060359955	movie	1		243	63.0	2.5	/experiments/knapen_AOT/AOT_stimuli/rescaled_final/0962_fw.mp4	0.0	322.484591960907	2.492033004760742
65	296.1859540939331	pulse	1	t		63.0	2.5	/experiments/knapen_AOT/AOT_stimuli/rescaled_final/0962_fw.mp4	0.0	322.8597400188446	
65	297.7862901687622	pulse	1	t		63.0	2.5	/experiments/knapen_AOT/AOT_stimuli/rescaled_final/0962_fw.mp4	0.0	324.4600760936737	
65	298.3028390407562	fix_post	2		12	63.0	2.5	/experiments/knapen_AOT/AOT_stimuli/rescaled_final/0962_fw.mp4	0.0	324.9766249656677	0.10002994537353516
66	298.40286898612976	fix_pre	0		119	64.0	2.5	/experiments/knapen_AOT/AOT_stimuli/rescaled_final/1077_rv.mp4	0.0	325.07665491104126	0.9917869567871094
66	299.3864040374756	pulse	0	t		64.0	2.5	/experiments/knapen_AOT/AOT_stimuli/rescaled_final/1077_rv.mp4	0.0	326.0601899623871	
66	299.39465594291687	movie	1		244	64.0	2.5	/experiments/knapen_AOT/AOT_stimuli/rescaled_final/1077_rv.mp4	0.0	326.06844186782837	2.5086941719055176
66	300.99152398109436	pulse	1	t		64.0	2.5	/experiments/knapen_AOT/AOT_stimuli/rescaled_final/1077_rv.mp4	0.0	327.66530990600586	
66	301.9033501148224	fix_post	2		12	64.0	2.5	/experiments/knapen_AOT/AOT_stimuli/rescaled_final/1077_rv.mp4	0.0	328.5771360397339	0.10002493858337402
67	302.00337505340576	fix_pre	0		120	65.0	2.5	/experiments/knapen_AOT/AOT_stimuli/rescaled_final/1053_fw.mp4	0.0	328.67716097831726	1.0001258850097656
67	302.58696007728577	pulse	0	t		65.0	2.5	/experiments/knapen_AOT/AOT_stimuli/rescaled_final/1053_fw.mp4	0.0	329.26074600219727	
67	303.0035009384155	movie	1		244	65.0	2.5	/experiments/knapen_AOT/AOT_stimuli/rescaled_final/1053_fw.mp4	0.0	329.677286863327	2.5004122257232666
67	304.18723607063293	pulse	1	t		65.0	2.5	/experiments/knapen_AOT/AOT_stimuli/rescaled_final/1053_fw.mp4	0.0	330.86102199554443	
67	305.5039131641388	fix_post	2		12	65.0	2.5	/experiments/knapen_AOT/AOT_stimuli/rescaled_final/1053_fw.mp4	0.0	332.1776990890503	0.09999299049377441
68	305.60390615463257	fix_pre	0		120	66.0	2.5	/experiments/knapen_AOT/AOT_stimuli/rescaled_final/1053_rv.mp4	0.0	332.27769207954407	1.0001518726348877
68	305.7874529361725	pulse	0	t		66.0	2.5	/experiments/knapen_AOT/AOT_stimuli/rescaled_final/1053_rv.mp4	0.0	332.461238861084	
68	306.60405802726746	movie	1		243	66.0	2.5	/experiments/knapen_AOT/AOT_stimuli/rescaled_final/1053_rv.mp4	0.0	333.27784395217896	2.500370979309082
68	307.3876860141754	pulse	1	t		66.0	2.5	/experiments/knapen_AOT/AOT_stimuli/rescaled_final/1053_rv.mp4	0.0	334.0614719390869	
68	308.9879140853882	pulse	1	t		66.0	2.5	/experiments/knapen_AOT/AOT_stimuli/rescaled_final/1053_rv.mp4	0.0	335.6617000102997	
68	309.10442900657654	fix_post	2		12	66.0	2.5	/experiments/knapen_AOT/AOT_stimuli/rescaled_final/1053_rv.mp4	0.0	335.77821493148804	0.09999513626098633
69	309.2044241428375	fix_pre	0		120	67.0	2.5	/experiments/knapen_AOT/AOT_stimuli/rescaled_final/1214_fw.mp4	0.0	335.878210067749	1.0001959800720215
69	310.20462012290955	movie	1		243	67.0	2.5	/experiments/knapen_AOT/AOT_stimuli/rescaled_final/1214_fw.mp4	0.0	336.87840604782104	2.4920289516448975
69	310.5893130302429	pulse	1	t		67.0	2.5	/experiments/knapen_AOT/AOT_stimuli/rescaled_final/1214_fw.mp4	0.0	337.2630989551544	
69	312.1882951259613	pulse	1	t		67.0	2.5	/experiments/knapen_AOT/AOT_stimuli/rescaled_final/1214_fw.mp4	0.0	338.8620810508728	
69	312.69664907455444	fix_post	2		12	67.0	2.5	/experiments/knapen_AOT/AOT_stimuli/rescaled_final/1214_fw.mp4	0.0	339.37043499946594	0.10000896453857422
70	312.796658039093	fix_pre	0		120	68.0	2.5	/experiments/knapen_AOT/AOT_stimuli/rescaled_final/0031_fw.mp4	0.0	339.4704439640045	1.0001440048217773
70	313.78872203826904	pulse	0	t		68.0	2.5	/experiments/knapen_AOT/AOT_stimuli/rescaled_final/0031_fw.mp4	0.0	340.46250796318054	
70	313.7968020439148	movie	1		246	68.0	2.5	/experiments/knapen_AOT/AOT_stimuli/rescaled_final/0031_fw.mp4	0.0	340.4705879688263	2.5086939334869385
70	315.38949394226074	pulse	1	t		68.0	2.5	/experiments/knapen_AOT/AOT_stimuli/rescaled_final/0031_fw.mp4	0.0	342.06327986717224	
70	316.30549597740173	fix_post	2		12	68.0	2.5	/experiments/knapen_AOT/AOT_stimuli/rescaled_final/0031_fw.mp4	0.0	342.97928190231323	0.10003399848937988
71	316.4055299758911	fix_pre	0		120	69.0	2.5	/experiments/knapen_AOT/AOT_stimuli/rescaled_final/0838_fw.mp4	0.0	343.0793159008026	1.0001380443572998
71	316.9890830516815	pulse	0	t		69.0	2.5	/experiments/knapen_AOT/AOT_stimuli/rescaled_final/0838_fw.mp4	0.0	343.662868976593	
71	317.4056680202484	movie	1		244	69.0	2.5	/experiments/knapen_AOT/AOT_stimuli/rescaled_final/0838_fw.mp4	0.0	344.0794539451599	2.5003530979156494
71	318.5894229412079	pulse	1	t		69.0	2.5	/experiments/knapen_AOT/AOT_stimuli/rescaled_final/0838_fw.mp4	0.0	345.2632088661194	
71	319.90602111816406	fix_post	2		12	69.0	2.5	/experiments/knapen_AOT/AOT_stimuli/rescaled_final/0838_fw.mp4	0.0	346.57980704307556	0.1000368595123291
72	320.0060579776764	fix_pre	0		120	70.0	2.5	blank	1.0	346.6798439025879	1.0002021789550781
72	320.18971514701843	pulse	0	t		70.0	2.5	blank	1.0	346.86350107192993	
72	321.00626015663147	movie	1		300	70.0	2.5	blank	1.0	347.68004608154297	2.5003268718719482
72	321.789822101593	pulse	1	t		70.0	2.5	blank	1.0	348.4636080265045	
72	323.38998794555664	pulse	1	t		70.0	2.5	blank	1.0	350.06377387046814	
72	323.5065870285034	fix_post	2		12	70.0	2.5	blank	1.0	350.1803729534149	0.1000070571899414
73	323.60659408569336	fix_pre	0		120	71.0	2.5	/experiments/knapen_AOT/AOT_stimuli/rescaled_final/0726_rv.mp4	0.0	350.28038001060486	1.0001330375671387
73	324.6067271232605	movie	1		245	71.0	2.5	/experiments/knapen_AOT/AOT_stimuli/rescaled_final/0726_rv.mp4	0.0	351.280513048172	2.4920220375061035
73	324.9952230453491	pulse	1	t		71.0	2.5	/experiments/knapen_AOT/AOT_stimuli/rescaled_final/0726_rv.mp4	0.0	351.6690089702606	
73	326.59062099456787	pulse	1	t		71.0	2.5	/experiments/knapen_AOT/AOT_stimuli/rescaled_final/0726_rv.mp4	0.0	353.26440691947937	
73	327.0987491607666	fix_post	2		12	71.0	2.5	/experiments/knapen_AOT/AOT_stimuli/rescaled_final/0726_rv.mp4	0.0	353.7725350856781	0.10001897811889648
74	327.1987681388855	fix_pre	0		120	72.0	2.5	/experiments/knapen_AOT/AOT_stimuli/rescaled_final/1262_rv.mp4	0.0	353.872554063797	1.000182867050171
74	328.1908280849457	pulse	0	t		72.0	2.5	/experiments/knapen_AOT/AOT_stimuli/rescaled_final/1262_rv.mp4	0.0	354.8646140098572	
74	328.19895100593567	movie	1		246	72.0	2.5	/experiments/knapen_AOT/AOT_stimuli/rescaled_final/1262_rv.mp4	0.0	354.87273693084717	2.5086679458618164
74	329.7914869785309	pulse	1	t		72.0	2.5	/experiments/knapen_AOT/AOT_stimuli/rescaled_final/1262_rv.mp4	0.0	356.4652729034424	
74	330.7076189517975	fix_post	2		12	72.0	2.5	/experiments/knapen_AOT/AOT_stimuli/rescaled_final/1262_rv.mp4	0.0	357.381404876709	0.10004401206970215
75	330.8076629638672	fix_pre	0		120	73.0	2.5	/experiments/knapen_AOT/AOT_stimuli/rescaled_final/1850_rv.mp4	0.0	357.4814488887787	1.0001020431518555
75	331.3911910057068	pulse	0	t		73.0	2.5	/experiments/knapen_AOT/AOT_stimuli/rescaled_final/1850_rv.mp4	0.0	358.0649769306183	
75	331.80776500701904	movie	1		243	73.0	2.5	/experiments/knapen_AOT/AOT_stimuli/rescaled_final/1850_rv.mp4	0.0	358.48155093193054	2.50039005279541
75	332.98769211769104	pulse	1	t		73.0	2.5	/experiments/knapen_AOT/AOT_stimuli/rescaled_final/1850_rv.mp4	0.0	359.66147804260254	
75	334.30815505981445	fix_post	2		12	73.0	2.5	/experiments/knapen_AOT/AOT_stimuli/rescaled_final/1850_rv.mp4	0.0	360.98194098472595	0.1000208854675293
76	334.408175945282	fix_pre	0		120	74.0	2.5	/experiments/knapen_AOT/AOT_stimuli/rescaled_final/1402_rv.mp4	0.0	361.0819618701935	1.0001389980316162
76	334.59179615974426	pulse	0	t		74.0	2.5	/experiments/knapen_AOT/AOT_stimuli/rescaled_final/1402_rv.mp4	0.0	361.26558208465576	
76	335.4083149433136	movie	1		244	74.0	2.5	/experiments/knapen_AOT/AOT_stimuli/rescaled_final/1402_rv.mp4	0.0	362.0821008682251	2.5004630088806152
76	336.1919779777527	pulse	1	t		74.0	2.5	/experiments/knapen_AOT/AOT_stimuli/rescaled_final/1402_rv.mp4	0.0	362.8657639026642	
76	337.7922580242157	pulse	1	t		74.0	2.5	/experiments/knapen_AOT/AOT_stimuli/rescaled_final/1402_rv.mp4	0.0	364.4660439491272	
76	337.9087779521942	fix_post	2		12	74.0	2.5	/experiments/knapen_AOT/AOT_stimuli/rescaled_final/1402_rv.mp4	0.0	364.5825638771057	0.09995698928833008
77	338.00873494148254	fix_pre	0		120	75.0	2.5	/experiments/knapen_AOT/AOT_stimuli/rescaled_final/0833_rv.mp4	0.0	364.68252086639404	1.000148057937622
77	339.00888299942017	movie	1		243	75.0	2.5	/experiments/knapen_AOT/AOT_stimuli/rescaled_final/0833_rv.mp4	0.0	365.68266892433167	2.4920270442962646
77	339.39351511001587	pulse	1	t		75.0	2.5	/experiments/knapen_AOT/AOT_stimuli/rescaled_final/0833_rv.mp4	0.0	366.06730103492737	
77	340.99278116226196	pulse	1	t		75.0	2.5	/experiments/knapen_AOT/AOT_stimuli/rescaled_final/0833_rv.mp4	0.0	367.66656708717346	
77	341.50091004371643	fix_post	2		12	75.0	2.5	/experiments/knapen_AOT/AOT_stimuli/rescaled_final/0833_rv.mp4	0.0	368.17469596862793	0.10005307197570801
78	341.60096311569214	fix_pre	0		120	76.0	2.5	blank	1.0	368.27474904060364	1.0000889301300049
78	342.59299516677856	pulse	0	t		76.0	2.5	blank	1.0	369.26678109169006	
78	342.60105204582214	movie	1		301	76.0	2.5	blank	1.0	369.27483797073364	2.508747100830078
78	344.1931531429291	pulse	1	t		76.0	2.5	blank	1.0	370.8669390678406	
78	345.1097991466522	fix_post	2		12	76.0	2.5	blank	1.0	371.7835850715637	0.10002994537353516
79	345.20982909202576	fix_pre	0		120	77.0	2.5	/experiments/knapen_AOT/AOT_stimuli/rescaled_final/1869_rv.mp4	0.0	371.88361501693726	1.0001530647277832
79	345.7933120727539	pulse	0	t		77.0	2.5	/experiments/knapen_AOT/AOT_stimuli/rescaled_final/1869_rv.mp4	0.0	372.4670979976654	
79	346.20998215675354	movie	1		244	77.0	2.5	/experiments/knapen_AOT/AOT_stimuli/rescaled_final/1869_rv.mp4	0.0	372.88376808166504	2.5003299713134766
79	347.3863489627838	pulse	1	t		77.0	2.5	/experiments/knapen_AOT/AOT_stimuli/rescaled_final/1869_rv.mp4	0.0	374.0601348876953	
79	348.710312128067	fix_post	2		12	77.0	2.5	/experiments/knapen_AOT/AOT_stimuli/rescaled_final/1869_rv.mp4	0.0	375.3840980529785	0.1000208854675293
80	348.81033301353455	fix_pre	0		120	78.0	2.5	/experiments/knapen_AOT/AOT_stimuli/rescaled_final/1496_fw.mp4	0.0	375.48411893844604	1.0001540184020996
80	348.9863631725311	pulse	0	t		78.0	2.5	/experiments/knapen_AOT/AOT_stimuli/rescaled_final/1496_fw.mp4	0.0	375.6601490974426	
80	349.81048703193665	movie	1		246	78.0	2.5	/experiments/knapen_AOT/AOT_stimuli/rescaled_final/1496_fw.mp4	0.0	376.48427295684814	2.5003809928894043
80	350.58673310279846	pulse	1	t		78.0	2.5	/experiments/knapen_AOT/AOT_stimuli/rescaled_final/1496_fw.mp4	0.0	377.26051902770996	
80	352.18702602386475	pulse	1	t		78.0	2.5	/experiments/knapen_AOT/AOT_stimuli/rescaled_final/1496_fw.mp4	0.0	378.86081194877625	
80	352.31086802482605	fix_post	2		12	78.0	2.5	/experiments/knapen_AOT/AOT_stimuli/rescaled_final/1496_fw.mp4	0.0	378.98465394973755	0.10004496574401855
81	352.41091299057007	fix_pre	0		120	79.0	2.5	/experiments/knapen_AOT/AOT_stimuli/rescaled_final/0400_rv.mp4	0.0	379.08469891548157	1.0001311302185059
81	353.4110441207886	movie	1		244	79.0	2.5	/experiments/knapen_AOT/AOT_stimuli/rescaled_final/0400_rv.mp4	0.0	380.0848300457001	2.4920380115509033
81	353.7956290245056	pulse	1	t		79.0	2.5	/experiments/knapen_AOT/AOT_stimuli/rescaled_final/0400_rv.mp4	0.0	380.4694149494171	
81	355.3864960670471	pulse	1	t		79.0	2.5	/experiments/knapen_AOT/AOT_stimuli/rescaled_final/0400_rv.mp4	0.0	382.0602819919586	
81	355.9030821323395	fix_post	2		7	79.0	2.5	/experiments/knapen_AOT/AOT_stimuli/rescaled_final/0400_rv.mp4	0.0	382.576868057251	0.0999908447265625
82	356.00307297706604	fix_pre	0		119	80.0	2.5	/experiments/knapen_AOT/AOT_stimuli/rescaled_final/1227_rv.mp4	0.0	382.67685890197754	0.9918839931488037
82	356.98668813705444	pulse	0	t		80.0	2.5	/experiments/knapen_AOT/AOT_stimuli/rescaled_final/1227_rv.mp4	0.0	383.66047406196594	
82	356.99495697021484	movie	1		246	80.0	2.5	/experiments/knapen_AOT/AOT_stimuli/rescaled_final/1227_rv.mp4	0.0	383.66874289512634	2.5086631774902344
82	358.5874810218811	pulse	1	t		80.0	2.5	/experiments/knapen_AOT/AOT_stimuli/rescaled_final/1227_rv.mp4	0.0	385.2612669467926	
82	359.5036201477051	fix_post	2		12	80.0	2.5	/experiments/knapen_AOT/AOT_stimuli/rescaled_final/1227_rv.mp4	0.0	386.1774060726166	0.09996390342712402
83	359.6035840511322	fix_pre	0		120	81.0	2.5	/experiments/knapen_AOT/AOT_stimuli/rescaled_final/1964_fw.mp4	0.0	386.2773699760437	1.0001881122589111
83	360.18718910217285	pulse	0	t		81.0	2.5	/experiments/knapen_AOT/AOT_stimuli/rescaled_final/1964_fw.mp4	0.0	386.86097502708435	
83	360.6037721633911	movie	1		245	81.0	2.5	/experiments/knapen_AOT/AOT_stimuli/rescaled_final/1964_fw.mp4	0.0	387.2775580883026	2.5003578662872314
83	361.787456035614	pulse	1	t		81.0	2.5	/experiments/knapen_AOT/AOT_stimuli/rescaled_final/1964_fw.mp4	0.0	388.4612419605255	
83	363.10413002967834	fix_post	2		12	81.0	2.5	/experiments/knapen_AOT/AOT_stimuli/rescaled_final/1964_fw.mp4	0.0	389.77791595458984	0.09999394416809082
84	363.20412397384644	fix_pre	0		120	82.0	2.5	/experiments/knapen_AOT/AOT_stimuli/rescaled_final/0182_rv.mp4	0.0	389.87790989875793	1.0001661777496338
84	363.387638092041	pulse	0	t		82.0	2.5	/experiments/knapen_AOT/AOT_stimuli/rescaled_final/0182_rv.mp4	0.0	390.0614240169525	
84	364.20429015159607	movie	1		246	82.0	2.5	/experiments/knapen_AOT/AOT_stimuli/rescaled_final/0182_rv.mp4	0.0	390.87807607650757	2.500379800796509
84	364.98793506622314	pulse	1	t		82.0	2.5	/experiments/knapen_AOT/AOT_stimuli/rescaled_final/0182_rv.mp4	0.0	391.66172099113464	
84	366.58817315101624	pulse	1	t		82.0	2.5	/experiments/knapen_AOT/AOT_stimuli/rescaled_final/0182_rv.mp4	0.0	393.26195907592773	
84	366.7046699523926	fix_post	2		12	82.0	2.5	/experiments/knapen_AOT/AOT_stimuli/rescaled_final/0182_rv.mp4	0.0	393.3784558773041	0.10004615783691406
85	366.8047161102295	fix_pre	0		120	83.0	2.5	blank	1.0	393.478502035141	1.0000970363616943
85	367.8048131465912	movie	1		299	83.0	2.5	blank	1.0	394.4785990715027	2.4920599460601807
85	368.1883590221405	pulse	1	t		83.0	2.5	blank	1.0	394.862144947052	
85	369.78861904144287	pulse	1	t		83.0	2.5	blank	1.0	396.46240496635437	
85	370.29687309265137	fix_post	2		12	83.0	2.5	blank	1.0	396.97065901756287	0.10004806518554688
87	370.3969211578369	stim	0		1716					397.0707070827484	14.302223920822144
87	371.3889670372009	pulse	0	t						398.0627529621124	
87	372.9891321659088	pulse	0	t						399.6629180908203	
87	374.5892641544342	pulse	0	t						401.2630500793457	
87	376.18954515457153	pulse	0	t						402.86333107948303	
87	377.7898380756378	pulse	0	t						404.4636240005493	
87	379.39011001586914	pulse	0	t						406.06389594078064	
87	380.9902219772339	pulse	0	t						407.6640079021454	
87	382.5904350280762	pulse	0	t						409.26422095298767	
87	384.19089913368225	pulse	0	t						410.86468505859375	
