trial_nr	onset	event_type	phase	response	nr_frames	movie_index	movie_duration	movie_file	blank	onset_abs	duration
0	0.19152188301086426	stim	0		10					74.31583881378174	0.08330917358398438
0	0.2668888568878174	response	0	space						74.39120578765869	
1	0.27483105659484863	stim	0		4409					74.39914798736572	36.758662939071655
1	37.023828983306885	pulse	0	t						111.14814591407776	
1	37.033493995666504	stim	1		1716					111.15781092643738	14.307236909866333
1	38.61408185958862	pulse	1	t						112.7383987903595	
1	40.214256048202515	pulse	1	t						114.33857297897339	
1	41.81447505950928	pulse	1	t						115.93879199028015	
1	43.41474199295044	pulse	1	t						117.53905892372131	
1	45.0149359703064	pulse	1	t						119.13925290107727	
1	46.6151909828186	pulse	1	t						120.73950791358948	
1	48.215380907058716	pulse	1	t						122.33969783782959	
1	49.81562399864197	pulse	1	t						123.93994092941284	
2	51.34073090553284	fix_pre	0		10	0.0	2.5	/experiments/knapen_AOT/AOT_stimuli/rescaled_final/1119_fw.mp4	0.0	125.46504783630371	0.08335304260253906
2	51.41600799560547	pulse	0	t		0.0	2.5	/experiments/knapen_AOT/AOT_stimuli/rescaled_final/1119_fw.mp4	0.0	125.54032492637634	
2	51.424083948135376	movie	1		244	0.0	2.5	/experiments/knapen_AOT/AOT_stimuli/rescaled_final/1119_fw.mp4	0.0	125.54840087890625	2.508686065673828
2	53.017531871795654	pulse	1	t		0.0	2.5	/experiments/knapen_AOT/AOT_stimuli/rescaled_final/1119_fw.mp4	0.0	127.14184880256653	
2	53.932770013809204	fix_post	2		12	0.0	2.5	/experiments/knapen_AOT/AOT_stimuli/rescaled_final/1119_fw.mp4	0.0	128.05708694458008	0.10005784034729004
3	54.032827854156494	fix_pre	0		120	1.0	2.5	/experiments/knapen_AOT/AOT_stimuli/rescaled_final/0244_rv.mp4	0.0	128.15714478492737	1.0001490116119385
3	54.61651086807251	pulse	0	t		1.0	2.5	/experiments/knapen_AOT/AOT_stimuli/rescaled_final/0244_rv.mp4	0.0	128.74082779884338	
3	55.03297686576843	movie	1		244	1.0	2.5	/experiments/knapen_AOT/AOT_stimuli/rescaled_final/0244_rv.mp4	0.0	129.1572937965393	2.5003390312194824
3	56.21686387062073	pulse	1	t		1.0	2.5	/experiments/knapen_AOT/AOT_stimuli/rescaled_final/0244_rv.mp4	0.0	130.3411808013916	
3	57.533315896987915	fix_post	2		12	1.0	2.5	/experiments/knapen_AOT/AOT_stimuli/rescaled_final/0244_rv.mp4	0.0	131.6576328277588	0.10009407997131348
4	57.63340997695923	fix_pre	0		120	2.0	2.5	/experiments/knapen_AOT/AOT_stimuli/rescaled_final/1489_fw.mp4	0.0	131.7577269077301	1.0001139640808105
4	57.81700396537781	pulse	0	t		2.0	2.5	/experiments/knapen_AOT/AOT_stimuli/rescaled_final/1489_fw.mp4	0.0	131.94132089614868	
4	58.63352394104004	movie	1		243	2.0	2.5	/experiments/knapen_AOT/AOT_stimuli/rescaled_final/1489_fw.mp4	0.0	132.7578408718109	2.50032901763916
4	59.417189836502075	pulse	1	t		2.0	2.5	/experiments/knapen_AOT/AOT_stimuli/rescaled_final/1489_fw.mp4	0.0	133.54150676727295	
4	61.017340898513794	pulse	1	t		2.0	2.5	/experiments/knapen_AOT/AOT_stimuli/rescaled_final/1489_fw.mp4	0.0	135.14165782928467	
4	61.1338529586792	fix_post	2		12	2.0	2.5	/experiments/knapen_AOT/AOT_stimuli/rescaled_final/1489_fw.mp4	0.0	135.25816988945007	0.10008692741394043
5	61.23393988609314	fix_pre	0		120	3.0	2.5	/experiments/knapen_AOT/AOT_stimuli/rescaled_final/1162_rv.mp4	0.0	135.358256816864	1.000075101852417
5	62.23401498794556	movie	1		243	3.0	2.5	/experiments/knapen_AOT/AOT_stimuli/rescaled_final/1162_rv.mp4	0.0	136.35833191871643	2.4920449256896973
5	62.618725061416626	pulse	1	t		3.0	2.5	/experiments/knapen_AOT/AOT_stimuli/rescaled_final/1162_rv.mp4	0.0	136.7430419921875	
5	64.21791887283325	pulse	1	t		3.0	2.5	/experiments/knapen_AOT/AOT_stimuli/rescaled_final/1162_rv.mp4	0.0	138.34223580360413	
5	64.72605991363525	fix_post	2		12	3.0	2.5	/experiments/knapen_AOT/AOT_stimuli/rescaled_final/1162_rv.mp4	0.0	138.85037684440613	0.10001802444458008
6	64.82607793807983	fix_pre	0		120	4.0	2.5	/experiments/knapen_AOT/AOT_stimuli/rescaled_final/0359_fw.mp4	0.0	138.9503948688507	1.0001790523529053
6	65.8181459903717	pulse	0	t		4.0	2.5	/experiments/knapen_AOT/AOT_stimuli/rescaled_final/0359_fw.mp4	0.0	139.94246292114258	
6	65.82625699043274	movie	1		245	4.0	2.5	/experiments/knapen_AOT/AOT_stimuli/rescaled_final/0359_fw.mp4	0.0	139.9505739212036	2.508661985397339
6	67.41951489448547	pulse	1	t		4.0	2.5	/experiments/knapen_AOT/AOT_stimuli/rescaled_final/0359_fw.mp4	0.0	141.54383182525635	
6	68.33491897583008	fix_post	2		12	4.0	2.5	/experiments/knapen_AOT/AOT_stimuli/rescaled_final/0359_fw.mp4	0.0	142.45923590660095	0.10009288787841797
7	68.4350118637085	fix_pre	0		120	5.0	2.5	/experiments/knapen_AOT/AOT_stimuli/rescaled_final/0946_fw.mp4	0.0	142.55932879447937	1.000089168548584
7	69.01858401298523	pulse	0	t		5.0	2.5	/experiments/knapen_AOT/AOT_stimuli/rescaled_final/0946_fw.mp4	0.0	143.1429009437561	
7	69.43510103225708	movie	1		244	5.0	2.5	/experiments/knapen_AOT/AOT_stimuli/rescaled_final/0946_fw.mp4	0.0	143.55941796302795	2.500396966934204
7	70.61888003349304	pulse	1	t		5.0	2.5	/experiments/knapen_AOT/AOT_stimuli/rescaled_final/0946_fw.mp4	0.0	144.74319696426392	
7	71.93549799919128	fix_post	2		12	5.0	2.5	/experiments/knapen_AOT/AOT_stimuli/rescaled_final/0946_fw.mp4	0.0	146.05981492996216	0.1000218391418457
8	72.03551983833313	fix_pre	0		120	6.0	2.5	/experiments/knapen_AOT/AOT_stimuli/rescaled_final/1021_fw.mp4	0.0	146.159836769104	1.000133991241455
8	72.21916103363037	pulse	0	t		6.0	2.5	/experiments/knapen_AOT/AOT_stimuli/rescaled_final/1021_fw.mp4	0.0	146.34347796440125	
8	73.03565382957458	movie	1		244	6.0	2.5	/experiments/knapen_AOT/AOT_stimuli/rescaled_final/1021_fw.mp4	0.0	147.15997076034546	2.5003440380096436
8	73.8192789554596	pulse	1	t		6.0	2.5	/experiments/knapen_AOT/AOT_stimuli/rescaled_final/1021_fw.mp4	0.0	147.94359588623047	
8	75.4195818901062	pulse	1	t		6.0	2.5	/experiments/knapen_AOT/AOT_stimuli/rescaled_final/1021_fw.mp4	0.0	149.54389882087708	
8	75.53599786758423	fix_post	2		12	6.0	2.5	/experiments/knapen_AOT/AOT_stimuli/rescaled_final/1021_fw.mp4	0.0	149.6603147983551	0.10004210472106934
9	75.6360399723053	fix_pre	0		119	7.0	2.5	blank	1.0	149.76035690307617	0.9917869567871094
9	76.62782692909241	movie	1		300	7.0	2.5	blank	1.0	150.75214385986328	2.5003840923309326
9	77.01983094215393	pulse	1	t		7.0	2.5	blank	1.0	151.1441478729248	
9	78.62014985084534	pulse	1	t		7.0	2.5	blank	1.0	152.7444667816162	
9	79.12821102142334	fix_post	2		12	7.0	2.5	blank	1.0	153.2525279521942	0.09998202323913574
10	79.22819304466248	fix_pre	0		120	8.0	2.5	/experiments/knapen_AOT/AOT_stimuli/rescaled_final/2042_fw.mp4	0.0	153.35250997543335	1.000173807144165
10	80.2202639579773	pulse	0	t		8.0	2.5	/experiments/knapen_AOT/AOT_stimuli/rescaled_final/2042_fw.mp4	0.0	154.34458088874817	
10	80.22836685180664	movie	1		247	8.0	2.5	/experiments/knapen_AOT/AOT_stimuli/rescaled_final/2042_fw.mp4	0.0	154.35268378257751	2.508695125579834
10	81.82101082801819	pulse	1	t		8.0	2.5	/experiments/knapen_AOT/AOT_stimuli/rescaled_final/2042_fw.mp4	0.0	155.94532775878906	
10	82.73706197738647	fix_post	2		12	8.0	2.5	/experiments/knapen_AOT/AOT_stimuli/rescaled_final/2042_fw.mp4	0.0	156.86137890815735	0.10007500648498535
11	82.83713698387146	fix_pre	0		120	9.0	2.5	/experiments/knapen_AOT/AOT_stimuli/rescaled_final/0114_rv.mp4	0.0	156.96145391464233	1.0001220703125
11	83.42081904411316	pulse	0	t		9.0	2.5	/experiments/knapen_AOT/AOT_stimuli/rescaled_final/0114_rv.mp4	0.0	157.54513597488403	
11	83.83725905418396	movie	1		244	9.0	2.5	/experiments/knapen_AOT/AOT_stimuli/rescaled_final/0114_rv.mp4	0.0	157.96157598495483	2.5003550052642822
11	85.02113890647888	pulse	1	t		9.0	2.5	/experiments/knapen_AOT/AOT_stimuli/rescaled_final/0114_rv.mp4	0.0	159.14545583724976	
11	86.33761405944824	fix_post	2		9	9.0	2.5	/experiments/knapen_AOT/AOT_stimuli/rescaled_final/0114_rv.mp4	0.0	160.46193099021912	0.10007190704345703
12	86.4376859664917	fix_pre	0		120	10.0	2.5	/experiments/knapen_AOT/AOT_stimuli/rescaled_final/0018_rv.mp4	0.0	160.56200289726257	1.0001108646392822
12	86.61377787590027	pulse	0	t		10.0	2.5	/experiments/knapen_AOT/AOT_stimuli/rescaled_final/0018_rv.mp4	0.0	160.73809480667114	
12	87.43779683113098	movie	1		244	10.0	2.5	/experiments/knapen_AOT/AOT_stimuli/rescaled_final/0018_rv.mp4	0.0	161.56211376190186	2.500338077545166
12	88.21408891677856	pulse	1	t		10.0	2.5	/experiments/knapen_AOT/AOT_stimuli/rescaled_final/0018_rv.mp4	0.0	162.33840584754944	
12	89.82160782814026	pulse	1	t		10.0	2.5	/experiments/knapen_AOT/AOT_stimuli/rescaled_final/0018_rv.mp4	0.0	163.94592475891113	
12	89.93813490867615	fix_post	2		12	10.0	2.5	/experiments/knapen_AOT/AOT_stimuli/rescaled_final/0018_rv.mp4	0.0	164.06245183944702	0.10002613067626953
13	90.03816103935242	fix_pre	0		120	11.0	2.5	/experiments/knapen_AOT/AOT_stimuli/rescaled_final/1374_rv.mp4	0.0	164.1624779701233	1.0001468658447266
13	91.03830790519714	movie	1		242	11.0	2.5	/experiments/knapen_AOT/AOT_stimuli/rescaled_final/1374_rv.mp4	0.0	165.16262483596802	2.492072105407715
13	91.42234396934509	pulse	1	t		11.0	2.5	/experiments/knapen_AOT/AOT_stimuli/rescaled_final/1374_rv.mp4	0.0	165.54666090011597	
13	93.01474690437317	pulse	1	t		11.0	2.5	/experiments/knapen_AOT/AOT_stimuli/rescaled_final/1374_rv.mp4	0.0	167.13906383514404	
13	93.53038001060486	fix_post	2		12	11.0	2.5	/experiments/knapen_AOT/AOT_stimuli/rescaled_final/1374_rv.mp4	0.0	167.65469694137573	0.09999704360961914
14	93.63037705421448	fix_pre	0		119	12.0	2.5	/experiments/knapen_AOT/AOT_stimuli/rescaled_final/1096_fw.mp4	0.0	167.75469398498535	0.9918169975280762
14	94.61402702331543	pulse	0	t		12.0	2.5	/experiments/knapen_AOT/AOT_stimuli/rescaled_final/1096_fw.mp4	0.0	168.7383439540863	
14	94.62219405174255	movie	1		245	12.0	2.5	/experiments/knapen_AOT/AOT_stimuli/rescaled_final/1096_fw.mp4	0.0	168.74651098251343	2.508657932281494
14	96.2154848575592	pulse	1	t		12.0	2.5	/experiments/knapen_AOT/AOT_stimuli/rescaled_final/1096_fw.mp4	0.0	170.33980178833008	
14	97.13085198402405	fix_post	2		12	12.0	2.5	/experiments/knapen_AOT/AOT_stimuli/rescaled_final/1096_fw.mp4	0.0	171.25516891479492	0.10004091262817383
15	97.23089289665222	fix_pre	0		120	13.0	2.5	/experiments/knapen_AOT/AOT_stimuli/rescaled_final/1119_rv.mp4	0.0	171.3552098274231	1.0002031326293945
15	97.81456899642944	pulse	0	t		13.0	2.5	/experiments/knapen_AOT/AOT_stimuli/rescaled_final/1119_rv.mp4	0.0	171.93888592720032	
15	98.23109602928162	movie	1		244	13.0	2.5	/experiments/knapen_AOT/AOT_stimuli/rescaled_final/1119_rv.mp4	0.0	172.3554129600525	2.500337839126587
15	99.41489100456238	pulse	1	t		13.0	2.5	/experiments/knapen_AOT/AOT_stimuli/rescaled_final/1119_rv.mp4	0.0	173.53920793533325	
15	100.7314338684082	fix_post	2		12	13.0	2.5	/experiments/knapen_AOT/AOT_stimuli/rescaled_final/1119_rv.mp4	0.0	174.85575079917908	0.10000801086425781
16	100.83144187927246	fix_pre	0		120	14.0	2.5	blank	1.0	174.95575881004333	1.00018310546875
16	101.01518487930298	pulse	0	t		14.0	2.5	blank	1.0	175.13950181007385	
16	101.83162498474121	movie	1		300	14.0	2.5	blank	1.0	175.95594191551208	2.5003490447998047
16	102.61530590057373	pulse	1	t		14.0	2.5	blank	1.0	176.7396228313446	
16	104.21554899215698	pulse	1	t		14.0	2.5	blank	1.0	178.33986592292786	
16	104.33197402954102	fix_post	2		12	14.0	2.5	blank	1.0	178.4562909603119	0.10001587867736816
17	104.43198990821838	fix_pre	0		119	15.0	2.5	/experiments/knapen_AOT/AOT_stimuli/rescaled_final/0937_rv.mp4	0.0	178.55630683898926	0.9917869567871094
17	105.4237768650055	movie	1		243	15.0	2.5	/experiments/knapen_AOT/AOT_stimuli/rescaled_final/0937_rv.mp4	0.0	179.54809379577637	2.5003740787506104
17	105.81581783294678	pulse	1	t		15.0	2.5	/experiments/knapen_AOT/AOT_stimuli/rescaled_final/0937_rv.mp4	0.0	179.94013476371765	
17	107.41595101356506	pulse	1	t		15.0	2.5	/experiments/knapen_AOT/AOT_stimuli/rescaled_final/0937_rv.mp4	0.0	181.54026794433594	
17	107.9241509437561	fix_post	2		12	15.0	2.5	/experiments/knapen_AOT/AOT_stimuli/rescaled_final/0937_rv.mp4	0.0	182.04846787452698	0.10001993179321289
18	108.02417087554932	fix_pre	0		120	16.0	2.5	/experiments/knapen_AOT/AOT_stimuli/rescaled_final/1577_fw.mp4	0.0	182.1484878063202	1.0001721382141113
18	109.01625990867615	pulse	0	t		16.0	2.5	/experiments/knapen_AOT/AOT_stimuli/rescaled_final/1577_fw.mp4	0.0	183.14057683944702	
18	109.02434301376343	movie	1		244	16.0	2.5	/experiments/knapen_AOT/AOT_stimuli/rescaled_final/1577_fw.mp4	0.0	183.1486599445343	2.5087080001831055
18	110.61732292175293	pulse	1	t		16.0	2.5	/experiments/knapen_AOT/AOT_stimuli/rescaled_final/1577_fw.mp4	0.0	184.7416398525238	
18	111.53305101394653	fix_post	2		12	16.0	2.5	/experiments/knapen_AOT/AOT_stimuli/rescaled_final/1577_fw.mp4	0.0	185.6573679447174	0.10001397132873535
19	111.63306498527527	fix_pre	0		120	17.0	2.5	/experiments/knapen_AOT/AOT_stimuli/rescaled_final/0574_rv.mp4	0.0	185.75738191604614	1.0001440048217773
19	112.21677994728088	pulse	0	t		17.0	2.5	/experiments/knapen_AOT/AOT_stimuli/rescaled_final/0574_rv.mp4	0.0	186.34109687805176	
19	112.63320899009705	movie	1		246	17.0	2.5	/experiments/knapen_AOT/AOT_stimuli/rescaled_final/0574_rv.mp4	0.0	186.75752592086792	2.500458002090454
19	113.81698989868164	pulse	1	t		17.0	2.5	/experiments/knapen_AOT/AOT_stimuli/rescaled_final/0574_rv.mp4	0.0	187.94130682945251	
19	115.1336669921875	fix_post	2		12	17.0	2.5	/experiments/knapen_AOT/AOT_stimuli/rescaled_final/0574_rv.mp4	0.0	189.25798392295837	0.09991598129272461
20	115.23358297348022	fix_pre	0		120	18.0	2.5	/experiments/knapen_AOT/AOT_stimuli/rescaled_final/1536_rv.mp4	0.0	189.3578999042511	1.000195026397705
20	115.41719794273376	pulse	0	t		18.0	2.5	/experiments/knapen_AOT/AOT_stimuli/rescaled_final/1536_rv.mp4	0.0	189.54151487350464	
20	116.23377799987793	movie	1		244	18.0	2.5	/experiments/knapen_AOT/AOT_stimuli/rescaled_final/1536_rv.mp4	0.0	190.3580949306488	2.5003018379211426
20	117.0173590183258	pulse	1	t		18.0	2.5	/experiments/knapen_AOT/AOT_stimuli/rescaled_final/1536_rv.mp4	0.0	191.14167594909668	
20	118.6177990436554	pulse	1	t		18.0	2.5	/experiments/knapen_AOT/AOT_stimuli/rescaled_final/1536_rv.mp4	0.0	192.74211597442627	
20	118.73407983779907	fix_post	2		12	18.0	2.5	/experiments/knapen_AOT/AOT_stimuli/rescaled_final/1536_rv.mp4	0.0	192.85839676856995	0.10006022453308105
21	118.83414006233215	fix_pre	0		120	19.0	2.5	blank	1.0	192.95845699310303	1.000166893005371
21	119.83430695533752	movie	1		299	19.0	2.5	blank	1.0	193.9586238861084	2.492032051086426
21	120.21788096427917	pulse	1	t		19.0	2.5	blank	1.0	194.34219789505005	
21	121.81808590888977	pulse	1	t		19.0	2.5	blank	1.0	195.94240283966064	
21	122.32633900642395	fix_post	2		12	19.0	2.5	blank	1.0	196.45065593719482	0.10003900527954102
22	122.42637801170349	fix_pre	0		120	20.0	2.5	/experiments/knapen_AOT/AOT_stimuli/rescaled_final/1282_fw.mp4	0.0	196.55069494247437	1.0001130104064941
22	123.41829991340637	pulse	0	t		20.0	2.5	/experiments/knapen_AOT/AOT_stimuli/rescaled_final/1282_fw.mp4	0.0	197.54261684417725	
22	123.42649102210999	movie	1		245	20.0	2.5	/experiments/knapen_AOT/AOT_stimuli/rescaled_final/1282_fw.mp4	0.0	197.55080795288086	2.5086748600006104
22	125.01934385299683	pulse	1	t		20.0	2.5	/experiments/knapen_AOT/AOT_stimuli/rescaled_final/1282_fw.mp4	0.0	199.1436607837677	
22	125.9351658821106	fix_post	2		12	20.0	2.5	/experiments/knapen_AOT/AOT_stimuli/rescaled_final/1282_fw.mp4	0.0	200.05948281288147	0.10001707077026367
23	126.03518295288086	fix_pre	0		120	21.0	2.5	/experiments/knapen_AOT/AOT_stimuli/rescaled_final/0283_rv.mp4	0.0	200.15949988365173	1.000154972076416
23	126.6188759803772	pulse	0	t		21.0	2.5	/experiments/knapen_AOT/AOT_stimuli/rescaled_final/0283_rv.mp4	0.0	200.74319291114807	
23	127.03533792495728	movie	1		244	21.0	2.5	/experiments/knapen_AOT/AOT_stimuli/rescaled_final/0283_rv.mp4	0.0	201.15965485572815	2.5003859996795654
23	128.21910500526428	pulse	1	t		21.0	2.5	/experiments/knapen_AOT/AOT_stimuli/rescaled_final/0283_rv.mp4	0.0	202.34342193603516	
23	129.53572392463684	fix_post	2		12	21.0	2.5	/experiments/knapen_AOT/AOT_stimuli/rescaled_final/0283_rv.mp4	0.0	203.66004085540771	0.10001897811889648
24	129.63574290275574	fix_pre	0		120	22.0	2.5	/experiments/knapen_AOT/AOT_stimuli/rescaled_final/1131_fw.mp4	0.0	203.7600598335266	1.0001649856567383
24	129.81933689117432	pulse	0	t		22.0	2.5	/experiments/knapen_AOT/AOT_stimuli/rescaled_final/1131_fw.mp4	0.0	203.9436538219452	
24	130.63590788841248	movie	1		244	22.0	2.5	/experiments/knapen_AOT/AOT_stimuli/rescaled_final/1131_fw.mp4	0.0	204.76022481918335	2.5003490447998047
24	131.41966700553894	pulse	1	t		22.0	2.5	/experiments/knapen_AOT/AOT_stimuli/rescaled_final/1131_fw.mp4	0.0	205.54398393630981	
24	133.01969385147095	pulse	1	t		22.0	2.5	/experiments/knapen_AOT/AOT_stimuli/rescaled_final/1131_fw.mp4	0.0	207.14401078224182	
24	133.13625693321228	fix_post	2		12	22.0	2.5	/experiments/knapen_AOT/AOT_stimuli/rescaled_final/1131_fw.mp4	0.0	207.26057386398315	0.10001611709594727
25	133.23627305030823	fix_pre	0		119	23.0	2.5	/experiments/knapen_AOT/AOT_stimuli/rescaled_final/2091_rv.mp4	0.0	207.3605899810791	0.9918358325958252
25	134.22810888290405	movie	1		244	23.0	2.5	/experiments/knapen_AOT/AOT_stimuli/rescaled_final/2091_rv.mp4	0.0	208.35242581367493	2.5003199577331543
25	134.62013292312622	pulse	1	t		23.0	2.5	/experiments/knapen_AOT/AOT_stimuli/rescaled_final/2091_rv.mp4	0.0	208.7444498538971	
25	136.22022795677185	pulse	1	t		23.0	2.5	/experiments/knapen_AOT/AOT_stimuli/rescaled_final/2091_rv.mp4	0.0	210.34454488754272	
25	136.7284288406372	fix_post	2		12	23.0	2.5	/experiments/knapen_AOT/AOT_stimuli/rescaled_final/2091_rv.mp4	0.0	210.85274577140808	0.10007119178771973
26	136.82850003242493	fix_pre	0		120	24.0	2.5	/experiments/knapen_AOT/AOT_stimuli/rescaled_final/0147_rv.mp4	0.0	210.9528169631958	1.000126838684082
26	137.8205029964447	pulse	0	t		24.0	2.5	/experiments/knapen_AOT/AOT_stimuli/rescaled_final/0147_rv.mp4	0.0	211.94481992721558	
26	137.828626871109	movie	1		244	24.0	2.5	/experiments/knapen_AOT/AOT_stimuli/rescaled_final/0147_rv.mp4	0.0	211.95294380187988	2.5086870193481445
26	139.42113494873047	pulse	1	t		24.0	2.5	/experiments/knapen_AOT/AOT_stimuli/rescaled_final/0147_rv.mp4	0.0	213.54545187950134	
26	140.33731389045715	fix_post	2		12	24.0	2.5	/experiments/knapen_AOT/AOT_stimuli/rescaled_final/0147_rv.mp4	0.0	214.46163082122803	0.09997296333312988
27	140.43728685379028	fix_pre	0		120	25.0	2.5	/experiments/knapen_AOT/AOT_stimuli/rescaled_final/0728_rv.mp4	0.0	214.56160378456116	1.0002131462097168
27	141.01358699798584	pulse	0	t		25.0	2.5	/experiments/knapen_AOT/AOT_stimuli/rescaled_final/0728_rv.mp4	0.0	215.1379039287567	
27	141.4375	movie	1		244	25.0	2.5	/experiments/knapen_AOT/AOT_stimuli/rescaled_final/0728_rv.mp4	0.0	215.56181693077087	2.500351905822754
27	142.62124300003052	pulse	1	t		25.0	2.5	/experiments/knapen_AOT/AOT_stimuli/rescaled_final/0728_rv.mp4	0.0	216.7455599308014	
27	143.93785190582275	fix_post	2		12	25.0	2.5	/experiments/knapen_AOT/AOT_stimuli/rescaled_final/0728_rv.mp4	0.0	218.06216883659363	0.10002803802490234
28	144.03787994384766	fix_pre	0		120	26.0	2.5	blank	1.0	218.16219687461853	1.00016188621521
28	144.21393299102783	pulse	0	t		26.0	2.5	blank	1.0	218.3382499217987	
28	145.03804183006287	movie	1		300	26.0	2.5	blank	1.0	219.16235876083374	2.5003621578216553
28	145.81411600112915	pulse	1	t		26.0	2.5	blank	1.0	219.93843293190002	
28	147.4136290550232	pulse	1	t		26.0	2.5	blank	1.0	221.53794598579407	
28	147.53840398788452	fix_post	2		9	26.0	2.5	blank	1.0	221.6627209186554	0.10003185272216797
29	147.6384358406067	fix_pre	0		119	27.0	2.5	/experiments/knapen_AOT/AOT_stimuli/rescaled_final/1503_rv.mp4	0.0	221.76275277137756	0.9917991161346436
29	148.63023495674133	movie	1		244	27.0	2.5	/experiments/knapen_AOT/AOT_stimuli/rescaled_final/1503_rv.mp4	0.0	222.7545518875122	2.5003929138183594
29	149.01514983177185	pulse	1	t		27.0	2.5	/experiments/knapen_AOT/AOT_stimuli/rescaled_final/1503_rv.mp4	0.0	223.13946676254272	
29	150.61397695541382	pulse	1	t		27.0	2.5	/experiments/knapen_AOT/AOT_stimuli/rescaled_final/1503_rv.mp4	0.0	224.7382938861847	
29	151.1306278705597	fix_post	2		12	27.0	2.5	/experiments/knapen_AOT/AOT_stimuli/rescaled_final/1503_rv.mp4	0.0	225.25494480133057	0.09999704360961914
30	151.2306249141693	fix_pre	0		119	28.0	2.5	/experiments/knapen_AOT/AOT_stimuli/rescaled_final/1055_rv.mp4	0.0	225.35494184494019	0.9918270111083984
30	152.2142300605774	pulse	0	t		28.0	2.5	/experiments/knapen_AOT/AOT_stimuli/rescaled_final/1055_rv.mp4	0.0	226.33854699134827	
30	152.2224519252777	movie	1		244	28.0	2.5	/experiments/knapen_AOT/AOT_stimuli/rescaled_final/1055_rv.mp4	0.0	226.34676885604858	2.5086801052093506
30	153.81502389907837	pulse	1	t		28.0	2.5	/experiments/knapen_AOT/AOT_stimuli/rescaled_final/1055_rv.mp4	0.0	227.93934082984924	
30	154.73113203048706	fix_post	2		12	28.0	2.5	/experiments/knapen_AOT/AOT_stimuli/rescaled_final/1055_rv.mp4	0.0	228.85544896125793	0.10000395774841309
31	154.83113598823547	fix_pre	0		120	29.0	2.5	/experiments/knapen_AOT/AOT_stimuli/rescaled_final/1354_rv.mp4	0.0	228.95545291900635	1.0001800060272217
31	155.41486191749573	pulse	0	t		29.0	2.5	/experiments/knapen_AOT/AOT_stimuli/rescaled_final/1354_rv.mp4	0.0	229.5391788482666	
31	155.8313159942627	movie	1		243	29.0	2.5	/experiments/knapen_AOT/AOT_stimuli/rescaled_final/1354_rv.mp4	0.0	229.95563292503357	2.5003418922424316
31	157.01513385772705	pulse	1	t		29.0	2.5	/experiments/knapen_AOT/AOT_stimuli/rescaled_final/1354_rv.mp4	0.0	231.13945078849792	
31	158.33165788650513	fix_post	2		12	29.0	2.5	/experiments/knapen_AOT/AOT_stimuli/rescaled_final/1354_rv.mp4	0.0	232.455974817276	0.100067138671875
32	158.431725025177	fix_pre	0		120	30.0	2.5	/experiments/knapen_AOT/AOT_stimuli/rescaled_final/1040_fw.mp4	0.0	232.55604195594788	1.0001308917999268
32	158.61520099639893	pulse	0	t		30.0	2.5	/experiments/knapen_AOT/AOT_stimuli/rescaled_final/1040_fw.mp4	0.0	232.7395179271698	
32	159.43185591697693	movie	1		242	30.0	2.5	/experiments/knapen_AOT/AOT_stimuli/rescaled_final/1040_fw.mp4	0.0	233.5561728477478	2.49202299118042
32	160.21547889709473	pulse	1	t		30.0	2.5	/experiments/knapen_AOT/AOT_stimuli/rescaled_final/1040_fw.mp4	0.0	234.3397958278656	
32	161.81552696228027	pulse	1	t		30.0	2.5	/experiments/knapen_AOT/AOT_stimuli/rescaled_final/1040_fw.mp4	0.0	235.93984389305115	
32	161.92387890815735	fix_post	2		12	30.0	2.5	/experiments/knapen_AOT/AOT_stimuli/rescaled_final/1040_fw.mp4	0.0	236.04819583892822	0.10002303123474121
33	162.0239019393921	fix_pre	0		120	31.0	2.5	/experiments/knapen_AOT/AOT_stimuli/rescaled_final/0444_rv.mp4	0.0	236.14821887016296	1.0001580715179443
33	163.02406001091003	movie	1		244	31.0	2.5	/experiments/knapen_AOT/AOT_stimuli/rescaled_final/0444_rv.mp4	0.0	237.1483769416809	2.500377893447876
33	163.41614198684692	pulse	1	t		31.0	2.5	/experiments/knapen_AOT/AOT_stimuli/rescaled_final/0444_rv.mp4	0.0	237.5404589176178	
33	165.01624488830566	pulse	1	t		31.0	2.5	/experiments/knapen_AOT/AOT_stimuli/rescaled_final/0444_rv.mp4	0.0	239.14056181907654	
33	165.5244379043579	fix_post	2		12	31.0	2.5	/experiments/knapen_AOT/AOT_stimuli/rescaled_final/0444_rv.mp4	0.0	239.64875483512878	0.10004711151123047
34	165.62448501586914	fix_pre	0		120	32.0	2.5	/experiments/knapen_AOT/AOT_stimuli/rescaled_final/1580_fw.mp4	0.0	239.74880194664001	1.000105857849121
34	166.61640286445618	pulse	0	t		32.0	2.5	/experiments/knapen_AOT/AOT_stimuli/rescaled_final/1580_fw.mp4	0.0	240.74071979522705	
34	166.62459087371826	movie	1		245	32.0	2.5	/experiments/knapen_AOT/AOT_stimuli/rescaled_final/1580_fw.mp4	0.0	240.74890780448914	2.5086731910705566
34	168.2172520160675	pulse	1	t		32.0	2.5	/experiments/knapen_AOT/AOT_stimuli/rescaled_final/1580_fw.mp4	0.0	242.34156894683838	
34	169.13326406478882	fix_post	2		12	32.0	2.5	/experiments/knapen_AOT/AOT_stimuli/rescaled_final/1580_fw.mp4	0.0	243.2575809955597	0.10002493858337402
35	169.2332890033722	fix_pre	0		120	33.0	2.5	/experiments/knapen_AOT/AOT_stimuli/rescaled_final/0134_rv.mp4	0.0	243.35760593414307	1.0001678466796875
35	169.81701493263245	pulse	0	t		33.0	2.5	/experiments/knapen_AOT/AOT_stimuli/rescaled_final/0134_rv.mp4	0.0	243.94133186340332	
35	170.23345685005188	movie	1		244	33.0	2.5	/experiments/knapen_AOT/AOT_stimuli/rescaled_final/0134_rv.mp4	0.0	244.35777378082275	2.500364065170288
35	171.41735100746155	pulse	1	t		33.0	2.5	/experiments/knapen_AOT/AOT_stimuli/rescaled_final/0134_rv.mp4	0.0	245.54166793823242	
35	172.73382091522217	fix_post	2		12	33.0	2.5	/experiments/knapen_AOT/AOT_stimuli/rescaled_final/0134_rv.mp4	0.0	246.85813784599304	0.10002899169921875
36	172.8338499069214	fix_pre	0		120	34.0	2.5	blank	1.0	246.95816683769226	1.0001559257507324
36	173.01737689971924	pulse	0	t		34.0	2.5	blank	1.0	247.1416938304901	
36	173.83400583267212	movie	1		299	34.0	2.5	blank	1.0	247.958322763443	2.4920639991760254
36	174.61759495735168	pulse	1	t		34.0	2.5	blank	1.0	248.74191188812256	
36	176.21799397468567	pulse	1	t		34.0	2.5	blank	1.0	250.34231090545654	
36	176.32606983184814	fix_post	2		12	34.0	2.5	blank	1.0	250.45038676261902	0.10003304481506348
37	176.4261028766632	fix_pre	0		120	35.0	2.5	/experiments/knapen_AOT/AOT_stimuli/rescaled_final/0417_fw.mp4	0.0	250.55041980743408	1.0001130104064941
37	177.4262158870697	movie	1		244	35.0	2.5	/experiments/knapen_AOT/AOT_stimuli/rescaled_final/0417_fw.mp4	0.0	251.55053281784058	2.500347137451172
37	177.81834197044373	pulse	1	t		35.0	2.5	/experiments/knapen_AOT/AOT_stimuli/rescaled_final/0417_fw.mp4	0.0	251.9426589012146	
37	179.41839385032654	pulse	1	t		35.0	2.5	/experiments/knapen_AOT/AOT_stimuli/rescaled_final/0417_fw.mp4	0.0	253.5427107810974	
37	179.92656302452087	fix_post	2		12	35.0	2.5	/experiments/knapen_AOT/AOT_stimuli/rescaled_final/0417_fw.mp4	0.0	254.05087995529175	0.1000978946685791
38	180.02666091918945	fix_pre	0		120	36.0	2.5	/experiments/knapen_AOT/AOT_stimuli/rescaled_final/0959_fw.mp4	0.0	254.15097784996033	1.0000779628753662
38	181.0186378955841	pulse	0	t		36.0	2.5	/experiments/knapen_AOT/AOT_stimuli/rescaled_final/0959_fw.mp4	0.0	255.14295482635498	
38	181.02673888206482	movie	1		244	36.0	2.5	/experiments/knapen_AOT/AOT_stimuli/rescaled_final/0959_fw.mp4	0.0	255.1510558128357	2.5087361335754395
38	182.6194519996643	pulse	1	t		36.0	2.5	/experiments/knapen_AOT/AOT_stimuli/rescaled_final/0959_fw.mp4	0.0	256.7437689304352	
38	183.53547501564026	fix_post	2		12	36.0	2.5	/experiments/knapen_AOT/AOT_stimuli/rescaled_final/0959_fw.mp4	0.0	257.65979194641113	0.09998297691345215
39	183.6354579925537	fix_pre	0		120	37.0	2.5	/experiments/knapen_AOT/AOT_stimuli/rescaled_final/2046_fw.mp4	0.0	257.7597749233246	1.0001490116119385
39	184.21916890144348	pulse	0	t		37.0	2.5	/experiments/knapen_AOT/AOT_stimuli/rescaled_final/2046_fw.mp4	0.0	258.34348583221436	
39	184.63560700416565	movie	1		244	37.0	2.5	/experiments/knapen_AOT/AOT_stimuli/rescaled_final/2046_fw.mp4	0.0	258.7599239349365	2.5003700256347656
39	185.81950688362122	pulse	1	t		37.0	2.5	/experiments/knapen_AOT/AOT_stimuli/rescaled_final/2046_fw.mp4	0.0	259.9438238143921	
39	187.13597702980042	fix_post	2		12	37.0	2.5	/experiments/knapen_AOT/AOT_stimuli/rescaled_final/2046_fw.mp4	0.0	261.2602939605713	0.10001301765441895
40	187.23599004745483	fix_pre	0		120	38.0	2.5	/experiments/knapen_AOT/AOT_stimuli/rescaled_final/0322_fw.mp4	0.0	261.3603069782257	1.000135898590088
40	187.41952300071716	pulse	0	t		38.0	2.5	/experiments/knapen_AOT/AOT_stimuli/rescaled_final/0322_fw.mp4	0.0	261.54383993148804	
40	188.23612594604492	movie	1		244	38.0	2.5	/experiments/knapen_AOT/AOT_stimuli/rescaled_final/0322_fw.mp4	0.0	262.3604428768158	2.500437021255493
40	189.0197789669037	pulse	1	t		38.0	2.5	/experiments/knapen_AOT/AOT_stimuli/rescaled_final/0322_fw.mp4	0.0	263.14409589767456	
40	190.6198878288269	pulse	1	t		38.0	2.5	/experiments/knapen_AOT/AOT_stimuli/rescaled_final/0322_fw.mp4	0.0	264.7442047595978	
40	190.73656296730042	fix_post	2		12	38.0	2.5	/experiments/knapen_AOT/AOT_stimuli/rescaled_final/0322_fw.mp4	0.0	264.8608798980713	0.09998106956481934
41	190.83654403686523	fix_pre	0		120	39.0	2.5	/experiments/knapen_AOT/AOT_stimuli/rescaled_final/1534_rv.mp4	0.0	264.9608609676361	1.0001327991485596
41	191.8366768360138	movie	1		242	39.0	2.5	/experiments/knapen_AOT/AOT_stimuli/rescaled_final/1534_rv.mp4	0.0	265.96099376678467	2.4920120239257812
41	192.2208490371704	pulse	1	t		39.0	2.5	/experiments/knapen_AOT/AOT_stimuli/rescaled_final/1534_rv.mp4	0.0	266.3451659679413	
41	193.82060885429382	pulse	1	t		39.0	2.5	/experiments/knapen_AOT/AOT_stimuli/rescaled_final/1534_rv.mp4	0.0	267.9449257850647	
41	194.32868885993958	fix_post	2		12	39.0	2.5	/experiments/knapen_AOT/AOT_stimuli/rescaled_final/1534_rv.mp4	0.0	268.45300579071045	0.10002803802490234
42	194.42871689796448	fix_pre	0		120	40.0	2.5	/experiments/knapen_AOT/AOT_stimuli/rescaled_final/0237_rv.mp4	0.0	268.55303382873535	1.0002291202545166
42	195.42076086997986	pulse	0	t		40.0	2.5	/experiments/knapen_AOT/AOT_stimuli/rescaled_final/0237_rv.mp4	0.0	269.54507780075073	
42	195.428946018219	movie	1		245	40.0	2.5	/experiments/knapen_AOT/AOT_stimuli/rescaled_final/0237_rv.mp4	0.0	269.55326294898987	2.508615016937256
42	197.02567791938782	pulse	1	t		40.0	2.5	/experiments/knapen_AOT/AOT_stimuli/rescaled_final/0237_rv.mp4	0.0	271.1499948501587	
42	197.93756103515625	fix_post	2		12	40.0	2.5	/experiments/knapen_AOT/AOT_stimuli/rescaled_final/0237_rv.mp4	0.0	272.0618779659271	0.10006499290466309
43	198.0376260280609	fix_pre	0		120	41.0	2.5	blank	1.0	272.1619429588318	1.0001239776611328
43	198.62127089500427	pulse	0	t		41.0	2.5	blank	1.0	272.74558782577515	
43	199.03775000572205	movie	1		300	41.0	2.5	blank	1.0	273.1620669364929	2.500398874282837
43	200.2214469909668	pulse	1	t		41.0	2.5	blank	1.0	274.34576392173767	
43	201.53814888000488	fix_post	2		12	41.0	2.5	blank	1.0	275.66246581077576	0.09998297691345215
44	201.63813185691833	fix_pre	0		120	42.0	2.5	/experiments/knapen_AOT/AOT_stimuli/rescaled_final/0863_rv.mp4	0.0	275.7624487876892	1.000162124633789
44	201.82167983055115	pulse	0	t		42.0	2.5	/experiments/knapen_AOT/AOT_stimuli/rescaled_final/0863_rv.mp4	0.0	275.945996761322	
44	202.63829398155212	movie	1		243	42.0	2.5	/experiments/knapen_AOT/AOT_stimuli/rescaled_final/0863_rv.mp4	0.0	276.762610912323	2.5003340244293213
44	203.41469287872314	pulse	1	t		42.0	2.5	/experiments/knapen_AOT/AOT_stimuli/rescaled_final/0863_rv.mp4	0.0	277.539009809494	
44	205.02288794517517	pulse	1	t		42.0	2.5	/experiments/knapen_AOT/AOT_stimuli/rescaled_final/0863_rv.mp4	0.0	279.14720487594604	
44	205.13862800598145	fix_post	2		12	42.0	2.5	/experiments/knapen_AOT/AOT_stimuli/rescaled_final/0863_rv.mp4	0.0	279.2629449367523	0.10004997253417969
45	205.23867797851562	fix_pre	0		117	43.0	2.5	/experiments/knapen_AOT/AOT_stimuli/rescaled_final/1577_rv.mp4	0.0	279.3629949092865	1.0001509189605713
45	206.2388288974762	movie	1		242	43.0	2.5	/experiments/knapen_AOT/AOT_stimuli/rescaled_final/1577_rv.mp4	0.0	280.36314582824707	2.4921679496765137
45	206.62358593940735	pulse	1	t		43.0	2.5	/experiments/knapen_AOT/AOT_stimuli/rescaled_final/1577_rv.mp4	0.0	280.7479028701782	
45	208.21460890769958	pulse	1	t		43.0	2.5	/experiments/knapen_AOT/AOT_stimuli/rescaled_final/1577_rv.mp4	0.0	282.33892583847046	
45	208.7309968471527	fix_post	2		12	43.0	2.5	/experiments/knapen_AOT/AOT_stimuli/rescaled_final/1577_rv.mp4	0.0	282.8553137779236	0.09986615180969238
46	208.8308629989624	fix_pre	0		119	44.0	2.5	/experiments/knapen_AOT/AOT_stimuli/rescaled_final/2148_fw.mp4	0.0	282.9551799297333	0.9918239116668701
46	209.8145968914032	pulse	0	t		44.0	2.5	/experiments/knapen_AOT/AOT_stimuli/rescaled_final/2148_fw.mp4	0.0	283.9389138221741	
46	209.82268691062927	movie	1		244	44.0	2.5	/experiments/knapen_AOT/AOT_stimuli/rescaled_final/2148_fw.mp4	0.0	283.94700384140015	2.50871205329895
46	211.41538906097412	pulse	1	t		44.0	2.5	/experiments/knapen_AOT/AOT_stimuli/rescaled_final/2148_fw.mp4	0.0	285.539705991745	
46	212.33139896392822	fix_post	2		12	44.0	2.5	/experiments/knapen_AOT/AOT_stimuli/rescaled_final/2148_fw.mp4	0.0	286.4557158946991	0.10006403923034668
47	212.43146300315857	fix_pre	0		120	45.0	2.5	/experiments/knapen_AOT/AOT_stimuli/rescaled_final/1613_rv.mp4	0.0	286.55577993392944	1.0000979900360107
47	213.01498889923096	pulse	0	t		45.0	2.5	/experiments/knapen_AOT/AOT_stimuli/rescaled_final/1613_rv.mp4	0.0	287.13930583000183	
47	213.43156099319458	movie	1		245	45.0	2.5	/experiments/knapen_AOT/AOT_stimuli/rescaled_final/1613_rv.mp4	0.0	287.55587792396545	2.5003509521484375
47	214.61538696289062	pulse	1	t		45.0	2.5	/experiments/knapen_AOT/AOT_stimuli/rescaled_final/1613_rv.mp4	0.0	288.7397038936615	
47	215.93191194534302	fix_post	2		12	45.0	2.5	/experiments/knapen_AOT/AOT_stimuli/rescaled_final/1613_rv.mp4	0.0	290.0562288761139	0.10011792182922363
48	216.03202986717224	fix_pre	0		120	46.0	2.5	/experiments/knapen_AOT/AOT_stimuli/rescaled_final/1249_fw.mp4	0.0	290.1563467979431	1.0001180171966553
48	216.2155408859253	pulse	0	t		46.0	2.5	/experiments/knapen_AOT/AOT_stimuli/rescaled_final/1249_fw.mp4	0.0	290.33985781669617	
48	217.0321478843689	movie	1		244	46.0	2.5	/experiments/knapen_AOT/AOT_stimuli/rescaled_final/1249_fw.mp4	0.0	291.15646481513977	2.500293016433716
48	217.81582188606262	pulse	1	t		46.0	2.5	/experiments/knapen_AOT/AOT_stimuli/rescaled_final/1249_fw.mp4	0.0	291.9401388168335	
48	219.41789603233337	pulse	1	t		46.0	2.5	/experiments/knapen_AOT/AOT_stimuli/rescaled_final/1249_fw.mp4	0.0	293.54221296310425	
48	219.5324409008026	fix_post	2		12	46.0	2.5	/experiments/knapen_AOT/AOT_stimuli/rescaled_final/1249_fw.mp4	0.0	293.6567578315735	0.10002708435058594
49	219.6324679851532	fix_pre	0		120	47.0	2.5	/experiments/knapen_AOT/AOT_stimuli/rescaled_final/0984_fw.mp4	0.0	293.7567849159241	1.0001399517059326
49	220.63260793685913	movie	1		244	47.0	2.5	/experiments/knapen_AOT/AOT_stimuli/rescaled_final/0984_fw.mp4	0.0	294.75692486763	2.4920620918273926
49	221.01758885383606	pulse	1	t		47.0	2.5	/experiments/knapen_AOT/AOT_stimuli/rescaled_final/0984_fw.mp4	0.0	295.14190578460693	
49	222.6164948940277	pulse	1	t		47.0	2.5	/experiments/knapen_AOT/AOT_stimuli/rescaled_final/0984_fw.mp4	0.0	296.7408118247986	
49	223.12467002868652	fix_post	2		12	47.0	2.5	/experiments/knapen_AOT/AOT_stimuli/rescaled_final/0984_fw.mp4	0.0	297.2489869594574	0.10000395774841309
50	223.22467398643494	fix_pre	0		120	48.0	2.5	blank	1.0	297.3489909172058	1.000143051147461
50	224.21680688858032	pulse	0	t		48.0	2.5	blank	1.0	298.3411238193512	
50	224.2248170375824	movie	1		301	48.0	2.5	blank	1.0	298.34913396835327	2.5087239742279053
50	225.8170039653778	pulse	1	t		48.0	2.5	blank	1.0	299.9413208961487	
50	226.7335410118103	fix_post	2		12	48.0	2.5	blank	1.0	300.8578579425812	0.10002589225769043
51	226.833566904068	fix_pre	0		120	49.0	2.5	/experiments/knapen_AOT/AOT_stimuli/rescaled_final/0959_rv.mp4	0.0	300.95788383483887	1.0001609325408936
51	227.41712403297424	pulse	0	t		49.0	2.5	/experiments/knapen_AOT/AOT_stimuli/rescaled_final/0959_rv.mp4	0.0	301.5414409637451	
51	227.8337278366089	movie	1		243	49.0	2.5	/experiments/knapen_AOT/AOT_stimuli/rescaled_final/0959_rv.mp4	0.0	301.95804476737976	2.500336170196533
51	229.01748085021973	pulse	1	t		49.0	2.5	/experiments/knapen_AOT/AOT_stimuli/rescaled_final/0959_rv.mp4	0.0	303.1417977809906	
51	230.33406400680542	fix_post	2		12	49.0	2.5	/experiments/knapen_AOT/AOT_stimuli/rescaled_final/0959_rv.mp4	0.0	304.4583809375763	0.10009503364562988
52	230.43415904045105	fix_pre	0		120	50.0	2.5	/experiments/knapen_AOT/AOT_stimuli/rescaled_final/1875_rv.mp4	0.0	304.5584759712219	1.0001189708709717
52	230.61773991584778	pulse	0	t		50.0	2.5	/experiments/knapen_AOT/AOT_stimuli/rescaled_final/1875_rv.mp4	0.0	304.74205684661865	
52	231.43427801132202	movie	1		243	50.0	2.5	/experiments/knapen_AOT/AOT_stimuli/rescaled_final/1875_rv.mp4	0.0	305.5585949420929	2.5003089904785156
52	232.21802186965942	pulse	1	t		50.0	2.5	/experiments/knapen_AOT/AOT_stimuli/rescaled_final/1875_rv.mp4	0.0	306.3423388004303	
52	233.81806802749634	pulse	1	t		50.0	2.5	/experiments/knapen_AOT/AOT_stimuli/rescaled_final/1875_rv.mp4	0.0	307.9423849582672	
52	233.93458700180054	fix_post	2		12	50.0	2.5	/experiments/knapen_AOT/AOT_stimuli/rescaled_final/1875_rv.mp4	0.0	308.0589039325714	0.10007095336914062
53	234.03465795516968	fix_pre	0		120	51.0	2.5	/experiments/knapen_AOT/AOT_stimuli/rescaled_final/0671_fw.mp4	0.0	308.15897488594055	1.0001280307769775
53	235.03478598594666	movie	1		243	51.0	2.5	/experiments/knapen_AOT/AOT_stimuli/rescaled_final/0671_fw.mp4	0.0	309.15910291671753	2.492017984390259
53	235.41889905929565	pulse	1	t		51.0	2.5	/experiments/knapen_AOT/AOT_stimuli/rescaled_final/0671_fw.mp4	0.0	309.5432159900665	
53	237.01874899864197	pulse	1	t		51.0	2.5	/experiments/knapen_AOT/AOT_stimuli/rescaled_final/0671_fw.mp4	0.0	311.14306592941284	
53	237.5268039703369	fix_post	2		12	51.0	2.5	/experiments/knapen_AOT/AOT_stimuli/rescaled_final/0671_fw.mp4	0.0	311.6511209011078	0.10001397132873535
54	237.62681794166565	fix_pre	0		120	52.0	2.5	/experiments/knapen_AOT/AOT_stimuli/rescaled_final/1512_fw.mp4	0.0	311.7511348724365	1.000157117843628
54	238.61901903152466	pulse	0	t		52.0	2.5	/experiments/knapen_AOT/AOT_stimuli/rescaled_final/1512_fw.mp4	0.0	312.74333596229553	
54	238.62697505950928	movie	1		244	52.0	2.5	/experiments/knapen_AOT/AOT_stimuli/rescaled_final/1512_fw.mp4	0.0	312.75129199028015	2.5086939334869385
54	240.2200698852539	pulse	1	t		52.0	2.5	/experiments/knapen_AOT/AOT_stimuli/rescaled_final/1512_fw.mp4	0.0	314.3443868160248	
54	241.13566899299622	fix_post	2		12	52.0	2.5	/experiments/knapen_AOT/AOT_stimuli/rescaled_final/1512_fw.mp4	0.0	315.2599859237671	0.10001802444458008
55	241.2356870174408	fix_pre	0		120	53.0	2.5	/experiments/knapen_AOT/AOT_stimuli/rescaled_final/0361_fw.mp4	0.0	315.36000394821167	1.0001699924468994
55	241.8192629814148	pulse	0	t		53.0	2.5	/experiments/knapen_AOT/AOT_stimuli/rescaled_final/0361_fw.mp4	0.0	315.94357991218567	
55	242.2358570098877	movie	1		245	53.0	2.5	/experiments/knapen_AOT/AOT_stimuli/rescaled_final/0361_fw.mp4	0.0	316.36017394065857	2.5003349781036377
55	243.41965103149414	pulse	1	t		53.0	2.5	/experiments/knapen_AOT/AOT_stimuli/rescaled_final/0361_fw.mp4	0.0	317.543967962265	
55	244.73619198799133	fix_post	2		12	53.0	2.5	/experiments/knapen_AOT/AOT_stimuli/rescaled_final/0361_fw.mp4	0.0	318.8605089187622	0.10003900527954102
56	244.83623099327087	fix_pre	0		120	54.0	2.5	/experiments/knapen_AOT/AOT_stimuli/rescaled_final/0462_fw.mp4	0.0	318.96054792404175	1.0001718997955322
56	245.01988196372986	pulse	0	t		54.0	2.5	/experiments/knapen_AOT/AOT_stimuli/rescaled_final/0462_fw.mp4	0.0	319.14419889450073	
56	245.8364028930664	movie	1		245	54.0	2.5	/experiments/knapen_AOT/AOT_stimuli/rescaled_final/0462_fw.mp4	0.0	319.9607198238373	2.5003559589385986
56	246.6201720237732	pulse	1	t		54.0	2.5	/experiments/knapen_AOT/AOT_stimuli/rescaled_final/0462_fw.mp4	0.0	320.74448895454407	
56	248.21806502342224	pulse	1	t		54.0	2.5	/experiments/knapen_AOT/AOT_stimuli/rescaled_final/0462_fw.mp4	0.0	322.3423819541931	
56	248.336758852005	fix_post	2		12	54.0	2.5	/experiments/knapen_AOT/AOT_stimuli/rescaled_final/0462_fw.mp4	0.0	322.4610757827759	0.1000211238861084
57	248.4367799758911	fix_pre	0		120	55.0	2.5	blank	1.0	322.561096906662	1.0001859664916992
57	249.4369659423828	movie	1		299	55.0	2.5	blank	1.0	323.5612828731537	2.492008924484253
57	249.82048392295837	pulse	1	t		55.0	2.5	blank	1.0	323.94480085372925	
57	251.42071390151978	pulse	1	t		55.0	2.5	blank	1.0	325.54503083229065	
57	251.92897486686707	fix_post	2		12	55.0	2.5	blank	1.0	326.05329179763794	0.10003519058227539
58	252.02901005744934	fix_pre	0		120	56.0	2.5	/experiments/knapen_AOT/AOT_stimuli/rescaled_final/1167_fw.mp4	0.0	326.1533269882202	1.0001118183135986
58	253.02110600471497	pulse	0	t		56.0	2.5	/experiments/knapen_AOT/AOT_stimuli/rescaled_final/1167_fw.mp4	0.0	327.14542293548584	
58	253.02912187576294	movie	1		245	56.0	2.5	/experiments/knapen_AOT/AOT_stimuli/rescaled_final/1167_fw.mp4	0.0	327.1534388065338	2.508687973022461
58	254.62242484092712	pulse	1	t		56.0	2.5	/experiments/knapen_AOT/AOT_stimuli/rescaled_final/1167_fw.mp4	0.0	328.746741771698	
58	255.5378098487854	fix_post	2		12	56.0	2.5	/experiments/knapen_AOT/AOT_stimuli/rescaled_final/1167_fw.mp4	0.0	329.6621267795563	0.10003304481506348
59	255.63784289360046	fix_pre	0		120	57.0	2.5	/experiments/knapen_AOT/AOT_stimuli/rescaled_final/0618_rv.mp4	0.0	329.76215982437134	1.0001590251922607
59	256.214017868042	pulse	0	t		57.0	2.5	/experiments/knapen_AOT/AOT_stimuli/rescaled_final/0618_rv.mp4	0.0	330.33833479881287	
59	256.6380019187927	movie	1		246	57.0	2.5	/experiments/knapen_AOT/AOT_stimuli/rescaled_final/0618_rv.mp4	0.0	330.7623188495636	2.5003609657287598
59	257.81395292282104	pulse	1	t		57.0	2.5	/experiments/knapen_AOT/AOT_stimuli/rescaled_final/0618_rv.mp4	0.0	331.9382698535919	
59	259.1383628845215	fix_post	2		12	57.0	2.5	/experiments/knapen_AOT/AOT_stimuli/rescaled_final/0618_rv.mp4	0.0	333.26267981529236	0.10001516342163086
60	259.2383780479431	fix_pre	0		120	58.0	2.5	/experiments/knapen_AOT/AOT_stimuli/rescaled_final/0709_rv.mp4	0.0	333.362694978714	1.000166893005371
60	259.4144699573517	pulse	0	t		58.0	2.5	/experiments/knapen_AOT/AOT_stimuli/rescaled_final/0709_rv.mp4	0.0	333.53878688812256	
60	260.2385449409485	movie	1		244	58.0	2.5	/experiments/knapen_AOT/AOT_stimuli/rescaled_final/0709_rv.mp4	0.0	334.36286187171936	2.500343084335327
60	261.0147349834442	pulse	1	t		58.0	2.5	/experiments/knapen_AOT/AOT_stimuli/rescaled_final/0709_rv.mp4	0.0	335.1390519142151	
60	262.61423683166504	pulse	1	t		58.0	2.5	/experiments/knapen_AOT/AOT_stimuli/rescaled_final/0709_rv.mp4	0.0	336.7385537624359	
60	262.7388880252838	fix_post	2		12	58.0	2.5	/experiments/knapen_AOT/AOT_stimuli/rescaled_final/0709_rv.mp4	0.0	336.8632049560547	0.10009193420410156
61	262.8389799594879	fix_pre	0		120	59.0	2.5	/experiments/knapen_AOT/AOT_stimuli/rescaled_final/1831_rv.mp4	0.0	336.9632968902588	1.0000979900360107
61	263.8390779495239	movie	1		242	59.0	2.5	/experiments/knapen_AOT/AOT_stimuli/rescaled_final/1831_rv.mp4	0.0	337.9633948802948	2.492072105407715
61	264.21428394317627	pulse	1	t		59.0	2.5	/experiments/knapen_AOT/AOT_stimuli/rescaled_final/1831_rv.mp4	0.0	338.33860087394714	
61	265.8145649433136	pulse	1	t		59.0	2.5	/experiments/knapen_AOT/AOT_stimuli/rescaled_final/1831_rv.mp4	0.0	339.9388818740845	
61	266.33115005493164	fix_post	2		9	59.0	2.5	/experiments/knapen_AOT/AOT_stimuli/rescaled_final/1831_rv.mp4	0.0	340.4554669857025	0.09999680519104004
62	266.4311468601227	fix_pre	0		119	60.0	2.5	/experiments/knapen_AOT/AOT_stimuli/rescaled_final/1442_rv.mp4	0.0	340.55546379089355	0.991826057434082
62	267.4147689342499	pulse	0	t		60.0	2.5	/experiments/knapen_AOT/AOT_stimuli/rescaled_final/1442_rv.mp4	0.0	341.53908586502075	
62	267.42297291755676	movie	1		244	60.0	2.5	/experiments/knapen_AOT/AOT_stimuli/rescaled_final/1442_rv.mp4	0.0	341.54728984832764	2.5086209774017334
62	269.0155019760132	pulse	1	t		60.0	2.5	/experiments/knapen_AOT/AOT_stimuli/rescaled_final/1442_rv.mp4	0.0	343.13981890678406	
62	269.9315938949585	fix_post	2		12	60.0	2.5	/experiments/knapen_AOT/AOT_stimuli/rescaled_final/1442_rv.mp4	0.0	344.05591082572937	0.10009098052978516
63	270.0316848754883	fix_pre	0		120	61.0	2.5	/experiments/knapen_AOT/AOT_stimuli/rescaled_final/0984_rv.mp4	0.0	344.15600180625916	1.0001070499420166
63	270.61528396606445	pulse	0	t		61.0	2.5	/experiments/knapen_AOT/AOT_stimuli/rescaled_final/0984_rv.mp4	0.0	344.7396008968353	
63	271.0317919254303	movie	1		244	61.0	2.5	/experiments/knapen_AOT/AOT_stimuli/rescaled_final/0984_rv.mp4	0.0	345.1561088562012	2.5003929138183594
63	272.2155439853668	pulse	1	t		61.0	2.5	/experiments/knapen_AOT/AOT_stimuli/rescaled_final/0984_rv.mp4	0.0	346.3398609161377	
63	273.53218483924866	fix_post	2		12	61.0	2.5	/experiments/knapen_AOT/AOT_stimuli/rescaled_final/0984_rv.mp4	0.0	347.65650177001953	0.10001420974731445
64	273.632199048996	fix_pre	0		120	62.0	2.5	/experiments/knapen_AOT/AOT_stimuli/rescaled_final/1129_rv.mp4	0.0	347.75651597976685	1.0001258850097656
64	273.81573700904846	pulse	0	t		62.0	2.5	/experiments/knapen_AOT/AOT_stimuli/rescaled_final/1129_rv.mp4	0.0	347.94005393981934	
64	274.63232493400574	movie	1		243	62.0	2.5	/experiments/knapen_AOT/AOT_stimuli/rescaled_final/1129_rv.mp4	0.0	348.7566418647766	2.500481128692627
64	275.41612792015076	pulse	1	t		62.0	2.5	/experiments/knapen_AOT/AOT_stimuli/rescaled_final/1129_rv.mp4	0.0	349.54044485092163	
64	277.01611399650574	pulse	1	t		62.0	2.5	/experiments/knapen_AOT/AOT_stimuli/rescaled_final/1129_rv.mp4	0.0	351.1404309272766	
64	277.13280606269836	fix_post	2		12	62.0	2.5	/experiments/knapen_AOT/AOT_stimuli/rescaled_final/1129_rv.mp4	0.0	351.25712299346924	0.09992194175720215
65	277.23272800445557	fix_pre	0		120	63.0	2.5	blank	1.0	351.35704493522644	1.0001568794250488
65	278.2328848838806	movie	1		299	63.0	2.5	blank	1.0	352.3572018146515	2.4920570850372314
65	278.61645698547363	pulse	1	t		63.0	2.5	blank	1.0	352.7407739162445	
65	280.2166588306427	pulse	1	t		63.0	2.5	blank	1.0	354.3409757614136	
65	280.72494196891785	fix_post	2		12	63.0	2.5	blank	1.0	354.8492588996887	0.0999910831451416
66	280.824933052063	fix_pre	0		120	64.0	2.5	/experiments/knapen_AOT/AOT_stimuli/rescaled_final/0779_rv.mp4	0.0	354.94924998283386	1.0001928806304932
66	281.8169479370117	pulse	0	t		64.0	2.5	/experiments/knapen_AOT/AOT_stimuli/rescaled_final/0779_rv.mp4	0.0	355.9412648677826	
66	281.8251259326935	movie	1		247	64.0	2.5	/experiments/knapen_AOT/AOT_stimuli/rescaled_final/0779_rv.mp4	0.0	355.94944286346436	2.5086259841918945
66	283.41778588294983	pulse	1	t		64.0	2.5	/experiments/knapen_AOT/AOT_stimuli/rescaled_final/0779_rv.mp4	0.0	357.5421028137207	
66	284.3337519168854	fix_post	2		12	64.0	2.5	/experiments/knapen_AOT/AOT_stimuli/rescaled_final/0779_rv.mp4	0.0	358.45806884765625	0.10005712509155273
67	284.43380904197693	fix_pre	0		120	65.0	2.5	/experiments/knapen_AOT/AOT_stimuli/rescaled_final/2065_rv.mp4	0.0	358.5581259727478	1.0001800060272217
67	285.01742696762085	pulse	0	t		65.0	2.5	/experiments/knapen_AOT/AOT_stimuli/rescaled_final/2065_rv.mp4	0.0	359.1417438983917	
67	285.43398904800415	movie	1		244	65.0	2.5	/experiments/knapen_AOT/AOT_stimuli/rescaled_final/2065_rv.mp4	0.0	359.558305978775	2.500365972518921
67	286.6177718639374	pulse	1	t		65.0	2.5	/experiments/knapen_AOT/AOT_stimuli/rescaled_final/2065_rv.mp4	0.0	360.74208879470825	
67	287.93435502052307	fix_post	2		12	65.0	2.5	/experiments/knapen_AOT/AOT_stimuli/rescaled_final/2065_rv.mp4	0.0	362.05867195129395	0.09996795654296875
68	288.03432297706604	fix_pre	0		120	66.0	2.5	/experiments/knapen_AOT/AOT_stimuli/rescaled_final/1069_rv.mp4	0.0	362.1586399078369	1.0002119541168213
68	288.21788692474365	pulse	0	t		66.0	2.5	/experiments/knapen_AOT/AOT_stimuli/rescaled_final/1069_rv.mp4	0.0	362.3422038555145	
68	289.03453493118286	movie	1		244	66.0	2.5	/experiments/knapen_AOT/AOT_stimuli/rescaled_final/1069_rv.mp4	0.0	363.15885186195374	2.5004029273986816
68	289.81823801994324	pulse	1	t		66.0	2.5	/experiments/knapen_AOT/AOT_stimuli/rescaled_final/1069_rv.mp4	0.0	363.9425549507141	
68	291.4183838367462	pulse	1	t		66.0	2.5	/experiments/knapen_AOT/AOT_stimuli/rescaled_final/1069_rv.mp4	0.0	365.5427007675171	
68	291.53493785858154	fix_post	2		12	66.0	2.5	/experiments/knapen_AOT/AOT_stimuli/rescaled_final/1069_rv.mp4	0.0	365.6592547893524	0.09991312026977539
69	291.6348509788513	fix_pre	0		120	67.0	2.5	/experiments/knapen_AOT/AOT_stimuli/rescaled_final/1562_fw.mp4	0.0	365.7591679096222	1.0002169609069824
69	292.6350679397583	movie	1		243	67.0	2.5	/experiments/knapen_AOT/AOT_stimuli/rescaled_final/1562_fw.mp4	0.0	366.7593848705292	2.4919629096984863
69	293.0200660228729	pulse	1	t		67.0	2.5	/experiments/knapen_AOT/AOT_stimuli/rescaled_final/1562_fw.mp4	0.0	367.1443829536438	
69	294.61884593963623	pulse	1	t		67.0	2.5	/experiments/knapen_AOT/AOT_stimuli/rescaled_final/1562_fw.mp4	0.0	368.7431628704071	
69	295.1270308494568	fix_post	2		12	67.0	2.5	/experiments/knapen_AOT/AOT_stimuli/rescaled_final/1562_fw.mp4	0.0	369.25134778022766	0.10005712509155273
70	295.22708797454834	fix_pre	0		120	68.0	2.5	blank	1.0	369.3514049053192	1.0001580715179443
70	296.21922302246094	pulse	0	t		68.0	2.5	blank	1.0	370.3435399532318	
70	296.2272460460663	movie	1		301	68.0	2.5	blank	1.0	370.35156297683716	2.508692979812622
70	297.8193919658661	pulse	1	t		68.0	2.5	blank	1.0	371.94370889663696	
70	298.7359390258789	fix_post	2		12	68.0	2.5	blank	1.0	372.8602559566498	0.10004687309265137
71	298.83598589897156	fix_pre	0		120	69.0	2.5	/experiments/knapen_AOT/AOT_stimuli/rescaled_final/1218_rv.mp4	0.0	372.96030282974243	1.0000879764556885
71	299.41972184181213	pulse	0	t		69.0	2.5	/experiments/knapen_AOT/AOT_stimuli/rescaled_final/1218_rv.mp4	0.0	373.544038772583	
71	299.83607387542725	movie	1		245	69.0	2.5	/experiments/knapen_AOT/AOT_stimuli/rescaled_final/1218_rv.mp4	0.0	373.9603908061981	2.500432014465332
71	301.0198850631714	pulse	1	t		69.0	2.5	/experiments/knapen_AOT/AOT_stimuli/rescaled_final/1218_rv.mp4	0.0	375.14420199394226	
71	302.3365058898926	fix_post	2		12	69.0	2.5	/experiments/knapen_AOT/AOT_stimuli/rescaled_final/1218_rv.mp4	0.0	376.46082282066345	0.10001301765441895
72	302.436518907547	fix_pre	0		120	70.0	2.5	/experiments/knapen_AOT/AOT_stimuli/rescaled_final/1047_rv.mp4	0.0	376.56083583831787	1.0001060962677002
72	302.62004685401917	pulse	0	t		70.0	2.5	/experiments/knapen_AOT/AOT_stimuli/rescaled_final/1047_rv.mp4	0.0	376.74436378479004	
72	303.4366250038147	movie	1		244	70.0	2.5	/experiments/knapen_AOT/AOT_stimuli/rescaled_final/1047_rv.mp4	0.0	377.56094193458557	2.5003979206085205
72	304.2202818393707	pulse	1	t		70.0	2.5	/experiments/knapen_AOT/AOT_stimuli/rescaled_final/1047_rv.mp4	0.0	378.3445987701416	
72	305.820631980896	pulse	1	t		70.0	2.5	/experiments/knapen_AOT/AOT_stimuli/rescaled_final/1047_rv.mp4	0.0	379.94494891166687	
72	305.9370229244232	fix_post	2		12	70.0	2.5	/experiments/knapen_AOT/AOT_stimuli/rescaled_final/1047_rv.mp4	0.0	380.0613398551941	0.10000300407409668
73	306.0370259284973	fix_pre	0		120	71.0	2.5	/experiments/knapen_AOT/AOT_stimuli/rescaled_final/1043_fw.mp4	0.0	380.1613428592682	1.0001249313354492
73	307.03715085983276	movie	1		244	71.0	2.5	/experiments/knapen_AOT/AOT_stimuli/rescaled_final/1043_fw.mp4	0.0	381.16146779060364	2.4920380115509033
73	307.42219591140747	pulse	1	t		71.0	2.5	/experiments/knapen_AOT/AOT_stimuli/rescaled_final/1043_fw.mp4	0.0	381.54651284217834	
73	309.0137748718262	pulse	1	t		71.0	2.5	/experiments/knapen_AOT/AOT_stimuli/rescaled_final/1043_fw.mp4	0.0	383.13809180259705	
73	309.52918887138367	fix_post	2		12	71.0	2.5	/experiments/knapen_AOT/AOT_stimuli/rescaled_final/1043_fw.mp4	0.0	383.65350580215454	0.10002398490905762
74	309.6292128562927	fix_pre	0		120	72.0	2.5	/experiments/knapen_AOT/AOT_stimuli/rescaled_final/0149_rv.mp4	0.0	383.7535297870636	1.0001780986785889
74	310.61381697654724	pulse	0	t		72.0	2.5	/experiments/knapen_AOT/AOT_stimuli/rescaled_final/0149_rv.mp4	0.0	384.7381339073181	
74	310.6293909549713	movie	1		245	72.0	2.5	/experiments/knapen_AOT/AOT_stimuli/rescaled_final/0149_rv.mp4	0.0	384.7537078857422	2.508668899536133
74	312.22210001945496	pulse	1	t		72.0	2.5	/experiments/knapen_AOT/AOT_stimuli/rescaled_final/0149_rv.mp4	0.0	386.34641695022583	
74	313.13805985450745	fix_post	2		12	72.0	2.5	/experiments/knapen_AOT/AOT_stimuli/rescaled_final/0149_rv.mp4	0.0	387.2623767852783	0.10003399848937988
75	313.2380938529968	fix_pre	0		120	73.0	2.5	/experiments/knapen_AOT/AOT_stimuli/rescaled_final/0603_rv.mp4	0.0	387.3624107837677	1.0001530647277832
75	313.814120054245	pulse	0	t		73.0	2.5	/experiments/knapen_AOT/AOT_stimuli/rescaled_final/0603_rv.mp4	0.0	387.93843698501587	
75	314.2382469177246	movie	1		243	73.0	2.5	/experiments/knapen_AOT/AOT_stimuli/rescaled_final/0603_rv.mp4	0.0	388.3625638484955	2.500385046005249
75	315.41411900520325	pulse	1	t		73.0	2.5	/experiments/knapen_AOT/AOT_stimuli/rescaled_final/0603_rv.mp4	0.0	389.5384359359741	
75	316.73863196372986	fix_post	2		12	73.0	2.5	/experiments/knapen_AOT/AOT_stimuli/rescaled_final/0603_rv.mp4	0.0	390.86294889450073	0.10003089904785156
76	316.8386628627777	fix_pre	0		120	74.0	2.5	/experiments/knapen_AOT/AOT_stimuli/rescaled_final/1937_fw.mp4	0.0	390.9629797935486	1.0001142024993896
76	317.013808965683	pulse	0	t		74.0	2.5	/experiments/knapen_AOT/AOT_stimuli/rescaled_final/1937_fw.mp4	0.0	391.13812589645386	
76	317.8387770652771	movie	1		245	74.0	2.5	/experiments/knapen_AOT/AOT_stimuli/rescaled_final/1937_fw.mp4	0.0	391.963093996048	2.5003538131713867
76	318.6140558719635	pulse	1	t		74.0	2.5	/experiments/knapen_AOT/AOT_stimuli/rescaled_final/1937_fw.mp4	0.0	392.7383728027344	
76	320.21429085731506	pulse	1	t		74.0	2.5	/experiments/knapen_AOT/AOT_stimuli/rescaled_final/1937_fw.mp4	0.0	394.33860778808594	
76	320.3391308784485	fix_post	2		11	74.0	2.5	/experiments/knapen_AOT/AOT_stimuli/rescaled_final/1937_fw.mp4	0.0	394.46344780921936	0.09170317649841309
77	320.4308340549469	fix_pre	0		120	75.0	2.5	blank	1.0	394.5551509857178	1.0001487731933594
77	321.43098282814026	movie	1		300	75.0	2.5	blank	1.0	395.55529975891113	2.5003812313079834
77	321.81470799446106	pulse	1	t		75.0	2.5	blank	1.0	395.93902492523193	
77	323.4150719642639	pulse	1	t		75.0	2.5	blank	1.0	397.5393888950348	
77	323.93136405944824	fix_post	2		12	75.0	2.5	blank	1.0	398.0556809902191	0.09997797012329102
78	324.03134202957153	fix_pre	0		119	76.0	2.5	/experiments/knapen_AOT/AOT_stimuli/rescaled_final/1177_rv.mp4	0.0	398.1556589603424	0.991844892501831
78	325.0151059627533	pulse	0	t		76.0	2.5	/experiments/knapen_AOT/AOT_stimuli/rescaled_final/1177_rv.mp4	0.0	399.13942289352417	
78	325.02318692207336	movie	1		240	76.0	2.5	/experiments/knapen_AOT/AOT_stimuli/rescaled_final/1177_rv.mp4	0.0	399.14750385284424	2.5086960792541504
78	326.6198699474335	pulse	1	t		76.0	2.5	/experiments/knapen_AOT/AOT_stimuli/rescaled_final/1177_rv.mp4	0.0	400.74418687820435	
78	327.5318830013275	fix_post	2		12	76.0	2.5	/experiments/knapen_AOT/AOT_stimuli/rescaled_final/1177_rv.mp4	0.0	401.6561999320984	0.10001897811889648
79	327.6319019794464	fix_pre	0		120	77.0	2.5	/experiments/knapen_AOT/AOT_stimuli/rescaled_final/0748_rv.mp4	0.0	401.7562189102173	1.000175952911377
79	328.2155258655548	pulse	0	t		77.0	2.5	/experiments/knapen_AOT/AOT_stimuli/rescaled_final/0748_rv.mp4	0.0	402.3398427963257	
79	328.6320779323578	movie	1		246	77.0	2.5	/experiments/knapen_AOT/AOT_stimuli/rescaled_final/0748_rv.mp4	0.0	402.75639486312866	2.5004820823669434
79	329.8159098625183	pulse	1	t		77.0	2.5	/experiments/knapen_AOT/AOT_stimuli/rescaled_final/0748_rv.mp4	0.0	403.9402267932892	
79	331.13256001472473	fix_post	2		12	77.0	2.5	/experiments/knapen_AOT/AOT_stimuli/rescaled_final/0748_rv.mp4	0.0	405.2568769454956	0.09990191459655762
80	331.2324619293213	fix_pre	0		120	78.0	2.5	/experiments/knapen_AOT/AOT_stimuli/rescaled_final/1310_rv.mp4	0.0	405.35677886009216	1.0001559257507324
80	331.41612005233765	pulse	0	t		78.0	2.5	/experiments/knapen_AOT/AOT_stimuli/rescaled_final/1310_rv.mp4	0.0	405.5404369831085	
80	332.232617855072	movie	1		244	78.0	2.5	/experiments/knapen_AOT/AOT_stimuli/rescaled_final/1310_rv.mp4	0.0	406.3569347858429	2.500404119491577
80	333.0162990093231	pulse	1	t		78.0	2.5	/experiments/knapen_AOT/AOT_stimuli/rescaled_final/1310_rv.mp4	0.0	407.140615940094	
80	334.6164479255676	pulse	1	t		78.0	2.5	/experiments/knapen_AOT/AOT_stimuli/rescaled_final/1310_rv.mp4	0.0	408.7407648563385	
80	334.7330219745636	fix_post	2		12	78.0	2.5	/experiments/knapen_AOT/AOT_stimuli/rescaled_final/1310_rv.mp4	0.0	408.8573389053345	0.09996700286865234
81	334.83298897743225	fix_pre	0		120	79.0	2.5	/experiments/knapen_AOT/AOT_stimuli/rescaled_final/1580_rv.mp4	0.0	408.9573059082031	1.0001349449157715
81	335.833123922348	movie	1		243	79.0	2.5	/experiments/knapen_AOT/AOT_stimuli/rescaled_final/1580_rv.mp4	0.0	409.9574408531189	2.4920129776000977
81	336.21718287467957	pulse	1	t		79.0	2.5	/experiments/knapen_AOT/AOT_stimuli/rescaled_final/1580_rv.mp4	0.0	410.34149980545044	
81	337.81714606285095	pulse	1	t		79.0	2.5	/experiments/knapen_AOT/AOT_stimuli/rescaled_final/1580_rv.mp4	0.0	411.9414629936218	
81	338.3251368999481	fix_post	2		12	79.0	2.5	/experiments/knapen_AOT/AOT_stimuli/rescaled_final/1580_rv.mp4	0.0	412.449453830719	0.10004901885986328
82	338.425185918808	fix_pre	0		120	80.0	2.5	/experiments/knapen_AOT/AOT_stimuli/rescaled_final/1247_fw.mp4	0.0	412.54950284957886	1.0001490116119385
82	339.4172809123993	pulse	0	t		80.0	2.5	/experiments/knapen_AOT/AOT_stimuli/rescaled_final/1247_fw.mp4	0.0	413.54159784317017	
82	339.4253349304199	movie	1		244	80.0	2.5	/experiments/knapen_AOT/AOT_stimuli/rescaled_final/1247_fw.mp4	0.0	413.5496518611908	2.5087480545043945
82	341.01813197135925	pulse	1	t		80.0	2.5	/experiments/knapen_AOT/AOT_stimuli/rescaled_final/1247_fw.mp4	0.0	415.1424489021301	
82	341.9340829849243	fix_post	2		12	80.0	2.5	/experiments/knapen_AOT/AOT_stimuli/rescaled_final/1247_fw.mp4	0.0	416.0583999156952	0.09996986389160156
83	342.0340528488159	fix_pre	0		120	81.0	2.5	/experiments/knapen_AOT/AOT_stimuli/rescaled_final/0359_rv.mp4	0.0	416.1583697795868	1.0001461505889893
83	342.61772084236145	pulse	0	t		81.0	2.5	/experiments/knapen_AOT/AOT_stimuli/rescaled_final/0359_rv.mp4	0.0	416.7420377731323	
83	343.0341989994049	movie	1		244	81.0	2.5	/experiments/knapen_AOT/AOT_stimuli/rescaled_final/0359_rv.mp4	0.0	417.1585159301758	2.500377893447876
83	344.2139849662781	pulse	1	t		81.0	2.5	/experiments/knapen_AOT/AOT_stimuli/rescaled_final/0359_rv.mp4	0.0	418.33830189704895	
83	345.5345768928528	fix_post	2		12	81.0	2.5	/experiments/knapen_AOT/AOT_stimuli/rescaled_final/0359_rv.mp4	0.0	419.65889382362366	0.10000395774841309
84	345.6345808506012	fix_pre	0		120	82.0	2.5	/experiments/knapen_AOT/AOT_stimuli/rescaled_final/0618_fw.mp4	0.0	419.75889778137207	1.0001611709594727
84	345.8182818889618	pulse	0	t		82.0	2.5	/experiments/knapen_AOT/AOT_stimuli/rescaled_final/0618_fw.mp4	0.0	419.94259881973267	
84	346.63474202156067	movie	1		246	82.0	2.5	/experiments/knapen_AOT/AOT_stimuli/rescaled_final/0618_fw.mp4	0.0	420.75905895233154	2.500349998474121
84	347.4183678627014	pulse	1	t		82.0	2.5	/experiments/knapen_AOT/AOT_stimuli/rescaled_final/0618_fw.mp4	0.0	421.5426847934723	
84	349.0186998844147	pulse	1	t		82.0	2.5	/experiments/knapen_AOT/AOT_stimuli/rescaled_final/0618_fw.mp4	0.0	423.14301681518555	
84	349.1350920200348	fix_post	2		12	82.0	2.5	/experiments/knapen_AOT/AOT_stimuli/rescaled_final/0618_fw.mp4	0.0	423.25940895080566	0.1000528335571289
85	349.2351448535919	fix_pre	0		120	83.0	2.5	blank	1.0	423.3594617843628	1.0001041889190674
85	350.235249042511	movie	1		299	83.0	2.5	blank	1.0	424.35956597328186	2.4920849800109863
85	350.6189880371094	pulse	1	t		83.0	2.5	blank	1.0	424.74330496788025	
85	352.21918296813965	pulse	1	t		83.0	2.5	blank	1.0	426.3434998989105	
85	352.727334022522	fix_post	2		12	83.0	2.5	blank	1.0	426.85165095329285	0.10002899169921875
87	352.8273630142212	stim	0		1716					426.95167994499207	14.302186965942383
87	353.81930589675903	pulse	0	t						427.9436228275299	
87	355.4195919036865	pulse	0	t						429.5439088344574	
87	357.019896030426	pulse	0	t						431.1442129611969	
87	358.62013602256775	pulse	0	t						432.7444529533386	
87	360.2202379703522	pulse	0	t						434.34455490112305	
87	361.8205599784851	pulse	0	t						435.944876909256	
87	363.4207489490509	pulse	0	t						437.5450658798218	
87	365.0210819244385	pulse	0	t						439.14539885520935	
87	366.62130784988403	pulse	0	t						440.7456247806549	
