trial_nr	onset	event_type	phase	response	nr_frames	movie_index	movie_duration	movie_file	blank	onset_abs	duration
0	0.19161295890808105	stim	0		42					22.735416889190674	0.3499269485473633
0	0.5333788394927979	response	0	space						23.07718276977539	
1	0.5415399074554443	stim	0		4258					23.085343837738037	35.499125957489014
1	36.03090500831604	pulse	0	t						58.57470893859863	
1	36.04066586494446	stim	1		1715					58.58446979522705	14.299955129623413
1	37.622129917144775	pulse	1	t						60.16593384742737	
1	39.222434997558594	pulse	1	t						61.76623892784119	
1	40.82276487350464	pulse	1	t						63.36656880378723	
1	42.4230170249939	pulse	1	t						64.96682095527649	
1	44.02314782142639	pulse	1	t						66.56695175170898	
1	45.62336182594299	pulse	1	t						68.16716575622559	
1	47.223631858825684	pulse	1	t						69.76743578910828	
1	48.82390594482422	pulse	1	t						71.36770987510681	
2	50.34062099456787	fix_pre	0		11	0.0	2.5	/experiments/knapen_AOT/AOT_stimuli/rescaled_final/0055_rv.mp4	0.0	72.88442492485046	0.09163594245910645
2	50.42415690422058	pulse	0	t		0.0	2.5	/experiments/knapen_AOT/AOT_stimuli/rescaled_final/0055_rv.mp4	0.0	72.96796083450317	
2	50.43225693702698	movie	1		243	0.0	2.5	/experiments/knapen_AOT/AOT_stimuli/rescaled_final/0055_rv.mp4	0.0	72.97606086730957	2.508697986602783
2	52.0249547958374	pulse	1	t		0.0	2.5	/experiments/knapen_AOT/AOT_stimuli/rescaled_final/0055_rv.mp4	0.0	74.56875872612	
2	52.94095492362976	fix_post	2		12	0.0	2.5	/experiments/knapen_AOT/AOT_stimuli/rescaled_final/0055_rv.mp4	0.0	75.48475885391235	0.10004806518554688
3	53.04100298881531	fix_pre	0		120	1.0	2.5	/experiments/knapen_AOT/AOT_stimuli/rescaled_final/0932_rv.mp4	0.0	75.5848069190979	1.0001518726348877
3	53.6246178150177	pulse	0	t		1.0	2.5	/experiments/knapen_AOT/AOT_stimuli/rescaled_final/0932_rv.mp4	0.0	76.1684217453003	
3	54.041154861450195	movie	1		244	1.0	2.5	/experiments/knapen_AOT/AOT_stimuli/rescaled_final/0932_rv.mp4	0.0	76.58495879173279	2.5003790855407715
3	55.22502899169922	pulse	1	t		1.0	2.5	/experiments/knapen_AOT/AOT_stimuli/rescaled_final/0932_rv.mp4	0.0	77.76883292198181	
3	56.54153394699097	fix_post	2		12	1.0	2.5	/experiments/knapen_AOT/AOT_stimuli/rescaled_final/0932_rv.mp4	0.0	79.08533787727356	0.10002493858337402
4	56.64155888557434	fix_pre	0		120	2.0	2.5	/experiments/knapen_AOT/AOT_stimuli/rescaled_final/1302_fw.mp4	0.0	79.18536281585693	1.0001709461212158
4	56.825156927108765	pulse	0	t		2.0	2.5	/experiments/knapen_AOT/AOT_stimuli/rescaled_final/1302_fw.mp4	0.0	79.36896085739136	
4	57.64172983169556	movie	1		243	2.0	2.5	/experiments/knapen_AOT/AOT_stimuli/rescaled_final/1302_fw.mp4	0.0	80.18553376197815	2.5003340244293213
4	58.42528581619263	pulse	1	t		2.0	2.5	/experiments/knapen_AOT/AOT_stimuli/rescaled_final/1302_fw.mp4	0.0	80.96908974647522	
4	60.025622844696045	pulse	1	t		2.0	2.5	/experiments/knapen_AOT/AOT_stimuli/rescaled_final/1302_fw.mp4	0.0	82.56942677497864	
4	60.14206385612488	fix_post	2		12	2.0	2.5	/experiments/knapen_AOT/AOT_stimuli/rescaled_final/1302_fw.mp4	0.0	82.68586778640747	0.09998416900634766
5	60.242048025131226	fix_pre	0		120	3.0	2.5	/experiments/knapen_AOT/AOT_stimuli/rescaled_final/0905_fw.mp4	0.0	82.78585195541382	1.0001559257507324
5	61.24220395088196	movie	1		246	3.0	2.5	/experiments/knapen_AOT/AOT_stimuli/rescaled_final/0905_fw.mp4	0.0	83.78600788116455	2.492048978805542
5	61.62645196914673	pulse	1	t		3.0	2.5	/experiments/knapen_AOT/AOT_stimuli/rescaled_final/0905_fw.mp4	0.0	84.17025589942932	
5	63.22603893280029	pulse	1	t		3.0	2.5	/experiments/knapen_AOT/AOT_stimuli/rescaled_final/0905_fw.mp4	0.0	85.76984286308289	
5	63.7342529296875	fix_post	2		12	3.0	2.5	/experiments/knapen_AOT/AOT_stimuli/rescaled_final/0905_fw.mp4	0.0	86.27805685997009	0.10002398490905762
6	63.83427691459656	fix_pre	0		117	4.0	2.5	/experiments/knapen_AOT/AOT_stimuli/rescaled_final/1625_rv.mp4	0.0	86.37808084487915	1.0001940727233887
6	64.82622385025024	pulse	0	t		4.0	2.5	/experiments/knapen_AOT/AOT_stimuli/rescaled_final/1625_rv.mp4	0.0	87.37002778053284	
6	64.83447098731995	movie	1		246	4.0	2.5	/experiments/knapen_AOT/AOT_stimuli/rescaled_final/1625_rv.mp4	0.0	87.37827491760254	2.5086519718170166
6	66.42729592323303	pulse	1	t		4.0	2.5	/experiments/knapen_AOT/AOT_stimuli/rescaled_final/1625_rv.mp4	0.0	88.97109985351562	
6	67.34312295913696	fix_post	2		12	4.0	2.5	/experiments/knapen_AOT/AOT_stimuli/rescaled_final/1625_rv.mp4	0.0	89.88692688941956	0.10000896453857422
7	67.44313192367554	fix_pre	0		120	5.0	2.5	/experiments/knapen_AOT/AOT_stimuli/rescaled_final/1187_fw.mp4	0.0	89.98693585395813	1.0001449584960938
7	68.02675580978394	pulse	0	t		5.0	2.5	/experiments/knapen_AOT/AOT_stimuli/rescaled_final/1187_fw.mp4	0.0	90.57055974006653	
7	68.44327688217163	movie	1		243	5.0	2.5	/experiments/knapen_AOT/AOT_stimuli/rescaled_final/1187_fw.mp4	0.0	90.98708081245422	2.5004029273986816
7	69.62715983390808	pulse	1	t		5.0	2.5	/experiments/knapen_AOT/AOT_stimuli/rescaled_final/1187_fw.mp4	0.0	92.17096376419067	
7	70.94367980957031	fix_post	2		12	5.0	2.5	/experiments/knapen_AOT/AOT_stimuli/rescaled_final/1187_fw.mp4	0.0	93.4874837398529	0.09998512268066406
8	71.04366493225098	fix_pre	0		120	6.0	2.5	/experiments/knapen_AOT/AOT_stimuli/rescaled_final/2110_rv.mp4	0.0	93.58746886253357	1.0001919269561768
8	71.2272047996521	pulse	0	t		6.0	2.5	/experiments/knapen_AOT/AOT_stimuli/rescaled_final/2110_rv.mp4	0.0	93.77100872993469	
8	72.04385685920715	movie	1		244	6.0	2.5	/experiments/knapen_AOT/AOT_stimuli/rescaled_final/2110_rv.mp4	0.0	94.58766078948975	2.5003609657287598
8	72.81995797157288	pulse	1	t		6.0	2.5	/experiments/knapen_AOT/AOT_stimuli/rescaled_final/2110_rv.mp4	0.0	95.36376190185547	
8	74.42537879943848	pulse	1	t		6.0	2.5	/experiments/knapen_AOT/AOT_stimuli/rescaled_final/2110_rv.mp4	0.0	96.96918272972107	
8	74.54421782493591	fix_post	2		12	6.0	2.5	/experiments/knapen_AOT/AOT_stimuli/rescaled_final/2110_rv.mp4	0.0	97.0880217552185	0.10003805160522461
9	74.64425587654114	fix_pre	0		120	7.0	2.5	blank	1.0	97.18805980682373	1.0000901222229004
9	75.64434599876404	movie	1		299	7.0	2.5	blank	1.0	98.18814992904663	2.492090940475464
9	76.02048683166504	pulse	1	t		7.0	2.5	blank	1.0	98.56429076194763	
9	77.62058091163635	pulse	1	t		7.0	2.5	blank	1.0	100.16438484191895	
9	78.1364369392395	fix_post	2		12	7.0	2.5	blank	1.0	100.6802408695221	0.09997200965881348
10	78.23640894889832	fix_pre	0		119	8.0	2.5	/experiments/knapen_AOT/AOT_stimuli/rescaled_final/0860_fw.mp4	0.0	100.78021287918091	0.9918899536132812
10	79.22003984451294	pulse	0	t		8.0	2.5	/experiments/knapen_AOT/AOT_stimuli/rescaled_final/0860_fw.mp4	0.0	101.76384377479553	
10	79.2282989025116	movie	1		245	8.0	2.5	/experiments/knapen_AOT/AOT_stimuli/rescaled_final/0860_fw.mp4	0.0	101.77210283279419	2.5086350440979004
10	80.8210129737854	pulse	1	t		8.0	2.5	/experiments/knapen_AOT/AOT_stimuli/rescaled_final/0860_fw.mp4	0.0	103.364816904068	
10	81.7369339466095	fix_post	2		12	8.0	2.5	/experiments/knapen_AOT/AOT_stimuli/rescaled_final/0860_fw.mp4	0.0	104.28073787689209	0.1000208854675293
11	81.83695483207703	fix_pre	0		120	9.0	2.5	/experiments/knapen_AOT/AOT_stimuli/rescaled_final/0961_fw.mp4	0.0	104.38075876235962	1.0001511573791504
11	82.42068290710449	pulse	0	t		9.0	2.5	/experiments/knapen_AOT/AOT_stimuli/rescaled_final/0961_fw.mp4	0.0	104.96448683738708	
11	82.83710598945618	movie	1		243	9.0	2.5	/experiments/knapen_AOT/AOT_stimuli/rescaled_final/0961_fw.mp4	0.0	105.38090991973877	2.5003559589385986
11	84.02092981338501	pulse	1	t		9.0	2.5	/experiments/knapen_AOT/AOT_stimuli/rescaled_final/0961_fw.mp4	0.0	106.5647337436676	
11	85.33746194839478	fix_post	2		12	9.0	2.5	/experiments/knapen_AOT/AOT_stimuli/rescaled_final/0961_fw.mp4	0.0	107.88126587867737	0.10007500648498535
12	85.43753695487976	fix_pre	0		120	10.0	2.5	/experiments/knapen_AOT/AOT_stimuli/rescaled_final/1261_fw.mp4	0.0	107.98134088516235	1.0001099109649658
12	85.62100100517273	pulse	0	t		10.0	2.5	/experiments/knapen_AOT/AOT_stimuli/rescaled_final/1261_fw.mp4	0.0	108.16480493545532	
12	86.43764686584473	movie	1		243	10.0	2.5	/experiments/knapen_AOT/AOT_stimuli/rescaled_final/1261_fw.mp4	0.0	108.98145079612732	2.500364065170288
12	87.22131896018982	pulse	1	t		10.0	2.5	/experiments/knapen_AOT/AOT_stimuli/rescaled_final/1261_fw.mp4	0.0	109.76512289047241	
12	88.82131290435791	pulse	1	t		10.0	2.5	/experiments/knapen_AOT/AOT_stimuli/rescaled_final/1261_fw.mp4	0.0	111.3651168346405	
12	88.93801093101501	fix_post	2		12	10.0	2.5	/experiments/knapen_AOT/AOT_stimuli/rescaled_final/1261_fw.mp4	0.0	111.48181486129761	0.10000491142272949
13	89.03801584243774	fix_pre	0		119	11.0	2.5	/experiments/knapen_AOT/AOT_stimuli/rescaled_final/1623_fw.mp4	0.0	111.58181977272034	0.9918570518493652
13	90.02987289428711	movie	1		244	11.0	2.5	/experiments/knapen_AOT/AOT_stimuli/rescaled_final/1623_fw.mp4	0.0	112.5736768245697	2.5003409385681152
13	90.42181992530823	pulse	1	t		11.0	2.5	/experiments/knapen_AOT/AOT_stimuli/rescaled_final/1623_fw.mp4	0.0	112.96562385559082	
13	92.02201795578003	pulse	1	t		11.0	2.5	/experiments/knapen_AOT/AOT_stimuli/rescaled_final/1623_fw.mp4	0.0	114.56582188606262	
13	92.53021383285522	fix_post	2		12	11.0	2.5	/experiments/knapen_AOT/AOT_stimuli/rescaled_final/1623_fw.mp4	0.0	115.07401776313782	0.10004806518554688
14	92.63026189804077	fix_pre	0		120	12.0	2.5	/experiments/knapen_AOT/AOT_stimuli/rescaled_final/1032_fw.mp4	0.0	115.17406582832336	1.0001630783081055
14	93.6222288608551	pulse	0	t		12.0	2.5	/experiments/knapen_AOT/AOT_stimuli/rescaled_final/1032_fw.mp4	0.0	116.1660327911377	
14	93.63042497634888	movie	1		244	12.0	2.5	/experiments/knapen_AOT/AOT_stimuli/rescaled_final/1032_fw.mp4	0.0	116.17422890663147	2.5086569786071777
14	95.22290992736816	pulse	1	t		12.0	2.5	/experiments/knapen_AOT/AOT_stimuli/rescaled_final/1032_fw.mp4	0.0	117.76671385765076	
14	96.13908195495605	fix_post	2		12	12.0	2.5	/experiments/knapen_AOT/AOT_stimuli/rescaled_final/1032_fw.mp4	0.0	118.68288588523865	0.10005497932434082
15	96.2391369342804	fix_pre	0		120	13.0	2.5	/experiments/knapen_AOT/AOT_stimuli/rescaled_final/0880_fw.mp4	0.0	118.78294086456299	1.0001029968261719
15	96.8226900100708	pulse	0	t		13.0	2.5	/experiments/knapen_AOT/AOT_stimuli/rescaled_final/0880_fw.mp4	0.0	119.3664939403534	
15	97.23923993110657	movie	1		244	13.0	2.5	/experiments/knapen_AOT/AOT_stimuli/rescaled_final/0880_fw.mp4	0.0	119.78304386138916	2.500433921813965
15	98.42301893234253	pulse	1	t		13.0	2.5	/experiments/knapen_AOT/AOT_stimuli/rescaled_final/0880_fw.mp4	0.0	120.96682286262512	
15	99.73967385292053	fix_post	2		12	13.0	2.5	/experiments/knapen_AOT/AOT_stimuli/rescaled_final/0880_fw.mp4	0.0	122.28347778320312	0.09996414184570312
16	99.83963799476624	fix_pre	0		120	14.0	2.5	blank	1.0	122.38344192504883	1.0001568794250488
16	100.02317190170288	pulse	0	t		14.0	2.5	blank	1.0	122.56697583198547	
16	100.83979487419128	movie	1		300	14.0	2.5	blank	1.0	123.38359880447388	2.500469923019409
16	101.62356495857239	pulse	1	t		14.0	2.5	blank	1.0	124.16736888885498	
16	103.22379899024963	pulse	1	t		14.0	2.5	blank	1.0	125.76760292053223	
16	103.3402647972107	fix_post	2		12	14.0	2.5	blank	1.0	125.88406872749329	0.0999441146850586
17	103.44020891189575	fix_pre	0		119	15.0	2.5	/experiments/knapen_AOT/AOT_stimuli/rescaled_final/1232_fw.mp4	0.0	125.98401284217834	0.9917619228363037
17	104.43197083473206	movie	1		244	15.0	2.5	/experiments/knapen_AOT/AOT_stimuli/rescaled_final/1232_fw.mp4	0.0	126.97577476501465	2.500408172607422
17	104.82404279708862	pulse	1	t		15.0	2.5	/experiments/knapen_AOT/AOT_stimuli/rescaled_final/1232_fw.mp4	0.0	127.36784672737122	
17	106.42414402961731	pulse	1	t		15.0	2.5	/experiments/knapen_AOT/AOT_stimuli/rescaled_final/1232_fw.mp4	0.0	128.9679479598999	
17	106.93237900733948	fix_post	2		12	15.0	2.5	/experiments/knapen_AOT/AOT_stimuli/rescaled_final/1232_fw.mp4	0.0	129.47618293762207	0.09998893737792969
18	107.03236794471741	fix_pre	0		120	16.0	2.5	/experiments/knapen_AOT/AOT_stimuli/rescaled_final/0490_rv.mp4	0.0	129.576171875	1.0001468658447266
18	108.02449989318848	pulse	0	t		16.0	2.5	/experiments/knapen_AOT/AOT_stimuli/rescaled_final/0490_rv.mp4	0.0	130.56830382347107	
18	108.03251481056213	movie	1		245	16.0	2.5	/experiments/knapen_AOT/AOT_stimuli/rescaled_final/0490_rv.mp4	0.0	130.57631874084473	2.5087242126464844
18	109.62591695785522	pulse	1	t		16.0	2.5	/experiments/knapen_AOT/AOT_stimuli/rescaled_final/0490_rv.mp4	0.0	132.16972088813782	
18	110.54123902320862	fix_post	2		12	16.0	2.5	/experiments/knapen_AOT/AOT_stimuli/rescaled_final/0490_rv.mp4	0.0	133.0850429534912	0.10004878044128418
19	110.6412878036499	fix_pre	0		120	17.0	2.5	/experiments/knapen_AOT/AOT_stimuli/rescaled_final/0761_rv.mp4	0.0	133.1850917339325	1.000115156173706
19	111.22496581077576	pulse	0	t		17.0	2.5	/experiments/knapen_AOT/AOT_stimuli/rescaled_final/0761_rv.mp4	0.0	133.76876974105835	
19	111.64140295982361	movie	1		245	17.0	2.5	/experiments/knapen_AOT/AOT_stimuli/rescaled_final/0761_rv.mp4	0.0	134.1852068901062	2.500385046005249
19	112.8251519203186	pulse	1	t		17.0	2.5	/experiments/knapen_AOT/AOT_stimuli/rescaled_final/0761_rv.mp4	0.0	135.3689558506012	
19	114.14178800582886	fix_post	2		12	17.0	2.5	/experiments/knapen_AOT/AOT_stimuli/rescaled_final/0761_rv.mp4	0.0	136.68559193611145	0.09999799728393555
20	114.2417860031128	fix_pre	0		120	18.0	2.5	/experiments/knapen_AOT/AOT_stimuli/rescaled_final/0527_fw.mp4	0.0	136.78558993339539	1.0001649856567383
20	114.42539596557617	pulse	0	t		18.0	2.5	/experiments/knapen_AOT/AOT_stimuli/rescaled_final/0527_fw.mp4	0.0	136.96919989585876	
20	115.24195098876953	movie	1		243	18.0	2.5	/experiments/knapen_AOT/AOT_stimuli/rescaled_final/0527_fw.mp4	0.0	137.78575491905212	2.500396966934204
20	116.02564096450806	pulse	1	t		18.0	2.5	/experiments/knapen_AOT/AOT_stimuli/rescaled_final/0527_fw.mp4	0.0	138.56944489479065	
20	117.62568998336792	pulse	1	t		18.0	2.5	/experiments/knapen_AOT/AOT_stimuli/rescaled_final/0527_fw.mp4	0.0	140.1694939136505	
20	117.74234795570374	fix_post	2		12	18.0	2.5	/experiments/knapen_AOT/AOT_stimuli/rescaled_final/0527_fw.mp4	0.0	140.28615188598633	0.10001492500305176
21	117.84236288070679	fix_pre	0		120	19.0	2.5	/experiments/knapen_AOT/AOT_stimuli/rescaled_final/0288_fw.mp4	0.0	140.38616681098938	1.000136137008667
21	118.84249901771545	movie	1		244	19.0	2.5	/experiments/knapen_AOT/AOT_stimuli/rescaled_final/0288_fw.mp4	0.0	141.38630294799805	2.492011785507202
21	119.22662591934204	pulse	1	t		19.0	2.5	/experiments/knapen_AOT/AOT_stimuli/rescaled_final/0288_fw.mp4	0.0	141.77042984962463	
21	120.82630681991577	pulse	1	t		19.0	2.5	/experiments/knapen_AOT/AOT_stimuli/rescaled_final/0288_fw.mp4	0.0	143.37011075019836	
21	121.33451080322266	fix_post	2		12	19.0	2.5	/experiments/knapen_AOT/AOT_stimuli/rescaled_final/0288_fw.mp4	0.0	143.87831473350525	0.10001802444458008
22	121.43452882766724	fix_pre	0		118	20.0	2.5	/experiments/knapen_AOT/AOT_stimuli/rescaled_final/1202_rv.mp4	0.0	143.97833275794983	1.0001661777496338
22	122.42658996582031	pulse	0	t		20.0	2.5	/experiments/knapen_AOT/AOT_stimuli/rescaled_final/1202_rv.mp4	0.0	144.9703938961029	
22	122.43469500541687	movie	1		245	20.0	2.5	/experiments/knapen_AOT/AOT_stimuli/rescaled_final/1202_rv.mp4	0.0	144.97849893569946	2.5087718963623047
22	124.02816700935364	pulse	1	t		20.0	2.5	/experiments/knapen_AOT/AOT_stimuli/rescaled_final/1202_rv.mp4	0.0	146.57197093963623	
22	124.94346690177917	fix_post	2		12	20.0	2.5	/experiments/knapen_AOT/AOT_stimuli/rescaled_final/1202_rv.mp4	0.0	147.48727083206177	0.09997010231018066
23	125.04343700408936	fix_pre	0		120	21.0	2.5	blank	1.0	147.58724093437195	1.0001308917999268
23	125.62705993652344	pulse	0	t		21.0	2.5	blank	1.0	148.17086386680603	
23	126.04356789588928	movie	1		300	21.0	2.5	blank	1.0	148.58737182617188	2.500365972518921
23	127.22723984718323	pulse	1	t		21.0	2.5	blank	1.0	149.77104377746582	
23	128.5439338684082	fix_post	2		12	21.0	2.5	blank	1.0	151.0877377986908	0.10002803802490234
24	128.6439619064331	fix_pre	0		120	22.0	2.5	/experiments/knapen_AOT/AOT_stimuli/rescaled_final/0958_fw.mp4	0.0	151.1877658367157	1.0001599788665771
24	128.82759189605713	pulse	0	t		22.0	2.5	/experiments/knapen_AOT/AOT_stimuli/rescaled_final/0958_fw.mp4	0.0	151.37139582633972	
24	129.64412188529968	movie	1		243	22.0	2.5	/experiments/knapen_AOT/AOT_stimuli/rescaled_final/0958_fw.mp4	0.0	152.18792581558228	2.5003929138183594
24	130.4278438091278	pulse	1	t		22.0	2.5	/experiments/knapen_AOT/AOT_stimuli/rescaled_final/0958_fw.mp4	0.0	152.9716477394104	
24	132.0279438495636	pulse	1	t		22.0	2.5	/experiments/knapen_AOT/AOT_stimuli/rescaled_final/0958_fw.mp4	0.0	154.5717477798462	
24	132.14451479911804	fix_post	2		12	22.0	2.5	/experiments/knapen_AOT/AOT_stimuli/rescaled_final/0958_fw.mp4	0.0	154.68831872940063	0.10002803802490234
25	132.24454283714294	fix_pre	0		120	23.0	2.5	/experiments/knapen_AOT/AOT_stimuli/rescaled_final/1175_rv.mp4	0.0	154.78834676742554	1.0001161098480225
25	133.24465894699097	movie	1		243	23.0	2.5	/experiments/knapen_AOT/AOT_stimuli/rescaled_final/1175_rv.mp4	0.0	155.78846287727356	2.492042064666748
25	133.62888193130493	pulse	1	t		23.0	2.5	/experiments/knapen_AOT/AOT_stimuli/rescaled_final/1175_rv.mp4	0.0	156.17268586158752	
25	135.22102785110474	pulse	1	t		23.0	2.5	/experiments/knapen_AOT/AOT_stimuli/rescaled_final/1175_rv.mp4	0.0	157.76483178138733	
25	135.73670101165771	fix_post	2		12	23.0	2.5	/experiments/knapen_AOT/AOT_stimuli/rescaled_final/1175_rv.mp4	0.0	158.2805049419403	0.0999908447265625
26	135.83669185638428	fix_pre	0		120	24.0	2.5	/experiments/knapen_AOT/AOT_stimuli/rescaled_final/1761_rv.mp4	0.0	158.38049578666687	1.000154972076416
26	136.8212149143219	pulse	0	t		24.0	2.5	/experiments/knapen_AOT/AOT_stimuli/rescaled_final/1761_rv.mp4	0.0	159.3650188446045	
26	136.8368468284607	movie	1		245	24.0	2.5	/experiments/knapen_AOT/AOT_stimuli/rescaled_final/1761_rv.mp4	0.0	159.3806507587433	2.508679151535034
26	138.42938685417175	pulse	1	t		24.0	2.5	/experiments/knapen_AOT/AOT_stimuli/rescaled_final/1761_rv.mp4	0.0	160.97319078445435	
26	139.34552597999573	fix_post	2		12	24.0	2.5	/experiments/knapen_AOT/AOT_stimuli/rescaled_final/1761_rv.mp4	0.0	161.88932991027832	0.1000359058380127
27	139.44556188583374	fix_pre	0		120	25.0	2.5	/experiments/knapen_AOT/AOT_stimuli/rescaled_final/1192_fw.mp4	0.0	161.98936581611633	1.0002081394195557
27	140.0208878517151	pulse	0	t		25.0	2.5	/experiments/knapen_AOT/AOT_stimuli/rescaled_final/1192_fw.mp4	0.0	162.56469178199768	
27	140.4457700252533	movie	1		243	25.0	2.5	/experiments/knapen_AOT/AOT_stimuli/rescaled_final/1192_fw.mp4	0.0	162.9895739555359	2.5003139972686768
27	141.62152695655823	pulse	1	t		25.0	2.5	/experiments/knapen_AOT/AOT_stimuli/rescaled_final/1192_fw.mp4	0.0	164.16533088684082	
27	142.94608402252197	fix_post	2		12	25.0	2.5	/experiments/knapen_AOT/AOT_stimuli/rescaled_final/1192_fw.mp4	0.0	165.48988795280457	0.1000068187713623
28	143.04609084129333	fix_pre	0		120	26.0	2.5	/experiments/knapen_AOT/AOT_stimuli/rescaled_final/1349_rv.mp4	0.0	165.58989477157593	1.0001771450042725
28	143.2213008403778	pulse	0	t		26.0	2.5	/experiments/knapen_AOT/AOT_stimuli/rescaled_final/1349_rv.mp4	0.0	165.7651047706604	
28	144.0462679862976	movie	1		244	26.0	2.5	/experiments/knapen_AOT/AOT_stimuli/rescaled_final/1349_rv.mp4	0.0	166.5900719165802	2.5003609657287598
28	144.82156896591187	pulse	1	t		26.0	2.5	/experiments/knapen_AOT/AOT_stimuli/rescaled_final/1349_rv.mp4	0.0	167.36537289619446	
28	146.42180180549622	pulse	1	t		26.0	2.5	/experiments/knapen_AOT/AOT_stimuli/rescaled_final/1349_rv.mp4	0.0	168.9656057357788	
28	146.54662895202637	fix_post	2		12	26.0	2.5	/experiments/knapen_AOT/AOT_stimuli/rescaled_final/1349_rv.mp4	0.0	169.09043288230896	0.10002899169921875
29	146.6466579437256	fix_pre	0		120	27.0	2.5	/experiments/knapen_AOT/AOT_stimuli/rescaled_final/1601_fw.mp4	0.0	169.19046187400818	1.0001749992370605
29	147.64683294296265	movie	1		242	27.0	2.5	/experiments/knapen_AOT/AOT_stimuli/rescaled_final/1601_fw.mp4	0.0	170.19063687324524	2.4920129776000977
29	148.02203392982483	pulse	1	t		27.0	2.5	/experiments/knapen_AOT/AOT_stimuli/rescaled_final/1601_fw.mp4	0.0	170.56583786010742	
29	149.62246084213257	pulse	1	t		27.0	2.5	/experiments/knapen_AOT/AOT_stimuli/rescaled_final/1601_fw.mp4	0.0	172.16626477241516	
29	150.13884592056274	fix_post	2		12	27.0	2.5	/experiments/knapen_AOT/AOT_stimuli/rescaled_final/1601_fw.mp4	0.0	172.68264985084534	0.09996891021728516
30	150.23881483078003	fix_pre	0		119	28.0	2.5	blank	1.0	172.78261876106262	0.991840124130249
30	151.2225079536438	pulse	0	t		28.0	2.5	blank	1.0	173.7663118839264	
30	151.23065495491028	movie	1		301	28.0	2.5	blank	1.0	173.77445888519287	2.50872802734375
30	152.82280802726746	pulse	1	t		28.0	2.5	blank	1.0	175.36661195755005	
30	153.73938298225403	fix_post	2		12	28.0	2.5	blank	1.0	176.28318691253662	0.09998393058776855
31	153.8393669128418	fix_pre	0		120	29.0	2.5	/experiments/knapen_AOT/AOT_stimuli/rescaled_final/2092_rv.mp4	0.0	176.3831708431244	1.0001769065856934
31	154.42303681373596	pulse	0	t		29.0	2.5	/experiments/knapen_AOT/AOT_stimuli/rescaled_final/2092_rv.mp4	0.0	176.96684074401855	
31	154.8395438194275	movie	1		245	29.0	2.5	/experiments/knapen_AOT/AOT_stimuli/rescaled_final/2092_rv.mp4	0.0	177.38334774971008	2.500378131866455
31	156.02329397201538	pulse	1	t		29.0	2.5	/experiments/knapen_AOT/AOT_stimuli/rescaled_final/2092_rv.mp4	0.0	178.56709790229797	
31	157.33992195129395	fix_post	2		12	29.0	2.5	/experiments/knapen_AOT/AOT_stimuli/rescaled_final/2092_rv.mp4	0.0	179.88372588157654	0.10002803802490234
32	157.43994998931885	fix_pre	0		120	30.0	2.5	/experiments/knapen_AOT/AOT_stimuli/rescaled_final/0918_fw.mp4	0.0	179.98375391960144	1.0001230239868164
32	157.6235408782959	pulse	0	t		30.0	2.5	/experiments/knapen_AOT/AOT_stimuli/rescaled_final/0918_fw.mp4	0.0	180.1673448085785	
32	158.44007301330566	movie	1		244	30.0	2.5	/experiments/knapen_AOT/AOT_stimuli/rescaled_final/0918_fw.mp4	0.0	180.98387694358826	2.500370979309082
32	159.22376799583435	pulse	1	t		30.0	2.5	/experiments/knapen_AOT/AOT_stimuli/rescaled_final/0918_fw.mp4	0.0	181.76757192611694	
32	160.8259449005127	pulse	1	t		30.0	2.5	/experiments/knapen_AOT/AOT_stimuli/rescaled_final/0918_fw.mp4	0.0	183.3697488307953	
32	160.94044399261475	fix_post	2		12	30.0	2.5	/experiments/knapen_AOT/AOT_stimuli/rescaled_final/0918_fw.mp4	0.0	183.48424792289734	0.10000395774841309
33	161.04044795036316	fix_pre	0		120	31.0	2.5	/experiments/knapen_AOT/AOT_stimuli/rescaled_final/1641_rv.mp4	0.0	183.58425188064575	1.000262975692749
33	162.0407109260559	movie	1		242	31.0	2.5	/experiments/knapen_AOT/AOT_stimuli/rescaled_final/1641_rv.mp4	0.0	184.5845148563385	2.4919989109039307
33	162.4248149394989	pulse	1	t		31.0	2.5	/experiments/knapen_AOT/AOT_stimuli/rescaled_final/1641_rv.mp4	0.0	184.9686188697815	
33	164.02455687522888	pulse	1	t		31.0	2.5	/experiments/knapen_AOT/AOT_stimuli/rescaled_final/1641_rv.mp4	0.0	186.56836080551147	
33	164.53270983695984	fix_post	2		12	31.0	2.5	/experiments/knapen_AOT/AOT_stimuli/rescaled_final/1641_rv.mp4	0.0	187.07651376724243	0.10003900527954102
34	164.63274884223938	fix_pre	0		120	32.0	2.5	/experiments/knapen_AOT/AOT_stimuli/rescaled_final/1474_fw.mp4	0.0	187.17655277252197	1.0000810623168945
34	165.62469601631165	pulse	0	t		32.0	2.5	/experiments/knapen_AOT/AOT_stimuli/rescaled_final/1474_fw.mp4	0.0	188.16849994659424	
34	165.63282990455627	movie	1		245	32.0	2.5	/experiments/knapen_AOT/AOT_stimuli/rescaled_final/1474_fw.mp4	0.0	188.17663383483887	2.5087060928344727
34	167.2256360054016	pulse	1	t		32.0	2.5	/experiments/knapen_AOT/AOT_stimuli/rescaled_final/1474_fw.mp4	0.0	189.7694399356842	
34	168.14153599739075	fix_post	2		12	32.0	2.5	/experiments/knapen_AOT/AOT_stimuli/rescaled_final/1474_fw.mp4	0.0	190.68533992767334	0.09997296333312988
35	168.24150896072388	fix_pre	0		120	33.0	2.5	/experiments/knapen_AOT/AOT_stimuli/rescaled_final/1595_fw.mp4	0.0	190.78531289100647	1.0001749992370605
35	168.82512784004211	pulse	0	t		33.0	2.5	/experiments/knapen_AOT/AOT_stimuli/rescaled_final/1595_fw.mp4	0.0	191.3689317703247	
35	169.24168395996094	movie	1		244	33.0	2.5	/experiments/knapen_AOT/AOT_stimuli/rescaled_final/1595_fw.mp4	0.0	191.78548789024353	2.5003578662872314
35	170.42552399635315	pulse	1	t		33.0	2.5	/experiments/knapen_AOT/AOT_stimuli/rescaled_final/1595_fw.mp4	0.0	192.96932792663574	
35	171.74204182624817	fix_post	2		12	33.0	2.5	/experiments/knapen_AOT/AOT_stimuli/rescaled_final/1595_fw.mp4	0.0	194.28584575653076	0.10002398490905762
36	171.84206581115723	fix_pre	0		120	34.0	2.5	blank	1.0	194.38586974143982	1.0001649856567383
36	172.0256907939911	pulse	0	t		34.0	2.5	blank	1.0	194.56949472427368	
36	172.84223079681396	movie	1		300	34.0	2.5	blank	1.0	195.38603472709656	2.5003490447998047
36	173.62585496902466	pulse	1	t		34.0	2.5	blank	1.0	196.16965889930725	
36	175.22600483894348	pulse	1	t		34.0	2.5	blank	1.0	197.76980876922607	
36	175.34257984161377	fix_post	2		12	34.0	2.5	blank	1.0	197.88638377189636	0.10002899169921875
37	175.442608833313	fix_pre	0		119	35.0	2.5	/experiments/knapen_AOT/AOT_stimuli/rescaled_final/2052_fw.mp4	0.0	197.98641276359558	0.9918241500854492
37	176.43443298339844	movie	1		244	35.0	2.5	/experiments/knapen_AOT/AOT_stimuli/rescaled_final/2052_fw.mp4	0.0	198.97823691368103	2.500427007675171
37	176.8265278339386	pulse	1	t		35.0	2.5	/experiments/knapen_AOT/AOT_stimuli/rescaled_final/2052_fw.mp4	0.0	199.3703317642212	
37	178.42660689353943	pulse	1	t		35.0	2.5	/experiments/knapen_AOT/AOT_stimuli/rescaled_final/2052_fw.mp4	0.0	200.97041082382202	
37	178.9348599910736	fix_post	2		12	35.0	2.5	/experiments/knapen_AOT/AOT_stimuli/rescaled_final/2052_fw.mp4	0.0	201.4786639213562	0.09999394416809082
38	179.0348539352417	fix_pre	0		120	36.0	2.5	/experiments/knapen_AOT/AOT_stimuli/rescaled_final/0249_rv.mp4	0.0	201.5786578655243	1.000093936920166
38	180.02682900428772	pulse	0	t		36.0	2.5	/experiments/knapen_AOT/AOT_stimuli/rescaled_final/0249_rv.mp4	0.0	202.5706329345703	
38	180.03494787216187	movie	1		245	36.0	2.5	/experiments/knapen_AOT/AOT_stimuli/rescaled_final/0249_rv.mp4	0.0	202.57875180244446	2.508708953857422
38	181.62764692306519	pulse	1	t		36.0	2.5	/experiments/knapen_AOT/AOT_stimuli/rescaled_final/0249_rv.mp4	0.0	204.17145085334778	
38	182.5436568260193	fix_post	2		9	36.0	2.5	/experiments/knapen_AOT/AOT_stimuli/rescaled_final/0249_rv.mp4	0.0	205.08746075630188	0.10005617141723633
39	182.64371299743652	fix_pre	0		120	37.0	2.5	/experiments/knapen_AOT/AOT_stimuli/rescaled_final/0880_fw.mp4	0.0	205.18751692771912	1.0001389980316162
39	183.22732186317444	pulse	0	t		37.0	2.5	/experiments/knapen_AOT/AOT_stimuli/rescaled_final/0880_fw.mp4	0.0	205.77112579345703	
39	183.64385199546814	movie	1		244	37.0	2.5	/experiments/knapen_AOT/AOT_stimuli/rescaled_final/0880_fw.mp4	0.0	206.18765592575073	2.50036883354187
39	184.82766890525818	pulse	1	t		37.0	2.5	/experiments/knapen_AOT/AOT_stimuli/rescaled_final/0880_fw.mp4	0.0	207.37147283554077	
39	186.14422082901	fix_post	2		12	37.0	2.5	/experiments/knapen_AOT/AOT_stimuli/rescaled_final/0880_fw.mp4	0.0	208.6880247592926	0.10012412071228027
40	186.2443449497223	fix_pre	0		120	38.0	2.5	/experiments/knapen_AOT/AOT_stimuli/rescaled_final/1643_rv.mp4	0.0	208.78814888000488	1.00006103515625
40	186.42020797729492	pulse	0	t		38.0	2.5	/experiments/knapen_AOT/AOT_stimuli/rescaled_final/1643_rv.mp4	0.0	208.96401190757751	
40	187.24440598487854	movie	1		243	38.0	2.5	/experiments/knapen_AOT/AOT_stimuli/rescaled_final/1643_rv.mp4	0.0	209.78820991516113	2.5003349781036377
40	188.0207118988037	pulse	1	t		38.0	2.5	/experiments/knapen_AOT/AOT_stimuli/rescaled_final/1643_rv.mp4	0.0	210.5645158290863	
40	189.62808179855347	pulse	1	t		38.0	2.5	/experiments/knapen_AOT/AOT_stimuli/rescaled_final/1643_rv.mp4	0.0	212.17188572883606	
40	189.74474096298218	fix_post	2		12	38.0	2.5	/experiments/knapen_AOT/AOT_stimuli/rescaled_final/1643_rv.mp4	0.0	212.28854489326477	0.10001802444458008
41	189.84475898742676	fix_pre	0		119	39.0	2.5	/experiments/knapen_AOT/AOT_stimuli/rescaled_final/1601_fw.mp4	0.0	212.38856291770935	0.9918060302734375
41	190.8365650177002	movie	1		243	39.0	2.5	/experiments/knapen_AOT/AOT_stimuli/rescaled_final/1601_fw.mp4	0.0	213.3803689479828	2.5003747940063477
41	191.22071480751038	pulse	1	t		39.0	2.5	/experiments/knapen_AOT/AOT_stimuli/rescaled_final/1601_fw.mp4	0.0	213.76451873779297	
41	192.820485830307	pulse	1	t		39.0	2.5	/experiments/knapen_AOT/AOT_stimuli/rescaled_final/1601_fw.mp4	0.0	215.3642897605896	
41	193.33693981170654	fix_post	2		12	39.0	2.5	/experiments/knapen_AOT/AOT_stimuli/rescaled_final/1601_fw.mp4	0.0	215.88074374198914	0.10004401206970215
42	193.43698382377625	fix_pre	0		119	40.0	2.5	/experiments/knapen_AOT/AOT_stimuli/rescaled_final/0949_fw.mp4	0.0	215.98078775405884	0.9917981624603271
42	194.42056584358215	pulse	0	t		40.0	2.5	/experiments/knapen_AOT/AOT_stimuli/rescaled_final/0949_fw.mp4	0.0	216.96436977386475	
42	194.42878198623657	movie	1		245	40.0	2.5	/experiments/knapen_AOT/AOT_stimuli/rescaled_final/0949_fw.mp4	0.0	216.97258591651917	2.5086770057678223
42	196.02170491218567	pulse	1	t		40.0	2.5	/experiments/knapen_AOT/AOT_stimuli/rescaled_final/0949_fw.mp4	0.0	218.56550884246826	
42	196.9374589920044	fix_post	2		12	40.0	2.5	/experiments/knapen_AOT/AOT_stimuli/rescaled_final/0949_fw.mp4	0.0	219.481262922287	0.10006499290466309
43	197.03752398490906	fix_pre	0		120	41.0	2.5	blank	1.0	219.58132791519165	1.0001678466796875
43	197.62109279632568	pulse	0	t		41.0	2.5	blank	1.0	220.16489672660828	
43	198.03769183158875	movie	1		300	41.0	2.5	blank	1.0	220.58149576187134	2.5003139972686768
43	199.22138690948486	pulse	1	t		41.0	2.5	blank	1.0	221.76519083976746	
43	200.53800582885742	fix_post	2		12	41.0	2.5	blank	1.0	223.08180975914001	0.10004496574401855
44	200.63805079460144	fix_pre	0		120	42.0	2.5	/experiments/knapen_AOT/AOT_stimuli/rescaled_final/2146_fw.mp4	0.0	223.18185472488403	1.000129222869873
44	200.8217008113861	pulse	0	t		42.0	2.5	/experiments/knapen_AOT/AOT_stimuli/rescaled_final/2146_fw.mp4	0.0	223.3655047416687	
44	201.6381800174713	movie	1		244	42.0	2.5	/experiments/knapen_AOT/AOT_stimuli/rescaled_final/2146_fw.mp4	0.0	224.1819839477539	2.5003910064697266
44	202.4218349456787	pulse	1	t		42.0	2.5	/experiments/knapen_AOT/AOT_stimuli/rescaled_final/2146_fw.mp4	0.0	224.9656388759613	
44	204.02196884155273	pulse	1	t		42.0	2.5	/experiments/knapen_AOT/AOT_stimuli/rescaled_final/2146_fw.mp4	0.0	226.56577277183533	
44	204.13857102394104	fix_post	2		12	42.0	2.5	/experiments/knapen_AOT/AOT_stimuli/rescaled_final/2146_fw.mp4	0.0	226.68237495422363	0.10001778602600098
45	204.23858880996704	fix_pre	0		120	43.0	2.5	/experiments/knapen_AOT/AOT_stimuli/rescaled_final/0623_rv.mp4	0.0	226.78239274024963	1.000115156173706
45	205.23870396614075	movie	1		242	43.0	2.5	/experiments/knapen_AOT/AOT_stimuli/rescaled_final/0623_rv.mp4	0.0	227.78250789642334	2.492086887359619
45	205.62283492088318	pulse	1	t		43.0	2.5	/experiments/knapen_AOT/AOT_stimuli/rescaled_final/0623_rv.mp4	0.0	228.16663885116577	
45	207.22260785102844	pulse	1	t		43.0	2.5	/experiments/knapen_AOT/AOT_stimuli/rescaled_final/0623_rv.mp4	0.0	229.76641178131104	
45	207.73079085350037	fix_post	2		12	43.0	2.5	/experiments/knapen_AOT/AOT_stimuli/rescaled_final/0623_rv.mp4	0.0	230.27459478378296	0.10002899169921875
46	207.83081984519958	fix_pre	0		120	44.0	2.5	/experiments/knapen_AOT/AOT_stimuli/rescaled_final/1967_fw.mp4	0.0	230.37462377548218	1.000087022781372
46	208.82289385795593	pulse	0	t		44.0	2.5	/experiments/knapen_AOT/AOT_stimuli/rescaled_final/1967_fw.mp4	0.0	231.36669778823853	
46	208.83090686798096	movie	1		246	44.0	2.5	/experiments/knapen_AOT/AOT_stimuli/rescaled_final/1967_fw.mp4	0.0	231.37471079826355	2.5087621212005615
46	210.42749190330505	pulse	1	t		44.0	2.5	/experiments/knapen_AOT/AOT_stimuli/rescaled_final/1967_fw.mp4	0.0	232.97129583358765	
46	211.33966898918152	fix_post	2		12	44.0	2.5	/experiments/knapen_AOT/AOT_stimuli/rescaled_final/1967_fw.mp4	0.0	233.8834729194641	0.10000300407409668
47	211.43967199325562	fix_pre	0		120	45.0	2.5	/experiments/knapen_AOT/AOT_stimuli/rescaled_final/0093_fw.mp4	0.0	233.9834759235382	1.00016188621521
47	212.0232789516449	pulse	0	t		45.0	2.5	/experiments/knapen_AOT/AOT_stimuli/rescaled_final/0093_fw.mp4	0.0	234.5670828819275	
47	212.43983387947083	movie	1		245	45.0	2.5	/experiments/knapen_AOT/AOT_stimuli/rescaled_final/0093_fw.mp4	0.0	234.98363780975342	2.500343084335327
47	213.62360095977783	pulse	1	t		45.0	2.5	/experiments/knapen_AOT/AOT_stimuli/rescaled_final/0093_fw.mp4	0.0	236.16740489006042	
47	214.94017696380615	fix_post	2		12	45.0	2.5	/experiments/knapen_AOT/AOT_stimuli/rescaled_final/0093_fw.mp4	0.0	237.48398089408875	0.10009193420410156
48	215.04026889801025	fix_pre	0		120	46.0	2.5	/experiments/knapen_AOT/AOT_stimuli/rescaled_final/0186_rv.mp4	0.0	237.58407282829285	1.0000700950622559
48	215.2238528728485	pulse	0	t		46.0	2.5	/experiments/knapen_AOT/AOT_stimuli/rescaled_final/0186_rv.mp4	0.0	237.7676568031311	
48	216.0403389930725	movie	1		245	46.0	2.5	/experiments/knapen_AOT/AOT_stimuli/rescaled_final/0186_rv.mp4	0.0	238.5841429233551	2.500342845916748
48	216.82418489456177	pulse	1	t		46.0	2.5	/experiments/knapen_AOT/AOT_stimuli/rescaled_final/0186_rv.mp4	0.0	239.36798882484436	
48	218.42175889015198	pulse	1	t		46.0	2.5	/experiments/knapen_AOT/AOT_stimuli/rescaled_final/0186_rv.mp4	0.0	240.96556282043457	
48	218.54068183898926	fix_post	2		12	46.0	2.5	/experiments/knapen_AOT/AOT_stimuli/rescaled_final/0186_rv.mp4	0.0	241.08448576927185	0.10007500648498535
49	218.64075684547424	fix_pre	0		120	47.0	2.5	/experiments/knapen_AOT/AOT_stimuli/rescaled_final/1925_fw.mp4	0.0	241.18456077575684	1.0001111030578613
49	219.6408679485321	movie	1		242	47.0	2.5	/experiments/knapen_AOT/AOT_stimuli/rescaled_final/1925_fw.mp4	0.0	242.1846718788147	2.492037057876587
49	220.0248508453369	pulse	1	t		47.0	2.5	/experiments/knapen_AOT/AOT_stimuli/rescaled_final/1925_fw.mp4	0.0	242.5686547756195	
49	221.6248118877411	pulse	1	t		47.0	2.5	/experiments/knapen_AOT/AOT_stimuli/rescaled_final/1925_fw.mp4	0.0	244.16861581802368	
49	222.1329050064087	fix_post	2		12	47.0	2.5	/experiments/knapen_AOT/AOT_stimuli/rescaled_final/1925_fw.mp4	0.0	244.67670893669128	0.1000208854675293
50	222.23292589187622	fix_pre	0		120	48.0	2.5	blank	1.0	244.7767298221588	1.000143051147461
50	223.2250599861145	pulse	0	t		48.0	2.5	blank	1.0	245.7688639163971	
50	223.23306894302368	movie	1		301	48.0	2.5	blank	1.0	245.77687287330627	2.508708953857422
50	224.82515501976013	pulse	1	t		48.0	2.5	blank	1.0	247.36895895004272	
50	225.7417778968811	fix_post	2		12	48.0	2.5	blank	1.0	248.2855818271637	0.10006499290466309
51	225.84184288978577	fix_pre	0		120	49.0	2.5	/experiments/knapen_AOT/AOT_stimuli/rescaled_final/0519_fw.mp4	0.0	248.38564682006836	1.0001020431518555
51	226.42538380622864	pulse	0	t		49.0	2.5	/experiments/knapen_AOT/AOT_stimuli/rescaled_final/0519_fw.mp4	0.0	248.96918773651123	
51	226.84194493293762	movie	1		244	49.0	2.5	/experiments/knapen_AOT/AOT_stimuli/rescaled_final/0519_fw.mp4	0.0	249.38574886322021	2.5003879070281982
51	228.02578687667847	pulse	1	t		49.0	2.5	/experiments/knapen_AOT/AOT_stimuli/rescaled_final/0519_fw.mp4	0.0	250.56959080696106	
51	229.34233283996582	fix_post	2		12	49.0	2.5	/experiments/knapen_AOT/AOT_stimuli/rescaled_final/0519_fw.mp4	0.0	251.8861367702484	0.10004901885986328
52	229.44238185882568	fix_pre	0		120	50.0	2.5	/experiments/knapen_AOT/AOT_stimuli/rescaled_final/1178_fw.mp4	0.0	251.98618578910828	1.0001270771026611
52	229.62599897384644	pulse	0	t		50.0	2.5	/experiments/knapen_AOT/AOT_stimuli/rescaled_final/1178_fw.mp4	0.0	252.16980290412903	
52	230.44250893592834	movie	1		243	50.0	2.5	/experiments/knapen_AOT/AOT_stimuli/rescaled_final/1178_fw.mp4	0.0	252.98631286621094	2.500356912612915
52	231.2261459827423	pulse	1	t		50.0	2.5	/experiments/knapen_AOT/AOT_stimuli/rescaled_final/1178_fw.mp4	0.0	253.7699499130249	
52	232.82630801200867	pulse	1	t		50.0	2.5	/experiments/knapen_AOT/AOT_stimuli/rescaled_final/1178_fw.mp4	0.0	255.37011194229126	
52	232.94286584854126	fix_post	2		12	50.0	2.5	/experiments/knapen_AOT/AOT_stimuli/rescaled_final/1178_fw.mp4	0.0	255.48666977882385	0.10001397132873535
53	233.04287981987	fix_pre	0		120	51.0	2.5	/experiments/knapen_AOT/AOT_stimuli/rescaled_final/1262_rv.mp4	0.0	255.5866837501526	1.000143051147461
53	234.04302287101746	movie	1		243	51.0	2.5	/experiments/knapen_AOT/AOT_stimuli/rescaled_final/1262_rv.mp4	0.0	256.58682680130005	2.4920520782470703
53	234.42720198631287	pulse	1	t		51.0	2.5	/experiments/knapen_AOT/AOT_stimuli/rescaled_final/1262_rv.mp4	0.0	256.97100591659546	
53	236.0269808769226	pulse	1	t		51.0	2.5	/experiments/knapen_AOT/AOT_stimuli/rescaled_final/1262_rv.mp4	0.0	258.5707848072052	
53	236.53507494926453	fix_post	2		12	51.0	2.5	/experiments/knapen_AOT/AOT_stimuli/rescaled_final/1262_rv.mp4	0.0	259.0788788795471	0.0999760627746582
54	236.63505101203918	fix_pre	0		120	52.0	2.5	/experiments/knapen_AOT/AOT_stimuli/rescaled_final/1587_fw.mp4	0.0	259.1788549423218	1.0002028942108154
54	237.62713289260864	pulse	0	t		52.0	2.5	/experiments/knapen_AOT/AOT_stimuli/rescaled_final/1587_fw.mp4	0.0	260.17093682289124	
54	237.63525390625	movie	1		246	52.0	2.5	/experiments/knapen_AOT/AOT_stimuli/rescaled_final/1587_fw.mp4	0.0	260.1790578365326	2.508678913116455
54	239.2278769016266	pulse	1	t		52.0	2.5	/experiments/knapen_AOT/AOT_stimuli/rescaled_final/1587_fw.mp4	0.0	261.7716808319092	
54	240.14393281936646	fix_post	2		12	52.0	2.5	/experiments/knapen_AOT/AOT_stimuli/rescaled_final/1587_fw.mp4	0.0	262.68773674964905	0.10001420974731445
55	240.24394702911377	fix_pre	0		120	53.0	2.5	/experiments/knapen_AOT/AOT_stimuli/rescaled_final/0685_rv.mp4	0.0	262.78775095939636	1.0001718997955322
55	240.82000994682312	pulse	0	t		53.0	2.5	/experiments/knapen_AOT/AOT_stimuli/rescaled_final/0685_rv.mp4	0.0	263.3638138771057	
55	241.2441189289093	movie	1		245	53.0	2.5	/experiments/knapen_AOT/AOT_stimuli/rescaled_final/0685_rv.mp4	0.0	263.7879228591919	2.500377893447876
55	242.420156955719	pulse	1	t		53.0	2.5	/experiments/knapen_AOT/AOT_stimuli/rescaled_final/0685_rv.mp4	0.0	264.9639608860016	
55	243.74449682235718	fix_post	2		9	53.0	2.5	/experiments/knapen_AOT/AOT_stimuli/rescaled_final/0685_rv.mp4	0.0	266.28830075263977	0.10002708435058594
56	243.84452390670776	fix_pre	0		120	54.0	2.5	blank	1.0	266.38832783699036	1.0001039505004883
56	244.02051401138306	pulse	0	t		54.0	2.5	blank	1.0	266.56431794166565	
56	244.84462785720825	movie	1		300	54.0	2.5	blank	1.0	267.38843178749084	2.5004091262817383
56	245.62069082260132	pulse	1	t		54.0	2.5	blank	1.0	268.1644947528839	
56	247.22009992599487	pulse	1	t		54.0	2.5	blank	1.0	269.76390385627747	
56	247.34503698349	fix_post	2		12	54.0	2.5	blank	1.0	269.8888409137726	0.10001087188720703
57	247.4450478553772	fix_pre	0		120	55.0	2.5	/experiments/knapen_AOT/AOT_stimuli/rescaled_final/0961_fw.mp4	0.0	269.9888517856598	1.0001280307769775
57	248.44517588615417	movie	1		242	55.0	2.5	/experiments/knapen_AOT/AOT_stimuli/rescaled_final/0961_fw.mp4	0.0	270.98897981643677	2.4920310974121094
57	248.82044982910156	pulse	1	t		55.0	2.5	/experiments/knapen_AOT/AOT_stimuli/rescaled_final/0961_fw.mp4	0.0	271.36425375938416	
57	250.42074489593506	pulse	1	t		55.0	2.5	/experiments/knapen_AOT/AOT_stimuli/rescaled_final/0961_fw.mp4	0.0	272.96454882621765	
57	250.93720698356628	fix_post	2		12	55.0	2.5	/experiments/knapen_AOT/AOT_stimuli/rescaled_final/0961_fw.mp4	0.0	273.4810109138489	0.1000678539276123
58	251.0372748374939	fix_pre	0		119	56.0	2.5	/experiments/knapen_AOT/AOT_stimuli/rescaled_final/1948_fw.mp4	0.0	273.5810787677765	0.9917471408843994
58	252.0209858417511	pulse	0	t		56.0	2.5	/experiments/knapen_AOT/AOT_stimuli/rescaled_final/1948_fw.mp4	0.0	274.5647897720337	
58	252.0290219783783	movie	1		245	56.0	2.5	/experiments/knapen_AOT/AOT_stimuli/rescaled_final/1948_fw.mp4	0.0	274.5728259086609	2.508718967437744
58	253.6217749118805	pulse	1	t		56.0	2.5	/experiments/knapen_AOT/AOT_stimuli/rescaled_final/1948_fw.mp4	0.0	276.1655788421631	
58	254.53774094581604	fix_post	2		12	56.0	2.5	/experiments/knapen_AOT/AOT_stimuli/rescaled_final/1948_fw.mp4	0.0	277.08154487609863	0.10004186630249023
59	254.63778281211853	fix_pre	0		120	57.0	2.5	/experiments/knapen_AOT/AOT_stimuli/rescaled_final/1144_rv.mp4	0.0	277.1815867424011	1.000148057937622
59	255.22136902809143	pulse	0	t		57.0	2.5	/experiments/knapen_AOT/AOT_stimuli/rescaled_final/1144_rv.mp4	0.0	277.765172958374	
59	255.63793087005615	movie	1		243	57.0	2.5	/experiments/knapen_AOT/AOT_stimuli/rescaled_final/1144_rv.mp4	0.0	278.18173480033875	2.5003559589385986
59	256.82170486450195	pulse	1	t		57.0	2.5	/experiments/knapen_AOT/AOT_stimuli/rescaled_final/1144_rv.mp4	0.0	279.36550879478455	
59	258.13828682899475	fix_post	2		12	57.0	2.5	/experiments/knapen_AOT/AOT_stimuli/rescaled_final/1144_rv.mp4	0.0	280.68209075927734	0.10002899169921875
60	258.23831582069397	fix_pre	0		120	58.0	2.5	/experiments/knapen_AOT/AOT_stimuli/rescaled_final/0582_fw.mp4	0.0	280.78211975097656	1.0001611709594727
60	258.4219059944153	pulse	0	t		58.0	2.5	/experiments/knapen_AOT/AOT_stimuli/rescaled_final/0582_fw.mp4	0.0	280.9657099246979	
60	259.23847699165344	movie	1		245	58.0	2.5	/experiments/knapen_AOT/AOT_stimuli/rescaled_final/0582_fw.mp4	0.0	281.78228092193604	2.500337839126587
60	260.0221118927002	pulse	1	t		58.0	2.5	/experiments/knapen_AOT/AOT_stimuli/rescaled_final/0582_fw.mp4	0.0	282.5659158229828	
60	261.622437953949	pulse	1	t		58.0	2.5	/experiments/knapen_AOT/AOT_stimuli/rescaled_final/0582_fw.mp4	0.0	284.16624188423157	
60	261.73881483078003	fix_post	2		12	58.0	2.5	/experiments/knapen_AOT/AOT_stimuli/rescaled_final/0582_fw.mp4	0.0	284.2826187610626	0.1000981330871582
61	261.8389129638672	fix_pre	0		120	59.0	2.5	/experiments/knapen_AOT/AOT_stimuli/rescaled_final/0761_rv.mp4	0.0	284.3827168941498	1.0000920295715332
61	262.8390049934387	movie	1		244	59.0	2.5	/experiments/knapen_AOT/AOT_stimuli/rescaled_final/0761_rv.mp4	0.0	285.3828089237213	2.49202299118042
61	263.22367882728577	pulse	1	t		59.0	2.5	/experiments/knapen_AOT/AOT_stimuli/rescaled_final/0761_rv.mp4	0.0	285.76748275756836	
61	264.82281589508057	pulse	1	t		59.0	2.5	/experiments/knapen_AOT/AOT_stimuli/rescaled_final/0761_rv.mp4	0.0	287.36661982536316	
61	265.33102798461914	fix_post	2		12	59.0	2.5	/experiments/knapen_AOT/AOT_stimuli/rescaled_final/0761_rv.mp4	0.0	287.87483191490173	0.10004186630249023
62	265.43106985092163	fix_pre	0		120	60.0	2.5	/experiments/knapen_AOT/AOT_stimuli/rescaled_final/1451_rv.mp4	0.0	287.9748737812042	1.0001399517059326
62	266.4230399131775	pulse	0	t		60.0	2.5	/experiments/knapen_AOT/AOT_stimuli/rescaled_final/1451_rv.mp4	0.0	288.9668438434601	
62	266.43120980262756	movie	1		244	60.0	2.5	/experiments/knapen_AOT/AOT_stimuli/rescaled_final/1451_rv.mp4	0.0	288.97501373291016	2.50868821144104
62	268.02430987358093	pulse	1	t		60.0	2.5	/experiments/knapen_AOT/AOT_stimuli/rescaled_final/1451_rv.mp4	0.0	290.5681138038635	
62	268.9398980140686	fix_post	2		12	60.0	2.5	/experiments/knapen_AOT/AOT_stimuli/rescaled_final/1451_rv.mp4	0.0	291.4837019443512	0.1000058650970459
63	269.03990387916565	fix_pre	0		120	61.0	2.5	/experiments/knapen_AOT/AOT_stimuli/rescaled_final/0249_fw.mp4	0.0	291.58370780944824	1.0001680850982666
63	269.6236310005188	pulse	0	t		61.0	2.5	/experiments/knapen_AOT/AOT_stimuli/rescaled_final/0249_fw.mp4	0.0	292.1674349308014	
63	270.0400719642639	movie	1		244	61.0	2.5	/experiments/knapen_AOT/AOT_stimuli/rescaled_final/0249_fw.mp4	0.0	292.5838758945465	2.500339984893799
63	271.2238848209381	pulse	1	t		61.0	2.5	/experiments/knapen_AOT/AOT_stimuli/rescaled_final/0249_fw.mp4	0.0	293.7676887512207	
63	272.5404119491577	fix_post	2		12	61.0	2.5	/experiments/knapen_AOT/AOT_stimuli/rescaled_final/0249_fw.mp4	0.0	295.0842158794403	0.10008597373962402
64	272.64049792289734	fix_pre	0		120	62.0	2.5	/experiments/knapen_AOT/AOT_stimuli/rescaled_final/1305_fw.mp4	0.0	295.18430185317993	1.0001189708709717
64	272.82409501075745	pulse	0	t		62.0	2.5	/experiments/knapen_AOT/AOT_stimuli/rescaled_final/1305_fw.mp4	0.0	295.36789894104004	
64	273.6406168937683	movie	1		243	62.0	2.5	/experiments/knapen_AOT/AOT_stimuli/rescaled_final/1305_fw.mp4	0.0	296.1844208240509	2.500365972518921
64	274.4242968559265	pulse	1	t		62.0	2.5	/experiments/knapen_AOT/AOT_stimuli/rescaled_final/1305_fw.mp4	0.0	296.9681007862091	
64	276.02429699897766	pulse	1	t		62.0	2.5	/experiments/knapen_AOT/AOT_stimuli/rescaled_final/1305_fw.mp4	0.0	298.56810092926025	
64	276.14098286628723	fix_post	2		12	62.0	2.5	/experiments/knapen_AOT/AOT_stimuli/rescaled_final/1305_fw.mp4	0.0	298.6847867965698	0.10001111030578613
65	276.240993976593	fix_pre	0		120	63.0	2.5	blank	1.0	298.7847979068756	1.0001609325408936
65	277.2411549091339	movie	1		299	63.0	2.5	blank	1.0	299.7849588394165	2.492037057876587
65	277.62483286857605	pulse	1	t		63.0	2.5	blank	1.0	300.16863679885864	
65	279.22494983673096	pulse	1	t		63.0	2.5	blank	1.0	301.76875376701355	
65	279.7331919670105	fix_post	2		12	63.0	2.5	blank	1.0	302.2769958972931	0.09998703002929688
66	279.8331789970398	fix_pre	0		120	64.0	2.5	/experiments/knapen_AOT/AOT_stimuli/rescaled_final/1263_rv.mp4	0.0	302.3769829273224	1.0002858638763428
66	280.82515501976013	pulse	0	t		64.0	2.5	/experiments/knapen_AOT/AOT_stimuli/rescaled_final/1263_rv.mp4	0.0	303.3689589500427	
66	280.83346486091614	movie	1		246	64.0	2.5	/experiments/knapen_AOT/AOT_stimuli/rescaled_final/1263_rv.mp4	0.0	303.37726879119873	2.5085761547088623
66	282.4257969856262	pulse	1	t		64.0	2.5	/experiments/knapen_AOT/AOT_stimuli/rescaled_final/1263_rv.mp4	0.0	304.9696009159088	
66	283.342041015625	fix_post	2		12	64.0	2.5	/experiments/knapen_AOT/AOT_stimuli/rescaled_final/1263_rv.mp4	0.0	305.8858449459076	0.10010385513305664
67	283.44214487075806	fix_pre	0		120	65.0	2.5	/experiments/knapen_AOT/AOT_stimuli/rescaled_final/0921_fw.mp4	0.0	305.98594880104065	1.0001530647277832
67	284.0258049964905	pulse	0	t		65.0	2.5	/experiments/knapen_AOT/AOT_stimuli/rescaled_final/0921_fw.mp4	0.0	306.56960892677307	
67	284.44229793548584	movie	1		245	65.0	2.5	/experiments/knapen_AOT/AOT_stimuli/rescaled_final/0921_fw.mp4	0.0	306.98610186576843	2.5003249645233154
67	285.6260359287262	pulse	1	t		65.0	2.5	/experiments/knapen_AOT/AOT_stimuli/rescaled_final/0921_fw.mp4	0.0	308.1698398590088	
67	286.94262290000916	fix_post	2		12	65.0	2.5	/experiments/knapen_AOT/AOT_stimuli/rescaled_final/0921_fw.mp4	0.0	309.48642683029175	0.09997296333312988
68	287.0425958633423	fix_pre	0		120	66.0	2.5	/experiments/knapen_AOT/AOT_stimuli/rescaled_final/2015_rv.mp4	0.0	309.5863997936249	1.0001931190490723
68	287.2261769771576	pulse	0	t		66.0	2.5	/experiments/knapen_AOT/AOT_stimuli/rescaled_final/2015_rv.mp4	0.0	309.7699809074402	
68	288.04278898239136	movie	1		243	66.0	2.5	/experiments/knapen_AOT/AOT_stimuli/rescaled_final/2015_rv.mp4	0.0	310.58659291267395	2.500316858291626
68	288.82656598091125	pulse	1	t		66.0	2.5	/experiments/knapen_AOT/AOT_stimuli/rescaled_final/2015_rv.mp4	0.0	311.37036991119385	
68	290.42654180526733	pulse	1	t		66.0	2.5	/experiments/knapen_AOT/AOT_stimuli/rescaled_final/2015_rv.mp4	0.0	312.9703457355499	
68	290.543105840683	fix_post	2		12	66.0	2.5	/experiments/knapen_AOT/AOT_stimuli/rescaled_final/2015_rv.mp4	0.0	313.0869097709656	0.10002517700195312
69	290.64313101768494	fix_pre	0		120	67.0	2.5	/experiments/knapen_AOT/AOT_stimuli/rescaled_final/0474_rv.mp4	0.0	313.18693494796753	1.0002188682556152
69	291.64334988594055	movie	1		243	67.0	2.5	/experiments/knapen_AOT/AOT_stimuli/rescaled_final/0474_rv.mp4	0.0	314.18715381622314	2.491987943649292
69	292.0273869037628	pulse	1	t		67.0	2.5	/experiments/knapen_AOT/AOT_stimuli/rescaled_final/0474_rv.mp4	0.0	314.5711908340454	
69	293.6271278858185	pulse	1	t		67.0	2.5	/experiments/knapen_AOT/AOT_stimuli/rescaled_final/0474_rv.mp4	0.0	316.1709318161011	
69	294.13533782958984	fix_post	2		12	67.0	2.5	/experiments/knapen_AOT/AOT_stimuli/rescaled_final/0474_rv.mp4	0.0	316.67914175987244	0.09998512268066406
70	294.2353229522705	fix_pre	0		120	68.0	2.5	/experiments/knapen_AOT/AOT_stimuli/rescaled_final/1938_rv.mp4	0.0	316.7791268825531	1.0002930164337158
70	295.2273368835449	pulse	0	t		68.0	2.5	/experiments/knapen_AOT/AOT_stimuli/rescaled_final/1938_rv.mp4	0.0	317.7711408138275	
70	295.2356159687042	movie	1		245	68.0	2.5	/experiments/knapen_AOT/AOT_stimuli/rescaled_final/1938_rv.mp4	0.0	317.7794198989868	2.5085768699645996
70	296.82889699935913	pulse	1	t		68.0	2.5	/experiments/knapen_AOT/AOT_stimuli/rescaled_final/1938_rv.mp4	0.0	319.3727009296417	
70	297.7441928386688	fix_post	2		12	68.0	2.5	/experiments/knapen_AOT/AOT_stimuli/rescaled_final/1938_rv.mp4	0.0	320.2879967689514	0.10008096694946289
71	297.8442738056183	fix_pre	0		120	69.0	2.5	/experiments/knapen_AOT/AOT_stimuli/rescaled_final/0315_fw.mp4	0.0	320.3880777359009	1.0001699924468994
71	298.42795395851135	pulse	0	t		69.0	2.5	/experiments/knapen_AOT/AOT_stimuli/rescaled_final/0315_fw.mp4	0.0	320.97175788879395	
71	298.8444437980652	movie	1		245	69.0	2.5	/experiments/knapen_AOT/AOT_stimuli/rescaled_final/0315_fw.mp4	0.0	321.3882477283478	2.5003812313079834
71	300.028137922287	pulse	1	t		69.0	2.5	/experiments/knapen_AOT/AOT_stimuli/rescaled_final/0315_fw.mp4	0.0	322.5719418525696	
71	301.34482502937317	fix_post	2		12	69.0	2.5	/experiments/knapen_AOT/AOT_stimuli/rescaled_final/0315_fw.mp4	0.0	323.88862895965576	0.09998679161071777
72	301.4448118209839	fix_pre	0		120	70.0	2.5	blank	1.0	323.9886157512665	1.0001170635223389
72	301.6208608150482	pulse	0	t		70.0	2.5	blank	1.0	324.1646647453308	
72	302.4449288845062	movie	1		300	70.0	2.5	blank	1.0	324.9887328147888	2.5004570484161377
72	303.22119784355164	pulse	1	t		70.0	2.5	blank	1.0	325.76500177383423	
72	304.82126092910767	pulse	1	t		70.0	2.5	blank	1.0	327.36506485939026	
72	304.94538593292236	fix_post	2		12	70.0	2.5	blank	1.0	327.48918986320496	0.0999610424041748
73	305.04534697532654	fix_pre	0		119	71.0	2.5	/experiments/knapen_AOT/AOT_stimuli/rescaled_final/0704_fw.mp4	0.0	327.58915090560913	0.9917938709259033
73	306.03714084625244	movie	1		244	71.0	2.5	/experiments/knapen_AOT/AOT_stimuli/rescaled_final/0704_fw.mp4	0.0	328.58094477653503	2.5003750324249268
73	306.422287940979	pulse	1	t		71.0	2.5	/experiments/knapen_AOT/AOT_stimuli/rescaled_final/0704_fw.mp4	0.0	328.9660918712616	
73	308.0209958553314	pulse	1	t		71.0	2.5	/experiments/knapen_AOT/AOT_stimuli/rescaled_final/0704_fw.mp4	0.0	330.564799785614	
73	308.53751587867737	fix_post	2		12	71.0	2.5	/experiments/knapen_AOT/AOT_stimuli/rescaled_final/0704_fw.mp4	0.0	331.08131980895996	0.09999394416809082
74	308.63750982284546	fix_pre	0		119	72.0	2.5	/experiments/knapen_AOT/AOT_stimuli/rescaled_final/0908_fw.mp4	0.0	331.18131375312805	0.9918360710144043
74	309.6211109161377	pulse	0	t		72.0	2.5	/experiments/knapen_AOT/AOT_stimuli/rescaled_final/0908_fw.mp4	0.0	332.1649148464203	
74	309.62934589385986	movie	1		245	72.0	2.5	/experiments/knapen_AOT/AOT_stimuli/rescaled_final/0908_fw.mp4	0.0	332.17314982414246	2.508695125579834
74	311.2219169139862	pulse	1	t		72.0	2.5	/experiments/knapen_AOT/AOT_stimuli/rescaled_final/0908_fw.mp4	0.0	333.7657208442688	
74	312.1380410194397	fix_post	2		12	72.0	2.5	/experiments/knapen_AOT/AOT_stimuli/rescaled_final/0908_fw.mp4	0.0	334.6818449497223	0.10004782676696777
75	312.23808884620667	fix_pre	0		120	73.0	2.5	/experiments/knapen_AOT/AOT_stimuli/rescaled_final/0961_rv.mp4	0.0	334.78189277648926	1.0001001358032227
75	312.8217649459839	pulse	0	t		73.0	2.5	/experiments/knapen_AOT/AOT_stimuli/rescaled_final/0961_rv.mp4	0.0	335.3655688762665	
75	313.2381889820099	movie	1		243	73.0	2.5	/experiments/knapen_AOT/AOT_stimuli/rescaled_final/0961_rv.mp4	0.0	335.7819929122925	2.500394821166992
75	314.4219779968262	pulse	1	t		73.0	2.5	/experiments/knapen_AOT/AOT_stimuli/rescaled_final/0961_rv.mp4	0.0	336.96578192710876	
75	315.7385838031769	fix_post	2		12	73.0	2.5	/experiments/knapen_AOT/AOT_stimuli/rescaled_final/0961_rv.mp4	0.0	338.2823877334595	0.10000205039978027
76	315.83858585357666	fix_pre	0		120	74.0	2.5	/experiments/knapen_AOT/AOT_stimuli/rescaled_final/1791_rv.mp4	0.0	338.38238978385925	1.0001671314239502
76	316.0221018791199	pulse	0	t		74.0	2.5	/experiments/knapen_AOT/AOT_stimuli/rescaled_final/1791_rv.mp4	0.0	338.56590580940247	
76	316.8387529850006	movie	1		244	74.0	2.5	/experiments/knapen_AOT/AOT_stimuli/rescaled_final/1791_rv.mp4	0.0	339.3825569152832	2.5003440380096436
76	317.6223268508911	pulse	1	t		74.0	2.5	/experiments/knapen_AOT/AOT_stimuli/rescaled_final/1791_rv.mp4	0.0	340.1661307811737	
76	319.2226769924164	pulse	1	t		74.0	2.5	/experiments/knapen_AOT/AOT_stimuli/rescaled_final/1791_rv.mp4	0.0	341.766480922699	
76	319.33909702301025	fix_post	2		12	74.0	2.5	/experiments/knapen_AOT/AOT_stimuli/rescaled_final/1791_rv.mp4	0.0	341.88290095329285	0.10003399848937988
77	319.43913102149963	fix_pre	0		120	75.0	2.5	/experiments/knapen_AOT/AOT_stimuli/rescaled_final/1899_rv.mp4	0.0	341.9829349517822	1.0001249313354492
77	320.4392559528351	movie	1		243	75.0	2.5	/experiments/knapen_AOT/AOT_stimuli/rescaled_final/1899_rv.mp4	0.0	342.9830598831177	2.492003917694092
77	320.8235909938812	pulse	1	t		75.0	2.5	/experiments/knapen_AOT/AOT_stimuli/rescaled_final/1899_rv.mp4	0.0	343.3673949241638	
77	322.42314195632935	pulse	1	t		75.0	2.5	/experiments/knapen_AOT/AOT_stimuli/rescaled_final/1899_rv.mp4	0.0	344.96694588661194	
77	322.9312598705292	fix_post	2		12	75.0	2.5	/experiments/knapen_AOT/AOT_stimuli/rescaled_final/1899_rv.mp4	0.0	345.47506380081177	0.10005807876586914
78	323.03131794929504	fix_pre	0		120	76.0	2.5	/experiments/knapen_AOT/AOT_stimuli/rescaled_final/1496_fw.mp4	0.0	345.57512187957764	1.0002188682556152
78	324.0233008861542	pulse	0	t		76.0	2.5	/experiments/knapen_AOT/AOT_stimuli/rescaled_final/1496_fw.mp4	0.0	346.56710481643677	
78	324.03153681755066	movie	1		247	76.0	2.5	/experiments/knapen_AOT/AOT_stimuli/rescaled_final/1496_fw.mp4	0.0	346.57534074783325	2.5087311267852783
78	325.6241660118103	pulse	1	t		76.0	2.5	/experiments/knapen_AOT/AOT_stimuli/rescaled_final/1496_fw.mp4	0.0	348.1679699420929	
78	326.54026794433594	fix_post	2		12	76.0	2.5	/experiments/knapen_AOT/AOT_stimuli/rescaled_final/1496_fw.mp4	0.0	349.08407187461853	0.09997200965881348
79	326.64023995399475	fix_pre	0		120	77.0	2.5	blank	1.0	349.18404388427734	1.0001070499420166
79	327.22392082214355	pulse	0	t		77.0	2.5	blank	1.0	349.76772475242615	
79	327.64034700393677	movie	1		300	77.0	2.5	blank	1.0	350.18415093421936	2.5003578662872314
79	328.8240809440613	pulse	1	t		77.0	2.5	blank	1.0	351.3678848743439	
79	330.140704870224	fix_post	2		12	77.0	2.5	blank	1.0	352.6845088005066	0.1000509262084961
80	330.2407557964325	fix_pre	0		120	78.0	2.5	/experiments/knapen_AOT/AOT_stimuli/rescaled_final/0189_fw.mp4	0.0	352.7845597267151	1.0001060962677002
80	330.4243609905243	pulse	0	t		78.0	2.5	/experiments/knapen_AOT/AOT_stimuli/rescaled_final/0189_fw.mp4	0.0	352.9681649208069	
80	331.2408618927002	movie	1		243	78.0	2.5	/experiments/knapen_AOT/AOT_stimuli/rescaled_final/0189_fw.mp4	0.0	353.7846658229828	2.5004050731658936
80	332.02453780174255	pulse	1	t		78.0	2.5	/experiments/knapen_AOT/AOT_stimuli/rescaled_final/0189_fw.mp4	0.0	354.56834173202515	
80	333.6247329711914	pulse	1	t		78.0	2.5	/experiments/knapen_AOT/AOT_stimuli/rescaled_final/0189_fw.mp4	0.0	356.168536901474	
80	333.7412669658661	fix_post	2		12	78.0	2.5	/experiments/knapen_AOT/AOT_stimuli/rescaled_final/0189_fw.mp4	0.0	356.2850708961487	0.10004687309265137
81	333.84131383895874	fix_pre	0		119	79.0	2.5	/experiments/knapen_AOT/AOT_stimuli/rescaled_final/1231_fw.mp4	0.0	356.38511776924133	0.9917399883270264
81	334.83305382728577	movie	1		244	79.0	2.5	/experiments/knapen_AOT/AOT_stimuli/rescaled_final/1231_fw.mp4	0.0	357.37685775756836	2.5004260540008545
81	335.22505593299866	pulse	1	t		79.0	2.5	/experiments/knapen_AOT/AOT_stimuli/rescaled_final/1231_fw.mp4	0.0	357.76885986328125	
81	336.82527899742126	pulse	1	t		79.0	2.5	/experiments/knapen_AOT/AOT_stimuli/rescaled_final/1231_fw.mp4	0.0	359.36908292770386	
81	337.3334798812866	fix_post	2		12	79.0	2.5	/experiments/knapen_AOT/AOT_stimuli/rescaled_final/1231_fw.mp4	0.0	359.8772838115692	0.10003495216369629
82	337.4335148334503	fix_pre	0		120	80.0	2.5	/experiments/knapen_AOT/AOT_stimuli/rescaled_final/1791_fw.mp4	0.0	359.9773187637329	1.0002059936523438
82	338.4255139827728	pulse	0	t		80.0	2.5	/experiments/knapen_AOT/AOT_stimuli/rescaled_final/1791_fw.mp4	0.0	360.9693179130554	
82	338.43372082710266	movie	1		246	80.0	2.5	/experiments/knapen_AOT/AOT_stimuli/rescaled_final/1791_fw.mp4	0.0	360.97752475738525	2.508584976196289
82	340.0270709991455	pulse	1	t		80.0	2.5	/experiments/knapen_AOT/AOT_stimuli/rescaled_final/1791_fw.mp4	0.0	362.5708749294281	
82	340.94230580329895	fix_post	2		12	80.0	2.5	/experiments/knapen_AOT/AOT_stimuli/rescaled_final/1791_fw.mp4	0.0	363.48610973358154	0.10004115104675293
83	341.0423469543457	fix_pre	0		120	81.0	2.5	/experiments/knapen_AOT/AOT_stimuli/rescaled_final/1153_rv.mp4	0.0	363.5861508846283	1.0001580715179443
83	341.6260139942169	pulse	0	t		81.0	2.5	/experiments/knapen_AOT/AOT_stimuli/rescaled_final/1153_rv.mp4	0.0	364.1698179244995	
83	342.04250502586365	movie	1		245	81.0	2.5	/experiments/knapen_AOT/AOT_stimuli/rescaled_final/1153_rv.mp4	0.0	364.58630895614624	2.5003509521484375
83	343.22633481025696	pulse	1	t		81.0	2.5	/experiments/knapen_AOT/AOT_stimuli/rescaled_final/1153_rv.mp4	0.0	365.77013874053955	
83	344.5428559780121	fix_post	2		12	81.0	2.5	/experiments/knapen_AOT/AOT_stimuli/rescaled_final/1153_rv.mp4	0.0	367.0866599082947	0.09999990463256836
84	344.64285588264465	fix_pre	0		120	82.0	2.5	/experiments/knapen_AOT/AOT_stimuli/rescaled_final/1625_rv.mp4	0.0	367.18665981292725	1.0001540184020996
84	344.82655096054077	pulse	0	t		82.0	2.5	/experiments/knapen_AOT/AOT_stimuli/rescaled_final/1625_rv.mp4	0.0	367.37035489082336	
84	345.64300990104675	movie	1		245	82.0	2.5	/experiments/knapen_AOT/AOT_stimuli/rescaled_final/1625_rv.mp4	0.0	368.18681383132935	2.500411033630371
84	346.4266619682312	pulse	1	t		82.0	2.5	/experiments/knapen_AOT/AOT_stimuli/rescaled_final/1625_rv.mp4	0.0	368.9704658985138	
84	348.02689599990845	pulse	1	t		82.0	2.5	/experiments/knapen_AOT/AOT_stimuli/rescaled_final/1625_rv.mp4	0.0	370.57069993019104	
84	348.1434209346771	fix_post	2		12	82.0	2.5	/experiments/knapen_AOT/AOT_stimuli/rescaled_final/1625_rv.mp4	0.0	370.6872248649597	0.1000058650970459
85	348.24342679977417	fix_pre	0		120	83.0	2.5	blank	1.0	370.78723073005676	1.0001330375671387
85	349.2435598373413	movie	1		299	83.0	2.5	blank	1.0	371.7873637676239	2.492065191268921
85	349.6272280216217	pulse	1	t		83.0	2.5	blank	1.0	372.1710319519043	
85	351.2274730205536	pulse	1	t		83.0	2.5	blank	1.0	373.7712769508362	
85	351.73562502861023	fix_post	2		12	83.0	2.5	blank	1.0	374.2794289588928	0.09997987747192383
87	351.83560490608215	stim	0		1716					374.37940883636475	14.302241086959839
87	352.82023191452026	pulse	0	t						375.36403584480286	
87	354.420530796051	pulse	0	t						376.9643347263336	
87	356.02072191238403	pulse	0	t						378.5645258426666	
87	357.62096786499023	pulse	0	t						380.1647717952728	
87	359.2212200164795	pulse	0	t						381.7650239467621	
87	360.8203778266907	pulse	0	t						383.36418175697327	
87	362.420706987381	pulse	0	t						384.9645109176636	
87	364.0209698677063	pulse	0	t						386.5647737979889	
87	365.621160030365	pulse	0	t						388.1649639606476	
