trial_nr	onset	event_type	phase	response	nr_frames	movie_index	movie_duration	movie_file	blank	onset_abs	duration
0	0.20817208290100098	stim	0		68					23.516967058181763	0.5667259693145752
0	0.766711950302124	response	0	space						24.075506925582886	
1	0.7748980522155762	stim	0		4980					24.083693027496338	41.51643991470337
1	42.281546115875244	pulse	0	t						65.590341091156	
1	42.291337966918945	stim	1		1715					65.6001329421997	14.300218105316162
1	43.87317109107971	pulse	1	t						67.18196606636047	
1	45.47340512275696	pulse	1	t						68.78220009803772	
1	47.07366394996643	pulse	1	t						70.38245892524719	
1	48.67384099960327	pulse	1	t						71.98263597488403	
1	50.27415108680725	pulse	1	t						73.58294606208801	
1	51.87427306175232	pulse	1	t						75.18306803703308	
1	53.47466206550598	pulse	1	t						76.78345704078674	
1	55.07478094100952	pulse	1	t						78.38357591629028	
2	56.59155607223511	fix_pre	0		11	0.0	2.5	/experiments/knapen_AOT/AOT_stimuli/rescaled_final/0176_fw.mp4	0.0	79.90035104751587	0.09169697761535645
2	56.67514109611511	pulse	0	t		0.0	2.5	/experiments/knapen_AOT/AOT_stimuli/rescaled_final/0176_fw.mp4	0.0	79.98393607139587	
2	56.683253049850464	movie	1		243	0.0	2.5	/experiments/knapen_AOT/AOT_stimuli/rescaled_final/0176_fw.mp4	0.0	79.99204802513123	2.508671998977661
2	58.2798969745636	pulse	1	t		0.0	2.5	/experiments/knapen_AOT/AOT_stimuli/rescaled_final/0176_fw.mp4	0.0	81.58869194984436	
2	59.191925048828125	fix_post	2		12	0.0	2.5	/experiments/knapen_AOT/AOT_stimuli/rescaled_final/0176_fw.mp4	0.0	82.50072002410889	0.10000801086425781
3	59.29193305969238	fix_pre	0		120	1.0	2.5	/experiments/knapen_AOT/AOT_stimuli/rescaled_final/1556_fw.mp4	0.0	82.60072803497314	1.0001349449157715
3	59.87565994262695	pulse	0	t		1.0	2.5	/experiments/knapen_AOT/AOT_stimuli/rescaled_final/1556_fw.mp4	0.0	83.18445491790771	
3	60.292068004608154	movie	1		245	1.0	2.5	/experiments/knapen_AOT/AOT_stimuli/rescaled_final/1556_fw.mp4	0.0	83.60086297988892	2.5003509521484375
3	61.47585701942444	pulse	1	t		1.0	2.5	/experiments/knapen_AOT/AOT_stimuli/rescaled_final/1556_fw.mp4	0.0	84.7846519947052	
3	62.79241895675659	fix_post	2		12	1.0	2.5	/experiments/knapen_AOT/AOT_stimuli/rescaled_final/1556_fw.mp4	0.0	86.10121393203735	0.1000370979309082
4	62.8924560546875	fix_pre	0		120	2.0	2.5	/experiments/knapen_AOT/AOT_stimuli/rescaled_final/1425_rv.mp4	0.0	86.20125102996826	1.0001749992370605
4	63.07604503631592	pulse	0	t		2.0	2.5	/experiments/knapen_AOT/AOT_stimuli/rescaled_final/1425_rv.mp4	0.0	86.38484001159668	
4	63.89263105392456	movie	1		246	2.0	2.5	/experiments/knapen_AOT/AOT_stimuli/rescaled_final/1425_rv.mp4	0.0	87.20142602920532	2.50032901763916
4	64.67628598213196	pulse	1	t		2.0	2.5	/experiments/knapen_AOT/AOT_stimuli/rescaled_final/1425_rv.mp4	0.0	87.98508095741272	
4	66.27658891677856	pulse	1	t		2.0	2.5	/experiments/knapen_AOT/AOT_stimuli/rescaled_final/1425_rv.mp4	0.0	89.58538389205933	
4	66.39296007156372	fix_post	2		12	2.0	2.5	/experiments/knapen_AOT/AOT_stimuli/rescaled_final/1425_rv.mp4	0.0	89.70175504684448	0.10007500648498535
5	66.4930350780487	fix_pre	0		120	3.0	2.5	/experiments/knapen_AOT/AOT_stimuli/rescaled_final/0890_fw.mp4	0.0	89.80183005332947	1.0001120567321777
5	67.49314713478088	movie	1		242	3.0	2.5	/experiments/knapen_AOT/AOT_stimuli/rescaled_final/0890_fw.mp4	0.0	90.80194211006165	2.4920969009399414
5	67.87729692459106	pulse	1	t		3.0	2.5	/experiments/knapen_AOT/AOT_stimuli/rescaled_final/0890_fw.mp4	0.0	91.18609189987183	
5	69.47711110115051	pulse	1	t		3.0	2.5	/experiments/knapen_AOT/AOT_stimuli/rescaled_final/0890_fw.mp4	0.0	92.78590607643127	
5	69.98524403572083	fix_post	2		12	3.0	2.5	/experiments/knapen_AOT/AOT_stimuli/rescaled_final/0890_fw.mp4	0.0	93.29403901100159	0.0999460220336914
6	70.08519005775452	fix_pre	0		120	4.0	2.5	/experiments/knapen_AOT/AOT_stimuli/rescaled_final/1624_rv.mp4	0.0	93.39398503303528	1.0002110004425049
6	71.07719206809998	pulse	0	t		4.0	2.5	/experiments/knapen_AOT/AOT_stimuli/rescaled_final/1624_rv.mp4	0.0	94.38598704338074	
6	71.08540105819702	movie	1		244	4.0	2.5	/experiments/knapen_AOT/AOT_stimuli/rescaled_final/1624_rv.mp4	0.0	94.39419603347778	2.50871205329895
6	72.67862296104431	pulse	1	t		4.0	2.5	/experiments/knapen_AOT/AOT_stimuli/rescaled_final/1624_rv.mp4	0.0	95.98741793632507	
6	73.59411311149597	fix_post	2		12	4.0	2.5	/experiments/knapen_AOT/AOT_stimuli/rescaled_final/1624_rv.mp4	0.0	96.90290808677673	0.09999585151672363
7	73.6941089630127	fix_pre	0		120	5.0	2.5	blank	1.0	97.00290393829346	1.0001251697540283
7	74.27777814865112	pulse	0	t		5.0	2.5	blank	1.0	97.58657312393188	
7	74.69423413276672	movie	1		300	5.0	2.5	blank	1.0	98.00302910804749	2.5003819465637207
7	75.87797093391418	pulse	1	t		5.0	2.5	blank	1.0	99.18676590919495	
7	77.19461607933044	fix_post	2		12	5.0	2.5	blank	1.0	100.5034110546112	0.09998106956481934
8	77.29459714889526	fix_pre	0		117	6.0	2.5	/experiments/knapen_AOT/AOT_stimuli/rescaled_final/1251_rv.mp4	0.0	100.60339212417603	1.0001897811889648
8	77.47818994522095	pulse	0	t		6.0	2.5	/experiments/knapen_AOT/AOT_stimuli/rescaled_final/1251_rv.mp4	0.0	100.78698492050171	
8	78.29478693008423	movie	1		242	6.0	2.5	/experiments/knapen_AOT/AOT_stimuli/rescaled_final/1251_rv.mp4	0.0	101.60358190536499	2.5004420280456543
8	79.07844305038452	pulse	1	t		6.0	2.5	/experiments/knapen_AOT/AOT_stimuli/rescaled_final/1251_rv.mp4	0.0	102.38723802566528	
8	80.67871904373169	pulse	1	t		6.0	2.5	/experiments/knapen_AOT/AOT_stimuli/rescaled_final/1251_rv.mp4	0.0	103.98751401901245	
8	80.79522895812988	fix_post	2		12	6.0	2.5	/experiments/knapen_AOT/AOT_stimuli/rescaled_final/1251_rv.mp4	0.0	104.10402393341064	0.09991216659545898
9	80.89514112472534	fix_pre	0		120	7.0	2.5	/experiments/knapen_AOT/AOT_stimuli/rescaled_final/0570_fw.mp4	0.0	104.2039361000061	1.000135898590088
9	81.89527702331543	movie	1		243	7.0	2.5	/experiments/knapen_AOT/AOT_stimuli/rescaled_final/0570_fw.mp4	0.0	105.20407199859619	2.4920549392700195
9	82.28019213676453	pulse	1	t		7.0	2.5	/experiments/knapen_AOT/AOT_stimuli/rescaled_final/0570_fw.mp4	0.0	105.58898711204529	
9	83.87186908721924	pulse	1	t		7.0	2.5	/experiments/knapen_AOT/AOT_stimuli/rescaled_final/0570_fw.mp4	0.0	107.1806640625	
9	84.38733196258545	fix_post	2		12	7.0	2.5	/experiments/knapen_AOT/AOT_stimuli/rescaled_final/0570_fw.mp4	0.0	107.69612693786621	0.09999299049377441
10	84.48732495307922	fix_pre	0		119	8.0	2.5	/experiments/knapen_AOT/AOT_stimuli/rescaled_final/1898_fw.mp4	0.0	107.79611992835999	0.9918410778045654
10	85.47100710868835	pulse	0	t		8.0	2.5	/experiments/knapen_AOT/AOT_stimuli/rescaled_final/1898_fw.mp4	0.0	108.77980208396912	
10	85.47916603088379	movie	1		245	8.0	2.5	/experiments/knapen_AOT/AOT_stimuli/rescaled_final/1898_fw.mp4	0.0	108.78796100616455	2.508687973022461
10	87.07176208496094	pulse	1	t		8.0	2.5	/experiments/knapen_AOT/AOT_stimuli/rescaled_final/1898_fw.mp4	0.0	110.3805570602417	
10	87.98785400390625	fix_post	2		12	8.0	2.5	/experiments/knapen_AOT/AOT_stimuli/rescaled_final/1898_fw.mp4	0.0	111.29664897918701	0.10002803802490234
11	88.08788204193115	fix_pre	0		120	9.0	2.5	/experiments/knapen_AOT/AOT_stimuli/rescaled_final/2003_fw.mp4	0.0	111.39667701721191	1.0001599788665771
11	88.67162203788757	pulse	0	t		9.0	2.5	/experiments/knapen_AOT/AOT_stimuli/rescaled_final/2003_fw.mp4	0.0	111.98041701316833	
11	89.08804202079773	movie	1		243	9.0	2.5	/experiments/knapen_AOT/AOT_stimuli/rescaled_final/2003_fw.mp4	0.0	112.39683699607849	2.500382900238037
11	90.27188014984131	pulse	1	t		9.0	2.5	/experiments/knapen_AOT/AOT_stimuli/rescaled_final/2003_fw.mp4	0.0	113.58067512512207	
11	91.58842492103577	fix_post	2		12	9.0	2.5	/experiments/knapen_AOT/AOT_stimuli/rescaled_final/2003_fw.mp4	0.0	114.89721989631653	0.09998607635498047
12	91.68841099739075	fix_pre	0		120	10.0	2.5	/experiments/knapen_AOT/AOT_stimuli/rescaled_final/0748_fw.mp4	0.0	114.99720597267151	1.0001771450042725
12	91.87194514274597	pulse	0	t		10.0	2.5	/experiments/knapen_AOT/AOT_stimuli/rescaled_final/0748_fw.mp4	0.0	115.18074011802673	
12	92.68858814239502	movie	1		245	10.0	2.5	/experiments/knapen_AOT/AOT_stimuli/rescaled_final/0748_fw.mp4	0.0	115.99738311767578	2.500394821166992
12	93.4722089767456	pulse	1	t		10.0	2.5	/experiments/knapen_AOT/AOT_stimuli/rescaled_final/0748_fw.mp4	0.0	116.78100395202637	
12	95.07271003723145	pulse	1	t		10.0	2.5	/experiments/knapen_AOT/AOT_stimuli/rescaled_final/0748_fw.mp4	0.0	118.3815050125122	
12	95.18898296356201	fix_post	2		12	10.0	2.5	/experiments/knapen_AOT/AOT_stimuli/rescaled_final/0748_fw.mp4	0.0	118.49777793884277	0.09997415542602539
13	95.28895711898804	fix_pre	0		119	11.0	2.5	/experiments/knapen_AOT/AOT_stimuli/rescaled_final/0759_fw.mp4	0.0	118.5977520942688	0.9918408393859863
13	96.28079795837402	movie	1		245	11.0	2.5	/experiments/knapen_AOT/AOT_stimuli/rescaled_final/0759_fw.mp4	0.0	119.58959293365479	2.5003581047058105
13	96.67276501655579	pulse	1	t		11.0	2.5	/experiments/knapen_AOT/AOT_stimuli/rescaled_final/0759_fw.mp4	0.0	119.98155999183655	
13	98.27296805381775	pulse	1	t		11.0	2.5	/experiments/knapen_AOT/AOT_stimuli/rescaled_final/0759_fw.mp4	0.0	121.58176302909851	
13	98.78115606307983	fix_post	2		12	11.0	2.5	/experiments/knapen_AOT/AOT_stimuli/rescaled_final/0759_fw.mp4	0.0	122.0899510383606	0.10000395774841309
14	98.88116002082825	fix_pre	0		120	12.0	2.5	blank	1.0	122.18995499610901	1.0001819133758545
14	99.87309908866882	pulse	0	t		12.0	2.5	blank	1.0	123.18189406394958	
14	99.8813419342041	movie	1		301	12.0	2.5	blank	1.0	123.19013690948486	2.508669137954712
14	101.47342705726624	pulse	1	t		12.0	2.5	blank	1.0	124.782222032547	
14	102.39001107215881	fix_post	2		12	12.0	2.5	blank	1.0	125.69880604743958	0.10000491142272949
15	102.49001598358154	fix_pre	0		120	13.0	2.5	/experiments/knapen_AOT/AOT_stimuli/rescaled_final/1957_fw.mp4	0.0	125.7988109588623	1.000195026397705
15	103.07375407218933	pulse	0	t		13.0	2.5	/experiments/knapen_AOT/AOT_stimuli/rescaled_final/1957_fw.mp4	0.0	126.38254904747009	
15	103.49021100997925	movie	1		243	13.0	2.5	/experiments/knapen_AOT/AOT_stimuli/rescaled_final/1957_fw.mp4	0.0	126.79900598526001	2.5004050731658936
15	104.67396306991577	pulse	1	t		13.0	2.5	/experiments/knapen_AOT/AOT_stimuli/rescaled_final/1957_fw.mp4	0.0	127.98275804519653	
15	105.99061608314514	fix_post	2		12	13.0	2.5	/experiments/knapen_AOT/AOT_stimuli/rescaled_final/1957_fw.mp4	0.0	129.2994110584259	0.09995388984680176
16	106.09056997299194	fix_pre	0		120	14.0	2.5	/experiments/knapen_AOT/AOT_stimuli/rescaled_final/1425_fw.mp4	0.0	129.3993649482727	1.0001540184020996
16	106.27408695220947	pulse	0	t		14.0	2.5	/experiments/knapen_AOT/AOT_stimuli/rescaled_final/1425_fw.mp4	0.0	129.58288192749023	
16	107.09072399139404	movie	1		247	14.0	2.5	/experiments/knapen_AOT/AOT_stimuli/rescaled_final/1425_fw.mp4	0.0	130.3995189666748	2.5003819465637207
16	107.87444114685059	pulse	1	t		14.0	2.5	/experiments/knapen_AOT/AOT_stimuli/rescaled_final/1425_fw.mp4	0.0	131.18323612213135	
16	109.47466802597046	pulse	1	t		14.0	2.5	/experiments/knapen_AOT/AOT_stimuli/rescaled_final/1425_fw.mp4	0.0	132.78346300125122	
16	109.59110593795776	fix_post	2		12	14.0	2.5	/experiments/knapen_AOT/AOT_stimuli/rescaled_final/1425_fw.mp4	0.0	132.89990091323853	0.10000300407409668
17	109.69110894203186	fix_pre	0		119	15.0	2.5	/experiments/knapen_AOT/AOT_stimuli/rescaled_final/1277_rv.mp4	0.0	132.99990391731262	0.9918301105499268
17	110.68293905258179	movie	1		245	15.0	2.5	/experiments/knapen_AOT/AOT_stimuli/rescaled_final/1277_rv.mp4	0.0	133.99173402786255	2.5003890991210938
17	111.07504510879517	pulse	1	t		15.0	2.5	/experiments/knapen_AOT/AOT_stimuli/rescaled_final/1277_rv.mp4	0.0	134.38384008407593	
17	112.67510294914246	pulse	1	t		15.0	2.5	/experiments/knapen_AOT/AOT_stimuli/rescaled_final/1277_rv.mp4	0.0	135.98389792442322	
17	113.18332815170288	fix_post	2		12	15.0	2.5	/experiments/knapen_AOT/AOT_stimuli/rescaled_final/1277_rv.mp4	0.0	136.49212312698364	0.09998393058776855
18	113.28331208229065	fix_pre	0		120	16.0	2.5	/experiments/knapen_AOT/AOT_stimuli/rescaled_final/0638_rv.mp4	0.0	136.5921070575714	1.0001699924468994
18	114.27530694007874	pulse	0	t		16.0	2.5	/experiments/knapen_AOT/AOT_stimuli/rescaled_final/0638_rv.mp4	0.0	137.5841019153595	
18	114.28348207473755	movie	1		245	16.0	2.5	/experiments/knapen_AOT/AOT_stimuli/rescaled_final/0638_rv.mp4	0.0	137.5922770500183	2.5086870193481445
18	115.87602710723877	pulse	1	t		16.0	2.5	/experiments/knapen_AOT/AOT_stimuli/rescaled_final/0638_rv.mp4	0.0	139.18482208251953	
18	116.7921690940857	fix_post	2		12	16.0	2.5	/experiments/knapen_AOT/AOT_stimuli/rescaled_final/0638_rv.mp4	0.0	140.10096406936646	0.10001993179321289
19	116.8921890258789	fix_pre	0		120	17.0	2.5	/experiments/knapen_AOT/AOT_stimuli/rescaled_final/1086_fw.mp4	0.0	140.20098400115967	1.000166893005371
19	117.4759259223938	pulse	0	t		17.0	2.5	/experiments/knapen_AOT/AOT_stimuli/rescaled_final/1086_fw.mp4	0.0	140.78472089767456	
19	117.89235591888428	movie	1		244	17.0	2.5	/experiments/knapen_AOT/AOT_stimuli/rescaled_final/1086_fw.mp4	0.0	141.20115089416504	2.5004231929779053
19	119.0717179775238	pulse	1	t		17.0	2.5	/experiments/knapen_AOT/AOT_stimuli/rescaled_final/1086_fw.mp4	0.0	142.38051295280457	
19	120.39277911186218	fix_post	2		12	17.0	2.5	/experiments/knapen_AOT/AOT_stimuli/rescaled_final/1086_fw.mp4	0.0	143.70157408714294	0.09994697570800781
20	120.49272608757019	fix_pre	0		120	18.0	2.5	/experiments/knapen_AOT/AOT_stimuli/rescaled_final/1500_fw.mp4	0.0	143.80152106285095	1.0001170635223389
20	120.67625904083252	pulse	0	t		18.0	2.5	/experiments/knapen_AOT/AOT_stimuli/rescaled_final/1500_fw.mp4	0.0	143.98505401611328	
20	121.49284315109253	movie	1		245	18.0	2.5	/experiments/knapen_AOT/AOT_stimuli/rescaled_final/1500_fw.mp4	0.0	144.8016381263733	2.5004019737243652
20	122.27659392356873	pulse	1	t		18.0	2.5	/experiments/knapen_AOT/AOT_stimuli/rescaled_final/1500_fw.mp4	0.0	145.5853888988495	
20	123.87681913375854	pulse	1	t		18.0	2.5	/experiments/knapen_AOT/AOT_stimuli/rescaled_final/1500_fw.mp4	0.0	147.1856141090393	
20	123.9932451248169	fix_post	2		12	18.0	2.5	/experiments/knapen_AOT/AOT_stimuli/rescaled_final/1500_fw.mp4	0.0	147.30204010009766	0.10001182556152344
21	124.09325695037842	fix_pre	0		120	19.0	2.5	blank	1.0	147.40205192565918	1.0001649856567383
21	125.09342193603516	movie	1		299	19.0	2.5	blank	1.0	148.40221691131592	2.492048978805542
21	125.47700309753418	pulse	1	t		19.0	2.5	blank	1.0	148.78579807281494	
21	127.07720112800598	pulse	1	t		19.0	2.5	blank	1.0	150.38599610328674	
21	127.5854709148407	fix_post	2		12	19.0	2.5	blank	1.0	150.89426589012146	0.1000220775604248
22	127.68549299240112	fix_pre	0		120	20.0	2.5	/experiments/knapen_AOT/AOT_stimuli/rescaled_final/2133_fw.mp4	0.0	150.99428796768188	1.000128984451294
22	128.677561044693	pulse	0	t		20.0	2.5	/experiments/knapen_AOT/AOT_stimuli/rescaled_final/2133_fw.mp4	0.0	151.98635601997375	
22	128.68562197685242	movie	1		244	20.0	2.5	/experiments/knapen_AOT/AOT_stimuli/rescaled_final/2133_fw.mp4	0.0	151.99441695213318	2.5086700916290283
22	130.27834391593933	pulse	1	t		20.0	2.5	/experiments/knapen_AOT/AOT_stimuli/rescaled_final/2133_fw.mp4	0.0	153.5871388912201	
22	131.19429206848145	fix_post	2		12	20.0	2.5	/experiments/knapen_AOT/AOT_stimuli/rescaled_final/2133_fw.mp4	0.0	154.5030870437622	0.10004186630249023
23	131.29433393478394	fix_pre	0		120	21.0	2.5	/experiments/knapen_AOT/AOT_stimuli/rescaled_final/0588_rv.mp4	0.0	154.6031289100647	1.0001521110534668
23	131.87804913520813	pulse	0	t		21.0	2.5	/experiments/knapen_AOT/AOT_stimuli/rescaled_final/0588_rv.mp4	0.0	155.1868441104889	
23	132.2944860458374	movie	1		243	21.0	2.5	/experiments/knapen_AOT/AOT_stimuli/rescaled_final/0588_rv.mp4	0.0	155.60328102111816	2.50034499168396
23	133.47838592529297	pulse	1	t		21.0	2.5	/experiments/knapen_AOT/AOT_stimuli/rescaled_final/0588_rv.mp4	0.0	156.78718090057373	
23	134.79483103752136	fix_post	2		12	21.0	2.5	/experiments/knapen_AOT/AOT_stimuli/rescaled_final/0588_rv.mp4	0.0	158.10362601280212	0.10007596015930176
24	134.89490699768066	fix_pre	0		120	22.0	2.5	/experiments/knapen_AOT/AOT_stimuli/rescaled_final/0075_fw.mp4	0.0	158.20370197296143	1.000133991241455
24	135.0710220336914	pulse	0	t		22.0	2.5	/experiments/knapen_AOT/AOT_stimuli/rescaled_final/0075_fw.mp4	0.0	158.37981700897217	
24	135.89504098892212	movie	1		245	22.0	2.5	/experiments/knapen_AOT/AOT_stimuli/rescaled_final/0075_fw.mp4	0.0	159.20383596420288	2.500620126724243
24	136.67130994796753	pulse	1	t		22.0	2.5	/experiments/knapen_AOT/AOT_stimuli/rescaled_final/0075_fw.mp4	0.0	159.9801049232483	
24	138.27142691612244	pulse	1	t		22.0	2.5	/experiments/knapen_AOT/AOT_stimuli/rescaled_final/0075_fw.mp4	0.0	161.5802218914032	
24	138.39566111564636	fix_post	2		11	22.0	2.5	/experiments/knapen_AOT/AOT_stimuli/rescaled_final/0075_fw.mp4	0.0	161.70445609092712	0.09974288940429688
25	138.49540400505066	fix_pre	0		120	23.0	2.5	/experiments/knapen_AOT/AOT_stimuli/rescaled_final/1066_rv.mp4	0.0	161.80419898033142	1.000236988067627
25	139.4956409931183	movie	1		243	23.0	2.5	/experiments/knapen_AOT/AOT_stimuli/rescaled_final/1066_rv.mp4	0.0	162.80443596839905	2.492032051086426
25	139.8797459602356	pulse	1	t		23.0	2.5	/experiments/knapen_AOT/AOT_stimuli/rescaled_final/1066_rv.mp4	0.0	163.18854093551636	
25	141.47225213050842	pulse	1	t		23.0	2.5	/experiments/knapen_AOT/AOT_stimuli/rescaled_final/1066_rv.mp4	0.0	164.78104710578918	
25	141.9876730442047	fix_post	2		12	23.0	2.5	/experiments/knapen_AOT/AOT_stimuli/rescaled_final/1066_rv.mp4	0.0	165.29646801948547	0.0999290943145752
26	142.0876021385193	fix_pre	0		119	24.0	2.5	/experiments/knapen_AOT/AOT_stimuli/rescaled_final/2133_rv.mp4	0.0	165.39639711380005	0.9918220043182373
26	143.0712959766388	pulse	0	t		24.0	2.5	/experiments/knapen_AOT/AOT_stimuli/rescaled_final/2133_rv.mp4	0.0	166.38009095191956	
26	143.07942414283752	movie	1		244	24.0	2.5	/experiments/knapen_AOT/AOT_stimuli/rescaled_final/2133_rv.mp4	0.0	166.3882191181183	2.508692979812622
26	144.67203092575073	pulse	1	t		24.0	2.5	/experiments/knapen_AOT/AOT_stimuli/rescaled_final/2133_rv.mp4	0.0	167.9808259010315	
26	145.58811712265015	fix_post	2		12	24.0	2.5	/experiments/knapen_AOT/AOT_stimuli/rescaled_final/2133_rv.mp4	0.0	168.8969120979309	0.10008001327514648
27	145.6881971359253	fix_pre	0		120	25.0	2.5	/experiments/knapen_AOT/AOT_stimuli/rescaled_final/0632_fw.mp4	0.0	168.99699211120605	1.0000839233398438
27	146.27176809310913	pulse	0	t		25.0	2.5	/experiments/knapen_AOT/AOT_stimuli/rescaled_final/0632_fw.mp4	0.0	169.5805630683899	
27	146.68828105926514	movie	1		245	25.0	2.5	/experiments/knapen_AOT/AOT_stimuli/rescaled_final/0632_fw.mp4	0.0	169.9970760345459	2.500370979309082
27	147.8721251487732	pulse	1	t		25.0	2.5	/experiments/knapen_AOT/AOT_stimuli/rescaled_final/0632_fw.mp4	0.0	171.18092012405396	
27	149.18865203857422	fix_post	2		12	25.0	2.5	/experiments/knapen_AOT/AOT_stimuli/rescaled_final/0632_fw.mp4	0.0	172.49744701385498	0.10001707077026367
28	149.28866910934448	fix_pre	0		120	26.0	2.5	/experiments/knapen_AOT/AOT_stimuli/rescaled_final/0161_fw.mp4	0.0	172.59746408462524	1.0001909732818604
28	149.4722170829773	pulse	0	t		26.0	2.5	/experiments/knapen_AOT/AOT_stimuli/rescaled_final/0161_fw.mp4	0.0	172.78101205825806	
28	150.28886008262634	movie	1		244	26.0	2.5	/experiments/knapen_AOT/AOT_stimuli/rescaled_final/0161_fw.mp4	0.0	173.5976550579071	2.5003418922424316
28	151.07258105278015	pulse	1	t		26.0	2.5	/experiments/knapen_AOT/AOT_stimuli/rescaled_final/0161_fw.mp4	0.0	174.3813760280609	
28	152.67285799980164	pulse	1	t		26.0	2.5	/experiments/knapen_AOT/AOT_stimuli/rescaled_final/0161_fw.mp4	0.0	175.9816529750824	
28	152.78920197486877	fix_post	2		12	26.0	2.5	/experiments/knapen_AOT/AOT_stimuli/rescaled_final/0161_fw.mp4	0.0	176.09799695014954	0.1000521183013916
29	152.88925409317017	fix_pre	0		120	27.0	2.5	blank	1.0	176.19804906845093	1.0001349449157715
29	153.88938903808594	movie	1		299	27.0	2.5	blank	1.0	177.1981840133667	2.4920289516448975
29	154.27317094802856	pulse	1	t		27.0	2.5	blank	1.0	177.58196592330933	
29	155.87323093414307	pulse	1	t		27.0	2.5	blank	1.0	179.18202590942383	
29	156.38141798973083	fix_post	2		12	27.0	2.5	blank	1.0	179.6902129650116	0.10000205039978027
30	156.48142004013062	fix_pre	0		120	28.0	2.5	/experiments/knapen_AOT/AOT_stimuli/rescaled_final/2120_fw.mp4	0.0	179.79021501541138	1.0001740455627441
30	157.47345399856567	pulse	0	t		28.0	2.5	/experiments/knapen_AOT/AOT_stimuli/rescaled_final/2120_fw.mp4	0.0	180.78224897384644	
30	157.48159408569336	movie	1		244	28.0	2.5	/experiments/knapen_AOT/AOT_stimuli/rescaled_final/2120_fw.mp4	0.0	180.79038906097412	2.5086798667907715
30	159.07511496543884	pulse	1	t		28.0	2.5	/experiments/knapen_AOT/AOT_stimuli/rescaled_final/2120_fw.mp4	0.0	182.3839099407196	
30	159.99027395248413	fix_post	2		12	28.0	2.5	/experiments/knapen_AOT/AOT_stimuli/rescaled_final/2120_fw.mp4	0.0	183.2990689277649	0.1000070571899414
31	160.09028100967407	fix_pre	0		120	29.0	2.5	/experiments/knapen_AOT/AOT_stimuli/rescaled_final/1080_fw.mp4	0.0	183.39907598495483	1.0001380443572998
31	160.67388796806335	pulse	0	t		29.0	2.5	/experiments/knapen_AOT/AOT_stimuli/rescaled_final/1080_fw.mp4	0.0	183.98268294334412	
31	161.09041905403137	movie	1		245	29.0	2.5	/experiments/knapen_AOT/AOT_stimuli/rescaled_final/1080_fw.mp4	0.0	184.39921402931213	2.500493049621582
31	162.27428603172302	pulse	1	t		29.0	2.5	/experiments/knapen_AOT/AOT_stimuli/rescaled_final/1080_fw.mp4	0.0	185.58308100700378	
31	163.59091210365295	fix_post	2		12	29.0	2.5	/experiments/knapen_AOT/AOT_stimuli/rescaled_final/1080_fw.mp4	0.0	186.89970707893372	0.09997701644897461
32	163.69088912010193	fix_pre	0		120	30.0	2.5	/experiments/knapen_AOT/AOT_stimuli/rescaled_final/0058_rv.mp4	0.0	186.9996840953827	1.0000998973846436
32	163.87439513206482	pulse	0	t		30.0	2.5	/experiments/knapen_AOT/AOT_stimuli/rescaled_final/0058_rv.mp4	0.0	187.18319010734558	
32	164.69098901748657	movie	1		245	30.0	2.5	/experiments/knapen_AOT/AOT_stimuli/rescaled_final/0058_rv.mp4	0.0	187.99978399276733	2.5003979206085205
32	165.4748010635376	pulse	1	t		30.0	2.5	/experiments/knapen_AOT/AOT_stimuli/rescaled_final/0058_rv.mp4	0.0	188.78359603881836	
32	167.0751509666443	pulse	1	t		30.0	2.5	/experiments/knapen_AOT/AOT_stimuli/rescaled_final/0058_rv.mp4	0.0	190.38394594192505	
32	167.1913869380951	fix_post	2		12	30.0	2.5	/experiments/knapen_AOT/AOT_stimuli/rescaled_final/0058_rv.mp4	0.0	190.50018191337585	0.09997200965881348
33	167.2913589477539	fix_pre	0		120	31.0	2.5	/experiments/knapen_AOT/AOT_stimuli/rescaled_final/0866_fw.mp4	0.0	190.60015392303467	1.0001730918884277
33	168.29153203964233	movie	1		242	31.0	2.5	/experiments/knapen_AOT/AOT_stimuli/rescaled_final/0866_fw.mp4	0.0	191.6003270149231	2.492047071456909
33	168.67557501792908	pulse	1	t		31.0	2.5	/experiments/knapen_AOT/AOT_stimuli/rescaled_final/0866_fw.mp4	0.0	191.98436999320984	
33	170.27534294128418	pulse	1	t		31.0	2.5	/experiments/knapen_AOT/AOT_stimuli/rescaled_final/0866_fw.mp4	0.0	193.58413791656494	
33	170.78357911109924	fix_post	2		12	31.0	2.5	/experiments/knapen_AOT/AOT_stimuli/rescaled_final/0866_fw.mp4	0.0	194.09237408638	0.09997701644897461
34	170.88355612754822	fix_pre	0		120	32.0	2.5	/experiments/knapen_AOT/AOT_stimuli/rescaled_final/2010_rv.mp4	0.0	194.19235110282898	1.0002059936523438
34	171.8757040500641	pulse	0	t		32.0	2.5	/experiments/knapen_AOT/AOT_stimuli/rescaled_final/2010_rv.mp4	0.0	195.18449902534485	
34	171.88376212120056	movie	1		246	32.0	2.5	/experiments/knapen_AOT/AOT_stimuli/rescaled_final/2010_rv.mp4	0.0	195.19255709648132	2.508685827255249
34	173.47691798210144	pulse	1	t		32.0	2.5	/experiments/knapen_AOT/AOT_stimuli/rescaled_final/2010_rv.mp4	0.0	196.7857129573822	
34	174.3924479484558	fix_post	2		12	32.0	2.5	/experiments/knapen_AOT/AOT_stimuli/rescaled_final/2010_rv.mp4	0.0	197.70124292373657	0.10006308555603027
35	174.49251103401184	fix_pre	0		120	33.0	2.5	blank	1.0	197.8013060092926	1.0001049041748047
35	175.07605504989624	pulse	0	t		33.0	2.5	blank	1.0	198.384850025177	
35	175.49261593818665	movie	1		300	33.0	2.5	blank	1.0	198.8014109134674	2.5003771781921387
35	176.67628598213196	pulse	1	t		33.0	2.5	blank	1.0	199.98508095741272	
35	177.99299311637878	fix_post	2		12	33.0	2.5	blank	1.0	201.30178809165955	0.10001993179321289
36	178.093013048172	fix_pre	0		120	34.0	2.5	/experiments/knapen_AOT/AOT_stimuli/rescaled_final/0511_rv.mp4	0.0	201.40180802345276	1.0001349449157715
36	178.27670407295227	pulse	0	t		34.0	2.5	/experiments/knapen_AOT/AOT_stimuli/rescaled_final/0511_rv.mp4	0.0	201.58549904823303	
36	179.09314799308777	movie	1		245	34.0	2.5	/experiments/knapen_AOT/AOT_stimuli/rescaled_final/0511_rv.mp4	0.0	202.40194296836853	2.5003790855407715
36	179.87696814537048	pulse	1	t		34.0	2.5	/experiments/knapen_AOT/AOT_stimuli/rescaled_final/0511_rv.mp4	0.0	203.18576312065125	
36	181.47468400001526	pulse	1	t		34.0	2.5	/experiments/knapen_AOT/AOT_stimuli/rescaled_final/0511_rv.mp4	0.0	204.78347897529602	
36	181.59352707862854	fix_post	2		12	34.0	2.5	/experiments/knapen_AOT/AOT_stimuli/rescaled_final/0511_rv.mp4	0.0	204.9023220539093	0.1000828742980957
37	181.69360995292664	fix_pre	0		120	35.0	2.5	/experiments/knapen_AOT/AOT_stimuli/rescaled_final/0821_rv.mp4	0.0	205.0024049282074	1.0000760555267334
37	182.69368600845337	movie	1		243	35.0	2.5	/experiments/knapen_AOT/AOT_stimuli/rescaled_final/0821_rv.mp4	0.0	206.00248098373413	2.4921579360961914
37	183.07796907424927	pulse	1	t		35.0	2.5	/experiments/knapen_AOT/AOT_stimuli/rescaled_final/0821_rv.mp4	0.0	206.38676404953003	
37	184.6775951385498	pulse	1	t		35.0	2.5	/experiments/knapen_AOT/AOT_stimuli/rescaled_final/0821_rv.mp4	0.0	207.98639011383057	
37	185.18584394454956	fix_post	2		12	35.0	2.5	/experiments/knapen_AOT/AOT_stimuli/rescaled_final/0821_rv.mp4	0.0	208.49463891983032	0.09988999366760254
38	185.28573393821716	fix_pre	0		120	36.0	2.5	/experiments/knapen_AOT/AOT_stimuli/rescaled_final/1517_fw.mp4	0.0	208.59452891349792	1.0001730918884277
38	186.27786493301392	pulse	0	t		36.0	2.5	/experiments/knapen_AOT/AOT_stimuli/rescaled_final/1517_fw.mp4	0.0	209.58665990829468	
38	186.2859070301056	movie	1		246	36.0	2.5	/experiments/knapen_AOT/AOT_stimuli/rescaled_final/1517_fw.mp4	0.0	209.59470200538635	2.5086779594421387
38	187.87838792800903	pulse	1	t		36.0	2.5	/experiments/knapen_AOT/AOT_stimuli/rescaled_final/1517_fw.mp4	0.0	211.1871829032898	
38	188.79458498954773	fix_post	2		12	36.0	2.5	/experiments/knapen_AOT/AOT_stimuli/rescaled_final/1517_fw.mp4	0.0	212.1033799648285	0.10001707077026367
39	188.894602060318	fix_pre	0		120	37.0	2.5	/experiments/knapen_AOT/AOT_stimuli/rescaled_final/1624_fw.mp4	0.0	212.20339703559875	1.0001509189605713
39	189.47086095809937	pulse	0	t		37.0	2.5	/experiments/knapen_AOT/AOT_stimuli/rescaled_final/1624_fw.mp4	0.0	212.77965593338013	
39	189.89475297927856	movie	1		244	37.0	2.5	/experiments/knapen_AOT/AOT_stimuli/rescaled_final/1624_fw.mp4	0.0	213.20354795455933	2.5003609657287598
39	191.0715811252594	pulse	1	t		37.0	2.5	/experiments/knapen_AOT/AOT_stimuli/rescaled_final/1624_fw.mp4	0.0	214.38037610054016	
39	192.39511394500732	fix_post	2		12	37.0	2.5	/experiments/knapen_AOT/AOT_stimuli/rescaled_final/1624_fw.mp4	0.0	215.7039089202881	0.10002899169921875
40	192.49514293670654	fix_pre	0		120	38.0	2.5	/experiments/knapen_AOT/AOT_stimuli/rescaled_final/0151_rv.mp4	0.0	215.8039379119873	1.0002241134643555
40	192.67113208770752	pulse	0	t		38.0	2.5	/experiments/knapen_AOT/AOT_stimuli/rescaled_final/0151_rv.mp4	0.0	215.97992706298828	
40	193.4953670501709	movie	1		243	38.0	2.5	/experiments/knapen_AOT/AOT_stimuli/rescaled_final/0151_rv.mp4	0.0	216.80416202545166	2.5004420280456543
40	194.27153205871582	pulse	1	t		38.0	2.5	/experiments/knapen_AOT/AOT_stimuli/rescaled_final/0151_rv.mp4	0.0	217.58032703399658	
40	195.87097001075745	pulse	1	t		38.0	2.5	/experiments/knapen_AOT/AOT_stimuli/rescaled_final/0151_rv.mp4	0.0	219.1797649860382	
40	195.99580907821655	fix_post	2		9	38.0	2.5	/experiments/knapen_AOT/AOT_stimuli/rescaled_final/0151_rv.mp4	0.0	219.30460405349731	0.09987688064575195
41	196.0956859588623	fix_pre	0		120	39.0	2.5	/experiments/knapen_AOT/AOT_stimuli/rescaled_final/1030_fw.mp4	0.0	219.40448093414307	1.0001280307769775
41	197.09581398963928	movie	1		242	39.0	2.5	/experiments/knapen_AOT/AOT_stimuli/rescaled_final/1030_fw.mp4	0.0	220.40460896492004	2.492063045501709
41	197.47103095054626	pulse	1	t		39.0	2.5	/experiments/knapen_AOT/AOT_stimuli/rescaled_final/1030_fw.mp4	0.0	220.77982592582703	
41	199.07134413719177	pulse	1	t		39.0	2.5	/experiments/knapen_AOT/AOT_stimuli/rescaled_final/1030_fw.mp4	0.0	222.38013911247253	
41	199.587877035141	fix_post	2		12	39.0	2.5	/experiments/knapen_AOT/AOT_stimuli/rescaled_final/1030_fw.mp4	0.0	222.89667201042175	0.09999704360961914
42	199.6878740787506	fix_pre	0		119	40.0	2.5	blank	1.0	222.99666905403137	0.9918689727783203
42	200.67166209220886	pulse	0	t		40.0	2.5	blank	1.0	223.98045706748962	
42	200.67974305152893	movie	1		301	40.0	2.5	blank	1.0	223.9885380268097	2.5086729526519775
42	202.27192091941833	pulse	1	t		40.0	2.5	blank	1.0	225.5807158946991	
42	203.1884160041809	fix_post	2		12	40.0	2.5	blank	1.0	226.49721097946167	0.09999895095825195
43	203.28841495513916	fix_pre	0		120	41.0	2.5	/experiments/knapen_AOT/AOT_stimuli/rescaled_final/1425_rv.mp4	0.0	226.59720993041992	1.0001771450042725
43	203.87211203575134	pulse	0	t		41.0	2.5	/experiments/knapen_AOT/AOT_stimuli/rescaled_final/1425_rv.mp4	0.0	227.1809070110321	
43	204.28859210014343	movie	1		247	41.0	2.5	/experiments/knapen_AOT/AOT_stimuli/rescaled_final/1425_rv.mp4	0.0	227.5973870754242	2.500365972518921
43	205.47235107421875	pulse	1	t		41.0	2.5	/experiments/knapen_AOT/AOT_stimuli/rescaled_final/1425_rv.mp4	0.0	228.7811460494995	
43	206.78895807266235	fix_post	2		12	41.0	2.5	/experiments/knapen_AOT/AOT_stimuli/rescaled_final/1425_rv.mp4	0.0	230.09775304794312	0.0999898910522461
44	206.8889479637146	fix_pre	0		120	42.0	2.5	/experiments/knapen_AOT/AOT_stimuli/rescaled_final/1712_rv.mp4	0.0	230.19774293899536	1.0001580715179443
44	207.0725929737091	pulse	0	t		42.0	2.5	/experiments/knapen_AOT/AOT_stimuli/rescaled_final/1712_rv.mp4	0.0	230.38138794898987	
44	207.88910603523254	movie	1		243	42.0	2.5	/experiments/knapen_AOT/AOT_stimuli/rescaled_final/1712_rv.mp4	0.0	231.1979010105133	2.500425100326538
44	208.67288398742676	pulse	1	t		42.0	2.5	/experiments/knapen_AOT/AOT_stimuli/rescaled_final/1712_rv.mp4	0.0	231.98167896270752	
44	210.27284693717957	pulse	1	t		42.0	2.5	/experiments/knapen_AOT/AOT_stimuli/rescaled_final/1712_rv.mp4	0.0	233.58164191246033	
44	210.38953113555908	fix_post	2		12	42.0	2.5	/experiments/knapen_AOT/AOT_stimuli/rescaled_final/1712_rv.mp4	0.0	233.69832611083984	0.1000828742980957
45	210.48961400985718	fix_pre	0		120	43.0	2.5	/experiments/knapen_AOT/AOT_stimuli/rescaled_final/0313_fw.mp4	0.0	233.79840898513794	1.0000450611114502
45	211.48965907096863	movie	1		244	43.0	2.5	/experiments/knapen_AOT/AOT_stimuli/rescaled_final/0313_fw.mp4	0.0	234.7984540462494	2.491982936859131
45	211.87448811531067	pulse	1	t		43.0	2.5	/experiments/knapen_AOT/AOT_stimuli/rescaled_final/0313_fw.mp4	0.0	235.18328309059143	
45	213.47354912757874	pulse	1	t		43.0	2.5	/experiments/knapen_AOT/AOT_stimuli/rescaled_final/0313_fw.mp4	0.0	236.7823441028595	
45	213.98164200782776	fix_post	2		12	43.0	2.5	/experiments/knapen_AOT/AOT_stimuli/rescaled_final/0313_fw.mp4	0.0	237.29043698310852	0.1000831127166748
46	214.08172512054443	fix_pre	0		120	44.0	2.5	/experiments/knapen_AOT/AOT_stimuli/rescaled_final/1094_fw.mp4	0.0	237.3905200958252	1.0002219676971436
46	215.0737760066986	pulse	0	t		44.0	2.5	/experiments/knapen_AOT/AOT_stimuli/rescaled_final/1094_fw.mp4	0.0	238.38257098197937	
46	215.08194708824158	movie	1		245	44.0	2.5	/experiments/knapen_AOT/AOT_stimuli/rescaled_final/1094_fw.mp4	0.0	238.39074206352234	2.5086429119110107
46	216.67442297935486	pulse	1	t		44.0	2.5	/experiments/knapen_AOT/AOT_stimuli/rescaled_final/1094_fw.mp4	0.0	239.98321795463562	
46	217.5905900001526	fix_post	2		12	44.0	2.5	/experiments/knapen_AOT/AOT_stimuli/rescaled_final/1094_fw.mp4	0.0	240.89938497543335	0.09997010231018066
47	217.69056010246277	fix_pre	0		120	45.0	2.5	/experiments/knapen_AOT/AOT_stimuli/rescaled_final/0854_rv.mp4	0.0	240.99935507774353	1.0001590251922607
47	218.2741949558258	pulse	0	t		45.0	2.5	/experiments/knapen_AOT/AOT_stimuli/rescaled_final/0854_rv.mp4	0.0	241.58298993110657	
47	218.69071912765503	movie	1		244	45.0	2.5	/experiments/knapen_AOT/AOT_stimuli/rescaled_final/0854_rv.mp4	0.0	241.9995141029358	2.5003340244293213
47	219.87454915046692	pulse	1	t		45.0	2.5	/experiments/knapen_AOT/AOT_stimuli/rescaled_final/0854_rv.mp4	0.0	243.18334412574768	
47	221.19105315208435	fix_post	2		12	45.0	2.5	/experiments/knapen_AOT/AOT_stimuli/rescaled_final/0854_rv.mp4	0.0	244.4998481273651	0.10004878044128418
48	221.29110193252563	fix_pre	0		120	46.0	2.5	/experiments/knapen_AOT/AOT_stimuli/rescaled_final/0313_rv.mp4	0.0	244.5998969078064	1.0001721382141113
48	221.4746959209442	pulse	0	t		46.0	2.5	/experiments/knapen_AOT/AOT_stimuli/rescaled_final/0313_rv.mp4	0.0	244.78349089622498	
48	222.29127407073975	movie	1		244	46.0	2.5	/experiments/knapen_AOT/AOT_stimuli/rescaled_final/0313_rv.mp4	0.0	245.6000690460205	2.500338077545166
48	223.07501912117004	pulse	1	t		46.0	2.5	/experiments/knapen_AOT/AOT_stimuli/rescaled_final/0313_rv.mp4	0.0	246.3838140964508	
48	224.6729290485382	pulse	1	t		46.0	2.5	/experiments/knapen_AOT/AOT_stimuli/rescaled_final/0313_rv.mp4	0.0	247.98172402381897	
48	224.7916121482849	fix_post	2		12	46.0	2.5	/experiments/knapen_AOT/AOT_stimuli/rescaled_final/0313_rv.mp4	0.0	248.10040712356567	0.10001182556152344
49	224.89162397384644	fix_pre	0		120	47.0	2.5	/experiments/knapen_AOT/AOT_stimuli/rescaled_final/0046_fw.mp4	0.0	248.2004189491272	1.000162124633789
49	225.89178609848022	movie	1		244	47.0	2.5	/experiments/knapen_AOT/AOT_stimuli/rescaled_final/0046_fw.mp4	0.0	249.200581073761	2.492060899734497
49	226.2767059803009	pulse	1	t		47.0	2.5	/experiments/knapen_AOT/AOT_stimuli/rescaled_final/0046_fw.mp4	0.0	249.58550095558167	
49	227.87560606002808	pulse	1	t		47.0	2.5	/experiments/knapen_AOT/AOT_stimuli/rescaled_final/0046_fw.mp4	0.0	251.18440103530884	
49	228.38384699821472	fix_post	2		12	47.0	2.5	/experiments/knapen_AOT/AOT_stimuli/rescaled_final/0046_fw.mp4	0.0	251.69264197349548	0.09998893737792969
50	228.48383593559265	fix_pre	0		120	48.0	2.5	blank	1.0	251.7926309108734	1.0001552104949951
50	229.4759659767151	pulse	0	t		48.0	2.5	blank	1.0	252.78476095199585	
50	229.48399114608765	movie	1		301	48.0	2.5	blank	1.0	252.7927861213684	2.508718967437744
50	231.07623410224915	pulse	1	t		48.0	2.5	blank	1.0	254.3850290775299	
50	231.9927101135254	fix_post	2		12	48.0	2.5	blank	1.0	255.30150508880615	0.10001301765441895
51	232.0927231311798	fix_pre	0		120	49.0	2.5	/experiments/knapen_AOT/AOT_stimuli/rescaled_final/0433_rv.mp4	0.0	255.40151810646057	1.0002169609069824
51	232.67636013031006	pulse	0	t		49.0	2.5	/experiments/knapen_AOT/AOT_stimuli/rescaled_final/0433_rv.mp4	0.0	255.98515510559082	
51	233.0929400920868	movie	1		245	49.0	2.5	/experiments/knapen_AOT/AOT_stimuli/rescaled_final/0433_rv.mp4	0.0	256.40173506736755	2.500337839126587
51	234.2766649723053	pulse	1	t		49.0	2.5	/experiments/knapen_AOT/AOT_stimuli/rescaled_final/0433_rv.mp4	0.0	257.58545994758606	
51	235.59327793121338	fix_post	2		12	49.0	2.5	/experiments/knapen_AOT/AOT_stimuli/rescaled_final/0433_rv.mp4	0.0	258.90207290649414	0.09998202323913574
52	235.69325995445251	fix_pre	0		120	50.0	2.5	/experiments/knapen_AOT/AOT_stimuli/rescaled_final/0226_rv.mp4	0.0	259.0020549297333	1.0001070499420166
52	235.87681794166565	pulse	0	t		50.0	2.5	/experiments/knapen_AOT/AOT_stimuli/rescaled_final/0226_rv.mp4	0.0	259.1856129169464	
52	236.69336700439453	movie	1		245	50.0	2.5	/experiments/knapen_AOT/AOT_stimuli/rescaled_final/0226_rv.mp4	0.0	260.0021619796753	2.500375986099243
52	237.47710013389587	pulse	1	t		50.0	2.5	/experiments/knapen_AOT/AOT_stimuli/rescaled_final/0226_rv.mp4	0.0	260.78589510917664	
52	239.07516813278198	pulse	1	t		50.0	2.5	/experiments/knapen_AOT/AOT_stimuli/rescaled_final/0226_rv.mp4	0.0	262.38396310806274	
52	239.19374299049377	fix_post	2		12	50.0	2.5	/experiments/knapen_AOT/AOT_stimuli/rescaled_final/0226_rv.mp4	0.0	262.50253796577454	0.10006093978881836
53	239.2938039302826	fix_pre	0		120	51.0	2.5	/experiments/knapen_AOT/AOT_stimuli/rescaled_final/0854_fw.mp4	0.0	262.60259890556335	1.0001270771026611
53	240.29393100738525	movie	1		242	51.0	2.5	/experiments/knapen_AOT/AOT_stimuli/rescaled_final/0854_fw.mp4	0.0	263.602725982666	2.4920661449432373
53	240.67811393737793	pulse	1	t		51.0	2.5	/experiments/knapen_AOT/AOT_stimuli/rescaled_final/0854_fw.mp4	0.0	263.9869089126587	
53	242.27785396575928	pulse	1	t		51.0	2.5	/experiments/knapen_AOT/AOT_stimuli/rescaled_final/0854_fw.mp4	0.0	265.58664894104004	
53	242.7859971523285	fix_post	2		12	51.0	2.5	/experiments/knapen_AOT/AOT_stimuli/rescaled_final/0854_fw.mp4	0.0	266.09479212760925	0.09997081756591797
54	242.8859679698944	fix_pre	0		120	52.0	2.5	/experiments/knapen_AOT/AOT_stimuli/rescaled_final/0046_rv.mp4	0.0	266.19476294517517	1.0001699924468994
54	243.87809205055237	pulse	0	t		52.0	2.5	/experiments/knapen_AOT/AOT_stimuli/rescaled_final/0046_rv.mp4	0.0	267.18688702583313	
54	243.8861379623413	movie	1		245	52.0	2.5	/experiments/knapen_AOT/AOT_stimuli/rescaled_final/0046_rv.mp4	0.0	267.19493293762207	2.508751153945923
54	245.4789159297943	pulse	1	t		52.0	2.5	/experiments/knapen_AOT/AOT_stimuli/rescaled_final/0046_rv.mp4	0.0	268.7877109050751	
54	246.39488911628723	fix_post	2		12	52.0	2.5	/experiments/knapen_AOT/AOT_stimuli/rescaled_final/0046_rv.mp4	0.0	269.703684091568	0.09996891021728516
55	246.49485802650452	fix_pre	0		120	53.0	2.5	/experiments/knapen_AOT/AOT_stimuli/rescaled_final/0151_fw.mp4	0.0	269.8036530017853	1.0001380443572998
55	247.07857513427734	pulse	0	t		53.0	2.5	/experiments/knapen_AOT/AOT_stimuli/rescaled_final/0151_fw.mp4	0.0	270.3873701095581	
55	247.49499607086182	movie	1		243	53.0	2.5	/experiments/knapen_AOT/AOT_stimuli/rescaled_final/0151_fw.mp4	0.0	270.8037910461426	2.5004220008850098
55	248.67877411842346	pulse	1	t		53.0	2.5	/experiments/knapen_AOT/AOT_stimuli/rescaled_final/0151_fw.mp4	0.0	271.9875690937042	
55	249.99541807174683	fix_post	2		12	53.0	2.5	/experiments/knapen_AOT/AOT_stimuli/rescaled_final/0151_fw.mp4	0.0	273.3042130470276	0.10008692741394043
56	250.09550499916077	fix_pre	0		120	54.0	2.5	/experiments/knapen_AOT/AOT_stimuli/rescaled_final/0313_rv.mp4	0.0	273.4042999744415	1.0000040531158447
56	250.27170991897583	pulse	0	t		54.0	2.5	/experiments/knapen_AOT/AOT_stimuli/rescaled_final/0313_rv.mp4	0.0	273.5805048942566	
56	251.0955090522766	movie	1		245	54.0	2.5	/experiments/knapen_AOT/AOT_stimuli/rescaled_final/0313_rv.mp4	0.0	274.4043040275574	2.500422954559326
56	251.8719379901886	pulse	1	t		54.0	2.5	/experiments/knapen_AOT/AOT_stimuli/rescaled_final/0313_rv.mp4	0.0	275.18073296546936	
56	253.4768590927124	pulse	1	t		54.0	2.5	/experiments/knapen_AOT/AOT_stimuli/rescaled_final/0313_rv.mp4	0.0	276.78565406799316	
56	253.59593200683594	fix_post	2		12	54.0	2.5	/experiments/knapen_AOT/AOT_stimuli/rescaled_final/0313_rv.mp4	0.0	276.9047269821167	0.10003304481506348
57	253.695965051651	fix_pre	0		119	55.0	2.5	blank	1.0	277.00476002693176	0.9917910099029541
57	254.68775606155396	movie	1		300	55.0	2.5	blank	1.0	277.9965510368347	2.500364065170288
57	255.0714659690857	pulse	1	t		55.0	2.5	blank	1.0	278.38026094436646	
57	256.67148208618164	pulse	1	t		55.0	2.5	blank	1.0	279.9802770614624	
57	257.18812012672424	fix_post	2		12	55.0	2.5	blank	1.0	280.496915102005	0.10001492500305176
58	257.2881350517273	fix_pre	0		119	56.0	2.5	/experiments/knapen_AOT/AOT_stimuli/rescaled_final/0460_rv.mp4	0.0	280.59693002700806	0.9918100833892822
58	258.27178406715393	pulse	0	t		56.0	2.5	/experiments/knapen_AOT/AOT_stimuli/rescaled_final/0460_rv.mp4	0.0	281.5805790424347	
58	258.2799451351166	movie	1		240	56.0	2.5	/experiments/knapen_AOT/AOT_stimuli/rescaled_final/0460_rv.mp4	0.0	281.58874011039734	2.5087080001831055
58	259.8728361129761	pulse	1	t		56.0	2.5	/experiments/knapen_AOT/AOT_stimuli/rescaled_final/0460_rv.mp4	0.0	283.18163108825684	
58	260.7886531352997	fix_post	2		12	56.0	2.5	/experiments/knapen_AOT/AOT_stimuli/rescaled_final/0460_rv.mp4	0.0	284.09744811058044	0.10001301765441895
59	260.8886661529541	fix_pre	0		120	57.0	2.5	/experiments/knapen_AOT/AOT_stimuli/rescaled_final/1278_rv.mp4	0.0	284.19746112823486	1.0001659393310547
59	261.4722571372986	pulse	0	t		57.0	2.5	/experiments/knapen_AOT/AOT_stimuli/rescaled_final/1278_rv.mp4	0.0	284.78105211257935	
59	261.88883209228516	movie	1		245	57.0	2.5	/experiments/knapen_AOT/AOT_stimuli/rescaled_final/1278_rv.mp4	0.0	285.1976270675659	2.5003628730773926
59	263.07266306877136	pulse	1	t		57.0	2.5	/experiments/knapen_AOT/AOT_stimuli/rescaled_final/1278_rv.mp4	0.0	286.3814580440521	
59	264.38919496536255	fix_post	2		12	57.0	2.5	/experiments/knapen_AOT/AOT_stimuli/rescaled_final/1278_rv.mp4	0.0	287.6979899406433	0.10001015663146973
60	264.489205121994	fix_pre	0		120	58.0	2.5	/experiments/knapen_AOT/AOT_stimuli/rescaled_final/0821_rv.mp4	0.0	287.7980000972748	1.0001468658447266
60	264.6728529930115	pulse	0	t		58.0	2.5	/experiments/knapen_AOT/AOT_stimuli/rescaled_final/0821_rv.mp4	0.0	287.98164796829224	
60	265.48935198783875	movie	1		244	58.0	2.5	/experiments/knapen_AOT/AOT_stimuli/rescaled_final/0821_rv.mp4	0.0	288.7981469631195	2.5004119873046875
60	266.27299308776855	pulse	1	t		58.0	2.5	/experiments/knapen_AOT/AOT_stimuli/rescaled_final/0821_rv.mp4	0.0	289.5817880630493	
60	267.8732759952545	pulse	1	t		58.0	2.5	/experiments/knapen_AOT/AOT_stimuli/rescaled_final/0821_rv.mp4	0.0	291.1820709705353	
60	267.98976397514343	fix_post	2		12	58.0	2.5	/experiments/knapen_AOT/AOT_stimuli/rescaled_final/0821_rv.mp4	0.0	291.2985589504242	0.10001206398010254
61	268.08977603912354	fix_pre	0		120	59.0	2.5	/experiments/knapen_AOT/AOT_stimuli/rescaled_final/0248_fw.mp4	0.0	291.3985710144043	1.0001161098480225
61	269.08989214897156	movie	1		244	59.0	2.5	/experiments/knapen_AOT/AOT_stimuli/rescaled_final/0248_fw.mp4	0.0	292.3986871242523	2.49202299118042
61	269.4740309715271	pulse	1	t		59.0	2.5	/experiments/knapen_AOT/AOT_stimuli/rescaled_final/0248_fw.mp4	0.0	292.78282594680786	
61	271.0738580226898	pulse	1	t		59.0	2.5	/experiments/knapen_AOT/AOT_stimuli/rescaled_final/0248_fw.mp4	0.0	294.3826529979706	
61	271.581915140152	fix_post	2		12	59.0	2.5	/experiments/knapen_AOT/AOT_stimuli/rescaled_final/0248_fw.mp4	0.0	294.89071011543274	0.1000509262084961
62	271.6819660663605	fix_pre	0		120	60.0	2.5	/experiments/knapen_AOT/AOT_stimuli/rescaled_final/1733_fw.mp4	0.0	294.99076104164124	1.000143051147461
62	272.6739320755005	pulse	0	t		60.0	2.5	/experiments/knapen_AOT/AOT_stimuli/rescaled_final/1733_fw.mp4	0.0	295.98272705078125	
62	272.68210911750793	movie	1		245	60.0	2.5	/experiments/knapen_AOT/AOT_stimuli/rescaled_final/1733_fw.mp4	0.0	295.9909040927887	2.508664846420288
62	274.2747530937195	pulse	1	t		60.0	2.5	/experiments/knapen_AOT/AOT_stimuli/rescaled_final/1733_fw.mp4	0.0	297.58354806900024	
62	275.1907739639282	fix_post	2		12	60.0	2.5	/experiments/knapen_AOT/AOT_stimuli/rescaled_final/1733_fw.mp4	0.0	298.499568939209	0.10006999969482422
63	275.29084396362305	fix_pre	0		120	61.0	2.5	/experiments/knapen_AOT/AOT_stimuli/rescaled_final/0691_fw.mp4	0.0	298.5996389389038	1.0001351833343506
63	275.87452697753906	pulse	0	t		61.0	2.5	/experiments/knapen_AOT/AOT_stimuli/rescaled_final/0691_fw.mp4	0.0	299.1833219528198	
63	276.2909791469574	movie	1		244	61.0	2.5	/experiments/knapen_AOT/AOT_stimuli/rescaled_final/0691_fw.mp4	0.0	299.59977412223816	2.5003597736358643
63	277.47488713264465	pulse	1	t		61.0	2.5	/experiments/knapen_AOT/AOT_stimuli/rescaled_final/0691_fw.mp4	0.0	300.7836821079254	
63	278.79133892059326	fix_post	2		12	61.0	2.5	/experiments/knapen_AOT/AOT_stimuli/rescaled_final/0691_fw.mp4	0.0	302.100133895874	0.10003209114074707
64	278.891371011734	fix_pre	0		120	62.0	2.5	/experiments/knapen_AOT/AOT_stimuli/rescaled_final/0177_rv.mp4	0.0	302.20016598701477	1.0001659393310547
64	279.07498693466187	pulse	0	t		62.0	2.5	/experiments/knapen_AOT/AOT_stimuli/rescaled_final/0177_rv.mp4	0.0	302.3837819099426	
64	279.89153695106506	movie	1		244	62.0	2.5	/experiments/knapen_AOT/AOT_stimuli/rescaled_final/0177_rv.mp4	0.0	303.2003319263458	2.500375986099243
64	280.67519092559814	pulse	1	t		62.0	2.5	/experiments/knapen_AOT/AOT_stimuli/rescaled_final/0177_rv.mp4	0.0	303.9839859008789	
64	282.27547907829285	pulse	1	t		62.0	2.5	/experiments/knapen_AOT/AOT_stimuli/rescaled_final/0177_rv.mp4	0.0	305.5842740535736	
64	282.3919129371643	fix_post	2		12	62.0	2.5	/experiments/knapen_AOT/AOT_stimuli/rescaled_final/0177_rv.mp4	0.0	305.70070791244507	0.10001611709594727
65	282.49192905426025	fix_pre	0		119	63.0	2.5	blank	1.0	305.800724029541	0.9918029308319092
65	283.48373198509216	movie	1		300	63.0	2.5	blank	1.0	306.7925269603729	2.500378131866455
65	283.87577199935913	pulse	1	t		63.0	2.5	blank	1.0	307.1845669746399	
65	285.4759831428528	pulse	1	t		63.0	2.5	blank	1.0	308.78477811813354	
65	285.9841101169586	fix_post	2		12	63.0	2.5	blank	1.0	309.2929050922394	0.09998488426208496
66	286.0840950012207	fix_pre	0		120	64.0	2.5	/experiments/knapen_AOT/AOT_stimuli/rescaled_final/0062_fw.mp4	0.0	309.39288997650146	1.0001530647277832
66	287.0761239528656	pulse	0	t		64.0	2.5	/experiments/knapen_AOT/AOT_stimuli/rescaled_final/0062_fw.mp4	0.0	310.38491892814636	
66	287.0842480659485	movie	1		246	64.0	2.5	/experiments/knapen_AOT/AOT_stimuli/rescaled_final/0062_fw.mp4	0.0	310.39304304122925	2.508749008178711
66	288.680792093277	pulse	1	t		64.0	2.5	/experiments/knapen_AOT/AOT_stimuli/rescaled_final/0062_fw.mp4	0.0	311.98958706855774	
66	289.5929970741272	fix_post	2		12	64.0	2.5	/experiments/knapen_AOT/AOT_stimuli/rescaled_final/0062_fw.mp4	0.0	312.90179204940796	0.09996795654296875
67	289.69296503067017	fix_pre	0		120	65.0	2.5	/experiments/knapen_AOT/AOT_stimuli/rescaled_final/1801_rv.mp4	0.0	313.0017600059509	1.0001800060272217
67	290.27663803100586	pulse	0	t		65.0	2.5	/experiments/knapen_AOT/AOT_stimuli/rescaled_final/1801_rv.mp4	0.0	313.5854330062866	
67	290.6931450366974	movie	1		243	65.0	2.5	/experiments/knapen_AOT/AOT_stimuli/rescaled_final/1801_rv.mp4	0.0	314.00194001197815	2.500399112701416
67	291.8770740032196	pulse	1	t		65.0	2.5	/experiments/knapen_AOT/AOT_stimuli/rescaled_final/1801_rv.mp4	0.0	315.18586897850037	
67	293.1935441493988	fix_post	2		12	65.0	2.5	/experiments/knapen_AOT/AOT_stimuli/rescaled_final/1801_rv.mp4	0.0	316.50233912467957	0.10001897811889648
68	293.2935631275177	fix_pre	0		120	66.0	2.5	/experiments/knapen_AOT/AOT_stimuli/rescaled_final/0092_rv.mp4	0.0	316.60235810279846	1.0001468658447266
68	293.477117061615	pulse	0	t		66.0	2.5	/experiments/knapen_AOT/AOT_stimuli/rescaled_final/0092_rv.mp4	0.0	316.78591203689575	
68	294.2937099933624	movie	1		244	66.0	2.5	/experiments/knapen_AOT/AOT_stimuli/rescaled_final/0092_rv.mp4	0.0	317.6025049686432	2.5002989768981934
68	295.07728600502014	pulse	1	t		66.0	2.5	/experiments/knapen_AOT/AOT_stimuli/rescaled_final/0092_rv.mp4	0.0	318.3860809803009	
68	296.67746901512146	pulse	1	t		66.0	2.5	/experiments/knapen_AOT/AOT_stimuli/rescaled_final/0092_rv.mp4	0.0	319.9862639904022	
68	296.7940089702606	fix_post	2		12	66.0	2.5	/experiments/knapen_AOT/AOT_stimuli/rescaled_final/0092_rv.mp4	0.0	320.1028039455414	0.10005998611450195
69	296.8940689563751	fix_pre	0		119	67.0	2.5	/experiments/knapen_AOT/AOT_stimuli/rescaled_final/1505_fw.mp4	0.0	320.2028639316559	0.9918639659881592
69	297.8859329223633	movie	1		244	67.0	2.5	/experiments/knapen_AOT/AOT_stimuli/rescaled_final/1505_fw.mp4	0.0	321.19472789764404	2.5003011226654053
69	298.2710509300232	pulse	1	t		67.0	2.5	/experiments/knapen_AOT/AOT_stimuli/rescaled_final/1505_fw.mp4	0.0	321.57984590530396	
69	299.8781280517578	pulse	1	t		67.0	2.5	/experiments/knapen_AOT/AOT_stimuli/rescaled_final/1505_fw.mp4	0.0	323.1869230270386	
69	300.3862340450287	fix_post	2		12	67.0	2.5	/experiments/knapen_AOT/AOT_stimuli/rescaled_final/1505_fw.mp4	0.0	323.69502902030945	0.10002493858337402
70	300.48625898361206	fix_pre	0		120	68.0	2.5	blank	1.0	323.7950539588928	1.0001540184020996
70	301.47821712493896	pulse	0	t		68.0	2.5	blank	1.0	324.7870121002197	
70	301.48641300201416	movie	1		301	68.0	2.5	blank	1.0	324.7952079772949	2.508697032928467
70	303.0711281299591	pulse	1	t		68.0	2.5	blank	1.0	326.37992310523987	
70	303.9951100349426	fix_post	2		12	68.0	2.5	blank	1.0	327.3039050102234	0.10002303123474121
71	304.09513306617737	fix_pre	0		120	69.0	2.5	/experiments/knapen_AOT/AOT_stimuli/rescaled_final/1177_rv.mp4	0.0	327.40392804145813	1.0001440048217773
71	304.67133808135986	pulse	0	t		69.0	2.5	/experiments/knapen_AOT/AOT_stimuli/rescaled_final/1177_rv.mp4	0.0	327.9801330566406	
71	305.09527707099915	movie	1		243	69.0	2.5	/experiments/knapen_AOT/AOT_stimuli/rescaled_final/1177_rv.mp4	0.0	328.4040720462799	2.50039005279541
71	306.2791609764099	pulse	1	t		69.0	2.5	/experiments/knapen_AOT/AOT_stimuli/rescaled_final/1177_rv.mp4	0.0	329.5879559516907	
71	307.59566712379456	fix_post	2		12	69.0	2.5	/experiments/knapen_AOT/AOT_stimuli/rescaled_final/1177_rv.mp4	0.0	330.9044620990753	0.10001301765441895
72	307.695680141449	fix_pre	0		120	70.0	2.5	/experiments/knapen_AOT/AOT_stimuli/rescaled_final/2050_fw.mp4	0.0	331.00447511672974	1.0001568794250488
72	307.871778011322	pulse	0	t		70.0	2.5	/experiments/knapen_AOT/AOT_stimuli/rescaled_final/2050_fw.mp4	0.0	331.1805729866028	
72	308.695837020874	movie	1		244	70.0	2.5	/experiments/knapen_AOT/AOT_stimuli/rescaled_final/2050_fw.mp4	0.0	332.0046319961548	2.5003280639648438
72	309.47132205963135	pulse	1	t		70.0	2.5	/experiments/knapen_AOT/AOT_stimuli/rescaled_final/2050_fw.mp4	0.0	332.7801170349121	
72	311.07133197784424	pulse	1	t		70.0	2.5	/experiments/knapen_AOT/AOT_stimuli/rescaled_final/2050_fw.mp4	0.0	334.380126953125	
72	311.19616508483887	fix_post	2		11	70.0	2.5	/experiments/knapen_AOT/AOT_stimuli/rescaled_final/2050_fw.mp4	0.0	334.50496006011963	0.0917210578918457
73	311.2878861427307	fix_pre	0		120	71.0	2.5	/experiments/knapen_AOT/AOT_stimuli/rescaled_final/0464_rv.mp4	0.0	334.5966811180115	1.0001168251037598
73	312.2880029678345	movie	1		244	71.0	2.5	/experiments/knapen_AOT/AOT_stimuli/rescaled_final/0464_rv.mp4	0.0	335.59679794311523	2.5004260540008545
73	312.6722390651703	pulse	1	t		71.0	2.5	/experiments/knapen_AOT/AOT_stimuli/rescaled_final/0464_rv.mp4	0.0	335.98103404045105	
73	314.271959066391	pulse	1	t		71.0	2.5	/experiments/knapen_AOT/AOT_stimuli/rescaled_final/0464_rv.mp4	0.0	337.58075404167175	
73	314.7884290218353	fix_post	2		12	71.0	2.5	/experiments/knapen_AOT/AOT_stimuli/rescaled_final/0464_rv.mp4	0.0	338.0972239971161	0.10000896453857422
74	314.8884379863739	fix_pre	0		119	72.0	2.5	/experiments/knapen_AOT/AOT_stimuli/rescaled_final/1510_fw.mp4	0.0	338.19723296165466	0.9917669296264648
74	315.8721740245819	pulse	0	t		72.0	2.5	/experiments/knapen_AOT/AOT_stimuli/rescaled_final/1510_fw.mp4	0.0	339.18096899986267	
74	315.88020491600037	movie	1		244	72.0	2.5	/experiments/knapen_AOT/AOT_stimuli/rescaled_final/1510_fw.mp4	0.0	339.1889998912811	2.5087311267852783
74	317.4736211299896	pulse	1	t		72.0	2.5	/experiments/knapen_AOT/AOT_stimuli/rescaled_final/1510_fw.mp4	0.0	340.7824161052704	
74	318.38893604278564	fix_post	2		12	72.0	2.5	/experiments/knapen_AOT/AOT_stimuli/rescaled_final/1510_fw.mp4	0.0	341.6977310180664	0.10000991821289062
75	318.48894596099854	fix_pre	0		120	73.0	2.5	/experiments/knapen_AOT/AOT_stimuli/rescaled_final/1733_rv.mp4	0.0	341.7977409362793	1.0001401901245117
75	319.07264399528503	pulse	0	t		73.0	2.5	/experiments/knapen_AOT/AOT_stimuli/rescaled_final/1733_rv.mp4	0.0	342.3814389705658	
75	319.48908615112305	movie	1		241	73.0	2.5	/experiments/knapen_AOT/AOT_stimuli/rescaled_final/1733_rv.mp4	0.0	342.7978811264038	2.5003609657287598
75	320.67285799980164	pulse	1	t		73.0	2.5	/experiments/knapen_AOT/AOT_stimuli/rescaled_final/1733_rv.mp4	0.0	343.9816529750824	
75	321.9894471168518	fix_post	2		12	73.0	2.5	/experiments/knapen_AOT/AOT_stimuli/rescaled_final/1733_rv.mp4	0.0	345.29824209213257	0.09998798370361328
76	322.0894351005554	fix_pre	0		120	74.0	2.5	/experiments/knapen_AOT/AOT_stimuli/rescaled_final/0681_fw.mp4	0.0	345.3982300758362	1.0002620220184326
76	322.2731740474701	pulse	0	t		74.0	2.5	/experiments/knapen_AOT/AOT_stimuli/rescaled_final/0681_fw.mp4	0.0	345.58196902275085	
76	323.08969712257385	movie	1		244	74.0	2.5	/experiments/knapen_AOT/AOT_stimuli/rescaled_final/0681_fw.mp4	0.0	346.3984920978546	2.5003108978271484
76	323.8732690811157	pulse	1	t		74.0	2.5	/experiments/knapen_AOT/AOT_stimuli/rescaled_final/0681_fw.mp4	0.0	347.1820640563965	
76	325.47352600097656	pulse	1	t		74.0	2.5	/experiments/knapen_AOT/AOT_stimuli/rescaled_final/0681_fw.mp4	0.0	348.7823209762573	
76	325.590008020401	fix_post	2		12	74.0	2.5	/experiments/knapen_AOT/AOT_stimuli/rescaled_final/0681_fw.mp4	0.0	348.89880299568176	0.10000896453857422
77	325.6900169849396	fix_pre	0		120	75.0	2.5	blank	1.0	348.99881196022034	1.0001189708709717
77	326.69013595581055	movie	1		299	75.0	2.5	blank	1.0	349.9989309310913	2.492079973220825
77	327.0737760066986	pulse	1	t		75.0	2.5	blank	1.0	350.38257098197937	
77	328.6740040779114	pulse	1	t		75.0	2.5	blank	1.0	351.98279905319214	
77	329.1822159290314	fix_post	2		12	75.0	2.5	blank	1.0	352.49101090431213	0.10001420974731445
78	329.2822301387787	fix_pre	0		120	76.0	2.5	/experiments/knapen_AOT/AOT_stimuli/rescaled_final/1030_rv.mp4	0.0	352.59102511405945	1.0001568794250488
78	330.2742519378662	pulse	0	t		76.0	2.5	/experiments/knapen_AOT/AOT_stimuli/rescaled_final/1030_rv.mp4	0.0	353.583046913147	
78	330.28238701820374	movie	1		244	76.0	2.5	/experiments/knapen_AOT/AOT_stimuli/rescaled_final/1030_rv.mp4	0.0	353.5911819934845	2.5087080001831055
78	331.87562108039856	pulse	1	t		76.0	2.5	/experiments/knapen_AOT/AOT_stimuli/rescaled_final/1030_rv.mp4	0.0	355.1844160556793	
78	332.79109501838684	fix_post	2		12	76.0	2.5	/experiments/knapen_AOT/AOT_stimuli/rescaled_final/1030_rv.mp4	0.0	356.0998899936676	0.0999610424041748
79	332.891056060791	fix_pre	0		120	77.0	2.5	/experiments/knapen_AOT/AOT_stimuli/rescaled_final/1425_fw.mp4	0.0	356.1998510360718	1.0001909732818604
79	333.47471499443054	pulse	0	t		77.0	2.5	/experiments/knapen_AOT/AOT_stimuli/rescaled_final/1425_fw.mp4	0.0	356.7835099697113	
79	333.8912470340729	movie	1		248	77.0	2.5	/experiments/knapen_AOT/AOT_stimuli/rescaled_final/1425_fw.mp4	0.0	357.20004200935364	2.500356912612915
79	335.075031042099	pulse	1	t		77.0	2.5	/experiments/knapen_AOT/AOT_stimuli/rescaled_final/1425_fw.mp4	0.0	358.38382601737976	
79	336.3916039466858	fix_post	2		12	77.0	2.5	/experiments/knapen_AOT/AOT_stimuli/rescaled_final/1425_fw.mp4	0.0	359.70039892196655	0.10001111030578613
80	336.4916150569916	fix_pre	0		120	78.0	2.5	/experiments/knapen_AOT/AOT_stimuli/rescaled_final/1725_fw.mp4	0.0	359.80041003227234	1.000133991241455
80	336.6751811504364	pulse	0	t		78.0	2.5	/experiments/knapen_AOT/AOT_stimuli/rescaled_final/1725_fw.mp4	0.0	359.98397612571716	
80	337.49174904823303	movie	1		243	78.0	2.5	/experiments/knapen_AOT/AOT_stimuli/rescaled_final/1725_fw.mp4	0.0	360.8005440235138	2.5003950595855713
80	338.2754180431366	pulse	1	t		78.0	2.5	/experiments/knapen_AOT/AOT_stimuli/rescaled_final/1725_fw.mp4	0.0	361.58421301841736	
80	339.87558794021606	pulse	1	t		78.0	2.5	/experiments/knapen_AOT/AOT_stimuli/rescaled_final/1725_fw.mp4	0.0	363.1843829154968	
80	339.9921441078186	fix_post	2		12	78.0	2.5	/experiments/knapen_AOT/AOT_stimuli/rescaled_final/1725_fw.mp4	0.0	363.30093908309937	0.10000300407409668
81	340.0921471118927	fix_pre	0		120	79.0	2.5	/experiments/knapen_AOT/AOT_stimuli/rescaled_final/2120_fw.mp4	0.0	363.40094208717346	1.0001640319824219
81	341.0923111438751	movie	1		243	79.0	2.5	/experiments/knapen_AOT/AOT_stimuli/rescaled_final/2120_fw.mp4	0.0	364.4011061191559	2.492067813873291
81	341.4763629436493	pulse	1	t		79.0	2.5	/experiments/knapen_AOT/AOT_stimuli/rescaled_final/2120_fw.mp4	0.0	364.78515791893005	
81	343.07623314857483	pulse	1	t		79.0	2.5	/experiments/knapen_AOT/AOT_stimuli/rescaled_final/2120_fw.mp4	0.0	366.3850281238556	
81	343.5843789577484	fix_post	2		12	79.0	2.5	/experiments/knapen_AOT/AOT_stimuli/rescaled_final/2120_fw.mp4	0.0	366.8931739330292	0.10001611709594727
82	343.68439507484436	fix_pre	0		120	80.0	2.5	/experiments/knapen_AOT/AOT_stimuli/rescaled_final/0681_rv.mp4	0.0	366.9931900501251	1.0001249313354492
82	344.67638206481934	pulse	0	t		80.0	2.5	/experiments/knapen_AOT/AOT_stimuli/rescaled_final/0681_rv.mp4	0.0	367.9851770401001	
82	344.6845200061798	movie	1		245	80.0	2.5	/experiments/knapen_AOT/AOT_stimuli/rescaled_final/0681_rv.mp4	0.0	367.99331498146057	2.508733034133911
82	346.27734208106995	pulse	1	t		80.0	2.5	/experiments/knapen_AOT/AOT_stimuli/rescaled_final/0681_rv.mp4	0.0	369.5861370563507	
82	347.1932530403137	fix_post	2		12	80.0	2.5	/experiments/knapen_AOT/AOT_stimuli/rescaled_final/0681_rv.mp4	0.0	370.5020480155945	0.09997987747192383
83	347.29323291778564	fix_pre	0		120	81.0	2.5	/experiments/knapen_AOT/AOT_stimuli/rescaled_final/0584_rv.mp4	0.0	370.6020278930664	1.0001721382141113
83	347.8768661022186	pulse	0	t		81.0	2.5	/experiments/knapen_AOT/AOT_stimuli/rescaled_final/0584_rv.mp4	0.0	371.1856610774994	
83	348.29340505599976	movie	1		245	81.0	2.5	/experiments/knapen_AOT/AOT_stimuli/rescaled_final/0584_rv.mp4	0.0	371.6022000312805	2.5003180503845215
83	349.4771981239319	pulse	1	t		81.0	2.5	/experiments/knapen_AOT/AOT_stimuli/rescaled_final/0584_rv.mp4	0.0	372.78599309921265	
83	350.7937231063843	fix_post	2		12	81.0	2.5	/experiments/knapen_AOT/AOT_stimuli/rescaled_final/0584_rv.mp4	0.0	374.10251808166504	0.1000359058380127
84	350.8937590122223	fix_pre	0		120	82.0	2.5	/experiments/knapen_AOT/AOT_stimuli/rescaled_final/1025_rv.mp4	0.0	374.20255398750305	1.000157117843628
84	351.0774209499359	pulse	0	t		82.0	2.5	/experiments/knapen_AOT/AOT_stimuli/rescaled_final/1025_rv.mp4	0.0	374.3862159252167	
84	351.8939161300659	movie	1		244	82.0	2.5	/experiments/knapen_AOT/AOT_stimuli/rescaled_final/1025_rv.mp4	0.0	375.2027111053467	2.5003609657287598
84	352.6775679588318	pulse	1	t		82.0	2.5	/experiments/knapen_AOT/AOT_stimuli/rescaled_final/1025_rv.mp4	0.0	375.98636293411255	
84	354.27939891815186	pulse	1	t		82.0	2.5	/experiments/knapen_AOT/AOT_stimuli/rescaled_final/1025_rv.mp4	0.0	377.5881938934326	
84	354.3942770957947	fix_post	2		12	82.0	2.5	/experiments/knapen_AOT/AOT_stimuli/rescaled_final/1025_rv.mp4	0.0	377.70307207107544	0.1000208854675293
85	354.4942979812622	fix_pre	0		120	83.0	2.5	blank	1.0	377.80309295654297	1.0001521110534668
85	355.4944500923157	movie	1		299	83.0	2.5	blank	1.0	378.80324506759644	2.4920389652252197
85	355.8780701160431	pulse	1	t		83.0	2.5	blank	1.0	379.18686509132385	
85	357.4782130718231	pulse	1	t		83.0	2.5	blank	1.0	380.7870080471039	
85	357.9864890575409	fix_post	2		12	83.0	2.5	blank	1.0	381.29528403282166	0.10005903244018555
87	358.0865480899811	stim	0		1716					381.39534306526184	14.302255868911743
87	359.0786609649658	pulse	0	t						382.3874559402466	
87	360.678817987442	pulse	0	t						383.9876129627228	
87	362.2717709541321	pulse	0	t						385.58056592941284	
87	363.871945142746	pulse	0	t						387.18074011802673	
87	365.47209000587463	pulse	0	t						388.7808849811554	
87	367.07134795188904	pulse	0	t						390.3801429271698	
87	368.6716470718384	pulse	0	t						391.98044204711914	
87	370.2718999385834	pulse	0	t						393.58069491386414	
87	371.87202501296997	pulse	0	t						395.18081998825073	
