trial_nr	onset	event_type	phase	response	nr_frames	movie_index	movie_duration	movie_file	blank	onset_abs	duration
0	0.12485122680664062	stim	0		25					20.73404812812805	0.20842552185058594
0	0.3248908519744873	response	0	space						20.9340877532959	
1	0.33327674865722656	stim	0		5052					20.942473649978638	42.110039710998535
1	42.431724071502686	pulse	0	t						63.0409209728241	
1	42.44331645965576	stim	1		1714					63.05251336097717	14.298320055007935
1	44.03157305717468	pulse	1	t						64.6407699584961	
1	45.63189911842346	pulse	1	t						66.24109601974487	
1	47.232139587402344	pulse	1	t						67.84133648872375	
1	48.83232760429382	pulse	1	t						69.44152450561523	
1	50.43255853652954	pulse	1	t						71.04175543785095	
1	52.03284788131714	pulse	1	t						72.64204478263855	
1	53.63300013542175	pulse	1	t						74.24219703674316	
1	55.233238697052	pulse	1	t						75.84243559837341	
2	56.741636514663696	fix_pre	0		12	0.0	2.5	/experiments/knapen_AOT/AOT_stimuli/rescaled_final/0934_rv.mp4	0.0	77.35083341598511	0.12508082389831543
2	56.833500385284424	pulse	0	t		0.0	2.5	/experiments/knapen_AOT/AOT_stimuli/rescaled_final/0934_rv.mp4	0.0	77.44269728660583	
2	56.86671733856201	movie	1		287	0.0	2.5	/experiments/knapen_AOT/AOT_stimuli/rescaled_final/0934_rv.mp4	0.0	77.47591423988342	2.483670949935913
2	58.43239426612854	pulse	1	t		0.0	2.5	/experiments/knapen_AOT/AOT_stimuli/rescaled_final/0934_rv.mp4	0.0	79.04159116744995	
2	59.350388288497925	fix_post	2		12	0.0	2.5	/experiments/knapen_AOT/AOT_stimuli/rescaled_final/0934_rv.mp4	0.0	79.95958518981934	0.1001436710357666
3	59.45053195953369	fix_pre	0		120	1.0	2.5	/experiments/knapen_AOT/AOT_stimuli/rescaled_final/0268_fw.mp4	0.0	80.0597288608551	1.0083699226379395
3	60.03405690193176	pulse	0	t		1.0	2.5	/experiments/knapen_AOT/AOT_stimuli/rescaled_final/0268_fw.mp4	0.0	80.64325380325317	
3	60.45890188217163	movie	1		281	1.0	2.5	/experiments/knapen_AOT/AOT_stimuli/rescaled_final/0268_fw.mp4	0.0	81.06809878349304	2.4920454025268555
3	61.632826805114746	pulse	1	t		1.0	2.5	/experiments/knapen_AOT/AOT_stimuli/rescaled_final/0268_fw.mp4	0.0	82.24202370643616	
3	62.950947284698486	fix_post	2		12	1.0	2.5	/experiments/knapen_AOT/AOT_stimuli/rescaled_final/0268_fw.mp4	0.0	83.5601441860199	0.09998059272766113
4	63.05092787742615	fix_pre	0		120	2.0	2.5	/experiments/knapen_AOT/AOT_stimuli/rescaled_final/1053_fw.mp4	0.0	83.66012477874756	1.0086719989776611
4	63.23447775840759	pulse	0	t		2.0	2.5	/experiments/knapen_AOT/AOT_stimuli/rescaled_final/1053_fw.mp4	0.0	83.843674659729	
4	64.05959987640381	movie	1		288	2.0	2.5	/experiments/knapen_AOT/AOT_stimuli/rescaled_final/1053_fw.mp4	0.0	84.66879677772522	2.491856098175049
4	64.83300471305847	pulse	1	t		2.0	2.5	/experiments/knapen_AOT/AOT_stimuli/rescaled_final/1053_fw.mp4	0.0	85.44220161437988	
4	66.43310260772705	pulse	1	t		2.0	2.5	/experiments/knapen_AOT/AOT_stimuli/rescaled_final/1053_fw.mp4	0.0	87.04229950904846	
4	66.55145597457886	fix_post	2		12	2.0	2.5	/experiments/knapen_AOT/AOT_stimuli/rescaled_final/1053_fw.mp4	0.0	87.16065287590027	0.10000395774841309
5	66.65145993232727	fix_pre	0		120	3.0	2.5	/experiments/knapen_AOT/AOT_stimuli/rescaled_final/0748_rv.mp4	0.0	87.26065683364868	1.0084896087646484
5	67.65994954109192	movie	1		287	3.0	2.5	/experiments/knapen_AOT/AOT_stimuli/rescaled_final/0748_rv.mp4	0.0	88.26914644241333	2.4920294284820557
5	68.03345203399658	pulse	1	t		3.0	2.5	/experiments/knapen_AOT/AOT_stimuli/rescaled_final/0748_rv.mp4	0.0	88.642648935318	
5	69.63311433792114	pulse	1	t		3.0	2.5	/experiments/knapen_AOT/AOT_stimuli/rescaled_final/0748_rv.mp4	0.0	90.24231123924255	
5	70.15197896957397	fix_post	2		12	3.0	2.5	/experiments/knapen_AOT/AOT_stimuli/rescaled_final/0748_rv.mp4	0.0	90.76117587089539	0.10001611709594727
6	70.25199508666992	fix_pre	0		119	4.0	2.5	/experiments/knapen_AOT/AOT_stimuli/rescaled_final/1197_fw.mp4	0.0	90.86119198799133	1.0001704692840576
6	71.23568153381348	pulse	0	t		4.0	2.5	/experiments/knapen_AOT/AOT_stimuli/rescaled_final/1197_fw.mp4	0.0	91.84487843513489	
6	71.25216555595398	movie	1		288	4.0	2.5	/experiments/knapen_AOT/AOT_stimuli/rescaled_final/1197_fw.mp4	0.0	91.86136245727539	2.500365734100342
6	72.83433818817139	pulse	1	t		4.0	2.5	/experiments/knapen_AOT/AOT_stimuli/rescaled_final/1197_fw.mp4	0.0	93.4435350894928	
6	73.75253129005432	fix_post	2		12	4.0	2.5	/experiments/knapen_AOT/AOT_stimuli/rescaled_final/1197_fw.mp4	0.0	94.36172819137573	0.10004734992980957
7	73.85257863998413	fix_pre	0		120	5.0	2.5	/experiments/knapen_AOT/AOT_stimuli/rescaled_final/1784_fw.mp4	0.0	94.46177554130554	1.0084607601165771
7	74.43645024299622	pulse	0	t		5.0	2.5	/experiments/knapen_AOT/AOT_stimuli/rescaled_final/1784_fw.mp4	0.0	95.04564714431763	
7	74.86103940010071	movie	1		284	5.0	2.5	/experiments/knapen_AOT/AOT_stimuli/rescaled_final/1784_fw.mp4	0.0	95.47023630142212	2.492027997970581
7	76.03497767448425	pulse	1	t		5.0	2.5	/experiments/knapen_AOT/AOT_stimuli/rescaled_final/1784_fw.mp4	0.0	96.64417457580566	
7	77.35306739807129	fix_post	2		12	5.0	2.5	/experiments/knapen_AOT/AOT_stimuli/rescaled_final/1784_fw.mp4	0.0	97.9622642993927	0.10005521774291992
8	77.45312261581421	fix_pre	0		120	6.0	2.5	/experiments/knapen_AOT/AOT_stimuli/rescaled_final/0820_fw.mp4	0.0	98.06231951713562	1.0084741115570068
8	77.62907910346985	pulse	0	t		6.0	2.5	/experiments/knapen_AOT/AOT_stimuli/rescaled_final/0820_fw.mp4	0.0	98.23827600479126	
8	78.46159672737122	movie	1		286	6.0	2.5	/experiments/knapen_AOT/AOT_stimuli/rescaled_final/0820_fw.mp4	0.0	99.07079362869263	2.492039680480957
8	79.23460364341736	pulse	1	t		6.0	2.5	/experiments/knapen_AOT/AOT_stimuli/rescaled_final/0820_fw.mp4	0.0	99.84380054473877	
8	80.83500981330872	pulse	1	t		6.0	2.5	/experiments/knapen_AOT/AOT_stimuli/rescaled_final/0820_fw.mp4	0.0	101.44420671463013	
8	80.95363640785217	fix_post	2		12	6.0	2.5	/experiments/knapen_AOT/AOT_stimuli/rescaled_final/0820_fw.mp4	0.0	101.56283330917358	0.09999728202819824
9	81.05363368988037	fix_pre	0		120	7.0	2.5	blank	1.0	101.66283059120178	1.0002162456512451
9	82.05384993553162	movie	1		300	7.0	2.5	blank	1.0	102.66304683685303	2.500347375869751
9	82.42985987663269	pulse	1	t		7.0	2.5	blank	1.0	103.0390567779541	
9	84.02949571609497	pulse	1	t		7.0	2.5	blank	1.0	104.63869261741638	
9	84.55419731140137	fix_post	2		12	7.0	2.5	blank	1.0	105.16339421272278	0.09997916221618652
10	84.65417647361755	fix_pre	0		118	8.0	2.5	/experiments/knapen_AOT/AOT_stimuli/rescaled_final/0064_rv.mp4	0.0	105.26337337493896	0.9918079376220703
10	85.62953543663025	pulse	0	t		8.0	2.5	/experiments/knapen_AOT/AOT_stimuli/rescaled_final/0064_rv.mp4	0.0	106.23873233795166	
10	85.64598441123962	movie	1		282	8.0	2.5	/experiments/knapen_AOT/AOT_stimuli/rescaled_final/0064_rv.mp4	0.0	106.25518131256104	2.5003750324249268
10	87.22985506057739	pulse	1	t		8.0	2.5	/experiments/knapen_AOT/AOT_stimuli/rescaled_final/0064_rv.mp4	0.0	107.8390519618988	
10	88.14635944366455	fix_post	2		12	8.0	2.5	/experiments/knapen_AOT/AOT_stimuli/rescaled_final/0064_rv.mp4	0.0	108.75555634498596	0.10000467300415039
11	88.2463641166687	fix_pre	0		120	9.0	2.5	/experiments/knapen_AOT/AOT_stimuli/rescaled_final/1339_rv.mp4	0.0	108.85556101799011	1.0084962844848633
11	88.83001708984375	pulse	0	t		9.0	2.5	/experiments/knapen_AOT/AOT_stimuli/rescaled_final/1339_rv.mp4	0.0	109.43921399116516	
11	89.25486040115356	movie	1		285	9.0	2.5	/experiments/knapen_AOT/AOT_stimuli/rescaled_final/1339_rv.mp4	0.0	109.86405730247498	2.4920883178710938
11	90.43057203292847	pulse	1	t		9.0	2.5	/experiments/knapen_AOT/AOT_stimuli/rescaled_final/1339_rv.mp4	0.0	111.03976893424988	
11	91.74694871902466	fix_post	2		12	9.0	2.5	/experiments/knapen_AOT/AOT_stimuli/rescaled_final/1339_rv.mp4	0.0	112.35614562034607	0.09996891021728516
12	91.84691762924194	fix_pre	0		120	10.0	2.5	/experiments/knapen_AOT/AOT_stimuli/rescaled_final/0439_fw.mp4	0.0	112.45611453056335	1.0085031986236572
12	92.03050899505615	pulse	0	t		10.0	2.5	/experiments/knapen_AOT/AOT_stimuli/rescaled_final/0439_fw.mp4	0.0	112.63970589637756	
12	92.8554208278656	movie	1		277	10.0	2.5	/experiments/knapen_AOT/AOT_stimuli/rescaled_final/0439_fw.mp4	0.0	113.46461772918701	2.492004871368408
12	93.63073205947876	pulse	1	t		10.0	2.5	/experiments/knapen_AOT/AOT_stimuli/rescaled_final/0439_fw.mp4	0.0	114.23992896080017	
12	95.23104643821716	pulse	1	t		10.0	2.5	/experiments/knapen_AOT/AOT_stimuli/rescaled_final/0439_fw.mp4	0.0	115.84024333953857	
12	95.34742569923401	fix_post	2		12	10.0	2.5	/experiments/knapen_AOT/AOT_stimuli/rescaled_final/0439_fw.mp4	0.0	115.95662260055542	0.10001659393310547
13	95.44744229316711	fix_pre	0		120	11.0	2.5	/experiments/knapen_AOT/AOT_stimuli/rescaled_final/0679_rv.mp4	0.0	116.05663919448853	1.008509874343872
13	96.45595216751099	movie	1		282	11.0	2.5	/experiments/knapen_AOT/AOT_stimuli/rescaled_final/0679_rv.mp4	0.0	117.0651490688324	2.492017984390259
13	96.82955980300903	pulse	1	t		11.0	2.5	/experiments/knapen_AOT/AOT_stimuli/rescaled_final/0679_rv.mp4	0.0	117.43875670433044	
13	98.43141722679138	pulse	1	t		11.0	2.5	/experiments/knapen_AOT/AOT_stimuli/rescaled_final/0679_rv.mp4	0.0	119.0406141281128	
13	98.94797015190125	fix_post	2		12	11.0	2.5	/experiments/knapen_AOT/AOT_stimuli/rescaled_final/0679_rv.mp4	0.0	119.55716705322266	0.1000223159790039
14	99.04799246788025	fix_pre	0		119	12.0	2.5	/experiments/knapen_AOT/AOT_stimuli/rescaled_final/0506_fw.mp4	0.0	119.65718936920166	1.0001535415649414
14	100.03166270256042	pulse	0	t		12.0	2.5	/experiments/knapen_AOT/AOT_stimuli/rescaled_final/0506_fw.mp4	0.0	120.64085960388184	
14	100.04814600944519	movie	1		286	12.0	2.5	/experiments/knapen_AOT/AOT_stimuli/rescaled_final/0506_fw.mp4	0.0	120.6573429107666	2.500436782836914
14	101.63104510307312	pulse	1	t		12.0	2.5	/experiments/knapen_AOT/AOT_stimuli/rescaled_final/0506_fw.mp4	0.0	122.24024200439453	
14	102.5485827922821	fix_post	2		12	12.0	2.5	/experiments/knapen_AOT/AOT_stimuli/rescaled_final/0506_fw.mp4	0.0	123.15777969360352	0.10001420974731445
15	102.64859700202942	fix_pre	0		120	13.0	2.5	blank	1.0	123.25779390335083	1.0001013278961182
15	103.23218655586243	pulse	0	t		13.0	2.5	blank	1.0	123.84138345718384	
15	103.64869832992554	movie	1		300	13.0	2.5	blank	1.0	124.25789523124695	2.500347137451172
15	104.83237814903259	pulse	1	t		13.0	2.5	blank	1.0	125.441575050354	
15	106.14904546737671	fix_post	2		12	13.0	2.5	blank	1.0	126.75824236869812	0.10003328323364258
16	106.24907875061035	fix_pre	0		120	14.0	2.5	/experiments/knapen_AOT/AOT_stimuli/rescaled_final/0022_fw.mp4	0.0	126.85827565193176	1.0084991455078125
16	106.43264079093933	pulse	0	t		14.0	2.5	/experiments/knapen_AOT/AOT_stimuli/rescaled_final/0022_fw.mp4	0.0	127.04183769226074	
16	107.25757789611816	movie	1		279	14.0	2.5	/experiments/knapen_AOT/AOT_stimuli/rescaled_final/0022_fw.mp4	0.0	127.86677479743958	2.4920156002044678
16	108.03324389457703	pulse	1	t		14.0	2.5	/experiments/knapen_AOT/AOT_stimuli/rescaled_final/0022_fw.mp4	0.0	128.64244079589844	
16	109.63101816177368	pulse	1	t		14.0	2.5	/experiments/knapen_AOT/AOT_stimuli/rescaled_final/0022_fw.mp4	0.0	130.2402150630951	
16	109.74959349632263	fix_post	2		12	14.0	2.5	/experiments/knapen_AOT/AOT_stimuli/rescaled_final/0022_fw.mp4	0.0	130.35879039764404	0.10002255439758301
17	109.84961605072021	fix_pre	0		120	15.0	2.5	/experiments/knapen_AOT/AOT_stimuli/rescaled_final/0768_fw.mp4	0.0	130.45881295204163	1.0085155963897705
17	110.85813164710999	movie	1		288	15.0	2.5	/experiments/knapen_AOT/AOT_stimuli/rescaled_final/0768_fw.mp4	0.0	131.4673285484314	2.4920313358306885
17	111.23161268234253	pulse	1	t		15.0	2.5	/experiments/knapen_AOT/AOT_stimuli/rescaled_final/0768_fw.mp4	0.0	131.84080958366394	
17	112.83122301101685	pulse	1	t		15.0	2.5	/experiments/knapen_AOT/AOT_stimuli/rescaled_final/0768_fw.mp4	0.0	133.44041991233826	
17	113.35016298294067	fix_post	2		12	15.0	2.5	/experiments/knapen_AOT/AOT_stimuli/rescaled_final/0768_fw.mp4	0.0	133.95935988426208	0.09999895095825195
18	113.45016193389893	fix_pre	0		119	16.0	2.5	/experiments/knapen_AOT/AOT_stimuli/rescaled_final/1482_rv.mp4	0.0	134.05935883522034	1.0001881122589111
18	114.4338915348053	pulse	0	t		16.0	2.5	/experiments/knapen_AOT/AOT_stimuli/rescaled_final/1482_rv.mp4	0.0	135.0430884361267	
18	114.45035004615784	movie	1		283	16.0	2.5	/experiments/knapen_AOT/AOT_stimuli/rescaled_final/1482_rv.mp4	0.0	135.05954694747925	2.500328302383423
18	116.03349280357361	pulse	1	t		16.0	2.5	/experiments/knapen_AOT/AOT_stimuli/rescaled_final/1482_rv.mp4	0.0	136.64268970489502	
18	116.95067834854126	fix_post	2		12	16.0	2.5	/experiments/knapen_AOT/AOT_stimuli/rescaled_final/1482_rv.mp4	0.0	137.55987524986267	0.10002017021179199
19	117.05069851875305	fix_pre	0		120	17.0	2.5	/experiments/knapen_AOT/AOT_stimuli/rescaled_final/0679_fw.mp4	0.0	137.65989542007446	1.00852370262146
19	117.63440608978271	pulse	0	t		17.0	2.5	/experiments/knapen_AOT/AOT_stimuli/rescaled_final/0679_fw.mp4	0.0	138.24360299110413	
19	118.05922222137451	movie	1		291	17.0	2.5	/experiments/knapen_AOT/AOT_stimuli/rescaled_final/0679_fw.mp4	0.0	138.66841912269592	2.492015838623047
19	119.23256707191467	pulse	1	t		17.0	2.5	/experiments/knapen_AOT/AOT_stimuli/rescaled_final/0679_fw.mp4	0.0	139.84176397323608	
19	120.55123805999756	fix_post	2		12	17.0	2.5	/experiments/knapen_AOT/AOT_stimuli/rescaled_final/0679_fw.mp4	0.0	141.16043496131897	0.10005354881286621
20	120.65129160881042	fix_pre	0		120	18.0	2.5	/experiments/knapen_AOT/AOT_stimuli/rescaled_final/0669_rv.mp4	0.0	141.26048851013184	1.0084474086761475
20	120.83477282524109	pulse	0	t		18.0	2.5	/experiments/knapen_AOT/AOT_stimuli/rescaled_final/0669_rv.mp4	0.0	141.4439697265625	
20	121.65973901748657	movie	1		274	18.0	2.5	/experiments/knapen_AOT/AOT_stimuli/rescaled_final/0669_rv.mp4	0.0	142.26893591880798	2.4920263290405273
20	122.43314838409424	pulse	1	t		18.0	2.5	/experiments/knapen_AOT/AOT_stimuli/rescaled_final/0669_rv.mp4	0.0	143.04234528541565	
20	124.03349685668945	pulse	1	t		18.0	2.5	/experiments/knapen_AOT/AOT_stimuli/rescaled_final/0669_rv.mp4	0.0	144.64269375801086	
20	124.1517653465271	fix_post	2		12	18.0	2.5	/experiments/knapen_AOT/AOT_stimuli/rescaled_final/0669_rv.mp4	0.0	144.7609622478485	0.1000056266784668
21	124.25177097320557	fix_pre	0		120	19.0	2.5	blank	1.0	144.86096787452698	1.000159502029419
21	125.25193047523499	movie	1		300	19.0	2.5	blank	1.0	145.8611273765564	2.5004665851593018
21	125.63551759719849	pulse	1	t		19.0	2.5	blank	1.0	146.2447144985199	
21	127.23575520515442	pulse	1	t		19.0	2.5	blank	1.0	147.84495210647583	
21	127.75239706039429	fix_post	2		12	19.0	2.5	blank	1.0	148.3615939617157	0.09995317459106445
22	127.85235023498535	fix_pre	0		119	20.0	2.5	/experiments/knapen_AOT/AOT_stimuli/rescaled_final/0216_fw.mp4	0.0	148.46154713630676	1.000169277191162
22	128.83613228797913	pulse	0	t		20.0	2.5	/experiments/knapen_AOT/AOT_stimuli/rescaled_final/0216_fw.mp4	0.0	149.44532918930054	
22	128.8525195121765	movie	1		287	20.0	2.5	/experiments/knapen_AOT/AOT_stimuli/rescaled_final/0216_fw.mp4	0.0	149.46171641349792	2.5003409385681152
22	130.4345428943634	pulse	1	t		20.0	2.5	/experiments/knapen_AOT/AOT_stimuli/rescaled_final/0216_fw.mp4	0.0	151.04373979568481	
22	131.35286045074463	fix_post	2		12	20.0	2.5	/experiments/knapen_AOT/AOT_stimuli/rescaled_final/0216_fw.mp4	0.0	151.96205735206604	0.10001826286315918
23	131.4528787136078	fix_pre	0		120	21.0	2.5	/experiments/knapen_AOT/AOT_stimuli/rescaled_final/0669_fw.mp4	0.0	152.0620756149292	1.008493185043335
23	132.03656458854675	pulse	0	t		21.0	2.5	/experiments/knapen_AOT/AOT_stimuli/rescaled_final/0669_fw.mp4	0.0	152.64576148986816	
23	132.46137189865112	movie	1		280	21.0	2.5	/experiments/knapen_AOT/AOT_stimuli/rescaled_final/0669_fw.mp4	0.0	153.07056879997253	2.4920361042022705
23	133.63630890846252	pulse	1	t		21.0	2.5	/experiments/knapen_AOT/AOT_stimuli/rescaled_final/0669_fw.mp4	0.0	154.24550580978394	
23	134.9534080028534	fix_post	2		12	21.0	2.5	/experiments/knapen_AOT/AOT_stimuli/rescaled_final/0669_fw.mp4	0.0	155.5626049041748	0.10004878044128418
24	135.05345678329468	fix_pre	0		120	22.0	2.5	/experiments/knapen_AOT/AOT_stimuli/rescaled_final/0138_rv.mp4	0.0	155.6626536846161	1.008467435836792
24	135.23031377792358	pulse	0	t		22.0	2.5	/experiments/knapen_AOT/AOT_stimuli/rescaled_final/0138_rv.mp4	0.0	155.839510679245	
24	136.06192421913147	movie	1		275	22.0	2.5	/experiments/knapen_AOT/AOT_stimuli/rescaled_final/0138_rv.mp4	0.0	156.67112112045288	2.4920623302459717
24	136.83595633506775	pulse	1	t		22.0	2.5	/experiments/knapen_AOT/AOT_stimuli/rescaled_final/0138_rv.mp4	0.0	157.44515323638916	
24	138.4377806186676	pulse	1	t		22.0	2.5	/experiments/knapen_AOT/AOT_stimuli/rescaled_final/0138_rv.mp4	0.0	159.046977519989	
24	138.55398654937744	fix_post	2		12	22.0	2.5	/experiments/knapen_AOT/AOT_stimuli/rescaled_final/0138_rv.mp4	0.0	159.16318345069885	0.0999596118927002
25	138.65394616127014	fix_pre	0		120	23.0	2.5	/experiments/knapen_AOT/AOT_stimuli/rescaled_final/0271_rv.mp4	0.0	159.26314306259155	1.008500099182129
25	139.66244626045227	movie	1		284	23.0	2.5	/experiments/knapen_AOT/AOT_stimuli/rescaled_final/0271_rv.mp4	0.0	160.27164316177368	2.4920167922973633
25	140.02962946891785	pulse	1	t		23.0	2.5	/experiments/knapen_AOT/AOT_stimuli/rescaled_final/0271_rv.mp4	0.0	160.63882637023926	
25	141.62970876693726	pulse	1	t		23.0	2.5	/experiments/knapen_AOT/AOT_stimuli/rescaled_final/0271_rv.mp4	0.0	162.23890566825867	
25	142.15446305274963	fix_post	2		12	23.0	2.5	/experiments/knapen_AOT/AOT_stimuli/rescaled_final/0271_rv.mp4	0.0	162.76365995407104	0.10002255439758301
26	142.25448560714722	fix_pre	0		118	24.0	2.5	/experiments/knapen_AOT/AOT_stimuli/rescaled_final/0908_rv.mp4	0.0	162.86368250846863	0.9918181896209717
26	143.22989892959595	pulse	0	t		24.0	2.5	/experiments/knapen_AOT/AOT_stimuli/rescaled_final/0908_rv.mp4	0.0	163.83909583091736	
26	143.2463037967682	movie	1		294	24.0	2.5	/experiments/knapen_AOT/AOT_stimuli/rescaled_final/0908_rv.mp4	0.0	163.8555006980896	2.500371217727661
26	144.83023953437805	pulse	1	t		24.0	2.5	/experiments/knapen_AOT/AOT_stimuli/rescaled_final/0908_rv.mp4	0.0	165.43943643569946	
26	145.74667501449585	fix_post	2		12	24.0	2.5	/experiments/knapen_AOT/AOT_stimuli/rescaled_final/0908_rv.mp4	0.0	166.35587191581726	0.10002899169921875
27	145.84670400619507	fix_pre	0		120	25.0	2.5	/experiments/knapen_AOT/AOT_stimuli/rescaled_final/0662_fw.mp4	0.0	166.45590090751648	1.0085272789001465
27	146.43032598495483	pulse	0	t		25.0	2.5	/experiments/knapen_AOT/AOT_stimuli/rescaled_final/0662_fw.mp4	0.0	167.03952288627625	
27	146.85523128509521	movie	1		276	25.0	2.5	/experiments/knapen_AOT/AOT_stimuli/rescaled_final/0662_fw.mp4	0.0	167.46442818641663	2.491990566253662
27	148.0308701992035	pulse	1	t		25.0	2.5	/experiments/knapen_AOT/AOT_stimuli/rescaled_final/0662_fw.mp4	0.0	168.6400671005249	
27	149.34722185134888	fix_post	2		12	25.0	2.5	/experiments/knapen_AOT/AOT_stimuli/rescaled_final/0662_fw.mp4	0.0	169.9564187526703	0.10002923011779785
28	149.44725108146667	fix_pre	0		120	26.0	2.5	/experiments/knapen_AOT/AOT_stimuli/rescaled_final/1957_rv.mp4	0.0	170.0564479827881	1.0084960460662842
28	149.63083720207214	pulse	0	t		26.0	2.5	/experiments/knapen_AOT/AOT_stimuli/rescaled_final/1957_rv.mp4	0.0	170.24003410339355	
28	150.45574712753296	movie	1		275	26.0	2.5	/experiments/knapen_AOT/AOT_stimuli/rescaled_final/1957_rv.mp4	0.0	171.06494402885437	2.4920434951782227
28	151.23106622695923	pulse	1	t		26.0	2.5	/experiments/knapen_AOT/AOT_stimuli/rescaled_final/1957_rv.mp4	0.0	171.84026312828064	
28	152.83020114898682	pulse	1	t		26.0	2.5	/experiments/knapen_AOT/AOT_stimuli/rescaled_final/1957_rv.mp4	0.0	173.43939805030823	
28	152.94779062271118	fix_post	2		12	26.0	2.5	/experiments/knapen_AOT/AOT_stimuli/rescaled_final/1957_rv.mp4	0.0	173.5569875240326	0.09999346733093262
29	153.04778409004211	fix_pre	0		120	27.0	2.5	/experiments/knapen_AOT/AOT_stimuli/rescaled_final/1787_fw.mp4	0.0	173.65698099136353	1.0085008144378662
29	154.05628490447998	movie	1		289	27.0	2.5	/experiments/knapen_AOT/AOT_stimuli/rescaled_final/1787_fw.mp4	0.0	174.6654818058014	2.492015838623047
29	154.42983484268188	pulse	1	t		27.0	2.5	/experiments/knapen_AOT/AOT_stimuli/rescaled_final/1787_fw.mp4	0.0	175.0390317440033	
29	156.02999329566956	pulse	1	t		27.0	2.5	/experiments/knapen_AOT/AOT_stimuli/rescaled_final/1787_fw.mp4	0.0	176.63919019699097	
29	156.54830074310303	fix_post	2		12	27.0	2.5	/experiments/knapen_AOT/AOT_stimuli/rescaled_final/1787_fw.mp4	0.0	177.15749764442444	0.10002350807189941
30	156.64832425117493	fix_pre	0		119	28.0	2.5	blank	1.0	177.25752115249634	0.9919204711914062
30	157.63206386566162	pulse	0	t		28.0	2.5	blank	1.0	178.24126076698303	
30	157.64024472236633	movie	1		301	28.0	2.5	blank	1.0	178.24944162368774	2.5086231231689453
30	159.23224568367004	pulse	1	t		28.0	2.5	blank	1.0	179.84144258499146	
30	160.14886784553528	fix_post	2		12	28.0	2.5	blank	1.0	180.7580647468567	0.09998798370361328
31	160.2488558292389	fix_pre	0		120	29.0	2.5	/experiments/knapen_AOT/AOT_stimuli/rescaled_final/1085_rv.mp4	0.0	180.8580527305603	1.0085153579711914
31	160.83253169059753	pulse	0	t		29.0	2.5	/experiments/knapen_AOT/AOT_stimuli/rescaled_final/1085_rv.mp4	0.0	181.44172859191895	
31	161.25737118721008	movie	1		279	29.0	2.5	/experiments/knapen_AOT/AOT_stimuli/rescaled_final/1085_rv.mp4	0.0	181.8665680885315	2.4920547008514404
31	162.43284463882446	pulse	1	t		29.0	2.5	/experiments/knapen_AOT/AOT_stimuli/rescaled_final/1085_rv.mp4	0.0	183.04204154014587	
31	163.74942588806152	fix_post	2		12	29.0	2.5	/experiments/knapen_AOT/AOT_stimuli/rescaled_final/1085_rv.mp4	0.0	184.35862278938293	0.09998536109924316
32	163.84941124916077	fix_pre	0		120	30.0	2.5	/experiments/knapen_AOT/AOT_stimuli/rescaled_final/2063_fw.mp4	0.0	184.45860815048218	1.0084657669067383
32	164.03298115730286	pulse	0	t		30.0	2.5	/experiments/knapen_AOT/AOT_stimuli/rescaled_final/2063_fw.mp4	0.0	184.64217805862427	
32	164.8578770160675	movie	1		278	30.0	2.5	/experiments/knapen_AOT/AOT_stimuli/rescaled_final/2063_fw.mp4	0.0	185.46707391738892	2.4920475482940674
32	165.63098669052124	pulse	1	t		30.0	2.5	/experiments/knapen_AOT/AOT_stimuli/rescaled_final/2063_fw.mp4	0.0	186.24018359184265	
32	167.23131728172302	pulse	1	t		30.0	2.5	/experiments/knapen_AOT/AOT_stimuli/rescaled_final/2063_fw.mp4	0.0	187.84051418304443	
32	167.34992456436157	fix_post	2		12	30.0	2.5	/experiments/knapen_AOT/AOT_stimuli/rescaled_final/2063_fw.mp4	0.0	187.95912146568298	0.10003113746643066
33	167.449955701828	fix_pre	0		120	31.0	2.5	/experiments/knapen_AOT/AOT_stimuli/rescaled_final/1508_fw.mp4	0.0	188.0591526031494	1.0084819793701172
33	168.45843768119812	movie	1		276	31.0	2.5	/experiments/knapen_AOT/AOT_stimuli/rescaled_final/1508_fw.mp4	0.0	189.06763458251953	2.4920411109924316
33	168.8319857120514	pulse	1	t		31.0	2.5	/experiments/knapen_AOT/AOT_stimuli/rescaled_final/1508_fw.mp4	0.0	189.4411826133728	
33	170.4341070652008	pulse	1	t		31.0	2.5	/experiments/knapen_AOT/AOT_stimuli/rescaled_final/1508_fw.mp4	0.0	191.04330396652222	
33	170.95047879219055	fix_post	2		12	31.0	2.5	/experiments/knapen_AOT/AOT_stimuli/rescaled_final/1508_fw.mp4	0.0	191.55967569351196	0.10003089904785156
34	171.0505096912384	fix_pre	0		119	32.0	2.5	/experiments/knapen_AOT/AOT_stimuli/rescaled_final/0556_rv.mp4	0.0	191.65970659255981	1.0001864433288574
34	172.03417134284973	pulse	0	t		32.0	2.5	/experiments/knapen_AOT/AOT_stimuli/rescaled_final/0556_rv.mp4	0.0	192.64336824417114	
34	172.05069613456726	movie	1		282	32.0	2.5	/experiments/knapen_AOT/AOT_stimuli/rescaled_final/0556_rv.mp4	0.0	192.65989303588867	2.5003790855407715
34	173.63281846046448	pulse	1	t		32.0	2.5	/experiments/knapen_AOT/AOT_stimuli/rescaled_final/0556_rv.mp4	0.0	194.2420153617859	
34	174.55107522010803	fix_post	2		12	32.0	2.5	/experiments/knapen_AOT/AOT_stimuli/rescaled_final/0556_rv.mp4	0.0	195.16027212142944	0.09995436668395996
35	174.651029586792	fix_pre	0		120	33.0	2.5	/experiments/knapen_AOT/AOT_stimuli/rescaled_final/1659_rv.mp4	0.0	195.2602264881134	1.0085053443908691
35	175.23464274406433	pulse	0	t		33.0	2.5	/experiments/knapen_AOT/AOT_stimuli/rescaled_final/1659_rv.mp4	0.0	195.84383964538574	
35	175.65953493118286	movie	1		288	33.0	2.5	/experiments/knapen_AOT/AOT_stimuli/rescaled_final/1659_rv.mp4	0.0	196.26873183250427	2.492056131362915
35	176.8334219455719	pulse	1	t		33.0	2.5	/experiments/knapen_AOT/AOT_stimuli/rescaled_final/1659_rv.mp4	0.0	197.4426188468933	
35	178.15159106254578	fix_post	2		12	33.0	2.5	/experiments/knapen_AOT/AOT_stimuli/rescaled_final/1659_rv.mp4	0.0	198.7607879638672	0.09998750686645508
36	178.25157856941223	fix_pre	0		120	34.0	2.5	blank	1.0	198.86077547073364	1.000152826309204
36	178.43537378311157	pulse	0	t		34.0	2.5	blank	1.0	199.04457068443298	
36	179.25173139572144	movie	1		300	34.0	2.5	blank	1.0	199.86092829704285	2.5003912448883057
36	180.03544449806213	pulse	1	t		34.0	2.5	blank	1.0	200.64464139938354	
36	181.63560962677002	pulse	1	t		34.0	2.5	blank	1.0	202.24480652809143	
36	181.75212264060974	fix_post	2		12	34.0	2.5	blank	1.0	202.36131954193115	0.10001254081726074
37	181.852135181427	fix_pre	0		120	35.0	2.5	/experiments/knapen_AOT/AOT_stimuli/rescaled_final/1206_rv.mp4	0.0	202.4613320827484	1.0084588527679443
37	182.86059403419495	movie	1		279	35.0	2.5	/experiments/knapen_AOT/AOT_stimuli/rescaled_final/1206_rv.mp4	0.0	203.46979093551636	2.492030143737793
37	183.2345371246338	pulse	1	t		35.0	2.5	/experiments/knapen_AOT/AOT_stimuli/rescaled_final/1206_rv.mp4	0.0	203.8437340259552	
37	184.83397340774536	pulse	1	t		35.0	2.5	/experiments/knapen_AOT/AOT_stimuli/rescaled_final/1206_rv.mp4	0.0	205.44317030906677	
37	185.35262417793274	fix_post	2		12	35.0	2.5	/experiments/knapen_AOT/AOT_stimuli/rescaled_final/1206_rv.mp4	0.0	205.96182107925415	0.10000467300415039
38	185.4526288509369	fix_pre	0		119	36.0	2.5	/experiments/knapen_AOT/AOT_stimuli/rescaled_final/1181_rv.mp4	0.0	206.0618257522583	1.0001904964447021
38	186.43637537956238	pulse	0	t		36.0	2.5	/experiments/knapen_AOT/AOT_stimuli/rescaled_final/1181_rv.mp4	0.0	207.0455722808838	
38	186.4528193473816	movie	1		283	36.0	2.5	/experiments/knapen_AOT/AOT_stimuli/rescaled_final/1181_rv.mp4	0.0	207.062016248703	2.500387191772461
38	188.03581404685974	pulse	1	t		36.0	2.5	/experiments/knapen_AOT/AOT_stimuli/rescaled_final/1181_rv.mp4	0.0	208.64501094818115	
38	188.95320653915405	fix_post	2		12	36.0	2.5	/experiments/knapen_AOT/AOT_stimuli/rescaled_final/1181_rv.mp4	0.0	209.56240344047546	0.10000348091125488
39	189.0532100200653	fix_pre	0		120	37.0	2.5	/experiments/knapen_AOT/AOT_stimuli/rescaled_final/1956_fw.mp4	0.0	209.66240692138672	1.008484125137329
39	189.63680982589722	pulse	0	t		37.0	2.5	/experiments/knapen_AOT/AOT_stimuli/rescaled_final/1956_fw.mp4	0.0	210.24600672721863	
39	190.06169414520264	movie	1		288	37.0	2.5	/experiments/knapen_AOT/AOT_stimuli/rescaled_final/1956_fw.mp4	0.0	210.67089104652405	2.4920272827148438
39	191.23540830612183	pulse	1	t		37.0	2.5	/experiments/knapen_AOT/AOT_stimuli/rescaled_final/1956_fw.mp4	0.0	211.84460520744324	
39	192.55372142791748	fix_post	2		12	37.0	2.5	/experiments/knapen_AOT/AOT_stimuli/rescaled_final/1956_fw.mp4	0.0	213.1629183292389	0.10003185272216797
40	192.65375328063965	fix_pre	0		120	38.0	2.5	/experiments/knapen_AOT/AOT_stimuli/rescaled_final/1542_fw.mp4	0.0	213.26295018196106	1.008490800857544
40	192.83744287490845	pulse	0	t		38.0	2.5	/experiments/knapen_AOT/AOT_stimuli/rescaled_final/1542_fw.mp4	0.0	213.44663977622986	
40	193.6622440814972	movie	1		281	38.0	2.5	/experiments/knapen_AOT/AOT_stimuli/rescaled_final/1542_fw.mp4	0.0	214.2714409828186	2.492009162902832
40	194.43525171279907	pulse	1	t		38.0	2.5	/experiments/knapen_AOT/AOT_stimuli/rescaled_final/1542_fw.mp4	0.0	215.04444861412048	
40	196.03664016723633	pulse	1	t		38.0	2.5	/experiments/knapen_AOT/AOT_stimuli/rescaled_final/1542_fw.mp4	0.0	216.64583706855774	
40	196.15425324440002	fix_post	2		12	38.0	2.5	/experiments/knapen_AOT/AOT_stimuli/rescaled_final/1542_fw.mp4	0.0	216.76345014572144	0.10003352165222168
41	196.25428676605225	fix_pre	0		120	39.0	2.5	/experiments/knapen_AOT/AOT_stimuli/rescaled_final/1493_rv.mp4	0.0	216.86348366737366	1.0085175037384033
41	197.26280426979065	movie	1		280	39.0	2.5	/experiments/knapen_AOT/AOT_stimuli/rescaled_final/1493_rv.mp4	0.0	217.87200117111206	2.4919912815093994
41	197.63014793395996	pulse	1	t		39.0	2.5	/experiments/knapen_AOT/AOT_stimuli/rescaled_final/1493_rv.mp4	0.0	218.23934483528137	
41	199.23019337654114	pulse	1	t		39.0	2.5	/experiments/knapen_AOT/AOT_stimuli/rescaled_final/1493_rv.mp4	0.0	219.83939027786255	
41	199.75479555130005	fix_post	2		12	39.0	2.5	/experiments/knapen_AOT/AOT_stimuli/rescaled_final/1493_rv.mp4	0.0	220.36399245262146	0.10003089904785156
42	199.8548264503479	fix_pre	0		118	40.0	2.5	/experiments/knapen_AOT/AOT_stimuli/rescaled_final/1047_rv.mp4	0.0	220.4640233516693	0.9918248653411865
42	200.83017992973328	pulse	0	t		40.0	2.5	/experiments/knapen_AOT/AOT_stimuli/rescaled_final/1047_rv.mp4	0.0	221.4393768310547	
42	200.8466513156891	movie	1		287	40.0	2.5	/experiments/knapen_AOT/AOT_stimuli/rescaled_final/1047_rv.mp4	0.0	221.4558482170105	2.5003652572631836
42	202.4307460784912	pulse	1	t		40.0	2.5	/experiments/knapen_AOT/AOT_stimuli/rescaled_final/1047_rv.mp4	0.0	223.03994297981262	
42	203.34701657295227	fix_post	2		12	40.0	2.5	/experiments/knapen_AOT/AOT_stimuli/rescaled_final/1047_rv.mp4	0.0	223.95621347427368	0.1000370979309082
43	203.44705367088318	fix_pre	0		120	41.0	2.5	blank	1.0	224.0562505722046	1.000145435333252
43	204.0308313369751	pulse	0	t		41.0	2.5	blank	1.0	224.6400282382965	
43	204.44719910621643	movie	1		300	41.0	2.5	blank	1.0	225.05639600753784	2.5003488063812256
43	205.63086557388306	pulse	1	t		41.0	2.5	blank	1.0	226.24006247520447	
43	206.94754791259766	fix_post	2		12	41.0	2.5	blank	1.0	227.55674481391907	0.10001826286315918
44	207.04756617546082	fix_pre	0		120	42.0	2.5	/experiments/knapen_AOT/AOT_stimuli/rescaled_final/1927_rv.mp4	0.0	227.65676307678223	1.008509635925293
44	207.23127365112305	pulse	0	t		42.0	2.5	/experiments/knapen_AOT/AOT_stimuli/rescaled_final/1927_rv.mp4	0.0	227.84047055244446	
44	208.0560758113861	movie	1		281	42.0	2.5	/experiments/knapen_AOT/AOT_stimuli/rescaled_final/1927_rv.mp4	0.0	228.66527271270752	2.492023468017578
44	208.83134984970093	pulse	1	t		42.0	2.5	/experiments/knapen_AOT/AOT_stimuli/rescaled_final/1927_rv.mp4	0.0	229.44054675102234	
44	210.43048405647278	pulse	1	t		42.0	2.5	/experiments/knapen_AOT/AOT_stimuli/rescaled_final/1927_rv.mp4	0.0	231.0396809577942	
44	210.5480992794037	fix_post	2		12	42.0	2.5	/experiments/knapen_AOT/AOT_stimuli/rescaled_final/1927_rv.mp4	0.0	231.1572961807251	0.10018229484558105
45	210.64828157424927	fix_pre	0		120	43.0	2.5	/experiments/knapen_AOT/AOT_stimuli/rescaled_final/0982_fw.mp4	0.0	231.25747847557068	1.0083270072937012
45	211.65660858154297	movie	1		280	43.0	2.5	/experiments/knapen_AOT/AOT_stimuli/rescaled_final/0982_fw.mp4	0.0	232.26580548286438	2.4920294284820557
45	212.03032422065735	pulse	1	t		43.0	2.5	/experiments/knapen_AOT/AOT_stimuli/rescaled_final/0982_fw.mp4	0.0	232.63952112197876	
45	213.63024139404297	pulse	1	t		43.0	2.5	/experiments/knapen_AOT/AOT_stimuli/rescaled_final/0982_fw.mp4	0.0	234.23943829536438	
45	214.14863801002502	fix_post	2		12	43.0	2.5	/experiments/knapen_AOT/AOT_stimuli/rescaled_final/0982_fw.mp4	0.0	234.75783491134644	0.10000491142272949
46	214.24864292144775	fix_pre	0		119	44.0	2.5	/experiments/knapen_AOT/AOT_stimuli/rescaled_final/1981_rv.mp4	0.0	234.85783982276917	1.0001652240753174
46	215.23233437538147	pulse	0	t		44.0	2.5	/experiments/knapen_AOT/AOT_stimuli/rescaled_final/1981_rv.mp4	0.0	235.84153127670288	
46	215.24880814552307	movie	1		285	44.0	2.5	/experiments/knapen_AOT/AOT_stimuli/rescaled_final/1981_rv.mp4	0.0	235.85800504684448	2.6255428791046143
46	216.8308186531067	pulse	1	t		44.0	2.5	/experiments/knapen_AOT/AOT_stimuli/rescaled_final/1981_rv.mp4	0.0	237.4400155544281	
46	217.87435102462769	fix_post	2		0	44.0	2.5	/experiments/knapen_AOT/AOT_stimuli/rescaled_final/1981_rv.mp4	0.0	238.4835479259491	0.0021920204162597656
47	217.87654304504395	fix_pre	0		117	45.0	2.5	/experiments/knapen_AOT/AOT_stimuli/rescaled_final/1299_fw.mp4	0.0	238.48573994636536	0.9811477661132812
47	218.43280601501465	pulse	0	t		45.0	2.5	/experiments/knapen_AOT/AOT_stimuli/rescaled_final/1299_fw.mp4	0.0	239.04200291633606	
47	218.85769081115723	movie	1		272	45.0	2.5	/experiments/knapen_AOT/AOT_stimuli/rescaled_final/1299_fw.mp4	0.0	239.46688771247864	2.500422954559326
47	220.0325357913971	pulse	1	t		45.0	2.5	/experiments/knapen_AOT/AOT_stimuli/rescaled_final/1299_fw.mp4	0.0	240.6417326927185	
47	221.35811376571655	fix_post	2		11	45.0	2.5	/experiments/knapen_AOT/AOT_stimuli/rescaled_final/1299_fw.mp4	0.0	241.96731066703796	0.09166383743286133
48	221.4497776031494	fix_pre	0		120	46.0	2.5	/experiments/knapen_AOT/AOT_stimuli/rescaled_final/0341_fw.mp4	0.0	242.05897450447083	1.0084824562072754
48	221.6336452960968	pulse	0	t		46.0	2.5	/experiments/knapen_AOT/AOT_stimuli/rescaled_final/0341_fw.mp4	0.0	242.2428421974182	
48	222.4582600593567	movie	1		284	46.0	2.5	/experiments/knapen_AOT/AOT_stimuli/rescaled_final/0341_fw.mp4	0.0	243.0674569606781	2.4920201301574707
48	223.23175597190857	pulse	1	t		46.0	2.5	/experiments/knapen_AOT/AOT_stimuli/rescaled_final/0341_fw.mp4	0.0	243.84095287322998	
48	224.83181309700012	pulse	1	t		46.0	2.5	/experiments/knapen_AOT/AOT_stimuli/rescaled_final/0341_fw.mp4	0.0	245.44100999832153	
48	224.95028018951416	fix_post	2		12	46.0	2.5	/experiments/knapen_AOT/AOT_stimuli/rescaled_final/0341_fw.mp4	0.0	245.55947709083557	0.09999728202819824
49	225.05027747154236	fix_pre	0		120	47.0	2.5	/experiments/knapen_AOT/AOT_stimuli/rescaled_final/1981_rv.mp4	0.0	245.65947437286377	1.0085558891296387
49	226.058833360672	movie	1		277	47.0	2.5	/experiments/knapen_AOT/AOT_stimuli/rescaled_final/1981_rv.mp4	0.0	246.6680302619934	2.4920198917388916
49	226.432514667511	pulse	1	t		47.0	2.5	/experiments/knapen_AOT/AOT_stimuli/rescaled_final/1981_rv.mp4	0.0	247.0417115688324	
49	228.0336410999298	pulse	1	t		47.0	2.5	/experiments/knapen_AOT/AOT_stimuli/rescaled_final/1981_rv.mp4	0.0	248.64283800125122	
49	228.5508532524109	fix_post	2		12	47.0	2.5	/experiments/knapen_AOT/AOT_stimuli/rescaled_final/1981_rv.mp4	0.0	249.1600501537323	0.09996676445007324
50	228.65082001686096	fix_pre	0		119	48.0	2.5	/experiments/knapen_AOT/AOT_stimuli/rescaled_final/1105_rv.mp4	0.0	249.26001691818237	1.0002598762512207
50	229.6346137523651	pulse	0	t		48.0	2.5	/experiments/knapen_AOT/AOT_stimuli/rescaled_final/1105_rv.mp4	0.0	250.24381065368652	
50	229.65107989311218	movie	1		288	48.0	2.5	/experiments/knapen_AOT/AOT_stimuli/rescaled_final/1105_rv.mp4	0.0	250.2602767944336	2.500260353088379
50	231.23390936851501	pulse	1	t		48.0	2.5	/experiments/knapen_AOT/AOT_stimuli/rescaled_final/1105_rv.mp4	0.0	251.84310626983643	
50	232.15134024620056	fix_post	2		12	48.0	2.5	/experiments/knapen_AOT/AOT_stimuli/rescaled_final/1105_rv.mp4	0.0	252.76053714752197	0.1000204086303711
51	232.25136065483093	fix_pre	0		120	49.0	2.5	blank	1.0	252.86055755615234	1.0001897811889648
51	232.8350031375885	pulse	0	t		49.0	2.5	blank	1.0	253.4442000389099	
51	233.2515504360199	movie	1		300	49.0	2.5	blank	1.0	253.8607473373413	2.5003411769866943
51	234.4353790283203	pulse	1	t		49.0	2.5	blank	1.0	255.04457592964172	
51	235.7518916130066	fix_post	2		12	49.0	2.5	blank	1.0	256.361088514328	0.10000419616699219
52	235.85189580917358	fix_pre	0		120	50.0	2.5	/experiments/knapen_AOT/AOT_stimuli/rescaled_final/1199_rv.mp4	0.0	256.461092710495	1.0084922313690186
52	236.0357382297516	pulse	0	t		50.0	2.5	/experiments/knapen_AOT/AOT_stimuli/rescaled_final/1199_rv.mp4	0.0	256.644935131073	
52	236.8603880405426	movie	1		279	50.0	2.5	/experiments/knapen_AOT/AOT_stimuli/rescaled_final/1199_rv.mp4	0.0	257.469584941864	2.492048501968384
52	237.63343691825867	pulse	1	t		50.0	2.5	/experiments/knapen_AOT/AOT_stimuli/rescaled_final/1199_rv.mp4	0.0	258.2426338195801	
52	239.23532485961914	pulse	1	t		50.0	2.5	/experiments/knapen_AOT/AOT_stimuli/rescaled_final/1199_rv.mp4	0.0	259.84452176094055	
52	239.352436542511	fix_post	2		12	50.0	2.5	/experiments/knapen_AOT/AOT_stimuli/rescaled_final/1199_rv.mp4	0.0	259.9616334438324	0.10003495216369629
53	239.45247149467468	fix_pre	0		120	51.0	2.5	/experiments/knapen_AOT/AOT_stimuli/rescaled_final/0640_rv.mp4	0.0	260.0616683959961	1.0084660053253174
53	240.4609375	movie	1		273	51.0	2.5	/experiments/knapen_AOT/AOT_stimuli/rescaled_final/0640_rv.mp4	0.0	261.0701344013214	2.492065191268921
53	240.83549666404724	pulse	1	t		51.0	2.5	/experiments/knapen_AOT/AOT_stimuli/rescaled_final/0640_rv.mp4	0.0	261.44469356536865	
53	242.43418860435486	pulse	1	t		51.0	2.5	/experiments/knapen_AOT/AOT_stimuli/rescaled_final/0640_rv.mp4	0.0	263.04338550567627	
53	242.95300269126892	fix_post	2		12	51.0	2.5	/experiments/knapen_AOT/AOT_stimuli/rescaled_final/0640_rv.mp4	0.0	263.56219959259033	0.09997320175170898
54	243.05297589302063	fix_pre	0		119	52.0	2.5	/experiments/knapen_AOT/AOT_stimuli/rescaled_final/1403_rv.mp4	0.0	263.66217279434204	1.0001962184906006
54	244.03676557540894	pulse	0	t		52.0	2.5	/experiments/knapen_AOT/AOT_stimuli/rescaled_final/1403_rv.mp4	0.0	264.64596247673035	
54	244.05317211151123	movie	1		290	52.0	2.5	/experiments/knapen_AOT/AOT_stimuli/rescaled_final/1403_rv.mp4	0.0	264.66236901283264	2.5003561973571777
54	245.63511753082275	pulse	1	t		52.0	2.5	/experiments/knapen_AOT/AOT_stimuli/rescaled_final/1403_rv.mp4	0.0	266.24431443214417	
54	246.5535283088684	fix_post	2		12	52.0	2.5	/experiments/knapen_AOT/AOT_stimuli/rescaled_final/1403_rv.mp4	0.0	267.1627252101898	0.10003232955932617
55	246.65356063842773	fix_pre	0		120	53.0	2.5	/experiments/knapen_AOT/AOT_stimuli/rescaled_final/0990_fw.mp4	0.0	267.26275753974915	1.0084621906280518
55	247.237375497818	pulse	0	t		53.0	2.5	/experiments/knapen_AOT/AOT_stimuli/rescaled_final/0990_fw.mp4	0.0	267.8465723991394	
55	247.6620228290558	movie	1		289	53.0	2.5	/experiments/knapen_AOT/AOT_stimuli/rescaled_final/0990_fw.mp4	0.0	268.2712197303772	2.4921860694885254
55	248.8293833732605	pulse	1	t		53.0	2.5	/experiments/knapen_AOT/AOT_stimuli/rescaled_final/0990_fw.mp4	0.0	269.4385802745819	
55	250.1542088985443	fix_post	2		12	53.0	2.5	/experiments/knapen_AOT/AOT_stimuli/rescaled_final/0990_fw.mp4	0.0	270.7634057998657	0.09985184669494629
56	250.25406074523926	fix_pre	0		120	54.0	2.5	/experiments/knapen_AOT/AOT_stimuli/rescaled_final/1053_fw.mp4	0.0	270.86325764656067	1.0085432529449463
56	250.4294559955597	pulse	0	t		54.0	2.5	/experiments/knapen_AOT/AOT_stimuli/rescaled_final/1053_fw.mp4	0.0	271.0386528968811	
56	251.2626039981842	movie	1		289	54.0	2.5	/experiments/knapen_AOT/AOT_stimuli/rescaled_final/1053_fw.mp4	0.0	271.8718008995056	2.492002010345459
56	252.0295422077179	pulse	1	t		54.0	2.5	/experiments/knapen_AOT/AOT_stimuli/rescaled_final/1053_fw.mp4	0.0	272.6387391090393	
56	253.6297905445099	pulse	1	t		54.0	2.5	/experiments/knapen_AOT/AOT_stimuli/rescaled_final/1053_fw.mp4	0.0	274.2389874458313	
56	253.75460600852966	fix_post	2		12	54.0	2.5	/experiments/knapen_AOT/AOT_stimuli/rescaled_final/1053_fw.mp4	0.0	274.3638029098511	0.10001587867736816
57	253.85462188720703	fix_pre	0		120	55.0	2.5	blank	1.0	274.46381878852844	1.0001826286315918
57	254.85480451583862	movie	1		300	55.0	2.5	blank	1.0	275.46400141716003	2.50032639503479
57	255.23014283180237	pulse	1	t		55.0	2.5	blank	1.0	275.8393397331238	
57	256.830269575119	pulse	1	t		55.0	2.5	blank	1.0	277.43946647644043	
57	257.3551309108734	fix_post	2		12	55.0	2.5	blank	1.0	277.9643278121948	0.10002970695495605
58	257.45516061782837	fix_pre	0		118	56.0	2.5	/experiments/knapen_AOT/AOT_stimuli/rescaled_final/1323_fw.mp4	0.0	278.0643575191498	0.9917893409729004
58	258.43049716949463	pulse	0	t		56.0	2.5	/experiments/knapen_AOT/AOT_stimuli/rescaled_final/1323_fw.mp4	0.0	279.03969407081604	
58	258.44694995880127	movie	1		286	56.0	2.5	/experiments/knapen_AOT/AOT_stimuli/rescaled_final/1323_fw.mp4	0.0	279.0561468601227	2.5003857612609863
58	260.03080224990845	pulse	1	t		56.0	2.5	/experiments/knapen_AOT/AOT_stimuli/rescaled_final/1323_fw.mp4	0.0	280.63999915122986	
58	260.94733572006226	fix_post	2		12	56.0	2.5	/experiments/knapen_AOT/AOT_stimuli/rescaled_final/1323_fw.mp4	0.0	281.55653262138367	0.10001373291015625
59	261.0473494529724	fix_pre	0		120	57.0	2.5	/experiments/knapen_AOT/AOT_stimuli/rescaled_final/1524_fw.mp4	0.0	281.6565463542938	1.0085492134094238
59	261.63097071647644	pulse	0	t		57.0	2.5	/experiments/knapen_AOT/AOT_stimuli/rescaled_final/1524_fw.mp4	0.0	282.24016761779785	
59	262.05589866638184	movie	1		283	57.0	2.5	/experiments/knapen_AOT/AOT_stimuli/rescaled_final/1524_fw.mp4	0.0	282.66509556770325	2.492003917694092
59	263.22949957847595	pulse	1	t		57.0	2.5	/experiments/knapen_AOT/AOT_stimuli/rescaled_final/1524_fw.mp4	0.0	283.83869647979736	
59	264.5479025840759	fix_post	2		12	57.0	2.5	/experiments/knapen_AOT/AOT_stimuli/rescaled_final/1524_fw.mp4	0.0	285.15709948539734	0.10003495216369629
60	264.6479375362396	fix_pre	0		120	58.0	2.5	/experiments/knapen_AOT/AOT_stimuli/rescaled_final/1496_fw.mp4	0.0	285.25713443756104	1.0168139934539795
60	264.831476688385	pulse	0	t		58.0	2.5	/experiments/knapen_AOT/AOT_stimuli/rescaled_final/1496_fw.mp4	0.0	285.4406735897064	
60	265.6647515296936	movie	1		288	58.0	2.5	/experiments/knapen_AOT/AOT_stimuli/rescaled_final/1496_fw.mp4	0.0	286.273948431015	2.4837074279785156
60	266.4295632839203	pulse	1	t		58.0	2.5	/experiments/knapen_AOT/AOT_stimuli/rescaled_final/1496_fw.mp4	0.0	287.0387601852417	
60	268.0299036502838	pulse	1	t		58.0	2.5	/experiments/knapen_AOT/AOT_stimuli/rescaled_final/1496_fw.mp4	0.0	288.6391005516052	
60	268.1484589576721	fix_post	2		12	58.0	2.5	/experiments/knapen_AOT/AOT_stimuli/rescaled_final/1496_fw.mp4	0.0	288.75765585899353	0.10005807876586914
61	268.248517036438	fix_pre	0		120	59.0	2.5	/experiments/knapen_AOT/AOT_stimuli/rescaled_final/1206_fw.mp4	0.0	288.8577139377594	1.008481502532959
61	269.25699853897095	movie	1		285	59.0	2.5	/experiments/knapen_AOT/AOT_stimuli/rescaled_final/1206_fw.mp4	0.0	289.86619544029236	2.4920244216918945
61	269.63103127479553	pulse	1	t		59.0	2.5	/experiments/knapen_AOT/AOT_stimuli/rescaled_final/1206_fw.mp4	0.0	290.24022817611694	
61	271.2323896884918	pulse	1	t		59.0	2.5	/experiments/knapen_AOT/AOT_stimuli/rescaled_final/1206_fw.mp4	0.0	291.84158658981323	
61	271.74902296066284	fix_post	2		12	59.0	2.5	/experiments/knapen_AOT/AOT_stimuli/rescaled_final/1206_fw.mp4	0.0	292.35821986198425	0.09999418258666992
62	271.8490171432495	fix_pre	0		119	60.0	2.5	/experiments/knapen_AOT/AOT_stimuli/rescaled_final/1808_fw.mp4	0.0	292.4582140445709	1.0001513957977295
62	272.8326487541199	pulse	0	t		60.0	2.5	/experiments/knapen_AOT/AOT_stimuli/rescaled_final/1808_fw.mp4	0.0	293.4418456554413	
62	272.84916853904724	movie	1		280	60.0	2.5	/experiments/knapen_AOT/AOT_stimuli/rescaled_final/1808_fw.mp4	0.0	293.45836544036865	2.5003459453582764
62	274.431312084198	pulse	1	t		60.0	2.5	/experiments/knapen_AOT/AOT_stimuli/rescaled_final/1808_fw.mp4	0.0	295.0405089855194	
62	275.3495144844055	fix_post	2		12	60.0	2.5	/experiments/knapen_AOT/AOT_stimuli/rescaled_final/1808_fw.mp4	0.0	295.95871138572693	0.10003852844238281
63	275.4495530128479	fix_pre	0		120	61.0	2.5	blank	1.0	296.0587499141693	1.0000958442687988
63	276.03320956230164	pulse	0	t		61.0	2.5	blank	1.0	296.64240646362305	
63	276.4496488571167	movie	1		300	61.0	2.5	blank	1.0	297.0588457584381	2.50042986869812
63	277.63341879844666	pulse	1	t		61.0	2.5	blank	1.0	298.24261569976807	
63	278.9500787258148	fix_post	2		12	61.0	2.5	blank	1.0	299.55927562713623	0.09999656677246094
64	279.0500752925873	fix_pre	0		120	62.0	2.5	/experiments/knapen_AOT/AOT_stimuli/rescaled_final/0967_fw.mp4	0.0	299.6592721939087	1.0085351467132568
64	279.23363971710205	pulse	0	t		62.0	2.5	/experiments/knapen_AOT/AOT_stimuli/rescaled_final/0967_fw.mp4	0.0	299.84283661842346	
64	280.05861043930054	movie	1		279	62.0	2.5	/experiments/knapen_AOT/AOT_stimuli/rescaled_final/0967_fw.mp4	0.0	300.66780734062195	2.4919679164886475
64	280.83157873153687	pulse	1	t		62.0	2.5	/experiments/knapen_AOT/AOT_stimuli/rescaled_final/0967_fw.mp4	0.0	301.4407756328583	
64	282.433002948761	pulse	1	t		62.0	2.5	/experiments/knapen_AOT/AOT_stimuli/rescaled_final/0967_fw.mp4	0.0	303.0421998500824	
64	282.5505783557892	fix_post	2		12	62.0	2.5	/experiments/knapen_AOT/AOT_stimuli/rescaled_final/0967_fw.mp4	0.0	303.1597752571106	0.10003352165222168
65	282.6506118774414	fix_pre	0		120	63.0	2.5	/experiments/knapen_AOT/AOT_stimuli/rescaled_final/1719_rv.mp4	0.0	303.2598087787628	1.0085315704345703
65	283.659143447876	movie	1		281	63.0	2.5	/experiments/knapen_AOT/AOT_stimuli/rescaled_final/1719_rv.mp4	0.0	304.2683403491974	2.4920530319213867
65	284.033730506897	pulse	1	t		63.0	2.5	/experiments/knapen_AOT/AOT_stimuli/rescaled_final/1719_rv.mp4	0.0	304.6429274082184	
65	285.63233399391174	pulse	1	t		63.0	2.5	/experiments/knapen_AOT/AOT_stimuli/rescaled_final/1719_rv.mp4	0.0	306.24153089523315	
65	286.15119647979736	fix_post	2		12	63.0	2.5	/experiments/knapen_AOT/AOT_stimuli/rescaled_final/1719_rv.mp4	0.0	306.7603933811188	0.100006103515625
66	286.251202583313	fix_pre	0		119	64.0	2.5	/experiments/knapen_AOT/AOT_stimuli/rescaled_final/1105_rv.mp4	0.0	306.8603994846344	1.000124454498291
66	287.23483967781067	pulse	0	t		64.0	2.5	/experiments/knapen_AOT/AOT_stimuli/rescaled_final/1105_rv.mp4	0.0	307.8440365791321	
66	287.2513270378113	movie	1		286	64.0	2.5	/experiments/knapen_AOT/AOT_stimuli/rescaled_final/1105_rv.mp4	0.0	307.8605239391327	2.5003726482391357
66	288.8338429927826	pulse	1	t		64.0	2.5	/experiments/knapen_AOT/AOT_stimuli/rescaled_final/1105_rv.mp4	0.0	309.443039894104	
66	289.7516996860504	fix_post	2		12	64.0	2.5	/experiments/knapen_AOT/AOT_stimuli/rescaled_final/1105_rv.mp4	0.0	310.3608965873718	0.09999227523803711
67	289.85169196128845	fix_pre	0		120	65.0	2.5	/experiments/knapen_AOT/AOT_stimuli/rescaled_final/1351_rv.mp4	0.0	310.46088886260986	1.0085010528564453
67	290.4353630542755	pulse	0	t		65.0	2.5	/experiments/knapen_AOT/AOT_stimuli/rescaled_final/1351_rv.mp4	0.0	311.0445599555969	
67	290.8601930141449	movie	1		283	65.0	2.5	/experiments/knapen_AOT/AOT_stimuli/rescaled_final/1351_rv.mp4	0.0	311.4693899154663	2.492056369781494
67	292.03367376327515	pulse	1	t		65.0	2.5	/experiments/knapen_AOT/AOT_stimuli/rescaled_final/1351_rv.mp4	0.0	312.64287066459656	
67	293.3522493839264	fix_post	2		12	65.0	2.5	/experiments/knapen_AOT/AOT_stimuli/rescaled_final/1351_rv.mp4	0.0	313.9614462852478	0.10000920295715332
68	293.45225858688354	fix_pre	0		120	66.0	2.5	/experiments/knapen_AOT/AOT_stimuli/rescaled_final/1288_rv.mp4	0.0	314.06145548820496	1.0084726810455322
68	293.6357617378235	pulse	0	t		66.0	2.5	/experiments/knapen_AOT/AOT_stimuli/rescaled_final/1288_rv.mp4	0.0	314.2449586391449	
68	294.4607312679291	movie	1		285	66.0	2.5	/experiments/knapen_AOT/AOT_stimuli/rescaled_final/1288_rv.mp4	0.0	315.0699281692505	2.4920201301574707
68	295.23416900634766	pulse	1	t		66.0	2.5	/experiments/knapen_AOT/AOT_stimuli/rescaled_final/1288_rv.mp4	0.0	315.84336590766907	
68	296.8342094421387	pulse	1	t		66.0	2.5	/experiments/knapen_AOT/AOT_stimuli/rescaled_final/1288_rv.mp4	0.0	317.4434063434601	
68	296.95275139808655	fix_post	2		12	66.0	2.5	/experiments/knapen_AOT/AOT_stimuli/rescaled_final/1288_rv.mp4	0.0	317.56194829940796	0.10001397132873535
69	297.0527653694153	fix_pre	0		120	67.0	2.5	/experiments/knapen_AOT/AOT_stimuli/rescaled_final/0879_rv.mp4	0.0	317.6619622707367	1.0086071491241455
69	298.06137251853943	movie	1		292	67.0	2.5	/experiments/knapen_AOT/AOT_stimuli/rescaled_final/0879_rv.mp4	0.0	318.67056941986084	2.4919590950012207
69	298.43526434898376	pulse	1	t		67.0	2.5	/experiments/knapen_AOT/AOT_stimuli/rescaled_final/0879_rv.mp4	0.0	319.0444612503052	
69	300.0322141647339	pulse	1	t		67.0	2.5	/experiments/knapen_AOT/AOT_stimuli/rescaled_final/0879_rv.mp4	0.0	320.6414110660553	
69	300.55333161354065	fix_post	2		12	67.0	2.5	/experiments/knapen_AOT/AOT_stimuli/rescaled_final/0879_rv.mp4	0.0	321.16252851486206	0.09999299049377441
70	300.6533246040344	fix_pre	0		119	68.0	2.5	blank	1.0	321.26252150535583	0.9918334484100342
70	301.6369094848633	pulse	0	t		68.0	2.5	blank	1.0	322.2461063861847	
70	301.64515805244446	movie	1		301	68.0	2.5	blank	1.0	322.25435495376587	2.508662700653076
70	303.2297873497009	pulse	1	t		68.0	2.5	blank	1.0	323.83898425102234	
70	304.15382075309753	fix_post	2		12	68.0	2.5	blank	1.0	324.76301765441895	0.10001063346862793
71	304.25383138656616	fix_pre	0		120	69.0	2.5	/experiments/knapen_AOT/AOT_stimuli/rescaled_final/0149_fw.mp4	0.0	324.8630282878876	1.0085172653198242
71	304.8374409675598	pulse	0	t		69.0	2.5	/experiments/knapen_AOT/AOT_stimuli/rescaled_final/0149_fw.mp4	0.0	325.4466378688812	
71	305.262348651886	movie	1		273	69.0	2.5	/experiments/knapen_AOT/AOT_stimuli/rescaled_final/0149_fw.mp4	0.0	325.8715455532074	2.4920856952667236
71	306.4384469985962	pulse	1	t		69.0	2.5	/experiments/knapen_AOT/AOT_stimuli/rescaled_final/0149_fw.mp4	0.0	327.0476438999176	
71	307.7544343471527	fix_post	2		12	69.0	2.5	/experiments/knapen_AOT/AOT_stimuli/rescaled_final/0149_fw.mp4	0.0	328.3636312484741	0.09999847412109375
72	307.8544328212738	fix_pre	0		120	70.0	2.5	/experiments/knapen_AOT/AOT_stimuli/rescaled_final/1673_fw.mp4	0.0	328.4636297225952	1.0084714889526367
72	308.0297808647156	pulse	0	t		70.0	2.5	/experiments/knapen_AOT/AOT_stimuli/rescaled_final/1673_fw.mp4	0.0	328.638977766037	
72	308.86290431022644	movie	1		287	70.0	2.5	/experiments/knapen_AOT/AOT_stimuli/rescaled_final/1673_fw.mp4	0.0	329.47210121154785	2.492003917694092
72	309.6299247741699	pulse	1	t		70.0	2.5	/experiments/knapen_AOT/AOT_stimuli/rescaled_final/1673_fw.mp4	0.0	330.23912167549133	
72	311.23045587539673	pulse	1	t		70.0	2.5	/experiments/knapen_AOT/AOT_stimuli/rescaled_final/1673_fw.mp4	0.0	331.83965277671814	
72	311.35490822792053	fix_post	2		12	70.0	2.5	/experiments/knapen_AOT/AOT_stimuli/rescaled_final/1673_fw.mp4	0.0	331.96410512924194	0.10003185272216797
73	311.4549400806427	fix_pre	0		120	71.0	2.5	/experiments/knapen_AOT/AOT_stimuli/rescaled_final/0303_fw.mp4	0.0	332.0641369819641	1.008467674255371
73	312.46340775489807	movie	1		280	71.0	2.5	/experiments/knapen_AOT/AOT_stimuli/rescaled_final/0303_fw.mp4	0.0	333.0726046562195	2.4922027587890625
73	312.83060812950134	pulse	1	t		71.0	2.5	/experiments/knapen_AOT/AOT_stimuli/rescaled_final/0303_fw.mp4	0.0	333.43980503082275	
73	314.4305987358093	pulse	1	t		71.0	2.5	/experiments/knapen_AOT/AOT_stimuli/rescaled_final/0303_fw.mp4	0.0	335.03979563713074	
73	314.95561051368713	fix_post	2		11	71.0	2.5	/experiments/knapen_AOT/AOT_stimuli/rescaled_final/0303_fw.mp4	0.0	335.56480741500854	0.09151816368103027
74	315.04712867736816	fix_pre	0		119	72.0	2.5	/experiments/knapen_AOT/AOT_stimuli/rescaled_final/2075_fw.mp4	0.0	335.6563255786896	1.0001604557037354
74	316.03107476234436	pulse	0	t		72.0	2.5	/experiments/knapen_AOT/AOT_stimuli/rescaled_final/2075_fw.mp4	0.0	336.64027166366577	
74	316.0472891330719	movie	1		280	72.0	2.5	/experiments/knapen_AOT/AOT_stimuli/rescaled_final/2075_fw.mp4	0.0	336.6564860343933	2.5003762245178223
74	317.6301236152649	pulse	1	t		72.0	2.5	/experiments/knapen_AOT/AOT_stimuli/rescaled_final/2075_fw.mp4	0.0	338.2393205165863	
74	318.5476653575897	fix_post	2		12	72.0	2.5	/experiments/knapen_AOT/AOT_stimuli/rescaled_final/2075_fw.mp4	0.0	339.15686225891113	0.10002493858337402
75	318.6476902961731	fix_pre	0		120	73.0	2.5	/experiments/knapen_AOT/AOT_stimuli/rescaled_final/0238_fw.mp4	0.0	339.2568871974945	1.0085842609405518
75	319.2313451766968	pulse	0	t		73.0	2.5	/experiments/knapen_AOT/AOT_stimuli/rescaled_final/0238_fw.mp4	0.0	339.8405420780182	
75	319.65627455711365	movie	1		278	73.0	2.5	/experiments/knapen_AOT/AOT_stimuli/rescaled_final/0238_fw.mp4	0.0	340.26547145843506	2.491936445236206
75	320.8315894603729	pulse	1	t		73.0	2.5	/experiments/knapen_AOT/AOT_stimuli/rescaled_final/0238_fw.mp4	0.0	341.44078636169434	
75	322.14821100234985	fix_post	2		12	73.0	2.5	/experiments/knapen_AOT/AOT_stimuli/rescaled_final/0238_fw.mp4	0.0	342.75740790367126	0.10001707077026367
76	322.2482280731201	fix_pre	0		120	74.0	2.5	/experiments/knapen_AOT/AOT_stimuli/rescaled_final/1199_rv.mp4	0.0	342.8574249744415	1.008504867553711
76	322.4317500591278	pulse	0	t		74.0	2.5	/experiments/knapen_AOT/AOT_stimuli/rescaled_final/1199_rv.mp4	0.0	343.0409469604492	
76	323.2567329406738	movie	1		281	74.0	2.5	/experiments/knapen_AOT/AOT_stimuli/rescaled_final/1199_rv.mp4	0.0	343.86592984199524	2.4920151233673096
76	324.03043818473816	pulse	1	t		74.0	2.5	/experiments/knapen_AOT/AOT_stimuli/rescaled_final/1199_rv.mp4	0.0	344.63963508605957	
76	325.63055419921875	pulse	1	t		74.0	2.5	/experiments/knapen_AOT/AOT_stimuli/rescaled_final/1199_rv.mp4	0.0	346.23975110054016	
76	325.74874806404114	fix_post	2		12	74.0	2.5	/experiments/knapen_AOT/AOT_stimuli/rescaled_final/1199_rv.mp4	0.0	346.35794496536255	0.10001730918884277
77	325.84876537323	fix_pre	0		120	75.0	2.5	blank	1.0	346.4579622745514	1.000152349472046
77	326.848917722702	movie	1		300	75.0	2.5	blank	1.0	347.45811462402344	2.500365734100342
77	327.2324814796448	pulse	1	t		75.0	2.5	blank	1.0	347.8416783809662	
77	328.832720041275	pulse	1	t		75.0	2.5	blank	1.0	349.44191694259644	
77	329.34928345680237	fix_post	2		12	75.0	2.5	blank	1.0	349.9584803581238	0.09998083114624023
78	329.4492642879486	fix_pre	0		119	76.0	2.5	/experiments/knapen_AOT/AOT_stimuli/rescaled_final/0563_fw.mp4	0.0	350.05846118927	1.008563756942749
78	330.43338108062744	pulse	0	t		76.0	2.5	/experiments/knapen_AOT/AOT_stimuli/rescaled_final/0563_fw.mp4	0.0	351.04257798194885	
78	330.45782804489136	movie	1		268	76.0	2.5	/experiments/knapen_AOT/AOT_stimuli/rescaled_final/0563_fw.mp4	0.0	351.06702494621277	2.492044687271118
78	332.0316505432129	pulse	1	t		76.0	2.5	/experiments/knapen_AOT/AOT_stimuli/rescaled_final/0563_fw.mp4	0.0	352.6408474445343	
78	332.9498727321625	fix_post	2		12	76.0	2.5	/experiments/knapen_AOT/AOT_stimuli/rescaled_final/0563_fw.mp4	0.0	353.5590696334839	0.09998345375061035
79	333.0498561859131	fix_pre	0		120	77.0	2.5	/experiments/knapen_AOT/AOT_stimuli/rescaled_final/0032_fw.mp4	0.0	353.6590530872345	1.0084972381591797
79	333.63346457481384	pulse	0	t		77.0	2.5	/experiments/knapen_AOT/AOT_stimuli/rescaled_final/0032_fw.mp4	0.0	354.24266147613525	
79	334.05835342407227	movie	1		273	77.0	2.5	/experiments/knapen_AOT/AOT_stimuli/rescaled_final/0032_fw.mp4	0.0	354.6675503253937	2.492015838623047
79	335.23205375671387	pulse	1	t		77.0	2.5	/experiments/knapen_AOT/AOT_stimuli/rescaled_final/0032_fw.mp4	0.0	355.8412506580353	
79	336.5503692626953	fix_post	2		12	77.0	2.5	/experiments/knapen_AOT/AOT_stimuli/rescaled_final/0032_fw.mp4	0.0	357.1595661640167	0.10003066062927246
80	336.6503999233246	fix_pre	0		120	78.0	2.5	/experiments/knapen_AOT/AOT_stimuli/rescaled_final/2085_fw.mp4	0.0	357.259596824646	1.0084912776947021
80	336.83405447006226	pulse	0	t		78.0	2.5	/experiments/knapen_AOT/AOT_stimuli/rescaled_final/2085_fw.mp4	0.0	357.44325137138367	
80	337.6588912010193	movie	1		277	78.0	2.5	/experiments/knapen_AOT/AOT_stimuli/rescaled_final/2085_fw.mp4	0.0	358.2680881023407	2.4921257495880127
80	338.4322462081909	pulse	1	t		78.0	2.5	/experiments/knapen_AOT/AOT_stimuli/rescaled_final/2085_fw.mp4	0.0	359.04144310951233	
80	340.03239250183105	pulse	1	t		78.0	2.5	/experiments/knapen_AOT/AOT_stimuli/rescaled_final/2085_fw.mp4	0.0	360.64158940315247	
80	340.1510169506073	fix_post	2		12	78.0	2.5	/experiments/knapen_AOT/AOT_stimuli/rescaled_final/2085_fw.mp4	0.0	360.7602138519287	0.0999460220336914
81	340.250962972641	fix_pre	0		120	79.0	2.5	/experiments/knapen_AOT/AOT_stimuli/rescaled_final/0753_rv.mp4	0.0	360.8601598739624	1.008472204208374
81	341.25943517684937	movie	1		270	79.0	2.5	/experiments/knapen_AOT/AOT_stimuli/rescaled_final/0753_rv.mp4	0.0	361.8686320781708	2.492034673690796
81	341.6342251300812	pulse	1	t		79.0	2.5	/experiments/knapen_AOT/AOT_stimuli/rescaled_final/0753_rv.mp4	0.0	362.2434220314026	
81	343.2332203388214	pulse	1	t		79.0	2.5	/experiments/knapen_AOT/AOT_stimuli/rescaled_final/0753_rv.mp4	0.0	363.8424172401428	
81	343.75146985054016	fix_post	2		12	79.0	2.5	/experiments/knapen_AOT/AOT_stimuli/rescaled_final/0753_rv.mp4	0.0	364.3606667518616	0.09999990463256836
82	343.85146975517273	fix_pre	0		119	80.0	2.5	/experiments/knapen_AOT/AOT_stimuli/rescaled_final/2059_fw.mp4	0.0	364.46066665649414	1.0002388954162598
82	344.8354980945587	pulse	0	t		80.0	2.5	/experiments/knapen_AOT/AOT_stimuli/rescaled_final/2059_fw.mp4	0.0	365.4446949958801	
82	344.851708650589	movie	1		276	80.0	2.5	/experiments/knapen_AOT/AOT_stimuli/rescaled_final/2059_fw.mp4	0.0	365.4609055519104	2.5002963542938232
82	346.4343194961548	pulse	1	t		80.0	2.5	/experiments/knapen_AOT/AOT_stimuli/rescaled_final/2059_fw.mp4	0.0	367.0435163974762	
82	347.3520050048828	fix_post	2		12	80.0	2.5	/experiments/knapen_AOT/AOT_stimuli/rescaled_final/2059_fw.mp4	0.0	367.9612019062042	0.10001373291015625
83	347.45201873779297	fix_pre	0		120	81.0	2.5	/experiments/knapen_AOT/AOT_stimuli/rescaled_final/0526_fw.mp4	0.0	368.0612156391144	1.0084757804870605
83	348.0356225967407	pulse	0	t		81.0	2.5	/experiments/knapen_AOT/AOT_stimuli/rescaled_final/0526_fw.mp4	0.0	368.64481949806213	
83	348.46049451828003	movie	1		275	81.0	2.5	/experiments/knapen_AOT/AOT_stimuli/rescaled_final/0526_fw.mp4	0.0	369.06969141960144	2.492067337036133
83	349.63416600227356	pulse	1	t		81.0	2.5	/experiments/knapen_AOT/AOT_stimuli/rescaled_final/0526_fw.mp4	0.0	370.24336290359497	
83	350.95256185531616	fix_post	2		12	81.0	2.5	/experiments/knapen_AOT/AOT_stimuli/rescaled_final/0526_fw.mp4	0.0	371.5617587566376	0.10000228881835938
84	351.0525641441345	fix_pre	0		120	82.0	2.5	blank	1.0	371.66176104545593	1.000138759613037
84	351.2362332344055	pulse	0	t		82.0	2.5	blank	1.0	371.84543013572693	
84	352.05270290374756	movie	1		300	82.0	2.5	blank	1.0	372.66189980506897	2.5003764629364014
84	352.83642959594727	pulse	1	t		82.0	2.5	blank	1.0	373.4456264972687	
84	354.43662214279175	pulse	1	t		82.0	2.5	blank	1.0	375.04581904411316	
84	354.55307936668396	fix_post	2		12	82.0	2.5	blank	1.0	375.16227626800537	0.10003137588500977
85	354.65311074256897	fix_pre	0		120	83.0	2.5	/experiments/knapen_AOT/AOT_stimuli/rescaled_final/1339_rv.mp4	0.0	375.2623076438904	1.0084726810455322
85	355.6615834236145	movie	1		275	83.0	2.5	/experiments/knapen_AOT/AOT_stimuli/rescaled_final/1339_rv.mp4	0.0	376.2707803249359	2.4920334815979004
85	356.03669476509094	pulse	1	t		83.0	2.5	/experiments/knapen_AOT/AOT_stimuli/rescaled_final/1339_rv.mp4	0.0	376.64589166641235	
85	357.6352229118347	pulse	1	t		83.0	2.5	/experiments/knapen_AOT/AOT_stimuli/rescaled_final/1339_rv.mp4	0.0	378.2444198131561	
85	358.1536169052124	fix_post	2		12	83.0	2.5	/experiments/knapen_AOT/AOT_stimuli/rescaled_final/1339_rv.mp4	0.0	378.7628138065338	0.12508893013000488
87	358.2787058353424	stim	0		1712					378.8879027366638	14.268746852874756
87	359.23725748062134	pulse	0	t						379.84645438194275	
87	360.83758568763733	pulse	0	t						381.44678258895874	
87	362.4303488731384	pulse	0	t						383.03954577445984	
87	364.0307574272156	pulse	0	t						384.639954328537	
87	365.63039112091064	pulse	0	t						386.23958802223206	
87	367.23034930229187	pulse	0	t						387.8395462036133	
87	368.83059668540955	pulse	0	t						389.43979358673096	
87	370.4309084415436	pulse	0	t						391.040105342865	
87	372.0310764312744	pulse	0	t						392.6402733325958	
