trial_nr	onset	event_type	phase	response	nr_frames	movie_index	movie_duration	movie_file	blank	onset_abs	duration
0	0.15006661415100098	stim	0		1					17.62094020843506	0.008264303207397461
0	0.15265989303588867	response	0	space						17.623533487319946	
1	0.15833091735839844	stim	0		5139					17.629204511642456	42.84391236305237
1	42.98761177062988	pulse	0	t						60.45848536491394	
1	43.00224328041077	stim	1		1714					60.473116874694824	14.297861099243164
1	44.58182692527771	pulse	1	t						62.05270051956177	
1	46.18195939064026	pulse	1	t						63.652832984924316	
1	47.78225231170654	pulse	1	t						65.2531259059906	
1	49.3825786113739	pulse	1	t						66.85345220565796	
1	50.9829204082489	pulse	1	t						68.45379400253296	
1	52.582911252975464	pulse	1	t						70.05378484725952	
1	54.18334484100342	pulse	1	t						71.65421843528748	
1	55.78342938423157	pulse	1	t						73.25430297851562	
2	57.30010437965393	fix_pre	0		11	0.0	2.5	/experiments/knapen_AOT/AOT_stimuli/rescaled_final/0130_rv.mp4	0.0	74.77097797393799	0.10848641395568848
2	57.38382124900818	pulse	0	t		0.0	2.5	/experiments/knapen_AOT/AOT_stimuli/rescaled_final/0130_rv.mp4	0.0	74.85469484329224	
2	57.40859079360962	movie	1		281	0.0	2.5	/experiments/knapen_AOT/AOT_stimuli/rescaled_final/0130_rv.mp4	0.0	74.87946438789368	2.491973876953125
2	58.97569298744202	pulse	1	t		0.0	2.5	/experiments/knapen_AOT/AOT_stimuli/rescaled_final/0130_rv.mp4	0.0	76.44656658172607	
2	59.900564670562744	fix_post	2		12	0.0	2.5	/experiments/knapen_AOT/AOT_stimuli/rescaled_final/0130_rv.mp4	0.0	77.3714382648468	0.1000053882598877
3	60.00057005882263	fix_pre	0		120	1.0	2.5	/experiments/knapen_AOT/AOT_stimuli/rescaled_final/1734_rv.mp4	0.0	77.47144365310669	1.0084328651428223
3	60.57581162452698	pulse	0	t		1.0	2.5	/experiments/knapen_AOT/AOT_stimuli/rescaled_final/1734_rv.mp4	0.0	78.04668521881104	
3	61.009002923965454	movie	1		269	1.0	2.5	/experiments/knapen_AOT/AOT_stimuli/rescaled_final/1734_rv.mp4	0.0	78.47987651824951	2.4920902252197266
3	62.17611885070801	pulse	1	t		1.0	2.5	/experiments/knapen_AOT/AOT_stimuli/rescaled_final/1734_rv.mp4	0.0	79.64699244499207	
3	63.50109314918518	fix_post	2		12	1.0	2.5	/experiments/knapen_AOT/AOT_stimuli/rescaled_final/1734_rv.mp4	0.0	80.97196674346924	0.09999847412109375
4	63.601091623306274	fix_pre	0		120	2.0	2.5	/experiments/knapen_AOT/AOT_stimuli/rescaled_final/0808_rv.mp4	0.0	81.07196521759033	1.0085902214050293
4	63.776472330093384	pulse	0	t		2.0	2.5	/experiments/knapen_AOT/AOT_stimuli/rescaled_final/0808_rv.mp4	0.0	81.24734592437744	
4	64.6096818447113	movie	1		268	2.0	2.5	/experiments/knapen_AOT/AOT_stimuli/rescaled_final/0808_rv.mp4	0.0	82.08055543899536	2.492051124572754
4	65.3756422996521	pulse	1	t		2.0	2.5	/experiments/knapen_AOT/AOT_stimuli/rescaled_final/0808_rv.mp4	0.0	82.84651589393616	
4	66.9761974811554	pulse	1	t		2.0	2.5	/experiments/knapen_AOT/AOT_stimuli/rescaled_final/0808_rv.mp4	0.0	84.44707107543945	
4	67.10173296928406	fix_post	2		12	2.0	2.5	/experiments/knapen_AOT/AOT_stimuli/rescaled_final/0808_rv.mp4	0.0	84.57260656356812	0.09987616539001465
5	67.20160913467407	fix_pre	0		120	3.0	2.5	/experiments/knapen_AOT/AOT_stimuli/rescaled_final/0852_fw.mp4	0.0	84.67248272895813	1.0085976123809814
5	68.21020674705505	movie	1		264	3.0	2.5	/experiments/knapen_AOT/AOT_stimuli/rescaled_final/0852_fw.mp4	0.0	85.68108034133911	2.5002689361572266
5	68.57748532295227	pulse	1	t		3.0	2.5	/experiments/knapen_AOT/AOT_stimuli/rescaled_final/0852_fw.mp4	0.0	86.04835891723633	
5	70.17750477790833	pulse	1	t		3.0	2.5	/experiments/knapen_AOT/AOT_stimuli/rescaled_final/0852_fw.mp4	0.0	87.64837837219238	
5	70.71047568321228	fix_post	2		11	3.0	2.5	/experiments/knapen_AOT/AOT_stimuli/rescaled_final/0852_fw.mp4	0.0	88.18134927749634	0.09172248840332031
6	70.8021981716156	fix_pre	0		118	4.0	2.5	/experiments/knapen_AOT/AOT_stimuli/rescaled_final/0012_fw.mp4	0.0	88.27307176589966	0.9917545318603516
6	71.77770447731018	pulse	0	t		4.0	2.5	/experiments/knapen_AOT/AOT_stimuli/rescaled_final/0012_fw.mp4	0.0	89.24857807159424	
6	71.79395270347595	movie	1		272	4.0	2.5	/experiments/knapen_AOT/AOT_stimuli/rescaled_final/0012_fw.mp4	0.0	89.26482629776001	2.50038743019104
6	73.37593507766724	pulse	1	t		4.0	2.5	/experiments/knapen_AOT/AOT_stimuli/rescaled_final/0012_fw.mp4	0.0	90.8468086719513	
6	74.29434013366699	fix_post	2		12	4.0	2.5	/experiments/knapen_AOT/AOT_stimuli/rescaled_final/0012_fw.mp4	0.0	91.76521372795105	0.10003495216369629
7	74.39437508583069	fix_pre	0		120	5.0	2.5	/experiments/knapen_AOT/AOT_stimuli/rescaled_final/0909_fw.mp4	0.0	91.86524868011475	1.008516550064087
7	74.97869348526001	pulse	0	t		5.0	2.5	/experiments/knapen_AOT/AOT_stimuli/rescaled_final/0909_fw.mp4	0.0	92.44956707954407	
7	75.40289163589478	movie	1		274	5.0	2.5	/experiments/knapen_AOT/AOT_stimuli/rescaled_final/0909_fw.mp4	0.0	92.87376523017883	2.492065906524658
7	76.57637906074524	pulse	1	t		5.0	2.5	/experiments/knapen_AOT/AOT_stimuli/rescaled_final/0909_fw.mp4	0.0	94.0472526550293	
7	77.89495754241943	fix_post	2		12	5.0	2.5	/experiments/knapen_AOT/AOT_stimuli/rescaled_final/0909_fw.mp4	0.0	95.36583113670349	0.09992361068725586
8	77.99488115310669	fix_pre	0		120	6.0	2.5	/experiments/knapen_AOT/AOT_stimuli/rescaled_final/1396_fw.mp4	0.0	95.46575474739075	1.0085101127624512
8	78.17842984199524	pulse	0	t		6.0	2.5	/experiments/knapen_AOT/AOT_stimuli/rescaled_final/1396_fw.mp4	0.0	95.6493034362793	
8	79.00339126586914	movie	1		275	6.0	2.5	/experiments/knapen_AOT/AOT_stimuli/rescaled_final/1396_fw.mp4	0.0	96.4742648601532	2.492036819458008
8	79.77770829200745	pulse	1	t		6.0	2.5	/experiments/knapen_AOT/AOT_stimuli/rescaled_final/1396_fw.mp4	0.0	97.2485818862915	
8	81.3769416809082	pulse	1	t		6.0	2.5	/experiments/knapen_AOT/AOT_stimuli/rescaled_final/1396_fw.mp4	0.0	98.84781527519226	
8	81.49542808532715	fix_post	2		12	6.0	2.5	/experiments/knapen_AOT/AOT_stimuli/rescaled_final/1396_fw.mp4	0.0	98.9663016796112	0.10004329681396484
9	81.59547138214111	fix_pre	0		120	7.0	2.5	blank	1.0	99.06634497642517	1.0001130104064941
9	82.59558439254761	movie	1		300	7.0	2.5	blank	1.0	100.06645798683167	2.5003561973571777
9	82.97920322418213	pulse	1	t		7.0	2.5	blank	1.0	100.45007681846619	
9	84.57941174507141	pulse	1	t		7.0	2.5	blank	1.0	102.05028533935547	
9	85.09594058990479	fix_post	2		12	7.0	2.5	blank	1.0	102.56681418418884	0.10000252723693848
10	85.19594311714172	fix_pre	0		119	8.0	2.5	/experiments/knapen_AOT/AOT_stimuli/rescaled_final/1359_fw.mp4	0.0	102.66681671142578	1.0002200603485107
10	86.17975807189941	pulse	0	t		8.0	2.5	/experiments/knapen_AOT/AOT_stimuli/rescaled_final/1359_fw.mp4	0.0	103.65063166618347	
10	86.19616317749023	movie	1		271	8.0	2.5	/experiments/knapen_AOT/AOT_stimuli/rescaled_final/1359_fw.mp4	0.0	103.66703677177429	2.500352144241333
10	87.77842569351196	pulse	1	t		8.0	2.5	/experiments/knapen_AOT/AOT_stimuli/rescaled_final/1359_fw.mp4	0.0	105.24929928779602	
10	88.69651532173157	fix_post	2		12	8.0	2.5	/experiments/knapen_AOT/AOT_stimuli/rescaled_final/1359_fw.mp4	0.0	106.16738891601562	0.10013437271118164
11	88.79664969444275	fix_pre	0		120	9.0	2.5	/experiments/knapen_AOT/AOT_stimuli/rescaled_final/1071_fw.mp4	0.0	106.2675232887268	1.0083656311035156
11	89.38019895553589	pulse	0	t		9.0	2.5	/experiments/knapen_AOT/AOT_stimuli/rescaled_final/1071_fw.mp4	0.0	106.85107254981995	
11	89.80501532554626	movie	1		270	9.0	2.5	/experiments/knapen_AOT/AOT_stimuli/rescaled_final/1071_fw.mp4	0.0	107.27588891983032	2.492014169692993
11	90.97928380966187	pulse	1	t		9.0	2.5	/experiments/knapen_AOT/AOT_stimuli/rescaled_final/1071_fw.mp4	0.0	108.45015740394592	
11	92.29702949523926	fix_post	2		12	9.0	2.5	/experiments/knapen_AOT/AOT_stimuli/rescaled_final/1071_fw.mp4	0.0	109.76790308952332	0.10008668899536133
12	92.39711618423462	fix_pre	0		120	10.0	2.5	/experiments/knapen_AOT/AOT_stimuli/rescaled_final/1017_rv.mp4	0.0	109.86798977851868	1.008439302444458
12	92.58069252967834	pulse	0	t		10.0	2.5	/experiments/knapen_AOT/AOT_stimuli/rescaled_final/1017_rv.mp4	0.0	110.0515661239624	
12	93.40555548667908	movie	1		265	10.0	2.5	/experiments/knapen_AOT/AOT_stimuli/rescaled_final/1017_rv.mp4	0.0	110.87642908096313	2.492020845413208
12	94.17861485481262	pulse	1	t		10.0	2.5	/experiments/knapen_AOT/AOT_stimuli/rescaled_final/1017_rv.mp4	0.0	111.64948844909668	
12	95.77911376953125	pulse	1	t		10.0	2.5	/experiments/knapen_AOT/AOT_stimuli/rescaled_final/1017_rv.mp4	0.0	113.24998736381531	
12	95.89757633209229	fix_post	2		12	10.0	2.5	/experiments/knapen_AOT/AOT_stimuli/rescaled_final/1017_rv.mp4	0.0	113.36844992637634	0.10002374649047852
13	95.99760007858276	fix_pre	0		120	11.0	2.5	/experiments/knapen_AOT/AOT_stimuli/rescaled_final/1981_fw.mp4	0.0	113.46847367286682	1.0085816383361816
13	97.00618171691895	movie	1		271	11.0	2.5	/experiments/knapen_AOT/AOT_stimuli/rescaled_final/1981_fw.mp4	0.0	114.477055311203	2.4919304847717285
13	97.37958478927612	pulse	1	t		11.0	2.5	/experiments/knapen_AOT/AOT_stimuli/rescaled_final/1981_fw.mp4	0.0	114.85045838356018	
13	98.97980999946594	pulse	1	t		11.0	2.5	/experiments/knapen_AOT/AOT_stimuli/rescaled_final/1981_fw.mp4	0.0	116.45068359375	
13	99.49811220169067	fix_post	2		12	11.0	2.5	/experiments/knapen_AOT/AOT_stimuli/rescaled_final/1981_fw.mp4	0.0	116.96898579597473	0.10023188591003418
14	99.59834408760071	fix_pre	0		119	12.0	2.5	/experiments/knapen_AOT/AOT_stimuli/rescaled_final/0976_fw.mp4	0.0	117.06921768188477	1.0083637237548828
14	100.58192467689514	pulse	0	t		12.0	2.5	/experiments/knapen_AOT/AOT_stimuli/rescaled_final/0976_fw.mp4	0.0	118.0527982711792	
14	100.60670781135559	movie	1		277	12.0	2.5	/experiments/knapen_AOT/AOT_stimuli/rescaled_final/0976_fw.mp4	0.0	118.07758140563965	2.4919657707214355
14	102.18032908439636	pulse	1	t		12.0	2.5	/experiments/knapen_AOT/AOT_stimuli/rescaled_final/0976_fw.mp4	0.0	119.65120267868042	
14	103.09867358207703	fix_post	2		12	12.0	2.5	/experiments/knapen_AOT/AOT_stimuli/rescaled_final/0976_fw.mp4	0.0	120.56954717636108	0.10000920295715332
15	103.19868278503418	fix_pre	0		120	13.0	2.5	blank	1.0	120.66955637931824	1.00014066696167
15	103.78232741355896	pulse	0	t		13.0	2.5	blank	1.0	121.25320100784302	
15	104.19882345199585	movie	1		300	13.0	2.5	blank	1.0	121.66969704627991	2.500392198562622
15	105.38249969482422	pulse	1	t		13.0	2.5	blank	1.0	122.85337328910828	
15	106.69921565055847	fix_post	2		12	13.0	2.5	blank	1.0	124.17008924484253	0.09999227523803711
16	106.79920792579651	fix_pre	0		120	14.0	2.5	/experiments/knapen_AOT/AOT_stimuli/rescaled_final/1734_rv.mp4	0.0	124.27008152008057	1.008504867553711
16	106.98283505439758	pulse	0	t		14.0	2.5	/experiments/knapen_AOT/AOT_stimuli/rescaled_final/1734_rv.mp4	0.0	124.45370864868164	
16	107.80771279335022	movie	1		271	14.0	2.5	/experiments/knapen_AOT/AOT_stimuli/rescaled_final/1734_rv.mp4	0.0	125.27858638763428	2.492047071456909
16	108.5810317993164	pulse	1	t		14.0	2.5	/experiments/knapen_AOT/AOT_stimuli/rescaled_final/1734_rv.mp4	0.0	126.05190539360046	
16	110.18104219436646	pulse	1	t		14.0	2.5	/experiments/knapen_AOT/AOT_stimuli/rescaled_final/1734_rv.mp4	0.0	127.65191578865051	
16	110.29975986480713	fix_post	2		12	14.0	2.5	/experiments/knapen_AOT/AOT_stimuli/rescaled_final/1734_rv.mp4	0.0	127.77063345909119	0.09999990463256836
17	110.3997597694397	fix_pre	0		120	15.0	2.5	/experiments/knapen_AOT/AOT_stimuli/rescaled_final/1497_rv.mp4	0.0	127.87063336372375	1.0084915161132812
17	111.40825128555298	movie	1		267	15.0	2.5	/experiments/knapen_AOT/AOT_stimuli/rescaled_final/1497_rv.mp4	0.0	128.87912487983704	2.492029905319214
17	111.78259873390198	pulse	1	t		15.0	2.5	/experiments/knapen_AOT/AOT_stimuli/rescaled_final/1497_rv.mp4	0.0	129.25347232818604	
17	113.38175892829895	pulse	1	t		15.0	2.5	/experiments/knapen_AOT/AOT_stimuli/rescaled_final/1497_rv.mp4	0.0	130.852632522583	
17	113.90028119087219	fix_post	2		12	15.0	2.5	/experiments/knapen_AOT/AOT_stimuli/rescaled_final/1497_rv.mp4	0.0	131.37115478515625	0.10005855560302734
18	114.00033974647522	fix_pre	0		119	16.0	2.5	/experiments/knapen_AOT/AOT_stimuli/rescaled_final/0306_fw.mp4	0.0	131.47121334075928	1.0001835823059082
18	114.97608065605164	pulse	0	t		16.0	2.5	/experiments/knapen_AOT/AOT_stimuli/rescaled_final/0306_fw.mp4	0.0	132.4469542503357	
18	115.00052332878113	movie	1		271	16.0	2.5	/experiments/knapen_AOT/AOT_stimuli/rescaled_final/0306_fw.mp4	0.0	132.47139692306519	2.5003223419189453
18	116.57603645324707	pulse	1	t		16.0	2.5	/experiments/knapen_AOT/AOT_stimuli/rescaled_final/0306_fw.mp4	0.0	134.04691004753113	
18	117.50084567070007	fix_post	2		12	16.0	2.5	/experiments/knapen_AOT/AOT_stimuli/rescaled_final/0306_fw.mp4	0.0	134.97171926498413	0.09999465942382812
19	117.6008403301239	fix_pre	0		120	17.0	2.5	/experiments/knapen_AOT/AOT_stimuli/rescaled_final/1359_rv.mp4	0.0	135.07171392440796	1.0085852146148682
19	118.1761543750763	pulse	0	t		17.0	2.5	/experiments/knapen_AOT/AOT_stimuli/rescaled_final/1359_rv.mp4	0.0	135.64702796936035	
19	118.60942554473877	movie	1		280	17.0	2.5	/experiments/knapen_AOT/AOT_stimuli/rescaled_final/1359_rv.mp4	0.0	136.08029913902283	2.491968870162964
19	119.77640080451965	pulse	1	t		17.0	2.5	/experiments/knapen_AOT/AOT_stimuli/rescaled_final/1359_rv.mp4	0.0	137.2472743988037	
19	121.10139441490173	fix_post	2		12	17.0	2.5	/experiments/knapen_AOT/AOT_stimuli/rescaled_final/1359_rv.mp4	0.0	138.5722680091858	0.10003447532653809
20	121.20142889022827	fix_pre	0		120	18.0	2.5	/experiments/knapen_AOT/AOT_stimuli/rescaled_final/1842_rv.mp4	0.0	138.67230248451233	1.00844144821167
20	121.37663459777832	pulse	0	t		18.0	2.5	/experiments/knapen_AOT/AOT_stimuli/rescaled_final/1842_rv.mp4	0.0	138.84750819206238	
20	122.20987033843994	movie	1		274	18.0	2.5	/experiments/knapen_AOT/AOT_stimuli/rescaled_final/1842_rv.mp4	0.0	139.680743932724	2.492034673690796
20	122.97686100006104	pulse	1	t		18.0	2.5	/experiments/knapen_AOT/AOT_stimuli/rescaled_final/1842_rv.mp4	0.0	140.4477345943451	
20	124.57711672782898	pulse	1	t		18.0	2.5	/experiments/knapen_AOT/AOT_stimuli/rescaled_final/1842_rv.mp4	0.0	142.04799032211304	
20	124.70190501213074	fix_post	2		12	18.0	2.5	/experiments/knapen_AOT/AOT_stimuli/rescaled_final/1842_rv.mp4	0.0	142.1727786064148	0.10016536712646484
21	124.8020703792572	fix_pre	0		120	19.0	2.5	blank	1.0	142.27294397354126	0.9999904632568359
21	125.80206084251404	movie	1		300	19.0	2.5	blank	1.0	143.2729344367981	2.500472068786621
21	126.1774799823761	pulse	1	t		19.0	2.5	blank	1.0	143.64835357666016	
21	127.77762031555176	pulse	1	t		19.0	2.5	blank	1.0	145.24849390983582	
21	128.30253291130066	fix_post	2		12	19.0	2.5	blank	1.0	145.77340650558472	0.09992551803588867
22	128.40245842933655	fix_pre	0		118	20.0	2.5	/experiments/knapen_AOT/AOT_stimuli/rescaled_final/0852_rv.mp4	0.0	145.8733320236206	0.9918200969696045
22	129.3778486251831	pulse	0	t		20.0	2.5	/experiments/knapen_AOT/AOT_stimuli/rescaled_final/0852_rv.mp4	0.0	146.84872221946716	
22	129.39427852630615	movie	1		280	20.0	2.5	/experiments/knapen_AOT/AOT_stimuli/rescaled_final/0852_rv.mp4	0.0	146.8651521205902	2.500375270843506
22	130.97700381278992	pulse	1	t		20.0	2.5	/experiments/knapen_AOT/AOT_stimuli/rescaled_final/0852_rv.mp4	0.0	148.44787740707397	
22	131.89465379714966	fix_post	2		12	20.0	2.5	/experiments/knapen_AOT/AOT_stimuli/rescaled_final/0852_rv.mp4	0.0	149.36552739143372	0.10001635551452637
23	131.99467015266418	fix_pre	0		120	21.0	2.5	/experiments/knapen_AOT/AOT_stimuli/rescaled_final/1325_fw.mp4	0.0	149.46554374694824	1.008512020111084
23	132.57863426208496	pulse	0	t		21.0	2.5	/experiments/knapen_AOT/AOT_stimuli/rescaled_final/1325_fw.mp4	0.0	150.04950785636902	
23	133.00318217277527	movie	1		287	21.0	2.5	/experiments/knapen_AOT/AOT_stimuli/rescaled_final/1325_fw.mp4	0.0	150.47405576705933	2.492013692855835
23	134.17681193351746	pulse	1	t		21.0	2.5	/experiments/knapen_AOT/AOT_stimuli/rescaled_final/1325_fw.mp4	0.0	151.6476855278015	
23	135.4951958656311	fix_post	2		12	21.0	2.5	/experiments/knapen_AOT/AOT_stimuli/rescaled_final/1325_fw.mp4	0.0	152.96606945991516	0.1000208854675293
24	135.59521675109863	fix_pre	0		120	22.0	2.5	/experiments/knapen_AOT/AOT_stimuli/rescaled_final/0512_fw.mp4	0.0	153.0660903453827	1.0085539817810059
24	135.77900457382202	pulse	0	t		22.0	2.5	/experiments/knapen_AOT/AOT_stimuli/rescaled_final/0512_fw.mp4	0.0	153.24987816810608	
24	136.60377073287964	movie	1		278	22.0	2.5	/experiments/knapen_AOT/AOT_stimuli/rescaled_final/0512_fw.mp4	0.0	154.0746443271637	2.49200439453125
24	137.37663745880127	pulse	1	t		22.0	2.5	/experiments/knapen_AOT/AOT_stimuli/rescaled_final/0512_fw.mp4	0.0	154.84751105308533	
24	138.9772710800171	pulse	1	t		22.0	2.5	/experiments/knapen_AOT/AOT_stimuli/rescaled_final/0512_fw.mp4	0.0	156.44814467430115	
24	139.0957751274109	fix_post	2		12	22.0	2.5	/experiments/knapen_AOT/AOT_stimuli/rescaled_final/0512_fw.mp4	0.0	156.56664872169495	0.10009312629699707
25	139.19586825370789	fix_pre	0		120	23.0	2.5	/experiments/knapen_AOT/AOT_stimuli/rescaled_final/1658_fw.mp4	0.0	156.66674184799194	1.0083701610565186
25	140.2042384147644	movie	1		267	23.0	2.5	/experiments/knapen_AOT/AOT_stimuli/rescaled_final/1658_fw.mp4	0.0	157.67511200904846	2.492149829864502
25	140.57905316352844	pulse	1	t		23.0	2.5	/experiments/knapen_AOT/AOT_stimuli/rescaled_final/1658_fw.mp4	0.0	158.0499267578125	
25	142.17773032188416	pulse	1	t		23.0	2.5	/experiments/knapen_AOT/AOT_stimuli/rescaled_final/1658_fw.mp4	0.0	159.6486039161682	
25	142.6963882446289	fix_post	2		12	23.0	2.5	/experiments/knapen_AOT/AOT_stimuli/rescaled_final/1658_fw.mp4	0.0	160.16726183891296	0.09990501403808594
26	142.796293258667	fix_pre	0		119	24.0	2.5	/experiments/knapen_AOT/AOT_stimuli/rescaled_final/0516_rv.mp4	0.0	160.26716685295105	1.0001795291900635
26	143.7799551486969	pulse	0	t		24.0	2.5	/experiments/knapen_AOT/AOT_stimuli/rescaled_final/0516_rv.mp4	0.0	161.25082874298096	
26	143.79647278785706	movie	1		277	24.0	2.5	/experiments/knapen_AOT/AOT_stimuli/rescaled_final/0516_rv.mp4	0.0	161.2673463821411	2.5003252029418945
26	145.3803322315216	pulse	1	t		24.0	2.5	/experiments/knapen_AOT/AOT_stimuli/rescaled_final/0516_rv.mp4	0.0	162.85120582580566	
26	146.29679799079895	fix_post	2		12	24.0	2.5	/experiments/knapen_AOT/AOT_stimuli/rescaled_final/0516_rv.mp4	0.0	163.767671585083	0.10002827644348145
27	146.39682626724243	fix_pre	0		120	25.0	2.5	/experiments/knapen_AOT/AOT_stimuli/rescaled_final/0267_fw.mp4	0.0	163.8676998615265	1.008521318435669
27	146.98050999641418	pulse	0	t		25.0	2.5	/experiments/knapen_AOT/AOT_stimuli/rescaled_final/0267_fw.mp4	0.0	164.45138359069824	
27	147.4053475856781	movie	1		290	25.0	2.5	/experiments/knapen_AOT/AOT_stimuli/rescaled_final/0267_fw.mp4	0.0	164.87622117996216	2.492015838623047
27	148.57895922660828	pulse	1	t		25.0	2.5	/experiments/knapen_AOT/AOT_stimuli/rescaled_final/0267_fw.mp4	0.0	166.04983282089233	
27	149.89736342430115	fix_post	2		12	25.0	2.5	/experiments/knapen_AOT/AOT_stimuli/rescaled_final/0267_fw.mp4	0.0	167.3682370185852	0.1000216007232666
28	149.9973850250244	fix_pre	0		120	26.0	2.5	/experiments/knapen_AOT/AOT_stimuli/rescaled_final/2172_fw.mp4	0.0	167.46825861930847	1.008486270904541
28	150.1810212135315	pulse	0	t		26.0	2.5	/experiments/knapen_AOT/AOT_stimuli/rescaled_final/2172_fw.mp4	0.0	167.65189480781555	
28	151.00587129592896	movie	1		266	26.0	2.5	/experiments/knapen_AOT/AOT_stimuli/rescaled_final/2172_fw.mp4	0.0	168.476744890213	2.4921910762786865
28	151.7789866924286	pulse	1	t		26.0	2.5	/experiments/knapen_AOT/AOT_stimuli/rescaled_final/2172_fw.mp4	0.0	169.24986028671265	
28	153.3795235157013	pulse	1	t		26.0	2.5	/experiments/knapen_AOT/AOT_stimuli/rescaled_final/2172_fw.mp4	0.0	170.85039710998535	
28	153.49806237220764	fix_post	2		12	26.0	2.5	/experiments/knapen_AOT/AOT_stimuli/rescaled_final/2172_fw.mp4	0.0	170.9689359664917	0.0998380184173584
29	153.597900390625	fix_pre	0		120	27.0	2.5	blank	1.0	171.06877398490906	1.000159502029419
29	154.59805989265442	movie	1		300	27.0	2.5	blank	1.0	172.06893348693848	2.5003743171691895
29	154.9824459552765	pulse	1	t		27.0	2.5	blank	1.0	172.45331954956055	
29	156.5820610523224	pulse	1	t		27.0	2.5	blank	1.0	174.05293464660645	
29	157.0984342098236	fix_post	2		12	27.0	2.5	blank	1.0	174.56930780410767	0.10008120536804199
30	157.19851541519165	fix_pre	0		119	28.0	2.5	/experiments/knapen_AOT/AOT_stimuli/rescaled_final/0434_rv.mp4	0.0	174.6693890094757	1.0000736713409424
30	158.18207454681396	pulse	0	t		28.0	2.5	/experiments/knapen_AOT/AOT_stimuli/rescaled_final/0434_rv.mp4	0.0	175.65294814109802	
30	158.1985890865326	movie	1		281	28.0	2.5	/experiments/knapen_AOT/AOT_stimuli/rescaled_final/0434_rv.mp4	0.0	175.66946268081665	2.5004093647003174
30	159.7804672718048	pulse	1	t		28.0	2.5	/experiments/knapen_AOT/AOT_stimuli/rescaled_final/0434_rv.mp4	0.0	177.25134086608887	
30	160.6989984512329	fix_post	2		12	28.0	2.5	/experiments/knapen_AOT/AOT_stimuli/rescaled_final/0434_rv.mp4	0.0	178.16987204551697	0.10003662109375
31	160.79903507232666	fix_pre	0		120	29.0	2.5	/experiments/knapen_AOT/AOT_stimuli/rescaled_final/0327_rv.mp4	0.0	178.26990866661072	1.0084748268127441
31	161.38264656066895	pulse	0	t		29.0	2.5	/experiments/knapen_AOT/AOT_stimuli/rescaled_final/0327_rv.mp4	0.0	178.853520154953	
31	161.8075098991394	movie	1		270	29.0	2.5	/experiments/knapen_AOT/AOT_stimuli/rescaled_final/0327_rv.mp4	0.0	179.27838349342346	2.492074489593506
31	162.98205947875977	pulse	1	t		29.0	2.5	/experiments/knapen_AOT/AOT_stimuli/rescaled_final/0327_rv.mp4	0.0	180.45293307304382	
31	164.2995843887329	fix_post	2		12	29.0	2.5	/experiments/knapen_AOT/AOT_stimuli/rescaled_final/0327_rv.mp4	0.0	181.77045798301697	0.09993672370910645
32	164.39952111244202	fix_pre	0		120	30.0	2.5	/experiments/knapen_AOT/AOT_stimuli/rescaled_final/1458_fw.mp4	0.0	181.87039470672607	1.0085091590881348
32	164.5830750465393	pulse	0	t		30.0	2.5	/experiments/knapen_AOT/AOT_stimuli/rescaled_final/1458_fw.mp4	0.0	182.05394864082336	
32	165.40803027153015	movie	1		273	30.0	2.5	/experiments/knapen_AOT/AOT_stimuli/rescaled_final/1458_fw.mp4	0.0	182.8789038658142	2.492029905319214
32	166.18134880065918	pulse	1	t		30.0	2.5	/experiments/knapen_AOT/AOT_stimuli/rescaled_final/1458_fw.mp4	0.0	183.65222239494324	
32	167.78175354003906	pulse	1	t		30.0	2.5	/experiments/knapen_AOT/AOT_stimuli/rescaled_final/1458_fw.mp4	0.0	185.25262713432312	
32	167.90006017684937	fix_post	2		12	30.0	2.5	/experiments/knapen_AOT/AOT_stimuli/rescaled_final/1458_fw.mp4	0.0	185.37093377113342	0.10000777244567871
33	168.00006794929504	fix_pre	0		120	31.0	2.5	/experiments/knapen_AOT/AOT_stimuli/rescaled_final/0445_rv.mp4	0.0	185.4709415435791	1.0084819793701172
33	169.00854992866516	movie	1		279	31.0	2.5	/experiments/knapen_AOT/AOT_stimuli/rescaled_final/0445_rv.mp4	0.0	186.47942352294922	2.492429494857788
33	169.38270926475525	pulse	1	t		31.0	2.5	/experiments/knapen_AOT/AOT_stimuli/rescaled_final/0445_rv.mp4	0.0	186.8535828590393	
33	170.98204708099365	pulse	1	t		31.0	2.5	/experiments/knapen_AOT/AOT_stimuli/rescaled_final/0445_rv.mp4	0.0	188.4529206752777	
33	171.50097942352295	fix_post	2		12	31.0	2.5	/experiments/knapen_AOT/AOT_stimuli/rescaled_final/0445_rv.mp4	0.0	188.971853017807	0.09965634346008301
34	171.60063576698303	fix_pre	0		119	32.0	2.5	/experiments/knapen_AOT/AOT_stimuli/rescaled_final/1581_rv.mp4	0.0	189.0715093612671	1.0002329349517822
34	172.5764675140381	pulse	0	t		32.0	2.5	/experiments/knapen_AOT/AOT_stimuli/rescaled_final/1581_rv.mp4	0.0	190.04734110832214	
34	172.60086870193481	movie	1		277	32.0	2.5	/experiments/knapen_AOT/AOT_stimuli/rescaled_final/1581_rv.mp4	0.0	190.07174229621887	2.5002803802490234
34	174.18398451805115	pulse	1	t		32.0	2.5	/experiments/knapen_AOT/AOT_stimuli/rescaled_final/1581_rv.mp4	0.0	191.6548581123352	
34	175.10114908218384	fix_post	2		12	32.0	2.5	/experiments/knapen_AOT/AOT_stimuli/rescaled_final/1581_rv.mp4	0.0	192.5720226764679	0.10004162788391113
35	175.20119071006775	fix_pre	0		120	33.0	2.5	/experiments/knapen_AOT/AOT_stimuli/rescaled_final/0740_fw.mp4	0.0	192.6720643043518	1.008446216583252
35	175.77649664878845	pulse	0	t		33.0	2.5	/experiments/knapen_AOT/AOT_stimuli/rescaled_final/0740_fw.mp4	0.0	193.2473702430725	
35	176.209636926651	movie	1		269	33.0	2.5	/experiments/knapen_AOT/AOT_stimuli/rescaled_final/0740_fw.mp4	0.0	193.68051052093506	2.4920542240142822
35	177.37698435783386	pulse	1	t		33.0	2.5	/experiments/knapen_AOT/AOT_stimuli/rescaled_final/0740_fw.mp4	0.0	194.84785795211792	
35	178.70169115066528	fix_post	2		12	33.0	2.5	/experiments/knapen_AOT/AOT_stimuli/rescaled_final/0740_fw.mp4	0.0	196.17256474494934	0.10009455680847168
36	178.80178570747375	fix_pre	0		120	34.0	2.5	blank	1.0	196.2726593017578	1.0000605583190918
36	178.97701978683472	pulse	0	t		34.0	2.5	blank	1.0	196.44789338111877	
36	179.80184626579285	movie	1		300	34.0	2.5	blank	1.0	197.2727198600769	2.500371217727661
36	180.5772590637207	pulse	1	t		34.0	2.5	blank	1.0	198.04813265800476	
36	182.1774821281433	pulse	1	t		34.0	2.5	blank	1.0	199.64835572242737	
36	182.3022174835205	fix_post	2		12	34.0	2.5	blank	1.0	199.77309107780457	0.10003352165222168
37	182.40225100517273	fix_pre	0		120	35.0	2.5	/experiments/knapen_AOT/AOT_stimuli/rescaled_final/0395_rv.mp4	0.0	199.8731245994568	1.0086073875427246
37	183.41085839271545	movie	1		263	35.0	2.5	/experiments/knapen_AOT/AOT_stimuli/rescaled_final/0395_rv.mp4	0.0	200.8817319869995	2.491908073425293
37	183.7777543067932	pulse	1	t		35.0	2.5	/experiments/knapen_AOT/AOT_stimuli/rescaled_final/0395_rv.mp4	0.0	201.24862790107727	
37	185.3779182434082	pulse	1	t		35.0	2.5	/experiments/knapen_AOT/AOT_stimuli/rescaled_final/0395_rv.mp4	0.0	202.84879183769226	
37	185.90276646614075	fix_post	2		12	35.0	2.5	/experiments/knapen_AOT/AOT_stimuli/rescaled_final/0395_rv.mp4	0.0	203.3736400604248	0.10010147094726562
38	186.002867937088	fix_pre	0		118	36.0	2.5	/experiments/knapen_AOT/AOT_stimuli/rescaled_final/0462_fw.mp4	0.0	203.47374153137207	0.9917194843292236
38	186.97815108299255	pulse	0	t		36.0	2.5	/experiments/knapen_AOT/AOT_stimuli/rescaled_final/0462_fw.mp4	0.0	204.4490246772766	
38	186.99458742141724	movie	1		264	36.0	2.5	/experiments/knapen_AOT/AOT_stimuli/rescaled_final/0462_fw.mp4	0.0	204.4654610157013	2.5004632472991943
38	188.57838463783264	pulse	1	t		36.0	2.5	/experiments/knapen_AOT/AOT_stimuli/rescaled_final/0462_fw.mp4	0.0	206.0492582321167	
38	189.49505066871643	fix_post	2		12	36.0	2.5	/experiments/knapen_AOT/AOT_stimuli/rescaled_final/0462_fw.mp4	0.0	206.9659242630005	0.10000085830688477
39	189.59505152702332	fix_pre	0		120	37.0	2.5	/experiments/knapen_AOT/AOT_stimuli/rescaled_final/0243_fw.mp4	0.0	207.06592512130737	1.00848388671875
39	190.17868661880493	pulse	0	t		37.0	2.5	/experiments/knapen_AOT/AOT_stimuli/rescaled_final/0243_fw.mp4	0.0	207.649560213089	
39	190.60353541374207	movie	1		267	37.0	2.5	/experiments/knapen_AOT/AOT_stimuli/rescaled_final/0243_fw.mp4	0.0	208.07440900802612	2.491990089416504
39	191.7771029472351	pulse	1	t		37.0	2.5	/experiments/knapen_AOT/AOT_stimuli/rescaled_final/0243_fw.mp4	0.0	209.24797654151917	
39	193.09552550315857	fix_post	2		12	37.0	2.5	/experiments/knapen_AOT/AOT_stimuli/rescaled_final/0243_fw.mp4	0.0	210.56639909744263	0.10008716583251953
40	193.1956126689911	fix_pre	0		120	38.0	2.5	/experiments/knapen_AOT/AOT_stimuli/rescaled_final/0161_rv.mp4	0.0	210.66648626327515	1.0084102153778076
40	193.37912845611572	pulse	0	t		38.0	2.5	/experiments/knapen_AOT/AOT_stimuli/rescaled_final/0161_rv.mp4	0.0	210.85000205039978	
40	194.2040228843689	movie	1		277	38.0	2.5	/experiments/knapen_AOT/AOT_stimuli/rescaled_final/0161_rv.mp4	0.0	211.67489647865295	2.492025852203369
40	194.97702884674072	pulse	1	t		38.0	2.5	/experiments/knapen_AOT/AOT_stimuli/rescaled_final/0161_rv.mp4	0.0	212.44790244102478	
40	196.5775501728058	pulse	1	t		38.0	2.5	/experiments/knapen_AOT/AOT_stimuli/rescaled_final/0161_rv.mp4	0.0	214.04842376708984	
40	196.69604873657227	fix_post	2		12	38.0	2.5	/experiments/knapen_AOT/AOT_stimuli/rescaled_final/0161_rv.mp4	0.0	214.16692233085632	0.10009312629699707
41	196.79614186286926	fix_pre	0		120	39.0	2.5	/experiments/knapen_AOT/AOT_stimuli/rescaled_final/0988_rv.mp4	0.0	214.26701545715332	1.008418083190918
41	197.80455994606018	movie	1		280	39.0	2.5	/experiments/knapen_AOT/AOT_stimuli/rescaled_final/0988_rv.mp4	0.0	215.27543354034424	2.492241859436035
41	198.17827224731445	pulse	1	t		39.0	2.5	/experiments/knapen_AOT/AOT_stimuli/rescaled_final/0988_rv.mp4	0.0	215.6491458415985	
41	199.77920937538147	pulse	1	t		39.0	2.5	/experiments/knapen_AOT/AOT_stimuli/rescaled_final/0988_rv.mp4	0.0	217.25008296966553	
41	200.29680180549622	fix_post	2		12	39.0	2.5	/experiments/knapen_AOT/AOT_stimuli/rescaled_final/0988_rv.mp4	0.0	217.76767539978027	0.0998070240020752
42	200.3966088294983	fix_pre	0		119	40.0	2.5	blank	1.0	217.86748242378235	0.9919185638427734
42	201.38035678863525	pulse	0	t		40.0	2.5	blank	1.0	218.8512303829193	
42	201.38852739334106	movie	1		301	40.0	2.5	blank	1.0	218.85940098762512	2.5086066722869873
42	202.98065829277039	pulse	1	t		40.0	2.5	blank	1.0	220.45153188705444	
42	203.89713406562805	fix_post	2		12	40.0	2.5	blank	1.0	221.3680076599121	0.10008120536804199
43	203.9972152709961	fix_pre	0		120	41.0	2.5	/experiments/knapen_AOT/AOT_stimuli/rescaled_final/0927_fw.mp4	0.0	221.46808886528015	1.0084311962127686
43	204.58076691627502	pulse	0	t		41.0	2.5	/experiments/knapen_AOT/AOT_stimuli/rescaled_final/0927_fw.mp4	0.0	222.05164051055908	
43	205.00564646720886	movie	1		278	41.0	2.5	/experiments/knapen_AOT/AOT_stimuli/rescaled_final/0927_fw.mp4	0.0	222.47652006149292	2.4920222759246826
43	206.18125796318054	pulse	1	t		41.0	2.5	/experiments/knapen_AOT/AOT_stimuli/rescaled_final/0927_fw.mp4	0.0	223.6521315574646	
43	207.49766874313354	fix_post	2		12	41.0	2.5	/experiments/knapen_AOT/AOT_stimuli/rescaled_final/0927_fw.mp4	0.0	224.9685423374176	0.10002660751342773
44	207.59769535064697	fix_pre	0		120	42.0	2.5	/experiments/knapen_AOT/AOT_stimuli/rescaled_final/1681_fw.mp4	0.0	225.06856894493103	1.0085229873657227
44	207.78126430511475	pulse	0	t		42.0	2.5	/experiments/knapen_AOT/AOT_stimuli/rescaled_final/1681_fw.mp4	0.0	225.2521378993988	
44	208.6062183380127	movie	1		283	42.0	2.5	/experiments/knapen_AOT/AOT_stimuli/rescaled_final/1681_fw.mp4	0.0	226.07709193229675	2.492000102996826
44	209.37941479682922	pulse	1	t		42.0	2.5	/experiments/knapen_AOT/AOT_stimuli/rescaled_final/1681_fw.mp4	0.0	226.85028839111328	
44	210.9797019958496	pulse	1	t		42.0	2.5	/experiments/knapen_AOT/AOT_stimuli/rescaled_final/1681_fw.mp4	0.0	228.45057559013367	
44	211.09821844100952	fix_post	2		12	42.0	2.5	/experiments/knapen_AOT/AOT_stimuli/rescaled_final/1681_fw.mp4	0.0	228.56909203529358	0.10000753402709961
45	211.19822597503662	fix_pre	0		120	43.0	2.5	/experiments/knapen_AOT/AOT_stimuli/rescaled_final/0512_rv.mp4	0.0	228.66909956932068	1.008542537689209
45	212.20676851272583	movie	1		280	43.0	2.5	/experiments/knapen_AOT/AOT_stimuli/rescaled_final/0512_rv.mp4	0.0	229.6776421070099	2.4919795989990234
45	212.5803623199463	pulse	1	t		43.0	2.5	/experiments/knapen_AOT/AOT_stimuli/rescaled_final/0512_rv.mp4	0.0	230.05123591423035	
45	214.18060040473938	pulse	1	t		43.0	2.5	/experiments/knapen_AOT/AOT_stimuli/rescaled_final/0512_rv.mp4	0.0	231.65147399902344	
45	214.69874811172485	fix_post	2		12	43.0	2.5	/experiments/knapen_AOT/AOT_stimuli/rescaled_final/0512_rv.mp4	0.0	232.1696217060089	0.1000204086303711
46	214.79876852035522	fix_pre	0		119	44.0	2.5	/experiments/knapen_AOT/AOT_stimuli/rescaled_final/0182_rv.mp4	0.0	232.26964211463928	1.0001533031463623
46	215.78248238563538	pulse	0	t		44.0	2.5	/experiments/knapen_AOT/AOT_stimuli/rescaled_final/0182_rv.mp4	0.0	233.25335597991943	
46	215.7989218235016	movie	1		288	44.0	2.5	/experiments/knapen_AOT/AOT_stimuli/rescaled_final/0182_rv.mp4	0.0	233.26979541778564	2.50036883354187
46	217.3814673423767	pulse	1	t		44.0	2.5	/experiments/knapen_AOT/AOT_stimuli/rescaled_final/0182_rv.mp4	0.0	234.85234093666077	
46	218.29929065704346	fix_post	2		12	44.0	2.5	/experiments/knapen_AOT/AOT_stimuli/rescaled_final/0182_rv.mp4	0.0	235.77016425132751	0.10009098052978516
47	218.39938163757324	fix_pre	0		120	45.0	2.5	/experiments/knapen_AOT/AOT_stimuli/rescaled_final/0639_fw.mp4	0.0	235.8702552318573	1.0085523128509521
47	218.98299598693848	pulse	0	t		45.0	2.5	/experiments/knapen_AOT/AOT_stimuli/rescaled_final/0639_fw.mp4	0.0	236.45386958122253	
47	219.4079339504242	movie	1		259	45.0	2.5	/experiments/knapen_AOT/AOT_stimuli/rescaled_final/0639_fw.mp4	0.0	236.87880754470825	2.492016553878784
47	220.58128476142883	pulse	1	t		45.0	2.5	/experiments/knapen_AOT/AOT_stimuli/rescaled_final/0639_fw.mp4	0.0	238.0521583557129	
47	221.89995050430298	fix_post	2		12	45.0	2.5	/experiments/knapen_AOT/AOT_stimuli/rescaled_final/0639_fw.mp4	0.0	239.37082409858704	0.09992361068725586
48	221.99987411499023	fix_pre	0		120	46.0	2.5	/experiments/knapen_AOT/AOT_stimuli/rescaled_final/0851_fw.mp4	0.0	239.4707477092743	1.0084760189056396
48	222.1834659576416	pulse	0	t		46.0	2.5	/experiments/knapen_AOT/AOT_stimuli/rescaled_final/0851_fw.mp4	0.0	239.65433955192566	
48	223.00835013389587	movie	1		275	46.0	2.5	/experiments/knapen_AOT/AOT_stimuli/rescaled_final/0851_fw.mp4	0.0	240.47922372817993	2.49204421043396
48	223.78284668922424	pulse	1	t		46.0	2.5	/experiments/knapen_AOT/AOT_stimuli/rescaled_final/0851_fw.mp4	0.0	241.2537202835083	
48	225.38313102722168	pulse	1	t		46.0	2.5	/experiments/knapen_AOT/AOT_stimuli/rescaled_final/0851_fw.mp4	0.0	242.85400462150574	
48	225.50039434432983	fix_post	2		12	46.0	2.5	/experiments/knapen_AOT/AOT_stimuli/rescaled_final/0851_fw.mp4	0.0	242.9712679386139	0.10004615783691406
49	225.60044050216675	fix_pre	0		120	47.0	2.5	blank	1.0	243.0713140964508	1.000150442123413
49	226.60059094429016	movie	1		300	47.0	2.5	blank	1.0	244.07146453857422	2.5003087520599365
49	226.98456954956055	pulse	1	t		47.0	2.5	blank	1.0	244.4554431438446	
49	228.5771505832672	pulse	1	t		47.0	2.5	blank	1.0	246.04802417755127	
49	229.1008996963501	fix_post	2		12	47.0	2.5	blank	1.0	246.57177329063416	0.10013222694396973
50	229.20103192329407	fix_pre	0		118	48.0	2.5	/experiments/knapen_AOT/AOT_stimuli/rescaled_final/0705_rv.mp4	0.0	246.67190551757812	0.9917857646942139
50	230.1763927936554	pulse	0	t		48.0	2.5	/experiments/knapen_AOT/AOT_stimuli/rescaled_final/0705_rv.mp4	0.0	247.64726638793945	
50	230.19281768798828	movie	1		264	48.0	2.5	/experiments/knapen_AOT/AOT_stimuli/rescaled_final/0705_rv.mp4	0.0	247.66369128227234	2.500300645828247
50	231.7836582660675	pulse	1	t		48.0	2.5	/experiments/knapen_AOT/AOT_stimuli/rescaled_final/0705_rv.mp4	0.0	249.25453186035156	
50	232.69311833381653	fix_post	2		12	48.0	2.5	/experiments/knapen_AOT/AOT_stimuli/rescaled_final/0705_rv.mp4	0.0	250.1639919281006	0.10002756118774414
51	232.79314589500427	fix_pre	0		120	49.0	2.5	/experiments/knapen_AOT/AOT_stimuli/rescaled_final/1080_rv.mp4	0.0	250.26401948928833	1.008490800857544
51	233.37702107429504	pulse	0	t		49.0	2.5	/experiments/knapen_AOT/AOT_stimuli/rescaled_final/1080_rv.mp4	0.0	250.8478946685791	
51	233.80163669586182	movie	1		279	49.0	2.5	/experiments/knapen_AOT/AOT_stimuli/rescaled_final/1080_rv.mp4	0.0	251.27251029014587	2.49202299118042
51	234.97707080841064	pulse	1	t		49.0	2.5	/experiments/knapen_AOT/AOT_stimuli/rescaled_final/1080_rv.mp4	0.0	252.4479444026947	
51	236.29365968704224	fix_post	2		12	49.0	2.5	/experiments/knapen_AOT/AOT_stimuli/rescaled_final/1080_rv.mp4	0.0	253.7645332813263	0.10006928443908691
52	236.39372897148132	fix_pre	0		120	50.0	2.5	/experiments/knapen_AOT/AOT_stimuli/rescaled_final/1920_rv.mp4	0.0	253.86460256576538	1.0084784030914307
52	236.57730889320374	pulse	0	t		50.0	2.5	/experiments/knapen_AOT/AOT_stimuli/rescaled_final/1920_rv.mp4	0.0	254.0481824874878	
52	237.40220737457275	movie	1		269	50.0	2.5	/experiments/knapen_AOT/AOT_stimuli/rescaled_final/1920_rv.mp4	0.0	254.8730809688568	2.491997480392456
52	238.1768901348114	pulse	1	t		50.0	2.5	/experiments/knapen_AOT/AOT_stimuli/rescaled_final/1920_rv.mp4	0.0	255.64776372909546	
52	239.776376247406	pulse	1	t		50.0	2.5	/experiments/knapen_AOT/AOT_stimuli/rescaled_final/1920_rv.mp4	0.0	257.24724984169006	
52	239.8942048549652	fix_post	2		12	50.0	2.5	/experiments/knapen_AOT/AOT_stimuli/rescaled_final/1920_rv.mp4	0.0	257.36507844924927	0.10002017021179199
53	239.994225025177	fix_pre	0		120	51.0	2.5	/experiments/knapen_AOT/AOT_stimuli/rescaled_final/1080_fw.mp4	0.0	257.46509861946106	1.0085508823394775
53	241.00277590751648	movie	1		273	51.0	2.5	/experiments/knapen_AOT/AOT_stimuli/rescaled_final/1080_fw.mp4	0.0	258.47364950180054	2.4920339584350586
53	241.37714171409607	pulse	1	t		51.0	2.5	/experiments/knapen_AOT/AOT_stimuli/rescaled_final/1080_fw.mp4	0.0	258.8480153083801	
53	242.9764015674591	pulse	1	t		51.0	2.5	/experiments/knapen_AOT/AOT_stimuli/rescaled_final/1080_fw.mp4	0.0	260.44727516174316	
53	243.49480986595154	fix_post	2		12	51.0	2.5	/experiments/knapen_AOT/AOT_stimuli/rescaled_final/1080_fw.mp4	0.0	260.9656834602356	0.09999990463256836
54	243.5948097705841	fix_pre	0		119	52.0	2.5	/experiments/knapen_AOT/AOT_stimuli/rescaled_final/0010_fw.mp4	0.0	261.06568336486816	1.000121831893921
54	244.5787491798401	pulse	0	t		52.0	2.5	/experiments/knapen_AOT/AOT_stimuli/rescaled_final/0010_fw.mp4	0.0	262.04962277412415	
54	244.59493160247803	movie	1		276	52.0	2.5	/experiments/knapen_AOT/AOT_stimuli/rescaled_final/0010_fw.mp4	0.0	262.0658051967621	2.500399351119995
54	246.17796397209167	pulse	1	t		52.0	2.5	/experiments/knapen_AOT/AOT_stimuli/rescaled_final/0010_fw.mp4	0.0	263.64883756637573	
54	247.09533095359802	fix_post	2		12	52.0	2.5	/experiments/knapen_AOT/AOT_stimuli/rescaled_final/0010_fw.mp4	0.0	264.5662045478821	0.10007953643798828
55	247.195410490036	fix_pre	0		120	53.0	2.5	/experiments/knapen_AOT/AOT_stimuli/rescaled_final/0647_rv.mp4	0.0	264.66628408432007	1.0083882808685303
55	247.77894282341003	pulse	0	t		53.0	2.5	/experiments/knapen_AOT/AOT_stimuli/rescaled_final/0647_rv.mp4	0.0	265.2498164176941	
55	248.20379877090454	movie	1		282	53.0	2.5	/experiments/knapen_AOT/AOT_stimuli/rescaled_final/0647_rv.mp4	0.0	265.6746723651886	2.4920191764831543
55	249.37899518013	pulse	1	t		53.0	2.5	/experiments/knapen_AOT/AOT_stimuli/rescaled_final/0647_rv.mp4	0.0	266.84986877441406	
55	250.6958179473877	fix_post	2		12	53.0	2.5	/experiments/knapen_AOT/AOT_stimuli/rescaled_final/0647_rv.mp4	0.0	268.16669154167175	0.10002803802490234
56	250.7958459854126	fix_pre	0		120	54.0	2.5	/experiments/knapen_AOT/AOT_stimuli/rescaled_final/1424_rv.mp4	0.0	268.26671957969666	1.008507251739502
56	250.97949886322021	pulse	0	t		54.0	2.5	/experiments/knapen_AOT/AOT_stimuli/rescaled_final/1424_rv.mp4	0.0	268.4503724575043	
56	251.8043532371521	movie	1		283	54.0	2.5	/experiments/knapen_AOT/AOT_stimuli/rescaled_final/1424_rv.mp4	0.0	269.27522683143616	2.492067813873291
56	252.57797169685364	pulse	1	t		54.0	2.5	/experiments/knapen_AOT/AOT_stimuli/rescaled_final/1424_rv.mp4	0.0	270.0488452911377	
56	254.17824959754944	pulse	1	t		54.0	2.5	/experiments/knapen_AOT/AOT_stimuli/rescaled_final/1424_rv.mp4	0.0	271.6491231918335	
56	254.2964210510254	fix_post	2		12	54.0	2.5	/experiments/knapen_AOT/AOT_stimuli/rescaled_final/1424_rv.mp4	0.0	271.76729464530945	0.0999755859375
57	254.3963966369629	fix_pre	0		120	55.0	2.5	blank	1.0	271.86727023124695	1.000168800354004
57	255.3965654373169	movie	1		300	55.0	2.5	blank	1.0	272.86743903160095	2.500356674194336
57	255.7801296710968	pulse	1	t		55.0	2.5	blank	1.0	273.25100326538086	
57	257.38068771362305	pulse	1	t		55.0	2.5	blank	1.0	274.8515613079071	
57	257.89692211151123	fix_post	2		12	55.0	2.5	blank	1.0	275.3677957057953	0.10001397132873535
58	257.99693608283997	fix_pre	0		119	56.0	2.5	/experiments/knapen_AOT/AOT_stimuli/rescaled_final/2175_rv.mp4	0.0	275.467809677124	1.000270128250122
58	258.980614900589	pulse	0	t		56.0	2.5	/experiments/knapen_AOT/AOT_stimuli/rescaled_final/2175_rv.mp4	0.0	276.45148849487305	
58	258.9972062110901	movie	1		282	56.0	2.5	/experiments/knapen_AOT/AOT_stimuli/rescaled_final/2175_rv.mp4	0.0	276.46807980537415	2.500371217727661
58	260.5807104110718	pulse	1	t		56.0	2.5	/experiments/knapen_AOT/AOT_stimuli/rescaled_final/2175_rv.mp4	0.0	278.05158400535583	
58	261.49757742881775	fix_post	2		12	56.0	2.5	/experiments/knapen_AOT/AOT_stimuli/rescaled_final/2175_rv.mp4	0.0	278.9684510231018	0.09991121292114258
59	261.5974886417389	fix_pre	0		120	57.0	2.5	/experiments/knapen_AOT/AOT_stimuli/rescaled_final/2113_fw.mp4	0.0	279.06836223602295	1.008497953414917
59	262.1810920238495	pulse	0	t		57.0	2.5	/experiments/knapen_AOT/AOT_stimuli/rescaled_final/2113_fw.mp4	0.0	279.65196561813354	
59	262.6059865951538	movie	1		272	57.0	2.5	/experiments/knapen_AOT/AOT_stimuli/rescaled_final/2113_fw.mp4	0.0	280.07686018943787	2.4919991493225098
59	263.78172516822815	pulse	1	t		57.0	2.5	/experiments/knapen_AOT/AOT_stimuli/rescaled_final/2113_fw.mp4	0.0	281.2525987625122	
59	265.0979857444763	fix_post	2		12	57.0	2.5	/experiments/knapen_AOT/AOT_stimuli/rescaled_final/2113_fw.mp4	0.0	282.5688593387604	0.10001730918884277
60	265.19800305366516	fix_pre	0		120	58.0	2.5	/experiments/knapen_AOT/AOT_stimuli/rescaled_final/0011_rv.mp4	0.0	282.6688766479492	1.0085220336914062
60	265.38160586357117	pulse	0	t		58.0	2.5	/experiments/knapen_AOT/AOT_stimuli/rescaled_final/0011_rv.mp4	0.0	282.8524794578552	
60	266.20652508735657	movie	1		286	58.0	2.5	/experiments/knapen_AOT/AOT_stimuli/rescaled_final/0011_rv.mp4	0.0	283.6773986816406	2.4920008182525635
60	266.9796142578125	pulse	1	t		58.0	2.5	/experiments/knapen_AOT/AOT_stimuli/rescaled_final/0011_rv.mp4	0.0	284.45048785209656	
60	268.5799832344055	pulse	1	t		58.0	2.5	/experiments/knapen_AOT/AOT_stimuli/rescaled_final/0011_rv.mp4	0.0	286.0508568286896	
60	268.69852590560913	fix_post	2		12	58.0	2.5	/experiments/knapen_AOT/AOT_stimuli/rescaled_final/0011_rv.mp4	0.0	286.1693994998932	0.10001921653747559
61	268.7985451221466	fix_pre	0		120	59.0	2.5	/experiments/knapen_AOT/AOT_stimuli/rescaled_final/1681_fw.mp4	0.0	286.26941871643066	1.0085225105285645
61	269.80706763267517	movie	1		282	59.0	2.5	/experiments/knapen_AOT/AOT_stimuli/rescaled_final/1681_fw.mp4	0.0	287.27794122695923	2.4919965267181396
61	270.180801153183	pulse	1	t		59.0	2.5	/experiments/knapen_AOT/AOT_stimuli/rescaled_final/1681_fw.mp4	0.0	287.65167474746704	
61	271.78045988082886	pulse	1	t		59.0	2.5	/experiments/knapen_AOT/AOT_stimuli/rescaled_final/1681_fw.mp4	0.0	289.2513334751129	
61	272.2990641593933	fix_post	2		12	59.0	2.5	/experiments/knapen_AOT/AOT_stimuli/rescaled_final/1681_fw.mp4	0.0	289.76993775367737	0.10000491142272949
62	272.39906907081604	fix_pre	0		119	60.0	2.5	/experiments/knapen_AOT/AOT_stimuli/rescaled_final/0879_rv.mp4	0.0	289.8699426651001	1.0002918243408203
62	273.3829481601715	pulse	0	t		60.0	2.5	/experiments/knapen_AOT/AOT_stimuli/rescaled_final/0879_rv.mp4	0.0	290.85382175445557	
62	273.39936089515686	movie	1		276	60.0	2.5	/experiments/knapen_AOT/AOT_stimuli/rescaled_final/0879_rv.mp4	0.0	290.8702344894409	2.5002448558807373
62	274.98158144950867	pulse	1	t		60.0	2.5	/experiments/knapen_AOT/AOT_stimuli/rescaled_final/0879_rv.mp4	0.0	292.4524550437927	
62	275.8996057510376	fix_post	2		12	60.0	2.5	/experiments/knapen_AOT/AOT_stimuli/rescaled_final/0879_rv.mp4	0.0	293.37047934532166	0.10001921653747559
63	275.9996249675751	fix_pre	0		120	61.0	2.5	blank	1.0	293.47049856185913	1.0001652240753174
63	276.5832796096802	pulse	0	t		61.0	2.5	blank	1.0	294.05415320396423	
63	276.9997901916504	movie	1		300	61.0	2.5	blank	1.0	294.47066378593445	2.5003743171691895
63	278.1836905479431	pulse	1	t		61.0	2.5	blank	1.0	295.6545641422272	
63	279.5001645088196	fix_post	2		12	61.0	2.5	blank	1.0	296.97103810310364	0.09998798370361328
64	279.6001524925232	fix_pre	0		120	62.0	2.5	/experiments/knapen_AOT/AOT_stimuli/rescaled_final/1560_fw.mp4	0.0	297.07102608680725	1.0085299015045166
64	279.77622985839844	pulse	0	t		62.0	2.5	/experiments/knapen_AOT/AOT_stimuli/rescaled_final/1560_fw.mp4	0.0	297.2471034526825	
64	280.6086823940277	movie	1		280	62.0	2.5	/experiments/knapen_AOT/AOT_stimuli/rescaled_final/1560_fw.mp4	0.0	298.07955598831177	2.4920270442962646
64	281.3820867538452	pulse	1	t		62.0	2.5	/experiments/knapen_AOT/AOT_stimuli/rescaled_final/1560_fw.mp4	0.0	298.8529603481293	
64	282.98199939727783	pulse	1	t		62.0	2.5	/experiments/knapen_AOT/AOT_stimuli/rescaled_final/1560_fw.mp4	0.0	300.4528729915619	
64	283.100709438324	fix_post	2		12	62.0	2.5	/experiments/knapen_AOT/AOT_stimuli/rescaled_final/1560_fw.mp4	0.0	300.57158303260803	0.10003447532653809
65	283.2007439136505	fix_pre	0		120	63.0	2.5	/experiments/knapen_AOT/AOT_stimuli/rescaled_final/0519_fw.mp4	0.0	300.67161750793457	1.0084657669067383
65	284.20920968055725	movie	1		269	63.0	2.5	/experiments/knapen_AOT/AOT_stimuli/rescaled_final/0519_fw.mp4	0.0	301.6800832748413	2.492055892944336
65	284.57632088661194	pulse	1	t		63.0	2.5	/experiments/knapen_AOT/AOT_stimuli/rescaled_final/0519_fw.mp4	0.0	302.047194480896	
65	286.1763837337494	pulse	1	t		63.0	2.5	/experiments/knapen_AOT/AOT_stimuli/rescaled_final/0519_fw.mp4	0.0	303.64725732803345	
65	286.7012655735016	fix_post	2		12	63.0	2.5	/experiments/knapen_AOT/AOT_stimuli/rescaled_final/0519_fw.mp4	0.0	304.17213916778564	0.09998536109924316
66	286.80125093460083	fix_pre	0		118	64.0	2.5	/experiments/knapen_AOT/AOT_stimuli/rescaled_final/1138_fw.mp4	0.0	304.2721245288849	0.9918181896209717
66	287.7768988609314	pulse	0	t		64.0	2.5	/experiments/knapen_AOT/AOT_stimuli/rescaled_final/1138_fw.mp4	0.0	305.24777245521545	
66	287.7930691242218	movie	1		282	64.0	2.5	/experiments/knapen_AOT/AOT_stimuli/rescaled_final/1138_fw.mp4	0.0	305.26394271850586	2.500363826751709
66	289.3769268989563	pulse	1	t		64.0	2.5	/experiments/knapen_AOT/AOT_stimuli/rescaled_final/1138_fw.mp4	0.0	306.84780049324036	
66	290.2934329509735	fix_post	2		12	64.0	2.5	/experiments/knapen_AOT/AOT_stimuli/rescaled_final/1138_fw.mp4	0.0	307.76430654525757	0.10008931159973145
67	290.39352226257324	fix_pre	0		120	65.0	2.5	/experiments/knapen_AOT/AOT_stimuli/rescaled_final/0182_rv.mp4	0.0	307.8643958568573	1.008544683456421
67	290.9771056175232	pulse	0	t		65.0	2.5	/experiments/knapen_AOT/AOT_stimuli/rescaled_final/0182_rv.mp4	0.0	308.44797921180725	
67	291.40206694602966	movie	1		278	65.0	2.5	/experiments/knapen_AOT/AOT_stimuli/rescaled_final/0182_rv.mp4	0.0	308.8729405403137	2.491934299468994
67	292.5774290561676	pulse	1	t		65.0	2.5	/experiments/knapen_AOT/AOT_stimuli/rescaled_final/0182_rv.mp4	0.0	310.04830265045166	
67	293.89400124549866	fix_post	2		12	65.0	2.5	/experiments/knapen_AOT/AOT_stimuli/rescaled_final/0182_rv.mp4	0.0	311.3648748397827	0.100006103515625
68	293.9940073490143	fix_pre	0		120	66.0	2.5	/experiments/knapen_AOT/AOT_stimuli/rescaled_final/0961_rv.mp4	0.0	311.46488094329834	1.008540153503418
68	294.1775825023651	pulse	0	t		66.0	2.5	/experiments/knapen_AOT/AOT_stimuli/rescaled_final/0961_rv.mp4	0.0	311.64845609664917	
68	295.0025475025177	movie	1		284	66.0	2.5	/experiments/knapen_AOT/AOT_stimuli/rescaled_final/0961_rv.mp4	0.0	312.47342109680176	2.491964101791382
68	295.7778081893921	pulse	1	t		66.0	2.5	/experiments/knapen_AOT/AOT_stimuli/rescaled_final/0961_rv.mp4	0.0	313.24868178367615	
68	297.3782126903534	pulse	1	t		66.0	2.5	/experiments/knapen_AOT/AOT_stimuli/rescaled_final/0961_rv.mp4	0.0	314.84908628463745	
68	297.4945116043091	fix_post	2		12	66.0	2.5	/experiments/knapen_AOT/AOT_stimuli/rescaled_final/0961_rv.mp4	0.0	314.96538519859314	0.10004234313964844
69	297.59455394744873	fix_pre	0		120	67.0	2.5	/experiments/knapen_AOT/AOT_stimuli/rescaled_final/2175_fw.mp4	0.0	315.0654275417328	1.0085134506225586
69	298.6030673980713	movie	1		279	67.0	2.5	/experiments/knapen_AOT/AOT_stimuli/rescaled_final/2175_fw.mp4	0.0	316.07394099235535	2.4920217990875244
69	298.9770357608795	pulse	1	t		67.0	2.5	/experiments/knapen_AOT/AOT_stimuli/rescaled_final/2175_fw.mp4	0.0	316.4479093551636	
69	300.576367855072	pulse	1	t		67.0	2.5	/experiments/knapen_AOT/AOT_stimuli/rescaled_final/2175_fw.mp4	0.0	318.0472414493561	
69	301.0950891971588	fix_post	2		12	67.0	2.5	/experiments/knapen_AOT/AOT_stimuli/rescaled_final/2175_fw.mp4	0.0	318.56596279144287	0.10005402565002441
70	301.19514322280884	fix_pre	0		119	68.0	2.5	/experiments/knapen_AOT/AOT_stimuli/rescaled_final/0516_fw.mp4	0.0	318.6660168170929	1.000145435333252
70	302.1788012981415	pulse	0	t		68.0	2.5	/experiments/knapen_AOT/AOT_stimuli/rescaled_final/0516_fw.mp4	0.0	319.64967489242554	
70	302.1952886581421	movie	1		276	68.0	2.5	/experiments/knapen_AOT/AOT_stimuli/rescaled_final/0516_fw.mp4	0.0	319.66616225242615	2.5003161430358887
70	303.7777850627899	pulse	1	t		68.0	2.5	/experiments/knapen_AOT/AOT_stimuli/rescaled_final/0516_fw.mp4	0.0	321.248658657074	
70	304.695604801178	fix_post	2		12	68.0	2.5	/experiments/knapen_AOT/AOT_stimuli/rescaled_final/0516_fw.mp4	0.0	322.16647839546204	0.10003924369812012
71	304.7956440448761	fix_pre	0		119	69.0	2.5	blank	1.0	322.26651763916016	1.000154972076416
71	305.37946701049805	pulse	0	t		69.0	2.5	blank	1.0	322.8503406047821	
71	305.7957990169525	movie	1		300	69.0	2.5	blank	1.0	323.2666726112366	2.5003650188446045
71	306.97963523864746	pulse	1	t		69.0	2.5	blank	1.0	324.4505088329315	
71	308.2961640357971	fix_post	2		12	69.0	2.5	blank	1.0	325.7670376300812	0.10000777244567871
72	308.3961718082428	fix_pre	0		120	70.0	2.5	/experiments/knapen_AOT/AOT_stimuli/rescaled_final/0153_fw.mp4	0.0	325.86704540252686	1.0085570812225342
72	308.5797154903412	pulse	0	t		70.0	2.5	/experiments/knapen_AOT/AOT_stimuli/rescaled_final/0153_fw.mp4	0.0	326.05058908462524	
72	309.40472888946533	movie	1		272	70.0	2.5	/experiments/knapen_AOT/AOT_stimuli/rescaled_final/0153_fw.mp4	0.0	326.8756024837494	2.491950511932373
72	310.1800355911255	pulse	1	t		70.0	2.5	/experiments/knapen_AOT/AOT_stimuli/rescaled_final/0153_fw.mp4	0.0	327.65090918540955	
72	311.7780375480652	pulse	1	t		70.0	2.5	/experiments/knapen_AOT/AOT_stimuli/rescaled_final/0153_fw.mp4	0.0	329.24891114234924	
72	311.8966794013977	fix_post	2		12	70.0	2.5	/experiments/knapen_AOT/AOT_stimuli/rescaled_final/0153_fw.mp4	0.0	329.36755299568176	0.10000324249267578
73	311.9966826438904	fix_pre	0		120	71.0	2.5	/experiments/knapen_AOT/AOT_stimuli/rescaled_final/0779_rv.mp4	0.0	329.46755623817444	1.0085194110870361
73	313.0052020549774	movie	1		279	71.0	2.5	/experiments/knapen_AOT/AOT_stimuli/rescaled_final/0779_rv.mp4	0.0	330.4760756492615	2.4920167922973633
73	313.3789691925049	pulse	1	t		71.0	2.5	/experiments/knapen_AOT/AOT_stimuli/rescaled_final/0779_rv.mp4	0.0	330.84984278678894	
73	314.9784653186798	pulse	1	t		71.0	2.5	/experiments/knapen_AOT/AOT_stimuli/rescaled_final/0779_rv.mp4	0.0	332.44933891296387	
73	315.4972188472748	fix_post	2		12	71.0	2.5	/experiments/knapen_AOT/AOT_stimuli/rescaled_final/0779_rv.mp4	0.0	332.96809244155884	0.10008645057678223
74	315.59730529785156	fix_pre	0		119	72.0	2.5	/experiments/knapen_AOT/AOT_stimuli/rescaled_final/1729_rv.mp4	0.0	333.0681788921356	1.000096321105957
74	316.58092498779297	pulse	0	t		72.0	2.5	/experiments/knapen_AOT/AOT_stimuli/rescaled_final/1729_rv.mp4	0.0	334.051798582077	
74	316.5974016189575	movie	1		280	72.0	2.5	/experiments/knapen_AOT/AOT_stimuli/rescaled_final/1729_rv.mp4	0.0	334.0682752132416	2.500356435775757
74	318.17939376831055	pulse	1	t		72.0	2.5	/experiments/knapen_AOT/AOT_stimuli/rescaled_final/1729_rv.mp4	0.0	335.6502673625946	
74	319.0977580547333	fix_post	2		12	72.0	2.5	/experiments/knapen_AOT/AOT_stimuli/rescaled_final/1729_rv.mp4	0.0	336.56863164901733	0.1000375747680664
75	319.19779562950134	fix_pre	0		120	73.0	2.5	/experiments/knapen_AOT/AOT_stimuli/rescaled_final/1559_fw.mp4	0.0	336.6686692237854	1.0084757804870605
75	319.7815239429474	pulse	0	t		73.0	2.5	/experiments/knapen_AOT/AOT_stimuli/rescaled_final/1559_fw.mp4	0.0	337.25239753723145	
75	320.2062714099884	movie	1		272	73.0	2.5	/experiments/knapen_AOT/AOT_stimuli/rescaled_final/1559_fw.mp4	0.0	337.67714500427246	2.4920408725738525
75	321.3797826766968	pulse	1	t		73.0	2.5	/experiments/knapen_AOT/AOT_stimuli/rescaled_final/1559_fw.mp4	0.0	338.85065627098083	
75	322.69831228256226	fix_post	2		12	73.0	2.5	/experiments/knapen_AOT/AOT_stimuli/rescaled_final/1559_fw.mp4	0.0	340.1691858768463	0.10003972053527832
76	322.79835200309753	fix_pre	0		120	74.0	2.5	/experiments/knapen_AOT/AOT_stimuli/rescaled_final/1802_fw.mp4	0.0	340.2692255973816	1.0084779262542725
76	322.9819829463959	pulse	0	t		74.0	2.5	/experiments/knapen_AOT/AOT_stimuli/rescaled_final/1802_fw.mp4	0.0	340.45285654067993	
76	323.8068299293518	movie	1		263	74.0	2.5	/experiments/knapen_AOT/AOT_stimuli/rescaled_final/1802_fw.mp4	0.0	341.27770352363586	2.492027997970581
76	324.58009028434753	pulse	1	t		74.0	2.5	/experiments/knapen_AOT/AOT_stimuli/rescaled_final/1802_fw.mp4	0.0	342.0509638786316	
76	326.18045020103455	pulse	1	t		74.0	2.5	/experiments/knapen_AOT/AOT_stimuli/rescaled_final/1802_fw.mp4	0.0	343.6513237953186	
76	326.2988579273224	fix_post	2		12	74.0	2.5	/experiments/knapen_AOT/AOT_stimuli/rescaled_final/1802_fw.mp4	0.0	343.76973152160645	0.09996485710144043
77	326.3988227844238	fix_pre	0		120	75.0	2.5	/experiments/knapen_AOT/AOT_stimuli/rescaled_final/2079_fw.mp4	0.0	343.8696963787079	1.0085794925689697
77	327.4074022769928	movie	1		267	75.0	2.5	/experiments/knapen_AOT/AOT_stimuli/rescaled_final/2079_fw.mp4	0.0	344.87827587127686	2.4920053482055664
77	327.7807865142822	pulse	1	t		75.0	2.5	/experiments/knapen_AOT/AOT_stimuli/rescaled_final/2079_fw.mp4	0.0	345.2516601085663	
77	329.38114762306213	pulse	1	t		75.0	2.5	/experiments/knapen_AOT/AOT_stimuli/rescaled_final/2079_fw.mp4	0.0	346.8520212173462	
77	329.89940762519836	fix_post	2		12	75.0	2.5	/experiments/knapen_AOT/AOT_stimuli/rescaled_final/2079_fw.mp4	0.0	347.3702812194824	0.10003304481506348
78	329.9994406700134	fix_pre	0		119	76.0	2.5	/experiments/knapen_AOT/AOT_stimuli/rescaled_final/0950_rv.mp4	0.0	347.4703142642975	1.000152349472046
78	330.98314332962036	pulse	0	t		76.0	2.5	/experiments/knapen_AOT/AOT_stimuli/rescaled_final/0950_rv.mp4	0.0	348.4540169239044	
78	330.9995930194855	movie	1		272	76.0	2.5	/experiments/knapen_AOT/AOT_stimuli/rescaled_final/0950_rv.mp4	0.0	348.47046661376953	2.5003576278686523
78	332.58289909362793	pulse	1	t		76.0	2.5	/experiments/knapen_AOT/AOT_stimuli/rescaled_final/0950_rv.mp4	0.0	350.053772687912	
78	333.4999506473541	fix_post	2		12	76.0	2.5	/experiments/knapen_AOT/AOT_stimuli/rescaled_final/0950_rv.mp4	0.0	350.9708242416382	0.10001730918884277
79	333.59996795654297	fix_pre	0		120	77.0	2.5	blank	1.0	351.070841550827	1.0001497268676758
79	334.1839430332184	pulse	0	t		77.0	2.5	blank	1.0	351.65481662750244	
79	334.60011768341064	movie	1		300	77.0	2.5	blank	1.0	352.0709912776947	2.5003466606140137
79	335.78410029411316	pulse	1	t		77.0	2.5	blank	1.0	353.2549738883972	
79	337.10046434402466	fix_post	2		12	77.0	2.5	blank	1.0	354.5713379383087	0.1000666618347168
80	337.2005310058594	fix_pre	0		120	78.0	2.5	/experiments/knapen_AOT/AOT_stimuli/rescaled_final/0617_rv.mp4	0.0	354.67140460014343	1.0084490776062012
80	337.3841784000397	pulse	0	t		78.0	2.5	/experiments/knapen_AOT/AOT_stimuli/rescaled_final/0617_rv.mp4	0.0	354.85505199432373	
80	338.2089800834656	movie	1		281	78.0	2.5	/experiments/knapen_AOT/AOT_stimuli/rescaled_final/0617_rv.mp4	0.0	355.67985367774963	2.4920177459716797
80	338.98277521133423	pulse	1	t		78.0	2.5	/experiments/knapen_AOT/AOT_stimuli/rescaled_final/0617_rv.mp4	0.0	356.4536488056183	
80	340.582927942276	pulse	1	t		78.0	2.5	/experiments/knapen_AOT/AOT_stimuli/rescaled_final/0617_rv.mp4	0.0	358.05380153656006	
80	340.70099782943726	fix_post	2		12	78.0	2.5	/experiments/knapen_AOT/AOT_stimuli/rescaled_final/0617_rv.mp4	0.0	358.1718714237213	0.10002374649047852
81	340.80102157592773	fix_pre	0		120	79.0	2.5	/experiments/knapen_AOT/AOT_stimuli/rescaled_final/1138_fw.mp4	0.0	358.2718951702118	1.0085079669952393
81	341.809529542923	movie	1		278	79.0	2.5	/experiments/knapen_AOT/AOT_stimuli/rescaled_final/1138_fw.mp4	0.0	359.28040313720703	2.492069959640503
81	342.1769025325775	pulse	1	t		79.0	2.5	/experiments/knapen_AOT/AOT_stimuli/rescaled_final/1138_fw.mp4	0.0	359.6477761268616	
81	343.77674198150635	pulse	1	t		79.0	2.5	/experiments/knapen_AOT/AOT_stimuli/rescaled_final/1138_fw.mp4	0.0	361.2476155757904	
81	344.3015995025635	fix_post	2		12	79.0	2.5	/experiments/knapen_AOT/AOT_stimuli/rescaled_final/1138_fw.mp4	0.0	361.77247309684753	0.09998607635498047
82	344.40158557891846	fix_pre	0		118	80.0	2.5	/experiments/knapen_AOT/AOT_stimuli/rescaled_final/1546_rv.mp4	0.0	361.8724591732025	0.9918205738067627
82	345.37701988220215	pulse	0	t		80.0	2.5	/experiments/knapen_AOT/AOT_stimuli/rescaled_final/1546_rv.mp4	0.0	362.8478934764862	
82	345.3934061527252	movie	1		281	80.0	2.5	/experiments/knapen_AOT/AOT_stimuli/rescaled_final/1546_rv.mp4	0.0	362.8642797470093	2.500356435775757
82	346.97732043266296	pulse	1	t		80.0	2.5	/experiments/knapen_AOT/AOT_stimuli/rescaled_final/1546_rv.mp4	0.0	364.448194026947	
82	347.893762588501	fix_post	2		12	80.0	2.5	/experiments/knapen_AOT/AOT_stimuli/rescaled_final/1546_rv.mp4	0.0	365.36463618278503	0.10000181198120117
83	347.9937644004822	fix_pre	0		120	81.0	2.5	/experiments/knapen_AOT/AOT_stimuli/rescaled_final/0155_fw.mp4	0.0	365.46463799476624	1.008504867553711
83	348.577693939209	pulse	0	t		81.0	2.5	/experiments/knapen_AOT/AOT_stimuli/rescaled_final/0155_fw.mp4	0.0	366.04856753349304	
83	349.0022692680359	movie	1		276	81.0	2.5	/experiments/knapen_AOT/AOT_stimuli/rescaled_final/0155_fw.mp4	0.0	366.47314286231995	2.4920244216918945
83	350.177686214447	pulse	1	t		81.0	2.5	/experiments/knapen_AOT/AOT_stimuli/rescaled_final/0155_fw.mp4	0.0	367.6485598087311	
83	351.4942936897278	fix_post	2		12	81.0	2.5	/experiments/knapen_AOT/AOT_stimuli/rescaled_final/0155_fw.mp4	0.0	368.96516728401184	0.1000359058380127
84	351.5943295955658	fix_pre	0		120	82.0	2.5	/experiments/knapen_AOT/AOT_stimuli/rescaled_final/0852_fw.mp4	0.0	369.06520318984985	1.0084638595581055
84	351.77790927886963	pulse	0	t		82.0	2.5	/experiments/knapen_AOT/AOT_stimuli/rescaled_final/0852_fw.mp4	0.0	369.2487828731537	
84	352.6027934551239	movie	1		274	82.0	2.5	/experiments/knapen_AOT/AOT_stimuli/rescaled_final/0852_fw.mp4	0.0	370.07366704940796	2.4920504093170166
84	353.3767945766449	pulse	1	t		82.0	2.5	/experiments/knapen_AOT/AOT_stimuli/rescaled_final/0852_fw.mp4	0.0	370.84766817092896	
84	354.97787141799927	pulse	1	t		82.0	2.5	/experiments/knapen_AOT/AOT_stimuli/rescaled_final/0852_fw.mp4	0.0	372.4487450122833	
84	355.0948438644409	fix_post	2		12	82.0	2.5	/experiments/knapen_AOT/AOT_stimuli/rescaled_final/0852_fw.mp4	0.0	372.565717458725	0.10001635551452637
85	355.19486021995544	fix_pre	0		120	83.0	2.5	blank	1.0	372.6657338142395	1.0001366138458252
85	356.19499683380127	movie	1		300	83.0	2.5	blank	1.0	373.6658704280853	2.5003881454467773
85	356.57865476608276	pulse	1	t		83.0	2.5	blank	1.0	374.0495283603668	
85	358.1788218021393	pulse	1	t		83.0	2.5	blank	1.0	375.64969539642334	
85	358.69538497924805	fix_post	2		12	83.0	2.5	blank	1.0	376.1662585735321	0.09998035430908203
87	358.79536533355713	stim	0		1715					376.2662389278412	14.293836116790771
87	359.7790765762329	pulse	0	t						377.24995017051697	
87	361.37933325767517	pulse	0	t						378.85020685195923	
87	362.9795527458191	pulse	0	t						380.45042634010315	
87	364.579793214798	pulse	0	t						382.05066680908203	
87	366.1800789833069	pulse	0	t						383.65095257759094	
87	367.78036284446716	pulse	0	t						385.2512364387512	
87	369.3805296421051	pulse	0	t						386.85140323638916	
87	370.9807291030884	pulse	0	t						388.45160269737244	
87	372.58100271224976	pulse	0	t						390.0518763065338	
