trial_nr	onset	event_type	phase	response	nr_frames	movie_index	movie_duration	movie_file	blank	onset_abs	duration
0	0.15812277793884277	stim	0		54					17.81822919845581	0.4499642848968506
0	0.599855899810791	response	0	space						18.25996232032776	
1	0.6080870628356934	stim	0		4284					18.26819348335266	35.718931436538696
1	36.31196093559265	pulse	0	t						53.97206735610962	
1	36.32701849937439	stim	1		1714					53.98712491989136	14.296960592269897
1	37.90560984611511	pulse	1	t						55.56571626663208	
1	39.505861043930054	pulse	1	t						57.16596746444702	
1	41.10606050491333	pulse	1	t						58.7661669254303	
1	42.70632362365723	pulse	1	t						60.366430044174194	
1	44.30665612220764	pulse	1	t						61.96676254272461	
1	45.90689992904663	pulse	1	t						63.5670063495636	
1	47.50703167915344	pulse	1	t						65.16713809967041	
1	49.10729265213013	pulse	1	t						66.7673990726471	
2	50.62397909164429	fix_pre	0		11	0.0	2.5	/experiments/Knapen_AOT/AOT_stimuli/rescaled_final/0848_rv.mp4	0.0	68.28408551216125	0.10838699340820312
2	50.70758414268494	pulse	0	t		0.0	2.5	/experiments/Knapen_AOT/AOT_stimuli/rescaled_final/0848_rv.mp4	0.0	68.3676905632019	
2	50.73236608505249	movie	1		283	0.0	2.5	/experiments/Knapen_AOT/AOT_stimuli/rescaled_final/0848_rv.mp4	0.0	68.39247250556946	2.492018222808838
2	52.30634903907776	pulse	1	t		0.0	2.5	/experiments/Knapen_AOT/AOT_stimuli/rescaled_final/0848_rv.mp4	0.0	69.96645545959473	
2	53.22438430786133	fix_post	2		12	0.0	2.5	/experiments/Knapen_AOT/AOT_stimuli/rescaled_final/0848_rv.mp4	0.0	70.8844907283783	0.1000063419342041
3	53.32439064979553	fix_pre	0		120	1.0	2.5	/experiments/Knapen_AOT/AOT_stimuli/rescaled_final/0215_rv.mp4	0.0	70.9844970703125	1.0084953308105469
3	53.908010482788086	pulse	0	t		1.0	2.5	/experiments/Knapen_AOT/AOT_stimuli/rescaled_final/0215_rv.mp4	0.0	71.56811690330505	
3	54.33288598060608	movie	1		284	1.0	2.5	/experiments/Knapen_AOT/AOT_stimuli/rescaled_final/0215_rv.mp4	0.0	71.99299240112305	2.4920084476470947
3	55.50629949569702	pulse	1	t		1.0	2.5	/experiments/Knapen_AOT/AOT_stimuli/rescaled_final/0215_rv.mp4	0.0	73.16640591621399	
3	56.824894428253174	fix_post	2		12	1.0	2.5	/experiments/Knapen_AOT/AOT_stimuli/rescaled_final/0215_rv.mp4	0.0	74.48500084877014	0.1000370979309082
4	56.92493152618408	fix_pre	0		120	2.0	2.5	/experiments/Knapen_AOT/AOT_stimuli/rescaled_final/1648_rv.mp4	0.0	74.58503794670105	1.0085375308990479
4	57.108553886413574	pulse	0	t		2.0	2.5	/experiments/Knapen_AOT/AOT_stimuli/rescaled_final/1648_rv.mp4	0.0	74.76866030693054	
4	57.93346905708313	movie	1		288	2.0	2.5	/experiments/Knapen_AOT/AOT_stimuli/rescaled_final/1648_rv.mp4	0.0	75.5935754776001	2.4920005798339844
4	58.706706285476685	pulse	1	t		2.0	2.5	/experiments/Knapen_AOT/AOT_stimuli/rescaled_final/1648_rv.mp4	0.0	76.36681270599365	
4	60.3067421913147	pulse	1	t		2.0	2.5	/experiments/Knapen_AOT/AOT_stimuli/rescaled_final/1648_rv.mp4	0.0	77.96684861183167	
4	60.425469636917114	fix_post	2		12	2.0	2.5	/experiments/Knapen_AOT/AOT_stimuli/rescaled_final/1648_rv.mp4	0.0	78.08557605743408	0.10005545616149902
5	60.52552509307861	fix_pre	0		120	3.0	2.5	/experiments/Knapen_AOT/AOT_stimuli/rescaled_final/0394_fw.mp4	0.0	78.18563151359558	1.0084471702575684
5	61.53397226333618	movie	1		278	3.0	2.5	/experiments/Knapen_AOT/AOT_stimuli/rescaled_final/0394_fw.mp4	0.0	79.19407868385315	2.4920542240142822
5	61.90957832336426	pulse	1	t		3.0	2.5	/experiments/Knapen_AOT/AOT_stimuli/rescaled_final/0394_fw.mp4	0.0	79.56968474388123	
5	63.507546186447144	pulse	1	t		3.0	2.5	/experiments/Knapen_AOT/AOT_stimuli/rescaled_final/0394_fw.mp4	0.0	81.16765260696411	
5	64.02602648735046	fix_post	2		12	3.0	2.5	/experiments/Knapen_AOT/AOT_stimuli/rescaled_final/0394_fw.mp4	0.0	81.68613290786743	0.10000038146972656
6	64.12602686882019	fix_pre	0		119	4.0	2.5	/experiments/Knapen_AOT/AOT_stimuli/rescaled_final/0715_fw.mp4	0.0	81.78613328933716	1.0001440048217773
6	65.10982203483582	pulse	0	t		4.0	2.5	/experiments/Knapen_AOT/AOT_stimuli/rescaled_final/0715_fw.mp4	0.0	82.76992845535278	
6	65.12617087364197	movie	1		287	4.0	2.5	/experiments/Knapen_AOT/AOT_stimuli/rescaled_final/0715_fw.mp4	0.0	82.78627729415894	2.5003812313079834
6	66.7081868648529	pulse	1	t		4.0	2.5	/experiments/Knapen_AOT/AOT_stimuli/rescaled_final/0715_fw.mp4	0.0	84.36829328536987	
6	67.62655210494995	fix_post	2		12	4.0	2.5	/experiments/Knapen_AOT/AOT_stimuli/rescaled_final/0715_fw.mp4	0.0	85.28665852546692	0.10002803802490234
7	67.72658014297485	fix_pre	0		120	5.0	2.5	/experiments/Knapen_AOT/AOT_stimuli/rescaled_final/1018_fw.mp4	0.0	85.38668656349182	1.008516550064087
7	68.31023740768433	pulse	0	t		5.0	2.5	/experiments/Knapen_AOT/AOT_stimuli/rescaled_final/1018_fw.mp4	0.0	85.9703438282013	
7	68.73509669303894	movie	1		292	5.0	2.5	/experiments/Knapen_AOT/AOT_stimuli/rescaled_final/1018_fw.mp4	0.0	86.39520311355591	2.491987466812134
7	69.9087233543396	pulse	1	t		5.0	2.5	/experiments/Knapen_AOT/AOT_stimuli/rescaled_final/1018_fw.mp4	0.0	87.56882977485657	
7	71.22708415985107	fix_post	2		12	5.0	2.5	/experiments/Knapen_AOT/AOT_stimuli/rescaled_final/1018_fw.mp4	0.0	88.88719058036804	0.09999322891235352
8	71.32707738876343	fix_pre	0		120	6.0	2.5	/experiments/Knapen_AOT/AOT_stimuli/rescaled_final/1018_rv.mp4	0.0	88.9871838092804	1.0001251697540283
8	71.51056790351868	pulse	0	t		6.0	2.5	/experiments/Knapen_AOT/AOT_stimuli/rescaled_final/1018_rv.mp4	0.0	89.17067432403564	
8	72.32720255851746	movie	1		300	6.0	2.5	/experiments/Knapen_AOT/AOT_stimuli/rescaled_final/1018_rv.mp4	0.0	89.98730897903442	2.500396251678467
8	73.10638856887817	pulse	1	t		6.0	2.5	/experiments/Knapen_AOT/AOT_stimuli/rescaled_final/1018_rv.mp4	0.0	90.76649498939514	
8	74.70833277702332	pulse	1	t		6.0	2.5	/experiments/Knapen_AOT/AOT_stimuli/rescaled_final/1018_rv.mp4	0.0	92.36843919754028	
8	74.82759881019592	fix_post	2		12	6.0	2.5	/experiments/Knapen_AOT/AOT_stimuli/rescaled_final/1018_rv.mp4	0.0	92.48770523071289	0.10001230239868164
9	74.9276111125946	fix_pre	0		120	7.0	2.5	blank	1.0	92.58771753311157	1.0002028942108154
9	75.92781400680542	movie	1		300	7.0	2.5	blank	1.0	93.58792042732239	2.5003561973571777
9	76.31154417991638	pulse	1	t		7.0	2.5	blank	1.0	93.97165060043335	
9	77.9117214679718	pulse	1	t		7.0	2.5	blank	1.0	95.57182788848877	
9	78.4281702041626	fix_post	2		12	7.0	2.5	blank	1.0	96.08827662467957	0.1000065803527832
10	78.52817678451538	fix_pre	0		119	8.0	2.5	/experiments/Knapen_AOT/AOT_stimuli/rescaled_final/0861_fw.mp4	0.0	96.18828320503235	1.0001561641693115
10	79.51193118095398	pulse	0	t		8.0	2.5	/experiments/Knapen_AOT/AOT_stimuli/rescaled_final/0861_fw.mp4	0.0	97.17203760147095	
10	79.52833294868469	movie	1		284	8.0	2.5	/experiments/Knapen_AOT/AOT_stimuli/rescaled_final/0861_fw.mp4	0.0	97.18843936920166	2.500368356704712
10	81.11219382286072	pulse	1	t		8.0	2.5	/experiments/Knapen_AOT/AOT_stimuli/rescaled_final/0861_fw.mp4	0.0	98.77230024337769	
10	82.0287013053894	fix_post	2		12	8.0	2.5	/experiments/Knapen_AOT/AOT_stimuli/rescaled_final/0861_fw.mp4	0.0	99.68880772590637	0.10007739067077637
11	82.12877869606018	fix_pre	0		120	9.0	2.5	/experiments/Knapen_AOT/AOT_stimuli/rescaled_final/1443_fw.mp4	0.0	99.78888511657715	1.0085046291351318
11	82.70448732376099	pulse	0	t		9.0	2.5	/experiments/Knapen_AOT/AOT_stimuli/rescaled_final/1443_fw.mp4	0.0	100.36459374427795	
11	83.13728332519531	movie	1		279	9.0	2.5	/experiments/Knapen_AOT/AOT_stimuli/rescaled_final/1443_fw.mp4	0.0	100.79738974571228	2.4919984340667725
11	84.30439257621765	pulse	1	t		9.0	2.5	/experiments/Knapen_AOT/AOT_stimuli/rescaled_final/1443_fw.mp4	0.0	101.96449899673462	
11	85.62928175926208	fix_post	2		12	9.0	2.5	/experiments/Knapen_AOT/AOT_stimuli/rescaled_final/1443_fw.mp4	0.0	103.28938817977905	0.1000051498413086
12	85.7292869091034	fix_pre	0		120	10.0	2.5	/experiments/Knapen_AOT/AOT_stimuli/rescaled_final/0163_fw.mp4	0.0	103.38939332962036	1.008457899093628
12	85.90464186668396	pulse	0	t		10.0	2.5	/experiments/Knapen_AOT/AOT_stimuli/rescaled_final/0163_fw.mp4	0.0	103.56474828720093	
12	86.73774480819702	movie	1		285	10.0	2.5	/experiments/Knapen_AOT/AOT_stimuli/rescaled_final/0163_fw.mp4	0.0	104.39785122871399	2.4920530319213867
12	87.50471115112305	pulse	1	t		10.0	2.5	/experiments/Knapen_AOT/AOT_stimuli/rescaled_final/0163_fw.mp4	0.0	105.16481757164001	
12	89.10512971878052	pulse	1	t		10.0	2.5	/experiments/Knapen_AOT/AOT_stimuli/rescaled_final/0163_fw.mp4	0.0	106.76523613929749	
12	89.22979784011841	fix_post	2		12	10.0	2.5	/experiments/Knapen_AOT/AOT_stimuli/rescaled_final/0163_fw.mp4	0.0	106.88990426063538	0.10004854202270508
13	89.32984638214111	fix_pre	0		120	11.0	2.5	/experiments/Knapen_AOT/AOT_stimuli/rescaled_final/1684_rv.mp4	0.0	106.98995280265808	1.0085177421569824
13	90.3383641242981	movie	1		282	11.0	2.5	/experiments/Knapen_AOT/AOT_stimuli/rescaled_final/1684_rv.mp4	0.0	107.99847054481506	2.4919662475585938
13	90.70542001724243	pulse	1	t		11.0	2.5	/experiments/Knapen_AOT/AOT_stimuli/rescaled_final/1684_rv.mp4	0.0	108.3655264377594	
13	92.30564618110657	pulse	1	t		11.0	2.5	/experiments/Knapen_AOT/AOT_stimuli/rescaled_final/1684_rv.mp4	0.0	109.96575260162354	
13	92.83033037185669	fix_post	2		12	11.0	2.5	/experiments/Knapen_AOT/AOT_stimuli/rescaled_final/1684_rv.mp4	0.0	110.49043679237366	0.10001730918884277
14	92.93034768104553	fix_pre	0		118	12.0	2.5	/experiments/Knapen_AOT/AOT_stimuli/rescaled_final/1732_rv.mp4	0.0	110.5904541015625	0.9918231964111328
14	93.90576338768005	pulse	0	t		12.0	2.5	/experiments/Knapen_AOT/AOT_stimuli/rescaled_final/1732_rv.mp4	0.0	111.56586980819702	
14	93.92217087745667	movie	1		286	12.0	2.5	/experiments/Knapen_AOT/AOT_stimuli/rescaled_final/1732_rv.mp4	0.0	111.58227729797363	2.5003490447998047
14	95.50551056861877	pulse	1	t		12.0	2.5	/experiments/Knapen_AOT/AOT_stimuli/rescaled_final/1732_rv.mp4	0.0	113.16561698913574	
14	96.42251992225647	fix_post	2		12	12.0	2.5	/experiments/Knapen_AOT/AOT_stimuli/rescaled_final/1732_rv.mp4	0.0	114.08262634277344	0.10018229484558105
15	96.52270221710205	fix_pre	0		120	13.0	2.5	/experiments/Knapen_AOT/AOT_stimuli/rescaled_final/0561_fw.mp4	0.0	114.18280863761902	1.008350133895874
15	97.1062445640564	pulse	0	t		13.0	2.5	/experiments/Knapen_AOT/AOT_stimuli/rescaled_final/0561_fw.mp4	0.0	114.76635098457336	
15	97.53105235099792	movie	1		282	13.0	2.5	/experiments/Knapen_AOT/AOT_stimuli/rescaled_final/0561_fw.mp4	0.0	115.19115877151489	2.4920296669006348
15	98.70459938049316	pulse	1	t		13.0	2.5	/experiments/Knapen_AOT/AOT_stimuli/rescaled_final/0561_fw.mp4	0.0	116.36470580101013	
15	100.02308201789856	fix_post	2		12	13.0	2.5	/experiments/Knapen_AOT/AOT_stimuli/rescaled_final/0561_fw.mp4	0.0	117.68318843841553	0.10002851486206055
16	100.12311053276062	fix_pre	0		120	14.0	2.5	blank	1.0	117.78321695327759	1.0001254081726074
16	100.30668354034424	pulse	0	t		14.0	2.5	blank	1.0	117.9667899608612	
16	101.12323594093323	movie	1		300	14.0	2.5	blank	1.0	118.7833423614502	2.500380039215088
16	101.90692138671875	pulse	1	t		14.0	2.5	blank	1.0	119.56702780723572	
16	103.50716233253479	pulse	1	t		14.0	2.5	blank	1.0	121.16726875305176	
16	103.62361598014832	fix_post	2		12	14.0	2.5	blank	1.0	121.28372240066528	0.1000363826751709
17	103.72365236282349	fix_pre	0		120	15.0	2.5	/experiments/Knapen_AOT/AOT_stimuli/rescaled_final/0482_fw.mp4	0.0	121.38375878334045	1.0084831714630127
17	104.7321355342865	movie	1		283	15.0	2.5	/experiments/Knapen_AOT/AOT_stimuli/rescaled_final/0482_fw.mp4	0.0	122.39224195480347	2.492027759552002
17	105.10830068588257	pulse	1	t		15.0	2.5	/experiments/Knapen_AOT/AOT_stimuli/rescaled_final/0482_fw.mp4	0.0	122.76840710639954	
17	106.70536923408508	pulse	1	t		15.0	2.5	/experiments/Knapen_AOT/AOT_stimuli/rescaled_final/0482_fw.mp4	0.0	124.36547565460205	
17	107.2241632938385	fix_post	2		12	15.0	2.5	/experiments/Knapen_AOT/AOT_stimuli/rescaled_final/0482_fw.mp4	0.0	124.88426971435547	0.10003066062927246
18	107.32419395446777	fix_pre	0		119	16.0	2.5	/experiments/Knapen_AOT/AOT_stimuli/rescaled_final/0150_fw.mp4	0.0	124.98430037498474	1.000136137008667
18	108.30788826942444	pulse	0	t		16.0	2.5	/experiments/Knapen_AOT/AOT_stimuli/rescaled_final/0150_fw.mp4	0.0	125.9679946899414	
18	108.32433009147644	movie	1		292	16.0	2.5	/experiments/Knapen_AOT/AOT_stimuli/rescaled_final/0150_fw.mp4	0.0	125.98443651199341	2.500389814376831
18	109.90681385993958	pulse	1	t		16.0	2.5	/experiments/Knapen_AOT/AOT_stimuli/rescaled_final/0150_fw.mp4	0.0	127.56692028045654	
18	110.82471990585327	fix_post	2		12	16.0	2.5	/experiments/Knapen_AOT/AOT_stimuli/rescaled_final/0150_fw.mp4	0.0	128.48482632637024	0.10000371932983398
19	110.9247236251831	fix_pre	0		120	17.0	2.5	/experiments/Knapen_AOT/AOT_stimuli/rescaled_final/0825_fw.mp4	0.0	128.58483004570007	1.0085279941558838
19	111.50833487510681	pulse	0	t		17.0	2.5	/experiments/Knapen_AOT/AOT_stimuli/rescaled_final/0825_fw.mp4	0.0	129.16844129562378	
19	111.93325161933899	movie	1		286	17.0	2.5	/experiments/Knapen_AOT/AOT_stimuli/rescaled_final/0825_fw.mp4	0.0	129.59335803985596	2.492021083831787
19	113.10865616798401	pulse	1	t		17.0	2.5	/experiments/Knapen_AOT/AOT_stimuli/rescaled_final/0825_fw.mp4	0.0	130.76876258850098	
19	114.42527270317078	fix_post	2		12	17.0	2.5	/experiments/Knapen_AOT/AOT_stimuli/rescaled_final/0825_fw.mp4	0.0	132.08537912368774	0.09999608993530273
20	114.52526879310608	fix_pre	0		120	18.0	2.5	/experiments/Knapen_AOT/AOT_stimuli/rescaled_final/1848_rv.mp4	0.0	132.18537521362305	1.0085296630859375
20	114.70880174636841	pulse	0	t		18.0	2.5	/experiments/Knapen_AOT/AOT_stimuli/rescaled_final/1848_rv.mp4	0.0	132.36890816688538	
20	115.53379845619202	movie	1		279	18.0	2.5	/experiments/Knapen_AOT/AOT_stimuli/rescaled_final/1848_rv.mp4	0.0	133.19390487670898	2.492032289505005
20	116.30709958076477	pulse	1	t		18.0	2.5	/experiments/Knapen_AOT/AOT_stimuli/rescaled_final/1848_rv.mp4	0.0	133.96720600128174	
20	117.90982675552368	pulse	1	t		18.0	2.5	/experiments/Knapen_AOT/AOT_stimuli/rescaled_final/1848_rv.mp4	0.0	135.56993317604065	
20	118.02583074569702	fix_post	2		12	18.0	2.5	/experiments/Knapen_AOT/AOT_stimuli/rescaled_final/1848_rv.mp4	0.0	135.685937166214	0.09997773170471191
21	118.12580847740173	fix_pre	0		120	19.0	2.5	/experiments/Knapen_AOT/AOT_stimuli/rescaled_final/0338_rv.mp4	0.0	135.7859148979187	1.0084989070892334
21	119.13430738449097	movie	1		279	19.0	2.5	/experiments/Knapen_AOT/AOT_stimuli/rescaled_final/0338_rv.mp4	0.0	136.79441380500793	2.49210262298584
21	119.50789475440979	pulse	1	t		19.0	2.5	/experiments/Knapen_AOT/AOT_stimuli/rescaled_final/0338_rv.mp4	0.0	137.16800117492676	
21	121.10753273963928	pulse	1	t		19.0	2.5	/experiments/Knapen_AOT/AOT_stimuli/rescaled_final/0338_rv.mp4	0.0	138.76763916015625	
21	121.6264100074768	fix_post	2		12	19.0	2.5	/experiments/Knapen_AOT/AOT_stimuli/rescaled_final/0338_rv.mp4	0.0	139.28651642799377	0.09994912147521973
22	121.72635912895203	fix_pre	0		119	20.0	2.5	blank	1.0	139.386465549469	0.9918110370635986
22	122.71004629135132	pulse	0	t		20.0	2.5	blank	1.0	140.3701527118683	
22	122.71817016601562	movie	1		301	20.0	2.5	blank	1.0	140.3782765865326	2.508704662322998
22	124.310302734375	pulse	1	t		20.0	2.5	blank	1.0	141.97040915489197	
22	125.22687482833862	fix_post	2		12	20.0	2.5	blank	1.0	142.8869812488556	0.10014009475708008
23	125.3270149230957	fix_pre	0		120	21.0	2.5	/experiments/Knapen_AOT/AOT_stimuli/rescaled_final/1311_fw.mp4	0.0	142.98712134361267	1.0083773136138916
23	125.9106068611145	pulse	0	t		21.0	2.5	/experiments/Knapen_AOT/AOT_stimuli/rescaled_final/1311_fw.mp4	0.0	143.57071328163147	
23	126.3353922367096	movie	1		279	21.0	2.5	/experiments/Knapen_AOT/AOT_stimuli/rescaled_final/1311_fw.mp4	0.0	143.99549865722656	2.4920523166656494
23	127.50891613960266	pulse	1	t		21.0	2.5	/experiments/Knapen_AOT/AOT_stimuli/rescaled_final/1311_fw.mp4	0.0	145.16902256011963	
23	128.82744455337524	fix_post	2		12	21.0	2.5	/experiments/Knapen_AOT/AOT_stimuli/rescaled_final/1311_fw.mp4	0.0	146.4875509738922	0.10000085830688477
24	128.92744541168213	fix_pre	0		120	22.0	2.5	/experiments/Knapen_AOT/AOT_stimuli/rescaled_final/1648_rv.mp4	0.0	146.5875518321991	1.008488416671753
24	129.11109733581543	pulse	0	t		22.0	2.5	/experiments/Knapen_AOT/AOT_stimuli/rescaled_final/1648_rv.mp4	0.0	146.7712037563324	
24	129.93593382835388	movie	1		290	22.0	2.5	/experiments/Knapen_AOT/AOT_stimuli/rescaled_final/1648_rv.mp4	0.0	147.59604024887085	2.4920313358306885
24	130.70928525924683	pulse	1	t		22.0	2.5	/experiments/Knapen_AOT/AOT_stimuli/rescaled_final/1648_rv.mp4	0.0	148.3693916797638	
24	132.30958008766174	pulse	1	t		22.0	2.5	/experiments/Knapen_AOT/AOT_stimuli/rescaled_final/1648_rv.mp4	0.0	149.9696865081787	
24	132.42796516418457	fix_post	2		12	22.0	2.5	/experiments/Knapen_AOT/AOT_stimuli/rescaled_final/1648_rv.mp4	0.0	150.08807158470154	0.10002303123474121
25	132.5279881954193	fix_pre	0		120	23.0	2.5	/experiments/Knapen_AOT/AOT_stimuli/rescaled_final/0692_rv.mp4	0.0	150.18809461593628	1.0086610317230225
25	133.53664922714233	movie	1		282	23.0	2.5	/experiments/Knapen_AOT/AOT_stimuli/rescaled_final/0692_rv.mp4	0.0	151.1967556476593	2.491832733154297
25	133.91189217567444	pulse	1	t		23.0	2.5	/experiments/Knapen_AOT/AOT_stimuli/rescaled_final/0692_rv.mp4	0.0	151.5719985961914	
25	135.5098705291748	pulse	1	t		23.0	2.5	/experiments/Knapen_AOT/AOT_stimuli/rescaled_final/0692_rv.mp4	0.0	153.16997694969177	
25	136.02848196029663	fix_post	2		12	23.0	2.5	/experiments/Knapen_AOT/AOT_stimuli/rescaled_final/0692_rv.mp4	0.0	153.6885883808136	0.1000521183013916
26	136.12853407859802	fix_pre	0		119	24.0	2.5	/experiments/Knapen_AOT/AOT_stimuli/rescaled_final/1914_rv.mp4	0.0	153.788640499115	1.0002415180206299
26	137.11254143714905	pulse	0	t		24.0	2.5	/experiments/Knapen_AOT/AOT_stimuli/rescaled_final/1914_rv.mp4	0.0	154.77264785766602	
26	137.12877559661865	movie	1		285	24.0	2.5	/experiments/Knapen_AOT/AOT_stimuli/rescaled_final/1914_rv.mp4	0.0	154.78888201713562	2.5002777576446533
26	138.71106600761414	pulse	1	t		24.0	2.5	/experiments/Knapen_AOT/AOT_stimuli/rescaled_final/1914_rv.mp4	0.0	156.3711724281311	
26	139.6290533542633	fix_post	2		12	24.0	2.5	/experiments/Knapen_AOT/AOT_stimuli/rescaled_final/1914_rv.mp4	0.0	157.28915977478027	0.10005068778991699
27	139.72910404205322	fix_pre	0		120	25.0	2.5	/experiments/Knapen_AOT/AOT_stimuli/rescaled_final/0853_rv.mp4	0.0	157.3892104625702	1.0084829330444336
27	140.30484008789062	pulse	0	t		25.0	2.5	/experiments/Knapen_AOT/AOT_stimuli/rescaled_final/0853_rv.mp4	0.0	157.9649465084076	
27	140.73758697509766	movie	1		290	25.0	2.5	/experiments/Knapen_AOT/AOT_stimuli/rescaled_final/0853_rv.mp4	0.0	158.39769339561462	2.4920144081115723
27	141.90479946136475	pulse	1	t		25.0	2.5	/experiments/Knapen_AOT/AOT_stimuli/rescaled_final/0853_rv.mp4	0.0	159.5649058818817	
27	143.22960138320923	fix_post	2		12	25.0	2.5	/experiments/Knapen_AOT/AOT_stimuli/rescaled_final/0853_rv.mp4	0.0	160.8897078037262	0.1000065803527832
28	143.329607963562	fix_pre	0		120	26.0	2.5	/experiments/Knapen_AOT/AOT_stimuli/rescaled_final/0894_fw.mp4	0.0	160.98971438407898	1.0085434913635254
28	143.50491452217102	pulse	0	t		26.0	2.5	/experiments/Knapen_AOT/AOT_stimuli/rescaled_final/0894_fw.mp4	0.0	161.165020942688	
28	144.33815145492554	movie	1		277	26.0	2.5	/experiments/Knapen_AOT/AOT_stimuli/rescaled_final/0894_fw.mp4	0.0	161.9982578754425	2.49198579788208
28	145.10505032539368	pulse	1	t		26.0	2.5	/experiments/Knapen_AOT/AOT_stimuli/rescaled_final/0894_fw.mp4	0.0	162.76515674591064	
28	146.7057192325592	pulse	1	t		26.0	2.5	/experiments/Knapen_AOT/AOT_stimuli/rescaled_final/0894_fw.mp4	0.0	164.36582565307617	
28	146.83013725280762	fix_post	2		12	26.0	2.5	/experiments/Knapen_AOT/AOT_stimuli/rescaled_final/0894_fw.mp4	0.0	164.49024367332458	0.10002923011779785
29	146.93016648292542	fix_pre	0		120	27.0	2.5	blank	1.0	164.59027290344238	1.0001342296600342
29	147.93030071258545	movie	1		300	27.0	2.5	blank	1.0	165.59040713310242	2.5003662109375
29	148.30580615997314	pulse	1	t		27.0	2.5	blank	1.0	165.9659125804901	
29	149.9058976173401	pulse	1	t		27.0	2.5	blank	1.0	167.56600403785706	
29	150.43066692352295	fix_post	2		12	27.0	2.5	blank	1.0	168.09077334403992	0.10001611709594727
30	150.5306830406189	fix_pre	0		118	28.0	2.5	/experiments/Knapen_AOT/AOT_stimuli/rescaled_final/2113_rv.mp4	0.0	168.19078946113586	0.9918599128723145
30	151.50615882873535	pulse	0	t		28.0	2.5	/experiments/Knapen_AOT/AOT_stimuli/rescaled_final/2113_rv.mp4	0.0	169.16626524925232	
30	151.5225429534912	movie	1		287	28.0	2.5	/experiments/Knapen_AOT/AOT_stimuli/rescaled_final/2113_rv.mp4	0.0	169.18264937400818	2.5003483295440674
30	153.10491180419922	pulse	1	t		28.0	2.5	/experiments/Knapen_AOT/AOT_stimuli/rescaled_final/2113_rv.mp4	0.0	170.7650182247162	
30	154.02289128303528	fix_post	2		12	28.0	2.5	/experiments/Knapen_AOT/AOT_stimuli/rescaled_final/2113_rv.mp4	0.0	171.68299770355225	0.10000157356262207
31	154.1228928565979	fix_pre	0		120	29.0	2.5	/experiments/Knapen_AOT/AOT_stimuli/rescaled_final/1077_fw.mp4	0.0	171.78299927711487	1.0085773468017578
31	154.7065396308899	pulse	0	t		29.0	2.5	/experiments/Knapen_AOT/AOT_stimuli/rescaled_final/1077_fw.mp4	0.0	172.36664605140686	
31	155.13147020339966	movie	1		273	29.0	2.5	/experiments/Knapen_AOT/AOT_stimuli/rescaled_final/1077_fw.mp4	0.0	172.79157662391663	2.491987466812134
31	156.30654001235962	pulse	1	t		29.0	2.5	/experiments/Knapen_AOT/AOT_stimuli/rescaled_final/1077_fw.mp4	0.0	173.9666464328766	
31	157.6234576702118	fix_post	2		12	29.0	2.5	/experiments/Knapen_AOT/AOT_stimuli/rescaled_final/1077_fw.mp4	0.0	175.28356409072876	0.09999990463256836
32	157.72345757484436	fix_pre	0		120	30.0	2.5	/experiments/Knapen_AOT/AOT_stimuli/rescaled_final/0127_fw.mp4	0.0	175.38356399536133	1.0085093975067139
32	157.90703964233398	pulse	0	t		30.0	2.5	/experiments/Knapen_AOT/AOT_stimuli/rescaled_final/0127_fw.mp4	0.0	175.56714606285095	
32	158.73196697235107	movie	1		290	30.0	2.5	/experiments/Knapen_AOT/AOT_stimuli/rescaled_final/0127_fw.mp4	0.0	176.39207339286804	2.492006540298462
32	159.50544691085815	pulse	1	t		30.0	2.5	/experiments/Knapen_AOT/AOT_stimuli/rescaled_final/0127_fw.mp4	0.0	177.16555333137512	
32	161.10550165176392	pulse	1	t		30.0	2.5	/experiments/Knapen_AOT/AOT_stimuli/rescaled_final/0127_fw.mp4	0.0	178.76560807228088	
32	161.22397351264954	fix_post	2		12	30.0	2.5	/experiments/Knapen_AOT/AOT_stimuli/rescaled_final/0127_fw.mp4	0.0	178.8840799331665	0.10001182556152344
33	161.32398533821106	fix_pre	0		120	31.0	2.5	/experiments/Knapen_AOT/AOT_stimuli/rescaled_final/0602_rv.mp4	0.0	178.98409175872803	1.0085506439208984
33	162.33253598213196	movie	1		281	31.0	2.5	/experiments/Knapen_AOT/AOT_stimuli/rescaled_final/0602_rv.mp4	0.0	179.99264240264893	2.4919772148132324
33	162.70598125457764	pulse	1	t		31.0	2.5	/experiments/Knapen_AOT/AOT_stimuli/rescaled_final/0602_rv.mp4	0.0	180.3660876750946	
33	164.30581545829773	pulse	1	t		31.0	2.5	/experiments/Knapen_AOT/AOT_stimuli/rescaled_final/0602_rv.mp4	0.0	181.9659218788147	
33	164.8245131969452	fix_post	2		12	31.0	2.5	/experiments/Knapen_AOT/AOT_stimuli/rescaled_final/0602_rv.mp4	0.0	182.48461961746216	0.1000363826751709
34	164.92454957962036	fix_pre	0		119	32.0	2.5	/experiments/Knapen_AOT/AOT_stimuli/rescaled_final/0737_rv.mp4	0.0	182.58465600013733	1.0001473426818848
34	165.9085578918457	pulse	0	t		32.0	2.5	/experiments/Knapen_AOT/AOT_stimuli/rescaled_final/0737_rv.mp4	0.0	183.56866431236267	
34	165.92469692230225	movie	1		293	32.0	2.5	/experiments/Knapen_AOT/AOT_stimuli/rescaled_final/0737_rv.mp4	0.0	183.5848033428192	2.500344753265381
34	167.50692343711853	pulse	1	t		32.0	2.5	/experiments/Knapen_AOT/AOT_stimuli/rescaled_final/0737_rv.mp4	0.0	185.1670298576355	
34	168.42504167556763	fix_post	2		12	32.0	2.5	/experiments/Knapen_AOT/AOT_stimuli/rescaled_final/0737_rv.mp4	0.0	186.0851480960846	0.10003161430358887
35	168.52507328987122	fix_pre	0		120	33.0	2.5	/experiments/Knapen_AOT/AOT_stimuli/rescaled_final/1730_rv.mp4	0.0	186.18517971038818	1.0085728168487549
35	169.10879969596863	pulse	0	t		33.0	2.5	/experiments/Knapen_AOT/AOT_stimuli/rescaled_final/1730_rv.mp4	0.0	186.7689061164856	
35	169.53364610671997	movie	1		288	33.0	2.5	/experiments/Knapen_AOT/AOT_stimuli/rescaled_final/1730_rv.mp4	0.0	187.19375252723694	2.4919497966766357
35	170.70694971084595	pulse	1	t		33.0	2.5	/experiments/Knapen_AOT/AOT_stimuli/rescaled_final/1730_rv.mp4	0.0	188.36705613136292	
35	172.0255959033966	fix_post	2		12	33.0	2.5	/experiments/Knapen_AOT/AOT_stimuli/rescaled_final/1730_rv.mp4	0.0	189.68570232391357	0.10014152526855469
36	172.12573742866516	fix_pre	0		120	34.0	2.5	blank	1.0	189.78584384918213	1.0000689029693604
36	172.30914664268494	pulse	0	t		34.0	2.5	blank	1.0	189.9692530632019	
36	173.12580633163452	movie	1		300	34.0	2.5	blank	1.0	190.7859127521515	2.5003201961517334
36	173.90947222709656	pulse	1	t		34.0	2.5	blank	1.0	191.56957864761353	
36	175.50969171524048	pulse	1	t		34.0	2.5	blank	1.0	193.16979813575745	
36	175.62612652778625	fix_post	2		12	34.0	2.5	blank	1.0	193.28623294830322	0.10001969337463379
37	175.7261462211609	fix_pre	0		120	35.0	2.5	/experiments/Knapen_AOT/AOT_stimuli/rescaled_final/1150_rv.mp4	0.0	193.38625264167786	1.0086677074432373
37	176.73481392860413	movie	1		280	35.0	2.5	/experiments/Knapen_AOT/AOT_stimuli/rescaled_final/1150_rv.mp4	0.0	194.3949203491211	2.491860866546631
37	177.10810136795044	pulse	1	t		35.0	2.5	/experiments/Knapen_AOT/AOT_stimuli/rescaled_final/1150_rv.mp4	0.0	194.7682077884674	
37	178.70844316482544	pulse	1	t		35.0	2.5	/experiments/Knapen_AOT/AOT_stimuli/rescaled_final/1150_rv.mp4	0.0	196.3685495853424	
37	179.22667479515076	fix_post	2		12	35.0	2.5	/experiments/Knapen_AOT/AOT_stimuli/rescaled_final/1150_rv.mp4	0.0	196.88678121566772	0.1000678539276123
38	179.32674264907837	fix_pre	0		119	36.0	2.5	/experiments/Knapen_AOT/AOT_stimuli/rescaled_final/0050_fw.mp4	0.0	196.98684906959534	1.0084893703460693
38	180.31050086021423	pulse	0	t		36.0	2.5	/experiments/Knapen_AOT/AOT_stimuli/rescaled_final/0050_fw.mp4	0.0	197.9706072807312	
38	180.33523201942444	movie	1		276	36.0	2.5	/experiments/Knapen_AOT/AOT_stimuli/rescaled_final/0050_fw.mp4	0.0	197.9953384399414	2.49198579788208
38	181.90900421142578	pulse	1	t		36.0	2.5	/experiments/Knapen_AOT/AOT_stimuli/rescaled_final/0050_fw.mp4	0.0	199.56911063194275	
38	182.82721781730652	fix_post	2		12	36.0	2.5	/experiments/Knapen_AOT/AOT_stimuli/rescaled_final/0050_fw.mp4	0.0	200.4873242378235	0.10018563270568848
39	182.9274034500122	fix_pre	0		120	37.0	2.5	/experiments/Knapen_AOT/AOT_stimuli/rescaled_final/0337_rv.mp4	0.0	200.58750987052917	1.0083460807800293
39	183.51087474822998	pulse	0	t		37.0	2.5	/experiments/Knapen_AOT/AOT_stimuli/rescaled_final/0337_rv.mp4	0.0	201.17098116874695	
39	183.93574953079224	movie	1		292	37.0	2.5	/experiments/Knapen_AOT/AOT_stimuli/rescaled_final/0337_rv.mp4	0.0	201.5958559513092	2.492021083831787
39	185.1093828678131	pulse	1	t		37.0	2.5	/experiments/Knapen_AOT/AOT_stimuli/rescaled_final/0337_rv.mp4	0.0	202.76948928833008	
39	186.42777061462402	fix_post	2		12	37.0	2.5	/experiments/Knapen_AOT/AOT_stimuli/rescaled_final/0337_rv.mp4	0.0	204.087877035141	0.10005998611450195
40	186.52783060073853	fix_pre	0		120	38.0	2.5	/experiments/Knapen_AOT/AOT_stimuli/rescaled_final/0228_fw.mp4	0.0	204.1879370212555	1.0084779262542725
40	186.7113916873932	pulse	0	t		38.0	2.5	/experiments/Knapen_AOT/AOT_stimuli/rescaled_final/0228_fw.mp4	0.0	204.37149810791016	
40	187.5363085269928	movie	1		280	38.0	2.5	/experiments/Knapen_AOT/AOT_stimuli/rescaled_final/0228_fw.mp4	0.0	205.19641494750977	2.491997718811035
40	188.3094174861908	pulse	1	t		38.0	2.5	/experiments/Knapen_AOT/AOT_stimuli/rescaled_final/0228_fw.mp4	0.0	205.96952390670776	
40	189.91023516654968	pulse	1	t		38.0	2.5	/experiments/Knapen_AOT/AOT_stimuli/rescaled_final/0228_fw.mp4	0.0	207.57034158706665	
40	190.02830624580383	fix_post	2		12	38.0	2.5	/experiments/Knapen_AOT/AOT_stimuli/rescaled_final/0228_fw.mp4	0.0	207.6884126663208	0.10001111030578613
41	190.12831735610962	fix_pre	0		120	39.0	2.5	/experiments/Knapen_AOT/AOT_stimuli/rescaled_final/1732_fw.mp4	0.0	207.7884237766266	1.0084834098815918
41	191.1368007659912	movie	1		277	39.0	2.5	/experiments/Knapen_AOT/AOT_stimuli/rescaled_final/1732_fw.mp4	0.0	208.79690718650818	2.492065668106079
41	191.51078152656555	pulse	1	t		39.0	2.5	/experiments/Knapen_AOT/AOT_stimuli/rescaled_final/1732_fw.mp4	0.0	209.17088794708252	
41	193.11006689071655	pulse	1	t		39.0	2.5	/experiments/Knapen_AOT/AOT_stimuli/rescaled_final/1732_fw.mp4	0.0	210.77017331123352	
41	193.6288664340973	fix_post	2		12	39.0	2.5	/experiments/Knapen_AOT/AOT_stimuli/rescaled_final/1732_fw.mp4	0.0	211.28897285461426	0.10006117820739746
42	193.7289276123047	fix_pre	0		119	40.0	2.5	/experiments/Knapen_AOT/AOT_stimuli/rescaled_final/1876_fw.mp4	0.0	211.38903403282166	1.0001006126403809
42	194.712571144104	pulse	0	t		40.0	2.5	/experiments/Knapen_AOT/AOT_stimuli/rescaled_final/1876_fw.mp4	0.0	212.37267756462097	
42	194.72902822494507	movie	1		285	40.0	2.5	/experiments/Knapen_AOT/AOT_stimuli/rescaled_final/1876_fw.mp4	0.0	212.38913464546204	2.5003514289855957
42	196.31194519996643	pulse	1	t		40.0	2.5	/experiments/Knapen_AOT/AOT_stimuli/rescaled_final/1876_fw.mp4	0.0	213.9720516204834	
42	197.22937965393066	fix_post	2		12	40.0	2.5	/experiments/Knapen_AOT/AOT_stimuli/rescaled_final/1876_fw.mp4	0.0	214.88948607444763	0.10002017021179199
43	197.32939982414246	fix_pre	0		120	41.0	2.5	blank	1.0	214.98950624465942	1.00016450881958
43	197.90520930290222	pulse	0	t		41.0	2.5	blank	1.0	215.5653157234192	
43	198.32956433296204	movie	1		300	41.0	2.5	blank	1.0	215.989670753479	2.5003726482391357
43	199.50520825386047	pulse	1	t		41.0	2.5	blank	1.0	217.16531467437744	
43	200.82993698120117	fix_post	2		12	41.0	2.5	blank	1.0	218.49004340171814	0.10010218620300293
44	200.93003916740417	fix_pre	0		120	42.0	2.5	/experiments/Knapen_AOT/AOT_stimuli/rescaled_final/2168_rv.mp4	0.0	218.59014558792114	1.0083796977996826
44	201.10543036460876	pulse	0	t		42.0	2.5	/experiments/Knapen_AOT/AOT_stimuli/rescaled_final/2168_rv.mp4	0.0	218.76553678512573	
44	201.93841886520386	movie	1		292	42.0	2.5	/experiments/Knapen_AOT/AOT_stimuli/rescaled_final/2168_rv.mp4	0.0	219.59852528572083	2.492067813873291
44	202.70538187026978	pulse	1	t		42.0	2.5	/experiments/Knapen_AOT/AOT_stimuli/rescaled_final/2168_rv.mp4	0.0	220.36548829078674	
44	204.3056948184967	pulse	1	t		42.0	2.5	/experiments/Knapen_AOT/AOT_stimuli/rescaled_final/2168_rv.mp4	0.0	221.96580123901367	
44	204.43048667907715	fix_post	2		12	42.0	2.5	/experiments/Knapen_AOT/AOT_stimuli/rescaled_final/2168_rv.mp4	0.0	222.09059309959412	0.10006594657897949
45	204.53055262565613	fix_pre	0		120	43.0	2.5	/experiments/Knapen_AOT/AOT_stimuli/rescaled_final/1828_rv.mp4	0.0	222.1906590461731	1.0085067749023438
45	205.53905940055847	movie	1		271	43.0	2.5	/experiments/Knapen_AOT/AOT_stimuli/rescaled_final/1828_rv.mp4	0.0	223.19916582107544	2.492082118988037
45	205.906019449234	pulse	1	t		43.0	2.5	/experiments/Knapen_AOT/AOT_stimuli/rescaled_final/1828_rv.mp4	0.0	223.56612586975098	
45	207.5061731338501	pulse	1	t		43.0	2.5	/experiments/Knapen_AOT/AOT_stimuli/rescaled_final/1828_rv.mp4	0.0	225.16627955436707	
45	208.0311415195465	fix_post	2		12	43.0	2.5	/experiments/Knapen_AOT/AOT_stimuli/rescaled_final/1828_rv.mp4	0.0	225.69124794006348	0.0999002456665039
46	208.131041765213	fix_pre	0		118	44.0	2.5	/experiments/Knapen_AOT/AOT_stimuli/rescaled_final/1138_rv.mp4	0.0	225.79114818572998	0.9918212890625
46	209.10664987564087	pulse	0	t		44.0	2.5	/experiments/Knapen_AOT/AOT_stimuli/rescaled_final/1138_rv.mp4	0.0	226.76675629615784	
46	209.1228630542755	movie	1		279	44.0	2.5	/experiments/Knapen_AOT/AOT_stimuli/rescaled_final/1138_rv.mp4	0.0	226.78296947479248	2.5004281997680664
46	210.70517468452454	pulse	1	t		44.0	2.5	/experiments/Knapen_AOT/AOT_stimuli/rescaled_final/1138_rv.mp4	0.0	228.3652811050415	
46	211.62329125404358	fix_post	2		12	44.0	2.5	/experiments/Knapen_AOT/AOT_stimuli/rescaled_final/1138_rv.mp4	0.0	229.28339767456055	0.10000181198120117
47	211.72329306602478	fix_pre	0		120	45.0	2.5	/experiments/Knapen_AOT/AOT_stimuli/rescaled_final/0861_rv.mp4	0.0	229.38339948654175	1.008427619934082
47	212.3069019317627	pulse	0	t		45.0	2.5	/experiments/Knapen_AOT/AOT_stimuli/rescaled_final/0861_rv.mp4	0.0	229.96700835227966	
47	212.73172068595886	movie	1		273	45.0	2.5	/experiments/Knapen_AOT/AOT_stimuli/rescaled_final/0861_rv.mp4	0.0	230.39182710647583	2.4920413494110107
47	213.90550065040588	pulse	1	t		45.0	2.5	/experiments/Knapen_AOT/AOT_stimuli/rescaled_final/0861_rv.mp4	0.0	231.56560707092285	
47	215.22376203536987	fix_post	2		12	45.0	2.5	/experiments/Knapen_AOT/AOT_stimuli/rescaled_final/0861_rv.mp4	0.0	232.88386845588684	0.10001850128173828
48	215.3237805366516	fix_pre	0		120	46.0	2.5	/experiments/Knapen_AOT/AOT_stimuli/rescaled_final/1294_fw.mp4	0.0	232.98388695716858	1.0085294246673584
48	215.5073745250702	pulse	0	t		46.0	2.5	/experiments/Knapen_AOT/AOT_stimuli/rescaled_final/1294_fw.mp4	0.0	233.16748094558716	
48	216.33230996131897	movie	1		257	46.0	2.5	/experiments/Knapen_AOT/AOT_stimuli/rescaled_final/1294_fw.mp4	0.0	233.99241638183594	2.492091178894043
48	217.10568571090698	pulse	1	t		46.0	2.5	/experiments/Knapen_AOT/AOT_stimuli/rescaled_final/1294_fw.mp4	0.0	234.76579213142395	
48	218.70589900016785	pulse	1	t		46.0	2.5	/experiments/Knapen_AOT/AOT_stimuli/rescaled_final/1294_fw.mp4	0.0	236.36600542068481	
48	218.824401140213	fix_post	2		12	46.0	2.5	/experiments/Knapen_AOT/AOT_stimuli/rescaled_final/1294_fw.mp4	0.0	236.48450756072998	0.10017228126525879
49	218.92457342147827	fix_pre	0		120	47.0	2.5	/experiments/Knapen_AOT/AOT_stimuli/rescaled_final/1589_fw.mp4	0.0	236.58467984199524	1.0083842277526855
49	219.93295764923096	movie	1		279	47.0	2.5	/experiments/Knapen_AOT/AOT_stimuli/rescaled_final/1589_fw.mp4	0.0	237.59306406974792	2.491884469985962
49	220.3069658279419	pulse	1	t		47.0	2.5	/experiments/Knapen_AOT/AOT_stimuli/rescaled_final/1589_fw.mp4	0.0	237.96707224845886	
49	221.9064977169037	pulse	1	t		47.0	2.5	/experiments/Knapen_AOT/AOT_stimuli/rescaled_final/1589_fw.mp4	0.0	239.56660413742065	
49	222.42484211921692	fix_post	2		12	47.0	2.5	/experiments/Knapen_AOT/AOT_stimuli/rescaled_final/1589_fw.mp4	0.0	240.0849485397339	0.10005807876586914
50	222.5249001979828	fix_pre	0		119	48.0	2.5	blank	1.0	240.18500661849976	0.9917705059051514
50	223.5086212158203	pulse	0	t		48.0	2.5	blank	1.0	241.16872763633728	
50	223.51667070388794	movie	1		301	48.0	2.5	blank	1.0	241.1767771244049	2.508708953857422
50	225.10876607894897	pulse	1	t		48.0	2.5	blank	1.0	242.76887249946594	
50	226.02537965774536	fix_post	2		12	48.0	2.5	blank	1.0	243.68548607826233	0.10003876686096191
51	226.12541842460632	fix_pre	0		120	49.0	2.5	/experiments/Knapen_AOT/AOT_stimuli/rescaled_final/2054_fw.mp4	0.0	243.7855248451233	1.0084896087646484
51	226.70908045768738	pulse	0	t		49.0	2.5	/experiments/Knapen_AOT/AOT_stimuli/rescaled_final/2054_fw.mp4	0.0	244.36918687820435	
51	227.13390803337097	movie	1		264	49.0	2.5	/experiments/Knapen_AOT/AOT_stimuli/rescaled_final/2054_fw.mp4	0.0	244.79401445388794	2.4921417236328125
51	228.30933570861816	pulse	1	t		49.0	2.5	/experiments/Knapen_AOT/AOT_stimuli/rescaled_final/2054_fw.mp4	0.0	245.96944212913513	
51	229.62604975700378	fix_post	2		12	49.0	2.5	/experiments/Knapen_AOT/AOT_stimuli/rescaled_final/2054_fw.mp4	0.0	247.28615617752075	0.09995484352111816
52	229.7260046005249	fix_pre	0		120	50.0	2.5	/experiments/Knapen_AOT/AOT_stimuli/rescaled_final/1497_fw.mp4	0.0	247.38611102104187	1.0084383487701416
52	229.9096007347107	pulse	0	t		50.0	2.5	/experiments/Knapen_AOT/AOT_stimuli/rescaled_final/1497_fw.mp4	0.0	247.56970715522766	
52	230.73444294929504	movie	1		291	50.0	2.5	/experiments/Knapen_AOT/AOT_stimuli/rescaled_final/1497_fw.mp4	0.0	248.394549369812	2.4921107292175293
52	231.50788640975952	pulse	1	t		50.0	2.5	/experiments/Knapen_AOT/AOT_stimuli/rescaled_final/1497_fw.mp4	0.0	249.1679928302765	
52	233.108216047287	pulse	1	t		50.0	2.5	/experiments/Knapen_AOT/AOT_stimuli/rescaled_final/1497_fw.mp4	0.0	250.76832246780396	
52	233.22655367851257	fix_post	2		12	50.0	2.5	/experiments/Knapen_AOT/AOT_stimuli/rescaled_final/1497_fw.mp4	0.0	250.88666009902954	0.09999847412109375
53	233.32655215263367	fix_pre	0		120	51.0	2.5	/experiments/Knapen_AOT/AOT_stimuli/rescaled_final/1561_fw.mp4	0.0	250.98665857315063	1.0084571838378906
53	234.33500933647156	movie	1		280	51.0	2.5	/experiments/Knapen_AOT/AOT_stimuli/rescaled_final/1561_fw.mp4	0.0	251.99511575698853	2.4919979572296143
53	234.70865106582642	pulse	1	t		51.0	2.5	/experiments/Knapen_AOT/AOT_stimuli/rescaled_final/1561_fw.mp4	0.0	252.36875748634338	
53	236.30844902992249	pulse	1	t		51.0	2.5	/experiments/Knapen_AOT/AOT_stimuli/rescaled_final/1561_fw.mp4	0.0	253.96855545043945	
53	236.82700729370117	fix_post	2		12	51.0	2.5	/experiments/Knapen_AOT/AOT_stimuli/rescaled_final/1561_fw.mp4	0.0	254.48711371421814	0.10002493858337402
54	236.92703223228455	fix_pre	0		119	52.0	2.5	/experiments/Knapen_AOT/AOT_stimuli/rescaled_final/1146_rv.mp4	0.0	254.5871386528015	1.0085868835449219
54	237.9110038280487	pulse	0	t		52.0	2.5	/experiments/Knapen_AOT/AOT_stimuli/rescaled_final/1146_rv.mp4	0.0	255.57111024856567	
54	237.93561911582947	movie	1		264	52.0	2.5	/experiments/Knapen_AOT/AOT_stimuli/rescaled_final/1146_rv.mp4	0.0	255.59572553634644	2.4920310974121094
54	239.5095934867859	pulse	1	t		52.0	2.5	/experiments/Knapen_AOT/AOT_stimuli/rescaled_final/1146_rv.mp4	0.0	257.16969990730286	
54	240.42765021324158	fix_post	2		12	52.0	2.5	/experiments/Knapen_AOT/AOT_stimuli/rescaled_final/1146_rv.mp4	0.0	258.08775663375854	0.09998011589050293
55	240.52763032913208	fix_pre	0		120	53.0	2.5	/experiments/Knapen_AOT/AOT_stimuli/rescaled_final/1927_rv.mp4	0.0	258.18773674964905	1.0084786415100098
55	241.11127281188965	pulse	0	t		53.0	2.5	/experiments/Knapen_AOT/AOT_stimuli/rescaled_final/1927_rv.mp4	0.0	258.7713792324066	
55	241.5361089706421	movie	1		274	53.0	2.5	/experiments/Knapen_AOT/AOT_stimuli/rescaled_final/1927_rv.mp4	0.0	259.19621539115906	2.4919848442077637
55	242.70964121818542	pulse	1	t		53.0	2.5	/experiments/Knapen_AOT/AOT_stimuli/rescaled_final/1927_rv.mp4	0.0	260.3697476387024	
55	244.02809381484985	fix_post	2		12	53.0	2.5	/experiments/Knapen_AOT/AOT_stimuli/rescaled_final/1927_rv.mp4	0.0	261.6882002353668	0.10009288787841797
56	244.12818670272827	fix_pre	0		120	54.0	2.5	blank	1.0	261.78829312324524	1.0000746250152588
56	244.31180095672607	pulse	0	t		54.0	2.5	blank	1.0	261.97190737724304	
56	245.12826132774353	movie	1		300	54.0	2.5	blank	1.0	262.7883677482605	2.5004355907440186
56	245.9120421409607	pulse	1	t		54.0	2.5	blank	1.0	263.57214856147766	
56	247.50481414794922	pulse	1	t		54.0	2.5	blank	1.0	265.1649205684662	
56	247.62869691848755	fix_post	2		12	54.0	2.5	blank	1.0	265.2888033390045	0.1000368595123291
57	247.72873377799988	fix_pre	0		120	55.0	2.5	/experiments/Knapen_AOT/AOT_stimuli/rescaled_final/1044_rv.mp4	0.0	265.38884019851685	1.0084116458892822
57	248.73714542388916	movie	1		265	55.0	2.5	/experiments/Knapen_AOT/AOT_stimuli/rescaled_final/1044_rv.mp4	0.0	266.3972518444061	2.4920339584350586
57	249.1126344203949	pulse	1	t		55.0	2.5	/experiments/Knapen_AOT/AOT_stimuli/rescaled_final/1044_rv.mp4	0.0	266.77274084091187	
57	250.7045521736145	pulse	1	t		55.0	2.5	/experiments/Knapen_AOT/AOT_stimuli/rescaled_final/1044_rv.mp4	0.0	268.36465859413147	
57	251.22917938232422	fix_post	2		12	55.0	2.5	/experiments/Knapen_AOT/AOT_stimuli/rescaled_final/1044_rv.mp4	0.0	268.8892858028412	0.10002017021179199
58	251.329199552536	fix_pre	0		118	56.0	2.5	/experiments/Knapen_AOT/AOT_stimuli/rescaled_final/1138_fw.mp4	0.0	268.989305973053	1.0001983642578125
58	252.30483722686768	pulse	0	t		56.0	2.5	/experiments/Knapen_AOT/AOT_stimuli/rescaled_final/1138_fw.mp4	0.0	269.96494364738464	
58	252.32939791679382	movie	1		279	56.0	2.5	/experiments/Knapen_AOT/AOT_stimuli/rescaled_final/1138_fw.mp4	0.0	269.9895043373108	2.4920032024383545
58	253.90486669540405	pulse	1	t		56.0	2.5	/experiments/Knapen_AOT/AOT_stimuli/rescaled_final/1138_fw.mp4	0.0	271.564973115921	
58	254.82140111923218	fix_post	2		12	56.0	2.5	/experiments/Knapen_AOT/AOT_stimuli/rescaled_final/1138_fw.mp4	0.0	272.48150753974915	0.1000053882598877
59	254.92140650749207	fix_pre	0		120	57.0	2.5	/experiments/Knapen_AOT/AOT_stimuli/rescaled_final/1629_rv.mp4	0.0	272.58151292800903	1.0085110664367676
59	255.5052547454834	pulse	0	t		57.0	2.5	/experiments/Knapen_AOT/AOT_stimuli/rescaled_final/1629_rv.mp4	0.0	273.16536116600037	
59	255.92991757392883	movie	1		272	57.0	2.5	/experiments/Knapen_AOT/AOT_stimuli/rescaled_final/1629_rv.mp4	0.0	273.5900239944458	2.49202561378479
59	257.10550022125244	pulse	1	t		57.0	2.5	/experiments/Knapen_AOT/AOT_stimuli/rescaled_final/1629_rv.mp4	0.0	274.7656066417694	
59	258.4219431877136	fix_post	2		12	57.0	2.5	/experiments/Knapen_AOT/AOT_stimuli/rescaled_final/1629_rv.mp4	0.0	276.0820496082306	0.10012960433959961
60	258.5220727920532	fix_pre	0		120	58.0	2.5	/experiments/Knapen_AOT/AOT_stimuli/rescaled_final/0277_fw.mp4	0.0	276.1821792125702	1.0083682537078857
60	258.7055776119232	pulse	0	t		58.0	2.5	/experiments/Knapen_AOT/AOT_stimuli/rescaled_final/0277_fw.mp4	0.0	276.3656840324402	
60	259.5304410457611	movie	1		277	58.0	2.5	/experiments/Knapen_AOT/AOT_stimuli/rescaled_final/0277_fw.mp4	0.0	277.1905474662781	2.4920332431793213
60	260.3059329986572	pulse	1	t		58.0	2.5	/experiments/Knapen_AOT/AOT_stimuli/rescaled_final/0277_fw.mp4	0.0	277.9660394191742	
60	261.9061167240143	pulse	1	t		58.0	2.5	/experiments/Knapen_AOT/AOT_stimuli/rescaled_final/0277_fw.mp4	0.0	279.56622314453125	
60	262.02247428894043	fix_post	2		12	58.0	2.5	/experiments/Knapen_AOT/AOT_stimuli/rescaled_final/0277_fw.mp4	0.0	279.6825807094574	0.10008478164672852
61	262.12255907058716	fix_pre	0		120	59.0	2.5	/experiments/Knapen_AOT/AOT_stimuli/rescaled_final/0928_fw.mp4	0.0	279.7826654911041	1.0084364414215088
61	263.13099551200867	movie	1		282	59.0	2.5	/experiments/Knapen_AOT/AOT_stimuli/rescaled_final/0928_fw.mp4	0.0	280.79110193252563	2.492048978805542
61	263.50667428970337	pulse	1	t		59.0	2.5	/experiments/Knapen_AOT/AOT_stimuli/rescaled_final/0928_fw.mp4	0.0	281.16678071022034	
61	265.10669231414795	pulse	1	t		59.0	2.5	/experiments/Knapen_AOT/AOT_stimuli/rescaled_final/0928_fw.mp4	0.0	282.7667987346649	
61	265.6230444908142	fix_post	2		12	59.0	2.5	/experiments/Knapen_AOT/AOT_stimuli/rescaled_final/0928_fw.mp4	0.0	283.2831509113312	0.10001301765441895
62	265.7230575084686	fix_pre	0		119	60.0	2.5	/experiments/Knapen_AOT/AOT_stimuli/rescaled_final/1583_fw.mp4	0.0	283.3831639289856	1.0001389980316162
62	266.70701146125793	pulse	0	t		60.0	2.5	/experiments/Knapen_AOT/AOT_stimuli/rescaled_final/1583_fw.mp4	0.0	284.3671178817749	
62	266.72319650650024	movie	1		279	60.0	2.5	/experiments/Knapen_AOT/AOT_stimuli/rescaled_final/1583_fw.mp4	0.0	284.3833029270172	2.500382423400879
62	268.3055853843689	pulse	1	t		60.0	2.5	/experiments/Knapen_AOT/AOT_stimuli/rescaled_final/1583_fw.mp4	0.0	285.96569180488586	
62	269.2235789299011	fix_post	2		12	60.0	2.5	/experiments/Knapen_AOT/AOT_stimuli/rescaled_final/1583_fw.mp4	0.0	286.8836853504181	0.10000395774841309
63	269.32358288764954	fix_pre	0		120	61.0	2.5	/experiments/Knapen_AOT/AOT_stimuli/rescaled_final/1794_fw.mp4	0.0	286.9836893081665	1.0084640979766846
63	269.9072115421295	pulse	0	t		61.0	2.5	/experiments/Knapen_AOT/AOT_stimuli/rescaled_final/1794_fw.mp4	0.0	287.5673179626465	
63	270.3320469856262	movie	1		286	61.0	2.5	/experiments/Knapen_AOT/AOT_stimuli/rescaled_final/1794_fw.mp4	0.0	287.9921534061432	2.492055892944336
63	271.5054876804352	pulse	1	t		61.0	2.5	/experiments/Knapen_AOT/AOT_stimuli/rescaled_final/1794_fw.mp4	0.0	289.16559410095215	
63	272.82410287857056	fix_post	2		12	61.0	2.5	/experiments/Knapen_AOT/AOT_stimuli/rescaled_final/1794_fw.mp4	0.0	290.4842092990875	0.1000070571899414
64	272.9241099357605	fix_pre	0		120	62.0	2.5	/experiments/Knapen_AOT/AOT_stimuli/rescaled_final/0882_fw.mp4	0.0	290.58421635627747	1.0085184574127197
64	273.10766530036926	pulse	0	t		62.0	2.5	/experiments/Knapen_AOT/AOT_stimuli/rescaled_final/0882_fw.mp4	0.0	290.76777172088623	
64	273.9326283931732	movie	1		293	62.0	2.5	/experiments/Knapen_AOT/AOT_stimuli/rescaled_final/0882_fw.mp4	0.0	291.5927348136902	2.492016077041626
64	274.7060911655426	pulse	1	t		62.0	2.5	/experiments/Knapen_AOT/AOT_stimuli/rescaled_final/0882_fw.mp4	0.0	292.36619758605957	
64	276.308132648468	pulse	1	t		62.0	2.5	/experiments/Knapen_AOT/AOT_stimuli/rescaled_final/0882_fw.mp4	0.0	293.968239068985	
64	276.42464447021484	fix_post	2		12	62.0	2.5	/experiments/Knapen_AOT/AOT_stimuli/rescaled_final/0882_fw.mp4	0.0	294.0847508907318	0.10001826286315918
65	276.524662733078	fix_pre	0		120	63.0	2.5	blank	1.0	294.18476915359497	1.0001611709594727
65	277.5248239040375	movie	1		300	63.0	2.5	blank	1.0	295.18493032455444	2.5003607273101807
65	277.90838170051575	pulse	1	t		63.0	2.5	blank	1.0	295.5684881210327	
65	279.5085799694061	pulse	1	t		63.0	2.5	blank	1.0	297.1686863899231	
65	280.02518463134766	fix_post	2		12	63.0	2.5	blank	1.0	297.6852910518646	0.09997844696044922
66	280.1251630783081	fix_pre	0		119	64.0	2.5	/experiments/Knapen_AOT/AOT_stimuli/rescaled_final/0314_fw.mp4	0.0	297.7852694988251	1.0085480213165283
66	281.10889863967896	pulse	0	t		64.0	2.5	/experiments/Knapen_AOT/AOT_stimuli/rescaled_final/0314_fw.mp4	0.0	298.7690050601959	
66	281.13371109962463	movie	1		278	64.0	2.5	/experiments/Knapen_AOT/AOT_stimuli/rescaled_final/0314_fw.mp4	0.0	298.7938175201416	2.492013454437256
66	282.70798778533936	pulse	1	t		64.0	2.5	/experiments/Knapen_AOT/AOT_stimuli/rescaled_final/0314_fw.mp4	0.0	300.3680942058563	
66	283.6257245540619	fix_post	2		12	64.0	2.5	/experiments/Knapen_AOT/AOT_stimuli/rescaled_final/0314_fw.mp4	0.0	301.28583097457886	0.10001897811889648
67	283.7257435321808	fix_pre	0		120	65.0	2.5	/experiments/Knapen_AOT/AOT_stimuli/rescaled_final/0047_rv.mp4	0.0	301.38584995269775	1.0084917545318604
67	284.3095772266388	pulse	0	t		65.0	2.5	/experiments/Knapen_AOT/AOT_stimuli/rescaled_final/0047_rv.mp4	0.0	301.96968364715576	
67	284.73423528671265	movie	1		270	65.0	2.5	/experiments/Knapen_AOT/AOT_stimuli/rescaled_final/0047_rv.mp4	0.0	302.3943417072296	2.49214243888855
67	285.90970611572266	pulse	1	t		65.0	2.5	/experiments/Knapen_AOT/AOT_stimuli/rescaled_final/0047_rv.mp4	0.0	303.5698125362396	
67	287.2263777256012	fix_post	2		12	65.0	2.5	/experiments/Knapen_AOT/AOT_stimuli/rescaled_final/0047_rv.mp4	0.0	304.88648414611816	0.0999152660369873
68	287.3262929916382	fix_pre	0		120	66.0	2.5	/experiments/Knapen_AOT/AOT_stimuli/rescaled_final/0772_fw.mp4	0.0	304.98639941215515	1.0085241794586182
68	287.50994777679443	pulse	0	t		66.0	2.5	/experiments/Knapen_AOT/AOT_stimuli/rescaled_final/0772_fw.mp4	0.0	305.1700541973114	
68	288.3348171710968	movie	1		277	66.0	2.5	/experiments/Knapen_AOT/AOT_stimuli/rescaled_final/0772_fw.mp4	0.0	305.99492359161377	2.4920005798339844
68	289.1083507537842	pulse	1	t		66.0	2.5	/experiments/Knapen_AOT/AOT_stimuli/rescaled_final/0772_fw.mp4	0.0	306.76845717430115	
68	290.7084424495697	pulse	1	t		66.0	2.5	/experiments/Knapen_AOT/AOT_stimuli/rescaled_final/0772_fw.mp4	0.0	308.36854887008667	
68	290.8268177509308	fix_post	2		12	66.0	2.5	/experiments/Knapen_AOT/AOT_stimuli/rescaled_final/0772_fw.mp4	0.0	308.48692417144775	0.10001182556152344
69	290.9268295764923	fix_pre	0		120	67.0	2.5	/experiments/Knapen_AOT/AOT_stimuli/rescaled_final/0489_fw.mp4	0.0	308.5869359970093	1.008507490158081
69	291.9353370666504	movie	1		271	67.0	2.5	/experiments/Knapen_AOT/AOT_stimuli/rescaled_final/0489_fw.mp4	0.0	309.59544348716736	2.4920177459716797
69	292.3097219467163	pulse	1	t		67.0	2.5	/experiments/Knapen_AOT/AOT_stimuli/rescaled_final/0489_fw.mp4	0.0	309.9698283672333	
69	293.9088559150696	pulse	1	t		67.0	2.5	/experiments/Knapen_AOT/AOT_stimuli/rescaled_final/0489_fw.mp4	0.0	311.56896233558655	
69	294.42735481262207	fix_post	2		12	67.0	2.5	/experiments/Knapen_AOT/AOT_stimuli/rescaled_final/0489_fw.mp4	0.0	312.08746123313904	0.10002326965332031
70	294.5273780822754	fix_pre	0		119	68.0	2.5	/experiments/Knapen_AOT/AOT_stimuli/rescaled_final/0047_fw.mp4	0.0	312.18748450279236	1.0001487731933594
70	295.5110914707184	pulse	0	t		68.0	2.5	/experiments/Knapen_AOT/AOT_stimuli/rescaled_final/0047_fw.mp4	0.0	313.17119789123535	
70	295.52752685546875	movie	1		286	68.0	2.5	/experiments/Knapen_AOT/AOT_stimuli/rescaled_final/0047_fw.mp4	0.0	313.1876332759857	2.5003607273101807
70	297.10978746414185	pulse	1	t		68.0	2.5	/experiments/Knapen_AOT/AOT_stimuli/rescaled_final/0047_fw.mp4	0.0	314.7698938846588	
70	298.02788758277893	fix_post	2		12	68.0	2.5	/experiments/Knapen_AOT/AOT_stimuli/rescaled_final/0047_fw.mp4	0.0	315.6879940032959	0.10003066062927246
71	298.1279182434082	fix_pre	0		120	69.0	2.5	blank	1.0	315.78802466392517	1.0001389980316162
71	298.711795091629	pulse	0	t		69.0	2.5	blank	1.0	316.371901512146	
71	299.1280572414398	movie	1		300	69.0	2.5	blank	1.0	316.7881636619568	2.50036358833313
71	300.3119628429413	pulse	1	t		69.0	2.5	blank	1.0	317.97206926345825	
71	301.62842082977295	fix_post	2		12	69.0	2.5	blank	1.0	319.2885272502899	0.10007309913635254
72	301.7284939289093	fix_pre	0		119	70.0	2.5	/experiments/Knapen_AOT/AOT_stimuli/rescaled_final/0296_fw.mp4	0.0	319.38860034942627	1.0084733963012695
72	301.9120526313782	pulse	0	t		70.0	2.5	/experiments/Knapen_AOT/AOT_stimuli/rescaled_final/0296_fw.mp4	0.0	319.57215905189514	
72	302.73696732521057	movie	1		265	70.0	2.5	/experiments/Knapen_AOT/AOT_stimuli/rescaled_final/0296_fw.mp4	0.0	320.39707374572754	2.4920332431793213
72	303.5102438926697	pulse	1	t		70.0	2.5	/experiments/Knapen_AOT/AOT_stimuli/rescaled_final/0296_fw.mp4	0.0	321.17035031318665	
72	305.1106069087982	pulse	1	t		70.0	2.5	/experiments/Knapen_AOT/AOT_stimuli/rescaled_final/0296_fw.mp4	0.0	322.7707133293152	
72	305.2290005683899	fix_post	2		12	70.0	2.5	/experiments/Knapen_AOT/AOT_stimuli/rescaled_final/0296_fw.mp4	0.0	322.88910698890686	0.0999898910522461
73	305.32899045944214	fix_pre	0		120	71.0	2.5	/experiments/Knapen_AOT/AOT_stimuli/rescaled_final/0457_rv.mp4	0.0	322.9890968799591	1.0085430145263672
73	306.3375334739685	movie	1		279	71.0	2.5	/experiments/Knapen_AOT/AOT_stimuli/rescaled_final/0457_rv.mp4	0.0	323.9976398944855	2.4920594692230225
73	306.7130858898163	pulse	1	t		71.0	2.5	/experiments/Knapen_AOT/AOT_stimuli/rescaled_final/0457_rv.mp4	0.0	324.37319231033325	
73	308.3050560951233	pulse	1	t		71.0	2.5	/experiments/Knapen_AOT/AOT_stimuli/rescaled_final/0457_rv.mp4	0.0	325.96516251564026	
73	308.8295929431915	fix_post	2		12	71.0	2.5	/experiments/Knapen_AOT/AOT_stimuli/rescaled_final/0457_rv.mp4	0.0	326.4896993637085	0.09999489784240723
74	308.92958784103394	fix_pre	0		118	72.0	2.5	/experiments/Knapen_AOT/AOT_stimuli/rescaled_final/0647_fw.mp4	0.0	326.5896942615509	1.0001635551452637
74	309.90505862236023	pulse	0	t		72.0	2.5	/experiments/Knapen_AOT/AOT_stimuli/rescaled_final/0647_fw.mp4	0.0	327.5651650428772	
74	309.9297513961792	movie	1		268	72.0	2.5	/experiments/Knapen_AOT/AOT_stimuli/rescaled_final/0647_fw.mp4	0.0	327.58985781669617	2.4920361042022705
74	311.51371002197266	pulse	1	t		72.0	2.5	/experiments/Knapen_AOT/AOT_stimuli/rescaled_final/0647_fw.mp4	0.0	329.1738164424896	
74	312.42178750038147	fix_post	2		12	72.0	2.5	/experiments/Knapen_AOT/AOT_stimuli/rescaled_final/0647_fw.mp4	0.0	330.08189392089844	0.09998083114624023
75	312.5217683315277	fix_pre	0		120	73.0	2.5	/experiments/Knapen_AOT/AOT_stimuli/rescaled_final/0054_fw.mp4	0.0	330.1818747520447	1.008434772491455
75	313.10548424720764	pulse	0	t		73.0	2.5	/experiments/Knapen_AOT/AOT_stimuli/rescaled_final/0054_fw.mp4	0.0	330.7655906677246	
75	313.53020310401917	movie	1		288	73.0	2.5	/experiments/Knapen_AOT/AOT_stimuli/rescaled_final/0054_fw.mp4	0.0	331.19030952453613	2.4921064376831055
75	314.70562386512756	pulse	1	t		73.0	2.5	/experiments/Knapen_AOT/AOT_stimuli/rescaled_final/0054_fw.mp4	0.0	332.36573028564453	
75	316.02230954170227	fix_post	2		12	73.0	2.5	/experiments/Knapen_AOT/AOT_stimuli/rescaled_final/0054_fw.mp4	0.0	333.68241596221924	0.09998655319213867
76	316.1222960948944	fix_pre	0		120	74.0	2.5	/experiments/Knapen_AOT/AOT_stimuli/rescaled_final/0744_fw.mp4	0.0	333.7824025154114	1.008486032485962
76	316.30591440200806	pulse	0	t		74.0	2.5	/experiments/Knapen_AOT/AOT_stimuli/rescaled_final/0744_fw.mp4	0.0	333.966020822525	
76	317.13078212738037	movie	1		288	74.0	2.5	/experiments/Knapen_AOT/AOT_stimuli/rescaled_final/0744_fw.mp4	0.0	334.79088854789734	2.49202823638916
76	317.90634655952454	pulse	1	t		74.0	2.5	/experiments/Knapen_AOT/AOT_stimuli/rescaled_final/0744_fw.mp4	0.0	335.5664529800415	
76	319.5063157081604	pulse	1	t		74.0	2.5	/experiments/Knapen_AOT/AOT_stimuli/rescaled_final/0744_fw.mp4	0.0	337.16642212867737	
76	319.62281036376953	fix_post	2		12	74.0	2.5	/experiments/Knapen_AOT/AOT_stimuli/rescaled_final/0744_fw.mp4	0.0	337.2829167842865	0.10002303123474121
77	319.7228333950043	fix_pre	0		120	75.0	2.5	blank	1.0	337.38293981552124	1.0001630783081055
77	320.7229964733124	movie	1		300	75.0	2.5	blank	1.0	338.38310289382935	2.500365972518921
77	321.1065812110901	pulse	1	t		75.0	2.5	blank	1.0	338.76668763160706	
77	322.7072114944458	pulse	1	t		75.0	2.5	blank	1.0	340.36731791496277	
77	323.2233624458313	fix_post	2		12	75.0	2.5	blank	1.0	340.88346886634827	0.10005712509155273
78	323.32341957092285	fix_pre	0		119	76.0	2.5	/experiments/Knapen_AOT/AOT_stimuli/rescaled_final/0809_fw.mp4	0.0	340.9835259914398	1.0001249313354492
78	324.30702471733093	pulse	0	t		76.0	2.5	/experiments/Knapen_AOT/AOT_stimuli/rescaled_final/0809_fw.mp4	0.0	341.9671311378479	
78	324.3235445022583	movie	1		282	76.0	2.5	/experiments/Knapen_AOT/AOT_stimuli/rescaled_final/0809_fw.mp4	0.0	341.98365092277527	2.500396728515625
78	325.9056570529938	pulse	1	t		76.0	2.5	/experiments/Knapen_AOT/AOT_stimuli/rescaled_final/0809_fw.mp4	0.0	343.56576347351074	
78	326.8239412307739	fix_post	2		12	76.0	2.5	/experiments/Knapen_AOT/AOT_stimuli/rescaled_final/0809_fw.mp4	0.0	344.4840476512909	0.10002732276916504
79	326.9239685535431	fix_pre	0		120	77.0	2.5	/experiments/Knapen_AOT/AOT_stimuli/rescaled_final/1172_fw.mp4	0.0	344.58407497406006	1.0084123611450195
79	327.5075900554657	pulse	0	t		77.0	2.5	/experiments/Knapen_AOT/AOT_stimuli/rescaled_final/1172_fw.mp4	0.0	345.16769647598267	
79	327.9323809146881	movie	1		287	77.0	2.5	/experiments/Knapen_AOT/AOT_stimuli/rescaled_final/1172_fw.mp4	0.0	345.5924873352051	2.4922173023223877
79	329.1061222553253	pulse	1	t		77.0	2.5	/experiments/Knapen_AOT/AOT_stimuli/rescaled_final/1172_fw.mp4	0.0	346.7662286758423	
79	330.4245982170105	fix_post	2		12	77.0	2.5	/experiments/Knapen_AOT/AOT_stimuli/rescaled_final/1172_fw.mp4	0.0	348.08470463752747	0.09989261627197266
80	330.52449083328247	fix_pre	0		120	78.0	2.5	/experiments/Knapen_AOT/AOT_stimuli/rescaled_final/1294_fw.mp4	0.0	348.18459725379944	1.0084562301635742
80	330.70802330970764	pulse	0	t		78.0	2.5	/experiments/Knapen_AOT/AOT_stimuli/rescaled_final/1294_fw.mp4	0.0	348.3681297302246	
80	331.53294706344604	movie	1		275	78.0	2.5	/experiments/Knapen_AOT/AOT_stimuli/rescaled_final/1294_fw.mp4	0.0	349.193053483963	2.492023468017578
80	332.3062832355499	pulse	1	t		78.0	2.5	/experiments/Knapen_AOT/AOT_stimuli/rescaled_final/1294_fw.mp4	0.0	349.9663896560669	
80	333.9090003967285	pulse	1	t		78.0	2.5	/experiments/Knapen_AOT/AOT_stimuli/rescaled_final/1294_fw.mp4	0.0	351.5691068172455	
80	334.0249705314636	fix_post	2		12	78.0	2.5	/experiments/Knapen_AOT/AOT_stimuli/rescaled_final/1294_fw.mp4	0.0	351.6850769519806	0.1000056266784668
81	334.1249761581421	fix_pre	0		120	79.0	2.5	/experiments/Knapen_AOT/AOT_stimuli/rescaled_final/1941_fw.mp4	0.0	351.78508257865906	1.0085477828979492
81	335.13352394104004	movie	1		274	79.0	2.5	/experiments/Knapen_AOT/AOT_stimuli/rescaled_final/1941_fw.mp4	0.0	352.793630361557	2.4920263290405273
81	335.5072093009949	pulse	1	t		79.0	2.5	/experiments/Knapen_AOT/AOT_stimuli/rescaled_final/1941_fw.mp4	0.0	353.16731572151184	
81	337.1071310043335	pulse	1	t		79.0	2.5	/experiments/Knapen_AOT/AOT_stimuli/rescaled_final/1941_fw.mp4	0.0	354.76723742485046	
81	337.62555027008057	fix_post	2		12	79.0	2.5	/experiments/Knapen_AOT/AOT_stimuli/rescaled_final/1941_fw.mp4	0.0	355.28565669059753	0.10002517700195312
82	337.7255754470825	fix_pre	0		119	80.0	2.5	/experiments/Knapen_AOT/AOT_stimuli/rescaled_final/1696_fw.mp4	0.0	355.3856818675995	1.0001070499420166
82	338.7095057964325	pulse	0	t		80.0	2.5	/experiments/Knapen_AOT/AOT_stimuli/rescaled_final/1696_fw.mp4	0.0	356.36961221694946	
82	338.72568249702454	movie	1		266	80.0	2.5	/experiments/Knapen_AOT/AOT_stimuli/rescaled_final/1696_fw.mp4	0.0	356.3857889175415	2.5004236698150635
82	340.30816674232483	pulse	1	t		80.0	2.5	/experiments/Knapen_AOT/AOT_stimuli/rescaled_final/1696_fw.mp4	0.0	357.9682731628418	
82	341.2261061668396	fix_post	2		12	80.0	2.5	/experiments/Knapen_AOT/AOT_stimuli/rescaled_final/1696_fw.mp4	0.0	358.88621258735657	0.10001254081726074
83	341.32611870765686	fix_pre	0		120	81.0	2.5	/experiments/Knapen_AOT/AOT_stimuli/rescaled_final/0846_fw.mp4	0.0	358.9862251281738	1.0084865093231201
83	341.90972924232483	pulse	0	t		81.0	2.5	/experiments/Knapen_AOT/AOT_stimuli/rescaled_final/0846_fw.mp4	0.0	359.5698356628418	
83	342.33460521698	movie	1		283	81.0	2.5	/experiments/Knapen_AOT/AOT_stimuli/rescaled_final/0846_fw.mp4	0.0	359.99471163749695	2.4920010566711426
83	343.5084149837494	pulse	1	t		81.0	2.5	/experiments/Knapen_AOT/AOT_stimuli/rescaled_final/0846_fw.mp4	0.0	361.16852140426636	
83	344.8266062736511	fix_post	2		12	81.0	2.5	/experiments/Knapen_AOT/AOT_stimuli/rescaled_final/0846_fw.mp4	0.0	362.4867126941681	0.10000944137573242
84	344.92661571502686	fix_pre	0		120	82.0	2.5	/experiments/Knapen_AOT/AOT_stimuli/rescaled_final/1676_fw.mp4	0.0	362.5867221355438	1.00852632522583
84	345.1102430820465	pulse	0	t		82.0	2.5	/experiments/Knapen_AOT/AOT_stimuli/rescaled_final/1676_fw.mp4	0.0	362.7703495025635	
84	345.9351420402527	movie	1		277	82.0	2.5	/experiments/Knapen_AOT/AOT_stimuli/rescaled_final/1676_fw.mp4	0.0	363.59524846076965	2.4919939041137695
84	346.70869874954224	pulse	1	t		82.0	2.5	/experiments/Knapen_AOT/AOT_stimuli/rescaled_final/1676_fw.mp4	0.0	364.3688051700592	
84	348.3087954521179	pulse	1	t		82.0	2.5	/experiments/Knapen_AOT/AOT_stimuli/rescaled_final/1676_fw.mp4	0.0	365.9689018726349	
84	348.42713594436646	fix_post	2		12	82.0	2.5	/experiments/Knapen_AOT/AOT_stimuli/rescaled_final/1676_fw.mp4	0.0	366.0872423648834	0.10006928443908691
85	348.52720522880554	fix_pre	0		120	83.0	2.5	blank	1.0	366.1873116493225	1.0001251697540283
85	349.52733039855957	movie	1		300	83.0	2.5	blank	1.0	367.18743681907654	2.5003974437713623
85	349.91088223457336	pulse	1	t		83.0	2.5	blank	1.0	367.57098865509033	
85	351.5111999511719	pulse	1	t		83.0	2.5	blank	1.0	369.17130637168884	
85	352.02772784233093	fix_post	2		12	83.0	2.5	blank	1.0	369.6878342628479	0.10000443458557129
87	352.1277322769165	stim	0		1716					369.7878386974335	14.302307605743408
87	353.1115071773529	pulse	0	t						370.7716135978699	
87	354.71168780326843	pulse	0	t						372.3717942237854	
87	356.3118689060211	pulse	0	t						373.9719753265381	
87	357.9121699333191	pulse	0	t						375.57227635383606	
87	359.51270389556885	pulse	0	t						377.1728103160858	
87	361.1125843524933	pulse	0	t						378.77269077301025	
87	362.7052206993103	pulse	0	t						380.36532711982727	
87	364.30548572540283	pulse	0	t						381.9655921459198	
87	365.9058463573456	pulse	0	t						383.56595277786255	
