trial_nr	onset	event_type	phase	response	nr_frames	movie_index	movie_duration	movie_file	blank	onset_abs	duration
0	0.1580829620361328	stim	0		200					16.84818196296692	1.6668777465820312
0	1.8167095184326172	response	0	space						18.506808519363403	
1	1.824960708618164	stim	0		8779					18.51505970954895	73.18212270736694
1	74.99248099327087	pulse	0	t						91.68257999420166	
1	75.00708341598511	stim	1		1714					91.6971824169159	14.297731876373291
1	76.58643794059753	pulse	1	t						93.27653694152832	
1	78.18673992156982	pulse	1	t						94.87683892250061	
1	79.78712153434753	pulse	1	t						96.47722053527832	
1	81.38721442222595	pulse	1	t						98.07731342315674	
1	82.98768091201782	pulse	1	t						99.67777991294861	
1	84.58772730827332	pulse	1	t						101.2778263092041	
1	86.18811321258545	pulse	1	t						102.87821221351624	
1	87.7880494594574	pulse	1	t						104.47814846038818	
2	89.3048152923584	fix_pre	0		11	0.0	2.5	/experiments/Knapen_AOT/AOT_stimuli/rescaled_final/2033_rv.mp4	0.0	105.99491429328918	0.10841488838195801
2	89.38850951194763	pulse	0	t		0.0	2.5	/experiments/Knapen_AOT/AOT_stimuli/rescaled_final/2033_rv.mp4	0.0	106.07860851287842	
2	89.41323018074036	movie	1		280	0.0	2.5	/experiments/Knapen_AOT/AOT_stimuli/rescaled_final/2033_rv.mp4	0.0	106.10332918167114	2.492034912109375
2	90.98703193664551	pulse	1	t		0.0	2.5	/experiments/Knapen_AOT/AOT_stimuli/rescaled_final/2033_rv.mp4	0.0	107.6771309375763	
2	91.90526509284973	fix_post	2		12	0.0	2.5	/experiments/Knapen_AOT/AOT_stimuli/rescaled_final/2033_rv.mp4	0.0	108.59536409378052	0.09996891021728516
3	92.00523400306702	fix_pre	0		120	1.0	2.5	/experiments/Knapen_AOT/AOT_stimuli/rescaled_final/0455_fw.mp4	0.0	108.6953330039978	1.0084633827209473
3	92.5888078212738	pulse	0	t		1.0	2.5	/experiments/Knapen_AOT/AOT_stimuli/rescaled_final/0455_fw.mp4	0.0	109.27890682220459	
3	93.01369738578796	movie	1		288	1.0	2.5	/experiments/Knapen_AOT/AOT_stimuli/rescaled_final/0455_fw.mp4	0.0	109.70379638671875	2.492205858230591
3	94.18752145767212	pulse	1	t		1.0	2.5	/experiments/Knapen_AOT/AOT_stimuli/rescaled_final/0455_fw.mp4	0.0	110.8776204586029	
3	95.50590324401855	fix_post	2		12	1.0	2.5	/experiments/Knapen_AOT/AOT_stimuli/rescaled_final/0455_fw.mp4	0.0	112.19600224494934	0.0998384952545166
4	95.60574173927307	fix_pre	0		120	2.0	2.5	/experiments/Knapen_AOT/AOT_stimuli/rescaled_final/0193_fw.mp4	0.0	112.29584074020386	1.008474588394165
4	95.78140497207642	pulse	0	t		2.0	2.5	/experiments/Knapen_AOT/AOT_stimuli/rescaled_final/0193_fw.mp4	0.0	112.4715039730072	
4	96.61421632766724	movie	1		275	2.0	2.5	/experiments/Knapen_AOT/AOT_stimuli/rescaled_final/0193_fw.mp4	0.0	113.30431532859802	2.492098331451416
4	97.38175559043884	pulse	1	t		2.0	2.5	/experiments/Knapen_AOT/AOT_stimuli/rescaled_final/0193_fw.mp4	0.0	114.07185459136963	
4	98.98155522346497	pulse	1	t		2.0	2.5	/experiments/Knapen_AOT/AOT_stimuli/rescaled_final/0193_fw.mp4	0.0	115.67165422439575	
4	99.10631465911865	fix_post	2		12	2.0	2.5	/experiments/Knapen_AOT/AOT_stimuli/rescaled_final/0193_fw.mp4	0.0	115.79641366004944	0.09998607635498047
5	99.20630073547363	fix_pre	0		120	3.0	2.5	/experiments/Knapen_AOT/AOT_stimuli/rescaled_final/1334_rv.mp4	0.0	115.89639973640442	1.008446455001831
5	100.21474719047546	movie	1		288	3.0	2.5	/experiments/Knapen_AOT/AOT_stimuli/rescaled_final/1334_rv.mp4	0.0	116.90484619140625	2.4920494556427
5	100.581698179245	pulse	1	t		3.0	2.5	/experiments/Knapen_AOT/AOT_stimuli/rescaled_final/1334_rv.mp4	0.0	117.27179718017578	
5	102.18204593658447	pulse	1	t		3.0	2.5	/experiments/Knapen_AOT/AOT_stimuli/rescaled_final/1334_rv.mp4	0.0	118.87214493751526	
5	102.70679664611816	fix_post	2		12	3.0	2.5	/experiments/Knapen_AOT/AOT_stimuli/rescaled_final/1334_rv.mp4	0.0	119.39689564704895	0.10001516342163086
6	102.8068118095398	fix_pre	0		118	4.0	2.5	/experiments/Knapen_AOT/AOT_stimuli/rescaled_final/1946_rv.mp4	0.0	119.49691081047058	0.9918603897094727
6	103.7821877002716	pulse	0	t		4.0	2.5	/experiments/Knapen_AOT/AOT_stimuli/rescaled_final/1946_rv.mp4	0.0	120.47228670120239	
6	103.79867219924927	movie	1		288	4.0	2.5	/experiments/Knapen_AOT/AOT_stimuli/rescaled_final/1946_rv.mp4	0.0	120.48877120018005	2.5003294944763184
6	105.38138508796692	pulse	1	t		4.0	2.5	/experiments/Knapen_AOT/AOT_stimuli/rescaled_final/1946_rv.mp4	0.0	122.0714840888977	
6	106.29900169372559	fix_post	2		12	4.0	2.5	/experiments/Knapen_AOT/AOT_stimuli/rescaled_final/1946_rv.mp4	0.0	122.98910069465637	0.1000063419342041
7	106.39900803565979	fix_pre	0		120	5.0	2.5	blank	1.0	123.08910703659058	1.0001535415649414
7	106.98276948928833	pulse	0	t		5.0	2.5	blank	1.0	123.67286849021912	
7	107.39916157722473	movie	1		300	5.0	2.5	blank	1.0	124.08926057815552	2.500380039215088
7	108.5829586982727	pulse	1	t		5.0	2.5	blank	1.0	125.27305769920349	
7	109.89954161643982	fix_post	2		12	5.0	2.5	blank	1.0	126.5896406173706	0.10012650489807129
8	109.99966812133789	fix_pre	0		120	6.0	2.5	/experiments/Knapen_AOT/AOT_stimuli/rescaled_final/1501_fw.mp4	0.0	126.68976712226868	1.0083861351013184
8	110.18314528465271	pulse	0	t		6.0	2.5	/experiments/Knapen_AOT/AOT_stimuli/rescaled_final/1501_fw.mp4	0.0	126.8732442855835	
8	111.00805425643921	movie	1		280	6.0	2.5	/experiments/Knapen_AOT/AOT_stimuli/rescaled_final/1501_fw.mp4	0.0	127.69815325737	2.4920077323913574
8	111.78137707710266	pulse	1	t		6.0	2.5	/experiments/Knapen_AOT/AOT_stimuli/rescaled_final/1501_fw.mp4	0.0	128.47147607803345	
8	113.38157916069031	pulse	1	t		6.0	2.5	/experiments/Knapen_AOT/AOT_stimuli/rescaled_final/1501_fw.mp4	0.0	130.0716781616211	
8	113.50006198883057	fix_post	2		12	6.0	2.5	/experiments/Knapen_AOT/AOT_stimuli/rescaled_final/1501_fw.mp4	0.0	130.19016098976135	0.1000370979309082
9	113.60009908676147	fix_pre	0		120	7.0	2.5	/experiments/Knapen_AOT/AOT_stimuli/rescaled_final/0325_rv.mp4	0.0	130.29019808769226	1.0085277557373047
9	114.60862684249878	movie	1		282	7.0	2.5	/experiments/Knapen_AOT/AOT_stimuli/rescaled_final/0325_rv.mp4	0.0	131.29872584342957	2.492001533508301
9	114.98386335372925	pulse	1	t		7.0	2.5	/experiments/Knapen_AOT/AOT_stimuli/rescaled_final/0325_rv.mp4	0.0	131.67396235466003	
9	116.58210015296936	pulse	1	t		7.0	2.5	/experiments/Knapen_AOT/AOT_stimuli/rescaled_final/0325_rv.mp4	0.0	133.27219915390015	
9	117.10062837600708	fix_post	2		12	7.0	2.5	/experiments/Knapen_AOT/AOT_stimuli/rescaled_final/0325_rv.mp4	0.0	133.79072737693787	0.10002565383911133
10	117.20065402984619	fix_pre	0		119	8.0	2.5	/experiments/Knapen_AOT/AOT_stimuli/rescaled_final/0806_fw.mp4	0.0	133.89075303077698	1.0002055168151855
10	118.18435144424438	pulse	0	t		8.0	2.5	/experiments/Knapen_AOT/AOT_stimuli/rescaled_final/0806_fw.mp4	0.0	134.87445044517517	
10	118.20085954666138	movie	1		276	8.0	2.5	/experiments/Knapen_AOT/AOT_stimuli/rescaled_final/0806_fw.mp4	0.0	134.89095854759216	2.500429391860962
10	119.78328704833984	pulse	1	t		8.0	2.5	/experiments/Knapen_AOT/AOT_stimuli/rescaled_final/0806_fw.mp4	0.0	136.47338604927063	
10	120.70128893852234	fix_post	2		12	8.0	2.5	/experiments/Knapen_AOT/AOT_stimuli/rescaled_final/0806_fw.mp4	0.0	137.39138793945312	0.0998985767364502
11	120.80118751525879	fix_pre	0		120	9.0	2.5	/experiments/Knapen_AOT/AOT_stimuli/rescaled_final/0289_rv.mp4	0.0	137.49128651618958	1.0085728168487549
11	121.38479208946228	pulse	0	t		9.0	2.5	/experiments/Knapen_AOT/AOT_stimuli/rescaled_final/0289_rv.mp4	0.0	138.07489109039307	
11	121.80976033210754	movie	1		269	9.0	2.5	/experiments/Knapen_AOT/AOT_stimuli/rescaled_final/0289_rv.mp4	0.0	138.49985933303833	2.491950273513794
11	122.98462438583374	pulse	1	t		9.0	2.5	/experiments/Knapen_AOT/AOT_stimuli/rescaled_final/0289_rv.mp4	0.0	139.67472338676453	
11	124.30171060562134	fix_post	2		12	9.0	2.5	/experiments/Knapen_AOT/AOT_stimuli/rescaled_final/0289_rv.mp4	0.0	140.99180960655212	0.1000216007232666
12	124.4017322063446	fix_pre	0		120	10.0	2.5	/experiments/Knapen_AOT/AOT_stimuli/rescaled_final/0179_rv.mp4	0.0	141.0918312072754	1.0085365772247314
12	124.58531832695007	pulse	0	t		10.0	2.5	/experiments/Knapen_AOT/AOT_stimuli/rescaled_final/0179_rv.mp4	0.0	141.27541732788086	
12	125.41026878356934	movie	1		275	10.0	2.5	/experiments/Knapen_AOT/AOT_stimuli/rescaled_final/0179_rv.mp4	0.0	142.10036778450012	2.492114782333374
12	126.18362879753113	pulse	1	t		10.0	2.5	/experiments/Knapen_AOT/AOT_stimuli/rescaled_final/0179_rv.mp4	0.0	142.8737277984619	
12	127.78370809555054	pulse	1	t		10.0	2.5	/experiments/Knapen_AOT/AOT_stimuli/rescaled_final/0179_rv.mp4	0.0	144.47380709648132	
12	127.90238356590271	fix_post	2		12	10.0	2.5	/experiments/Knapen_AOT/AOT_stimuli/rescaled_final/0179_rv.mp4	0.0	144.5924825668335	0.09987115859985352
13	128.00225472450256	fix_pre	0		120	11.0	2.5	/experiments/Knapen_AOT/AOT_stimuli/rescaled_final/1960_rv.mp4	0.0	144.69235372543335	1.0084991455078125
13	129.01075387001038	movie	1		277	11.0	2.5	/experiments/Knapen_AOT/AOT_stimuli/rescaled_final/1960_rv.mp4	0.0	145.70085287094116	2.4920594692230225
13	129.38427352905273	pulse	1	t		11.0	2.5	/experiments/Knapen_AOT/AOT_stimuli/rescaled_final/1960_rv.mp4	0.0	146.07437252998352	
13	130.98458433151245	pulse	1	t		11.0	2.5	/experiments/Knapen_AOT/AOT_stimuli/rescaled_final/1960_rv.mp4	0.0	147.67468333244324	
13	131.5028133392334	fix_post	2		12	11.0	2.5	/experiments/Knapen_AOT/AOT_stimuli/rescaled_final/1960_rv.mp4	0.0	148.19291234016418	0.09999704360961914
14	131.60281038284302	fix_pre	0		119	12.0	2.5	/experiments/Knapen_AOT/AOT_stimuli/rescaled_final/2031_rv.mp4	0.0	148.2929093837738	1.0001418590545654
14	132.58646893501282	pulse	0	t		12.0	2.5	/experiments/Knapen_AOT/AOT_stimuli/rescaled_final/2031_rv.mp4	0.0	149.2765679359436	
14	132.60295224189758	movie	1		283	12.0	2.5	/experiments/Knapen_AOT/AOT_stimuli/rescaled_final/2031_rv.mp4	0.0	149.29305124282837	2.5003817081451416
14	134.1865963935852	pulse	1	t		12.0	2.5	/experiments/Knapen_AOT/AOT_stimuli/rescaled_final/2031_rv.mp4	0.0	150.876695394516	
14	135.10333395004272	fix_post	2		12	12.0	2.5	/experiments/Knapen_AOT/AOT_stimuli/rescaled_final/2031_rv.mp4	0.0	151.7934329509735	0.10006523132324219
15	135.20339918136597	fix_pre	0		120	13.0	2.5	/experiments/Knapen_AOT/AOT_stimuli/rescaled_final/1766_fw.mp4	0.0	151.89349818229675	1.0084209442138672
15	135.78695940971375	pulse	0	t		13.0	2.5	/experiments/Knapen_AOT/AOT_stimuli/rescaled_final/1766_fw.mp4	0.0	152.47705841064453	
15	136.21182012557983	movie	1		285	13.0	2.5	/experiments/Knapen_AOT/AOT_stimuli/rescaled_final/1766_fw.mp4	0.0	152.90191912651062	2.492072820663452
15	137.3885133266449	pulse	1	t		13.0	2.5	/experiments/Knapen_AOT/AOT_stimuli/rescaled_final/1766_fw.mp4	0.0	154.07861232757568	
15	138.7038929462433	fix_post	2		12	13.0	2.5	/experiments/Knapen_AOT/AOT_stimuli/rescaled_final/1766_fw.mp4	0.0	155.39399194717407	0.10001087188720703
16	138.8039038181305	fix_pre	0		120	14.0	2.5	blank	1.0	155.49400281906128	1.000122308731079
16	138.9874529838562	pulse	0	t		14.0	2.5	blank	1.0	155.677551984787	
16	139.80402612686157	movie	1		300	14.0	2.5	blank	1.0	156.49412512779236	2.5003790855407715
16	140.58769369125366	pulse	1	t		14.0	2.5	blank	1.0	157.27779269218445	
16	142.18800854682922	pulse	1	t		14.0	2.5	blank	1.0	158.87810754776	
16	142.30440521240234	fix_post	2		12	14.0	2.5	blank	1.0	158.99450421333313	0.10003185272216797
17	142.4044370651245	fix_pre	0		120	15.0	2.5	/experiments/Knapen_AOT/AOT_stimuli/rescaled_final/0504_rv.mp4	0.0	159.0945360660553	1.0084896087646484
17	143.41292667388916	movie	1		283	15.0	2.5	/experiments/Knapen_AOT/AOT_stimuli/rescaled_final/0504_rv.mp4	0.0	160.10302567481995	2.4920177459716797
17	143.78658056259155	pulse	1	t		15.0	2.5	/experiments/Knapen_AOT/AOT_stimuli/rescaled_final/0504_rv.mp4	0.0	160.47667956352234	
17	145.3884859085083	pulse	1	t		15.0	2.5	/experiments/Knapen_AOT/AOT_stimuli/rescaled_final/0504_rv.mp4	0.0	162.0785849094391	
17	145.90494441986084	fix_post	2		12	15.0	2.5	/experiments/Knapen_AOT/AOT_stimuli/rescaled_final/0504_rv.mp4	0.0	162.59504342079163	0.10003423690795898
18	146.0049786567688	fix_pre	0		119	16.0	2.5	/experiments/Knapen_AOT/AOT_stimuli/rescaled_final/0128_fw.mp4	0.0	162.69507765769958	1.0001485347747803
18	146.98870515823364	pulse	0	t		16.0	2.5	/experiments/Knapen_AOT/AOT_stimuli/rescaled_final/0128_fw.mp4	0.0	163.67880415916443	
18	147.00512719154358	movie	1		286	16.0	2.5	/experiments/Knapen_AOT/AOT_stimuli/rescaled_final/0128_fw.mp4	0.0	163.69522619247437	2.5003552436828613
18	148.58746194839478	pulse	1	t		16.0	2.5	/experiments/Knapen_AOT/AOT_stimuli/rescaled_final/0128_fw.mp4	0.0	165.27756094932556	
18	149.50548243522644	fix_post	2		12	16.0	2.5	/experiments/Knapen_AOT/AOT_stimuli/rescaled_final/0128_fw.mp4	0.0	166.19558143615723	0.10004496574401855
19	149.60552740097046	fix_pre	0		120	17.0	2.5	/experiments/Knapen_AOT/AOT_stimuli/rescaled_final/1240_rv.mp4	0.0	166.29562640190125	1.008460283279419
19	150.18912386894226	pulse	0	t		17.0	2.5	/experiments/Knapen_AOT/AOT_stimuli/rescaled_final/1240_rv.mp4	0.0	166.87922286987305	
19	150.61398768424988	movie	1		264	17.0	2.5	/experiments/Knapen_AOT/AOT_stimuli/rescaled_final/1240_rv.mp4	0.0	167.30408668518066	2.4921627044677734
19	151.78768181800842	pulse	1	t		17.0	2.5	/experiments/Knapen_AOT/AOT_stimuli/rescaled_final/1240_rv.mp4	0.0	168.4777808189392	
19	153.10615038871765	fix_post	2		12	17.0	2.5	/experiments/Knapen_AOT/AOT_stimuli/rescaled_final/1240_rv.mp4	0.0	169.79624938964844	0.0999608039855957
20	153.20611119270325	fix_pre	0		120	18.0	2.5	/experiments/Knapen_AOT/AOT_stimuli/rescaled_final/0428_rv.mp4	0.0	169.89621019363403	1.0084435939788818
20	153.38196229934692	pulse	0	t		18.0	2.5	/experiments/Knapen_AOT/AOT_stimuli/rescaled_final/0428_rv.mp4	0.0	170.0720613002777	
20	154.21455478668213	movie	1		282	18.0	2.5	/experiments/Knapen_AOT/AOT_stimuli/rescaled_final/0428_rv.mp4	0.0	170.90465378761292	2.492011785507202
20	154.98181557655334	pulse	1	t		18.0	2.5	/experiments/Knapen_AOT/AOT_stimuli/rescaled_final/0428_rv.mp4	0.0	171.67191457748413	
20	156.58184552192688	pulse	1	t		18.0	2.5	/experiments/Knapen_AOT/AOT_stimuli/rescaled_final/0428_rv.mp4	0.0	173.27194452285767	
20	156.70656657218933	fix_post	2		12	18.0	2.5	/experiments/Knapen_AOT/AOT_stimuli/rescaled_final/0428_rv.mp4	0.0	173.39666557312012	0.10014700889587402
21	156.8067135810852	fix_pre	0		120	19.0	2.5	/experiments/Knapen_AOT/AOT_stimuli/rescaled_final/1689_fw.mp4	0.0	173.496812582016	1.008446455001831
21	157.81516003608704	movie	1		279	19.0	2.5	/experiments/Knapen_AOT/AOT_stimuli/rescaled_final/1689_fw.mp4	0.0	174.50525903701782	2.4919931888580322
21	158.18212485313416	pulse	1	t		19.0	2.5	/experiments/Knapen_AOT/AOT_stimuli/rescaled_final/1689_fw.mp4	0.0	174.87222385406494	
21	159.78208875656128	pulse	1	t		19.0	2.5	/experiments/Knapen_AOT/AOT_stimuli/rescaled_final/1689_fw.mp4	0.0	176.47218775749207	
21	160.30715322494507	fix_post	2		12	19.0	2.5	/experiments/Knapen_AOT/AOT_stimuli/rescaled_final/1689_fw.mp4	0.0	176.99725222587585	0.0999748706817627
22	160.40712809562683	fix_pre	0		118	20.0	2.5	blank	1.0	177.09722709655762	0.9834802150726318
22	161.3825421333313	pulse	0	t		20.0	2.5	blank	1.0	178.07264113426208	
22	161.39060831069946	movie	1		301	20.0	2.5	blank	1.0	178.08070731163025	2.5087943077087402
22	162.9827778339386	pulse	1	t		20.0	2.5	blank	1.0	179.67287683486938	
22	163.8994026184082	fix_post	2		12	20.0	2.5	blank	1.0	180.589501619339	0.09994626045227051
23	163.99934887886047	fix_pre	0		120	21.0	2.5	/experiments/Knapen_AOT/AOT_stimuli/rescaled_final/0035_fw.mp4	0.0	180.68944787979126	1.0084383487701416
23	164.58315896987915	pulse	0	t		21.0	2.5	/experiments/Knapen_AOT/AOT_stimuli/rescaled_final/0035_fw.mp4	0.0	181.27325797080994	
23	165.00778722763062	movie	1		275	21.0	2.5	/experiments/Knapen_AOT/AOT_stimuli/rescaled_final/0035_fw.mp4	0.0	181.6978862285614	2.4921019077301025
23	166.18366599082947	pulse	1	t		21.0	2.5	/experiments/Knapen_AOT/AOT_stimuli/rescaled_final/0035_fw.mp4	0.0	182.87376499176025	
23	167.49988913536072	fix_post	2		12	21.0	2.5	/experiments/Knapen_AOT/AOT_stimuli/rescaled_final/0035_fw.mp4	0.0	184.1899881362915	0.09999656677246094
24	167.59988570213318	fix_pre	0		120	22.0	2.5	/experiments/Knapen_AOT/AOT_stimuli/rescaled_final/0838_rv.mp4	0.0	184.28998470306396	1.008512020111084
24	167.7834987640381	pulse	0	t		22.0	2.5	/experiments/Knapen_AOT/AOT_stimuli/rescaled_final/0838_rv.mp4	0.0	184.47359776496887	
24	168.60839772224426	movie	1		275	22.0	2.5	/experiments/Knapen_AOT/AOT_stimuli/rescaled_final/0838_rv.mp4	0.0	185.29849672317505	2.4920077323913574
24	169.3826129436493	pulse	1	t		22.0	2.5	/experiments/Knapen_AOT/AOT_stimuli/rescaled_final/0838_rv.mp4	0.0	186.07271194458008	
24	170.98206734657288	pulse	1	t		22.0	2.5	/experiments/Knapen_AOT/AOT_stimuli/rescaled_final/0838_rv.mp4	0.0	187.67216634750366	
24	171.10040545463562	fix_post	2		12	22.0	2.5	/experiments/Knapen_AOT/AOT_stimuli/rescaled_final/0838_rv.mp4	0.0	187.7905044555664	0.10001158714294434
25	171.20041704177856	fix_pre	0		120	23.0	2.5	/experiments/Knapen_AOT/AOT_stimuli/rescaled_final/0970_rv.mp4	0.0	187.89051604270935	1.0085368156433105
25	172.20895385742188	movie	1		275	23.0	2.5	/experiments/Knapen_AOT/AOT_stimuli/rescaled_final/0970_rv.mp4	0.0	188.89905285835266	2.4920051097869873
25	172.582439661026	pulse	1	t		23.0	2.5	/experiments/Knapen_AOT/AOT_stimuli/rescaled_final/0970_rv.mp4	0.0	189.2725386619568	
25	174.18274068832397	pulse	1	t		23.0	2.5	/experiments/Knapen_AOT/AOT_stimuli/rescaled_final/0970_rv.mp4	0.0	190.87283968925476	
25	174.70095896720886	fix_post	2		12	23.0	2.5	/experiments/Knapen_AOT/AOT_stimuli/rescaled_final/0970_rv.mp4	0.0	191.39105796813965	0.10000801086425781
26	174.80096697807312	fix_pre	0		119	24.0	2.5	/experiments/Knapen_AOT/AOT_stimuli/rescaled_final/1837_fw.mp4	0.0	191.4910659790039	1.0002186298370361
26	175.78464269638062	pulse	0	t		24.0	2.5	/experiments/Knapen_AOT/AOT_stimuli/rescaled_final/1837_fw.mp4	0.0	192.4747416973114	
26	175.80118560791016	movie	1		284	24.0	2.5	/experiments/Knapen_AOT/AOT_stimuli/rescaled_final/1837_fw.mp4	0.0	192.49128460884094	2.5003089904785156
26	177.3845133781433	pulse	1	t		24.0	2.5	/experiments/Knapen_AOT/AOT_stimuli/rescaled_final/1837_fw.mp4	0.0	194.0746123790741	
26	178.30149459838867	fix_post	2		12	24.0	2.5	/experiments/Knapen_AOT/AOT_stimuli/rescaled_final/1837_fw.mp4	0.0	194.99159359931946	0.09999632835388184
27	178.40149092674255	fix_pre	0		120	25.0	2.5	/experiments/Knapen_AOT/AOT_stimuli/rescaled_final/1350_rv.mp4	0.0	195.09158992767334	1.0085043907165527
27	178.9852454662323	pulse	0	t		25.0	2.5	/experiments/Knapen_AOT/AOT_stimuli/rescaled_final/1350_rv.mp4	0.0	195.6753444671631	
27	179.4099953174591	movie	1		282	25.0	2.5	/experiments/Knapen_AOT/AOT_stimuli/rescaled_final/1350_rv.mp4	0.0	196.1000943183899	2.4920716285705566
27	180.583811044693	pulse	1	t		25.0	2.5	/experiments/Knapen_AOT/AOT_stimuli/rescaled_final/1350_rv.mp4	0.0	197.27391004562378	
27	181.90206694602966	fix_post	2		12	25.0	2.5	/experiments/Knapen_AOT/AOT_stimuli/rescaled_final/1350_rv.mp4	0.0	198.59216594696045	0.09998464584350586
28	182.00205159187317	fix_pre	0		120	26.0	2.5	/experiments/Knapen_AOT/AOT_stimuli/rescaled_final/0043_fw.mp4	0.0	198.69215059280396	1.0085015296936035
28	182.18569231033325	pulse	0	t		26.0	2.5	/experiments/Knapen_AOT/AOT_stimuli/rescaled_final/0043_fw.mp4	0.0	198.87579131126404	
28	183.01055312156677	movie	1		289	26.0	2.5	/experiments/Knapen_AOT/AOT_stimuli/rescaled_final/0043_fw.mp4	0.0	199.70065212249756	2.492058753967285
28	183.78390526771545	pulse	1	t		26.0	2.5	/experiments/Knapen_AOT/AOT_stimuli/rescaled_final/0043_fw.mp4	0.0	200.47400426864624	
28	185.38424611091614	pulse	1	t		26.0	2.5	/experiments/Knapen_AOT/AOT_stimuli/rescaled_final/0043_fw.mp4	0.0	202.07434511184692	
28	185.50261187553406	fix_post	2		12	26.0	2.5	/experiments/Knapen_AOT/AOT_stimuli/rescaled_final/0043_fw.mp4	0.0	202.19271087646484	0.09999465942382812
29	185.60260653495789	fix_pre	0		120	27.0	2.5	/experiments/Knapen_AOT/AOT_stimuli/rescaled_final/0838_fw.mp4	0.0	202.29270553588867	1.0084891319274902
29	186.61109566688538	movie	1		283	27.0	2.5	/experiments/Knapen_AOT/AOT_stimuli/rescaled_final/0838_fw.mp4	0.0	203.30119466781616	2.492030620574951
29	186.98472213745117	pulse	1	t		27.0	2.5	/experiments/Knapen_AOT/AOT_stimuli/rescaled_final/0838_fw.mp4	0.0	203.67482113838196	
29	188.5853807926178	pulse	1	t		27.0	2.5	/experiments/Knapen_AOT/AOT_stimuli/rescaled_final/0838_fw.mp4	0.0	205.27547979354858	
29	189.10312628746033	fix_post	2		12	27.0	2.5	/experiments/Knapen_AOT/AOT_stimuli/rescaled_final/0838_fw.mp4	0.0	205.7932252883911	0.1000208854675293
30	189.20314717292786	fix_pre	0		119	28.0	2.5	blank	1.0	205.89324617385864	0.9918100833892822
30	190.18686413764954	pulse	0	t		28.0	2.5	blank	1.0	206.87696313858032	
30	190.19495725631714	movie	1		301	28.0	2.5	blank	1.0	206.88505625724792	2.508817195892334
30	191.78702974319458	pulse	1	t		28.0	2.5	blank	1.0	208.47712874412537	
30	192.70377445220947	fix_post	2		12	28.0	2.5	blank	1.0	209.39387345314026	0.09991455078125
31	192.80368900299072	fix_pre	0		120	29.0	2.5	/experiments/Knapen_AOT/AOT_stimuli/rescaled_final/0957_fw.mp4	0.0	209.4937880039215	1.0084784030914307
31	193.38738703727722	pulse	0	t		29.0	2.5	/experiments/Knapen_AOT/AOT_stimuli/rescaled_final/0957_fw.mp4	0.0	210.077486038208	
31	193.81216740608215	movie	1		275	29.0	2.5	/experiments/Knapen_AOT/AOT_stimuli/rescaled_final/0957_fw.mp4	0.0	210.50226640701294	2.492025852203369
31	194.98792552947998	pulse	1	t		29.0	2.5	/experiments/Knapen_AOT/AOT_stimuli/rescaled_final/0957_fw.mp4	0.0	211.67802453041077	
31	196.30419325828552	fix_post	2		12	29.0	2.5	/experiments/Knapen_AOT/AOT_stimuli/rescaled_final/0957_fw.mp4	0.0	212.9942922592163	0.10000729560852051
32	196.40420055389404	fix_pre	0		120	30.0	2.5	/experiments/Knapen_AOT/AOT_stimuli/rescaled_final/1317_fw.mp4	0.0	213.09429955482483	1.008512258529663
32	196.5880789756775	pulse	0	t		30.0	2.5	/experiments/Knapen_AOT/AOT_stimuli/rescaled_final/1317_fw.mp4	0.0	213.27817797660828	
32	197.4127128124237	movie	1		278	30.0	2.5	/experiments/Knapen_AOT/AOT_stimuli/rescaled_final/1317_fw.mp4	0.0	214.1028118133545	2.4920339584350586
32	198.18631792068481	pulse	1	t		30.0	2.5	/experiments/Knapen_AOT/AOT_stimuli/rescaled_final/1317_fw.mp4	0.0	214.8764169216156	
32	199.78624534606934	pulse	1	t		30.0	2.5	/experiments/Knapen_AOT/AOT_stimuli/rescaled_final/1317_fw.mp4	0.0	216.47634434700012	
32	199.90474677085876	fix_post	2		12	30.0	2.5	/experiments/Knapen_AOT/AOT_stimuli/rescaled_final/1317_fw.mp4	0.0	216.59484577178955	0.10001325607299805
33	200.00476002693176	fix_pre	0		120	31.0	2.5	/experiments/Knapen_AOT/AOT_stimuli/rescaled_final/1166_rv.mp4	0.0	216.69485902786255	1.0086538791656494
33	201.0134139060974	movie	1		287	31.0	2.5	/experiments/Knapen_AOT/AOT_stimuli/rescaled_final/1166_rv.mp4	0.0	217.7035129070282	2.491878032684326
33	201.38785362243652	pulse	1	t		31.0	2.5	/experiments/Knapen_AOT/AOT_stimuli/rescaled_final/1166_rv.mp4	0.0	218.0779526233673	
33	202.9867341518402	pulse	1	t		31.0	2.5	/experiments/Knapen_AOT/AOT_stimuli/rescaled_final/1166_rv.mp4	0.0	219.676833152771	
33	203.50529193878174	fix_post	2		12	31.0	2.5	/experiments/Knapen_AOT/AOT_stimuli/rescaled_final/1166_rv.mp4	0.0	220.19539093971252	0.10008072853088379
34	203.60537266731262	fix_pre	0		119	32.0	2.5	/experiments/Knapen_AOT/AOT_stimuli/rescaled_final/1666_fw.mp4	0.0	220.2954716682434	1.0002000331878662
34	204.5812532901764	pulse	0	t		32.0	2.5	/experiments/Knapen_AOT/AOT_stimuli/rescaled_final/1666_fw.mp4	0.0	221.27135229110718	
34	204.6055727005005	movie	1		285	32.0	2.5	/experiments/Knapen_AOT/AOT_stimuli/rescaled_final/1666_fw.mp4	0.0	221.29567170143127	2.500244140625
34	206.18176221847534	pulse	1	t		32.0	2.5	/experiments/Knapen_AOT/AOT_stimuli/rescaled_final/1666_fw.mp4	0.0	222.87186121940613	
34	207.1058168411255	fix_post	2		12	32.0	2.5	/experiments/Knapen_AOT/AOT_stimuli/rescaled_final/1666_fw.mp4	0.0	223.79591584205627	0.10002017021179199
35	207.20583701133728	fix_pre	0		120	33.0	2.5	/experiments/Knapen_AOT/AOT_stimuli/rescaled_final/0006_fw.mp4	0.0	223.89593601226807	1.008573055267334
35	207.78125858306885	pulse	0	t		33.0	2.5	/experiments/Knapen_AOT/AOT_stimuli/rescaled_final/0006_fw.mp4	0.0	224.47135758399963	
35	208.21441006660461	movie	1		282	33.0	2.5	/experiments/Knapen_AOT/AOT_stimuli/rescaled_final/0006_fw.mp4	0.0	224.9045090675354	2.4919800758361816
35	209.38178968429565	pulse	1	t		33.0	2.5	/experiments/Knapen_AOT/AOT_stimuli/rescaled_final/0006_fw.mp4	0.0	226.07188868522644	
35	210.7063901424408	fix_post	2		12	33.0	2.5	/experiments/Knapen_AOT/AOT_stimuli/rescaled_final/0006_fw.mp4	0.0	227.39648914337158	0.10002279281616211
36	210.80641293525696	fix_pre	0		120	34.0	2.5	blank	1.0	227.49651193618774	1.0002989768981934
36	210.9817304611206	pulse	0	t		34.0	2.5	blank	1.0	227.6718294620514	
36	211.80671191215515	movie	1		300	34.0	2.5	blank	1.0	228.49681091308594	2.5001864433288574
36	212.5820574760437	pulse	1	t		34.0	2.5	blank	1.0	229.2721564769745	
36	214.18215823173523	pulse	1	t		34.0	2.5	blank	1.0	230.87225723266602	
36	214.306898355484	fix_post	2		12	34.0	2.5	blank	1.0	230.9969973564148	0.10001134872436523
37	214.40690970420837	fix_pre	0		120	35.0	2.5	/experiments/Knapen_AOT/AOT_stimuli/rescaled_final/0660_fw.mp4	0.0	231.09700870513916	1.0085475444793701
37	215.41545724868774	movie	1		283	35.0	2.5	/experiments/Knapen_AOT/AOT_stimuli/rescaled_final/0660_fw.mp4	0.0	232.10555624961853	2.492011070251465
37	215.7824113368988	pulse	1	t		35.0	2.5	/experiments/Knapen_AOT/AOT_stimuli/rescaled_final/0660_fw.mp4	0.0	232.4725103378296	
37	217.38257789611816	pulse	1	t		35.0	2.5	/experiments/Knapen_AOT/AOT_stimuli/rescaled_final/0660_fw.mp4	0.0	234.07267689704895	
37	217.9074683189392	fix_post	2		12	35.0	2.5	/experiments/Knapen_AOT/AOT_stimuli/rescaled_final/0660_fw.mp4	0.0	234.59756731987	0.100006103515625
38	218.00747442245483	fix_pre	0		118	36.0	2.5	/experiments/Knapen_AOT/AOT_stimuli/rescaled_final/2109_fw.mp4	0.0	234.69757342338562	0.9918076992034912
38	218.98284912109375	pulse	0	t		36.0	2.5	/experiments/Knapen_AOT/AOT_stimuli/rescaled_final/2109_fw.mp4	0.0	235.67294812202454	
38	218.99928212165833	movie	1		278	36.0	2.5	/experiments/Knapen_AOT/AOT_stimuli/rescaled_final/2109_fw.mp4	0.0	235.6893811225891	2.500375747680664
38	220.5819764137268	pulse	1	t		36.0	2.5	/experiments/Knapen_AOT/AOT_stimuli/rescaled_final/2109_fw.mp4	0.0	237.2720754146576	
38	221.499657869339	fix_post	2		12	36.0	2.5	/experiments/Knapen_AOT/AOT_stimuli/rescaled_final/2109_fw.mp4	0.0	238.18975687026978	0.10004329681396484
39	221.59970116615295	fix_pre	0		120	37.0	2.5	/experiments/Knapen_AOT/AOT_stimuli/rescaled_final/0468_fw.mp4	0.0	238.28980016708374	1.0084466934204102
39	222.18345761299133	pulse	0	t		37.0	2.5	/experiments/Knapen_AOT/AOT_stimuli/rescaled_final/0468_fw.mp4	0.0	238.87355661392212	
39	222.60814785957336	movie	1		290	37.0	2.5	/experiments/Knapen_AOT/AOT_stimuli/rescaled_final/0468_fw.mp4	0.0	239.29824686050415	2.492037534713745
39	223.78217554092407	pulse	1	t		37.0	2.5	/experiments/Knapen_AOT/AOT_stimuli/rescaled_final/0468_fw.mp4	0.0	240.47227454185486	
39	225.1001853942871	fix_post	2		12	37.0	2.5	/experiments/Knapen_AOT/AOT_stimuli/rescaled_final/0468_fw.mp4	0.0	241.7902843952179	0.1000218391418457
40	225.20020723342896	fix_pre	0		120	38.0	2.5	/experiments/Knapen_AOT/AOT_stimuli/rescaled_final/0261_rv.mp4	0.0	241.89030623435974	1.0085337162017822
40	225.38386797904968	pulse	0	t		38.0	2.5	/experiments/Knapen_AOT/AOT_stimuli/rescaled_final/0261_rv.mp4	0.0	242.07396697998047	
40	226.20874094963074	movie	1		269	38.0	2.5	/experiments/Knapen_AOT/AOT_stimuli/rescaled_final/0261_rv.mp4	0.0	242.89883995056152	2.492044448852539
40	226.9826536178589	pulse	1	t		38.0	2.5	/experiments/Knapen_AOT/AOT_stimuli/rescaled_final/0261_rv.mp4	0.0	243.67275261878967	
40	228.58239197731018	pulse	1	t		38.0	2.5	/experiments/Knapen_AOT/AOT_stimuli/rescaled_final/0261_rv.mp4	0.0	245.27249097824097	
40	228.70078539848328	fix_post	2		12	38.0	2.5	/experiments/Knapen_AOT/AOT_stimuli/rescaled_final/0261_rv.mp4	0.0	245.39088439941406	0.0999605655670166
41	228.8007459640503	fix_pre	0		120	39.0	2.5	/experiments/Knapen_AOT/AOT_stimuli/rescaled_final/1946_fw.mp4	0.0	245.49084496498108	1.0085124969482422
41	229.80925846099854	movie	1		279	39.0	2.5	/experiments/Knapen_AOT/AOT_stimuli/rescaled_final/1946_fw.mp4	0.0	246.49935746192932	2.4920058250427246
41	230.18298316001892	pulse	1	t		39.0	2.5	/experiments/Knapen_AOT/AOT_stimuli/rescaled_final/1946_fw.mp4	0.0	246.8730821609497	
41	231.7833194732666	pulse	1	t		39.0	2.5	/experiments/Knapen_AOT/AOT_stimuli/rescaled_final/1946_fw.mp4	0.0	248.4734184741974	
41	232.30126428604126	fix_post	2		12	39.0	2.5	/experiments/Knapen_AOT/AOT_stimuli/rescaled_final/1946_fw.mp4	0.0	248.99136328697205	0.10002779960632324
42	232.40129208564758	fix_pre	0		119	40.0	2.5	/experiments/Knapen_AOT/AOT_stimuli/rescaled_final/0102_rv.mp4	0.0	249.09139108657837	1.0001494884490967
42	233.3850474357605	pulse	0	t		40.0	2.5	/experiments/Knapen_AOT/AOT_stimuli/rescaled_final/0102_rv.mp4	0.0	250.07514643669128	
42	233.40144157409668	movie	1		279	40.0	2.5	/experiments/Knapen_AOT/AOT_stimuli/rescaled_final/0102_rv.mp4	0.0	250.09154057502747	2.500394105911255
42	234.9861183166504	pulse	1	t		40.0	2.5	/experiments/Knapen_AOT/AOT_stimuli/rescaled_final/0102_rv.mp4	0.0	251.67621731758118	
42	235.90183568000793	fix_post	2		12	40.0	2.5	/experiments/Knapen_AOT/AOT_stimuli/rescaled_final/0102_rv.mp4	0.0	252.59193468093872	0.0999910831451416
43	236.00182676315308	fix_pre	0		120	41.0	2.5	/experiments/Knapen_AOT/AOT_stimuli/rescaled_final/0500_fw.mp4	0.0	252.69192576408386	1.0085344314575195
43	236.58550214767456	pulse	0	t		41.0	2.5	/experiments/Knapen_AOT/AOT_stimuli/rescaled_final/0500_fw.mp4	0.0	253.27560114860535	
43	237.0103611946106	movie	1		290	41.0	2.5	/experiments/Knapen_AOT/AOT_stimuli/rescaled_final/0500_fw.mp4	0.0	253.70046019554138	2.492013692855835
43	238.1838662624359	pulse	1	t		41.0	2.5	/experiments/Knapen_AOT/AOT_stimuli/rescaled_final/0500_fw.mp4	0.0	254.8739652633667	
43	239.50237488746643	fix_post	2		12	41.0	2.5	/experiments/Knapen_AOT/AOT_stimuli/rescaled_final/0500_fw.mp4	0.0	256.1924738883972	0.10000348091125488
44	239.60237836837769	fix_pre	0		120	42.0	2.5	blank	1.0	256.2924773693085	1.0001323223114014
44	239.786071062088	pulse	0	t		42.0	2.5	blank	1.0	256.4761700630188	
44	240.6025106906891	movie	1		300	42.0	2.5	blank	1.0	257.2926096916199	2.500382423400879
44	241.38622283935547	pulse	1	t		42.0	2.5	blank	1.0	258.07632184028625	
44	242.98645687103271	pulse	1	t		42.0	2.5	blank	1.0	259.6765558719635	
44	243.10289311408997	fix_post	2		12	42.0	2.5	blank	1.0	259.79299211502075	0.10001420974731445
45	243.20290732383728	fix_pre	0		120	43.0	2.5	/experiments/Knapen_AOT/AOT_stimuli/rescaled_final/2077_rv.mp4	0.0	259.89300632476807	1.0084993839263916
45	244.21140670776367	movie	1		287	43.0	2.5	/experiments/Knapen_AOT/AOT_stimuli/rescaled_final/2077_rv.mp4	0.0	260.90150570869446	2.492033004760742
45	244.58519458770752	pulse	1	t		43.0	2.5	/experiments/Knapen_AOT/AOT_stimuli/rescaled_final/2077_rv.mp4	0.0	261.2752935886383	
45	246.18537616729736	pulse	1	t		43.0	2.5	/experiments/Knapen_AOT/AOT_stimuli/rescaled_final/2077_rv.mp4	0.0	262.87547516822815	
45	246.7034397125244	fix_post	2		12	43.0	2.5	/experiments/Knapen_AOT/AOT_stimuli/rescaled_final/2077_rv.mp4	0.0	263.3935387134552	0.10001850128173828
46	246.80345821380615	fix_pre	0		119	44.0	2.5	/experiments/Knapen_AOT/AOT_stimuli/rescaled_final/0468_rv.mp4	0.0	263.49355721473694	1.0001542568206787
46	247.7872438430786	pulse	0	t		44.0	2.5	/experiments/Knapen_AOT/AOT_stimuli/rescaled_final/0468_rv.mp4	0.0	264.4773428440094	
46	247.80361247062683	movie	1		266	44.0	2.5	/experiments/Knapen_AOT/AOT_stimuli/rescaled_final/0468_rv.mp4	0.0	264.4937114715576	2.50042986869812
46	249.3856658935547	pulse	1	t		44.0	2.5	/experiments/Knapen_AOT/AOT_stimuli/rescaled_final/0468_rv.mp4	0.0	266.0757648944855	
46	250.30404233932495	fix_post	2		12	44.0	2.5	/experiments/Knapen_AOT/AOT_stimuli/rescaled_final/0468_rv.mp4	0.0	266.99414134025574	0.09999322891235352
47	250.4040355682373	fix_pre	0		120	45.0	2.5	/experiments/Knapen_AOT/AOT_stimuli/rescaled_final/1465_rv.mp4	0.0	267.0941345691681	1.0085020065307617
47	250.9877188205719	pulse	0	t		45.0	2.5	/experiments/Knapen_AOT/AOT_stimuli/rescaled_final/1465_rv.mp4	0.0	267.6778178215027	
47	251.41253757476807	movie	1		285	45.0	2.5	/experiments/Knapen_AOT/AOT_stimuli/rescaled_final/1465_rv.mp4	0.0	268.10263657569885	2.49200701713562
47	252.5863072872162	pulse	1	t		45.0	2.5	/experiments/Knapen_AOT/AOT_stimuli/rescaled_final/1465_rv.mp4	0.0	269.276406288147	
47	253.9045445919037	fix_post	2		12	45.0	2.5	/experiments/Knapen_AOT/AOT_stimuli/rescaled_final/1465_rv.mp4	0.0	270.5946435928345	0.09998822212219238
48	254.00453281402588	fix_pre	0		120	46.0	2.5	/experiments/Knapen_AOT/AOT_stimuli/rescaled_final/0626_rv.mp4	0.0	270.69463181495667	1.008500576019287
48	254.18819546699524	pulse	0	t		46.0	2.5	/experiments/Knapen_AOT/AOT_stimuli/rescaled_final/0626_rv.mp4	0.0	270.878294467926	
48	255.01303339004517	movie	1		285	46.0	2.5	/experiments/Knapen_AOT/AOT_stimuli/rescaled_final/0626_rv.mp4	0.0	271.70313239097595	2.4920122623443604
48	255.78641748428345	pulse	1	t		46.0	2.5	/experiments/Knapen_AOT/AOT_stimuli/rescaled_final/0626_rv.mp4	0.0	272.47651648521423	
48	257.3868725299835	pulse	1	t		46.0	2.5	/experiments/Knapen_AOT/AOT_stimuli/rescaled_final/0626_rv.mp4	0.0	274.0769715309143	
48	257.5050456523895	fix_post	2		12	46.0	2.5	/experiments/Knapen_AOT/AOT_stimuli/rescaled_final/0626_rv.mp4	0.0	274.1951446533203	0.09999203681945801
49	257.605037689209	fix_pre	0		120	47.0	2.5	blank	1.0	274.29513669013977	1.0003268718719482
49	258.60536456108093	movie	1		300	47.0	2.5	blank	1.0	275.2954635620117	2.5002124309539795
49	258.9888844490051	pulse	1	t		47.0	2.5	blank	1.0	275.6789834499359	
49	260.58922362327576	pulse	1	t		47.0	2.5	blank	1.0	277.27932262420654	
49	261.1055769920349	fix_post	2		12	47.0	2.5	blank	1.0	277.7956759929657	0.10003972053527832
50	261.2056167125702	fix_pre	0		119	48.0	2.5	/experiments/Knapen_AOT/AOT_stimuli/rescaled_final/0683_rv.mp4	0.0	277.895715713501	1.0001626014709473
50	262.181786775589	pulse	0	t		48.0	2.5	/experiments/Knapen_AOT/AOT_stimuli/rescaled_final/0683_rv.mp4	0.0	278.8718857765198	
50	262.20577931404114	movie	1		293	48.0	2.5	/experiments/Knapen_AOT/AOT_stimuli/rescaled_final/0683_rv.mp4	0.0	278.8958783149719	2.500351667404175
50	263.78147625923157	pulse	1	t		48.0	2.5	/experiments/Knapen_AOT/AOT_stimuli/rescaled_final/0683_rv.mp4	0.0	280.47157526016235	
50	264.7061309814453	fix_post	2		12	48.0	2.5	/experiments/Knapen_AOT/AOT_stimuli/rescaled_final/0683_rv.mp4	0.0	281.3962299823761	0.1000053882598877
51	264.8061363697052	fix_pre	0		120	49.0	2.5	/experiments/Knapen_AOT/AOT_stimuli/rescaled_final/0648_rv.mp4	0.0	281.496235370636	1.0085182189941406
51	265.3815107345581	pulse	0	t		49.0	2.5	/experiments/Knapen_AOT/AOT_stimuli/rescaled_final/0648_rv.mp4	0.0	282.0716097354889	
51	265.81465458869934	movie	1		273	49.0	2.5	/experiments/Knapen_AOT/AOT_stimuli/rescaled_final/0648_rv.mp4	0.0	282.5047535896301	2.492060661315918
51	266.98172998428345	pulse	1	t		49.0	2.5	/experiments/Knapen_AOT/AOT_stimuli/rescaled_final/0648_rv.mp4	0.0	283.67182898521423	
51	268.30671525001526	fix_post	2		12	49.0	2.5	/experiments/Knapen_AOT/AOT_stimuli/rescaled_final/0648_rv.mp4	0.0	284.99681425094604	0.1000063419342041
52	268.40672159194946	fix_pre	0		120	50.0	2.5	/experiments/Knapen_AOT/AOT_stimuli/rescaled_final/0806_rv.mp4	0.0	285.09682059288025	1.0084927082061768
52	268.5820062160492	pulse	0	t		50.0	2.5	/experiments/Knapen_AOT/AOT_stimuli/rescaled_final/0806_rv.mp4	0.0	285.27210521698	
52	269.41521430015564	movie	1		283	50.0	2.5	/experiments/Knapen_AOT/AOT_stimuli/rescaled_final/0806_rv.mp4	0.0	286.1053133010864	2.492009162902832
52	270.1821928024292	pulse	1	t		50.0	2.5	/experiments/Knapen_AOT/AOT_stimuli/rescaled_final/0806_rv.mp4	0.0	286.87229180336	
52	271.78268694877625	pulse	1	t		50.0	2.5	/experiments/Knapen_AOT/AOT_stimuli/rescaled_final/0806_rv.mp4	0.0	288.47278594970703	
52	271.9072234630585	fix_post	2		12	50.0	2.5	/experiments/Knapen_AOT/AOT_stimuli/rescaled_final/0806_rv.mp4	0.0	288.59732246398926	0.10003352165222168
53	272.0072569847107	fix_pre	0		120	51.0	2.5	/experiments/Knapen_AOT/AOT_stimuli/rescaled_final/1210_rv.mp4	0.0	288.6973559856415	1.0084819793701172
53	273.0157389640808	movie	1		272	51.0	2.5	/experiments/Knapen_AOT/AOT_stimuli/rescaled_final/1210_rv.mp4	0.0	289.7058379650116	2.500351667404175
53	273.38274455070496	pulse	1	t		51.0	2.5	/experiments/Knapen_AOT/AOT_stimuli/rescaled_final/1210_rv.mp4	0.0	290.07284355163574	
53	274.98288655281067	pulse	1	t		51.0	2.5	/experiments/Knapen_AOT/AOT_stimuli/rescaled_final/1210_rv.mp4	0.0	291.67298555374146	
53	275.516090631485	fix_post	2		11	51.0	2.5	/experiments/Knapen_AOT/AOT_stimuli/rescaled_final/1210_rv.mp4	0.0	292.20618963241577	0.09169888496398926
54	275.607789516449	fix_pre	0		118	52.0	2.5	/experiments/Knapen_AOT/AOT_stimuli/rescaled_final/1070_fw.mp4	0.0	292.29788851737976	0.9917895793914795
54	276.5832133293152	pulse	0	t		52.0	2.5	/experiments/Knapen_AOT/AOT_stimuli/rescaled_final/1070_fw.mp4	0.0	293.273312330246	
54	276.59957909584045	movie	1		286	52.0	2.5	/experiments/Knapen_AOT/AOT_stimuli/rescaled_final/1070_fw.mp4	0.0	293.28967809677124	2.5003814697265625
54	278.1820375919342	pulse	1	t		52.0	2.5	/experiments/Knapen_AOT/AOT_stimuli/rescaled_final/1070_fw.mp4	0.0	294.872136592865	
54	279.099960565567	fix_post	2		12	52.0	2.5	/experiments/Knapen_AOT/AOT_stimuli/rescaled_final/1070_fw.mp4	0.0	295.7900595664978	0.10002970695495605
55	279.199990272522	fix_pre	0		120	53.0	2.5	/experiments/Knapen_AOT/AOT_stimuli/rescaled_final/1735_rv.mp4	0.0	295.89008927345276	1.0085041522979736
55	279.78369665145874	pulse	0	t		53.0	2.5	/experiments/Knapen_AOT/AOT_stimuli/rescaled_final/1735_rv.mp4	0.0	296.4737956523895	
55	280.20849442481995	movie	1		281	53.0	2.5	/experiments/Knapen_AOT/AOT_stimuli/rescaled_final/1735_rv.mp4	0.0	296.89859342575073	2.492051601409912
55	281.38387298583984	pulse	1	t		53.0	2.5	/experiments/Knapen_AOT/AOT_stimuli/rescaled_final/1735_rv.mp4	0.0	298.07397198677063	
55	282.70054602622986	fix_post	2		12	53.0	2.5	/experiments/Knapen_AOT/AOT_stimuli/rescaled_final/1735_rv.mp4	0.0	299.39064502716064	0.09999823570251465
56	282.8005442619324	fix_pre	0		120	54.0	2.5	/experiments/Knapen_AOT/AOT_stimuli/rescaled_final/0322_rv.mp4	0.0	299.49064326286316	1.0084564685821533
56	282.9841341972351	pulse	0	t		54.0	2.5	/experiments/Knapen_AOT/AOT_stimuli/rescaled_final/0322_rv.mp4	0.0	299.6742331981659	
56	283.8090007305145	movie	1		279	54.0	2.5	/experiments/Knapen_AOT/AOT_stimuli/rescaled_final/0322_rv.mp4	0.0	300.4990997314453	2.4920554161071777
56	284.5825762748718	pulse	1	t		54.0	2.5	/experiments/Knapen_AOT/AOT_stimuli/rescaled_final/0322_rv.mp4	0.0	301.2726752758026	
56	286.18265557289124	pulse	1	t		54.0	2.5	/experiments/Knapen_AOT/AOT_stimuli/rescaled_final/0322_rv.mp4	0.0	302.872754573822	
56	286.3010561466217	fix_post	2		12	54.0	2.5	/experiments/Knapen_AOT/AOT_stimuli/rescaled_final/0322_rv.mp4	0.0	302.9911551475525	0.10007953643798828
57	286.4011356830597	fix_pre	0		120	55.0	2.5	blank	1.0	303.0912346839905	1.00007963180542
57	287.4012153148651	movie	1		300	55.0	2.5	blank	1.0	304.0913143157959	2.5003676414489746
57	287.78487944602966	pulse	1	t		55.0	2.5	blank	1.0	304.47497844696045	
57	289.3851041793823	pulse	1	t		55.0	2.5	blank	1.0	306.0752031803131	
57	289.9015829563141	fix_post	2		12	55.0	2.5	blank	1.0	306.5916819572449	0.10006880760192871
58	290.001651763916	fix_pre	0		119	56.0	2.5	/experiments/Knapen_AOT/AOT_stimuli/rescaled_final/0925_fw.mp4	0.0	306.6917507648468	1.0001814365386963
58	290.9853096008301	pulse	0	t		56.0	2.5	/experiments/Knapen_AOT/AOT_stimuli/rescaled_final/0925_fw.mp4	0.0	307.67540860176086	
58	291.0018332004547	movie	1		282	56.0	2.5	/experiments/Knapen_AOT/AOT_stimuli/rescaled_final/0925_fw.mp4	0.0	307.6919322013855	2.5003035068511963
58	292.58616065979004	pulse	1	t		56.0	2.5	/experiments/Knapen_AOT/AOT_stimuli/rescaled_final/0925_fw.mp4	0.0	309.2762596607208	
58	293.5021367073059	fix_post	2		12	56.0	2.5	/experiments/Knapen_AOT/AOT_stimuli/rescaled_final/0925_fw.mp4	0.0	310.1922357082367	0.10001540184020996
59	293.6021521091461	fix_pre	0		120	57.0	2.5	/experiments/Knapen_AOT/AOT_stimuli/rescaled_final/1800_fw.mp4	0.0	310.2922511100769	1.0084972381591797
59	294.1859622001648	pulse	0	t		57.0	2.5	/experiments/Knapen_AOT/AOT_stimuli/rescaled_final/1800_fw.mp4	0.0	310.8760612010956	
59	294.6106493473053	movie	1		282	57.0	2.5	/experiments/Knapen_AOT/AOT_stimuli/rescaled_final/1800_fw.mp4	0.0	311.3007483482361	2.492070198059082
59	295.78440952301025	pulse	1	t		57.0	2.5	/experiments/Knapen_AOT/AOT_stimuli/rescaled_final/1800_fw.mp4	0.0	312.47450852394104	
59	297.1027195453644	fix_post	2		12	57.0	2.5	/experiments/Knapen_AOT/AOT_stimuli/rescaled_final/1800_fw.mp4	0.0	313.79281854629517	0.10000753402709961
60	297.2027270793915	fix_pre	0		120	58.0	2.5	/experiments/Knapen_AOT/AOT_stimuli/rescaled_final/0368_fw.mp4	0.0	313.89282608032227	1.0085160732269287
60	297.38624119758606	pulse	0	t		58.0	2.5	/experiments/Knapen_AOT/AOT_stimuli/rescaled_final/0368_fw.mp4	0.0	314.07634019851685	
60	298.2112431526184	movie	1		285	58.0	2.5	/experiments/Knapen_AOT/AOT_stimuli/rescaled_final/0368_fw.mp4	0.0	314.9013421535492	2.491988182067871
60	298.9859526157379	pulse	1	t		58.0	2.5	/experiments/Knapen_AOT/AOT_stimuli/rescaled_final/0368_fw.mp4	0.0	315.6760516166687	
60	300.5848162174225	pulse	1	t		58.0	2.5	/experiments/Knapen_AOT/AOT_stimuli/rescaled_final/0368_fw.mp4	0.0	317.27491521835327	
60	300.7032313346863	fix_post	2		12	58.0	2.5	/experiments/Knapen_AOT/AOT_stimuli/rescaled_final/0368_fw.mp4	0.0	317.39333033561707	0.1000063419342041
61	300.8032376766205	fix_pre	0		120	59.0	2.5	/experiments/Knapen_AOT/AOT_stimuli/rescaled_final/1110_rv.mp4	0.0	317.49333667755127	1.008589744567871
61	301.81182742118835	movie	1		273	59.0	2.5	/experiments/Knapen_AOT/AOT_stimuli/rescaled_final/1110_rv.mp4	0.0	318.50192642211914	2.4919357299804688
61	302.18718934059143	pulse	1	t		59.0	2.5	/experiments/Knapen_AOT/AOT_stimuli/rescaled_final/1110_rv.mp4	0.0	318.8772883415222	
61	303.78529143333435	pulse	1	t		59.0	2.5	/experiments/Knapen_AOT/AOT_stimuli/rescaled_final/1110_rv.mp4	0.0	320.47539043426514	
61	304.3037631511688	fix_post	2		12	59.0	2.5	/experiments/Knapen_AOT/AOT_stimuli/rescaled_final/1110_rv.mp4	0.0	320.9938621520996	0.10000872611999512
62	304.4037718772888	fix_pre	0		119	60.0	2.5	/experiments/Knapen_AOT/AOT_stimuli/rescaled_final/0575_rv.mp4	0.0	321.0938708782196	1.000176191329956
62	305.38754200935364	pulse	0	t		60.0	2.5	/experiments/Knapen_AOT/AOT_stimuli/rescaled_final/0575_rv.mp4	0.0	322.0776410102844	
62	305.4039480686188	movie	1		280	60.0	2.5	/experiments/Knapen_AOT/AOT_stimuli/rescaled_final/0575_rv.mp4	0.0	322.09404706954956	2.5003530979156494
62	306.98636651039124	pulse	1	t		60.0	2.5	/experiments/Knapen_AOT/AOT_stimuli/rescaled_final/0575_rv.mp4	0.0	323.676465511322	
62	307.9043011665344	fix_post	2		12	60.0	2.5	/experiments/Knapen_AOT/AOT_stimuli/rescaled_final/0575_rv.mp4	0.0	324.5944001674652	0.10001659393310547
63	308.00431776046753	fix_pre	0		120	61.0	2.5	blank	1.0	324.6944167613983	1.0001373291015625
63	308.58806681632996	pulse	0	t		61.0	2.5	blank	1.0	325.27816581726074	
63	309.0044550895691	movie	1		300	61.0	2.5	blank	1.0	325.6945540904999	2.5003764629364014
63	310.18820548057556	pulse	1	t		61.0	2.5	blank	1.0	326.87830448150635	
63	311.5048315525055	fix_post	2		12	61.0	2.5	blank	1.0	328.1949305534363	0.10001659393310547
64	311.6048481464386	fix_pre	0		120	62.0	2.5	/experiments/Knapen_AOT/AOT_stimuli/rescaled_final/0907_fw.mp4	0.0	328.2949471473694	1.0085108280181885
64	311.7884027957916	pulse	0	t		62.0	2.5	/experiments/Knapen_AOT/AOT_stimuli/rescaled_final/0907_fw.mp4	0.0	328.4785017967224	
64	312.6133589744568	movie	1		266	62.0	2.5	/experiments/Knapen_AOT/AOT_stimuli/rescaled_final/0907_fw.mp4	0.0	329.3034579753876	2.49202823638916
64	313.3874521255493	pulse	1	t		62.0	2.5	/experiments/Knapen_AOT/AOT_stimuli/rescaled_final/0907_fw.mp4	0.0	330.0775511264801	
64	314.9883511066437	pulse	1	t		62.0	2.5	/experiments/Knapen_AOT/AOT_stimuli/rescaled_final/0907_fw.mp4	0.0	331.67845010757446	
64	315.10538721084595	fix_post	2		12	62.0	2.5	/experiments/Knapen_AOT/AOT_stimuli/rescaled_final/0907_fw.mp4	0.0	331.79548621177673	0.10001683235168457
65	315.20540404319763	fix_pre	0		120	63.0	2.5	/experiments/Knapen_AOT/AOT_stimuli/rescaled_final/1838_fw.mp4	0.0	331.8955030441284	1.0084989070892334
65	316.21390295028687	movie	1		274	63.0	2.5	/experiments/Knapen_AOT/AOT_stimuli/rescaled_final/1838_fw.mp4	0.0	332.90400195121765	2.492152214050293
65	316.5881128311157	pulse	1	t		63.0	2.5	/experiments/Knapen_AOT/AOT_stimuli/rescaled_final/1838_fw.mp4	0.0	333.2782118320465	
65	318.18707060813904	pulse	1	t		63.0	2.5	/experiments/Knapen_AOT/AOT_stimuli/rescaled_final/1838_fw.mp4	0.0	334.8771696090698	
65	318.70605516433716	fix_post	2		12	63.0	2.5	/experiments/Knapen_AOT/AOT_stimuli/rescaled_final/1838_fw.mp4	0.0	335.39615416526794	0.09995079040527344
66	318.80600595474243	fix_pre	0		119	64.0	2.5	/experiments/Knapen_AOT/AOT_stimuli/rescaled_final/1383_fw.mp4	0.0	335.4961049556732	1.0000996589660645
66	319.78204369544983	pulse	0	t		64.0	2.5	/experiments/Knapen_AOT/AOT_stimuli/rescaled_final/1383_fw.mp4	0.0	336.4721426963806	
66	319.8061056137085	movie	1		275	64.0	2.5	/experiments/Knapen_AOT/AOT_stimuli/rescaled_final/1383_fw.mp4	0.0	336.4962046146393	2.500363349914551
66	321.38975715637207	pulse	1	t		64.0	2.5	/experiments/Knapen_AOT/AOT_stimuli/rescaled_final/1383_fw.mp4	0.0	338.07985615730286	
66	322.30646896362305	fix_post	2		12	64.0	2.5	/experiments/Knapen_AOT/AOT_stimuli/rescaled_final/1383_fw.mp4	0.0	338.99656796455383	0.10002708435058594
67	322.40649604797363	fix_pre	0		120	65.0	2.5	/experiments/Knapen_AOT/AOT_stimuli/rescaled_final/2077_fw.mp4	0.0	339.0965950489044	1.008488416671753
67	322.98205065727234	pulse	0	t		65.0	2.5	/experiments/Knapen_AOT/AOT_stimuli/rescaled_final/2077_fw.mp4	0.0	339.6721496582031	
67	323.4149844646454	movie	1		256	65.0	2.5	/experiments/Knapen_AOT/AOT_stimuli/rescaled_final/2077_fw.mp4	0.0	340.1050834655762	2.492058753967285
67	324.58222579956055	pulse	1	t		65.0	2.5	/experiments/Knapen_AOT/AOT_stimuli/rescaled_final/2077_fw.mp4	0.0	341.27232480049133	
67	325.90704321861267	fix_post	2		12	65.0	2.5	/experiments/Knapen_AOT/AOT_stimuli/rescaled_final/2077_fw.mp4	0.0	342.59714221954346	0.09997892379760742
68	326.0070221424103	fix_pre	0		120	66.0	2.5	/experiments/Knapen_AOT/AOT_stimuli/rescaled_final/1975_fw.mp4	0.0	342.69712114334106	1.0085251331329346
68	326.18225717544556	pulse	0	t		66.0	2.5	/experiments/Knapen_AOT/AOT_stimuli/rescaled_final/1975_fw.mp4	0.0	342.87235617637634	
68	327.0155472755432	movie	1		280	66.0	2.5	/experiments/Knapen_AOT/AOT_stimuli/rescaled_final/1975_fw.mp4	0.0	343.705646276474	2.4920108318328857
68	327.7820258140564	pulse	1	t		66.0	2.5	/experiments/Knapen_AOT/AOT_stimuli/rescaled_final/1975_fw.mp4	0.0	344.4721248149872	
68	329.38273453712463	pulse	1	t		66.0	2.5	/experiments/Knapen_AOT/AOT_stimuli/rescaled_final/1975_fw.mp4	0.0	346.0728335380554	
68	329.5075581073761	fix_post	2		12	66.0	2.5	/experiments/Knapen_AOT/AOT_stimuli/rescaled_final/1975_fw.mp4	0.0	346.1976571083069	0.1000063419342041
69	329.6075644493103	fix_pre	0		120	67.0	2.5	/experiments/Knapen_AOT/AOT_stimuli/rescaled_final/0771_fw.mp4	0.0	346.2976634502411	1.0084893703460693
69	330.6160538196564	movie	1		280	67.0	2.5	/experiments/Knapen_AOT/AOT_stimuli/rescaled_final/0771_fw.mp4	0.0	347.30615282058716	2.492036819458008
69	330.98315358161926	pulse	1	t		67.0	2.5	/experiments/Knapen_AOT/AOT_stimuli/rescaled_final/0771_fw.mp4	0.0	347.67325258255005	
69	332.5831859111786	pulse	1	t		67.0	2.5	/experiments/Knapen_AOT/AOT_stimuli/rescaled_final/0771_fw.mp4	0.0	349.2732849121094	
69	333.1080906391144	fix_post	2		12	67.0	2.5	/experiments/Knapen_AOT/AOT_stimuli/rescaled_final/0771_fw.mp4	0.0	349.79818964004517	0.10001516342163086
70	333.208105802536	fix_pre	0		118	68.0	2.5	/experiments/Knapen_AOT/AOT_stimuli/rescaled_final/2060_rv.mp4	0.0	349.8982048034668	0.9918129444122314
70	334.18345308303833	pulse	0	t		68.0	2.5	/experiments/Knapen_AOT/AOT_stimuli/rescaled_final/2060_rv.mp4	0.0	350.8735520839691	
70	334.19991874694824	movie	1		280	68.0	2.5	/experiments/Knapen_AOT/AOT_stimuli/rescaled_final/2060_rv.mp4	0.0	350.890017747879	2.500518560409546
70	335.78244066238403	pulse	1	t		68.0	2.5	/experiments/Knapen_AOT/AOT_stimuli/rescaled_final/2060_rv.mp4	0.0	352.4725396633148	
70	336.7004373073578	fix_post	2		12	68.0	2.5	/experiments/Knapen_AOT/AOT_stimuli/rescaled_final/2060_rv.mp4	0.0	353.3905363082886	0.09987473487854004
71	336.8003120422363	fix_pre	0		120	69.0	2.5	/experiments/Knapen_AOT/AOT_stimuli/rescaled_final/0204_rv.mp4	0.0	353.4904110431671	1.008589506149292
71	337.38395619392395	pulse	0	t		69.0	2.5	/experiments/Knapen_AOT/AOT_stimuli/rescaled_final/0204_rv.mp4	0.0	354.07405519485474	
71	337.8089015483856	movie	1		285	69.0	2.5	/experiments/Knapen_AOT/AOT_stimuli/rescaled_final/0204_rv.mp4	0.0	354.4990005493164	2.491938591003418
71	338.9820399284363	pulse	1	t		69.0	2.5	/experiments/Knapen_AOT/AOT_stimuli/rescaled_final/0204_rv.mp4	0.0	355.67213892936707	
71	340.30084013938904	fix_post	2		12	69.0	2.5	/experiments/Knapen_AOT/AOT_stimuli/rescaled_final/0204_rv.mp4	0.0	356.9909391403198	0.09998202323913574
72	340.4008221626282	fix_pre	0		120	70.0	2.5	blank	1.0	357.09092116355896	1.0002119541168213
72	340.5843880176544	pulse	0	t		70.0	2.5	blank	1.0	357.2744870185852	
72	341.401034116745	movie	1		299	70.0	2.5	blank	1.0	358.0911331176758	2.5003814697265625
72	342.1847987174988	pulse	1	t		70.0	2.5	blank	1.0	358.87489771842957	
72	343.78490567207336	pulse	1	t		70.0	2.5	blank	1.0	360.47500467300415	
72	343.90141558647156	fix_post	2		12	70.0	2.5	blank	1.0	360.59151458740234	0.0999910831451416
73	344.0014066696167	fix_pre	0		120	71.0	2.5	/experiments/Knapen_AOT/AOT_stimuli/rescaled_final/0572_rv.mp4	0.0	360.6915056705475	1.0084826946258545
73	345.00988936424255	movie	1		273	71.0	2.5	/experiments/Knapen_AOT/AOT_stimuli/rescaled_final/0572_rv.mp4	0.0	361.69998836517334	2.4920461177825928
73	345.3840208053589	pulse	1	t		71.0	2.5	/experiments/Knapen_AOT/AOT_stimuli/rescaled_final/0572_rv.mp4	0.0	362.0741198062897	
73	346.9835877418518	pulse	1	t		71.0	2.5	/experiments/Knapen_AOT/AOT_stimuli/rescaled_final/0572_rv.mp4	0.0	363.6736867427826	
73	347.50193548202515	fix_post	2		12	71.0	2.5	/experiments/Knapen_AOT/AOT_stimuli/rescaled_final/0572_rv.mp4	0.0	364.19203448295593	0.10013461112976074
74	347.6020700931549	fix_pre	0		119	72.0	2.5	/experiments/Knapen_AOT/AOT_stimuli/rescaled_final/1110_fw.mp4	0.0	364.2921690940857	1.0001211166381836
74	348.58574295043945	pulse	0	t		72.0	2.5	/experiments/Knapen_AOT/AOT_stimuli/rescaled_final/1110_fw.mp4	0.0	365.27584195137024	
74	348.6021912097931	movie	1		277	72.0	2.5	/experiments/Knapen_AOT/AOT_stimuli/rescaled_final/1110_fw.mp4	0.0	365.2922902107239	2.5005218982696533
74	350.1855161190033	pulse	1	t		72.0	2.5	/experiments/Knapen_AOT/AOT_stimuli/rescaled_final/1110_fw.mp4	0.0	366.8756151199341	
74	351.10271310806274	fix_post	2		12	72.0	2.5	/experiments/Knapen_AOT/AOT_stimuli/rescaled_final/1110_fw.mp4	0.0	367.79281210899353	0.0998079776763916
75	351.20252108573914	fix_pre	0		120	73.0	2.5	/experiments/Knapen_AOT/AOT_stimuli/rescaled_final/1464_rv.mp4	0.0	367.8926200866699	1.008446216583252
75	351.7861213684082	pulse	0	t		73.0	2.5	/experiments/Knapen_AOT/AOT_stimuli/rescaled_final/1464_rv.mp4	0.0	368.476220369339	
75	352.2109673023224	movie	1		278	73.0	2.5	/experiments/Knapen_AOT/AOT_stimuli/rescaled_final/1464_rv.mp4	0.0	368.9010663032532	2.492051839828491
75	353.384560585022	pulse	1	t		73.0	2.5	/experiments/Knapen_AOT/AOT_stimuli/rescaled_final/1464_rv.mp4	0.0	370.07465958595276	
75	354.7030191421509	fix_post	2		12	73.0	2.5	/experiments/Knapen_AOT/AOT_stimuli/rescaled_final/1464_rv.mp4	0.0	371.39311814308167	0.10005593299865723
76	354.80307507514954	fix_pre	0		120	74.0	2.5	/experiments/Knapen_AOT/AOT_stimuli/rescaled_final/1391_fw.mp4	0.0	371.4931740760803	1.0084500312805176
76	354.98662996292114	pulse	0	t		74.0	2.5	/experiments/Knapen_AOT/AOT_stimuli/rescaled_final/1391_fw.mp4	0.0	371.67672896385193	
76	355.81152510643005	movie	1		287	74.0	2.5	/experiments/Knapen_AOT/AOT_stimuli/rescaled_final/1391_fw.mp4	0.0	372.50162410736084	2.4920215606689453
76	356.5853159427643	pulse	1	t		74.0	2.5	/experiments/Knapen_AOT/AOT_stimuli/rescaled_final/1391_fw.mp4	0.0	373.27541494369507	
76	358.1853470802307	pulse	1	t		74.0	2.5	/experiments/Knapen_AOT/AOT_stimuli/rescaled_final/1391_fw.mp4	0.0	374.8754460811615	
76	358.303546667099	fix_post	2		12	74.0	2.5	/experiments/Knapen_AOT/AOT_stimuli/rescaled_final/1391_fw.mp4	0.0	374.9936456680298	0.09999942779541016
77	358.4035460948944	fix_pre	0		120	75.0	2.5	blank	1.0	375.0936450958252	1.0002317428588867
77	359.4037778377533	movie	1		300	75.0	2.5	blank	1.0	376.0938768386841	2.5003042221069336
77	359.7873344421387	pulse	1	t		75.0	2.5	blank	1.0	376.47743344306946	
77	361.38778424263	pulse	1	t		75.0	2.5	blank	1.0	378.0778832435608	
77	361.90408205986023	fix_post	2		12	75.0	2.5	blank	1.0	378.594181060791	0.10002684593200684
78	362.00410890579224	fix_pre	0		119	76.0	2.5	/experiments/Knapen_AOT/AOT_stimuli/rescaled_final/1375_rv.mp4	0.0	378.694207906723	1.008544683456421
78	362.9879767894745	pulse	0	t		76.0	2.5	/experiments/Knapen_AOT/AOT_stimuli/rescaled_final/1375_rv.mp4	0.0	379.6780757904053	
78	363.01265358924866	movie	1		281	76.0	2.5	/experiments/Knapen_AOT/AOT_stimuli/rescaled_final/1375_rv.mp4	0.0	379.70275259017944	2.491973876953125
78	364.5867991447449	pulse	1	t		76.0	2.5	/experiments/Knapen_AOT/AOT_stimuli/rescaled_final/1375_rv.mp4	0.0	381.27689814567566	
78	365.5046274662018	fix_post	2		12	76.0	2.5	/experiments/Knapen_AOT/AOT_stimuli/rescaled_final/1375_rv.mp4	0.0	382.19472646713257	0.10008025169372559
79	365.6047077178955	fix_pre	0		120	77.0	2.5	/experiments/Knapen_AOT/AOT_stimuli/rescaled_final/1383_rv.mp4	0.0	382.2948067188263	1.0084364414215088
79	366.18831992149353	pulse	0	t		77.0	2.5	/experiments/Knapen_AOT/AOT_stimuli/rescaled_final/1383_rv.mp4	0.0	382.8784189224243	
79	366.613144159317	movie	1		271	77.0	2.5	/experiments/Knapen_AOT/AOT_stimuli/rescaled_final/1383_rv.mp4	0.0	383.3032431602478	2.4921696186065674
79	367.78678131103516	pulse	1	t		77.0	2.5	/experiments/Knapen_AOT/AOT_stimuli/rescaled_final/1383_rv.mp4	0.0	384.47688031196594	
79	369.1053137779236	fix_post	2		12	77.0	2.5	/experiments/Knapen_AOT/AOT_stimuli/rescaled_final/1383_rv.mp4	0.0	385.79541277885437	0.09986281394958496
80	369.20517659187317	fix_pre	0		120	78.0	2.5	/experiments/Knapen_AOT/AOT_stimuli/rescaled_final/1870_fw.mp4	0.0	385.89527559280396	1.008551836013794
80	369.38242769241333	pulse	0	t		78.0	2.5	/experiments/Knapen_AOT/AOT_stimuli/rescaled_final/1870_fw.mp4	0.0	386.0725266933441	
80	370.21372842788696	movie	1		267	78.0	2.5	/experiments/Knapen_AOT/AOT_stimuli/rescaled_final/1870_fw.mp4	0.0	386.90382742881775	2.4920897483825684
80	370.99061131477356	pulse	1	t		78.0	2.5	/experiments/Knapen_AOT/AOT_stimuli/rescaled_final/1870_fw.mp4	0.0	387.68071031570435	
80	372.58147406578064	pulse	1	t		78.0	2.5	/experiments/Knapen_AOT/AOT_stimuli/rescaled_final/1870_fw.mp4	0.0	389.2715730667114	
80	372.70581817626953	fix_post	2		12	78.0	2.5	/experiments/Knapen_AOT/AOT_stimuli/rescaled_final/1870_fw.mp4	0.0	389.3959171772003	0.09997344017028809
81	372.8057916164398	fix_pre	0		120	79.0	2.5	/experiments/Knapen_AOT/AOT_stimuli/rescaled_final/0552_rv.mp4	0.0	389.4958906173706	1.0084338188171387
81	373.81422543525696	movie	1		270	79.0	2.5	/experiments/Knapen_AOT/AOT_stimuli/rescaled_final/0552_rv.mp4	0.0	390.50432443618774	2.49200439453125
81	374.1818780899048	pulse	1	t		79.0	2.5	/experiments/Knapen_AOT/AOT_stimuli/rescaled_final/0552_rv.mp4	0.0	390.87197709083557	
81	375.7814259529114	pulse	1	t		79.0	2.5	/experiments/Knapen_AOT/AOT_stimuli/rescaled_final/0552_rv.mp4	0.0	392.47152495384216	
81	376.3062298297882	fix_post	2		12	79.0	2.5	/experiments/Knapen_AOT/AOT_stimuli/rescaled_final/0552_rv.mp4	0.0	392.996328830719	0.10005831718444824
82	376.40628814697266	fix_pre	0		118	80.0	2.5	/experiments/Knapen_AOT/AOT_stimuli/rescaled_final/2134_fw.mp4	0.0	393.09638714790344	0.9918501377105713
82	377.3816394805908	pulse	0	t		80.0	2.5	/experiments/Knapen_AOT/AOT_stimuli/rescaled_final/2134_fw.mp4	0.0	394.0717384815216	
82	377.3981382846832	movie	1		274	80.0	2.5	/experiments/Knapen_AOT/AOT_stimuli/rescaled_final/2134_fw.mp4	0.0	394.088237285614	2.5003271102905273
82	378.98215675354004	pulse	1	t		80.0	2.5	/experiments/Knapen_AOT/AOT_stimuli/rescaled_final/2134_fw.mp4	0.0	395.6722557544708	
82	379.89846539497375	fix_post	2		12	80.0	2.5	/experiments/Knapen_AOT/AOT_stimuli/rescaled_final/2134_fw.mp4	0.0	396.58856439590454	0.10001254081726074
83	379.998477935791	fix_pre	0		120	81.0	2.5	/experiments/Knapen_AOT/AOT_stimuli/rescaled_final/0700_rv.mp4	0.0	396.6885769367218	1.008495807647705
83	380.5821783542633	pulse	0	t		81.0	2.5	/experiments/Knapen_AOT/AOT_stimuli/rescaled_final/0700_rv.mp4	0.0	397.2722773551941	
83	381.0069737434387	movie	1		287	81.0	2.5	/experiments/Knapen_AOT/AOT_stimuli/rescaled_final/0700_rv.mp4	0.0	397.6970727443695	2.4920270442962646
83	382.18244767189026	pulse	1	t		81.0	2.5	/experiments/Knapen_AOT/AOT_stimuli/rescaled_final/0700_rv.mp4	0.0	398.87254667282104	
83	383.499000787735	fix_post	2		12	81.0	2.5	/experiments/Knapen_AOT/AOT_stimuli/rescaled_final/0700_rv.mp4	0.0	400.18909978866577	0.1000673770904541
84	383.59906816482544	fix_pre	0		120	82.0	2.5	blank	1.0	400.2891671657562	1.000089406967163
84	383.7826919555664	pulse	0	t		82.0	2.5	blank	1.0	400.4727909564972	
84	384.5991575717926	movie	1		300	82.0	2.5	blank	1.0	401.2892565727234	2.500401258468628
84	385.3830795288086	pulse	1	t		82.0	2.5	blank	1.0	402.0731785297394	
84	386.9834144115448	pulse	1	t		82.0	2.5	blank	1.0	403.6735134124756	
84	387.09955883026123	fix_post	2		12	82.0	2.5	blank	1.0	403.789657831192	0.10001397132873535
85	387.19957280158997	fix_pre	0		120	83.0	2.5	/experiments/Knapen_AOT/AOT_stimuli/rescaled_final/1317_rv.mp4	0.0	403.88967180252075	1.0084547996520996
85	388.20802760124207	movie	1		270	83.0	2.5	/experiments/Knapen_AOT/AOT_stimuli/rescaled_final/1317_rv.mp4	0.0	404.89812660217285	2.492086172103882
85	388.5817959308624	pulse	1	t		83.0	2.5	/experiments/Knapen_AOT/AOT_stimuli/rescaled_final/1317_rv.mp4	0.0	405.2718949317932	
85	390.18178939819336	pulse	1	t		83.0	2.5	/experiments/Knapen_AOT/AOT_stimuli/rescaled_final/1317_rv.mp4	0.0	406.87188839912415	
85	390.70011377334595	fix_post	2		12	83.0	2.5	/experiments/Knapen_AOT/AOT_stimuli/rescaled_final/1317_rv.mp4	0.0	407.39021277427673	0.09995007514953613
87	390.8000638484955	stim	0		1715					407.49016284942627	14.29391098022461
87	391.78381538391113	pulse	0	t						408.4739143848419	
87	393.38407945632935	pulse	0	t						410.07417845726013	
87	394.9842941761017	pulse	0	t						411.67439317703247	
87	396.58469915390015	pulse	0	t						413.27479815483093	
87	398.1850588321686	pulse	0	t						414.87515783309937	
87	399.7850880622864	pulse	0	t						416.47518706321716	
87	401.38520789146423	pulse	0	t						418.075306892395	
87	402.9855763912201	pulse	0	t						419.6756753921509	
87	404.58571314811707	pulse	0	t						421.27581214904785	
