trial_nr	onset	event_type	phase	response	nr_frames	movie_index	movie_duration	movie_file	blank	onset_abs	duration
0	0.1333158016204834	stim	0		100					33.211251974105835	0.8332750797271729
0	0.9514009952545166	response	0	space						34.02933716773987	
1	0.9665908813476562	stim	0		14082					34.04452705383301	117.3494520187378
1	118.3112108707428	pulse	0	t						151.38914704322815	
1	118.31604290008545	stim	1		1717					151.3939790725708	14.308264970779419
1	119.9002468585968	pulse	1	t						152.97818303108215	
1	121.50783085823059	pulse	1	t						154.58576703071594	
1	123.10787987709045	pulse	1	t						156.1858160495758	
1	124.7074019908905	pulse	1	t						157.78533816337585	
1	126.30745100975037	pulse	1	t						159.38538718223572	
1	127.90775680541992	pulse	1	t						160.98569297790527	
1	129.50782799720764	pulse	1	t						162.585764169693	
1	131.10780000686646	pulse	1	t						164.1857361793518	
2	132.62430787086487	fix_pre	0		11	0.0	2.5	/experiments/AOT/AOT_stimuli/rescaled_final/0595_rv.mp4	0.0	165.70224404335022	0.09171199798583984
2	132.70778679847717	pulse	0	t		0.0	2.5	/experiments/AOT/AOT_stimuli/rescaled_final/0595_rv.mp4	0.0	165.78572297096252	
2	132.7160198688507	movie	1		243	0.0	2.5	/experiments/AOT/AOT_stimuli/rescaled_final/0595_rv.mp4	0.0	165.79395604133606	2.5078439712524414
2	134.30731987953186	pulse	1	t		0.0	2.5	/experiments/AOT/AOT_stimuli/rescaled_final/0595_rv.mp4	0.0	167.3852560520172	
2	135.22386384010315	fix_post	2		12	0.0	2.5	/experiments/AOT/AOT_stimuli/rescaled_final/0595_rv.mp4	0.0	168.3018000125885	0.10034894943237305
3	135.32421278953552	fix_pre	0		120	1.0	2.5	/experiments/AOT/AOT_stimuli/rescaled_final/1371_rv.mp4	0.0	168.40214896202087	1.0000231266021729
3	135.90026879310608	pulse	0	t		1.0	2.5	/experiments/AOT/AOT_stimuli/rescaled_final/1371_rv.mp4	0.0	168.97820496559143	
3	136.3242359161377	movie	1		243	1.0	2.5	/experiments/AOT/AOT_stimuli/rescaled_final/1371_rv.mp4	0.0	169.40217208862305	2.4999890327453613
3	137.50781297683716	pulse	1	t		1.0	2.5	/experiments/AOT/AOT_stimuli/rescaled_final/1371_rv.mp4	0.0	170.5857491493225	
3	138.82422494888306	fix_post	2		12	1.0	2.5	/experiments/AOT/AOT_stimuli/rescaled_final/1371_rv.mp4	0.0	171.9021611213684	0.09997200965881348
4	138.92419695854187	fix_pre	0		120	2.0	2.5	/experiments/AOT/AOT_stimuli/rescaled_final/1416_fw.mp4	0.0	172.00213313102722	0.9999828338623047
4	139.10769391059875	pulse	0	t		2.0	2.5	/experiments/AOT/AOT_stimuli/rescaled_final/1416_fw.mp4	0.0	172.1856300830841	
4	139.92417979240417	movie	1		243	2.0	2.5	/experiments/AOT/AOT_stimuli/rescaled_final/1416_fw.mp4	0.0	173.00211596488953	2.4997501373291016
4	140.7076017856598	pulse	1	t		2.0	2.5	/experiments/AOT/AOT_stimuli/rescaled_final/1416_fw.mp4	0.0	173.78553795814514	
4	142.3059527873993	pulse	1	t		2.0	2.5	/experiments/AOT/AOT_stimuli/rescaled_final/1416_fw.mp4	0.0	175.38388895988464	
4	142.42392992973328	fix_post	2		12	2.0	2.5	/experiments/AOT/AOT_stimuli/rescaled_final/1416_fw.mp4	0.0	175.50186610221863	0.10022187232971191
5	142.524151802063	fix_pre	0		120	3.0	2.5	/experiments/AOT/AOT_stimuli/rescaled_final/2134_fw.mp4	0.0	175.60208797454834	0.9996860027313232
5	143.5238378047943	movie	1		244	3.0	2.5	/experiments/AOT/AOT_stimuli/rescaled_final/2134_fw.mp4	0.0	176.60177397727966	2.500373125076294
5	143.90877294540405	pulse	1	t		3.0	2.5	/experiments/AOT/AOT_stimuli/rescaled_final/2134_fw.mp4	0.0	176.9867091178894	
5	145.5076539516449	pulse	1	t		3.0	2.5	/experiments/AOT/AOT_stimuli/rescaled_final/2134_fw.mp4	0.0	178.58559012413025	
5	146.0242109298706	fix_post	2		12	3.0	2.5	/experiments/AOT/AOT_stimuli/rescaled_final/2134_fw.mp4	0.0	179.10214710235596	0.09960603713989258
6	146.1238169670105	fix_pre	0		119	4.0	2.5	/experiments/AOT/AOT_stimuli/rescaled_final/0910_rv.mp4	0.0	179.20175313949585	0.9919779300689697
6	147.10765385627747	pulse	0	t		4.0	2.5	/experiments/AOT/AOT_stimuli/rescaled_final/0910_rv.mp4	0.0	180.18559002876282	
6	147.11579489707947	movie	1		244	4.0	2.5	/experiments/AOT/AOT_stimuli/rescaled_final/0910_rv.mp4	0.0	180.19373106956482	2.508333921432495
6	148.70777988433838	pulse	1	t		4.0	2.5	/experiments/AOT/AOT_stimuli/rescaled_final/0910_rv.mp4	0.0	181.78571605682373	
6	149.62412881851196	fix_post	2		12	4.0	2.5	/experiments/AOT/AOT_stimuli/rescaled_final/0910_rv.mp4	0.0	182.70206499099731	0.09998512268066406
7	149.72411394119263	fix_pre	0		120	5.0	2.5	/experiments/AOT/AOT_stimuli/rescaled_final/1444_fw.mp4	0.0	182.80205011367798	1.0000998973846436
7	150.307678937912	pulse	0	t		5.0	2.5	/experiments/AOT/AOT_stimuli/rescaled_final/1444_fw.mp4	0.0	183.38561511039734	
7	150.72421383857727	movie	1		245	5.0	2.5	/experiments/AOT/AOT_stimuli/rescaled_final/1444_fw.mp4	0.0	183.80215001106262	2.4998979568481445
7	151.9077069759369	pulse	1	t		5.0	2.5	/experiments/AOT/AOT_stimuli/rescaled_final/1444_fw.mp4	0.0	184.98564314842224	
7	153.22411179542542	fix_post	2		12	5.0	2.5	/experiments/AOT/AOT_stimuli/rescaled_final/1444_fw.mp4	0.0	186.30204796791077	0.09998416900634766
8	153.32409596443176	fix_pre	0		120	6.0	2.5	blank	1.0	186.40203213691711	1.0000169277191162
8	153.50013399124146	pulse	0	t		6.0	2.5	blank	1.0	186.5780701637268	
8	154.32411289215088	movie	1		300	6.0	2.5	blank	1.0	187.40204906463623	2.49995493888855
8	155.10760283470154	pulse	1	t		6.0	2.5	blank	1.0	188.1855390071869	
8	156.70753693580627	pulse	1	t		6.0	2.5	blank	1.0	189.78547310829163	
8	156.82406783103943	fix_post	2		12	6.0	2.5	blank	1.0	189.90200400352478	0.10010814666748047
9	156.9241759777069	fix_pre	0		120	7.0	2.5	/experiments/AOT/AOT_stimuli/rescaled_final/0699_rv.mp4	0.0	190.00211215019226	0.9995419979095459
9	157.92371797561646	movie	1		244	7.0	2.5	/experiments/AOT/AOT_stimuli/rescaled_final/0699_rv.mp4	0.0	191.0016541481018	2.500412940979004
9	158.30713486671448	pulse	1	t		7.0	2.5	/experiments/AOT/AOT_stimuli/rescaled_final/0699_rv.mp4	0.0	191.38507103919983	
9	159.9076018333435	pulse	1	t		7.0	2.5	/experiments/AOT/AOT_stimuli/rescaled_final/0699_rv.mp4	0.0	192.98553800582886	
9	160.42413091659546	fix_post	2		12	7.0	2.5	/experiments/AOT/AOT_stimuli/rescaled_final/0699_rv.mp4	0.0	193.5020670890808	0.09998393058776855
10	160.52411484718323	fix_pre	0		119	8.0	2.5	/experiments/AOT/AOT_stimuli/rescaled_final/1433_rv.mp4	0.0	193.60205101966858	0.9916501045227051
10	161.50760889053345	pulse	0	t		8.0	2.5	/experiments/AOT/AOT_stimuli/rescaled_final/1433_rv.mp4	0.0	194.5855450630188	
10	161.51576495170593	movie	1		244	8.0	2.5	/experiments/AOT/AOT_stimuli/rescaled_final/1433_rv.mp4	0.0	194.59370112419128	2.50832200050354
10	163.10863089561462	pulse	1	t		8.0	2.5	/experiments/AOT/AOT_stimuli/rescaled_final/1433_rv.mp4	0.0	196.18656706809998	
10	164.02408695220947	fix_post	2		12	8.0	2.5	/experiments/AOT/AOT_stimuli/rescaled_final/1433_rv.mp4	0.0	197.10202312469482	0.10000395774841309
11	164.12409090995789	fix_pre	0		120	9.0	2.5	/experiments/AOT/AOT_stimuli/rescaled_final/0062_fw.mp4	0.0	197.20202708244324	1.0000500679016113
11	164.70760297775269	pulse	0	t		9.0	2.5	/experiments/AOT/AOT_stimuli/rescaled_final/0062_fw.mp4	0.0	197.78553915023804	
11	165.1241409778595	movie	1		244	9.0	2.5	/experiments/AOT/AOT_stimuli/rescaled_final/0062_fw.mp4	0.0	198.20207715034485	2.500005006790161
11	166.3076159954071	pulse	1	t		9.0	2.5	/experiments/AOT/AOT_stimuli/rescaled_final/0062_fw.mp4	0.0	199.38555216789246	
11	167.62414598464966	fix_post	2		12	9.0	2.5	/experiments/AOT/AOT_stimuli/rescaled_final/0062_fw.mp4	0.0	200.702082157135	0.09990787506103516
12	167.7240538597107	fix_pre	0		120	10.0	2.5	/experiments/AOT/AOT_stimuli/rescaled_final/1879_fw.mp4	0.0	200.80199003219604	1.0000240802764893
12	167.90022587776184	pulse	0	t		10.0	2.5	/experiments/AOT/AOT_stimuli/rescaled_final/1879_fw.mp4	0.0	200.9781620502472	
12	168.72407793998718	movie	1		243	10.0	2.5	/experiments/AOT/AOT_stimuli/rescaled_final/1879_fw.mp4	0.0	201.80201411247253	2.499966859817505
12	169.50772881507874	pulse	1	t		10.0	2.5	/experiments/AOT/AOT_stimuli/rescaled_final/1879_fw.mp4	0.0	202.5856649875641	
12	171.1082968711853	pulse	1	t		10.0	2.5	/experiments/AOT/AOT_stimuli/rescaled_final/1879_fw.mp4	0.0	204.18623304367065	
12	171.2240447998047	fix_post	2		12	10.0	2.5	/experiments/AOT/AOT_stimuli/rescaled_final/1879_fw.mp4	0.0	204.30198097229004	0.1000051498413086
13	171.324049949646	fix_pre	0		120	11.0	2.5	/experiments/AOT/AOT_stimuli/rescaled_final/1391_rv.mp4	0.0	204.40198612213135	1.0000698566436768
13	172.32411980628967	movie	1		243	11.0	2.5	/experiments/AOT/AOT_stimuli/rescaled_final/1391_rv.mp4	0.0	205.40205597877502	2.499946117401123
13	172.70709991455078	pulse	1	t		11.0	2.5	/experiments/AOT/AOT_stimuli/rescaled_final/1391_rv.mp4	0.0	205.78503608703613	
13	174.30753993988037	pulse	1	t		11.0	2.5	/experiments/AOT/AOT_stimuli/rescaled_final/1391_rv.mp4	0.0	207.38547611236572	
13	174.8240659236908	fix_post	2		12	11.0	2.5	/experiments/AOT/AOT_stimuli/rescaled_final/1391_rv.mp4	0.0	207.90200209617615	0.09992098808288574
14	174.92398691177368	fix_pre	0		119	12.0	2.5	blank	1.0	208.00192308425903	0.99167799949646
14	175.9075927734375	pulse	0	t		12.0	2.5	blank	1.0	208.98552894592285	
14	175.91566491127014	movie	1		301	12.0	2.5	blank	1.0	208.9936010837555	2.5083789825439453
14	177.50741600990295	pulse	1	t		12.0	2.5	blank	1.0	210.5853521823883	
14	178.4240438938141	fix_post	2		12	12.0	2.5	blank	1.0	211.50198006629944	0.09996891021728516
15	178.52401280403137	fix_pre	0		120	13.0	2.5	/experiments/AOT/AOT_stimuli/rescaled_final/0047_rv.mp4	0.0	211.60194897651672	0.9999661445617676
15	179.10760283470154	pulse	0	t		13.0	2.5	/experiments/AOT/AOT_stimuli/rescaled_final/0047_rv.mp4	0.0	212.1855390071869	
15	179.52397894859314	movie	1		245	13.0	2.5	/experiments/AOT/AOT_stimuli/rescaled_final/0047_rv.mp4	0.0	212.6019151210785	2.5001938343048096
15	180.7071189880371	pulse	1	t		13.0	2.5	/experiments/AOT/AOT_stimuli/rescaled_final/0047_rv.mp4	0.0	213.78505516052246	
15	182.02417278289795	fix_post	2		12	13.0	2.5	/experiments/AOT/AOT_stimuli/rescaled_final/0047_rv.mp4	0.0	215.1021089553833	0.09947514533996582
16	182.12364792823792	fix_pre	0		120	14.0	2.5	/experiments/AOT/AOT_stimuli/rescaled_final/0047_fw.mp4	0.0	215.20158410072327	1.0006699562072754
16	182.30764889717102	pulse	0	t		14.0	2.5	/experiments/AOT/AOT_stimuli/rescaled_final/0047_fw.mp4	0.0	215.38558506965637	
16	183.1243178844452	movie	1		243	14.0	2.5	/experiments/AOT/AOT_stimuli/rescaled_final/0047_fw.mp4	0.0	216.20225405693054	2.4996299743652344
16	183.90744185447693	pulse	1	t		14.0	2.5	/experiments/AOT/AOT_stimuli/rescaled_final/0047_fw.mp4	0.0	216.98537802696228	
16	185.50576496124268	pulse	1	t		14.0	2.5	/experiments/AOT/AOT_stimuli/rescaled_final/0047_fw.mp4	0.0	218.58370113372803	
16	185.62394785881042	fix_post	2		12	14.0	2.5	/experiments/AOT/AOT_stimuli/rescaled_final/0047_fw.mp4	0.0	218.70188403129578	0.10009908676147461
17	185.7240469455719	fix_pre	0		120	15.0	2.5	/experiments/AOT/AOT_stimuli/rescaled_final/0358_rv.mp4	0.0	218.80198311805725	0.9999868869781494
17	186.72403383255005	movie	1		244	15.0	2.5	/experiments/AOT/AOT_stimuli/rescaled_final/0358_rv.mp4	0.0	219.8019700050354	2.499890089035034
17	187.10841488838196	pulse	1	t		15.0	2.5	/experiments/AOT/AOT_stimuli/rescaled_final/0358_rv.mp4	0.0	220.1863510608673	
17	188.70741081237793	pulse	1	t		15.0	2.5	/experiments/AOT/AOT_stimuli/rescaled_final/0358_rv.mp4	0.0	221.78534698486328	
17	189.22392392158508	fix_post	2		12	15.0	2.5	/experiments/AOT/AOT_stimuli/rescaled_final/0358_rv.mp4	0.0	222.30186009407043	0.10000085830688477
18	189.32392477989197	fix_pre	0		119	16.0	2.5	/experiments/AOT/AOT_stimuli/rescaled_final/1554_fw.mp4	0.0	222.40186095237732	0.9917302131652832
18	190.30748391151428	pulse	0	t		16.0	2.5	/experiments/AOT/AOT_stimuli/rescaled_final/1554_fw.mp4	0.0	223.38542008399963	
18	190.31565499305725	movie	1		245	16.0	2.5	/experiments/AOT/AOT_stimuli/rescaled_final/1554_fw.mp4	0.0	223.3935911655426	2.507880926132202
18	191.90722799301147	pulse	1	t		16.0	2.5	/experiments/AOT/AOT_stimuli/rescaled_final/1554_fw.mp4	0.0	224.98516416549683	
18	192.82353591918945	fix_post	2		12	16.0	2.5	/experiments/AOT/AOT_stimuli/rescaled_final/1554_fw.mp4	0.0	225.9014720916748	0.10040402412414551
19	192.9239399433136	fix_pre	0		120	17.0	2.5	/experiments/AOT/AOT_stimuli/rescaled_final/1310_fw.mp4	0.0	226.00187611579895	0.9999978542327881
19	193.5074119567871	pulse	0	t		17.0	2.5	/experiments/AOT/AOT_stimuli/rescaled_final/1310_fw.mp4	0.0	226.58534812927246	
19	193.9239377975464	movie	1		246	17.0	2.5	/experiments/AOT/AOT_stimuli/rescaled_final/1310_fw.mp4	0.0	227.00187397003174	2.499998092651367
19	195.1074697971344	pulse	1	t		17.0	2.5	/experiments/AOT/AOT_stimuli/rescaled_final/1310_fw.mp4	0.0	228.18540596961975	
19	196.42393589019775	fix_post	2		12	17.0	2.5	/experiments/AOT/AOT_stimuli/rescaled_final/1310_fw.mp4	0.0	229.5018720626831	0.100006103515625
20	196.52394199371338	fix_pre	0		120	18.0	2.5	/experiments/AOT/AOT_stimuli/rescaled_final/0684_rv.mp4	0.0	229.60187816619873	0.9999759197235107
20	196.70742082595825	pulse	0	t		18.0	2.5	/experiments/AOT/AOT_stimuli/rescaled_final/0684_rv.mp4	0.0	229.7853569984436	
20	197.5239179134369	movie	1		244	18.0	2.5	/experiments/AOT/AOT_stimuli/rescaled_final/0684_rv.mp4	0.0	230.60185408592224	2.500020980834961
20	198.3074028491974	pulse	1	t		18.0	2.5	/experiments/AOT/AOT_stimuli/rescaled_final/0684_rv.mp4	0.0	231.38533902168274	
20	199.90580987930298	pulse	1	t		18.0	2.5	/experiments/AOT/AOT_stimuli/rescaled_final/0684_rv.mp4	0.0	232.98374605178833	
20	200.02393889427185	fix_post	2		12	18.0	2.5	/experiments/AOT/AOT_stimuli/rescaled_final/0684_rv.mp4	0.0	233.1018750667572	0.09990906715393066
21	200.12384796142578	fix_pre	0		120	19.0	2.5	/experiments/AOT/AOT_stimuli/rescaled_final/0138_fw.mp4	0.0	233.20178413391113	0.9999949932098389
21	201.12384295463562	movie	1		244	19.0	2.5	/experiments/AOT/AOT_stimuli/rescaled_final/0138_fw.mp4	0.0	234.20177912712097	2.5000369548797607
21	201.50703883171082	pulse	1	t		19.0	2.5	/experiments/AOT/AOT_stimuli/rescaled_final/0138_fw.mp4	0.0	234.58497500419617	
21	203.10741591453552	pulse	1	t		19.0	2.5	/experiments/AOT/AOT_stimuli/rescaled_final/0138_fw.mp4	0.0	236.18535208702087	
21	203.62387990951538	fix_post	2		12	19.0	2.5	/experiments/AOT/AOT_stimuli/rescaled_final/0138_fw.mp4	0.0	236.70181608200073	0.09999704360961914
22	203.723876953125	fix_pre	0		119	20.0	2.5	blank	1.0	236.80181312561035	0.9916360378265381
22	204.70738983154297	pulse	0	t		20.0	2.5	blank	1.0	237.78532600402832	
22	204.71551299095154	movie	1		301	20.0	2.5	blank	1.0	237.7934491634369	2.5084400177001953
22	206.30739998817444	pulse	1	t		20.0	2.5	blank	1.0	239.3853361606598	
22	207.22395300865173	fix_post	2		12	20.0	2.5	blank	1.0	240.30188918113708	0.09996891021728516
23	207.32392191886902	fix_pre	0		120	21.0	2.5	/experiments/AOT/AOT_stimuli/rescaled_final/0921_fw.mp4	0.0	240.40185809135437	0.9999380111694336
23	207.90740394592285	pulse	0	t		21.0	2.5	/experiments/AOT/AOT_stimuli/rescaled_final/0921_fw.mp4	0.0	240.9853401184082	
23	208.32385993003845	movie	1		244	21.0	2.5	/experiments/AOT/AOT_stimuli/rescaled_final/0921_fw.mp4	0.0	241.4017961025238	2.5000369548797607
23	209.50750994682312	pulse	1	t		21.0	2.5	/experiments/AOT/AOT_stimuli/rescaled_final/0921_fw.mp4	0.0	242.58544611930847	
23	210.8238968849182	fix_post	2		12	21.0	2.5	/experiments/AOT/AOT_stimuli/rescaled_final/0921_fw.mp4	0.0	243.90183305740356	0.10000395774841309
24	210.92390084266663	fix_pre	0		120	22.0	2.5	/experiments/AOT/AOT_stimuli/rescaled_final/1050_fw.mp4	0.0	244.00183701515198	0.9999051094055176
24	211.10730600357056	pulse	0	t		22.0	2.5	/experiments/AOT/AOT_stimuli/rescaled_final/1050_fw.mp4	0.0	244.1852421760559	
24	211.92380595207214	movie	1		243	22.0	2.5	/experiments/AOT/AOT_stimuli/rescaled_final/1050_fw.mp4	0.0	245.0017421245575	2.5001049041748047
24	212.70722198486328	pulse	1	t		22.0	2.5	/experiments/AOT/AOT_stimuli/rescaled_final/1050_fw.mp4	0.0	245.78515815734863	
24	214.30584192276	pulse	1	t		22.0	2.5	/experiments/AOT/AOT_stimuli/rescaled_final/1050_fw.mp4	0.0	247.38377809524536	
24	214.42391085624695	fix_post	2		12	22.0	2.5	/experiments/AOT/AOT_stimuli/rescaled_final/1050_fw.mp4	0.0	247.5018470287323	0.09989500045776367
25	214.5238058567047	fix_pre	0		120	23.0	2.5	/experiments/AOT/AOT_stimuli/rescaled_final/0047_rv.mp4	0.0	247.60174202919006	1.0000431537628174
25	215.52384901046753	movie	1		243	23.0	2.5	/experiments/AOT/AOT_stimuli/rescaled_final/0047_rv.mp4	0.0	248.60178518295288	2.499966859817505
25	215.90870094299316	pulse	1	t		23.0	2.5	/experiments/AOT/AOT_stimuli/rescaled_final/0047_rv.mp4	0.0	248.98663711547852	
25	217.50727581977844	pulse	1	t		23.0	2.5	/experiments/AOT/AOT_stimuli/rescaled_final/0047_rv.mp4	0.0	250.5852119922638	
25	218.02381587028503	fix_post	2		12	23.0	2.5	/experiments/AOT/AOT_stimuli/rescaled_final/0047_rv.mp4	0.0	251.10175204277039	0.09999704360961914
26	218.12381291389465	fix_pre	0		119	24.0	2.5	/experiments/AOT/AOT_stimuli/rescaled_final/0985_fw.mp4	0.0	251.20174908638	0.9916989803314209
26	219.1073019504547	pulse	0	t		24.0	2.5	/experiments/AOT/AOT_stimuli/rescaled_final/0985_fw.mp4	0.0	252.18523812294006	
26	219.11551189422607	movie	1		246	24.0	2.5	/experiments/AOT/AOT_stimuli/rescaled_final/0985_fw.mp4	0.0	252.19344806671143	2.50827693939209
26	220.70674395561218	pulse	1	t		24.0	2.5	/experiments/AOT/AOT_stimuli/rescaled_final/0985_fw.mp4	0.0	253.78468012809753	
26	221.62378883361816	fix_post	2		12	24.0	2.5	/experiments/AOT/AOT_stimuli/rescaled_final/0985_fw.mp4	0.0	254.70172500610352	0.10003113746643066
27	221.7238199710846	fix_pre	0		120	25.0	2.5	/experiments/AOT/AOT_stimuli/rescaled_final/0375_rv.mp4	0.0	254.80175614356995	1.000046968460083
27	222.30742383003235	pulse	0	t		25.0	2.5	/experiments/AOT/AOT_stimuli/rescaled_final/0375_rv.mp4	0.0	255.3853600025177	
27	222.72386693954468	movie	1		246	25.0	2.5	/experiments/AOT/AOT_stimuli/rescaled_final/0375_rv.mp4	0.0	255.80180311203003	2.499948024749756
27	223.90733790397644	pulse	1	t		25.0	2.5	/experiments/AOT/AOT_stimuli/rescaled_final/0375_rv.mp4	0.0	256.9852740764618	
27	225.22381496429443	fix_post	2		12	25.0	2.5	/experiments/AOT/AOT_stimuli/rescaled_final/0375_rv.mp4	0.0	258.3017511367798	0.09996581077575684
28	225.3237807750702	fix_pre	0		120	26.0	2.5	/experiments/AOT/AOT_stimuli/rescaled_final/0479_rv.mp4	0.0	258.40171694755554	1.0000700950622559
28	225.50738787651062	pulse	0	t		26.0	2.5	/experiments/AOT/AOT_stimuli/rescaled_final/0479_rv.mp4	0.0	258.585324048996	
28	226.32385087013245	movie	1		244	26.0	2.5	/experiments/AOT/AOT_stimuli/rescaled_final/0479_rv.mp4	0.0	259.4017870426178	2.499911069869995
28	227.1072759628296	pulse	1	t		26.0	2.5	/experiments/AOT/AOT_stimuli/rescaled_final/0479_rv.mp4	0.0	260.18521213531494	
28	228.70558500289917	pulse	1	t		26.0	2.5	/experiments/AOT/AOT_stimuli/rescaled_final/0479_rv.mp4	0.0	261.7835211753845	
28	228.82376194000244	fix_post	2		12	26.0	2.5	/experiments/AOT/AOT_stimuli/rescaled_final/0479_rv.mp4	0.0	261.9016981124878	0.09997391700744629
29	228.9237358570099	fix_pre	0		120	27.0	2.5	blank	1.0	262.00167202949524	0.999985933303833
29	229.92372179031372	movie	1		300	27.0	2.5	blank	1.0	263.0016579627991	2.50003719329834
29	230.30739092826843	pulse	1	t		27.0	2.5	blank	1.0	263.3853271007538	
29	231.9072048664093	pulse	1	t		27.0	2.5	blank	1.0	264.98514103889465	
29	232.42375898361206	fix_post	2		12	27.0	2.5	blank	1.0	265.5016951560974	0.09991598129272461
30	232.52367496490479	fix_pre	0		119	28.0	2.5	/experiments/AOT/AOT_stimuli/rescaled_final/1012_rv.mp4	0.0	265.60161113739014	0.9917619228363037
30	233.50726079940796	pulse	0	t		28.0	2.5	/experiments/AOT/AOT_stimuli/rescaled_final/1012_rv.mp4	0.0	266.5851969718933	
30	233.5154368877411	movie	1		244	28.0	2.5	/experiments/AOT/AOT_stimuli/rescaled_final/1012_rv.mp4	0.0	266.59337306022644	2.5078580379486084
30	235.10687899589539	pulse	1	t		28.0	2.5	/experiments/AOT/AOT_stimuli/rescaled_final/1012_rv.mp4	0.0	268.18481516838074	
30	236.0232949256897	fix_post	2		12	28.0	2.5	/experiments/AOT/AOT_stimuli/rescaled_final/1012_rv.mp4	0.0	269.10123109817505	0.10051703453063965
31	236.12381196022034	fix_pre	0		120	29.0	2.5	/experiments/AOT/AOT_stimuli/rescaled_final/1373_rv.mp4	0.0	269.2017481327057	0.9998979568481445
31	236.70679879188538	pulse	0	t		29.0	2.5	/experiments/AOT/AOT_stimuli/rescaled_final/1373_rv.mp4	0.0	269.7847349643707	
31	237.12370991706848	movie	1		244	29.0	2.5	/experiments/AOT/AOT_stimuli/rescaled_final/1373_rv.mp4	0.0	270.20164608955383	2.499945878982544
31	238.30736589431763	pulse	1	t		29.0	2.5	/experiments/AOT/AOT_stimuli/rescaled_final/1373_rv.mp4	0.0	271.385302066803	
31	239.62365579605103	fix_post	2		12	29.0	2.5	/experiments/AOT/AOT_stimuli/rescaled_final/1373_rv.mp4	0.0	272.7015919685364	0.10000801086425781
32	239.72366380691528	fix_pre	0		120	30.0	2.5	/experiments/AOT/AOT_stimuli/rescaled_final/1368_rv.mp4	0.0	272.80159997940063	1.000082015991211
32	239.90718698501587	pulse	0	t		30.0	2.5	/experiments/AOT/AOT_stimuli/rescaled_final/1368_rv.mp4	0.0	272.9851231575012	
32	240.7237458229065	movie	1		244	30.0	2.5	/experiments/AOT/AOT_stimuli/rescaled_final/1368_rv.mp4	0.0	273.80168199539185	2.499886989593506
32	241.5072319507599	pulse	1	t		30.0	2.5	/experiments/AOT/AOT_stimuli/rescaled_final/1368_rv.mp4	0.0	274.58516812324524	
32	243.1053807735443	pulse	1	t		30.0	2.5	/experiments/AOT/AOT_stimuli/rescaled_final/1368_rv.mp4	0.0	276.18331694602966	
32	243.2236328125	fix_post	2		12	30.0	2.5	/experiments/AOT/AOT_stimuli/rescaled_final/1368_rv.mp4	0.0	276.30156898498535	0.10004305839538574
33	243.32367587089539	fix_pre	0		120	31.0	2.5	/experiments/AOT/AOT_stimuli/rescaled_final/0098_rv.mp4	0.0	276.40161204338074	0.9999430179595947
33	244.32361888885498	movie	1		246	31.0	2.5	/experiments/AOT/AOT_stimuli/rescaled_final/0098_rv.mp4	0.0	277.40155506134033	2.499990940093994
33	244.70683979988098	pulse	1	t		31.0	2.5	/experiments/AOT/AOT_stimuli/rescaled_final/0098_rv.mp4	0.0	277.78477597236633	
33	246.3072259426117	pulse	1	t		31.0	2.5	/experiments/AOT/AOT_stimuli/rescaled_final/0098_rv.mp4	0.0	279.38516211509705	
33	246.82360982894897	fix_post	2		12	31.0	2.5	/experiments/AOT/AOT_stimuli/rescaled_final/0098_rv.mp4	0.0	279.9015460014343	0.09997701644897461
34	246.92358684539795	fix_pre	0		119	32.0	2.5	/experiments/AOT/AOT_stimuli/rescaled_final/1926_rv.mp4	0.0	280.0015230178833	0.9917099475860596
34	247.90718793869019	pulse	0	t		32.0	2.5	/experiments/AOT/AOT_stimuli/rescaled_final/1926_rv.mp4	0.0	280.98512411117554	
34	247.915296792984	movie	1		249	32.0	2.5	/experiments/AOT/AOT_stimuli/rescaled_final/1926_rv.mp4	0.0	280.99323296546936	2.5083022117614746
34	249.50703597068787	pulse	1	t		32.0	2.5	/experiments/AOT/AOT_stimuli/rescaled_final/1926_rv.mp4	0.0	282.5849721431732	
34	250.42359900474548	fix_post	2		12	32.0	2.5	/experiments/AOT/AOT_stimuli/rescaled_final/1926_rv.mp4	0.0	283.50153517723083	0.10002493858337402
35	250.52362394332886	fix_pre	0		120	33.0	2.5	/experiments/AOT/AOT_stimuli/rescaled_final/2093_fw.mp4	0.0	283.6015601158142	0.999971866607666
35	251.10712599754333	pulse	0	t		33.0	2.5	/experiments/AOT/AOT_stimuli/rescaled_final/2093_fw.mp4	0.0	284.1850621700287	
35	251.52359580993652	movie	1		244	33.0	2.5	/experiments/AOT/AOT_stimuli/rescaled_final/2093_fw.mp4	0.0	284.6015319824219	2.500012159347534
35	252.7071897983551	pulse	1	t		33.0	2.5	/experiments/AOT/AOT_stimuli/rescaled_final/2093_fw.mp4	0.0	285.78512597084045	
35	254.02360796928406	fix_post	2		12	33.0	2.5	/experiments/AOT/AOT_stimuli/rescaled_final/2093_fw.mp4	0.0	287.1015441417694	0.1000208854675293
36	254.1236288547516	fix_pre	0		120	34.0	2.5	blank	1.0	287.20156502723694	1.0000660419464111
36	254.30712485313416	pulse	0	t		34.0	2.5	blank	1.0	287.3850610256195	
36	255.123694896698	movie	1		300	34.0	2.5	blank	1.0	288.20163106918335	2.4999420642852783
36	255.9071979522705	pulse	1	t		34.0	2.5	blank	1.0	288.98513412475586	
36	257.50704193115234	pulse	1	t		34.0	2.5	blank	1.0	290.5849781036377	
36	257.6236369609833	fix_post	2		12	34.0	2.5	blank	1.0	290.7015731334686	0.10001182556152344
37	257.7236487865448	fix_pre	0		120	35.0	2.5	/experiments/AOT/AOT_stimuli/rescaled_final/1012_fw.mp4	0.0	290.80158495903015	0.9999890327453613
37	258.72363781929016	movie	1		245	35.0	2.5	/experiments/AOT/AOT_stimuli/rescaled_final/1012_fw.mp4	0.0	291.8015739917755	2.500033140182495
37	259.1069839000702	pulse	1	t		35.0	2.5	/experiments/AOT/AOT_stimuli/rescaled_final/1012_fw.mp4	0.0	292.18492007255554	
37	260.7070908546448	pulse	1	t		35.0	2.5	/experiments/AOT/AOT_stimuli/rescaled_final/1012_fw.mp4	0.0	293.7850270271301	
37	261.22367095947266	fix_post	2		12	35.0	2.5	/experiments/AOT/AOT_stimuli/rescaled_final/1012_fw.mp4	0.0	294.301607131958	0.09991002082824707
38	261.3235809803009	fix_pre	0		119	36.0	2.5	/experiments/AOT/AOT_stimuli/rescaled_final/1050_rv.mp4	0.0	294.40151715278625	0.9916489124298096
38	262.30707597732544	pulse	0	t		36.0	2.5	/experiments/AOT/AOT_stimuli/rescaled_final/1050_rv.mp4	0.0	295.3850121498108	
38	262.3152298927307	movie	1		246	36.0	2.5	/experiments/AOT/AOT_stimuli/rescaled_final/1050_rv.mp4	0.0	295.39316606521606	2.508294105529785
38	263.9069278240204	pulse	1	t		36.0	2.5	/experiments/AOT/AOT_stimuli/rescaled_final/1050_rv.mp4	0.0	296.98486399650574	
38	264.8235239982605	fix_post	2		12	36.0	2.5	/experiments/AOT/AOT_stimuli/rescaled_final/1050_rv.mp4	0.0	297.90146017074585	0.10007691383361816
39	264.9236009120941	fix_pre	0		120	37.0	2.5	/experiments/AOT/AOT_stimuli/rescaled_final/2020_rv.mp4	0.0	298.00153708457947	0.9999148845672607
39	265.50713181495667	pulse	0	t		37.0	2.5	/experiments/AOT/AOT_stimuli/rescaled_final/2020_rv.mp4	0.0	298.585067987442	
39	265.9235157966614	movie	1		244	37.0	2.5	/experiments/AOT/AOT_stimuli/rescaled_final/2020_rv.mp4	0.0	299.00145196914673	2.5000832080841064
39	267.10715198516846	pulse	1	t		37.0	2.5	/experiments/AOT/AOT_stimuli/rescaled_final/2020_rv.mp4	0.0	300.1850881576538	
39	268.4235990047455	fix_post	2		12	37.0	2.5	/experiments/AOT/AOT_stimuli/rescaled_final/2020_rv.mp4	0.0	301.50153517723083	0.10010480880737305
40	268.52370381355286	fix_pre	0		120	38.0	2.5	/experiments/AOT/AOT_stimuli/rescaled_final/0375_fw.mp4	0.0	301.6016399860382	0.9998481273651123
40	268.7070379257202	pulse	0	t		38.0	2.5	/experiments/AOT/AOT_stimuli/rescaled_final/0375_fw.mp4	0.0	301.78497409820557	
40	269.52355194091797	movie	1		245	38.0	2.5	/experiments/AOT/AOT_stimuli/rescaled_final/0375_fw.mp4	0.0	302.6014881134033	2.499997854232788
40	270.3070809841156	pulse	1	t		38.0	2.5	/experiments/AOT/AOT_stimuli/rescaled_final/0375_fw.mp4	0.0	303.38501715660095	
40	271.90544295310974	pulse	1	t		38.0	2.5	/experiments/AOT/AOT_stimuli/rescaled_final/0375_fw.mp4	0.0	304.9833791255951	
40	272.02354979515076	fix_post	2		12	38.0	2.5	/experiments/AOT/AOT_stimuli/rescaled_final/0375_fw.mp4	0.0	305.1014859676361	0.10004401206970215
41	272.12359380722046	fix_pre	0		120	39.0	2.5	/experiments/AOT/AOT_stimuli/rescaled_final/1250_fw.mp4	0.0	305.2015299797058	0.9999780654907227
41	273.1235718727112	movie	1		245	39.0	2.5	/experiments/AOT/AOT_stimuli/rescaled_final/1250_fw.mp4	0.0	306.20150804519653	2.499936103820801
41	273.5080349445343	pulse	1	t		39.0	2.5	/experiments/AOT/AOT_stimuli/rescaled_final/1250_fw.mp4	0.0	306.58597111701965	
41	275.10706877708435	pulse	1	t		39.0	2.5	/experiments/AOT/AOT_stimuli/rescaled_final/1250_fw.mp4	0.0	308.1850049495697	
41	275.623507976532	fix_post	2		12	39.0	2.5	/experiments/AOT/AOT_stimuli/rescaled_final/1250_fw.mp4	0.0	308.70144414901733	0.10004591941833496
42	275.7235538959503	fix_pre	0		119	40.0	2.5	blank	1.0	308.80149006843567	0.991663932800293
42	276.7070779800415	pulse	0	t		40.0	2.5	blank	1.0	309.78501415252686	
42	276.7152178287506	movie	1		301	40.0	2.5	blank	1.0	309.79315400123596	2.5083000659942627
42	278.30705189704895	pulse	1	t		40.0	2.5	blank	1.0	311.3849880695343	
42	279.2235178947449	fix_post	2		12	40.0	2.5	blank	1.0	312.3014540672302	0.09997391700744629
43	279.3234918117523	fix_pre	0		120	41.0	2.5	/experiments/AOT/AOT_stimuli/rescaled_final/1516_rv.mp4	0.0	312.40142798423767	1.00006103515625
43	279.90696692466736	pulse	0	t		41.0	2.5	/experiments/AOT/AOT_stimuli/rescaled_final/1516_rv.mp4	0.0	312.9849030971527	
43	280.32355284690857	movie	1		245	41.0	2.5	/experiments/AOT/AOT_stimuli/rescaled_final/1516_rv.mp4	0.0	313.4014890193939	2.499969005584717
43	281.5070037841797	pulse	1	t		41.0	2.5	/experiments/AOT/AOT_stimuli/rescaled_final/1516_rv.mp4	0.0	314.58493995666504	
43	282.8235218524933	fix_post	2		12	41.0	2.5	/experiments/AOT/AOT_stimuli/rescaled_final/1516_rv.mp4	0.0	315.90145802497864	0.09999608993530273
44	282.9235179424286	fix_pre	0		120	42.0	2.5	/experiments/AOT/AOT_stimuli/rescaled_final/0434_fw.mp4	0.0	316.00145411491394	1.0000569820404053
44	283.10698890686035	pulse	0	t		42.0	2.5	/experiments/AOT/AOT_stimuli/rescaled_final/0434_fw.mp4	0.0	316.1849250793457	
44	283.923574924469	movie	1		243	42.0	2.5	/experiments/AOT/AOT_stimuli/rescaled_final/0434_fw.mp4	0.0	317.00151109695435	2.499907970428467
44	284.7069048881531	pulse	1	t		42.0	2.5	/experiments/AOT/AOT_stimuli/rescaled_final/0434_fw.mp4	0.0	317.7848410606384	
44	286.30534195899963	pulse	1	t		42.0	2.5	/experiments/AOT/AOT_stimuli/rescaled_final/0434_fw.mp4	0.0	319.383278131485	
44	286.42348289489746	fix_post	2		12	42.0	2.5	/experiments/AOT/AOT_stimuli/rescaled_final/0434_fw.mp4	0.0	319.5014190673828	0.10009503364562988
45	286.5235779285431	fix_pre	0		120	43.0	2.5	/experiments/AOT/AOT_stimuli/rescaled_final/1322_rv.mp4	0.0	319.60151410102844	0.999985933303833
45	287.5235638618469	movie	1		245	43.0	2.5	/experiments/AOT/AOT_stimuli/rescaled_final/1322_rv.mp4	0.0	320.6015000343323	2.4998950958251953
45	287.9065330028534	pulse	1	t		43.0	2.5	/experiments/AOT/AOT_stimuli/rescaled_final/1322_rv.mp4	0.0	320.98446917533875	
45	289.50705099105835	pulse	1	t		43.0	2.5	/experiments/AOT/AOT_stimuli/rescaled_final/1322_rv.mp4	0.0	322.5849871635437	
45	290.0234589576721	fix_post	2		12	43.0	2.5	/experiments/AOT/AOT_stimuli/rescaled_final/1322_rv.mp4	0.0	323.10139513015747	0.1000828742980957
46	290.1235418319702	fix_pre	0		119	44.0	2.5	/experiments/AOT/AOT_stimuli/rescaled_final/0828_rv.mp4	0.0	323.20147800445557	0.9915449619293213
46	291.1069378852844	pulse	0	t		44.0	2.5	/experiments/AOT/AOT_stimuli/rescaled_final/0828_rv.mp4	0.0	324.1848740577698	
46	291.11508679389954	movie	1		247	44.0	2.5	/experiments/AOT/AOT_stimuli/rescaled_final/0828_rv.mp4	0.0	324.1930229663849	2.5080502033233643
46	292.70603489875793	pulse	1	t		44.0	2.5	/experiments/AOT/AOT_stimuli/rescaled_final/0828_rv.mp4	0.0	325.7839710712433	
46	293.6231369972229	fix_post	2		12	44.0	2.5	/experiments/AOT/AOT_stimuli/rescaled_final/0828_rv.mp4	0.0	326.70107316970825	0.10040283203125
47	293.72353982925415	fix_pre	0		120	45.0	2.5	/experiments/AOT/AOT_stimuli/rescaled_final/0462_fw.mp4	0.0	326.8014760017395	0.9997889995574951
47	294.30674982070923	pulse	0	t		45.0	2.5	/experiments/AOT/AOT_stimuli/rescaled_final/0462_fw.mp4	0.0	327.3846859931946	
47	294.72332882881165	movie	1		246	45.0	2.5	/experiments/AOT/AOT_stimuli/rescaled_final/0462_fw.mp4	0.0	327.801265001297	2.5002219676971436
47	295.9069948196411	pulse	1	t		45.0	2.5	/experiments/AOT/AOT_stimuli/rescaled_final/0462_fw.mp4	0.0	328.98493099212646	
47	297.2235507965088	fix_post	2		12	45.0	2.5	/experiments/AOT/AOT_stimuli/rescaled_final/0462_fw.mp4	0.0	330.30148696899414	0.09992003440856934
48	297.32347083091736	fix_pre	0		120	46.0	2.5	/experiments/AOT/AOT_stimuli/rescaled_final/0234_fw.mp4	0.0	330.4014070034027	0.9999380111694336
48	297.50695991516113	pulse	0	t		46.0	2.5	/experiments/AOT/AOT_stimuli/rescaled_final/0234_fw.mp4	0.0	330.5848960876465	
48	298.3234088420868	movie	1		244	46.0	2.5	/experiments/AOT/AOT_stimuli/rescaled_final/0234_fw.mp4	0.0	331.40134501457214	2.4999749660491943
48	299.10690784454346	pulse	1	t		46.0	2.5	/experiments/AOT/AOT_stimuli/rescaled_final/0234_fw.mp4	0.0	332.1848440170288	
48	300.7056198120117	pulse	1	t		46.0	2.5	/experiments/AOT/AOT_stimuli/rescaled_final/0234_fw.mp4	0.0	333.78355598449707	
48	300.823383808136	fix_post	2		12	46.0	2.5	/experiments/AOT/AOT_stimuli/rescaled_final/0234_fw.mp4	0.0	333.90131998062134	0.09998297691345215
49	300.92336678504944	fix_pre	0		120	47.0	2.5	blank	1.0	334.0013029575348	1.0000231266021729
49	301.9233899116516	movie	1		300	47.0	2.5	blank	1.0	335.00132608413696	2.4999608993530273
49	302.3069338798523	pulse	1	t		47.0	2.5	blank	1.0	335.38487005233765	
49	303.90686678886414	pulse	1	t		47.0	2.5	blank	1.0	336.9848029613495	
49	304.42335081100464	fix_post	2		12	47.0	2.5	blank	1.0	337.50128698349	0.10001802444458008
50	304.5233688354492	fix_pre	0		119	48.0	2.5	/experiments/AOT/AOT_stimuli/rescaled_final/0998_fw.mp4	0.0	337.60130500793457	0.9917490482330322
50	305.5068998336792	pulse	0	t		48.0	2.5	/experiments/AOT/AOT_stimuli/rescaled_final/0998_fw.mp4	0.0	338.58483600616455	
50	305.51511788368225	movie	1		247	48.0	2.5	/experiments/AOT/AOT_stimuli/rescaled_final/0998_fw.mp4	0.0	338.5930540561676	2.508352041244507
50	307.1062219142914	pulse	1	t		48.0	2.5	/experiments/AOT/AOT_stimuli/rescaled_final/0998_fw.mp4	0.0	340.18415808677673	
50	308.02346992492676	fix_post	2		12	48.0	2.5	/experiments/AOT/AOT_stimuli/rescaled_final/0998_fw.mp4	0.0	341.1014060974121	0.09988999366760254
51	308.12335991859436	fix_pre	0		120	49.0	2.5	/experiments/AOT/AOT_stimuli/rescaled_final/1461_rv.mp4	0.0	341.2012960910797	0.9999630451202393
51	308.7068238258362	pulse	0	t		49.0	2.5	/experiments/AOT/AOT_stimuli/rescaled_final/1461_rv.mp4	0.0	341.78475999832153	
51	309.1233229637146	movie	1		246	49.0	2.5	/experiments/AOT/AOT_stimuli/rescaled_final/1461_rv.mp4	0.0	342.20125913619995	2.500067949295044
51	310.3069097995758	pulse	1	t		49.0	2.5	/experiments/AOT/AOT_stimuli/rescaled_final/1461_rv.mp4	0.0	343.38484597206116	
51	311.62339091300964	fix_post	2		12	49.0	2.5	/experiments/AOT/AOT_stimuli/rescaled_final/1461_rv.mp4	0.0	344.701327085495	0.09992599487304688
52	311.7233169078827	fix_pre	0		120	50.0	2.5	/experiments/AOT/AOT_stimuli/rescaled_final/0290_rv.mp4	0.0	344.80125308036804	1.0000920295715332
52	311.9069039821625	pulse	0	t		50.0	2.5	/experiments/AOT/AOT_stimuli/rescaled_final/0290_rv.mp4	0.0	344.9848401546478	
52	312.7234089374542	movie	1		246	50.0	2.5	/experiments/AOT/AOT_stimuli/rescaled_final/0290_rv.mp4	0.0	345.8013451099396	2.4999048709869385
52	313.50686597824097	pulse	1	t		50.0	2.5	/experiments/AOT/AOT_stimuli/rescaled_final/0290_rv.mp4	0.0	346.5848021507263	
52	315.1030948162079	pulse	1	t		50.0	2.5	/experiments/AOT/AOT_stimuli/rescaled_final/0290_rv.mp4	0.0	348.18103098869324	
52	315.22331380844116	fix_post	2		12	50.0	2.5	/experiments/AOT/AOT_stimuli/rescaled_final/0290_rv.mp4	0.0	348.3012499809265	0.0999600887298584
53	315.323273897171	fix_pre	0		120	51.0	2.5	/experiments/AOT/AOT_stimuli/rescaled_final/2010_rv.mp4	0.0	348.4012100696564	1.0000441074371338
53	316.32331800460815	movie	1		244	51.0	2.5	/experiments/AOT/AOT_stimuli/rescaled_final/2010_rv.mp4	0.0	349.4012541770935	2.4999618530273438
53	316.7063059806824	pulse	1	t		51.0	2.5	/experiments/AOT/AOT_stimuli/rescaled_final/2010_rv.mp4	0.0	349.7842421531677	
53	318.30685591697693	pulse	1	t		51.0	2.5	/experiments/AOT/AOT_stimuli/rescaled_final/2010_rv.mp4	0.0	351.3847920894623	
53	318.8232798576355	fix_post	2		12	51.0	2.5	/experiments/AOT/AOT_stimuli/rescaled_final/2010_rv.mp4	0.0	351.90121603012085	0.09995913505554199
54	318.92323899269104	fix_pre	0		119	52.0	2.5	/experiments/AOT/AOT_stimuli/rescaled_final/1310_fw.mp4	0.0	352.0011751651764	0.9917328357696533
54	319.906861782074	pulse	0	t		52.0	2.5	/experiments/AOT/AOT_stimuli/rescaled_final/1310_fw.mp4	0.0	352.9847979545593	
54	319.9149718284607	movie	1		244	52.0	2.5	/experiments/AOT/AOT_stimuli/rescaled_final/1310_fw.mp4	0.0	352.99290800094604	2.5083861351013184
54	321.50800490379333	pulse	1	t		52.0	2.5	/experiments/AOT/AOT_stimuli/rescaled_final/1310_fw.mp4	0.0	354.5859410762787	
54	322.423357963562	fix_post	2		12	52.0	2.5	/experiments/AOT/AOT_stimuli/rescaled_final/1310_fw.mp4	0.0	355.50129413604736	0.09995102882385254
55	322.52330899238586	fix_pre	0		120	53.0	2.5	/experiments/AOT/AOT_stimuli/rescaled_final/1081_rv.mp4	0.0	355.6012451648712	0.9999878406524658
55	323.1070508956909	pulse	0	t		53.0	2.5	/experiments/AOT/AOT_stimuli/rescaled_final/1081_rv.mp4	0.0	356.18498706817627	
55	323.52329683303833	movie	1		243	53.0	2.5	/experiments/AOT/AOT_stimuli/rescaled_final/1081_rv.mp4	0.0	356.6012330055237	2.499981164932251
55	324.7067918777466	pulse	1	t		53.0	2.5	/experiments/AOT/AOT_stimuli/rescaled_final/1081_rv.mp4	0.0	357.78472805023193	
55	326.0232779979706	fix_post	2		12	53.0	2.5	/experiments/AOT/AOT_stimuli/rescaled_final/1081_rv.mp4	0.0	359.10121417045593	0.10010600090026855
56	326.12338399887085	fix_pre	0		120	54.0	2.5	/experiments/AOT/AOT_stimuli/rescaled_final/1926_fw.mp4	0.0	359.2013201713562	1.0000298023223877
56	326.3068788051605	pulse	0	t		54.0	2.5	/experiments/AOT/AOT_stimuli/rescaled_final/1926_fw.mp4	0.0	359.3848149776459	
56	327.12341380119324	movie	1		247	54.0	2.5	/experiments/AOT/AOT_stimuli/rescaled_final/1926_fw.mp4	0.0	360.2013499736786	2.4998700618743896
56	327.9068808555603	pulse	1	t		54.0	2.5	/experiments/AOT/AOT_stimuli/rescaled_final/1926_fw.mp4	0.0	360.98481702804565	
56	329.50682497024536	pulse	1	t		54.0	2.5	/experiments/AOT/AOT_stimuli/rescaled_final/1926_fw.mp4	0.0	362.5847611427307	
56	329.6232838630676	fix_post	2		12	54.0	2.5	/experiments/AOT/AOT_stimuli/rescaled_final/1926_fw.mp4	0.0	362.701220035553	0.10014009475708008
57	329.7234239578247	fix_pre	0		120	55.0	2.5	/experiments/AOT/AOT_stimuli/rescaled_final/1549_fw.mp4	0.0	362.80136013031006	0.9995720386505127
57	330.7229959964752	movie	1		246	55.0	2.5	/experiments/AOT/AOT_stimuli/rescaled_final/1549_fw.mp4	0.0	363.80093216896057	2.5002548694610596
57	331.1067349910736	pulse	1	t		55.0	2.5	/experiments/AOT/AOT_stimuli/rescaled_final/1549_fw.mp4	0.0	364.18467116355896	
57	332.7067859172821	pulse	1	t		55.0	2.5	/experiments/AOT/AOT_stimuli/rescaled_final/1549_fw.mp4	0.0	365.78472208976746	
57	333.2232508659363	fix_post	2		12	55.0	2.5	/experiments/AOT/AOT_stimuli/rescaled_final/1549_fw.mp4	0.0	366.30118703842163	0.10001111030578613
58	333.32326197624207	fix_pre	0		119	56.0	2.5	blank	1.0	366.4011981487274	0.9916019439697266
58	334.30672788619995	pulse	0	t		56.0	2.5	blank	1.0	367.3846640586853	
58	334.3148639202118	movie	1		301	56.0	2.5	blank	1.0	367.39280009269714	2.5084269046783447
58	335.906662940979	pulse	1	t		56.0	2.5	blank	1.0	368.98459911346436	
58	336.82329082489014	fix_post	2		12	56.0	2.5	blank	1.0	369.9012269973755	0.09989714622497559
59	336.9231879711151	fix_pre	0		120	57.0	2.5	/experiments/AOT/AOT_stimuli/rescaled_final/0434_fw.mp4	0.0	370.00112414360046	0.9999978542327881
59	337.5066909790039	pulse	0	t		57.0	2.5	/experiments/AOT/AOT_stimuli/rescaled_final/0434_fw.mp4	0.0	370.58462715148926	
59	337.9231858253479	movie	1		243	57.0	2.5	/experiments/AOT/AOT_stimuli/rescaled_final/0434_fw.mp4	0.0	371.00112199783325	2.5001060962677
59	339.106892824173	pulse	1	t		57.0	2.5	/experiments/AOT/AOT_stimuli/rescaled_final/0434_fw.mp4	0.0	372.1848289966583	
59	340.4232919216156	fix_post	2		12	57.0	2.5	/experiments/AOT/AOT_stimuli/rescaled_final/0434_fw.mp4	0.0	373.50122809410095	0.09997987747192383
60	340.5232717990875	fix_pre	0		120	58.0	2.5	/experiments/AOT/AOT_stimuli/rescaled_final/2158_fw.mp4	0.0	373.6012079715729	0.9999780654907227
60	340.7066979408264	pulse	0	t		58.0	2.5	/experiments/AOT/AOT_stimuli/rescaled_final/2158_fw.mp4	0.0	373.78463411331177	
60	341.52324986457825	movie	1		243	58.0	2.5	/experiments/AOT/AOT_stimuli/rescaled_final/2158_fw.mp4	0.0	374.6011860370636	2.500040054321289
60	342.30671191215515	pulse	1	t		58.0	2.5	/experiments/AOT/AOT_stimuli/rescaled_final/2158_fw.mp4	0.0	375.3846480846405	
60	343.9050679206848	pulse	1	t		58.0	2.5	/experiments/AOT/AOT_stimuli/rescaled_final/2158_fw.mp4	0.0	376.98300409317017	
60	344.02328991889954	fix_post	2		12	58.0	2.5	/experiments/AOT/AOT_stimuli/rescaled_final/2158_fw.mp4	0.0	377.1012260913849	0.09992504119873047
61	344.12321496009827	fix_pre	0		120	59.0	2.5	/experiments/AOT/AOT_stimuli/rescaled_final/1322_rv.mp4	0.0	377.2011511325836	1.0001039505004883
61	345.12331891059875	movie	1		245	59.0	2.5	/experiments/AOT/AOT_stimuli/rescaled_final/1322_rv.mp4	0.0	378.2012550830841	2.4999029636383057
61	345.50653290748596	pulse	1	t		59.0	2.5	/experiments/AOT/AOT_stimuli/rescaled_final/1322_rv.mp4	0.0	378.5844690799713	
61	347.10615491867065	pulse	1	t		59.0	2.5	/experiments/AOT/AOT_stimuli/rescaled_final/1322_rv.mp4	0.0	380.184091091156	
61	347.62322187423706	fix_post	2		12	59.0	2.5	/experiments/AOT/AOT_stimuli/rescaled_final/1322_rv.mp4	0.0	380.7011580467224	0.100006103515625
62	347.7232279777527	fix_pre	0		119	60.0	2.5	/experiments/AOT/AOT_stimuli/rescaled_final/0910_fw.mp4	0.0	380.80116415023804	0.9912228584289551
62	348.70621395111084	pulse	0	t		60.0	2.5	/experiments/AOT/AOT_stimuli/rescaled_final/0910_fw.mp4	0.0	381.7841501235962	
62	348.71445083618164	movie	1		244	60.0	2.5	/experiments/AOT/AOT_stimuli/rescaled_final/0910_fw.mp4	0.0	381.792387008667	2.508713960647583
62	350.30584597587585	pulse	1	t		60.0	2.5	/experiments/AOT/AOT_stimuli/rescaled_final/0910_fw.mp4	0.0	383.3837821483612	
62	351.2231647968292	fix_post	2		12	60.0	2.5	/experiments/AOT/AOT_stimuli/rescaled_final/0910_fw.mp4	0.0	384.3011009693146	0.10004401206970215
63	351.3232088088989	fix_pre	0		120	61.0	2.5	blank	1.0	384.4011449813843	0.9999101161956787
63	351.90672993659973	pulse	0	t		61.0	2.5	blank	1.0	384.9846661090851	
63	352.3231189250946	movie	1		300	61.0	2.5	blank	1.0	385.40105509757996	2.500174045562744
63	353.5067059993744	pulse	1	t		61.0	2.5	blank	1.0	386.58464217185974	
63	354.82329297065735	fix_post	2		12	61.0	2.5	blank	1.0	387.9012291431427	0.09986281394958496
64	354.92315578460693	fix_pre	0		120	62.0	2.5	/experiments/AOT/AOT_stimuli/rescaled_final/2020_fw.mp4	0.0	388.0010919570923	1.0000581741333008
64	355.106675863266	pulse	0	t		62.0	2.5	/experiments/AOT/AOT_stimuli/rescaled_final/2020_fw.mp4	0.0	388.18461203575134	
64	355.92321395874023	movie	1		243	62.0	2.5	/experiments/AOT/AOT_stimuli/rescaled_final/2020_fw.mp4	0.0	389.0011501312256	2.499910831451416
64	356.7065439224243	pulse	1	t		62.0	2.5	/experiments/AOT/AOT_stimuli/rescaled_final/2020_fw.mp4	0.0	389.78448009490967	
64	358.3047089576721	pulse	1	t		62.0	2.5	/experiments/AOT/AOT_stimuli/rescaled_final/2020_fw.mp4	0.0	391.38264513015747	
64	358.42312479019165	fix_post	2		12	62.0	2.5	/experiments/AOT/AOT_stimuli/rescaled_final/2020_fw.mp4	0.0	391.501060962677	0.09961915016174316
65	358.5227439403534	fix_pre	0		120	63.0	2.5	/experiments/AOT/AOT_stimuli/rescaled_final/0823_fw.mp4	0.0	391.60068011283875	1.0003609657287598
65	359.52310490608215	movie	1		245	63.0	2.5	/experiments/AOT/AOT_stimuli/rescaled_final/0823_fw.mp4	0.0	392.6010410785675	2.5000159740448
65	359.90612292289734	pulse	1	t		63.0	2.5	/experiments/AOT/AOT_stimuli/rescaled_final/0823_fw.mp4	0.0	392.9840590953827	
65	361.50661396980286	pulse	1	t		63.0	2.5	/experiments/AOT/AOT_stimuli/rescaled_final/0823_fw.mp4	0.0	394.5845501422882	
65	362.02312088012695	fix_post	2		12	63.0	2.5	/experiments/AOT/AOT_stimuli/rescaled_final/0823_fw.mp4	0.0	395.1010570526123	0.09996509552001953
66	362.123085975647	fix_pre	0		119	64.0	2.5	/experiments/AOT/AOT_stimuli/rescaled_final/2123_rv.mp4	0.0	395.2010221481323	0.9916329383850098
66	363.10655784606934	pulse	0	t		64.0	2.5	/experiments/AOT/AOT_stimuli/rescaled_final/2123_rv.mp4	0.0	396.1844940185547	
66	363.114718914032	movie	1		246	64.0	2.5	/experiments/AOT/AOT_stimuli/rescaled_final/2123_rv.mp4	0.0	396.19265508651733	2.50839900970459
66	364.70656394958496	pulse	1	t		64.0	2.5	/experiments/AOT/AOT_stimuli/rescaled_final/2123_rv.mp4	0.0	397.7845001220703	
66	365.6231179237366	fix_post	2		12	64.0	2.5	/experiments/AOT/AOT_stimuli/rescaled_final/2123_rv.mp4	0.0	398.7010540962219	0.09961485862731934
67	365.7227327823639	fix_pre	0		120	65.0	2.5	/experiments/AOT/AOT_stimuli/rescaled_final/2010_fw.mp4	0.0	398.80066895484924	1.000319004058838
67	366.3066189289093	pulse	0	t		65.0	2.5	/experiments/AOT/AOT_stimuli/rescaled_final/2010_fw.mp4	0.0	399.38455510139465	
67	366.72305178642273	movie	1		245	65.0	2.5	/experiments/AOT/AOT_stimuli/rescaled_final/2010_fw.mp4	0.0	399.8009879589081	2.4996650218963623
67	367.90663290023804	pulse	1	t		65.0	2.5	/experiments/AOT/AOT_stimuli/rescaled_final/2010_fw.mp4	0.0	400.9845690727234	
67	369.2227168083191	fix_post	2		12	65.0	2.5	/experiments/AOT/AOT_stimuli/rescaled_final/2010_fw.mp4	0.0	402.30065298080444	0.1003570556640625
68	369.32307386398315	fix_pre	0		120	66.0	2.5	/experiments/AOT/AOT_stimuli/rescaled_final/0659_fw.mp4	0.0	402.4010100364685	0.9999771118164062
68	369.5065839290619	pulse	0	t		66.0	2.5	/experiments/AOT/AOT_stimuli/rescaled_final/0659_fw.mp4	0.0	402.58452010154724	
68	370.32305097579956	movie	1		244	66.0	2.5	/experiments/AOT/AOT_stimuli/rescaled_final/0659_fw.mp4	0.0	403.4009871482849	2.4999518394470215
68	371.10658288002014	pulse	1	t		66.0	2.5	/experiments/AOT/AOT_stimuli/rescaled_final/0659_fw.mp4	0.0	404.1845190525055	
68	372.70520281791687	pulse	1	t		66.0	2.5	/experiments/AOT/AOT_stimuli/rescaled_final/0659_fw.mp4	0.0	405.7831389904022	
68	372.8230028152466	fix_post	2		12	66.0	2.5	/experiments/AOT/AOT_stimuli/rescaled_final/0659_fw.mp4	0.0	405.90093898773193	0.10010409355163574
69	372.9231069087982	fix_pre	0		120	67.0	2.5	/experiments/AOT/AOT_stimuli/rescaled_final/1830_fw.mp4	0.0	406.00104308128357	0.9999549388885498
69	373.92306184768677	movie	1		246	67.0	2.5	/experiments/AOT/AOT_stimuli/rescaled_final/1830_fw.mp4	0.0	407.0009980201721	2.499937057495117
69	374.3060278892517	pulse	1	t		67.0	2.5	/experiments/AOT/AOT_stimuli/rescaled_final/1830_fw.mp4	0.0	407.38396406173706	
69	375.90653896331787	pulse	1	t		67.0	2.5	/experiments/AOT/AOT_stimuli/rescaled_final/1830_fw.mp4	0.0	408.9844751358032	
69	376.4229989051819	fix_post	2		12	67.0	2.5	/experiments/AOT/AOT_stimuli/rescaled_final/1830_fw.mp4	0.0	409.50093507766724	0.10004210472106934
70	376.52304100990295	fix_pre	0		119	68.0	2.5	/experiments/AOT/AOT_stimuli/rescaled_final/1095_fw.mp4	0.0	409.6009771823883	0.9916257858276367
70	377.50651478767395	pulse	0	t		68.0	2.5	/experiments/AOT/AOT_stimuli/rescaled_final/1095_fw.mp4	0.0	410.5844509601593	
70	377.5146667957306	movie	1		247	68.0	2.5	/experiments/AOT/AOT_stimuli/rescaled_final/1095_fw.mp4	0.0	410.59260296821594	2.5083491802215576
70	379.10602593421936	pulse	1	t		68.0	2.5	/experiments/AOT/AOT_stimuli/rescaled_final/1095_fw.mp4	0.0	412.1839621067047	
70	380.02301597595215	fix_post	2		12	68.0	2.5	/experiments/AOT/AOT_stimuli/rescaled_final/1095_fw.mp4	0.0	413.1009521484375	0.09993886947631836
71	380.12295484542847	fix_pre	0		120	69.0	2.5	/experiments/AOT/AOT_stimuli/rescaled_final/2007_fw.mp4	0.0	413.2008910179138	0.999981164932251
71	380.70655488967896	pulse	0	t		69.0	2.5	/experiments/AOT/AOT_stimuli/rescaled_final/2007_fw.mp4	0.0	413.7844910621643	
71	381.1229360103607	movie	1		245	69.0	2.5	/experiments/AOT/AOT_stimuli/rescaled_final/2007_fw.mp4	0.0	414.20087218284607	2.4996747970581055
71	382.3066189289093	pulse	1	t		69.0	2.5	/experiments/AOT/AOT_stimuli/rescaled_final/2007_fw.mp4	0.0	415.38455510139465	
71	383.6226108074188	fix_post	2		12	69.0	2.5	/experiments/AOT/AOT_stimuli/rescaled_final/2007_fw.mp4	0.0	416.7005469799042	0.10047698020935059
72	383.7230877876282	fix_pre	0		120	70.0	2.5	blank	1.0	416.8010239601135	0.999946117401123
72	383.90653896331787	pulse	0	t		70.0	2.5	blank	1.0	416.9844751358032	
72	384.7230339050293	movie	1		300	70.0	2.5	blank	1.0	417.80097007751465	2.4999189376831055
72	385.5065498352051	pulse	1	t		70.0	2.5	blank	1.0	418.58448600769043	
72	387.1064598560333	pulse	1	t		70.0	2.5	blank	1.0	420.1843960285187	
72	387.2229528427124	fix_post	2		12	70.0	2.5	blank	1.0	420.30088901519775	0.10001111030578613
73	387.3229639530182	fix_pre	0		120	71.0	2.5	/experiments/AOT/AOT_stimuli/rescaled_final/2155_fw.mp4	0.0	420.40090012550354	1.0000770092010498
73	388.32304096221924	movie	1		245	71.0	2.5	/experiments/AOT/AOT_stimuli/rescaled_final/2155_fw.mp4	0.0	421.4009771347046	2.499924898147583
73	388.7075378894806	pulse	1	t		71.0	2.5	/experiments/AOT/AOT_stimuli/rescaled_final/2155_fw.mp4	0.0	421.78547406196594	
73	390.30654978752136	pulse	1	t		71.0	2.5	/experiments/AOT/AOT_stimuli/rescaled_final/2155_fw.mp4	0.0	423.3844859600067	
73	390.8229658603668	fix_post	2		12	71.0	2.5	/experiments/AOT/AOT_stimuli/rescaled_final/2155_fw.mp4	0.0	423.9009020328522	0.10009193420410156
74	390.9230577945709	fix_pre	0		119	72.0	2.5	/experiments/AOT/AOT_stimuli/rescaled_final/1749_fw.mp4	0.0	424.0009939670563	0.9916000366210938
74	391.90654397010803	pulse	0	t		72.0	2.5	/experiments/AOT/AOT_stimuli/rescaled_final/1749_fw.mp4	0.0	424.9844801425934	
74	391.914657831192	movie	1		245	72.0	2.5	/experiments/AOT/AOT_stimuli/rescaled_final/1749_fw.mp4	0.0	424.99259400367737	2.50826096534729
74	393.5064489841461	pulse	1	t		72.0	2.5	/experiments/AOT/AOT_stimuli/rescaled_final/1749_fw.mp4	0.0	426.58438515663147	
74	394.4229187965393	fix_post	2		12	72.0	2.5	/experiments/AOT/AOT_stimuli/rescaled_final/1749_fw.mp4	0.0	427.50085496902466	0.09995317459106445
75	394.52287197113037	fix_pre	0		120	73.0	2.5	/experiments/AOT/AOT_stimuli/rescaled_final/1788_rv.mp4	0.0	427.6008081436157	1.0000779628753662
75	395.106568813324	pulse	0	t		73.0	2.5	/experiments/AOT/AOT_stimuli/rescaled_final/1788_rv.mp4	0.0	428.1845049858093	
75	395.52294993400574	movie	1		244	73.0	2.5	/experiments/AOT/AOT_stimuli/rescaled_final/1788_rv.mp4	0.0	428.6008861064911	2.500027894973755
75	396.7064528465271	pulse	1	t		73.0	2.5	/experiments/AOT/AOT_stimuli/rescaled_final/1788_rv.mp4	0.0	429.78438901901245	
75	398.0229778289795	fix_post	2		12	73.0	2.5	/experiments/AOT/AOT_stimuli/rescaled_final/1788_rv.mp4	0.0	431.10091400146484	0.09995913505554199
76	398.12293696403503	fix_pre	0		120	74.0	2.5	/experiments/AOT/AOT_stimuli/rescaled_final/0299_rv.mp4	0.0	431.2008731365204	1.000018835067749
76	398.3064179420471	pulse	0	t		74.0	2.5	/experiments/AOT/AOT_stimuli/rescaled_final/0299_rv.mp4	0.0	431.38435411453247	
76	399.1229557991028	movie	1		245	74.0	2.5	/experiments/AOT/AOT_stimuli/rescaled_final/0299_rv.mp4	0.0	432.20089197158813	2.499993085861206
76	399.9066159725189	pulse	1	t		74.0	2.5	/experiments/AOT/AOT_stimuli/rescaled_final/0299_rv.mp4	0.0	432.9845521450043	
76	401.5027279853821	pulse	1	t		74.0	2.5	/experiments/AOT/AOT_stimuli/rescaled_final/0299_rv.mp4	0.0	434.58066415786743	
76	401.622948884964	fix_post	2		12	74.0	2.5	/experiments/AOT/AOT_stimuli/rescaled_final/0299_rv.mp4	0.0	434.70088505744934	0.10004091262817383
77	401.72298979759216	fix_pre	0		120	75.0	2.5	/experiments/AOT/AOT_stimuli/rescaled_final/0181_fw.mp4	0.0	434.8009259700775	0.9995360374450684
77	402.72252583503723	movie	1		247	75.0	2.5	/experiments/AOT/AOT_stimuli/rescaled_final/0181_fw.mp4	0.0	435.8004620075226	2.5005390644073486
77	403.1065728664398	pulse	1	t		75.0	2.5	/experiments/AOT/AOT_stimuli/rescaled_final/0181_fw.mp4	0.0	436.18450903892517	
77	404.70599484443665	pulse	1	t		75.0	2.5	/experiments/AOT/AOT_stimuli/rescaled_final/0181_fw.mp4	0.0	437.783931016922	
77	405.2230648994446	fix_post	2		12	75.0	2.5	/experiments/AOT/AOT_stimuli/rescaled_final/0181_fw.mp4	0.0	438.30100107192993	0.09992599487304688
78	405.3229908943176	fix_pre	0		119	76.0	2.5	/experiments/AOT/AOT_stimuli/rescaled_final/1425_rv.mp4	0.0	438.400927066803	0.9918220043182373
78	406.30659079551697	pulse	0	t		76.0	2.5	/experiments/AOT/AOT_stimuli/rescaled_final/1425_rv.mp4	0.0	439.3845269680023	
78	406.31481289863586	movie	1		248	76.0	2.5	/experiments/AOT/AOT_stimuli/rescaled_final/1425_rv.mp4	0.0	439.3927490711212	2.5081100463867188
78	407.90586280822754	pulse	1	t		76.0	2.5	/experiments/AOT/AOT_stimuli/rescaled_final/1425_rv.mp4	0.0	440.9837989807129	
78	408.8229229450226	fix_post	2		12	76.0	2.5	/experiments/AOT/AOT_stimuli/rescaled_final/1425_rv.mp4	0.0	441.90085911750793	0.10003995895385742
79	408.92296290397644	fix_pre	0		120	77.0	2.5	blank	1.0	442.0008990764618	0.9999120235443115
79	409.5063807964325	pulse	0	t		77.0	2.5	blank	1.0	442.58431696891785	
79	409.92287492752075	movie	1		300	77.0	2.5	blank	1.0	443.0008111000061	2.500005006790161
79	411.10636496543884	pulse	1	t		77.0	2.5	blank	1.0	444.1843011379242	
79	412.4228799343109	fix_post	2		12	77.0	2.5	blank	1.0	445.50081610679626	0.09993505477905273
80	412.52281498908997	fix_pre	0		120	78.0	2.5	/experiments/AOT/AOT_stimuli/rescaled_final/1368_fw.mp4	0.0	445.6007511615753	1.000025987625122
80	412.7063479423523	pulse	0	t		78.0	2.5	/experiments/AOT/AOT_stimuli/rescaled_final/1368_fw.mp4	0.0	445.78428411483765	
80	413.5228409767151	movie	1		242	78.0	2.5	/experiments/AOT/AOT_stimuli/rescaled_final/1368_fw.mp4	0.0	446.60077714920044	2.49996280670166
80	414.3063108921051	pulse	1	t		78.0	2.5	/experiments/AOT/AOT_stimuli/rescaled_final/1368_fw.mp4	0.0	447.38424706459045	
80	415.9047589302063	pulse	1	t		78.0	2.5	/experiments/AOT/AOT_stimuli/rescaled_final/1368_fw.mp4	0.0	448.98269510269165	
80	416.02280378341675	fix_post	2		12	78.0	2.5	/experiments/AOT/AOT_stimuli/rescaled_final/1368_fw.mp4	0.0	449.1007399559021	0.09997415542602539
81	416.1227779388428	fix_pre	0		120	79.0	2.5	/experiments/AOT/AOT_stimuli/rescaled_final/0792_rv.mp4	0.0	449.2007141113281	1.0001280307769775
81	417.12290596961975	movie	1		244	79.0	2.5	/experiments/AOT/AOT_stimuli/rescaled_final/0792_rv.mp4	0.0	450.2008421421051	2.499915838241577
81	417.50621485710144	pulse	1	t		79.0	2.5	/experiments/AOT/AOT_stimuli/rescaled_final/0792_rv.mp4	0.0	450.5841510295868	
81	419.10624384880066	pulse	1	t		79.0	2.5	/experiments/AOT/AOT_stimuli/rescaled_final/0792_rv.mp4	0.0	452.184180021286	
81	419.6228218078613	fix_post	2		12	79.0	2.5	/experiments/AOT/AOT_stimuli/rescaled_final/0792_rv.mp4	0.0	452.7007579803467	0.10003304481506348
82	419.7228548526764	fix_pre	0		119	80.0	2.5	/experiments/AOT/AOT_stimuli/rescaled_final/1212_fw.mp4	0.0	452.80079102516174	0.9916019439697266
82	420.70634388923645	pulse	0	t		80.0	2.5	/experiments/AOT/AOT_stimuli/rescaled_final/1212_fw.mp4	0.0	453.7842800617218	
82	420.7144567966461	movie	1		247	80.0	2.5	/experiments/AOT/AOT_stimuli/rescaled_final/1212_fw.mp4	0.0	453.79239296913147	2.5079150199890137
82	422.30588698387146	pulse	1	t		80.0	2.5	/experiments/AOT/AOT_stimuli/rescaled_final/1212_fw.mp4	0.0	455.3838231563568	
82	423.22237181663513	fix_post	2		12	80.0	2.5	/experiments/AOT/AOT_stimuli/rescaled_final/1212_fw.mp4	0.0	456.3003079891205	0.10039496421813965
83	423.32276678085327	fix_pre	0		120	81.0	2.5	/experiments/AOT/AOT_stimuli/rescaled_final/0479_fw.mp4	0.0	456.4007029533386	1.0000100135803223
83	423.9062659740448	pulse	0	t		81.0	2.5	/experiments/AOT/AOT_stimuli/rescaled_final/0479_fw.mp4	0.0	456.98420214653015	
83	424.3227767944336	movie	1		246	81.0	2.5	/experiments/AOT/AOT_stimuli/rescaled_final/0479_fw.mp4	0.0	457.40071296691895	2.4999711513519287
83	425.50633692741394	pulse	1	t		81.0	2.5	/experiments/AOT/AOT_stimuli/rescaled_final/0479_fw.mp4	0.0	458.5842730998993	
83	426.8227479457855	fix_post	2		12	81.0	2.5	/experiments/AOT/AOT_stimuli/rescaled_final/0479_fw.mp4	0.0	459.9006841182709	0.09999799728393555
84	426.92274594306946	fix_pre	0		120	82.0	2.5	blank	1.0	460.0006821155548	1.0000338554382324
84	427.1062729358673	pulse	0	t		82.0	2.5	blank	1.0	460.18420910835266	
84	427.9227797985077	movie	1		300	82.0	2.5	blank	1.0	461.00071597099304	2.5000381469726562
84	428.7062668800354	pulse	1	t		82.0	2.5	blank	1.0	461.78420305252075	
84	430.30629682540894	pulse	1	t		82.0	2.5	blank	1.0	463.3842329978943	
84	430.42281794548035	fix_post	2		12	82.0	2.5	blank	1.0	463.5007541179657	0.09988093376159668
85	430.52269887924194	fix_pre	0		120	83.0	2.5	/experiments/AOT/AOT_stimuli/rescaled_final/0870_fw.mp4	0.0	463.6006350517273	1.0001220703125
85	431.52282094955444	movie	1		244	83.0	2.5	/experiments/AOT/AOT_stimuli/rescaled_final/0870_fw.mp4	0.0	464.6007571220398	2.499850034713745
85	431.9060847759247	pulse	1	t		83.0	2.5	/experiments/AOT/AOT_stimuli/rescaled_final/0870_fw.mp4	0.0	464.98402094841003	
85	433.5062139034271	pulse	1	t		83.0	2.5	/experiments/AOT/AOT_stimuli/rescaled_final/0870_fw.mp4	0.0	466.5841500759125	
85	434.0226709842682	fix_post	2		12	83.0	2.5	/experiments/AOT/AOT_stimuli/rescaled_final/0870_fw.mp4	0.0	467.10060715675354	0.10006380081176758
87	434.12273478507996	stim	0		1716					467.2006709575653	14.299995183944702
87	435.10627579689026	pulse	0	t						468.1842119693756	
87	436.7062418460846	pulse	0	t						469.78417801856995	
87	438.3063027858734	pulse	0	t						471.38423895835876	
87	439.906201839447	pulse	0	t						472.9841380119324	
87	441.5062208175659	pulse	0	t						474.58415699005127	
87	443.10618782043457	pulse	0	t						476.1841239929199	
87	444.70617294311523	pulse	0	t						477.7841091156006	
87	446.30611300468445	pulse	0	t						479.3840491771698	
87	447.9061679840088	pulse	0	t						480.98410415649414	
