trial_nr	onset	event_type	phase	response	nr_frames	movie_index	movie_duration	movie_file	blank	onset_abs	duration
0	0.1330864429473877	stim	0		1					15.719438791275024	0.008282661437988281
0	0.13457202911376953	response	0	space						15.720924377441406	
1	0.14136910438537598	stim	0		4780					15.727721452713013	39.8508677482605
1	39.982417345047	pulse	0	t						55.568769693374634	
1	39.992236852645874	stim	1		1716					55.57858920097351	14.307297945022583
1	41.5729022026062	pulse	1	t						57.15925455093384	
1	43.1730272769928	pulse	1	t						58.759379625320435	
1	44.77332067489624	pulse	1	t						60.35967302322388	
1	46.37365484237671	pulse	1	t						61.960007190704346	
1	47.9737811088562	pulse	1	t						63.56013345718384	
1	49.574010610580444	pulse	1	t						65.16036295890808	
1	51.17433452606201	pulse	1	t						66.76068687438965	
1	52.77455687522888	pulse	1	t						68.36090922355652	
2	54.29953479766846	fix_pre	0		10	0.0	2.5	/experiments/Knapen_AOT/AOT_stimuli/rescaled_final/2040_fw.mp4	0.0	69.8858871459961	0.10003113746643066
2	54.374725580215454	pulse	0	t		0.0	2.5	/experiments/Knapen_AOT/AOT_stimuli/rescaled_final/2040_fw.mp4	0.0	69.96107792854309	
2	54.39956593513489	movie	1		291	0.0	2.5	/experiments/Knapen_AOT/AOT_stimuli/rescaled_final/2040_fw.mp4	0.0	69.98591828346252	2.4920146465301514
2	55.97415614128113	pulse	1	t		0.0	2.5	/experiments/Knapen_AOT/AOT_stimuli/rescaled_final/2040_fw.mp4	0.0	71.56050848960876	
2	56.89158058166504	fix_post	2		12	0.0	2.5	/experiments/Knapen_AOT/AOT_stimuli/rescaled_final/2040_fw.mp4	0.0	72.47793292999268	0.10017704963684082
3	56.99175763130188	fix_pre	0		120	1.0	2.5	/experiments/Knapen_AOT/AOT_stimuli/rescaled_final/0295_fw.mp4	0.0	72.57810997962952	1.0083563327789307
3	57.5752170085907	pulse	0	t		1.0	2.5	/experiments/Knapen_AOT/AOT_stimuli/rescaled_final/0295_fw.mp4	0.0	73.16156935691833	
3	58.00011396408081	movie	1		290	1.0	2.5	/experiments/Knapen_AOT/AOT_stimuli/rescaled_final/0295_fw.mp4	0.0	73.58646631240845	2.492180347442627
3	59.173442363739014	pulse	1	t		1.0	2.5	/experiments/Knapen_AOT/AOT_stimuli/rescaled_final/0295_fw.mp4	0.0	74.75979471206665	
3	60.49229431152344	fix_post	2		12	1.0	2.5	/experiments/Knapen_AOT/AOT_stimuli/rescaled_final/0295_fw.mp4	0.0	76.07864665985107	0.0998682975769043
4	60.59216260910034	fix_pre	0		120	2.0	2.5	/experiments/Knapen_AOT/AOT_stimuli/rescaled_final/0497_rv.mp4	0.0	76.17851495742798	1.0085158348083496
4	60.775799036026	pulse	0	t		2.0	2.5	/experiments/Knapen_AOT/AOT_stimuli/rescaled_final/0497_rv.mp4	0.0	76.36215138435364	
4	61.60067844390869	movie	1		276	2.0	2.5	/experiments/Knapen_AOT/AOT_stimuli/rescaled_final/0497_rv.mp4	0.0	77.18703079223633	2.492006301879883
4	62.37390875816345	pulse	1	t		2.0	2.5	/experiments/Knapen_AOT/AOT_stimuli/rescaled_final/0497_rv.mp4	0.0	77.96026110649109	
4	63.97393751144409	pulse	1	t		2.0	2.5	/experiments/Knapen_AOT/AOT_stimuli/rescaled_final/0497_rv.mp4	0.0	79.56028985977173	
4	64.09268474578857	fix_post	2		12	2.0	2.5	/experiments/Knapen_AOT/AOT_stimuli/rescaled_final/0497_rv.mp4	0.0	79.67903709411621	0.1000509262084961
5	64.19273567199707	fix_pre	0		120	3.0	2.5	/experiments/Knapen_AOT/AOT_stimuli/rescaled_final/1771_rv.mp4	0.0	79.7790880203247	1.0084402561187744
5	65.20117592811584	movie	1		285	3.0	2.5	/experiments/Knapen_AOT/AOT_stimuli/rescaled_final/1771_rv.mp4	0.0	80.78752827644348	2.4920268058776855
5	65.57446503639221	pulse	1	t		3.0	2.5	/experiments/Knapen_AOT/AOT_stimuli/rescaled_final/1771_rv.mp4	0.0	81.16081738471985	
5	67.17470383644104	pulse	1	t		3.0	2.5	/experiments/Knapen_AOT/AOT_stimuli/rescaled_final/1771_rv.mp4	0.0	82.76105618476868	
5	67.69320273399353	fix_post	2		12	3.0	2.5	/experiments/Knapen_AOT/AOT_stimuli/rescaled_final/1771_rv.mp4	0.0	83.27955508232117	0.10004496574401855
6	67.79324769973755	fix_pre	0		119	4.0	2.5	/experiments/Knapen_AOT/AOT_stimuli/rescaled_final/1812_fw.mp4	0.0	83.37960004806519	1.0001497268676758
6	68.77700638771057	pulse	0	t		4.0	2.5	/experiments/Knapen_AOT/AOT_stimuli/rescaled_final/1812_fw.mp4	0.0	84.36335873603821	
6	68.79339742660522	movie	1		274	4.0	2.5	/experiments/Knapen_AOT/AOT_stimuli/rescaled_final/1812_fw.mp4	0.0	84.37974977493286	2.5003716945648193
6	70.3754391670227	pulse	1	t		4.0	2.5	/experiments/Knapen_AOT/AOT_stimuli/rescaled_final/1812_fw.mp4	0.0	85.96179151535034	
6	71.29376912117004	fix_post	2		12	4.0	2.5	/experiments/Knapen_AOT/AOT_stimuli/rescaled_final/1812_fw.mp4	0.0	86.88012146949768	0.1000223159790039
7	71.39379143714905	fix_pre	0		120	5.0	2.5	/experiments/Knapen_AOT/AOT_stimuli/rescaled_final/0296_fw.mp4	0.0	86.98014378547668	1.0084826946258545
7	71.97771954536438	pulse	0	t		5.0	2.5	/experiments/Knapen_AOT/AOT_stimuli/rescaled_final/0296_fw.mp4	0.0	87.56407189369202	
7	72.4022741317749	movie	1		266	5.0	2.5	/experiments/Knapen_AOT/AOT_stimuli/rescaled_final/0296_fw.mp4	0.0	87.98862648010254	2.492039442062378
7	73.57609486579895	pulse	1	t		5.0	2.5	/experiments/Knapen_AOT/AOT_stimuli/rescaled_final/0296_fw.mp4	0.0	89.16244721412659	
7	74.89431357383728	fix_post	2		12	5.0	2.5	/experiments/Knapen_AOT/AOT_stimuli/rescaled_final/0296_fw.mp4	0.0	90.48066592216492	0.1000218391418457
8	74.99433541297913	fix_pre	0		120	6.0	2.5	blank	1.0	90.58068776130676	1.000133752822876
8	75.17795753479004	pulse	0	t		6.0	2.5	blank	1.0	90.76430988311768	
8	75.994469165802	movie	1		300	6.0	2.5	blank	1.0	91.58082151412964	2.5003607273101807
8	76.77818369865417	pulse	1	t		6.0	2.5	blank	1.0	92.36453604698181	
8	78.37845635414124	pulse	1	t		6.0	2.5	blank	1.0	93.96480870246887	
8	78.49482989311218	fix_post	2		12	6.0	2.5	blank	1.0	94.08118224143982	0.10003328323364258
9	78.59486317634583	fix_pre	0		120	7.0	2.5	/experiments/Knapen_AOT/AOT_stimuli/rescaled_final/0977_fw.mp4	0.0	94.18121552467346	1.0085058212280273
9	79.60336899757385	movie	1		282	7.0	2.5	/experiments/Knapen_AOT/AOT_stimuli/rescaled_final/0977_fw.mp4	0.0	95.18972134590149	2.4920389652252197
9	79.9768180847168	pulse	1	t		7.0	2.5	/experiments/Knapen_AOT/AOT_stimuli/rescaled_final/0977_fw.mp4	0.0	95.56317043304443	
9	81.57680034637451	pulse	1	t		7.0	2.5	/experiments/Knapen_AOT/AOT_stimuli/rescaled_final/0977_fw.mp4	0.0	97.16315269470215	
9	82.09540796279907	fix_post	2		12	7.0	2.5	/experiments/Knapen_AOT/AOT_stimuli/rescaled_final/0977_fw.mp4	0.0	97.68176031112671	0.10006403923034668
10	82.19547200202942	fix_pre	0		119	8.0	2.5	/experiments/Knapen_AOT/AOT_stimuli/rescaled_final/1018_fw.mp4	0.0	97.78182435035706	1.000133991241455
10	83.17928838729858	pulse	0	t		8.0	2.5	/experiments/Knapen_AOT/AOT_stimuli/rescaled_final/1018_fw.mp4	0.0	98.76564073562622	
10	83.19560599327087	movie	1		288	8.0	2.5	/experiments/Knapen_AOT/AOT_stimuli/rescaled_final/1018_fw.mp4	0.0	98.78195834159851	2.500333786010742
10	84.77769207954407	pulse	1	t		8.0	2.5	/experiments/Knapen_AOT/AOT_stimuli/rescaled_final/1018_fw.mp4	0.0	100.3640444278717	
10	85.69593977928162	fix_post	2		12	8.0	2.5	/experiments/Knapen_AOT/AOT_stimuli/rescaled_final/1018_fw.mp4	0.0	101.28229212760925	0.10000967979431152
11	85.79594945907593	fix_pre	0		120	9.0	2.5	/experiments/Knapen_AOT/AOT_stimuli/rescaled_final/0185_fw.mp4	0.0	101.38230180740356	1.0085673332214355
11	86.37191390991211	pulse	0	t		9.0	2.5	/experiments/Knapen_AOT/AOT_stimuli/rescaled_final/0185_fw.mp4	0.0	101.95826625823975	
11	86.80451679229736	movie	1		277	9.0	2.5	/experiments/Knapen_AOT/AOT_stimuli/rescaled_final/0185_fw.mp4	0.0	102.390869140625	2.4919965267181396
11	87.97179961204529	pulse	1	t		9.0	2.5	/experiments/Knapen_AOT/AOT_stimuli/rescaled_final/0185_fw.mp4	0.0	103.55815196037292	
11	89.2965133190155	fix_post	2		12	9.0	2.5	/experiments/Knapen_AOT/AOT_stimuli/rescaled_final/0185_fw.mp4	0.0	104.88286566734314	0.10002493858337402
12	89.39653825759888	fix_pre	0		120	10.0	2.5	/experiments/Knapen_AOT/AOT_stimuli/rescaled_final/0566_rv.mp4	0.0	104.98289060592651	1.0084595680236816
12	89.57179713249207	pulse	0	t		10.0	2.5	/experiments/Knapen_AOT/AOT_stimuli/rescaled_final/0566_rv.mp4	0.0	105.1581494808197	
12	90.40499782562256	movie	1		286	10.0	2.5	/experiments/Knapen_AOT/AOT_stimuli/rescaled_final/0566_rv.mp4	0.0	105.9913501739502	2.492017984390259
12	91.17200517654419	pulse	1	t		10.0	2.5	/experiments/Knapen_AOT/AOT_stimuli/rescaled_final/0566_rv.mp4	0.0	106.75835752487183	
12	92.77227210998535	pulse	1	t		10.0	2.5	/experiments/Knapen_AOT/AOT_stimuli/rescaled_final/0566_rv.mp4	0.0	108.35862445831299	
12	92.89701581001282	fix_post	2		12	10.0	2.5	/experiments/Knapen_AOT/AOT_stimuli/rescaled_final/0566_rv.mp4	0.0	108.48336815834045	0.10000991821289062
13	92.99702572822571	fix_pre	0		120	11.0	2.5	/experiments/Knapen_AOT/AOT_stimuli/rescaled_final/1478_fw.mp4	0.0	108.58337807655334	1.0085275173187256
13	94.00555324554443	movie	1		293	11.0	2.5	/experiments/Knapen_AOT/AOT_stimuli/rescaled_final/1478_fw.mp4	0.0	109.59190559387207	2.492007255554199
13	94.37247371673584	pulse	1	t		11.0	2.5	/experiments/Knapen_AOT/AOT_stimuli/rescaled_final/1478_fw.mp4	0.0	109.95882606506348	
13	95.97272658348083	pulse	1	t		11.0	2.5	/experiments/Knapen_AOT/AOT_stimuli/rescaled_final/1478_fw.mp4	0.0	111.55907893180847	
13	96.49756050109863	fix_post	2		12	11.0	2.5	/experiments/Knapen_AOT/AOT_stimuli/rescaled_final/1478_fw.mp4	0.0	112.08391284942627	0.10001301765441895
14	96.59757351875305	fix_pre	0		118	12.0	2.5	/experiments/Knapen_AOT/AOT_stimuli/rescaled_final/0217_rv.mp4	0.0	112.18392586708069	0.9918780326843262
14	97.57296538352966	pulse	0	t		12.0	2.5	/experiments/Knapen_AOT/AOT_stimuli/rescaled_final/0217_rv.mp4	0.0	113.1593177318573	
14	97.58945155143738	movie	1		287	12.0	2.5	/experiments/Knapen_AOT/AOT_stimuli/rescaled_final/0217_rv.mp4	0.0	113.17580389976501	2.5003139972686768
14	99.17255163192749	pulse	1	t		12.0	2.5	/experiments/Knapen_AOT/AOT_stimuli/rescaled_final/0217_rv.mp4	0.0	114.75890398025513	
14	100.08976554870605	fix_post	2		12	12.0	2.5	/experiments/Knapen_AOT/AOT_stimuli/rescaled_final/0217_rv.mp4	0.0	115.67611789703369	0.10006070137023926
15	100.1898262500763	fix_pre	0		120	13.0	2.5	blank	1.0	115.77617859840393	1.0001039505004883
15	100.77354836463928	pulse	0	t		13.0	2.5	blank	1.0	116.35990071296692	
15	101.18993020057678	movie	1		300	13.0	2.5	blank	1.0	116.77628254890442	2.5003678798675537
15	102.37363314628601	pulse	1	t		13.0	2.5	blank	1.0	117.95998549461365	
15	103.69029808044434	fix_post	2		12	13.0	2.5	blank	1.0	119.27665042877197	0.1000220775604248
16	103.79032015800476	fix_pre	0		120	14.0	2.5	/experiments/Knapen_AOT/AOT_stimuli/rescaled_final/0166_fw.mp4	0.0	119.3766725063324	1.0085713863372803
16	103.9739294052124	pulse	0	t		14.0	2.5	/experiments/Knapen_AOT/AOT_stimuli/rescaled_final/0166_fw.mp4	0.0	119.56028175354004	
16	104.79889154434204	movie	1		283	14.0	2.5	/experiments/Knapen_AOT/AOT_stimuli/rescaled_final/0166_fw.mp4	0.0	120.38524389266968	2.492021083831787
16	105.57412934303284	pulse	1	t		14.0	2.5	/experiments/Knapen_AOT/AOT_stimuli/rescaled_final/0166_fw.mp4	0.0	121.16048169136047	
16	107.17265105247498	pulse	1	t		14.0	2.5	/experiments/Knapen_AOT/AOT_stimuli/rescaled_final/0166_fw.mp4	0.0	122.75900340080261	
16	107.29091262817383	fix_post	2		12	14.0	2.5	/experiments/Knapen_AOT/AOT_stimuli/rescaled_final/0166_fw.mp4	0.0	122.87726497650146	0.1000666618347168
17	107.39097929000854	fix_pre	0		120	15.0	2.5	/experiments/Knapen_AOT/AOT_stimuli/rescaled_final/0146_rv.mp4	0.0	122.97733163833618	1.0085043907165527
17	108.3994836807251	movie	1		296	15.0	2.5	/experiments/Knapen_AOT/AOT_stimuli/rescaled_final/0146_rv.mp4	0.0	123.98583602905273	2.4919161796569824
17	108.77318382263184	pulse	1	t		15.0	2.5	/experiments/Knapen_AOT/AOT_stimuli/rescaled_final/0146_rv.mp4	0.0	124.35953617095947	
17	110.37497282028198	pulse	1	t		15.0	2.5	/experiments/Knapen_AOT/AOT_stimuli/rescaled_final/0146_rv.mp4	0.0	125.96132516860962	
17	110.89139986038208	fix_post	2		12	15.0	2.5	/experiments/Knapen_AOT/AOT_stimuli/rescaled_final/0146_rv.mp4	0.0	126.47775220870972	0.09998869895935059
18	110.99138855934143	fix_pre	0		119	16.0	2.5	/experiments/Knapen_AOT/AOT_stimuli/rescaled_final/1993_rv.mp4	0.0	126.57774090766907	1.0001716613769531
18	111.97502326965332	pulse	0	t		16.0	2.5	/experiments/Knapen_AOT/AOT_stimuli/rescaled_final/1993_rv.mp4	0.0	127.56137561798096	
18	111.99156022071838	movie	1		298	16.0	2.5	/experiments/Knapen_AOT/AOT_stimuli/rescaled_final/1993_rv.mp4	0.0	127.57791256904602	2.508692979812622
18	113.57551956176758	pulse	1	t		16.0	2.5	/experiments/Knapen_AOT/AOT_stimuli/rescaled_final/1993_rv.mp4	0.0	129.16187191009521	
18	114.500253200531	fix_post	2		11	16.0	2.5	/experiments/Knapen_AOT/AOT_stimuli/rescaled_final/1993_rv.mp4	0.0	130.08660554885864	0.09167337417602539
19	114.59192657470703	fix_pre	0		120	17.0	2.5	/experiments/Knapen_AOT/AOT_stimuli/rescaled_final/1357_fw.mp4	0.0	130.17827892303467	1.0085077285766602
19	115.1756341457367	pulse	0	t		17.0	2.5	/experiments/Knapen_AOT/AOT_stimuli/rescaled_final/1357_fw.mp4	0.0	130.76198649406433	
19	115.60043430328369	movie	1		294	17.0	2.5	/experiments/Knapen_AOT/AOT_stimuli/rescaled_final/1357_fw.mp4	0.0	131.18678665161133	2.492204189300537
19	116.77450346946716	pulse	1	t		17.0	2.5	/experiments/Knapen_AOT/AOT_stimuli/rescaled_final/1357_fw.mp4	0.0	132.3608558177948	
19	118.09263849258423	fix_post	2		12	17.0	2.5	/experiments/Knapen_AOT/AOT_stimuli/rescaled_final/1357_fw.mp4	0.0	133.67899084091187	0.0998542308807373
20	118.19249272346497	fix_pre	0		120	18.0	2.5	/experiments/Knapen_AOT/AOT_stimuli/rescaled_final/1782_fw.mp4	0.0	133.7788450717926	1.0085399150848389
20	118.37651324272156	pulse	0	t		18.0	2.5	/experiments/Knapen_AOT/AOT_stimuli/rescaled_final/1782_fw.mp4	0.0	133.9628655910492	
20	119.2010326385498	movie	1		290	18.0	2.5	/experiments/Knapen_AOT/AOT_stimuli/rescaled_final/1782_fw.mp4	0.0	134.78738498687744	2.4919722080230713
20	119.97486662864685	pulse	1	t		18.0	2.5	/experiments/Knapen_AOT/AOT_stimuli/rescaled_final/1782_fw.mp4	0.0	135.5612189769745	
20	121.57377314567566	pulse	1	t		18.0	2.5	/experiments/Knapen_AOT/AOT_stimuli/rescaled_final/1782_fw.mp4	0.0	137.1601254940033	
20	121.69300484657288	fix_post	2		12	18.0	2.5	/experiments/Knapen_AOT/AOT_stimuli/rescaled_final/1782_fw.mp4	0.0	137.2793571949005	0.10002422332763672
21	121.79302906990051	fix_pre	0		120	19.0	2.5	/experiments/Knapen_AOT/AOT_stimuli/rescaled_final/0296_rv.mp4	0.0	137.37938141822815	1.0001294612884521
21	122.79315853118896	movie	1		296	19.0	2.5	/experiments/Knapen_AOT/AOT_stimuli/rescaled_final/0296_rv.mp4	0.0	138.3795108795166	2.5003910064697266
21	123.17447900772095	pulse	1	t		19.0	2.5	/experiments/Knapen_AOT/AOT_stimuli/rescaled_final/0296_rv.mp4	0.0	138.76083135604858	
21	124.7738254070282	pulse	1	t		19.0	2.5	/experiments/Knapen_AOT/AOT_stimuli/rescaled_final/0296_rv.mp4	0.0	140.36017775535583	
21	125.29354953765869	fix_post	2		12	19.0	2.5	/experiments/Knapen_AOT/AOT_stimuli/rescaled_final/0296_rv.mp4	0.0	140.87990188598633	0.10000896453857422
22	125.39355850219727	fix_pre	0		119	20.0	2.5	/experiments/Knapen_AOT/AOT_stimuli/rescaled_final/0497_rv.mp4	0.0	140.9799108505249	1.0002069473266602
22	126.3771619796753	pulse	0	t		20.0	2.5	/experiments/Knapen_AOT/AOT_stimuli/rescaled_final/0497_rv.mp4	0.0	141.96351432800293	
22	126.39376544952393	movie	1		295	20.0	2.5	/experiments/Knapen_AOT/AOT_stimuli/rescaled_final/0497_rv.mp4	0.0	141.98011779785156	2.500342845916748
22	127.97503685951233	pulse	1	t		20.0	2.5	/experiments/Knapen_AOT/AOT_stimuli/rescaled_final/0497_rv.mp4	0.0	143.56138920783997	
22	128.89410829544067	fix_post	2		12	20.0	2.5	/experiments/Knapen_AOT/AOT_stimuli/rescaled_final/0497_rv.mp4	0.0	144.4804606437683	0.09999942779541016
23	128.99410772323608	fix_pre	0		120	21.0	2.5	blank	1.0	144.58046007156372	1.0001394748687744
23	129.57795643806458	pulse	0	t		21.0	2.5	blank	1.0	145.1643087863922	
23	129.99424719810486	movie	1		300	21.0	2.5	blank	1.0	145.5805995464325	2.5005292892456055
23	131.17826199531555	pulse	1	t		21.0	2.5	blank	1.0	146.7646143436432	
23	132.49477648735046	fix_post	2		12	21.0	2.5	blank	1.0	148.0811288356781	0.09993863105773926
24	132.5947151184082	fix_pre	0		120	22.0	2.5	/experiments/Knapen_AOT/AOT_stimuli/rescaled_final/1366_rv.mp4	0.0	148.18106746673584	1.0085179805755615
24	132.7708261013031	pulse	0	t		22.0	2.5	/experiments/Knapen_AOT/AOT_stimuli/rescaled_final/1366_rv.mp4	0.0	148.35717844963074	
24	133.60323309898376	movie	1		295	22.0	2.5	/experiments/Knapen_AOT/AOT_stimuli/rescaled_final/1366_rv.mp4	0.0	149.1895854473114	2.4919981956481934
24	134.37399888038635	pulse	1	t		22.0	2.5	/experiments/Knapen_AOT/AOT_stimuli/rescaled_final/1366_rv.mp4	0.0	149.960351228714	
24	135.9758584499359	pulse	1	t		22.0	2.5	/experiments/Knapen_AOT/AOT_stimuli/rescaled_final/1366_rv.mp4	0.0	151.56221079826355	
24	136.09523129463196	fix_post	2		12	22.0	2.5	/experiments/Knapen_AOT/AOT_stimuli/rescaled_final/1366_rv.mp4	0.0	151.6815836429596	0.09999489784240723
25	136.19522619247437	fix_pre	0		120	23.0	2.5	/experiments/Knapen_AOT/AOT_stimuli/rescaled_final/0392_fw.mp4	0.0	151.781578540802	1.0001051425933838
25	137.19533133506775	movie	1		287	23.0	2.5	/experiments/Knapen_AOT/AOT_stimuli/rescaled_final/0392_fw.mp4	0.0	152.78168368339539	2.500375509262085
25	137.57714533805847	pulse	1	t		23.0	2.5	/experiments/Knapen_AOT/AOT_stimuli/rescaled_final/0392_fw.mp4	0.0	153.1634976863861	
25	139.1710114479065	pulse	1	t		23.0	2.5	/experiments/Knapen_AOT/AOT_stimuli/rescaled_final/0392_fw.mp4	0.0	154.75736379623413	
25	139.69570684432983	fix_post	2		12	23.0	2.5	/experiments/Knapen_AOT/AOT_stimuli/rescaled_final/0392_fw.mp4	0.0	155.28205919265747	0.1000053882598877
26	139.79571223258972	fix_pre	0		118	24.0	2.5	/experiments/Knapen_AOT/AOT_stimuli/rescaled_final/1855_rv.mp4	0.0	155.38206458091736	0.9918768405914307
26	140.77107167243958	pulse	0	t		24.0	2.5	/experiments/Knapen_AOT/AOT_stimuli/rescaled_final/1855_rv.mp4	0.0	156.3574240207672	
26	140.78758907318115	movie	1		291	24.0	2.5	/experiments/Knapen_AOT/AOT_stimuli/rescaled_final/1855_rv.mp4	0.0	156.3739414215088	2.5005249977111816
26	142.37127304077148	pulse	1	t		24.0	2.5	/experiments/Knapen_AOT/AOT_stimuli/rescaled_final/1855_rv.mp4	0.0	157.95762538909912	
26	143.28811407089233	fix_post	2		12	24.0	2.5	/experiments/Knapen_AOT/AOT_stimuli/rescaled_final/1855_rv.mp4	0.0	158.87446641921997	0.09983539581298828
27	143.38794946670532	fix_pre	0		120	25.0	2.5	/experiments/Knapen_AOT/AOT_stimuli/rescaled_final/1473_rv.mp4	0.0	158.97430181503296	1.0085182189941406
27	143.97181606292725	pulse	0	t		25.0	2.5	/experiments/Knapen_AOT/AOT_stimuli/rescaled_final/1473_rv.mp4	0.0	159.55816841125488	
27	144.39646768569946	movie	1		278	25.0	2.5	/experiments/Knapen_AOT/AOT_stimuli/rescaled_final/1473_rv.mp4	0.0	159.9828200340271	2.4920425415039062
27	145.5718903541565	pulse	1	t		25.0	2.5	/experiments/Knapen_AOT/AOT_stimuli/rescaled_final/1473_rv.mp4	0.0	161.15824270248413	
27	146.88851022720337	fix_post	2		12	25.0	2.5	/experiments/Knapen_AOT/AOT_stimuli/rescaled_final/1473_rv.mp4	0.0	162.474862575531	0.10001516342163086
28	146.988525390625	fix_pre	0		120	26.0	2.5	blank	1.0	162.57487773895264	1.0001418590545654
28	147.1720631122589	pulse	0	t		26.0	2.5	blank	1.0	162.75841546058655	
28	147.98866724967957	movie	1		300	26.0	2.5	blank	1.0	163.5750195980072	2.5003318786621094
28	148.77226328849792	pulse	1	t		26.0	2.5	blank	1.0	164.35861563682556	
28	150.37256956100464	pulse	1	t		26.0	2.5	blank	1.0	165.95892190933228	
28	150.48899912834167	fix_post	2		12	26.0	2.5	blank	1.0	166.0753514766693	0.10006165504455566
29	150.58906078338623	fix_pre	0		120	27.0	2.5	/experiments/Knapen_AOT/AOT_stimuli/rescaled_final/0209_rv.mp4	0.0	166.17541313171387	1.0084795951843262
29	151.59754037857056	movie	1		285	27.0	2.5	/experiments/Knapen_AOT/AOT_stimuli/rescaled_final/0209_rv.mp4	0.0	167.1838927268982	2.492018938064575
29	151.97292590141296	pulse	1	t		27.0	2.5	/experiments/Knapen_AOT/AOT_stimuli/rescaled_final/0209_rv.mp4	0.0	167.5592782497406	
29	153.57313227653503	pulse	1	t		27.0	2.5	/experiments/Knapen_AOT/AOT_stimuli/rescaled_final/0209_rv.mp4	0.0	169.15948462486267	
29	154.08955931663513	fix_post	2		12	27.0	2.5	/experiments/Knapen_AOT/AOT_stimuli/rescaled_final/0209_rv.mp4	0.0	169.67591166496277	0.10003662109375
30	154.18959593772888	fix_pre	0		119	28.0	2.5	/experiments/Knapen_AOT/AOT_stimuli/rescaled_final/0566_fw.mp4	0.0	169.77594828605652	1.000152349472046
30	155.17323994636536	pulse	0	t		28.0	2.5	/experiments/Knapen_AOT/AOT_stimuli/rescaled_final/0566_fw.mp4	0.0	170.759592294693	
30	155.18974828720093	movie	1		292	28.0	2.5	/experiments/Knapen_AOT/AOT_stimuli/rescaled_final/0566_fw.mp4	0.0	170.77610063552856	2.500361680984497
30	156.77211666107178	pulse	1	t		28.0	2.5	/experiments/Knapen_AOT/AOT_stimuli/rescaled_final/0566_fw.mp4	0.0	172.3584690093994	
30	157.69010996818542	fix_post	2		12	28.0	2.5	/experiments/Knapen_AOT/AOT_stimuli/rescaled_final/0566_fw.mp4	0.0	173.27646231651306	0.10001277923583984
31	157.79012274742126	fix_pre	0		120	29.0	2.5	/experiments/Knapen_AOT/AOT_stimuli/rescaled_final/2040_fw.mp4	0.0	173.3764750957489	1.0085206031799316
31	158.37373232841492	pulse	0	t		29.0	2.5	/experiments/Knapen_AOT/AOT_stimuli/rescaled_final/2040_fw.mp4	0.0	173.96008467674255	
31	158.7986433506012	movie	1		292	29.0	2.5	/experiments/Knapen_AOT/AOT_stimuli/rescaled_final/2040_fw.mp4	0.0	174.38499569892883	2.4920132160186768
31	159.9723343849182	pulse	1	t		29.0	2.5	/experiments/Knapen_AOT/AOT_stimuli/rescaled_final/2040_fw.mp4	0.0	175.55868673324585	
31	161.29065656661987	fix_post	2		12	29.0	2.5	/experiments/Knapen_AOT/AOT_stimuli/rescaled_final/2040_fw.mp4	0.0	176.8770089149475	0.10001325607299805
32	161.39066982269287	fix_pre	0		120	30.0	2.5	/experiments/Knapen_AOT/AOT_stimuli/rescaled_final/1914_rv.mp4	0.0	176.9770221710205	1.0085477828979492
32	161.57424592971802	pulse	0	t		30.0	2.5	/experiments/Knapen_AOT/AOT_stimuli/rescaled_final/1914_rv.mp4	0.0	177.16059827804565	
32	162.39921760559082	movie	1		284	30.0	2.5	/experiments/Knapen_AOT/AOT_stimuli/rescaled_final/1914_rv.mp4	0.0	177.98556995391846	2.4920222759246826
32	163.1726655960083	pulse	1	t		30.0	2.5	/experiments/Knapen_AOT/AOT_stimuli/rescaled_final/1914_rv.mp4	0.0	178.75901794433594	
32	164.77263474464417	pulse	1	t		30.0	2.5	/experiments/Knapen_AOT/AOT_stimuli/rescaled_final/1914_rv.mp4	0.0	180.3589870929718	
32	164.8912398815155	fix_post	2		12	30.0	2.5	/experiments/Knapen_AOT/AOT_stimuli/rescaled_final/1914_rv.mp4	0.0	180.47759222984314	0.10001897811889648
33	164.9912588596344	fix_pre	0		120	31.0	2.5	/experiments/Knapen_AOT/AOT_stimuli/rescaled_final/2170_fw.mp4	0.0	180.57761120796204	1.0085866451263428
33	165.99984550476074	movie	1		281	31.0	2.5	/experiments/Knapen_AOT/AOT_stimuli/rescaled_final/2170_fw.mp4	0.0	181.58619785308838	2.4918904304504395
33	166.37508153915405	pulse	1	t		31.0	2.5	/experiments/Knapen_AOT/AOT_stimuli/rescaled_final/2170_fw.mp4	0.0	181.9614338874817	
33	167.97294735908508	pulse	1	t		31.0	2.5	/experiments/Knapen_AOT/AOT_stimuli/rescaled_final/2170_fw.mp4	0.0	183.55929970741272	
33	168.49173593521118	fix_post	2		12	31.0	2.5	/experiments/Knapen_AOT/AOT_stimuli/rescaled_final/2170_fw.mp4	0.0	184.07808828353882	0.10002660751342773
34	168.5917625427246	fix_pre	0		119	32.0	2.5	/experiments/Knapen_AOT/AOT_stimuli/rescaled_final/0774_fw.mp4	0.0	184.17811489105225	1.0001327991485596
34	169.57540249824524	pulse	0	t		32.0	2.5	/experiments/Knapen_AOT/AOT_stimuli/rescaled_final/0774_fw.mp4	0.0	185.16175484657288	
34	169.59189534187317	movie	1		281	32.0	2.5	/experiments/Knapen_AOT/AOT_stimuli/rescaled_final/0774_fw.mp4	0.0	185.1782476902008	2.500387668609619
34	171.17421317100525	pulse	1	t		32.0	2.5	/experiments/Knapen_AOT/AOT_stimuli/rescaled_final/0774_fw.mp4	0.0	186.76056551933289	
34	172.0922830104828	fix_post	2		12	32.0	2.5	/experiments/Knapen_AOT/AOT_stimuli/rescaled_final/0774_fw.mp4	0.0	187.67863535881042	0.10000824928283691
35	172.19229125976562	fix_pre	0		120	33.0	2.5	blank	1.0	187.77864360809326	1.000185489654541
35	172.77587127685547	pulse	0	t		33.0	2.5	blank	1.0	188.3622236251831	
35	173.19247674942017	movie	1		300	33.0	2.5	blank	1.0	188.7788290977478	2.500359296798706
35	174.3762128353119	pulse	1	t		33.0	2.5	blank	1.0	189.96256518363953	
35	175.69283604621887	fix_post	2		12	33.0	2.5	blank	1.0	191.2791883945465	0.10005044937133789
36	175.7928864955902	fix_pre	0		120	34.0	2.5	/experiments/Knapen_AOT/AOT_stimuli/rescaled_final/2006_fw.mp4	0.0	191.37923884391785	1.0084946155548096
36	175.97641158103943	pulse	0	t		34.0	2.5	/experiments/Knapen_AOT/AOT_stimuli/rescaled_final/2006_fw.mp4	0.0	191.56276392936707	
36	176.80138111114502	movie	1		287	34.0	2.5	/experiments/Knapen_AOT/AOT_stimuli/rescaled_final/2006_fw.mp4	0.0	192.38773345947266	2.4919822216033936
36	177.575425863266	pulse	1	t		34.0	2.5	/experiments/Knapen_AOT/AOT_stimuli/rescaled_final/2006_fw.mp4	0.0	193.16177821159363	
36	179.17508506774902	pulse	1	t		34.0	2.5	/experiments/Knapen_AOT/AOT_stimuli/rescaled_final/2006_fw.mp4	0.0	194.76143741607666	
36	179.2933633327484	fix_post	2		12	34.0	2.5	/experiments/Knapen_AOT/AOT_stimuli/rescaled_final/2006_fw.mp4	0.0	194.87971568107605	0.10002660751342773
37	179.39338994026184	fix_pre	0		120	35.0	2.5	/experiments/Knapen_AOT/AOT_stimuli/rescaled_final/1515_rv.mp4	0.0	194.97974228858948	1.0085093975067139
37	180.40189933776855	movie	1		282	35.0	2.5	/experiments/Knapen_AOT/AOT_stimuli/rescaled_final/1515_rv.mp4	0.0	195.9882516860962	2.4920287132263184
37	180.77553296089172	pulse	1	t		35.0	2.5	/experiments/Knapen_AOT/AOT_stimuli/rescaled_final/1515_rv.mp4	0.0	196.36188530921936	
37	182.37545609474182	pulse	1	t		35.0	2.5	/experiments/Knapen_AOT/AOT_stimuli/rescaled_final/1515_rv.mp4	0.0	197.96180844306946	
37	182.89392805099487	fix_post	2		12	35.0	2.5	/experiments/Knapen_AOT/AOT_stimuli/rescaled_final/1515_rv.mp4	0.0	198.4802803993225	0.09999799728393555
38	182.9939260482788	fix_pre	0		119	36.0	2.5	/experiments/Knapen_AOT/AOT_stimuli/rescaled_final/0250_rv.mp4	0.0	198.58027839660645	1.000173568725586
38	183.97761821746826	pulse	0	t		36.0	2.5	/experiments/Knapen_AOT/AOT_stimuli/rescaled_final/0250_rv.mp4	0.0	199.5639705657959	
38	183.9940996170044	movie	1		277	36.0	2.5	/experiments/Knapen_AOT/AOT_stimuli/rescaled_final/0250_rv.mp4	0.0	199.58045196533203	2.5003724098205566
38	185.5761547088623	pulse	1	t		36.0	2.5	/experiments/Knapen_AOT/AOT_stimuli/rescaled_final/0250_rv.mp4	0.0	201.16250705718994	
38	186.49447202682495	fix_post	2		12	36.0	2.5	/experiments/Knapen_AOT/AOT_stimuli/rescaled_final/0250_rv.mp4	0.0	202.0808243751526	0.1000070571899414
39	186.5944790840149	fix_pre	0		120	37.0	2.5	/experiments/Knapen_AOT/AOT_stimuli/rescaled_final/1246_rv.mp4	0.0	202.18083143234253	1.0084846019744873
39	187.17802834510803	pulse	0	t		37.0	2.5	/experiments/Knapen_AOT/AOT_stimuli/rescaled_final/1246_rv.mp4	0.0	202.76438069343567	
39	187.60296368598938	movie	1		285	37.0	2.5	/experiments/Knapen_AOT/AOT_stimuli/rescaled_final/1246_rv.mp4	0.0	203.18931603431702	2.4920196533203125
39	188.77659249305725	pulse	1	t		37.0	2.5	/experiments/Knapen_AOT/AOT_stimuli/rescaled_final/1246_rv.mp4	0.0	204.3629448413849	
39	190.0949833393097	fix_post	2		12	37.0	2.5	/experiments/Knapen_AOT/AOT_stimuli/rescaled_final/1246_rv.mp4	0.0	205.68133568763733	0.10015273094177246
40	190.19513607025146	fix_pre	0		120	38.0	2.5	/experiments/Knapen_AOT/AOT_stimuli/rescaled_final/1324_fw.mp4	0.0	205.7814884185791	1.0083954334259033
40	190.37861824035645	pulse	0	t		38.0	2.5	/experiments/Knapen_AOT/AOT_stimuli/rescaled_final/1324_fw.mp4	0.0	205.96497058868408	
40	191.20353150367737	movie	1		284	38.0	2.5	/experiments/Knapen_AOT/AOT_stimuli/rescaled_final/1324_fw.mp4	0.0	206.789883852005	2.4919931888580322
40	191.9775869846344	pulse	1	t		38.0	2.5	/experiments/Knapen_AOT/AOT_stimuli/rescaled_final/1324_fw.mp4	0.0	207.56393933296204	
40	193.57727599143982	pulse	1	t		38.0	2.5	/experiments/Knapen_AOT/AOT_stimuli/rescaled_final/1324_fw.mp4	0.0	209.16362833976746	
40	193.6955246925354	fix_post	2		12	38.0	2.5	/experiments/Knapen_AOT/AOT_stimuli/rescaled_final/1324_fw.mp4	0.0	209.28187704086304	0.10001707077026367
41	193.79554176330566	fix_pre	0		120	39.0	2.5	/experiments/Knapen_AOT/AOT_stimuli/rescaled_final/0141_fw.mp4	0.0	209.3818941116333	1.008526086807251
41	194.80406785011292	movie	1		285	39.0	2.5	/experiments/Knapen_AOT/AOT_stimuli/rescaled_final/0141_fw.mp4	0.0	210.39042019844055	2.491990804672241
41	195.17897653579712	pulse	1	t		39.0	2.5	/experiments/Knapen_AOT/AOT_stimuli/rescaled_final/0141_fw.mp4	0.0	210.76532888412476	
41	196.77724385261536	pulse	1	t		39.0	2.5	/experiments/Knapen_AOT/AOT_stimuli/rescaled_final/0141_fw.mp4	0.0	212.363596200943	
41	197.29605865478516	fix_post	2		12	39.0	2.5	/experiments/Knapen_AOT/AOT_stimuli/rescaled_final/0141_fw.mp4	0.0	212.8824110031128	0.10002684593200684
42	197.39608550071716	fix_pre	0		118	40.0	2.5	/experiments/Knapen_AOT/AOT_stimuli/rescaled_final/0919_fw.mp4	0.0	212.9824378490448	1.000176191329956
42	198.37168765068054	pulse	0	t		40.0	2.5	/experiments/Knapen_AOT/AOT_stimuli/rescaled_final/0919_fw.mp4	0.0	213.95803999900818	
42	198.39626169204712	movie	1		276	40.0	2.5	/experiments/Knapen_AOT/AOT_stimuli/rescaled_final/0919_fw.mp4	0.0	213.98261404037476	2.492008686065674
42	199.97165966033936	pulse	1	t		40.0	2.5	/experiments/Knapen_AOT/AOT_stimuli/rescaled_final/0919_fw.mp4	0.0	215.558012008667	
42	200.8882703781128	fix_post	2		12	40.0	2.5	/experiments/Knapen_AOT/AOT_stimuli/rescaled_final/0919_fw.mp4	0.0	216.47462272644043	0.10001850128173828
43	200.98828887939453	fix_pre	0		120	41.0	2.5	blank	1.0	216.57464122772217	1.000180959701538
43	201.5719118118286	pulse	0	t		41.0	2.5	blank	1.0	217.15826416015625	
43	201.98846983909607	movie	1		300	41.0	2.5	blank	1.0	217.5748221874237	2.5003371238708496
43	203.17210817337036	pulse	1	t		41.0	2.5	blank	1.0	218.758460521698	
43	204.48880696296692	fix_post	2		12	41.0	2.5	blank	1.0	220.07515931129456	0.10004687309265137
44	204.58885383605957	fix_pre	0		120	42.0	2.5	/experiments/Knapen_AOT/AOT_stimuli/rescaled_final/0762_rv.mp4	0.0	220.1752061843872	1.0084924697875977
44	204.77234888076782	pulse	0	t		42.0	2.5	/experiments/Knapen_AOT/AOT_stimuli/rescaled_final/0762_rv.mp4	0.0	220.35870122909546	
44	205.59734630584717	movie	1		271	42.0	2.5	/experiments/Knapen_AOT/AOT_stimuli/rescaled_final/0762_rv.mp4	0.0	221.1836986541748	2.492008924484253
44	206.3725938796997	pulse	1	t		42.0	2.5	/experiments/Knapen_AOT/AOT_stimuli/rescaled_final/0762_rv.mp4	0.0	221.95894622802734	
44	207.97310996055603	pulse	1	t		42.0	2.5	/experiments/Knapen_AOT/AOT_stimuli/rescaled_final/0762_rv.mp4	0.0	223.55946230888367	
44	208.08935523033142	fix_post	2		12	42.0	2.5	/experiments/Knapen_AOT/AOT_stimuli/rescaled_final/0762_rv.mp4	0.0	223.67570757865906	0.1001286506652832
45	208.1894838809967	fix_pre	0		120	43.0	2.5	/experiments/Knapen_AOT/AOT_stimuli/rescaled_final/0793_fw.mp4	0.0	223.77583622932434	1.008397102355957
45	209.19788098335266	movie	1		283	43.0	2.5	/experiments/Knapen_AOT/AOT_stimuli/rescaled_final/0793_fw.mp4	0.0	224.7842333316803	2.492021322250366
45	209.57161736488342	pulse	1	t		43.0	2.5	/experiments/Knapen_AOT/AOT_stimuli/rescaled_final/0793_fw.mp4	0.0	225.15796971321106	
45	211.1733796596527	pulse	1	t		43.0	2.5	/experiments/Knapen_AOT/AOT_stimuli/rescaled_final/0793_fw.mp4	0.0	226.75973200798035	
45	211.68990230560303	fix_post	2		12	43.0	2.5	/experiments/Knapen_AOT/AOT_stimuli/rescaled_final/0793_fw.mp4	0.0	227.27625465393066	0.10000038146972656
46	211.78990268707275	fix_pre	0		119	44.0	2.5	/experiments/Knapen_AOT/AOT_stimuli/rescaled_final/1359_rv.mp4	0.0	227.3762550354004	1.0001986026763916
46	212.77367901802063	pulse	0	t		44.0	2.5	/experiments/Knapen_AOT/AOT_stimuli/rescaled_final/1359_rv.mp4	0.0	228.36003136634827	
46	212.79010128974915	movie	1		287	44.0	2.5	/experiments/Knapen_AOT/AOT_stimuli/rescaled_final/1359_rv.mp4	0.0	228.37645363807678	2.5003650188446045
46	214.3719985485077	pulse	1	t		44.0	2.5	/experiments/Knapen_AOT/AOT_stimuli/rescaled_final/1359_rv.mp4	0.0	229.95835089683533	
46	215.29046630859375	fix_post	2		12	44.0	2.5	/experiments/Knapen_AOT/AOT_stimuli/rescaled_final/1359_rv.mp4	0.0	230.8768186569214	0.10006165504455566
47	215.3905279636383	fix_pre	0		120	45.0	2.5	/experiments/Knapen_AOT/AOT_stimuli/rescaled_final/2040_rv.mp4	0.0	230.97688031196594	1.0085549354553223
47	215.97404670715332	pulse	0	t		45.0	2.5	/experiments/Knapen_AOT/AOT_stimuli/rescaled_final/2040_rv.mp4	0.0	231.56039905548096	
47	216.39908289909363	movie	1		267	45.0	2.5	/experiments/Knapen_AOT/AOT_stimuli/rescaled_final/2040_rv.mp4	0.0	231.98543524742126	2.491894006729126
47	217.5740897655487	pulse	1	t		45.0	2.5	/experiments/Knapen_AOT/AOT_stimuli/rescaled_final/2040_rv.mp4	0.0	233.16044211387634	
47	218.89097690582275	fix_post	2		12	45.0	2.5	/experiments/Knapen_AOT/AOT_stimuli/rescaled_final/2040_rv.mp4	0.0	234.4773292541504	0.10005021095275879
48	218.9910271167755	fix_pre	0		120	46.0	2.5	/experiments/Knapen_AOT/AOT_stimuli/rescaled_final/1478_fw.mp4	0.0	234.57737946510315	1.0085041522979736
48	219.17458128929138	pulse	0	t		46.0	2.5	/experiments/Knapen_AOT/AOT_stimuli/rescaled_final/1478_fw.mp4	0.0	234.76093363761902	
48	219.9995312690735	movie	1		277	46.0	2.5	/experiments/Knapen_AOT/AOT_stimuli/rescaled_final/1478_fw.mp4	0.0	235.58588361740112	2.4920408725738525
48	220.7728786468506	pulse	1	t		46.0	2.5	/experiments/Knapen_AOT/AOT_stimuli/rescaled_final/1478_fw.mp4	0.0	236.35923099517822	
48	222.37279081344604	pulse	1	t		46.0	2.5	/experiments/Knapen_AOT/AOT_stimuli/rescaled_final/1478_fw.mp4	0.0	237.95914316177368	
48	222.49157214164734	fix_post	2		12	46.0	2.5	/experiments/Knapen_AOT/AOT_stimuli/rescaled_final/1478_fw.mp4	0.0	238.07792448997498	0.10000276565551758
49	222.59157490730286	fix_pre	0		120	47.0	2.5	blank	1.0	238.1779272556305	1.0001165866851807
49	223.59169149398804	movie	1		300	47.0	2.5	blank	1.0	239.17804384231567	2.500373125076294
49	223.97545719146729	pulse	1	t		47.0	2.5	blank	1.0	239.56180953979492	
49	225.57564973831177	pulse	1	t		47.0	2.5	blank	1.0	241.1620020866394	
49	226.09206461906433	fix_post	2		12	47.0	2.5	blank	1.0	241.67841696739197	0.10003232955932617
50	226.19209694862366	fix_pre	0		119	48.0	2.5	/experiments/Knapen_AOT/AOT_stimuli/rescaled_final/1263_rv.mp4	0.0	241.7784492969513	1.000232458114624
50	227.1758120059967	pulse	0	t		48.0	2.5	/experiments/Knapen_AOT/AOT_stimuli/rescaled_final/1263_rv.mp4	0.0	242.76216435432434	
50	227.19232940673828	movie	1		277	48.0	2.5	/experiments/Knapen_AOT/AOT_stimuli/rescaled_final/1263_rv.mp4	0.0	242.77868175506592	2.500295400619507
50	228.77455306053162	pulse	1	t		48.0	2.5	/experiments/Knapen_AOT/AOT_stimuli/rescaled_final/1263_rv.mp4	0.0	244.36090540885925	
50	229.6926248073578	fix_post	2		12	48.0	2.5	/experiments/Knapen_AOT/AOT_stimuli/rescaled_final/1263_rv.mp4	0.0	245.27897715568542	0.10000395774841309
51	229.7926287651062	fix_pre	0		120	49.0	2.5	/experiments/Knapen_AOT/AOT_stimuli/rescaled_final/0472_rv.mp4	0.0	245.37898111343384	1.0084903240203857
51	230.37630105018616	pulse	0	t		49.0	2.5	/experiments/Knapen_AOT/AOT_stimuli/rescaled_final/0472_rv.mp4	0.0	245.9626533985138	
51	230.8011190891266	movie	1		274	49.0	2.5	/experiments/Knapen_AOT/AOT_stimuli/rescaled_final/0472_rv.mp4	0.0	246.38747143745422	2.492022752761841
51	231.97447180747986	pulse	1	t		49.0	2.5	/experiments/Knapen_AOT/AOT_stimuli/rescaled_final/0472_rv.mp4	0.0	247.5608241558075	
51	233.29314184188843	fix_post	2		12	49.0	2.5	/experiments/Knapen_AOT/AOT_stimuli/rescaled_final/0472_rv.mp4	0.0	248.87949419021606	0.10001850128173828
52	233.39316034317017	fix_pre	0		120	50.0	2.5	/experiments/Knapen_AOT/AOT_stimuli/rescaled_final/0285_fw.mp4	0.0	248.9795126914978	1.0085475444793701
52	233.57670378684998	pulse	0	t		50.0	2.5	/experiments/Knapen_AOT/AOT_stimuli/rescaled_final/0285_fw.mp4	0.0	249.1630561351776	
52	234.40170788764954	movie	1		283	50.0	2.5	/experiments/Knapen_AOT/AOT_stimuli/rescaled_final/0285_fw.mp4	0.0	249.98806023597717	2.491989850997925
52	235.17489624023438	pulse	1	t		50.0	2.5	/experiments/Knapen_AOT/AOT_stimuli/rescaled_final/0285_fw.mp4	0.0	250.761248588562	
52	236.7752923965454	pulse	1	t		50.0	2.5	/experiments/Knapen_AOT/AOT_stimuli/rescaled_final/0285_fw.mp4	0.0	252.36164474487305	
52	236.89369773864746	fix_post	2		12	50.0	2.5	/experiments/Knapen_AOT/AOT_stimuli/rescaled_final/0285_fw.mp4	0.0	252.4800500869751	0.10001707077026367
53	236.99371480941772	fix_pre	0		120	51.0	2.5	/experiments/Knapen_AOT/AOT_stimuli/rescaled_final/0111_fw.mp4	0.0	252.58006715774536	1.00848388671875
53	238.00219869613647	movie	1		266	51.0	2.5	/experiments/Knapen_AOT/AOT_stimuli/rescaled_final/0111_fw.mp4	0.0	253.5885510444641	2.492037057876587
53	238.37618136405945	pulse	1	t		51.0	2.5	/experiments/Knapen_AOT/AOT_stimuli/rescaled_final/0111_fw.mp4	0.0	253.96253371238708	
53	239.97594499588013	pulse	1	t		51.0	2.5	/experiments/Knapen_AOT/AOT_stimuli/rescaled_final/0111_fw.mp4	0.0	255.56229734420776	
53	240.49423575401306	fix_post	2		12	51.0	2.5	/experiments/Knapen_AOT/AOT_stimuli/rescaled_final/0111_fw.mp4	0.0	256.0805881023407	0.10006475448608398
54	240.59430050849915	fix_pre	0		119	52.0	2.5	/experiments/Knapen_AOT/AOT_stimuli/rescaled_final/1525_rv.mp4	0.0	256.1806528568268	1.0001685619354248
54	241.57790184020996	pulse	0	t		52.0	2.5	/experiments/Knapen_AOT/AOT_stimuli/rescaled_final/1525_rv.mp4	0.0	257.1642541885376	
54	241.59446907043457	movie	1		278	52.0	2.5	/experiments/Knapen_AOT/AOT_stimuli/rescaled_final/1525_rv.mp4	0.0	257.1808214187622	2.5003955364227295
54	243.1765205860138	pulse	1	t		52.0	2.5	/experiments/Knapen_AOT/AOT_stimuli/rescaled_final/1525_rv.mp4	0.0	258.76287293434143	
54	244.0948646068573	fix_post	2		12	52.0	2.5	/experiments/Knapen_AOT/AOT_stimuli/rescaled_final/1525_rv.mp4	0.0	259.68121695518494	0.09992671012878418
55	244.19479131698608	fix_pre	0		120	53.0	2.5	/experiments/Knapen_AOT/AOT_stimuli/rescaled_final/1366_fw.mp4	0.0	259.7811436653137	1.0085177421569824
55	244.77853536605835	pulse	0	t		53.0	2.5	/experiments/Knapen_AOT/AOT_stimuli/rescaled_final/1366_fw.mp4	0.0	260.364887714386	
55	245.20330905914307	movie	1		288	53.0	2.5	/experiments/Knapen_AOT/AOT_stimuli/rescaled_final/1366_fw.mp4	0.0	260.7896614074707	2.4920194149017334
55	246.37700128555298	pulse	1	t		53.0	2.5	/experiments/Knapen_AOT/AOT_stimuli/rescaled_final/1366_fw.mp4	0.0	261.9633536338806	
55	247.6953284740448	fix_post	2		12	53.0	2.5	/experiments/Knapen_AOT/AOT_stimuli/rescaled_final/1366_fw.mp4	0.0	263.28168082237244	0.10001111030578613
56	247.7953395843506	fix_pre	0		120	54.0	2.5	blank	1.0	263.3816919326782	1.0001490116119385
56	247.97890782356262	pulse	0	t		54.0	2.5	blank	1.0	263.56526017189026	
56	248.79548859596252	movie	1		300	54.0	2.5	blank	1.0	264.38184094429016	2.5003585815429688
56	249.57915949821472	pulse	1	t		54.0	2.5	blank	1.0	265.16551184654236	
56	251.17944478988647	pulse	1	t		54.0	2.5	blank	1.0	266.7657971382141	
56	251.2958471775055	fix_post	2		12	54.0	2.5	blank	1.0	266.88219952583313	0.10004258155822754
57	251.39588975906372	fix_pre	0		120	55.0	2.5	/experiments/Knapen_AOT/AOT_stimuli/rescaled_final/1314_fw.mp4	0.0	266.98224210739136	1.0085077285766602
57	252.40439748764038	movie	1		288	55.0	2.5	/experiments/Knapen_AOT/AOT_stimuli/rescaled_final/1314_fw.mp4	0.0	267.990749835968	2.4920291900634766
57	252.778089761734	pulse	1	t		55.0	2.5	/experiments/Knapen_AOT/AOT_stimuli/rescaled_final/1314_fw.mp4	0.0	268.36444211006165	
57	254.37843346595764	pulse	1	t		55.0	2.5	/experiments/Knapen_AOT/AOT_stimuli/rescaled_final/1314_fw.mp4	0.0	269.9647858142853	
57	254.89642667770386	fix_post	2		12	55.0	2.5	/experiments/Knapen_AOT/AOT_stimuli/rescaled_final/1314_fw.mp4	0.0	270.4827790260315	0.0999898910522461
58	254.9964165687561	fix_pre	0		118	56.0	2.5	/experiments/Knapen_AOT/AOT_stimuli/rescaled_final/1473_fw.mp4	0.0	270.58276891708374	0.9919238090515137
58	255.97221899032593	pulse	0	t		56.0	2.5	/experiments/Knapen_AOT/AOT_stimuli/rescaled_final/1473_fw.mp4	0.0	271.55857133865356	
58	255.98834037780762	movie	1		282	56.0	2.5	/experiments/Knapen_AOT/AOT_stimuli/rescaled_final/1473_fw.mp4	0.0	271.57469272613525	2.5002739429473877
58	257.5721106529236	pulse	1	t		56.0	2.5	/experiments/Knapen_AOT/AOT_stimuli/rescaled_final/1473_fw.mp4	0.0	273.1584630012512	
58	258.488614320755	fix_post	2		12	56.0	2.5	/experiments/Knapen_AOT/AOT_stimuli/rescaled_final/1473_fw.mp4	0.0	274.07496666908264	0.10004425048828125
59	258.5886585712433	fix_pre	0		120	57.0	2.5	/experiments/Knapen_AOT/AOT_stimuli/rescaled_final/1732_fw.mp4	0.0	274.1750109195709	1.0084967613220215
59	259.1724443435669	pulse	0	t		57.0	2.5	/experiments/Knapen_AOT/AOT_stimuli/rescaled_final/1732_fw.mp4	0.0	274.75879669189453	
59	259.5971553325653	movie	1		284	57.0	2.5	/experiments/Knapen_AOT/AOT_stimuli/rescaled_final/1732_fw.mp4	0.0	275.18350768089294	2.491987943649292
59	260.77248191833496	pulse	1	t		57.0	2.5	/experiments/Knapen_AOT/AOT_stimuli/rescaled_final/1732_fw.mp4	0.0	276.3588342666626	
59	262.0891432762146	fix_post	2		12	57.0	2.5	/experiments/Knapen_AOT/AOT_stimuli/rescaled_final/1732_fw.mp4	0.0	277.67549562454224	0.10000133514404297
60	262.18914461135864	fix_pre	0		120	58.0	2.5	/experiments/Knapen_AOT/AOT_stimuli/rescaled_final/2040_rv.mp4	0.0	277.7754969596863	1.0085358619689941
60	262.3727707862854	pulse	0	t		58.0	2.5	/experiments/Knapen_AOT/AOT_stimuli/rescaled_final/2040_rv.mp4	0.0	277.95912313461304	
60	263.19768047332764	movie	1		288	58.0	2.5	/experiments/Knapen_AOT/AOT_stimuli/rescaled_final/2040_rv.mp4	0.0	278.7840328216553	2.492027759552002
60	263.9732747077942	pulse	1	t		58.0	2.5	/experiments/Knapen_AOT/AOT_stimuli/rescaled_final/2040_rv.mp4	0.0	279.5596270561218	
60	265.5733325481415	pulse	1	t		58.0	2.5	/experiments/Knapen_AOT/AOT_stimuli/rescaled_final/2040_rv.mp4	0.0	281.1596848964691	
60	265.68970823287964	fix_post	2		12	58.0	2.5	/experiments/Knapen_AOT/AOT_stimuli/rescaled_final/2040_rv.mp4	0.0	281.2760605812073	0.10007524490356445
61	265.7897834777832	fix_pre	0		120	59.0	2.5	/experiments/Knapen_AOT/AOT_stimuli/rescaled_final/1418_rv.mp4	0.0	281.37613582611084	1.0084459781646729
61	266.7982294559479	movie	1		289	59.0	2.5	/experiments/Knapen_AOT/AOT_stimuli/rescaled_final/1418_rv.mp4	0.0	282.3845818042755	2.4920527935028076
61	267.1725769042969	pulse	1	t		59.0	2.5	/experiments/Knapen_AOT/AOT_stimuli/rescaled_final/1418_rv.mp4	0.0	282.7589292526245	
61	268.7737350463867	pulse	1	t		59.0	2.5	/experiments/Knapen_AOT/AOT_stimuli/rescaled_final/1418_rv.mp4	0.0	284.36008739471436	
61	269.2902822494507	fix_post	2		12	59.0	2.5	/experiments/Knapen_AOT/AOT_stimuli/rescaled_final/1418_rv.mp4	0.0	284.8766345977783	0.09998273849487305
62	269.39026498794556	fix_pre	0		119	60.0	2.5	/experiments/Knapen_AOT/AOT_stimuli/rescaled_final/0330_fw.mp4	0.0	284.9766173362732	1.0002784729003906
62	270.3739757537842	pulse	0	t		60.0	2.5	/experiments/Knapen_AOT/AOT_stimuli/rescaled_final/0330_fw.mp4	0.0	285.9603281021118	
62	270.39054346084595	movie	1		286	60.0	2.5	/experiments/Knapen_AOT/AOT_stimuli/rescaled_final/0330_fw.mp4	0.0	285.9768958091736	2.5002048015594482
62	271.9734253883362	pulse	1	t		60.0	2.5	/experiments/Knapen_AOT/AOT_stimuli/rescaled_final/0330_fw.mp4	0.0	287.5597777366638	
62	272.8907482624054	fix_post	2		12	60.0	2.5	/experiments/Knapen_AOT/AOT_stimuli/rescaled_final/0330_fw.mp4	0.0	288.47710061073303	0.10001659393310547
63	272.9907648563385	fix_pre	0		120	61.0	2.5	/experiments/Knapen_AOT/AOT_stimuli/rescaled_final/0884_rv.mp4	0.0	288.57711720466614	1.0001468658447266
63	273.57430267333984	pulse	0	t		61.0	2.5	/experiments/Knapen_AOT/AOT_stimuli/rescaled_final/0884_rv.mp4	0.0	289.1606550216675	
63	273.9909117221832	movie	1		300	61.0	2.5	/experiments/Knapen_AOT/AOT_stimuli/rescaled_final/0884_rv.mp4	0.0	289.57726407051086	2.5003855228424072
63	275.1745800971985	pulse	1	t		61.0	2.5	/experiments/Knapen_AOT/AOT_stimuli/rescaled_final/0884_rv.mp4	0.0	290.7609324455261	
63	276.49129724502563	fix_post	2		12	61.0	2.5	/experiments/Knapen_AOT/AOT_stimuli/rescaled_final/0884_rv.mp4	0.0	292.07764959335327	0.10000753402709961
64	276.59130477905273	fix_pre	0		120	62.0	2.5	blank	1.0	292.17765712738037	1.0001730918884277
64	276.774861574173	pulse	0	t		62.0	2.5	blank	1.0	292.3612139225006	
64	277.59147787094116	movie	1		300	62.0	2.5	blank	1.0	293.1778302192688	2.500408887863159
64	278.37518858909607	pulse	1	t		62.0	2.5	blank	1.0	293.9615409374237	
64	279.97534465789795	pulse	1	t		62.0	2.5	blank	1.0	295.5616970062256	
64	280.0918867588043	fix_post	2		12	62.0	2.5	blank	1.0	295.67823910713196	0.0999898910522461
65	280.19187664985657	fix_pre	0		120	63.0	2.5	/experiments/Knapen_AOT/AOT_stimuli/rescaled_final/2146_fw.mp4	0.0	295.7782289981842	1.0085093975067139
65	281.2003860473633	movie	1		268	63.0	2.5	/experiments/Knapen_AOT/AOT_stimuli/rescaled_final/2146_fw.mp4	0.0	296.7867383956909	2.49202036857605
65	281.5754678249359	pulse	1	t		63.0	2.5	/experiments/Knapen_AOT/AOT_stimuli/rescaled_final/2146_fw.mp4	0.0	297.16182017326355	
65	283.1759135723114	pulse	1	t		63.0	2.5	/experiments/Knapen_AOT/AOT_stimuli/rescaled_final/2146_fw.mp4	0.0	298.76226592063904	
65	283.69240641593933	fix_post	2		12	63.0	2.5	/experiments/Knapen_AOT/AOT_stimuli/rescaled_final/2146_fw.mp4	0.0	299.27875876426697	0.1000213623046875
66	283.792427778244	fix_pre	0		119	64.0	2.5	/experiments/Knapen_AOT/AOT_stimuli/rescaled_final/0812_rv.mp4	0.0	299.37878012657166	1.0001485347747803
66	284.7761013507843	pulse	0	t		64.0	2.5	/experiments/Knapen_AOT/AOT_stimuli/rescaled_final/0812_rv.mp4	0.0	300.36245369911194	
66	284.7925763130188	movie	1		292	64.0	2.5	/experiments/Knapen_AOT/AOT_stimuli/rescaled_final/0812_rv.mp4	0.0	300.37892866134644	2.5003440380096436
66	286.3755099773407	pulse	1	t		64.0	2.5	/experiments/Knapen_AOT/AOT_stimuli/rescaled_final/0812_rv.mp4	0.0	301.96186232566833	
66	287.29292035102844	fix_post	2		12	64.0	2.5	/experiments/Knapen_AOT/AOT_stimuli/rescaled_final/0812_rv.mp4	0.0	302.8792726993561	0.10004234313964844
67	287.3929626941681	fix_pre	0		120	65.0	2.5	/experiments/Knapen_AOT/AOT_stimuli/rescaled_final/1488_fw.mp4	0.0	302.9793150424957	1.000105381011963
67	287.9765567779541	pulse	0	t		65.0	2.5	/experiments/Knapen_AOT/AOT_stimuli/rescaled_final/1488_fw.mp4	0.0	303.56290912628174	
67	288.39306807518005	movie	1		294	65.0	2.5	/experiments/Knapen_AOT/AOT_stimuli/rescaled_final/1488_fw.mp4	0.0	303.9794204235077	2.500415563583374
67	289.5740797519684	pulse	1	t		65.0	2.5	/experiments/Knapen_AOT/AOT_stimuli/rescaled_final/1488_fw.mp4	0.0	305.160432100296	
67	290.8934836387634	fix_post	2		12	65.0	2.5	/experiments/Knapen_AOT/AOT_stimuli/rescaled_final/1488_fw.mp4	0.0	306.47983598709106	0.09999680519104004
68	290.99348044395447	fix_pre	0		120	66.0	2.5	/experiments/Knapen_AOT/AOT_stimuli/rescaled_final/2175_fw.mp4	0.0	306.5798327922821	1.0085077285766602
68	291.17694330215454	pulse	0	t		66.0	2.5	/experiments/Knapen_AOT/AOT_stimuli/rescaled_final/2175_fw.mp4	0.0	306.7632956504822	
68	292.0019881725311	movie	1		293	66.0	2.5	/experiments/Knapen_AOT/AOT_stimuli/rescaled_final/2175_fw.mp4	0.0	307.58834052085876	2.49200701713562
68	292.77306270599365	pulse	1	t		66.0	2.5	/experiments/Knapen_AOT/AOT_stimuli/rescaled_final/2175_fw.mp4	0.0	308.3594150543213	
68	294.3731758594513	pulse	1	t		66.0	2.5	/experiments/Knapen_AOT/AOT_stimuli/rescaled_final/2175_fw.mp4	0.0	309.95952820777893	
68	294.49399518966675	fix_post	2		12	66.0	2.5	/experiments/Knapen_AOT/AOT_stimuli/rescaled_final/2175_fw.mp4	0.0	310.0803475379944	0.0999748706817627
69	294.5939700603485	fix_pre	0		120	67.0	2.5	/experiments/Knapen_AOT/AOT_stimuli/rescaled_final/0729_rv.mp4	0.0	310.18032240867615	1.000307559967041
69	295.59427762031555	movie	1		289	67.0	2.5	/experiments/Knapen_AOT/AOT_stimuli/rescaled_final/0729_rv.mp4	0.0	311.1806299686432	2.500272274017334
69	295.97643089294434	pulse	1	t		67.0	2.5	/experiments/Knapen_AOT/AOT_stimuli/rescaled_final/0729_rv.mp4	0.0	311.562783241272	
69	297.57380962371826	pulse	1	t		67.0	2.5	/experiments/Knapen_AOT/AOT_stimuli/rescaled_final/0729_rv.mp4	0.0	313.1601619720459	
69	298.0945498943329	fix_post	2		12	67.0	2.5	/experiments/Knapen_AOT/AOT_stimuli/rescaled_final/0729_rv.mp4	0.0	313.6809022426605	0.09998917579650879
70	298.1945390701294	fix_pre	0		119	68.0	2.5	/experiments/Knapen_AOT/AOT_stimuli/rescaled_final/2008_rv.mp4	0.0	313.78089141845703	1.0002260208129883
70	299.1785798072815	pulse	0	t		68.0	2.5	/experiments/Knapen_AOT/AOT_stimuli/rescaled_final/2008_rv.mp4	0.0	314.76493215560913	
70	299.1947650909424	movie	1		294	68.0	2.5	/experiments/Knapen_AOT/AOT_stimuli/rescaled_final/2008_rv.mp4	0.0	314.78111743927	2.5003442764282227
70	300.77607440948486	pulse	1	t		68.0	2.5	/experiments/Knapen_AOT/AOT_stimuli/rescaled_final/2008_rv.mp4	0.0	316.3624267578125	
70	301.6951093673706	fix_post	2		12	68.0	2.5	/experiments/Knapen_AOT/AOT_stimuli/rescaled_final/2008_rv.mp4	0.0	317.28146171569824	0.10001087188720703
71	301.7951202392578	fix_pre	0		120	69.0	2.5	/experiments/Knapen_AOT/AOT_stimuli/rescaled_final/0152_fw.mp4	0.0	317.38147258758545	1.0084388256072998
71	302.37159729003906	pulse	0	t		69.0	2.5	/experiments/Knapen_AOT/AOT_stimuli/rescaled_final/0152_fw.mp4	0.0	317.9579496383667	
71	302.8035590648651	movie	1		262	69.0	2.5	/experiments/Knapen_AOT/AOT_stimuli/rescaled_final/0152_fw.mp4	0.0	318.38991141319275	2.492081642150879
71	303.977689743042	pulse	1	t		69.0	2.5	/experiments/Knapen_AOT/AOT_stimuli/rescaled_final/0152_fw.mp4	0.0	319.56404209136963	
71	305.295640707016	fix_post	2		12	69.0	2.5	/experiments/Knapen_AOT/AOT_stimuli/rescaled_final/0152_fw.mp4	0.0	320.8819930553436	0.10002350807189941
72	305.3956642150879	fix_pre	0		120	70.0	2.5	blank	1.0	320.9820165634155	1.0001542568206787
72	305.5729548931122	pulse	0	t		70.0	2.5	blank	1.0	321.1593072414398	
72	306.39581847190857	movie	1		300	70.0	2.5	blank	1.0	321.9821708202362	2.500392436981201
72	307.17154145240784	pulse	1	t		70.0	2.5	blank	1.0	322.7578938007355	
72	308.77144145965576	pulse	1	t		70.0	2.5	blank	1.0	324.3577938079834	
72	308.89621090888977	fix_post	2		12	70.0	2.5	blank	1.0	324.4825632572174	0.0999915599822998
73	308.99620246887207	fix_pre	0		120	71.0	2.5	/experiments/Knapen_AOT/AOT_stimuli/rescaled_final/1018_fw.mp4	0.0	324.5825548171997	1.008493185043335
73	310.0046956539154	movie	1		282	71.0	2.5	/experiments/Knapen_AOT/AOT_stimuli/rescaled_final/1018_fw.mp4	0.0	325.59104800224304	2.492037057876587
73	310.37188839912415	pulse	1	t		71.0	2.5	/experiments/Knapen_AOT/AOT_stimuli/rescaled_final/1018_fw.mp4	0.0	325.9582407474518	
73	311.9718897342682	pulse	1	t		71.0	2.5	/experiments/Knapen_AOT/AOT_stimuli/rescaled_final/1018_fw.mp4	0.0	327.5582420825958	
73	312.496732711792	fix_post	2		12	71.0	2.5	/experiments/Knapen_AOT/AOT_stimuli/rescaled_final/1018_fw.mp4	0.0	328.08308506011963	0.10000967979431152
74	312.5967423915863	fix_pre	0		118	72.0	2.5	/experiments/Knapen_AOT/AOT_stimuli/rescaled_final/2006_rv.mp4	0.0	328.18309473991394	1.000267505645752
74	313.572185754776	pulse	0	t		72.0	2.5	/experiments/Knapen_AOT/AOT_stimuli/rescaled_final/2006_rv.mp4	0.0	329.15853810310364	
74	313.59700989723206	movie	1		276	72.0	2.5	/experiments/Knapen_AOT/AOT_stimuli/rescaled_final/2006_rv.mp4	0.0	329.1833622455597	2.4919593334198
74	315.17171478271484	pulse	1	t		72.0	2.5	/experiments/Knapen_AOT/AOT_stimuli/rescaled_final/2006_rv.mp4	0.0	330.7580671310425	
74	316.08896923065186	fix_post	2		12	72.0	2.5	/experiments/Knapen_AOT/AOT_stimuli/rescaled_final/2006_rv.mp4	0.0	331.6753215789795	0.10003256797790527
75	316.18900179862976	fix_pre	0		120	73.0	2.5	/experiments/Knapen_AOT/AOT_stimuli/rescaled_final/1769_rv.mp4	0.0	331.7753541469574	1.0084102153778076
75	316.7725307941437	pulse	0	t		73.0	2.5	/experiments/Knapen_AOT/AOT_stimuli/rescaled_final/1769_rv.mp4	0.0	332.3588831424713	
75	317.19741201400757	movie	1		256	73.0	2.5	/experiments/Knapen_AOT/AOT_stimuli/rescaled_final/1769_rv.mp4	0.0	332.7837643623352	2.492183208465576
75	318.3729131221771	pulse	1	t		73.0	2.5	/experiments/Knapen_AOT/AOT_stimuli/rescaled_final/1769_rv.mp4	0.0	333.95926547050476	
75	319.68959522247314	fix_post	2		12	73.0	2.5	/experiments/Knapen_AOT/AOT_stimuli/rescaled_final/1769_rv.mp4	0.0	335.2759475708008	0.09991335868835449
76	319.7895085811615	fix_pre	0		120	74.0	2.5	/experiments/Knapen_AOT/AOT_stimuli/rescaled_final/1232_rv.mp4	0.0	335.37586092948914	1.008497714996338
76	319.97304797172546	pulse	0	t		74.0	2.5	/experiments/Knapen_AOT/AOT_stimuli/rescaled_final/1232_rv.mp4	0.0	335.5594003200531	
76	320.79800629615784	movie	1		277	74.0	2.5	/experiments/Knapen_AOT/AOT_stimuli/rescaled_final/1232_rv.mp4	0.0	336.3843586444855	2.492002248764038
76	321.5714509487152	pulse	1	t		74.0	2.5	/experiments/Knapen_AOT/AOT_stimuli/rescaled_final/1232_rv.mp4	0.0	337.15780329704285	
76	323.1722619533539	pulse	1	t		74.0	2.5	/experiments/Knapen_AOT/AOT_stimuli/rescaled_final/1232_rv.mp4	0.0	338.7586143016815	
76	323.2900085449219	fix_post	2		12	74.0	2.5	/experiments/Knapen_AOT/AOT_stimuli/rescaled_final/1232_rv.mp4	0.0	338.8763608932495	0.10002517700195312
77	323.3900337219238	fix_pre	0		120	75.0	2.5	/experiments/Knapen_AOT/AOT_stimuli/rescaled_final/1675_rv.mp4	0.0	338.97638607025146	1.0085453987121582
77	324.398579120636	movie	1		279	75.0	2.5	/experiments/Knapen_AOT/AOT_stimuli/rescaled_final/1675_rv.mp4	0.0	339.9849314689636	2.4919986724853516
77	324.772091627121	pulse	1	t		75.0	2.5	/experiments/Knapen_AOT/AOT_stimuli/rescaled_final/1675_rv.mp4	0.0	340.3584439754486	
77	326.3744373321533	pulse	1	t		75.0	2.5	/experiments/Knapen_AOT/AOT_stimuli/rescaled_final/1675_rv.mp4	0.0	341.96078968048096	
77	326.89057779312134	fix_post	2		12	75.0	2.5	/experiments/Knapen_AOT/AOT_stimuli/rescaled_final/1675_rv.mp4	0.0	342.476930141449	0.10000371932983398
78	326.9905815124512	fix_pre	0		119	76.0	2.5	/experiments/Knapen_AOT/AOT_stimuli/rescaled_final/0677_fw.mp4	0.0	342.5769338607788	1.0001521110534668
78	327.9743995666504	pulse	0	t		76.0	2.5	/experiments/Knapen_AOT/AOT_stimuli/rescaled_final/0677_fw.mp4	0.0	343.560751914978	
78	327.99073362350464	movie	1		277	76.0	2.5	/experiments/Knapen_AOT/AOT_stimuli/rescaled_final/0677_fw.mp4	0.0	343.5770859718323	2.500361204147339
78	329.5745937824249	pulse	1	t		76.0	2.5	/experiments/Knapen_AOT/AOT_stimuli/rescaled_final/0677_fw.mp4	0.0	345.16094613075256	
78	330.491094827652	fix_post	2		12	76.0	2.5	/experiments/Knapen_AOT/AOT_stimuli/rescaled_final/0677_fw.mp4	0.0	346.0774471759796	0.10001444816589355
79	330.59110927581787	fix_pre	0		120	77.0	2.5	blank	1.0	346.1774616241455	1.000152826309204
79	331.17508459091187	pulse	0	t		77.0	2.5	blank	1.0	346.7614369392395	
79	331.5912621021271	movie	1		300	77.0	2.5	blank	1.0	347.1776144504547	2.500392198562622
79	332.77542996406555	pulse	1	t		77.0	2.5	blank	1.0	348.3617823123932	
79	334.0916543006897	fix_post	2		12	77.0	2.5	blank	1.0	349.67800664901733	0.1000211238861084
80	334.1916754245758	fix_pre	0		120	78.0	2.5	/experiments/Knapen_AOT/AOT_stimuli/rescaled_final/1795_fw.mp4	0.0	349.77802777290344	1.0084950923919678
80	334.37517523765564	pulse	0	t		78.0	2.5	/experiments/Knapen_AOT/AOT_stimuli/rescaled_final/1795_fw.mp4	0.0	349.9615275859833	
80	335.2001705169678	movie	1		279	78.0	2.5	/experiments/Knapen_AOT/AOT_stimuli/rescaled_final/1795_fw.mp4	0.0	350.7865228652954	2.491997718811035
80	335.973605632782	pulse	1	t		78.0	2.5	/experiments/Knapen_AOT/AOT_stimuli/rescaled_final/1795_fw.mp4	0.0	351.5599579811096	
80	337.5737760066986	pulse	1	t		78.0	2.5	/experiments/Knapen_AOT/AOT_stimuli/rescaled_final/1795_fw.mp4	0.0	353.16012835502625	
80	337.6921682357788	fix_post	2		12	78.0	2.5	/experiments/Knapen_AOT/AOT_stimuli/rescaled_final/1795_fw.mp4	0.0	353.27852058410645	0.10002899169921875
81	337.792197227478	fix_pre	0		120	79.0	2.5	/experiments/Knapen_AOT/AOT_stimuli/rescaled_final/1479_rv.mp4	0.0	353.37854957580566	1.0085010528564453
81	338.8006982803345	movie	1		261	79.0	2.5	/experiments/Knapen_AOT/AOT_stimuli/rescaled_final/1479_rv.mp4	0.0	354.3870506286621	2.492095947265625
81	339.17464566230774	pulse	1	t		79.0	2.5	/experiments/Knapen_AOT/AOT_stimuli/rescaled_final/1479_rv.mp4	0.0	354.7609980106354	
81	340.77461671829224	pulse	1	t		79.0	2.5	/experiments/Knapen_AOT/AOT_stimuli/rescaled_final/1479_rv.mp4	0.0	356.3609690666199	
81	341.2927942276001	fix_post	2		11	79.0	2.5	/experiments/Knapen_AOT/AOT_stimuli/rescaled_final/1479_rv.mp4	0.0	356.87914657592773	0.09994268417358398
82	341.3927369117737	fix_pre	0		119	80.0	2.5	/experiments/Knapen_AOT/AOT_stimuli/rescaled_final/0641_rv.mp4	0.0	356.9790892601013	1.008650541305542
82	342.37648344039917	pulse	0	t		80.0	2.5	/experiments/Knapen_AOT/AOT_stimuli/rescaled_final/0641_rv.mp4	0.0	357.9628357887268	
82	342.4013874530792	movie	1		289	80.0	2.5	/experiments/Knapen_AOT/AOT_stimuli/rescaled_final/0641_rv.mp4	0.0	357.98773980140686	2.4919137954711914
82	343.9756271839142	pulse	1	t		80.0	2.5	/experiments/Knapen_AOT/AOT_stimuli/rescaled_final/0641_rv.mp4	0.0	359.5619795322418	
82	344.8933012485504	fix_post	2		12	80.0	2.5	/experiments/Knapen_AOT/AOT_stimuli/rescaled_final/0641_rv.mp4	0.0	360.47965359687805	0.09998011589050293
83	344.9932813644409	fix_pre	0		120	81.0	2.5	/experiments/Knapen_AOT/AOT_stimuli/rescaled_final/0043_fw.mp4	0.0	360.57963371276855	1.0084786415100098
83	345.57698917388916	pulse	0	t		81.0	2.5	/experiments/Knapen_AOT/AOT_stimuli/rescaled_final/0043_fw.mp4	0.0	361.1633415222168	
83	346.0017600059509	movie	1		279	81.0	2.5	/experiments/Knapen_AOT/AOT_stimuli/rescaled_final/0043_fw.mp4	0.0	361.58811235427856	2.492067337036133
83	347.17798233032227	pulse	1	t		81.0	2.5	/experiments/Knapen_AOT/AOT_stimuli/rescaled_final/0043_fw.mp4	0.0	362.7643346786499	
83	348.49382734298706	fix_post	2		12	81.0	2.5	/experiments/Knapen_AOT/AOT_stimuli/rescaled_final/0043_fw.mp4	0.0	364.0801796913147	0.0999917984008789
84	348.59381914138794	fix_pre	0		120	82.0	2.5	/experiments/Knapen_AOT/AOT_stimuli/rescaled_final/0977_fw.mp4	0.0	364.1801714897156	1.0085110664367676
84	348.7775113582611	pulse	0	t		82.0	2.5	/experiments/Knapen_AOT/AOT_stimuli/rescaled_final/0977_fw.mp4	0.0	364.36386370658875	
84	349.6023302078247	movie	1		279	82.0	2.5	/experiments/Knapen_AOT/AOT_stimuli/rescaled_final/0977_fw.mp4	0.0	365.18868255615234	2.4920220375061035
84	350.37600779533386	pulse	1	t		82.0	2.5	/experiments/Knapen_AOT/AOT_stimuli/rescaled_final/0977_fw.mp4	0.0	365.9623601436615	
84	351.976145029068	pulse	1	t		82.0	2.5	/experiments/Knapen_AOT/AOT_stimuli/rescaled_final/0977_fw.mp4	0.0	367.56249737739563	
84	352.0943522453308	fix_post	2		11	82.0	2.5	/experiments/Knapen_AOT/AOT_stimuli/rescaled_final/0977_fw.mp4	0.0	367.68070459365845	0.10001111030578613
85	352.1943633556366	fix_pre	0		120	83.0	2.5	blank	1.0	367.78071570396423	1.0001614093780518
85	353.19452476501465	movie	1		300	83.0	2.5	blank	1.0	368.7808771133423	2.5003867149353027
85	353.5782079696655	pulse	1	t		83.0	2.5	blank	1.0	369.16456031799316	
85	355.17839002609253	pulse	1	t		83.0	2.5	blank	1.0	370.76474237442017	
85	355.69491147994995	fix_post	2		12	83.0	2.5	blank	1.0	371.2812638282776	0.10001397132873535
87	355.7949254512787	stim	0		1716					371.3812777996063	14.302177429199219
87	356.7720215320587	pulse	0	t						372.35837388038635	
87	358.37884640693665	pulse	0	t						373.9651987552643	
87	359.9792413711548	pulse	0	t						375.5655937194824	
87	361.5793650150299	pulse	0	t						377.16571736335754	
87	363.1724262237549	pulse	0	t						378.7587785720825	
87	364.7721571922302	pulse	0	t						380.35850954055786	
87	366.3719177246094	pulse	0	t						381.958270072937	
87	367.9719877243042	pulse	0	t						383.55834007263184	
87	369.5724856853485	pulse	0	t						385.15883803367615	
