trial_nr	onset	event_type	phase	response	nr_frames	movie_index	movie_duration	movie_file	blank	onset_abs	duration
0	0.13293004035949707	stim	0		53					39.16893005371094	0.4421358108520508
0	0.567147970199585	response	0	space						39.603147983551025	
1	0.5750658512115479	stim	0		4708					39.61106586456299	39.23292112350464
1	39.80138087272644	pulse	0	t						78.83738088607788	
1	39.80798697471619	stim	1		1717					78.84398698806763	14.308326005935669
1	41.39161491394043	pulse	1	t						80.42761492729187	
1	42.991626024246216	pulse	1	t						82.02762603759766	
1	44.59155201911926	pulse	1	t						83.6275520324707	
1	46.19166398048401	pulse	1	t						85.22766399383545	
1	47.7914719581604	pulse	1	t						86.82747197151184	
1	49.3915159702301	pulse	1	t						88.42751598358154	
1	50.99136686325073	pulse	1	t						90.02736687660217	
1	52.59152793884277	pulse	1	t						91.62752795219421	
2	54.116312980651855	fix_pre	0		10	0.0	2.5	/experiments/AOT/AOT_stimuli/rescaled_final/1652_fw.mp4	0.0	93.1523129940033	0.08339190483093262
2	54.19148087501526	pulse	0	t		0.0	2.5	/experiments/AOT/AOT_stimuli/rescaled_final/1652_fw.mp4	0.0	93.2274808883667	
2	54.19970488548279	movie	1		239	0.0	2.5	/experiments/AOT/AOT_stimuli/rescaled_final/1652_fw.mp4	0.0	93.23570489883423	2.5086851119995117
2	55.79137587547302	pulse	1	t		0.0	2.5	/experiments/AOT/AOT_stimuli/rescaled_final/1652_fw.mp4	0.0	94.82737588882446	
2	56.7083899974823	fix_post	2		12	0.0	2.5	/experiments/AOT/AOT_stimuli/rescaled_final/1652_fw.mp4	0.0	95.74439001083374	0.0996088981628418
3	56.80799889564514	fix_pre	0		120	1.0	2.5	/experiments/AOT/AOT_stimuli/rescaled_final/1481_fw.mp4	0.0	95.84399890899658	1.0003440380096436
3	57.39150404930115	pulse	0	t		1.0	2.5	/experiments/AOT/AOT_stimuli/rescaled_final/1481_fw.mp4	0.0	96.42750406265259	
3	57.808342933654785	movie	1		242	1.0	2.5	/experiments/AOT/AOT_stimuli/rescaled_final/1481_fw.mp4	0.0	96.84434294700623	2.5001161098480225
3	58.991546869277954	pulse	1	t		1.0	2.5	/experiments/AOT/AOT_stimuli/rescaled_final/1481_fw.mp4	0.0	98.0275468826294	
3	60.30845904350281	fix_post	2		12	1.0	2.5	/experiments/AOT/AOT_stimuli/rescaled_final/1481_fw.mp4	0.0	99.34445905685425	0.09949183464050293
4	60.40795087814331	fix_pre	0		120	2.0	2.5	/experiments/AOT/AOT_stimuli/rescaled_final/1927_rv.mp4	0.0	99.44395089149475	1.0000250339508057
4	60.591426849365234	pulse	0	t		2.0	2.5	/experiments/AOT/AOT_stimuli/rescaled_final/1927_rv.mp4	0.0	99.62742686271667	
4	61.407975912094116	movie	1		243	2.0	2.5	/experiments/AOT/AOT_stimuli/rescaled_final/1927_rv.mp4	0.0	100.44397592544556	2.5002710819244385
4	62.192237854003906	pulse	1	t		2.0	2.5	/experiments/AOT/AOT_stimuli/rescaled_final/1927_rv.mp4	0.0	101.22823786735535	
4	63.80007004737854	pulse	1	t		2.0	2.5	/experiments/AOT/AOT_stimuli/rescaled_final/1927_rv.mp4	0.0	102.83607006072998	
4	63.908246994018555	fix_post	2		12	2.0	2.5	/experiments/AOT/AOT_stimuli/rescaled_final/1927_rv.mp4	0.0	102.94424700737	0.09956693649291992
5	64.00781393051147	fix_pre	0		120	3.0	2.5	/experiments/AOT/AOT_stimuli/rescaled_final/1537_rv.mp4	0.0	103.04381394386292	1.0014829635620117
5	65.00929689407349	movie	1		243	3.0	2.5	/experiments/AOT/AOT_stimuli/rescaled_final/1537_rv.mp4	0.0	104.04529690742493	2.498793125152588
5	65.3909740447998	pulse	1	t		3.0	2.5	/experiments/AOT/AOT_stimuli/rescaled_final/1537_rv.mp4	0.0	104.42697405815125	
5	66.99136400222778	pulse	1	t		3.0	2.5	/experiments/AOT/AOT_stimuli/rescaled_final/1537_rv.mp4	0.0	106.02736401557922	
5	67.50809001922607	fix_post	2		12	3.0	2.5	/experiments/AOT/AOT_stimuli/rescaled_final/1537_rv.mp4	0.0	106.54409003257751	0.09995293617248535
6	67.60804295539856	fix_pre	0		119	4.0	2.5	/experiments/AOT/AOT_stimuli/rescaled_final/1616_rv.mp4	0.0	106.64404296875	0.992027997970581
6	68.59198188781738	pulse	0	t		4.0	2.5	/experiments/AOT/AOT_stimuli/rescaled_final/1616_rv.mp4	0.0	107.62798190116882	
6	68.60007095336914	movie	1		244	4.0	2.5	/experiments/AOT/AOT_stimuli/rescaled_final/1616_rv.mp4	0.0	107.63607096672058	2.5083649158477783
6	70.19100594520569	pulse	1	t		4.0	2.5	/experiments/AOT/AOT_stimuli/rescaled_final/1616_rv.mp4	0.0	109.22700595855713	
6	71.10843586921692	fix_post	2		12	4.0	2.5	/experiments/AOT/AOT_stimuli/rescaled_final/1616_rv.mp4	0.0	110.14443588256836	0.09949302673339844
7	71.20792889595032	fix_pre	0		120	5.0	2.5	/experiments/AOT/AOT_stimuli/rescaled_final/1420_fw.mp4	0.0	110.24392890930176	1.0006799697875977
7	71.79143905639648	pulse	0	t		5.0	2.5	/experiments/AOT/AOT_stimuli/rescaled_final/1420_fw.mp4	0.0	110.82743906974792	
7	72.20860886573792	movie	1		248	5.0	2.5	/experiments/AOT/AOT_stimuli/rescaled_final/1420_fw.mp4	0.0	111.24460887908936	2.5002281665802
7	73.3916380405426	pulse	1	t		5.0	2.5	/experiments/AOT/AOT_stimuli/rescaled_final/1420_fw.mp4	0.0	112.42763805389404	
7	74.70883703231812	fix_post	2		12	5.0	2.5	/experiments/AOT/AOT_stimuli/rescaled_final/1420_fw.mp4	0.0	113.74483704566956	0.09905886650085449
8	74.80789589881897	fix_pre	0		120	6.0	2.5	blank	1.0	113.84389591217041	0.9997880458831787
8	74.99141097068787	pulse	0	t		6.0	2.5	blank	1.0	114.0274109840393	
8	75.80768394470215	movie	1		300	6.0	2.5	blank	1.0	114.84368395805359	2.5001580715179443
8	76.59108591079712	pulse	1	t		6.0	2.5	blank	1.0	115.62708592414856	
8	78.19136691093445	pulse	1	t		6.0	2.5	blank	1.0	117.22736692428589	
8	78.30784201622009	fix_post	2		12	6.0	2.5	blank	1.0	117.34384202957153	0.10093188285827637
9	78.40877389907837	fix_pre	0		120	7.0	2.5	/experiments/AOT/AOT_stimuli/rescaled_final/2165_fw.mp4	0.0	117.44477391242981	0.999129056930542
9	79.40790295600891	movie	1		243	7.0	2.5	/experiments/AOT/AOT_stimuli/rescaled_final/2165_fw.mp4	0.0	118.44390296936035	2.4995579719543457
9	79.79242086410522	pulse	1	t		7.0	2.5	/experiments/AOT/AOT_stimuli/rescaled_final/2165_fw.mp4	0.0	118.82842087745667	
9	81.39132595062256	pulse	1	t		7.0	2.5	/experiments/AOT/AOT_stimuli/rescaled_final/2165_fw.mp4	0.0	120.427325963974	
9	81.90746092796326	fix_post	2		12	7.0	2.5	/experiments/AOT/AOT_stimuli/rescaled_final/2165_fw.mp4	0.0	120.9434609413147	0.10000395774841309
10	82.00746488571167	fix_pre	0		119	8.0	2.5	/experiments/AOT/AOT_stimuli/rescaled_final/0878_fw.mp4	0.0	121.04346489906311	0.9927799701690674
10	82.99175691604614	pulse	0	t		8.0	2.5	/experiments/AOT/AOT_stimuli/rescaled_final/0878_fw.mp4	0.0	122.02775692939758	
10	83.00024485588074	movie	1		245	8.0	2.5	/experiments/AOT/AOT_stimuli/rescaled_final/0878_fw.mp4	0.0	122.03624486923218	2.5080511569976807
10	84.59092283248901	pulse	1	t		8.0	2.5	/experiments/AOT/AOT_stimuli/rescaled_final/0878_fw.mp4	0.0	123.62692284584045	
10	85.50829601287842	fix_post	2		12	8.0	2.5	/experiments/AOT/AOT_stimuli/rescaled_final/0878_fw.mp4	0.0	124.54429602622986	0.0991659164428711
11	85.60746192932129	fix_pre	0		120	9.0	2.5	/experiments/AOT/AOT_stimuli/rescaled_final/0241_rv.mp4	0.0	124.64346194267273	1.0007739067077637
11	86.19101095199585	pulse	0	t		9.0	2.5	/experiments/AOT/AOT_stimuli/rescaled_final/0241_rv.mp4	0.0	125.22701096534729	
11	86.60823583602905	movie	1		244	9.0	2.5	/experiments/AOT/AOT_stimuli/rescaled_final/0241_rv.mp4	0.0	125.6442358493805	2.499155044555664
11	87.79180884361267	pulse	1	t		9.0	2.5	/experiments/AOT/AOT_stimuli/rescaled_final/0241_rv.mp4	0.0	126.82780885696411	
11	89.10739088058472	fix_post	2		12	9.0	2.5	/experiments/AOT/AOT_stimuli/rescaled_final/0241_rv.mp4	0.0	128.14339089393616	0.10052013397216797
12	89.20791101455688	fix_pre	0		120	10.0	2.5	/experiments/AOT/AOT_stimuli/rescaled_final/1749_fw.mp4	0.0	128.24391102790833	0.99953293800354
12	89.39131498336792	pulse	0	t		10.0	2.5	/experiments/AOT/AOT_stimuli/rescaled_final/1749_fw.mp4	0.0	128.42731499671936	
12	90.20744395256042	movie	1		243	10.0	2.5	/experiments/AOT/AOT_stimuli/rescaled_final/1749_fw.mp4	0.0	129.24344396591187	2.50115704536438
12	90.99097299575806	pulse	1	t		10.0	2.5	/experiments/AOT/AOT_stimuli/rescaled_final/1749_fw.mp4	0.0	130.0269730091095	
12	92.59972596168518	pulse	1	t		10.0	2.5	/experiments/AOT/AOT_stimuli/rescaled_final/1749_fw.mp4	0.0	131.63572597503662	
12	92.7086009979248	fix_post	2		12	10.0	2.5	/experiments/AOT/AOT_stimuli/rescaled_final/1749_fw.mp4	0.0	131.74460101127625	0.09919285774230957
13	92.80779385566711	fix_pre	0		120	11.0	2.5	/experiments/AOT/AOT_stimuli/rescaled_final/0384_rv.mp4	0.0	131.84379386901855	0.9996140003204346
13	93.80740785598755	movie	1		244	11.0	2.5	/experiments/AOT/AOT_stimuli/rescaled_final/0384_rv.mp4	0.0	132.843407869339	2.500869035720825
13	94.19119691848755	pulse	1	t		11.0	2.5	/experiments/AOT/AOT_stimuli/rescaled_final/0384_rv.mp4	0.0	133.227196931839	
13	95.79137086868286	pulse	1	t		11.0	2.5	/experiments/AOT/AOT_stimuli/rescaled_final/0384_rv.mp4	0.0	134.8273708820343	
13	96.30827689170837	fix_post	2		12	11.0	2.5	/experiments/AOT/AOT_stimuli/rescaled_final/0384_rv.mp4	0.0	135.34427690505981	0.09957695007324219
14	96.40785384178162	fix_pre	0		119	12.0	2.5	/experiments/AOT/AOT_stimuli/rescaled_final/1412_fw.mp4	0.0	135.44385385513306	0.991981029510498
14	97.3921549320221	pulse	0	t		12.0	2.5	/experiments/AOT/AOT_stimuli/rescaled_final/1412_fw.mp4	0.0	136.42815494537354	
14	97.39983487129211	movie	1		246	12.0	2.5	/experiments/AOT/AOT_stimuli/rescaled_final/1412_fw.mp4	0.0	136.43583488464355	2.5085501670837402
14	98.99110794067383	pulse	1	t		12.0	2.5	/experiments/AOT/AOT_stimuli/rescaled_final/1412_fw.mp4	0.0	138.02710795402527	
14	99.90838503837585	fix_post	2		12	12.0	2.5	/experiments/AOT/AOT_stimuli/rescaled_final/1412_fw.mp4	0.0	138.9443850517273	0.09939885139465332
15	100.00778388977051	fix_pre	0		120	13.0	2.5	/experiments/AOT/AOT_stimuli/rescaled_final/2151_rv.mp4	0.0	139.04378390312195	1.0004031658172607
15	100.59082889556885	pulse	0	t		13.0	2.5	/experiments/AOT/AOT_stimuli/rescaled_final/2151_rv.mp4	0.0	139.6268289089203	
15	101.00818705558777	movie	1		247	13.0	2.5	/experiments/AOT/AOT_stimuli/rescaled_final/2151_rv.mp4	0.0	140.0441870689392	2.499194860458374
15	102.19087600708008	pulse	1	t		13.0	2.5	/experiments/AOT/AOT_stimuli/rescaled_final/2151_rv.mp4	0.0	141.22687602043152	
15	103.50738191604614	fix_post	2		12	13.0	2.5	/experiments/AOT/AOT_stimuli/rescaled_final/2151_rv.mp4	0.0	142.54338192939758	0.10042309761047363
16	103.60780501365662	fix_pre	0		120	14.0	2.5	blank	1.0	142.64380502700806	1.0007579326629639
16	103.79129600524902	pulse	0	t		14.0	2.5	blank	1.0	142.82729601860046	
16	104.60856294631958	movie	1		300	14.0	2.5	blank	1.0	143.64456295967102	2.499329090118408
16	105.39081597328186	pulse	1	t		14.0	2.5	blank	1.0	144.4268159866333	
16	106.99127388000488	pulse	1	t		14.0	2.5	blank	1.0	146.02727389335632	
16	107.10789203643799	fix_post	2		12	14.0	2.5	blank	1.0	146.14389204978943	0.09940886497497559
17	107.20730090141296	fix_pre	0		120	15.0	2.5	/experiments/AOT/AOT_stimuli/rescaled_final/1492_rv.mp4	0.0	146.2433009147644	0.9999780654907227
17	108.20727896690369	movie	1		244	15.0	2.5	/experiments/AOT/AOT_stimuli/rescaled_final/1492_rv.mp4	0.0	147.24327898025513	2.5009210109710693
17	108.5912709236145	pulse	1	t		15.0	2.5	/experiments/AOT/AOT_stimuli/rescaled_final/1492_rv.mp4	0.0	147.62727093696594	
17	110.1911199092865	pulse	1	t		15.0	2.5	/experiments/AOT/AOT_stimuli/rescaled_final/1492_rv.mp4	0.0	149.22711992263794	
17	110.70819997787476	fix_post	2		12	15.0	2.5	/experiments/AOT/AOT_stimuli/rescaled_final/1492_rv.mp4	0.0	149.7441999912262	0.0995779037475586
18	110.80777788162231	fix_pre	0		119	16.0	2.5	/experiments/AOT/AOT_stimuli/rescaled_final/1441_rv.mp4	0.0	149.84377789497375	0.9919929504394531
18	111.79161500930786	pulse	0	t		16.0	2.5	/experiments/AOT/AOT_stimuli/rescaled_final/1441_rv.mp4	0.0	150.8276150226593	
18	111.79977083206177	movie	1		244	16.0	2.5	/experiments/AOT/AOT_stimuli/rescaled_final/1441_rv.mp4	0.0	150.8357708454132	2.508463144302368
18	113.3918080329895	pulse	1	t		16.0	2.5	/experiments/AOT/AOT_stimuli/rescaled_final/1441_rv.mp4	0.0	152.42780804634094	
18	114.30823397636414	fix_post	2		12	16.0	2.5	/experiments/AOT/AOT_stimuli/rescaled_final/1441_rv.mp4	0.0	153.34423398971558	0.09948492050170898
19	114.40771889686584	fix_pre	0		120	17.0	2.5	/experiments/AOT/AOT_stimuli/rescaled_final/1937_rv.mp4	0.0	153.44371891021729	1.0008070468902588
19	114.99162697792053	pulse	0	t		17.0	2.5	/experiments/AOT/AOT_stimuli/rescaled_final/1937_rv.mp4	0.0	154.02762699127197	
19	115.4085259437561	movie	1		248	17.0	2.5	/experiments/AOT/AOT_stimuli/rescaled_final/1937_rv.mp4	0.0	154.44452595710754	2.499682903289795
19	116.5907678604126	pulse	1	t		17.0	2.5	/experiments/AOT/AOT_stimuli/rescaled_final/1937_rv.mp4	0.0	155.62676787376404	
19	117.9082088470459	fix_post	2		12	17.0	2.5	/experiments/AOT/AOT_stimuli/rescaled_final/1937_rv.mp4	0.0	156.94420886039734	0.09913110733032227
20	118.00733995437622	fix_pre	0		120	18.0	2.5	/experiments/AOT/AOT_stimuli/rescaled_final/1259_fw.mp4	0.0	157.04333996772766	1.0014710426330566
20	118.1908848285675	pulse	0	t		18.0	2.5	/experiments/AOT/AOT_stimuli/rescaled_final/1259_fw.mp4	0.0	157.22688484191895	
20	119.00881099700928	movie	1		245	18.0	2.5	/experiments/AOT/AOT_stimuli/rescaled_final/1259_fw.mp4	0.0	158.04481101036072	2.498939037322998
20	119.79190802574158	pulse	1	t		18.0	2.5	/experiments/AOT/AOT_stimuli/rescaled_final/1259_fw.mp4	0.0	158.82790803909302	
20	121.39216685295105	pulse	1	t		18.0	2.5	/experiments/AOT/AOT_stimuli/rescaled_final/1259_fw.mp4	0.0	160.4281668663025	
20	121.50775003433228	fix_post	2		12	18.0	2.5	/experiments/AOT/AOT_stimuli/rescaled_final/1259_fw.mp4	0.0	160.54375004768372	0.10007596015930176
21	121.60782599449158	fix_pre	0		120	19.0	2.5	/experiments/AOT/AOT_stimuli/rescaled_final/1165_fw.mp4	0.0	160.64382600784302	1.0008749961853027
21	122.60870099067688	movie	1		247	19.0	2.5	/experiments/AOT/AOT_stimuli/rescaled_final/1165_fw.mp4	0.0	161.64470100402832	2.498999834060669
21	122.99064302444458	pulse	1	t		19.0	2.5	/experiments/AOT/AOT_stimuli/rescaled_final/1165_fw.mp4	0.0	162.02664303779602	
21	124.59129691123962	pulse	1	t		19.0	2.5	/experiments/AOT/AOT_stimuli/rescaled_final/1165_fw.mp4	0.0	163.62729692459106	
21	125.10770082473755	fix_post	2		12	19.0	2.5	/experiments/AOT/AOT_stimuli/rescaled_final/1165_fw.mp4	0.0	164.143700838089	0.10008621215820312
22	125.20778703689575	fix_pre	0		119	20.0	2.5	blank	1.0	164.2437870502472	0.9924747943878174
22	126.19167900085449	pulse	0	t		20.0	2.5	blank	1.0	165.22767901420593	
22	126.20026183128357	movie	1		301	20.0	2.5	blank	1.0	165.236261844635	2.507378101348877
22	127.7911548614502	pulse	1	t		20.0	2.5	blank	1.0	166.82715487480164	
22	128.70763993263245	fix_post	2		12	20.0	2.5	blank	1.0	167.7436399459839	0.10067296028137207
23	128.80831289291382	fix_pre	0		120	21.0	2.5	/experiments/AOT/AOT_stimuli/rescaled_final/0471_fw.mp4	0.0	167.84431290626526	0.9997000694274902
23	129.39161801338196	pulse	0	t		21.0	2.5	/experiments/AOT/AOT_stimuli/rescaled_final/0471_fw.mp4	0.0	168.4276180267334	
23	129.8080129623413	movie	1		245	21.0	2.5	/experiments/AOT/AOT_stimuli/rescaled_final/0471_fw.mp4	0.0	168.84401297569275	2.499182939529419
23	130.9916980266571	pulse	1	t		21.0	2.5	/experiments/AOT/AOT_stimuli/rescaled_final/0471_fw.mp4	0.0	170.02769804000854	
23	132.30719590187073	fix_post	2		12	21.0	2.5	/experiments/AOT/AOT_stimuli/rescaled_final/0471_fw.mp4	0.0	171.34319591522217	0.1003570556640625
24	132.4075529575348	fix_pre	0		120	22.0	2.5	/experiments/AOT/AOT_stimuli/rescaled_final/1205_fw.mp4	0.0	171.44355297088623	1.0008769035339355
24	132.59109687805176	pulse	0	t		22.0	2.5	/experiments/AOT/AOT_stimuli/rescaled_final/1205_fw.mp4	0.0	171.6270968914032	
24	133.40842986106873	movie	1		244	22.0	2.5	/experiments/AOT/AOT_stimuli/rescaled_final/1205_fw.mp4	0.0	172.44442987442017	2.498779058456421
24	134.19147396087646	pulse	1	t		22.0	2.5	/experiments/AOT/AOT_stimuli/rescaled_final/1205_fw.mp4	0.0	173.2274739742279	
24	135.79106903076172	pulse	1	t		22.0	2.5	/experiments/AOT/AOT_stimuli/rescaled_final/1205_fw.mp4	0.0	174.82706904411316	
24	135.90720891952515	fix_post	2		12	22.0	2.5	/experiments/AOT/AOT_stimuli/rescaled_final/1205_fw.mp4	0.0	174.9432089328766	0.10042595863342285
25	136.00763487815857	fix_pre	0		120	23.0	2.5	/experiments/AOT/AOT_stimuli/rescaled_final/1652_rv.mp4	0.0	175.04363489151	1.0008280277252197
25	137.0084629058838	movie	1		245	23.0	2.5	/experiments/AOT/AOT_stimuli/rescaled_final/1652_rv.mp4	0.0	176.04446291923523	2.4996049404144287
25	137.39078903198242	pulse	1	t		23.0	2.5	/experiments/AOT/AOT_stimuli/rescaled_final/1652_rv.mp4	0.0	176.42678904533386	
25	138.9910089969635	pulse	1	t		23.0	2.5	/experiments/AOT/AOT_stimuli/rescaled_final/1652_rv.mp4	0.0	178.02700901031494	
25	139.50806784629822	fix_post	2		12	23.0	2.5	/experiments/AOT/AOT_stimuli/rescaled_final/1652_rv.mp4	0.0	178.54406785964966	0.0995030403137207
26	139.60757088661194	fix_pre	0		119	24.0	2.5	/experiments/AOT/AOT_stimuli/rescaled_final/0736_rv.mp4	0.0	178.64357089996338	0.9921679496765137
26	140.5914740562439	pulse	0	t		24.0	2.5	/experiments/AOT/AOT_stimuli/rescaled_final/0736_rv.mp4	0.0	179.62747406959534	
26	140.59973883628845	movie	1		249	24.0	2.5	/experiments/AOT/AOT_stimuli/rescaled_final/0736_rv.mp4	0.0	179.6357388496399	2.5078201293945312
26	142.19950604438782	pulse	1	t		24.0	2.5	/experiments/AOT/AOT_stimuli/rescaled_final/0736_rv.mp4	0.0	181.23550605773926	
26	143.10755896568298	fix_post	2		12	24.0	2.5	/experiments/AOT/AOT_stimuli/rescaled_final/0736_rv.mp4	0.0	182.14355897903442	0.10007405281066895
27	143.20763301849365	fix_pre	0		120	25.0	2.5	/experiments/AOT/AOT_stimuli/rescaled_final/2066_fw.mp4	0.0	182.2436330318451	1.0002148151397705
27	143.79147696495056	pulse	0	t		25.0	2.5	/experiments/AOT/AOT_stimuli/rescaled_final/2066_fw.mp4	0.0	182.827476978302	
27	144.20784783363342	movie	1		245	25.0	2.5	/experiments/AOT/AOT_stimuli/rescaled_final/2066_fw.mp4	0.0	183.24384784698486	2.4997851848602295
27	145.39198184013367	pulse	1	t		25.0	2.5	/experiments/AOT/AOT_stimuli/rescaled_final/2066_fw.mp4	0.0	184.4279818534851	
27	146.70763301849365	fix_post	2		12	25.0	2.5	/experiments/AOT/AOT_stimuli/rescaled_final/2066_fw.mp4	0.0	185.7436330318451	0.09995698928833008
28	146.80759000778198	fix_pre	0		120	26.0	2.5	blank	1.0	185.84359002113342	1.0009820461273193
28	146.9910159111023	pulse	0	t		26.0	2.5	blank	1.0	186.02701592445374	
28	147.8085720539093	movie	1		300	26.0	2.5	blank	1.0	186.84457206726074	2.4989659786224365
28	148.5919599533081	pulse	1	t		26.0	2.5	blank	1.0	187.62795996665955	
28	150.19105005264282	pulse	1	t		26.0	2.5	blank	1.0	189.22705006599426	
28	150.30753803253174	fix_post	2		12	26.0	2.5	blank	1.0	189.34353804588318	0.10016489028930664
29	150.40770292282104	fix_pre	0		120	27.0	2.5	/experiments/AOT/AOT_stimuli/rescaled_final/0191_rv.mp4	0.0	189.44370293617249	0.9999790191650391
29	151.40768194198608	movie	1		245	27.0	2.5	/experiments/AOT/AOT_stimuli/rescaled_final/0191_rv.mp4	0.0	190.44368195533752	2.4997689723968506
29	151.79062795639038	pulse	1	t		27.0	2.5	/experiments/AOT/AOT_stimuli/rescaled_final/0191_rv.mp4	0.0	190.82662796974182	
29	153.39111804962158	pulse	1	t		27.0	2.5	/experiments/AOT/AOT_stimuli/rescaled_final/0191_rv.mp4	0.0	192.42711806297302	
29	153.90745091438293	fix_post	2		12	27.0	2.5	/experiments/AOT/AOT_stimuli/rescaled_final/0191_rv.mp4	0.0	192.94345092773438	0.10013103485107422
30	154.007581949234	fix_pre	0		119	28.0	2.5	/experiments/AOT/AOT_stimuli/rescaled_final/0325_fw.mp4	0.0	193.04358196258545	0.9916610717773438
30	154.9919948577881	pulse	0	t		28.0	2.5	/experiments/AOT/AOT_stimuli/rescaled_final/0325_fw.mp4	0.0	194.02799487113953	
30	154.99924302101135	movie	1		245	28.0	2.5	/experiments/AOT/AOT_stimuli/rescaled_final/0325_fw.mp4	0.0	194.0352430343628	2.5086429119110107
30	156.5994689464569	pulse	1	t		28.0	2.5	/experiments/AOT/AOT_stimuli/rescaled_final/0325_fw.mp4	0.0	195.63546895980835	
30	157.50788593292236	fix_post	2		12	28.0	2.5	/experiments/AOT/AOT_stimuli/rescaled_final/0325_fw.mp4	0.0	196.5438859462738	0.09969806671142578
31	157.6075839996338	fix_pre	0		120	29.0	2.5	/experiments/AOT/AOT_stimuli/rescaled_final/0182_rv.mp4	0.0	196.64358401298523	1.0000429153442383
31	158.19168400764465	pulse	0	t		29.0	2.5	/experiments/AOT/AOT_stimuli/rescaled_final/0182_rv.mp4	0.0	197.2276840209961	
31	158.60762691497803	movie	1		244	29.0	2.5	/experiments/AOT/AOT_stimuli/rescaled_final/0182_rv.mp4	0.0	197.64362692832947	2.49995493888855
31	159.79102993011475	pulse	1	t		29.0	2.5	/experiments/AOT/AOT_stimuli/rescaled_final/0182_rv.mp4	0.0	198.8270299434662	
31	161.10758185386658	fix_post	2		12	29.0	2.5	/experiments/AOT/AOT_stimuli/rescaled_final/0182_rv.mp4	0.0	200.14358186721802	0.09989809989929199
32	161.20747995376587	fix_pre	0		120	30.0	2.5	/experiments/AOT/AOT_stimuli/rescaled_final/0398_fw.mp4	0.0	200.2434799671173	1.0003268718719482
32	161.39125204086304	pulse	0	t		30.0	2.5	/experiments/AOT/AOT_stimuli/rescaled_final/0398_fw.mp4	0.0	200.42725205421448	
32	162.20780682563782	movie	1		244	30.0	2.5	/experiments/AOT/AOT_stimuli/rescaled_final/0398_fw.mp4	0.0	201.24380683898926	2.49991512298584
32	162.9912669658661	pulse	1	t		30.0	2.5	/experiments/AOT/AOT_stimuli/rescaled_final/0398_fw.mp4	0.0	202.02726697921753	
32	164.59104585647583	pulse	1	t		30.0	2.5	/experiments/AOT/AOT_stimuli/rescaled_final/0398_fw.mp4	0.0	203.62704586982727	
32	164.70772194862366	fix_post	2		12	30.0	2.5	/experiments/AOT/AOT_stimuli/rescaled_final/0398_fw.mp4	0.0	203.7437219619751	0.099822998046875
33	164.80754494667053	fix_pre	0		120	31.0	2.5	/experiments/AOT/AOT_stimuli/rescaled_final/0692_fw.mp4	0.0	203.84354496002197	1.0001130104064941
33	165.80765795707703	movie	1		244	31.0	2.5	/experiments/AOT/AOT_stimuli/rescaled_final/0692_fw.mp4	0.0	204.84365797042847	2.5004169940948486
33	166.19029188156128	pulse	1	t		31.0	2.5	/experiments/AOT/AOT_stimuli/rescaled_final/0692_fw.mp4	0.0	205.22629189491272	
33	167.79102396965027	pulse	1	t		31.0	2.5	/experiments/AOT/AOT_stimuli/rescaled_final/0692_fw.mp4	0.0	206.8270239830017	
33	168.30807495117188	fix_post	2		12	31.0	2.5	/experiments/AOT/AOT_stimuli/rescaled_final/0692_fw.mp4	0.0	207.34407496452332	0.09943389892578125
34	168.40750885009766	fix_pre	0		119	32.0	2.5	/experiments/AOT/AOT_stimuli/rescaled_final/0837_rv.mp4	0.0	207.4435088634491	0.9922490119934082
34	169.39140796661377	pulse	0	t		32.0	2.5	/experiments/AOT/AOT_stimuli/rescaled_final/0837_rv.mp4	0.0	208.4274079799652	
34	169.39975786209106	movie	1		245	32.0	2.5	/experiments/AOT/AOT_stimuli/rescaled_final/0837_rv.mp4	0.0	208.4357578754425	2.5073139667510986
34	170.99050498008728	pulse	1	t		32.0	2.5	/experiments/AOT/AOT_stimuli/rescaled_final/0837_rv.mp4	0.0	210.02650499343872	
34	171.90707182884216	fix_post	2		12	32.0	2.5	/experiments/AOT/AOT_stimuli/rescaled_final/0837_rv.mp4	0.0	210.9430718421936	0.1004490852355957
35	172.00752091407776	fix_pre	0		120	33.0	2.5	/experiments/AOT/AOT_stimuli/rescaled_final/0012_rv.mp4	0.0	211.0435209274292	0.9999849796295166
35	172.59105491638184	pulse	0	t		33.0	2.5	/experiments/AOT/AOT_stimuli/rescaled_final/0012_rv.mp4	0.0	211.62705492973328	
35	173.00750589370728	movie	1		246	33.0	2.5	/experiments/AOT/AOT_stimuli/rescaled_final/0012_rv.mp4	0.0	212.04350590705872	2.500143051147461
35	174.19176387786865	pulse	1	t		33.0	2.5	/experiments/AOT/AOT_stimuli/rescaled_final/0012_rv.mp4	0.0	213.2277638912201	
35	175.50764894485474	fix_post	2		12	33.0	2.5	/experiments/AOT/AOT_stimuli/rescaled_final/0012_rv.mp4	0.0	214.54364895820618	0.09964799880981445
36	175.60729694366455	fix_pre	0		120	34.0	2.5	/experiments/AOT/AOT_stimuli/rescaled_final/1160_fw.mp4	0.0	214.643296957016	1.0002200603485107
36	175.79073286056519	pulse	0	t		34.0	2.5	/experiments/AOT/AOT_stimuli/rescaled_final/1160_fw.mp4	0.0	214.82673287391663	
36	176.60751700401306	movie	1		244	34.0	2.5	/experiments/AOT/AOT_stimuli/rescaled_final/1160_fw.mp4	0.0	215.6435170173645	2.499495029449463
36	177.39047503471375	pulse	1	t		34.0	2.5	/experiments/AOT/AOT_stimuli/rescaled_final/1160_fw.mp4	0.0	216.42647504806519	
36	178.9908058643341	pulse	1	t		34.0	2.5	/experiments/AOT/AOT_stimuli/rescaled_final/1160_fw.mp4	0.0	218.02680587768555	
36	179.10701203346252	fix_post	2		12	34.0	2.5	/experiments/AOT/AOT_stimuli/rescaled_final/1160_fw.mp4	0.0	218.14301204681396	0.10039401054382324
37	179.20740604400635	fix_pre	0		120	35.0	2.5	blank	1.0	218.2434060573578	1.0000998973846436
37	180.207505941391	movie	1		300	35.0	2.5	blank	1.0	219.24350595474243	2.4998669624328613
37	180.59104895591736	pulse	1	t		35.0	2.5	blank	1.0	219.6270489692688	
37	182.19082188606262	pulse	1	t		35.0	2.5	blank	1.0	221.22682189941406	
37	182.70737290382385	fix_post	2		12	35.0	2.5	blank	1.0	221.7433729171753	0.10047292709350586
38	182.80784583091736	fix_pre	0		119	36.0	2.5	/experiments/AOT/AOT_stimuli/rescaled_final/2160_fw.mp4	0.0	221.8438458442688	0.9917030334472656
38	183.79036903381348	pulse	0	t		36.0	2.5	/experiments/AOT/AOT_stimuli/rescaled_final/2160_fw.mp4	0.0	222.82636904716492	
38	183.79954886436462	movie	1		246	36.0	2.5	/experiments/AOT/AOT_stimuli/rescaled_final/2160_fw.mp4	0.0	222.83554887771606	2.5078110694885254
38	185.3909559249878	pulse	1	t		36.0	2.5	/experiments/AOT/AOT_stimuli/rescaled_final/2160_fw.mp4	0.0	224.42695593833923	
38	186.30735993385315	fix_post	2		12	36.0	2.5	/experiments/AOT/AOT_stimuli/rescaled_final/2160_fw.mp4	0.0	225.3433599472046	0.10005593299865723
39	186.4074158668518	fix_pre	0		120	37.0	2.5	/experiments/AOT/AOT_stimuli/rescaled_final/1776_rv.mp4	0.0	225.44341588020325	1.0003151893615723
39	186.9918978214264	pulse	0	t		37.0	2.5	/experiments/AOT/AOT_stimuli/rescaled_final/1776_rv.mp4	0.0	226.02789783477783	
39	187.40773105621338	movie	1		245	37.0	2.5	/experiments/AOT/AOT_stimuli/rescaled_final/1776_rv.mp4	0.0	226.44373106956482	2.500067949295044
39	188.59052801132202	pulse	1	t		37.0	2.5	/experiments/AOT/AOT_stimuli/rescaled_final/1776_rv.mp4	0.0	227.62652802467346	
39	189.90779900550842	fix_post	2		12	37.0	2.5	/experiments/AOT/AOT_stimuli/rescaled_final/1776_rv.mp4	0.0	228.94379901885986	0.09950995445251465
40	190.00730895996094	fix_pre	0		120	38.0	2.5	/experiments/AOT/AOT_stimuli/rescaled_final/1420_fw.mp4	0.0	229.04330897331238	0.9995639324188232
40	190.1908140182495	pulse	0	t		38.0	2.5	/experiments/AOT/AOT_stimuli/rescaled_final/1420_fw.mp4	0.0	229.22681403160095	
40	191.00687289237976	movie	1		243	38.0	2.5	/experiments/AOT/AOT_stimuli/rescaled_final/1420_fw.mp4	0.0	230.0428729057312	2.5004990100860596
40	191.7905979156494	pulse	1	t		38.0	2.5	/experiments/AOT/AOT_stimuli/rescaled_final/1420_fw.mp4	0.0	230.82659792900085	
40	193.39922094345093	pulse	1	t		38.0	2.5	/experiments/AOT/AOT_stimuli/rescaled_final/1420_fw.mp4	0.0	232.43522095680237	
40	193.50737190246582	fix_post	2		12	38.0	2.5	/experiments/AOT/AOT_stimuli/rescaled_final/1420_fw.mp4	0.0	232.54337191581726	0.10043692588806152
41	193.60780882835388	fix_pre	0		120	39.0	2.5	/experiments/AOT/AOT_stimuli/rescaled_final/0056_fw.mp4	0.0	232.64380884170532	0.9990220069885254
41	194.6068308353424	movie	1		246	39.0	2.5	/experiments/AOT/AOT_stimuli/rescaled_final/0056_fw.mp4	0.0	233.64283084869385	2.500462055206299
41	194.99920082092285	pulse	1	t		39.0	2.5	/experiments/AOT/AOT_stimuli/rescaled_final/0056_fw.mp4	0.0	234.0352008342743	
41	196.59094405174255	pulse	1	t		39.0	2.5	/experiments/AOT/AOT_stimuli/rescaled_final/0056_fw.mp4	0.0	235.626944065094	
41	197.1072928905487	fix_post	2		12	39.0	2.5	/experiments/AOT/AOT_stimuli/rescaled_final/0056_fw.mp4	0.0	236.14329290390015	0.09965705871582031
42	197.20694994926453	fix_pre	0		119	40.0	2.5	/experiments/AOT/AOT_stimuli/rescaled_final/1130_fw.mp4	0.0	236.24294996261597	0.9924969673156738
42	198.19116187095642	pulse	0	t		40.0	2.5	/experiments/AOT/AOT_stimuli/rescaled_final/1130_fw.mp4	0.0	237.22716188430786	
42	198.1994469165802	movie	1		246	40.0	2.5	/experiments/AOT/AOT_stimuli/rescaled_final/1130_fw.mp4	0.0	237.23544692993164	2.508636951446533
42	199.79030799865723	pulse	1	t		40.0	2.5	/experiments/AOT/AOT_stimuli/rescaled_final/1130_fw.mp4	0.0	238.82630801200867	
42	200.70808386802673	fix_post	2		12	40.0	2.5	/experiments/AOT/AOT_stimuli/rescaled_final/1130_fw.mp4	0.0	239.74408388137817	0.09920096397399902
43	200.80728483200073	fix_pre	0		120	41.0	2.5	/experiments/AOT/AOT_stimuli/rescaled_final/1329_rv.mp4	0.0	239.84328484535217	1.0005230903625488
43	201.39039087295532	pulse	0	t		41.0	2.5	/experiments/AOT/AOT_stimuli/rescaled_final/1329_rv.mp4	0.0	240.42639088630676	
43	201.80780792236328	movie	1		244	41.0	2.5	/experiments/AOT/AOT_stimuli/rescaled_final/1329_rv.mp4	0.0	240.84380793571472	2.500035047531128
43	202.99151492118835	pulse	1	t		41.0	2.5	/experiments/AOT/AOT_stimuli/rescaled_final/1329_rv.mp4	0.0	242.0275149345398	
43	204.3078429698944	fix_post	2		12	41.0	2.5	/experiments/AOT/AOT_stimuli/rescaled_final/1329_rv.mp4	0.0	243.34384298324585	0.09938907623291016
44	204.40723204612732	fix_pre	0		120	42.0	2.5	blank	1.0	243.44323205947876	1.000520944595337
44	204.59079885482788	pulse	0	t		42.0	2.5	blank	1.0	243.62679886817932	
44	205.40775299072266	movie	1		300	42.0	2.5	blank	1.0	244.4437530040741	2.499168872833252
44	206.1911928653717	pulse	1	t		42.0	2.5	blank	1.0	245.22719287872314	
44	207.79081082344055	pulse	1	t		42.0	2.5	blank	1.0	246.826810836792	
44	207.9069218635559	fix_post	2		12	42.0	2.5	blank	1.0	246.94292187690735	0.10075211524963379
45	208.00767397880554	fix_pre	0		120	43.0	2.5	/experiments/AOT/AOT_stimuli/rescaled_final/1231_fw.mp4	0.0	247.04367399215698	1.0005099773406982
45	209.00818395614624	movie	1		245	43.0	2.5	/experiments/AOT/AOT_stimuli/rescaled_final/1231_fw.mp4	0.0	248.04418396949768	2.500006914138794
45	209.39070796966553	pulse	1	t		43.0	2.5	/experiments/AOT/AOT_stimuli/rescaled_final/1231_fw.mp4	0.0	248.42670798301697	
45	210.99077105522156	pulse	1	t		43.0	2.5	/experiments/AOT/AOT_stimuli/rescaled_final/1231_fw.mp4	0.0	250.026771068573	
45	211.50819087028503	fix_post	2		12	43.0	2.5	/experiments/AOT/AOT_stimuli/rescaled_final/1231_fw.mp4	0.0	250.54419088363647	0.09906196594238281
46	211.60725283622742	fix_pre	0		119	44.0	2.5	/experiments/AOT/AOT_stimuli/rescaled_final/1457_fw.mp4	0.0	250.64325284957886	0.9923200607299805
46	212.5911819934845	pulse	0	t		44.0	2.5	/experiments/AOT/AOT_stimuli/rescaled_final/1457_fw.mp4	0.0	251.62718200683594	
46	212.5995728969574	movie	1		247	44.0	2.5	/experiments/AOT/AOT_stimuli/rescaled_final/1457_fw.mp4	0.0	251.63557291030884	2.5077109336853027
46	214.1991410255432	pulse	1	t		44.0	2.5	/experiments/AOT/AOT_stimuli/rescaled_final/1457_fw.mp4	0.0	253.23514103889465	
46	215.1072838306427	fix_post	2		12	44.0	2.5	/experiments/AOT/AOT_stimuli/rescaled_final/1457_fw.mp4	0.0	254.14328384399414	0.09998202323913574
47	215.20726585388184	fix_pre	0		120	45.0	2.5	/experiments/AOT/AOT_stimuli/rescaled_final/0272_rv.mp4	0.0	254.24326586723328	1.0000200271606445
47	215.7906699180603	pulse	0	t		45.0	2.5	/experiments/AOT/AOT_stimuli/rescaled_final/0272_rv.mp4	0.0	254.82666993141174	
47	216.20728588104248	movie	1		244	45.0	2.5	/experiments/AOT/AOT_stimuli/rescaled_final/0272_rv.mp4	0.0	255.24328589439392	2.499843120574951
47	217.3907699584961	pulse	1	t		45.0	2.5	/experiments/AOT/AOT_stimuli/rescaled_final/0272_rv.mp4	0.0	256.42676997184753	
47	218.70712900161743	fix_post	2		12	45.0	2.5	/experiments/AOT/AOT_stimuli/rescaled_final/0272_rv.mp4	0.0	257.7431290149689	0.10007596015930176
48	218.80720496177673	fix_pre	0		120	46.0	2.5	/experiments/AOT/AOT_stimuli/rescaled_final/0310_rv.mp4	0.0	257.8432049751282	1.0000450611114502
48	218.99073791503906	pulse	0	t		46.0	2.5	/experiments/AOT/AOT_stimuli/rescaled_final/0310_rv.mp4	0.0	258.0267379283905	
48	219.80725002288818	movie	1		245	46.0	2.5	/experiments/AOT/AOT_stimuli/rescaled_final/0310_rv.mp4	0.0	258.8432500362396	2.499541997909546
48	220.59150791168213	pulse	1	t		46.0	2.5	/experiments/AOT/AOT_stimuli/rescaled_final/0310_rv.mp4	0.0	259.62750792503357	
48	222.19540405273438	pulse	1	t		46.0	2.5	/experiments/AOT/AOT_stimuli/rescaled_final/0310_rv.mp4	0.0	261.2314040660858	
48	222.30679202079773	fix_post	2		12	46.0	2.5	/experiments/AOT/AOT_stimuli/rescaled_final/0310_rv.mp4	0.0	261.34279203414917	0.10048198699951172
49	222.40727400779724	fix_pre	0		120	47.0	2.5	/experiments/AOT/AOT_stimuli/rescaled_final/0384_fw.mp4	0.0	261.4432740211487	0.9998989105224609
49	223.4071729183197	movie	1		244	47.0	2.5	/experiments/AOT/AOT_stimuli/rescaled_final/0384_fw.mp4	0.0	262.44317293167114	2.5001580715179443
49	223.79902601242065	pulse	1	t		47.0	2.5	/experiments/AOT/AOT_stimuli/rescaled_final/0384_fw.mp4	0.0	262.8350260257721	
49	225.39069890975952	pulse	1	t		47.0	2.5	/experiments/AOT/AOT_stimuli/rescaled_final/0384_fw.mp4	0.0	264.42669892311096	
49	225.90733098983765	fix_post	2		12	47.0	2.5	/experiments/AOT/AOT_stimuli/rescaled_final/0384_fw.mp4	0.0	264.9433310031891	0.09989285469055176
50	226.0072238445282	fix_pre	0		119	48.0	2.5	/experiments/AOT/AOT_stimuli/rescaled_final/0662_rv.mp4	0.0	265.04322385787964	0.9916470050811768
50	226.9906599521637	pulse	0	t		48.0	2.5	/experiments/AOT/AOT_stimuli/rescaled_final/0662_rv.mp4	0.0	266.02665996551514	
50	226.99887084960938	movie	1		245	48.0	2.5	/experiments/AOT/AOT_stimuli/rescaled_final/0662_rv.mp4	0.0	266.0348708629608	2.5080060958862305
50	228.59904599189758	pulse	1	t		48.0	2.5	/experiments/AOT/AOT_stimuli/rescaled_final/0662_rv.mp4	0.0	267.635046005249	
50	229.5068769454956	fix_post	2		12	48.0	2.5	/experiments/AOT/AOT_stimuli/rescaled_final/0662_rv.mp4	0.0	268.54287695884705	0.09991002082824707
51	229.60678696632385	fix_pre	0		120	49.0	2.5	blank	1.0	268.6427869796753	1.000074863433838
51	230.19060587882996	pulse	0	t		49.0	2.5	blank	1.0	269.2266058921814	
51	230.6068618297577	movie	1		300	49.0	2.5	blank	1.0	269.64286184310913	2.5004642009735107
51	231.79050302505493	pulse	1	t		49.0	2.5	blank	1.0	270.8265030384064	
51	233.1073260307312	fix_post	2		12	49.0	2.5	blank	1.0	272.14332604408264	0.09941387176513672
52	233.20673990249634	fix_pre	0		120	50.0	2.5	/experiments/AOT/AOT_stimuli/rescaled_final/1905_rv.mp4	0.0	272.2427399158478	1.0004079341888428
52	233.39072394371033	pulse	0	t		50.0	2.5	/experiments/AOT/AOT_stimuli/rescaled_final/1905_rv.mp4	0.0	272.42672395706177	
52	234.20714783668518	movie	1		245	50.0	2.5	/experiments/AOT/AOT_stimuli/rescaled_final/1905_rv.mp4	0.0	273.2431478500366	2.4995760917663574
52	234.99066185951233	pulse	1	t		50.0	2.5	/experiments/AOT/AOT_stimuli/rescaled_final/1905_rv.mp4	0.0	274.02666187286377	
52	236.5991849899292	pulse	1	t		50.0	2.5	/experiments/AOT/AOT_stimuli/rescaled_final/1905_rv.mp4	0.0	275.63518500328064	
52	236.70672392845154	fix_post	2		12	50.0	2.5	/experiments/AOT/AOT_stimuli/rescaled_final/1905_rv.mp4	0.0	275.742723941803	0.10047411918640137
53	236.80719804763794	fix_pre	0		120	51.0	2.5	/experiments/AOT/AOT_stimuli/rescaled_final/0736_fw.mp4	0.0	275.8431980609894	0.9996128082275391
53	237.80681085586548	movie	1		247	51.0	2.5	/experiments/AOT/AOT_stimuli/rescaled_final/0736_fw.mp4	0.0	276.8428108692169	2.4999401569366455
53	238.19141483306885	pulse	1	t		51.0	2.5	/experiments/AOT/AOT_stimuli/rescaled_final/0736_fw.mp4	0.0	277.2274148464203	
53	239.79134798049927	pulse	1	t		51.0	2.5	/experiments/AOT/AOT_stimuli/rescaled_final/0736_fw.mp4	0.0	278.8273479938507	
53	240.30675101280212	fix_post	2		12	51.0	2.5	/experiments/AOT/AOT_stimuli/rescaled_final/0736_fw.mp4	0.0	279.34275102615356	0.10034489631652832
54	240.40709590911865	fix_pre	0		119	52.0	2.5	/experiments/AOT/AOT_stimuli/rescaled_final/2151_rv.mp4	0.0	279.4430959224701	0.991645097732544
54	241.3906500339508	pulse	0	t		52.0	2.5	/experiments/AOT/AOT_stimuli/rescaled_final/2151_rv.mp4	0.0	280.42665004730225	
54	241.3987410068512	movie	1		246	52.0	2.5	/experiments/AOT/AOT_stimuli/rescaled_final/2151_rv.mp4	0.0	280.43474102020264	2.507988929748535
54	242.99899983406067	pulse	1	t		52.0	2.5	/experiments/AOT/AOT_stimuli/rescaled_final/2151_rv.mp4	0.0	282.0349998474121	
54	243.90672993659973	fix_post	2		12	52.0	2.5	/experiments/AOT/AOT_stimuli/rescaled_final/2151_rv.mp4	0.0	282.9427299499512	0.10029411315917969
55	244.0070240497589	fix_pre	0		120	53.0	2.5	/experiments/AOT/AOT_stimuli/rescaled_final/1897_fw.mp4	0.0	283.04302406311035	0.99997878074646
55	244.59059286117554	pulse	0	t		53.0	2.5	/experiments/AOT/AOT_stimuli/rescaled_final/1897_fw.mp4	0.0	283.626592874527	
55	245.00700283050537	movie	1		247	53.0	2.5	/experiments/AOT/AOT_stimuli/rescaled_final/1897_fw.mp4	0.0	284.0430028438568	2.50002121925354
55	246.1906909942627	pulse	1	t		53.0	2.5	/experiments/AOT/AOT_stimuli/rescaled_final/1897_fw.mp4	0.0	285.22669100761414	
55	247.5070240497589	fix_post	2		12	53.0	2.5	/experiments/AOT/AOT_stimuli/rescaled_final/1897_fw.mp4	0.0	286.54302406311035	0.10005688667297363
56	247.60708093643188	fix_pre	0		120	54.0	2.5	blank	1.0	286.6430809497833	0.9999608993530273
56	247.79057502746582	pulse	0	t		54.0	2.5	blank	1.0	286.82657504081726	
56	248.6070418357849	movie	1		300	54.0	2.5	blank	1.0	287.64304184913635	2.49992299079895
56	249.39059686660767	pulse	1	t		54.0	2.5	blank	1.0	288.4265968799591	
56	250.9907078742981	pulse	1	t		54.0	2.5	blank	1.0	290.02670788764954	
56	251.10696482658386	fix_post	2		12	54.0	2.5	blank	1.0	290.1429648399353	0.1000680923461914
57	251.20703291893005	fix_pre	0		120	55.0	2.5	/experiments/AOT/AOT_stimuli/rescaled_final/0313_rv.mp4	0.0	290.2430329322815	0.9996049404144287
57	252.20663785934448	movie	1		244	55.0	2.5	/experiments/AOT/AOT_stimuli/rescaled_final/0313_rv.mp4	0.0	291.2426378726959	2.500364065170288
57	252.59169697761536	pulse	1	t		55.0	2.5	/experiments/AOT/AOT_stimuli/rescaled_final/0313_rv.mp4	0.0	291.6276969909668	
57	254.19136786460876	pulse	1	t		55.0	2.5	/experiments/AOT/AOT_stimuli/rescaled_final/0313_rv.mp4	0.0	293.2273678779602	
57	254.70700192451477	fix_post	2		12	55.0	2.5	/experiments/AOT/AOT_stimuli/rescaled_final/0313_rv.mp4	0.0	293.7430019378662	0.09999203681945801
58	254.80699396133423	fix_pre	0		120	56.0	2.5	/experiments/AOT/AOT_stimuli/rescaled_final/0089_rv.mp4	0.0	293.84299397468567	1.0000100135803223
58	255.79144597053528	pulse	0	t		56.0	2.5	/experiments/AOT/AOT_stimuli/rescaled_final/0089_rv.mp4	0.0	294.8274459838867	
58	255.80700397491455	movie	1		246	56.0	2.5	/experiments/AOT/AOT_stimuli/rescaled_final/0089_rv.mp4	0.0	294.843003988266	2.508354902267456
58	257.3998579978943	pulse	1	t		56.0	2.5	/experiments/AOT/AOT_stimuli/rescaled_final/0089_rv.mp4	0.0	296.4358580112457	
58	258.315358877182	fix_post	2		12	56.0	2.5	/experiments/AOT/AOT_stimuli/rescaled_final/0089_rv.mp4	0.0	297.35135889053345	0.10003209114074707
59	258.41539096832275	fix_pre	0		120	57.0	2.5	/experiments/AOT/AOT_stimuli/rescaled_final/1165_rv.mp4	0.0	297.4513909816742	0.9998998641967773
59	258.99120593070984	pulse	0	t		57.0	2.5	/experiments/AOT/AOT_stimuli/rescaled_final/1165_rv.mp4	0.0	298.0272059440613	
59	259.41529083251953	movie	1		244	57.0	2.5	/experiments/AOT/AOT_stimuli/rescaled_final/1165_rv.mp4	0.0	298.451290845871	2.500120162963867
59	260.59900093078613	pulse	1	t		57.0	2.5	/experiments/AOT/AOT_stimuli/rescaled_final/1165_rv.mp4	0.0	299.6350009441376	
59	261.9154109954834	fix_post	2		12	57.0	2.5	/experiments/AOT/AOT_stimuli/rescaled_final/1165_rv.mp4	0.0	300.95141100883484	0.09996294975280762
60	262.0153739452362	fix_pre	0		120	58.0	2.5	/experiments/AOT/AOT_stimuli/rescaled_final/1297_rv.mp4	0.0	301.05137395858765	0.9998490810394287
60	262.19053983688354	pulse	0	t		58.0	2.5	/experiments/AOT/AOT_stimuli/rescaled_final/1297_rv.mp4	0.0	301.226539850235	
60	263.01522302627563	movie	1		243	58.0	2.5	/experiments/AOT/AOT_stimuli/rescaled_final/1297_rv.mp4	0.0	302.0512230396271	2.5001418590545654
60	263.79050493240356	pulse	1	t		58.0	2.5	/experiments/AOT/AOT_stimuli/rescaled_final/1297_rv.mp4	0.0	302.826504945755	
60	265.39063000679016	pulse	1	t		58.0	2.5	/experiments/AOT/AOT_stimuli/rescaled_final/1297_rv.mp4	0.0	304.4266300201416	
60	265.5153648853302	fix_post	2		12	58.0	2.5	/experiments/AOT/AOT_stimuli/rescaled_final/1297_rv.mp4	0.0	304.55136489868164	0.0999751091003418
61	265.61533999443054	fix_pre	0		120	59.0	2.5	/experiments/AOT/AOT_stimuli/rescaled_final/2125_rv.mp4	0.0	304.651340007782	1.0000779628753662
61	266.6154179573059	movie	1		246	59.0	2.5	/experiments/AOT/AOT_stimuli/rescaled_final/2125_rv.mp4	0.0	305.65141797065735	2.499875068664551
61	266.99049401283264	pulse	1	t		59.0	2.5	/experiments/AOT/AOT_stimuli/rescaled_final/2125_rv.mp4	0.0	306.0264940261841	
61	268.59149193763733	pulse	1	t		59.0	2.5	/experiments/AOT/AOT_stimuli/rescaled_final/2125_rv.mp4	0.0	307.62749195098877	
61	269.11529302597046	fix_post	2		12	59.0	2.5	/experiments/AOT/AOT_stimuli/rescaled_final/2125_rv.mp4	0.0	308.1512930393219	0.09998083114624023
62	269.2152738571167	fix_pre	0		119	60.0	2.5	/experiments/AOT/AOT_stimuli/rescaled_final/0383_rv.mp4	0.0	308.25127387046814	0.9916880130767822
62	270.1911039352417	pulse	0	t		60.0	2.5	/experiments/AOT/AOT_stimuli/rescaled_final/0383_rv.mp4	0.0	309.22710394859314	
62	270.2069618701935	movie	1		244	60.0	2.5	/experiments/AOT/AOT_stimuli/rescaled_final/0383_rv.mp4	0.0	309.2429618835449	2.5082640647888184
62	271.79984498023987	pulse	1	t		60.0	2.5	/experiments/AOT/AOT_stimuli/rescaled_final/0383_rv.mp4	0.0	310.8358449935913	
62	272.7152259349823	fix_post	2		12	60.0	2.5	/experiments/AOT/AOT_stimuli/rescaled_final/0383_rv.mp4	0.0	311.75122594833374	0.10006093978881836
63	272.8152868747711	fix_pre	0		120	61.0	2.5	blank	1.0	311.85128688812256	0.9999861717224121
63	273.3911888599396	pulse	0	t		61.0	2.5	blank	1.0	312.427188873291	
63	273.81527304649353	movie	1		300	61.0	2.5	blank	1.0	312.85127305984497	2.5000059604644775
63	274.9913330078125	pulse	1	t		61.0	2.5	blank	1.0	314.02733302116394	
63	276.315279006958	fix_post	2		12	61.0	2.5	blank	1.0	315.35127902030945	0.10005402565002441
64	276.41533303260803	fix_pre	0		120	62.0	2.5	/experiments/AOT/AOT_stimuli/rescaled_final/1073_rv.mp4	0.0	315.4513330459595	0.999957799911499
64	276.59049105644226	pulse	0	t		62.0	2.5	/experiments/AOT/AOT_stimuli/rescaled_final/1073_rv.mp4	0.0	315.6264910697937	
64	277.41529083251953	movie	1		243	62.0	2.5	/experiments/AOT/AOT_stimuli/rescaled_final/1073_rv.mp4	0.0	316.451290845871	2.499868154525757
64	278.19042897224426	pulse	1	t		62.0	2.5	/experiments/AOT/AOT_stimuli/rescaled_final/1073_rv.mp4	0.0	317.2264289855957	
64	279.79030895233154	pulse	1	t		62.0	2.5	/experiments/AOT/AOT_stimuli/rescaled_final/1073_rv.mp4	0.0	318.826308965683	
64	279.9151589870453	fix_post	2		12	62.0	2.5	/experiments/AOT/AOT_stimuli/rescaled_final/1073_rv.mp4	0.0	318.95115900039673	0.10007190704345703
65	280.01523089408875	fix_pre	0		120	63.0	2.5	/experiments/AOT/AOT_stimuli/rescaled_final/1479_fw.mp4	0.0	319.0512309074402	0.9999871253967285
65	281.0152180194855	movie	1		243	63.0	2.5	/experiments/AOT/AOT_stimuli/rescaled_final/1479_fw.mp4	0.0	320.0512180328369	2.4995908737182617
65	281.39058089256287	pulse	1	t		63.0	2.5	/experiments/AOT/AOT_stimuli/rescaled_final/1479_fw.mp4	0.0	320.4265809059143	
65	282.99044489860535	pulse	1	t		63.0	2.5	/experiments/AOT/AOT_stimuli/rescaled_final/1479_fw.mp4	0.0	322.0264449119568	
65	283.51480889320374	fix_post	2		12	63.0	2.5	/experiments/AOT/AOT_stimuli/rescaled_final/1479_fw.mp4	0.0	322.5508089065552	0.10045695304870605
66	283.61526584625244	fix_pre	0		119	64.0	2.5	/experiments/AOT/AOT_stimuli/rescaled_final/0332_fw.mp4	0.0	322.6512658596039	0.9911961555480957
66	284.59121084213257	pulse	0	t		64.0	2.5	/experiments/AOT/AOT_stimuli/rescaled_final/0332_fw.mp4	0.0	323.627210855484	
66	284.60646200180054	movie	1		249	64.0	2.5	/experiments/AOT/AOT_stimuli/rescaled_final/0332_fw.mp4	0.0	323.642462015152	2.508471965789795
66	286.19782304763794	pulse	1	t		64.0	2.5	/experiments/AOT/AOT_stimuli/rescaled_final/0332_fw.mp4	0.0	325.2338230609894	
66	287.11493396759033	fix_post	2		12	64.0	2.5	/experiments/AOT/AOT_stimuli/rescaled_final/0332_fw.mp4	0.0	326.1509339809418	0.1000669002532959
67	287.2150008678436	fix_pre	0		120	65.0	2.5	/experiments/AOT/AOT_stimuli/rescaled_final/1771_rv.mp4	0.0	326.25100088119507	1.000136137008667
67	287.7909209728241	pulse	0	t		65.0	2.5	/experiments/AOT/AOT_stimuli/rescaled_final/1771_rv.mp4	0.0	326.82692098617554	
67	288.2151370048523	movie	1		244	65.0	2.5	/experiments/AOT/AOT_stimuli/rescaled_final/1771_rv.mp4	0.0	327.25113701820374	2.5001108646392822
67	289.39875888824463	pulse	1	t		65.0	2.5	/experiments/AOT/AOT_stimuli/rescaled_final/1771_rv.mp4	0.0	328.43475890159607	
67	290.7152478694916	fix_post	2		12	65.0	2.5	/experiments/AOT/AOT_stimuli/rescaled_final/1771_rv.mp4	0.0	329.751247882843	0.10015106201171875
68	290.8153989315033	fix_pre	0		120	66.0	2.5	/experiments/AOT/AOT_stimuli/rescaled_final/0200_fw.mp4	0.0	329.85139894485474	0.9998650550842285
68	290.991103887558	pulse	0	t		66.0	2.5	/experiments/AOT/AOT_stimuli/rescaled_final/0200_fw.mp4	0.0	330.0271039009094	
68	291.8152639865875	movie	1		246	66.0	2.5	/experiments/AOT/AOT_stimuli/rescaled_final/0200_fw.mp4	0.0	330.85126399993896	2.499906063079834
68	292.59125900268555	pulse	1	t		66.0	2.5	/experiments/AOT/AOT_stimuli/rescaled_final/0200_fw.mp4	0.0	331.627259016037	
68	294.19071888923645	pulse	1	t		66.0	2.5	/experiments/AOT/AOT_stimuli/rescaled_final/0200_fw.mp4	0.0	333.2267189025879	
68	294.31517004966736	fix_post	2		12	66.0	2.5	/experiments/AOT/AOT_stimuli/rescaled_final/0200_fw.mp4	0.0	333.3511700630188	0.10000395774841309
69	294.41517400741577	fix_pre	0		120	67.0	2.5	/experiments/AOT/AOT_stimuli/rescaled_final/1420_rv.mp4	0.0	333.4511740207672	0.999924898147583
69	295.41509890556335	movie	1		244	67.0	2.5	/experiments/AOT/AOT_stimuli/rescaled_final/1420_rv.mp4	0.0	334.4510989189148	2.500143051147461
69	295.79031682014465	pulse	1	t		67.0	2.5	/experiments/AOT/AOT_stimuli/rescaled_final/1420_rv.mp4	0.0	334.8263168334961	
69	297.3904130458832	pulse	1	t		67.0	2.5	/experiments/AOT/AOT_stimuli/rescaled_final/1420_rv.mp4	0.0	336.4264130592346	
69	297.9152419567108	fix_post	2		12	67.0	2.5	/experiments/AOT/AOT_stimuli/rescaled_final/1420_rv.mp4	0.0	336.95124197006226	0.09991192817687988
70	298.0151538848877	fix_pre	0		118	68.0	2.5	/experiments/AOT/AOT_stimuli/rescaled_final/1725_rv.mp4	0.0	337.05115389823914	0.9832990169525146
70	298.99039483070374	pulse	0	t		68.0	2.5	/experiments/AOT/AOT_stimuli/rescaled_final/1725_rv.mp4	0.0	338.0263948440552	
70	298.9984529018402	movie	1		246	68.0	2.5	/experiments/AOT/AOT_stimuli/rescaled_final/1725_rv.mp4	0.0	338.03445291519165	2.508358955383301
70	300.59867095947266	pulse	1	t		68.0	2.5	/experiments/AOT/AOT_stimuli/rescaled_final/1725_rv.mp4	0.0	339.6346709728241	
70	301.5068118572235	fix_post	2		12	68.0	2.5	/experiments/AOT/AOT_stimuli/rescaled_final/1725_rv.mp4	0.0	340.54281187057495	0.09999418258666992
71	301.6068060398102	fix_pre	0		120	69.0	2.5	blank	1.0	340.6428060531616	0.9996049404144287
71	302.19114995002747	pulse	0	t		69.0	2.5	blank	1.0	341.2271499633789	
71	302.6064109802246	movie	1		300	69.0	2.5	blank	1.0	341.64241099357605	2.500365972518921
71	303.7910828590393	pulse	1	t		69.0	2.5	blank	1.0	342.82708287239075	
71	305.10677695274353	fix_post	2		12	69.0	2.5	blank	1.0	344.14277696609497	0.1000828742980957
72	305.2068598270416	fix_pre	0		120	70.0	2.5	/experiments/AOT/AOT_stimuli/rescaled_final/0569_rv.mp4	0.0	344.24285984039307	0.9995400905609131
72	305.39106702804565	pulse	0	t		70.0	2.5	/experiments/AOT/AOT_stimuli/rescaled_final/0569_rv.mp4	0.0	344.4270670413971	
72	306.20639991760254	movie	1		244	70.0	2.5	/experiments/AOT/AOT_stimuli/rescaled_final/0569_rv.mp4	0.0	345.242399930954	2.499936103820801
72	306.99116492271423	pulse	1	t		70.0	2.5	/experiments/AOT/AOT_stimuli/rescaled_final/0569_rv.mp4	0.0	346.0271649360657	
72	308.5986750125885	pulse	1	t		70.0	2.5	/experiments/AOT/AOT_stimuli/rescaled_final/0569_rv.mp4	0.0	347.63467502593994	
72	308.70633602142334	fix_post	2		12	70.0	2.5	/experiments/AOT/AOT_stimuli/rescaled_final/0569_rv.mp4	0.0	347.7423360347748	0.10008788108825684
73	308.8064239025116	fix_pre	0		120	71.0	2.5	/experiments/AOT/AOT_stimuli/rescaled_final/1633_fw.mp4	0.0	347.84242391586304	1.0004351139068604
73	309.80685901641846	movie	1		244	71.0	2.5	/experiments/AOT/AOT_stimuli/rescaled_final/1633_fw.mp4	0.0	348.8428590297699	2.499397039413452
73	310.19861698150635	pulse	1	t		71.0	2.5	/experiments/AOT/AOT_stimuli/rescaled_final/1633_fw.mp4	0.0	349.2346169948578	
73	311.7910900115967	pulse	1	t		71.0	2.5	/experiments/AOT/AOT_stimuli/rescaled_final/1633_fw.mp4	0.0	350.8270900249481	
73	312.3062560558319	fix_post	2		12	71.0	2.5	/experiments/AOT/AOT_stimuli/rescaled_final/1633_fw.mp4	0.0	351.34225606918335	0.10047483444213867
74	312.40673089027405	fix_pre	0		119	72.0	2.5	/experiments/AOT/AOT_stimuli/rescaled_final/1329_rv.mp4	0.0	351.4427309036255	0.9917800426483154
74	313.3903429508209	pulse	0	t		72.0	2.5	/experiments/AOT/AOT_stimuli/rescaled_final/1329_rv.mp4	0.0	352.42634296417236	
74	313.39851093292236	movie	1		244	72.0	2.5	/experiments/AOT/AOT_stimuli/rescaled_final/1329_rv.mp4	0.0	352.4345109462738	2.5082380771636963
74	314.99862003326416	pulse	1	t		72.0	2.5	/experiments/AOT/AOT_stimuli/rescaled_final/1329_rv.mp4	0.0	354.0346200466156	
74	315.90674901008606	fix_post	2		12	72.0	2.5	/experiments/AOT/AOT_stimuli/rescaled_final/1329_rv.mp4	0.0	354.9427490234375	0.09955096244812012
75	316.0062999725342	fix_pre	0		120	73.0	2.5	/experiments/AOT/AOT_stimuli/rescaled_final/0012_rv.mp4	0.0	355.0422999858856	1.0003938674926758
75	316.5902919769287	pulse	0	t		73.0	2.5	/experiments/AOT/AOT_stimuli/rescaled_final/0012_rv.mp4	0.0	355.62629199028015	
75	317.00669384002686	movie	1		247	73.0	2.5	/experiments/AOT/AOT_stimuli/rescaled_final/0012_rv.mp4	0.0	356.0426938533783	2.500056028366089
75	318.1911709308624	pulse	1	t		73.0	2.5	/experiments/AOT/AOT_stimuli/rescaled_final/0012_rv.mp4	0.0	357.22717094421387	
75	319.50674986839294	fix_post	2		12	73.0	2.5	/experiments/AOT/AOT_stimuli/rescaled_final/0012_rv.mp4	0.0	358.5427498817444	0.0995781421661377
76	319.6063280105591	fix_pre	0		120	74.0	2.5	/experiments/AOT/AOT_stimuli/rescaled_final/0452_rv.mp4	0.0	358.6423280239105	1.0003328323364258
76	319.7910578250885	pulse	0	t		74.0	2.5	/experiments/AOT/AOT_stimuli/rescaled_final/0452_rv.mp4	0.0	358.82705783843994	
76	320.6066608428955	movie	1		248	74.0	2.5	/experiments/AOT/AOT_stimuli/rescaled_final/0452_rv.mp4	0.0	359.64266085624695	2.5000271797180176
76	321.3911519050598	pulse	1	t		74.0	2.5	/experiments/AOT/AOT_stimuli/rescaled_final/0452_rv.mp4	0.0	360.42715191841125	
76	322.9906659126282	pulse	1	t		74.0	2.5	/experiments/AOT/AOT_stimuli/rescaled_final/0452_rv.mp4	0.0	362.0266659259796	
76	323.1066880226135	fix_post	2		12	74.0	2.5	/experiments/AOT/AOT_stimuli/rescaled_final/0452_rv.mp4	0.0	362.14268803596497	0.09996199607849121
77	323.206650018692	fix_pre	0		120	75.0	2.5	/experiments/AOT/AOT_stimuli/rescaled_final/1539_rv.mp4	0.0	362.24265003204346	0.9997298717498779
77	324.2063798904419	movie	1		244	75.0	2.5	/experiments/AOT/AOT_stimuli/rescaled_final/1539_rv.mp4	0.0	363.24237990379333	2.499901056289673
77	324.59863781929016	pulse	1	t		75.0	2.5	/experiments/AOT/AOT_stimuli/rescaled_final/1539_rv.mp4	0.0	363.6346378326416	
77	326.1910209655762	pulse	1	t		75.0	2.5	/experiments/AOT/AOT_stimuli/rescaled_final/1539_rv.mp4	0.0	365.2270209789276	
77	326.70628094673157	fix_post	2		12	75.0	2.5	/experiments/AOT/AOT_stimuli/rescaled_final/1539_rv.mp4	0.0	365.742280960083	0.10035204887390137
78	326.80663299560547	fix_pre	0		120	76.0	2.5	/experiments/AOT/AOT_stimuli/rescaled_final/0295_rv.mp4	0.0	365.8426330089569	1.0000278949737549
78	327.790962934494	pulse	0	t		76.0	2.5	/experiments/AOT/AOT_stimuli/rescaled_final/0295_rv.mp4	0.0	366.82696294784546	
78	327.8066608905792	movie	1		246	76.0	2.5	/experiments/AOT/AOT_stimuli/rescaled_final/0295_rv.mp4	0.0	366.84266090393066	2.508291006088257
78	329.3987169265747	pulse	1	t		76.0	2.5	/experiments/AOT/AOT_stimuli/rescaled_final/0295_rv.mp4	0.0	368.43471693992615	
78	330.3149518966675	fix_post	2		12	76.0	2.5	/experiments/AOT/AOT_stimuli/rescaled_final/0295_rv.mp4	0.0	369.3509519100189	0.10006213188171387
79	330.4150140285492	fix_pre	0		120	77.0	2.5	blank	1.0	369.45101404190063	0.9999790191650391
79	330.9901080131531	pulse	0	t		77.0	2.5	blank	1.0	370.0261080265045	
79	331.41499304771423	movie	1		300	77.0	2.5	blank	1.0	370.4509930610657	2.499926805496216
79	332.59841990470886	pulse	1	t		77.0	2.5	blank	1.0	371.6344199180603	
79	333.91491985321045	fix_post	2		12	77.0	2.5	blank	1.0	372.9509198665619	0.10003209114074707
80	334.0149519443512	fix_pre	0		120	78.0	2.5	/experiments/AOT/AOT_stimuli/rescaled_final/0443_rv.mp4	0.0	373.05095195770264	1.0000009536743164
80	334.19109582901	pulse	0	t		78.0	2.5	/experiments/AOT/AOT_stimuli/rescaled_final/0443_rv.mp4	0.0	373.22709584236145	
80	335.0149528980255	movie	1		244	78.0	2.5	/experiments/AOT/AOT_stimuli/rescaled_final/0443_rv.mp4	0.0	374.05095291137695	2.5000250339508057
80	335.79113388061523	pulse	1	t		78.0	2.5	/experiments/AOT/AOT_stimuli/rescaled_final/0443_rv.mp4	0.0	374.8271338939667	
80	337.39726996421814	pulse	1	t		78.0	2.5	/experiments/AOT/AOT_stimuli/rescaled_final/0443_rv.mp4	0.0	376.4332699775696	
80	337.5149779319763	fix_post	2		12	78.0	2.5	/experiments/AOT/AOT_stimuli/rescaled_final/0443_rv.mp4	0.0	376.55097794532776	0.09957098960876465
81	337.6145489215851	fix_pre	0		120	79.0	2.5	/experiments/AOT/AOT_stimuli/rescaled_final/1460_rv.mp4	0.0	376.6505489349365	1.000464916229248
81	338.61501383781433	movie	1		246	79.0	2.5	/experiments/AOT/AOT_stimuli/rescaled_final/1460_rv.mp4	0.0	377.65101385116577	2.499559164047241
81	338.99841690063477	pulse	1	t		79.0	2.5	/experiments/AOT/AOT_stimuli/rescaled_final/1460_rv.mp4	0.0	378.0344169139862	
81	340.5910668373108	pulse	1	t		79.0	2.5	/experiments/AOT/AOT_stimuli/rescaled_final/1460_rv.mp4	0.0	379.62706685066223	
81	341.1145730018616	fix_post	2		12	79.0	2.5	/experiments/AOT/AOT_stimuli/rescaled_final/1460_rv.mp4	0.0	380.150573015213	0.10041284561157227
82	341.21498584747314	fix_pre	0		119	80.0	2.5	/experiments/AOT/AOT_stimuli/rescaled_final/1846_rv.mp4	0.0	380.2509858608246	0.9917330741882324
82	342.19114685058594	pulse	0	t		80.0	2.5	/experiments/AOT/AOT_stimuli/rescaled_final/1846_rv.mp4	0.0	381.2271468639374	
82	342.2067189216614	movie	1		246	80.0	2.5	/experiments/AOT/AOT_stimuli/rescaled_final/1846_rv.mp4	0.0	381.2427189350128	2.508246898651123
82	343.7978980541229	pulse	1	t		80.0	2.5	/experiments/AOT/AOT_stimuli/rescaled_final/1846_rv.mp4	0.0	382.83389806747437	
82	344.7149658203125	fix_post	2		12	80.0	2.5	/experiments/AOT/AOT_stimuli/rescaled_final/1846_rv.mp4	0.0	383.75096583366394	0.09998703002929688
83	344.8149528503418	fix_pre	0		120	81.0	2.5	/experiments/AOT/AOT_stimuli/rescaled_final/0452_fw.mp4	0.0	383.85095286369324	0.9995381832122803
83	345.39023900032043	pulse	0	t		81.0	2.5	/experiments/AOT/AOT_stimuli/rescaled_final/0452_fw.mp4	0.0	384.4262390136719	
83	345.8144910335541	movie	1		247	81.0	2.5	/experiments/AOT/AOT_stimuli/rescaled_final/0452_fw.mp4	0.0	384.8504910469055	2.5003550052642822
83	346.9912519454956	pulse	1	t		81.0	2.5	/experiments/AOT/AOT_stimuli/rescaled_final/0452_fw.mp4	0.0	386.02725195884705	
83	348.31484603881836	fix_post	2		12	81.0	2.5	/experiments/AOT/AOT_stimuli/rescaled_final/0452_fw.mp4	0.0	387.3508460521698	0.09964489936828613
84	348.41449093818665	fix_pre	0		120	82.0	2.5	/experiments/AOT/AOT_stimuli/rescaled_final/1850_fw.mp4	0.0	387.4504909515381	1.000514030456543
84	348.59011697769165	pulse	0	t		82.0	2.5	/experiments/AOT/AOT_stimuli/rescaled_final/1850_fw.mp4	0.0	387.6261169910431	
84	349.4150049686432	movie	1		248	82.0	2.5	/experiments/AOT/AOT_stimuli/rescaled_final/1850_fw.mp4	0.0	388.45100498199463	2.499454975128174
84	350.1911070346832	pulse	1	t		82.0	2.5	/experiments/AOT/AOT_stimuli/rescaled_final/1850_fw.mp4	0.0	389.22710704803467	
84	351.79844093322754	pulse	1	t		82.0	2.5	/experiments/AOT/AOT_stimuli/rescaled_final/1850_fw.mp4	0.0	390.834440946579	
84	351.91445994377136	fix_post	2		12	82.0	2.5	/experiments/AOT/AOT_stimuli/rescaled_final/1850_fw.mp4	0.0	390.9504599571228	0.10002589225769043
85	352.01448583602905	fix_pre	0		120	83.0	2.5	blank	1.0	391.0504858493805	0.9999701976776123
85	353.01445603370667	movie	1		300	83.0	2.5	blank	1.0	392.0504560470581	2.500422954559326
85	353.39079999923706	pulse	1	t		83.0	2.5	blank	1.0	392.4268000125885	
85	354.9906949996948	pulse	1	t		83.0	2.5	blank	1.0	394.02669501304626	
85	355.514878988266	fix_post	2		12	83.0	2.5	blank	1.0	394.55087900161743	0.09957003593444824
87	355.61444902420044	stim	0		1716					394.6504490375519	14.300371885299683
87	356.5911509990692	pulse	0	t						395.62715101242065	
87	358.19099283218384	pulse	0	t						397.2269928455353	
87	359.79093384742737	pulse	0	t						398.8269338607788	
87	361.39105200767517	pulse	0	t						400.4270520210266	
87	362.99097990989685	pulse	0	t						402.0269799232483	
87	364.5899648666382	pulse	0	t						403.6259648799896	
87	366.1909899711609	pulse	0	t						405.22698998451233	
87	367.79105591773987	pulse	0	t						406.8270559310913	
87	369.39102602005005	pulse	0	t						408.4270260334015	
