trial_nr	onset	event_type	phase	response	nr_frames	movie_index	movie_duration	movie_file	blank	onset_abs	duration
0	0.20817017555236816	stim	0		76					22.02335023880005	0.6334018707275391
0	0.8336081504821777	response	0	space						22.64878821372986	
1	0.8415720462799072	stim	0		4562					22.656752109527588	38.03133416175842
1	38.86291718482971	pulse	0	t						60.67809724807739	
1	38.87290620803833	stim	1		1715					60.68808627128601	14.301416873931885
1	40.45612621307373	pulse	1	t						62.27130627632141	
1	42.05623722076416	pulse	1	t						63.87141728401184	
1	43.656458139419556	pulse	1	t						65.47163820266724	
1	45.25672221183777	pulse	1	t						67.07190227508545	
1	46.85699009895325	pulse	1	t						68.67217016220093	
1	48.45713710784912	pulse	1	t						70.2723171710968	
1	50.05730605125427	pulse	1	t						71.87248611450195	
1	51.65760016441345	pulse	1	t						73.47278022766113	
2	53.174323081970215	fix_pre	0		11	0.0	2.5	/experiments/knapen_AOT/AOT_stimuli/rescaled_final/1699_fw.mp4	0.0	74.9895031452179	0.0916740894317627
2	53.25793504714966	pulse	0	t		0.0	2.5	/experiments/knapen_AOT/AOT_stimuli/rescaled_final/1699_fw.mp4	0.0	75.07311511039734	
2	53.26599717140198	movie	1		244	0.0	2.5	/experiments/knapen_AOT/AOT_stimuli/rescaled_final/1699_fw.mp4	0.0	75.08117723464966	2.5087149143218994
2	54.85925006866455	pulse	1	t		0.0	2.5	/experiments/knapen_AOT/AOT_stimuli/rescaled_final/1699_fw.mp4	0.0	76.67443013191223	
2	55.77471208572388	fix_post	2		12	0.0	2.5	/experiments/knapen_AOT/AOT_stimuli/rescaled_final/1699_fw.mp4	0.0	77.58989214897156	0.10002803802490234
3	55.87474012374878	fix_pre	0		120	1.0	2.5	/experiments/knapen_AOT/AOT_stimuli/rescaled_final/0488_rv.mp4	0.0	77.68992018699646	1.000175952911377
3	56.4583101272583	pulse	0	t		1.0	2.5	/experiments/knapen_AOT/AOT_stimuli/rescaled_final/0488_rv.mp4	0.0	78.27349019050598	
3	56.874916076660156	movie	1		244	1.0	2.5	/experiments/knapen_AOT/AOT_stimuli/rescaled_final/0488_rv.mp4	0.0	78.69009613990784	2.5003271102905273
3	58.05861020088196	pulse	1	t		1.0	2.5	/experiments/knapen_AOT/AOT_stimuli/rescaled_final/0488_rv.mp4	0.0	79.87379026412964	
3	59.375243186950684	fix_post	2		12	1.0	2.5	/experiments/knapen_AOT/AOT_stimuli/rescaled_final/0488_rv.mp4	0.0	81.19042325019836	0.10005903244018555
4	59.47530221939087	fix_pre	0		120	2.0	2.5	/experiments/knapen_AOT/AOT_stimuli/rescaled_final/1568_rv.mp4	0.0	81.29048228263855	1.0001277923583984
4	59.65886211395264	pulse	0	t		2.0	2.5	/experiments/knapen_AOT/AOT_stimuli/rescaled_final/1568_rv.mp4	0.0	81.47404217720032	
4	60.47543001174927	movie	1		244	2.0	2.5	/experiments/knapen_AOT/AOT_stimuli/rescaled_final/1568_rv.mp4	0.0	82.29061007499695	2.500378131866455
4	61.2591609954834	pulse	1	t		2.0	2.5	/experiments/knapen_AOT/AOT_stimuli/rescaled_final/1568_rv.mp4	0.0	83.07434105873108	
4	62.85933017730713	pulse	1	t		2.0	2.5	/experiments/knapen_AOT/AOT_stimuli/rescaled_final/1568_rv.mp4	0.0	84.67451024055481	
4	62.97580814361572	fix_post	2		12	2.0	2.5	/experiments/knapen_AOT/AOT_stimuli/rescaled_final/1568_rv.mp4	0.0	84.7909882068634	0.1000220775604248
5	63.07583022117615	fix_pre	0		120	3.0	2.5	/experiments/knapen_AOT/AOT_stimuli/rescaled_final/0413_fw.mp4	0.0	84.89101028442383	1.000135898590088
5	64.07596611976624	movie	1		243	3.0	2.5	/experiments/knapen_AOT/AOT_stimuli/rescaled_final/0413_fw.mp4	0.0	85.89114618301392	2.492016077041626
5	64.46009421348572	pulse	1	t		3.0	2.5	/experiments/knapen_AOT/AOT_stimuli/rescaled_final/0413_fw.mp4	0.0	86.2752742767334	
5	66.05979514122009	pulse	1	t		3.0	2.5	/experiments/knapen_AOT/AOT_stimuli/rescaled_final/0413_fw.mp4	0.0	87.87497520446777	
5	66.56798219680786	fix_post	2		12	3.0	2.5	/experiments/knapen_AOT/AOT_stimuli/rescaled_final/0413_fw.mp4	0.0	88.38316226005554	0.10002899169921875
6	66.66801118850708	fix_pre	0		120	4.0	2.5	/experiments/knapen_AOT/AOT_stimuli/rescaled_final/0373_fw.mp4	0.0	88.48319125175476	1.0001299381256104
6	67.6600661277771	pulse	0	t		4.0	2.5	/experiments/knapen_AOT/AOT_stimuli/rescaled_final/0373_fw.mp4	0.0	89.47524619102478	
6	67.66814112663269	movie	1		245	4.0	2.5	/experiments/knapen_AOT/AOT_stimuli/rescaled_final/0373_fw.mp4	0.0	89.48332118988037	2.5086889266967773
6	69.26171708106995	pulse	1	t		4.0	2.5	/experiments/knapen_AOT/AOT_stimuli/rescaled_final/0373_fw.mp4	0.0	91.07689714431763	
6	70.17683005332947	fix_post	2		12	4.0	2.5	/experiments/knapen_AOT/AOT_stimuli/rescaled_final/0373_fw.mp4	0.0	91.99201011657715	0.10006594657897949
7	70.27689599990845	fix_pre	0		120	5.0	2.5	/experiments/knapen_AOT/AOT_stimuli/rescaled_final/1779_fw.mp4	0.0	92.09207606315613	1.0001451969146729
7	70.85300707817078	pulse	0	t		5.0	2.5	/experiments/knapen_AOT/AOT_stimuli/rescaled_final/1779_fw.mp4	0.0	92.66818714141846	
7	71.27704119682312	movie	1		244	5.0	2.5	/experiments/knapen_AOT/AOT_stimuli/rescaled_final/1779_fw.mp4	0.0	93.0922212600708	2.5003459453582764
7	72.4530119895935	pulse	1	t		5.0	2.5	/experiments/knapen_AOT/AOT_stimuli/rescaled_final/1779_fw.mp4	0.0	94.26819205284119	
7	73.7773871421814	fix_post	2		12	5.0	2.5	/experiments/knapen_AOT/AOT_stimuli/rescaled_final/1779_fw.mp4	0.0	95.59256720542908	0.1000220775604248
8	73.87740921974182	fix_pre	0		120	6.0	2.5	/experiments/knapen_AOT/AOT_stimuli/rescaled_final/1500_fw.mp4	0.0	95.6925892829895	1.0001599788665771
8	74.05343508720398	pulse	0	t		6.0	2.5	/experiments/knapen_AOT/AOT_stimuli/rescaled_final/1500_fw.mp4	0.0	95.86861515045166	
8	74.8775691986084	movie	1		245	6.0	2.5	/experiments/knapen_AOT/AOT_stimuli/rescaled_final/1500_fw.mp4	0.0	96.69274926185608	2.5003819465637207
8	75.65305018424988	pulse	1	t		6.0	2.5	/experiments/knapen_AOT/AOT_stimuli/rescaled_final/1500_fw.mp4	0.0	97.46823024749756	
8	77.25320601463318	pulse	1	t		6.0	2.5	/experiments/knapen_AOT/AOT_stimuli/rescaled_final/1500_fw.mp4	0.0	99.06838607788086	
8	77.37795114517212	fix_post	2		12	6.0	2.5	/experiments/knapen_AOT/AOT_stimuli/rescaled_final/1500_fw.mp4	0.0	99.1931312084198	0.10000205039978027
9	77.4779531955719	fix_pre	0		120	7.0	2.5	blank	1.0	99.29313325881958	1.0001399517059326
9	78.47809314727783	movie	1		299	7.0	2.5	blank	1.0	100.29327321052551	2.4920308589935303
9	78.85327911376953	pulse	1	t		7.0	2.5	blank	1.0	100.66845917701721	
9	80.45369815826416	pulse	1	t		7.0	2.5	blank	1.0	102.26887822151184	
9	80.97012400627136	fix_post	2		12	7.0	2.5	blank	1.0	102.78530406951904	0.10001611709594727
10	81.07014012336731	fix_pre	0		119	8.0	2.5	/experiments/knapen_AOT/AOT_stimuli/rescaled_final/0620_fw.mp4	0.0	102.88532018661499	0.9918580055236816
10	82.0538420677185	pulse	0	t		8.0	2.5	/experiments/knapen_AOT/AOT_stimuli/rescaled_final/0620_fw.mp4	0.0	103.86902213096619	
10	82.06199812889099	movie	1		244	8.0	2.5	/experiments/knapen_AOT/AOT_stimuli/rescaled_final/0620_fw.mp4	0.0	103.87717819213867	2.508665084838867
10	83.65486407279968	pulse	1	t		8.0	2.5	/experiments/knapen_AOT/AOT_stimuli/rescaled_final/0620_fw.mp4	0.0	105.47004413604736	
10	84.57066321372986	fix_post	2		12	8.0	2.5	/experiments/knapen_AOT/AOT_stimuli/rescaled_final/0620_fw.mp4	0.0	106.38584327697754	0.10006594657897949
11	84.67072916030884	fix_pre	0		120	9.0	2.5	/experiments/knapen_AOT/AOT_stimuli/rescaled_final/0311_rv.mp4	0.0	106.48590922355652	1.0001130104064941
11	85.25430417060852	pulse	0	t		9.0	2.5	/experiments/knapen_AOT/AOT_stimuli/rescaled_final/0311_rv.mp4	0.0	107.0694842338562	
11	85.67084217071533	movie	1		243	9.0	2.5	/experiments/knapen_AOT/AOT_stimuli/rescaled_final/0311_rv.mp4	0.0	107.48602223396301	2.5003528594970703
11	86.85462999343872	pulse	1	t		9.0	2.5	/experiments/knapen_AOT/AOT_stimuli/rescaled_final/0311_rv.mp4	0.0	108.6698100566864	
11	88.1711950302124	fix_post	2		12	9.0	2.5	/experiments/knapen_AOT/AOT_stimuli/rescaled_final/0311_rv.mp4	0.0	109.98637509346008	0.1000511646270752
12	88.27124619483948	fix_pre	0		120	10.0	2.5	/experiments/knapen_AOT/AOT_stimuli/rescaled_final/1546_fw.mp4	0.0	110.08642625808716	1.0001349449157715
12	88.4548351764679	pulse	0	t		10.0	2.5	/experiments/knapen_AOT/AOT_stimuli/rescaled_final/1546_fw.mp4	0.0	110.27001523971558	
12	89.27138113975525	movie	1		244	10.0	2.5	/experiments/knapen_AOT/AOT_stimuli/rescaled_final/1546_fw.mp4	0.0	111.08656120300293	2.5003600120544434
12	90.05506920814514	pulse	1	t		10.0	2.5	/experiments/knapen_AOT/AOT_stimuli/rescaled_final/1546_fw.mp4	0.0	111.87024927139282	
12	91.65539908409119	pulse	1	t		10.0	2.5	/experiments/knapen_AOT/AOT_stimuli/rescaled_final/1546_fw.mp4	0.0	113.47057914733887	
12	91.77174115180969	fix_post	2		12	10.0	2.5	/experiments/knapen_AOT/AOT_stimuli/rescaled_final/1546_fw.mp4	0.0	113.58692121505737	0.1000058650970459
13	91.87174701690674	fix_pre	0		120	11.0	2.5	/experiments/knapen_AOT/AOT_stimuli/rescaled_final/0168_fw.mp4	0.0	113.68692708015442	1.0001780986785889
13	92.87192511558533	movie	1		242	11.0	2.5	/experiments/knapen_AOT/AOT_stimuli/rescaled_final/0168_fw.mp4	0.0	114.68710517883301	2.4920449256896973
13	93.25671720504761	pulse	1	t		11.0	2.5	/experiments/knapen_AOT/AOT_stimuli/rescaled_final/0168_fw.mp4	0.0	115.07189726829529	
13	94.85581803321838	pulse	1	t		11.0	2.5	/experiments/knapen_AOT/AOT_stimuli/rescaled_final/0168_fw.mp4	0.0	116.67099809646606	
13	95.36397004127502	fix_post	2		9	11.0	2.5	/experiments/knapen_AOT/AOT_stimuli/rescaled_final/0168_fw.mp4	0.0	117.1791501045227	0.10002303123474121
14	95.46399307250977	fix_pre	0		120	12.0	2.5	blank	1.0	117.27917313575745	1.0001449584960938
14	96.45602607727051	pulse	0	t		12.0	2.5	blank	1.0	118.27120614051819	
14	96.46413803100586	movie	1		301	12.0	2.5	blank	1.0	118.27931809425354	2.508660078048706
14	98.05625915527344	pulse	1	t		12.0	2.5	blank	1.0	119.87143921852112	
14	98.97279810905457	fix_post	2		12	12.0	2.5	blank	1.0	120.78797817230225	0.10004496574401855
15	99.07284307479858	fix_pre	0		120	13.0	2.5	/experiments/knapen_AOT/AOT_stimuli/rescaled_final/2165_fw.mp4	0.0	120.88802313804626	1.000133991241455
15	99.65648818016052	pulse	0	t		13.0	2.5	/experiments/knapen_AOT/AOT_stimuli/rescaled_final/2165_fw.mp4	0.0	121.4716682434082	
15	100.07297706604004	movie	1		243	13.0	2.5	/experiments/knapen_AOT/AOT_stimuli/rescaled_final/2165_fw.mp4	0.0	121.88815712928772	2.500481128692627
15	101.2569191455841	pulse	1	t		13.0	2.5	/experiments/knapen_AOT/AOT_stimuli/rescaled_final/2165_fw.mp4	0.0	123.07209920883179	
15	102.57345819473267	fix_post	2		12	13.0	2.5	/experiments/knapen_AOT/AOT_stimuli/rescaled_final/2165_fw.mp4	0.0	124.38863825798035	0.09991979598999023
16	102.67337799072266	fix_pre	0		120	14.0	2.5	/experiments/knapen_AOT/AOT_stimuli/rescaled_final/0872_fw.mp4	0.0	124.48855805397034	1.0001401901245117
16	102.85697317123413	pulse	0	t		14.0	2.5	/experiments/knapen_AOT/AOT_stimuli/rescaled_final/0872_fw.mp4	0.0	124.67215323448181	
16	103.67351818084717	movie	1		244	14.0	2.5	/experiments/knapen_AOT/AOT_stimuli/rescaled_final/0872_fw.mp4	0.0	125.48869824409485	2.500380039215088
16	104.45724701881409	pulse	1	t		14.0	2.5	/experiments/knapen_AOT/AOT_stimuli/rescaled_final/0872_fw.mp4	0.0	126.27242708206177	
16	106.0592679977417	pulse	1	t		14.0	2.5	/experiments/knapen_AOT/AOT_stimuli/rescaled_final/0872_fw.mp4	0.0	127.87444806098938	
16	106.17389822006226	fix_post	2		12	14.0	2.5	/experiments/knapen_AOT/AOT_stimuli/rescaled_final/0872_fw.mp4	0.0	127.98907828330994	0.10001993179321289
17	106.27391815185547	fix_pre	0		119	15.0	2.5	/experiments/knapen_AOT/AOT_stimuli/rescaled_final/0138_rv.mp4	0.0	128.08909821510315	0.991826057434082
17	107.26574420928955	movie	1		243	15.0	2.5	/experiments/knapen_AOT/AOT_stimuli/rescaled_final/0138_rv.mp4	0.0	129.08092427253723	2.500370979309082
17	107.65782117843628	pulse	1	t		15.0	2.5	/experiments/knapen_AOT/AOT_stimuli/rescaled_final/0138_rv.mp4	0.0	129.47300124168396	
17	109.25785398483276	pulse	1	t		15.0	2.5	/experiments/knapen_AOT/AOT_stimuli/rescaled_final/0138_rv.mp4	0.0	131.07303404808044	
17	109.76611518859863	fix_post	2		12	15.0	2.5	/experiments/knapen_AOT/AOT_stimuli/rescaled_final/0138_rv.mp4	0.0	131.5812952518463	0.09999680519104004
18	109.86611199378967	fix_pre	0		120	16.0	2.5	/experiments/knapen_AOT/AOT_stimuli/rescaled_final/1883_fw.mp4	0.0	131.68129205703735	1.0001590251922607
18	110.85811614990234	pulse	0	t		16.0	2.5	/experiments/knapen_AOT/AOT_stimuli/rescaled_final/1883_fw.mp4	0.0	132.67329621315002	
18	110.86627101898193	movie	1		246	16.0	2.5	/experiments/knapen_AOT/AOT_stimuli/rescaled_final/1883_fw.mp4	0.0	132.68145108222961	2.508697986602783
18	112.45886015892029	pulse	1	t		16.0	2.5	/experiments/knapen_AOT/AOT_stimuli/rescaled_final/1883_fw.mp4	0.0	134.27404022216797	
18	113.37496900558472	fix_post	2		12	16.0	2.5	/experiments/knapen_AOT/AOT_stimuli/rescaled_final/1883_fw.mp4	0.0	135.1901490688324	0.1000070571899414
19	113.47497606277466	fix_pre	0		120	17.0	2.5	/experiments/knapen_AOT/AOT_stimuli/rescaled_final/1564_rv.mp4	0.0	135.29015612602234	1.0001709461212158
19	114.05872011184692	pulse	0	t		17.0	2.5	/experiments/knapen_AOT/AOT_stimuli/rescaled_final/1564_rv.mp4	0.0	135.8739001750946	
19	114.47514700889587	movie	1		244	17.0	2.5	/experiments/knapen_AOT/AOT_stimuli/rescaled_final/1564_rv.mp4	0.0	136.29032707214355	2.5004119873046875
19	115.65894412994385	pulse	1	t		17.0	2.5	/experiments/knapen_AOT/AOT_stimuli/rescaled_final/1564_rv.mp4	0.0	137.47412419319153	
19	116.97555899620056	fix_post	2		12	17.0	2.5	/experiments/knapen_AOT/AOT_stimuli/rescaled_final/1564_rv.mp4	0.0	138.79073905944824	0.09996819496154785
20	117.07552719116211	fix_pre	0		120	18.0	2.5	/experiments/knapen_AOT/AOT_stimuli/rescaled_final/0335_fw.mp4	0.0	138.8907072544098	1.0001440048217773
20	117.25910115242004	pulse	0	t		18.0	2.5	/experiments/knapen_AOT/AOT_stimuli/rescaled_final/0335_fw.mp4	0.0	139.07428121566772	
20	118.07567119598389	movie	1		243	18.0	2.5	/experiments/knapen_AOT/AOT_stimuli/rescaled_final/0335_fw.mp4	0.0	139.89085125923157	2.5003628730773926
20	118.8594491481781	pulse	1	t		18.0	2.5	/experiments/knapen_AOT/AOT_stimuli/rescaled_final/0335_fw.mp4	0.0	140.67462921142578	
20	120.45997619628906	pulse	1	t		18.0	2.5	/experiments/knapen_AOT/AOT_stimuli/rescaled_final/0335_fw.mp4	0.0	142.27515625953674	
20	120.57603406906128	fix_post	2		12	18.0	2.5	/experiments/knapen_AOT/AOT_stimuli/rescaled_final/0335_fw.mp4	0.0	142.39121413230896	0.10001397132873535
21	120.67604804039001	fix_pre	0		120	19.0	2.5	blank	1.0	142.4912281036377	1.0001490116119385
21	121.67619705200195	movie	1		299	19.0	2.5	blank	1.0	143.49137711524963	2.4920530319213867
21	122.05996799468994	pulse	1	t		19.0	2.5	blank	1.0	143.87514805793762	
21	123.65254402160645	pulse	1	t		19.0	2.5	blank	1.0	145.46772408485413	
21	124.16825008392334	fix_post	2		12	19.0	2.5	blank	1.0	145.98343014717102	0.10000991821289062
22	124.26826000213623	fix_pre	0		120	20.0	2.5	/experiments/knapen_AOT/AOT_stimuli/rescaled_final/1449_fw.mp4	0.0	146.0834400653839	1.0001680850982666
22	125.25282406806946	pulse	0	t		20.0	2.5	/experiments/knapen_AOT/AOT_stimuli/rescaled_final/1449_fw.mp4	0.0	147.06800413131714	
22	125.2684280872345	movie	1		246	20.0	2.5	/experiments/knapen_AOT/AOT_stimuli/rescaled_final/1449_fw.mp4	0.0	147.08360815048218	2.508676052093506
22	126.86094307899475	pulse	1	t		20.0	2.5	/experiments/knapen_AOT/AOT_stimuli/rescaled_final/1449_fw.mp4	0.0	148.67612314224243	
22	127.777104139328	fix_post	2		12	20.0	2.5	/experiments/knapen_AOT/AOT_stimuli/rescaled_final/1449_fw.mp4	0.0	149.59228420257568	0.10005402565002441
23	127.87715816497803	fix_pre	0		120	21.0	2.5	/experiments/knapen_AOT/AOT_stimuli/rescaled_final/1972_fw.mp4	0.0	149.6923382282257	1.0001108646392822
23	128.45251607894897	pulse	0	t		21.0	2.5	/experiments/knapen_AOT/AOT_stimuli/rescaled_final/1972_fw.mp4	0.0	150.26769614219666	
23	128.8772690296173	movie	1		246	21.0	2.5	/experiments/knapen_AOT/AOT_stimuli/rescaled_final/1972_fw.mp4	0.0	150.692449092865	2.500391960144043
23	130.05296921730042	pulse	1	t		21.0	2.5	/experiments/knapen_AOT/AOT_stimuli/rescaled_final/1972_fw.mp4	0.0	151.8681492805481	
23	131.37766098976135	fix_post	2		12	21.0	2.5	/experiments/knapen_AOT/AOT_stimuli/rescaled_final/1972_fw.mp4	0.0	153.19284105300903	0.09999513626098633
24	131.47765612602234	fix_pre	0		120	22.0	2.5	/experiments/knapen_AOT/AOT_stimuli/rescaled_final/1446_fw.mp4	0.0	153.29283618927002	1.0001959800720215
24	131.65289115905762	pulse	0	t		22.0	2.5	/experiments/knapen_AOT/AOT_stimuli/rescaled_final/1446_fw.mp4	0.0	153.4680712223053	
24	132.47785210609436	movie	1		244	22.0	2.5	/experiments/knapen_AOT/AOT_stimuli/rescaled_final/1446_fw.mp4	0.0	154.29303216934204	2.5003318786621094
24	133.25334405899048	pulse	1	t		22.0	2.5	/experiments/knapen_AOT/AOT_stimuli/rescaled_final/1446_fw.mp4	0.0	155.06852412223816	
24	134.85333704948425	pulse	1	t		22.0	2.5	/experiments/knapen_AOT/AOT_stimuli/rescaled_final/1446_fw.mp4	0.0	156.66851711273193	
24	134.97818398475647	fix_post	2		12	22.0	2.5	/experiments/knapen_AOT/AOT_stimuli/rescaled_final/1446_fw.mp4	0.0	156.79336404800415	0.100006103515625
25	135.0781900882721	fix_pre	0		119	23.0	2.5	/experiments/knapen_AOT/AOT_stimuli/rescaled_final/1747_fw.mp4	0.0	156.89337015151978	0.991826057434082
25	136.07001614570618	movie	1		243	23.0	2.5	/experiments/knapen_AOT/AOT_stimuli/rescaled_final/1747_fw.mp4	0.0	157.88519620895386	2.500403881072998
25	136.45405411720276	pulse	1	t		23.0	2.5	/experiments/knapen_AOT/AOT_stimuli/rescaled_final/1747_fw.mp4	0.0	158.26923418045044	
25	138.05391311645508	pulse	1	t		23.0	2.5	/experiments/knapen_AOT/AOT_stimuli/rescaled_final/1747_fw.mp4	0.0	159.86909317970276	
25	138.57042002677917	fix_post	2		12	23.0	2.5	/experiments/knapen_AOT/AOT_stimuli/rescaled_final/1747_fw.mp4	0.0	160.38560009002686	0.09996819496154785
26	138.67038822174072	fix_pre	0		119	24.0	2.5	/experiments/knapen_AOT/AOT_stimuli/rescaled_final/0971_fw.mp4	0.0	160.4855682849884	0.9918389320373535
26	139.65407299995422	pulse	0	t		24.0	2.5	/experiments/knapen_AOT/AOT_stimuli/rescaled_final/0971_fw.mp4	0.0	161.4692530632019	
26	139.66222715377808	movie	1		245	24.0	2.5	/experiments/knapen_AOT/AOT_stimuli/rescaled_final/0971_fw.mp4	0.0	161.47740721702576	2.5087318420410156
26	141.2554850578308	pulse	1	t		24.0	2.5	/experiments/knapen_AOT/AOT_stimuli/rescaled_final/0971_fw.mp4	0.0	163.0706651210785	
26	142.1709589958191	fix_post	2		12	24.0	2.5	/experiments/knapen_AOT/AOT_stimuli/rescaled_final/0971_fw.mp4	0.0	163.98613905906677	0.0999910831451416
27	142.27095007896423	fix_pre	0		120	25.0	2.5	/experiments/knapen_AOT/AOT_stimuli/rescaled_final/1932_fw.mp4	0.0	164.0861301422119	1.0001449584960938
27	142.85465216636658	pulse	0	t		25.0	2.5	/experiments/knapen_AOT/AOT_stimuli/rescaled_final/1932_fw.mp4	0.0	164.66983222961426	
27	143.27109503746033	movie	1		245	25.0	2.5	/experiments/knapen_AOT/AOT_stimuli/rescaled_final/1932_fw.mp4	0.0	165.086275100708	2.5003621578216553
27	144.4548840522766	pulse	1	t		25.0	2.5	/experiments/knapen_AOT/AOT_stimuli/rescaled_final/1932_fw.mp4	0.0	166.2700641155243	
27	145.77145719528198	fix_post	2		12	25.0	2.5	/experiments/knapen_AOT/AOT_stimuli/rescaled_final/1932_fw.mp4	0.0	167.58663725852966	0.09998798370361328
28	145.8714451789856	fix_pre	0		120	26.0	2.5	/experiments/knapen_AOT/AOT_stimuli/rescaled_final/1750_fw.mp4	0.0	167.68662524223328	1.000180959701538
28	146.05521512031555	pulse	0	t		26.0	2.5	/experiments/knapen_AOT/AOT_stimuli/rescaled_final/1750_fw.mp4	0.0	167.87039518356323	
28	146.87162613868713	movie	1		245	26.0	2.5	/experiments/knapen_AOT/AOT_stimuli/rescaled_final/1750_fw.mp4	0.0	168.68680620193481	2.5003769397735596
28	147.65523314476013	pulse	1	t		26.0	2.5	/experiments/knapen_AOT/AOT_stimuli/rescaled_final/1750_fw.mp4	0.0	169.4704132080078	
28	149.2557511329651	pulse	1	t		26.0	2.5	/experiments/knapen_AOT/AOT_stimuli/rescaled_final/1750_fw.mp4	0.0	171.07093119621277	
28	149.3720030784607	fix_post	2		12	26.0	2.5	/experiments/knapen_AOT/AOT_stimuli/rescaled_final/1750_fw.mp4	0.0	171.18718314170837	0.09999895095825195
29	149.47200202941895	fix_pre	0		120	27.0	2.5	blank	1.0	171.28718209266663	1.0001790523529053
29	150.47218108177185	movie	1		299	27.0	2.5	blank	1.0	172.28736114501953	2.492016077041626
29	150.85576820373535	pulse	1	t		27.0	2.5	blank	1.0	172.67094826698303	
29	152.4559772014618	pulse	1	t		27.0	2.5	blank	1.0	174.27115726470947	
29	152.96419715881348	fix_post	2		12	27.0	2.5	blank	1.0	174.77937722206116	0.10004091262817383
30	153.06423807144165	fix_pre	0		120	28.0	2.5	/experiments/knapen_AOT/AOT_stimuli/rescaled_final/0457_fw.mp4	0.0	174.87941813468933	1.0001730918884277
30	154.05616998672485	pulse	0	t		28.0	2.5	/experiments/knapen_AOT/AOT_stimuli/rescaled_final/0457_fw.mp4	0.0	175.87135004997253	
30	154.06441116333008	movie	1		243	28.0	2.5	/experiments/knapen_AOT/AOT_stimuli/rescaled_final/0457_fw.mp4	0.0	175.87959122657776	2.5086588859558105
30	155.65783500671387	pulse	1	t		28.0	2.5	/experiments/knapen_AOT/AOT_stimuli/rescaled_final/0457_fw.mp4	0.0	177.47301506996155	
30	156.5730700492859	fix_post	2		12	28.0	2.5	/experiments/knapen_AOT/AOT_stimuli/rescaled_final/0457_fw.mp4	0.0	178.38825011253357	0.09998703002929688
31	156.67305707931519	fix_pre	0		120	29.0	2.5	/experiments/knapen_AOT/AOT_stimuli/rescaled_final/0535_rv.mp4	0.0	178.48823714256287	1.0001790523529053
31	157.25672101974487	pulse	0	t		29.0	2.5	/experiments/knapen_AOT/AOT_stimuli/rescaled_final/0535_rv.mp4	0.0	179.07190108299255	
31	157.6732361316681	movie	1		243	29.0	2.5	/experiments/knapen_AOT/AOT_stimuli/rescaled_final/0535_rv.mp4	0.0	179.48841619491577	2.5003809928894043
31	158.85700607299805	pulse	1	t		29.0	2.5	/experiments/knapen_AOT/AOT_stimuli/rescaled_final/0535_rv.mp4	0.0	180.67218613624573	
31	160.1736171245575	fix_post	2		12	29.0	2.5	/experiments/knapen_AOT/AOT_stimuli/rescaled_final/0535_rv.mp4	0.0	181.98879718780518	0.10004496574401855
32	160.2736620903015	fix_pre	0		120	30.0	2.5	/experiments/knapen_AOT/AOT_stimuli/rescaled_final/0916_fw.mp4	0.0	182.0888421535492	1.0001509189605713
32	160.45718717575073	pulse	0	t		30.0	2.5	/experiments/knapen_AOT/AOT_stimuli/rescaled_final/0916_fw.mp4	0.0	182.2723672389984	
32	161.27381300926208	movie	1		243	30.0	2.5	/experiments/knapen_AOT/AOT_stimuli/rescaled_final/0916_fw.mp4	0.0	183.08899307250977	2.5003180503845215
32	162.05742001533508	pulse	1	t		30.0	2.5	/experiments/knapen_AOT/AOT_stimuli/rescaled_final/0916_fw.mp4	0.0	183.87260007858276	
32	163.65755820274353	pulse	1	t		30.0	2.5	/experiments/knapen_AOT/AOT_stimuli/rescaled_final/0916_fw.mp4	0.0	185.4727382659912	
32	163.7741310596466	fix_post	2		12	30.0	2.5	/experiments/knapen_AOT/AOT_stimuli/rescaled_final/0916_fw.mp4	0.0	185.5893111228943	0.1000220775604248
33	163.87415313720703	fix_pre	0		119	31.0	2.5	/experiments/knapen_AOT/AOT_stimuli/rescaled_final/2075_rv.mp4	0.0	185.6893332004547	0.9918558597564697
33	164.8660089969635	movie	1		245	31.0	2.5	/experiments/knapen_AOT/AOT_stimuli/rescaled_final/2075_rv.mp4	0.0	186.68118906021118	2.5003411769866943
33	165.2543752193451	pulse	1	t		31.0	2.5	/experiments/knapen_AOT/AOT_stimuli/rescaled_final/2075_rv.mp4	0.0	187.06955528259277	
33	166.85809707641602	pulse	1	t		31.0	2.5	/experiments/knapen_AOT/AOT_stimuli/rescaled_final/2075_rv.mp4	0.0	188.6732771396637	
33	167.3663501739502	fix_post	2		12	31.0	2.5	/experiments/knapen_AOT/AOT_stimuli/rescaled_final/2075_rv.mp4	0.0	189.18153023719788	0.10006403923034668
34	167.46641421318054	fix_pre	0		120	32.0	2.5	/experiments/knapen_AOT/AOT_stimuli/rescaled_final/1749_fw.mp4	0.0	189.28159427642822	1.0001440048217773
34	168.45833110809326	pulse	0	t		32.0	2.5	/experiments/knapen_AOT/AOT_stimuli/rescaled_final/1749_fw.mp4	0.0	190.27351117134094	
34	168.46655821800232	movie	1		244	32.0	2.5	/experiments/knapen_AOT/AOT_stimuli/rescaled_final/1749_fw.mp4	0.0	190.28173828125	2.508652925491333
34	170.05974817276	pulse	1	t		32.0	2.5	/experiments/knapen_AOT/AOT_stimuli/rescaled_final/1749_fw.mp4	0.0	191.8749282360077	
34	170.97521114349365	fix_post	2		12	32.0	2.5	/experiments/knapen_AOT/AOT_stimuli/rescaled_final/1749_fw.mp4	0.0	192.79039120674133	0.10006499290466309
35	171.07527613639832	fix_pre	0		120	33.0	2.5	/experiments/knapen_AOT/AOT_stimuli/rescaled_final/1170_fw.mp4	0.0	192.890456199646	1.0000948905944824
35	171.6589081287384	pulse	0	t		33.0	2.5	/experiments/knapen_AOT/AOT_stimuli/rescaled_final/1170_fw.mp4	0.0	193.47408819198608	
35	172.0753710269928	movie	1		244	33.0	2.5	/experiments/knapen_AOT/AOT_stimuli/rescaled_final/1170_fw.mp4	0.0	193.89055109024048	2.5004191398620605
35	173.259202003479	pulse	1	t		33.0	2.5	/experiments/knapen_AOT/AOT_stimuli/rescaled_final/1170_fw.mp4	0.0	195.07438206672668	
35	174.57579016685486	fix_post	2		12	33.0	2.5	/experiments/knapen_AOT/AOT_stimuli/rescaled_final/1170_fw.mp4	0.0	196.39097023010254	0.1000068187713623
36	174.67579698562622	fix_pre	0		120	34.0	2.5	blank	1.0	196.4909770488739	1.0001370906829834
36	174.85930609703064	pulse	0	t		34.0	2.5	blank	1.0	196.67448616027832	
36	175.6759340763092	movie	1		300	34.0	2.5	blank	1.0	197.49111413955688	2.5003809928894043
36	176.45965719223022	pulse	1	t		34.0	2.5	blank	1.0	198.2748372554779	
36	178.0598042011261	pulse	1	t		34.0	2.5	blank	1.0	199.87498426437378	
36	178.1763150691986	fix_post	2		12	34.0	2.5	blank	1.0	199.9914951324463	0.10000300407409668
37	178.2763180732727	fix_pre	0		119	35.0	2.5	/experiments/knapen_AOT/AOT_stimuli/rescaled_final/1417_fw.mp4	0.0	200.09149813652039	0.9918079376220703
37	179.26812601089478	movie	1		245	35.0	2.5	/experiments/knapen_AOT/AOT_stimuli/rescaled_final/1417_fw.mp4	0.0	201.08330607414246	2.5003750324249268
37	179.66010904312134	pulse	1	t		35.0	2.5	/experiments/knapen_AOT/AOT_stimuli/rescaled_final/1417_fw.mp4	0.0	201.47528910636902	
37	181.2602779865265	pulse	1	t		35.0	2.5	/experiments/knapen_AOT/AOT_stimuli/rescaled_final/1417_fw.mp4	0.0	203.07545804977417	
37	181.7685010433197	fix_post	2		12	35.0	2.5	/experiments/knapen_AOT/AOT_stimuli/rescaled_final/1417_fw.mp4	0.0	203.58368110656738	0.10005807876586914
38	181.86855912208557	fix_pre	0		120	36.0	2.5	/experiments/knapen_AOT/AOT_stimuli/rescaled_final/0872_fw.mp4	0.0	203.68373918533325	1.0001130104064941
38	182.8605501651764	pulse	0	t		36.0	2.5	/experiments/knapen_AOT/AOT_stimuli/rescaled_final/0872_fw.mp4	0.0	204.67573022842407	
38	182.86867213249207	movie	1		245	36.0	2.5	/experiments/knapen_AOT/AOT_stimuli/rescaled_final/0872_fw.mp4	0.0	204.68385219573975	2.508704900741577
38	184.46232318878174	pulse	1	t		36.0	2.5	/experiments/knapen_AOT/AOT_stimuli/rescaled_final/0872_fw.mp4	0.0	206.27750325202942	
38	185.37737703323364	fix_post	2		12	36.0	2.5	/experiments/knapen_AOT/AOT_stimuli/rescaled_final/0872_fw.mp4	0.0	207.19255709648132	0.10000896453857422
39	185.47738599777222	fix_pre	0		120	37.0	2.5	/experiments/knapen_AOT/AOT_stimuli/rescaled_final/1686_fw.mp4	0.0	207.2925660610199	1.0001311302185059
39	186.05356812477112	pulse	0	t		37.0	2.5	/experiments/knapen_AOT/AOT_stimuli/rescaled_final/1686_fw.mp4	0.0	207.8687481880188	
39	186.47751712799072	movie	1		244	37.0	2.5	/experiments/knapen_AOT/AOT_stimuli/rescaled_final/1686_fw.mp4	0.0	208.2926971912384	2.500385046005249
39	187.65338015556335	pulse	1	t		37.0	2.5	/experiments/knapen_AOT/AOT_stimuli/rescaled_final/1686_fw.mp4	0.0	209.46856021881104	
39	188.97790217399597	fix_post	2		12	37.0	2.5	/experiments/knapen_AOT/AOT_stimuli/rescaled_final/1686_fw.mp4	0.0	210.79308223724365	0.10001397132873535
40	189.0779161453247	fix_pre	0		120	38.0	2.5	/experiments/knapen_AOT/AOT_stimuli/rescaled_final/1883_rv.mp4	0.0	210.8930962085724	1.0001440048217773
40	189.2532889842987	pulse	0	t		38.0	2.5	/experiments/knapen_AOT/AOT_stimuli/rescaled_final/1883_rv.mp4	0.0	211.0684690475464	
40	190.07806015014648	movie	1		245	38.0	2.5	/experiments/knapen_AOT/AOT_stimuli/rescaled_final/1883_rv.mp4	0.0	211.89324021339417	2.50040602684021
40	190.85330414772034	pulse	1	t		38.0	2.5	/experiments/knapen_AOT/AOT_stimuli/rescaled_final/1883_rv.mp4	0.0	212.66848421096802	
40	192.4536361694336	pulse	1	t		38.0	2.5	/experiments/knapen_AOT/AOT_stimuli/rescaled_final/1883_rv.mp4	0.0	214.26881623268127	
40	192.5784661769867	fix_post	2		12	38.0	2.5	/experiments/knapen_AOT/AOT_stimuli/rescaled_final/1883_rv.mp4	0.0	214.39364624023438	0.09998583793640137
41	192.6784520149231	fix_pre	0		120	39.0	2.5	/experiments/knapen_AOT/AOT_stimuli/rescaled_final/1472_rv.mp4	0.0	214.49363207817078	1.000162124633789
41	193.67861413955688	movie	1		243	39.0	2.5	/experiments/knapen_AOT/AOT_stimuli/rescaled_final/1472_rv.mp4	0.0	215.49379420280457	2.492027997970581
41	194.05390000343323	pulse	1	t		39.0	2.5	/experiments/knapen_AOT/AOT_stimuli/rescaled_final/1472_rv.mp4	0.0	215.8690800666809	
41	195.65422010421753	pulse	1	t		39.0	2.5	/experiments/knapen_AOT/AOT_stimuli/rescaled_final/1472_rv.mp4	0.0	217.4694001674652	
41	196.17064213752747	fix_post	2		12	39.0	2.5	/experiments/knapen_AOT/AOT_stimuli/rescaled_final/1472_rv.mp4	0.0	217.98582220077515	0.10006904602050781
42	196.27071118354797	fix_pre	0		119	40.0	2.5	/experiments/knapen_AOT/AOT_stimuli/rescaled_final/1838_rv.mp4	0.0	218.08589124679565	0.991757869720459
42	197.25425720214844	pulse	0	t		40.0	2.5	/experiments/knapen_AOT/AOT_stimuli/rescaled_final/1838_rv.mp4	0.0	219.06943726539612	
42	197.26246905326843	movie	1		245	40.0	2.5	/experiments/knapen_AOT/AOT_stimuli/rescaled_final/1838_rv.mp4	0.0	219.0776491165161	2.508742094039917
42	198.8551640510559	pulse	1	t		40.0	2.5	/experiments/knapen_AOT/AOT_stimuli/rescaled_final/1838_rv.mp4	0.0	220.6703441143036	
42	199.77121114730835	fix_post	2		12	40.0	2.5	/experiments/knapen_AOT/AOT_stimuli/rescaled_final/1838_rv.mp4	0.0	221.58639121055603	0.10001087188720703
43	199.87122201919556	fix_pre	0		120	41.0	2.5	/experiments/knapen_AOT/AOT_stimuli/rescaled_final/0234_fw.mp4	0.0	221.68640208244324	1.0001401901245117
43	200.4548830986023	pulse	0	t		41.0	2.5	/experiments/knapen_AOT/AOT_stimuli/rescaled_final/0234_fw.mp4	0.0	222.27006316184998	
43	200.87136220932007	movie	1		244	41.0	2.5	/experiments/knapen_AOT/AOT_stimuli/rescaled_final/0234_fw.mp4	0.0	222.68654227256775	2.5003697872161865
43	202.0551941394806	pulse	1	t		41.0	2.5	/experiments/knapen_AOT/AOT_stimuli/rescaled_final/0234_fw.mp4	0.0	223.87037420272827	
43	203.37173199653625	fix_post	2		12	41.0	2.5	/experiments/knapen_AOT/AOT_stimuli/rescaled_final/0234_fw.mp4	0.0	225.18691205978394	0.1000361442565918
44	203.47176814079285	fix_pre	0		120	42.0	2.5	blank	1.0	225.28694820404053	1.000128984451294
44	203.65521812438965	pulse	0	t		42.0	2.5	blank	1.0	225.47039818763733	
44	204.47189712524414	movie	1		300	42.0	2.5	blank	1.0	226.28707718849182	2.5003979206085205
44	205.25552201271057	pulse	1	t		42.0	2.5	blank	1.0	227.07070207595825	
44	206.85583019256592	pulse	1	t		42.0	2.5	blank	1.0	228.6710102558136	
44	206.97229504585266	fix_post	2		11	42.0	2.5	blank	1.0	228.78747510910034	0.09167313575744629
45	207.0639681816101	fix_pre	0		120	43.0	2.5	/experiments/knapen_AOT/AOT_stimuli/rescaled_final/1322_fw.mp4	0.0	228.8791482448578	1.0001039505004883
45	208.0640721321106	movie	1		244	43.0	2.5	/experiments/knapen_AOT/AOT_stimuli/rescaled_final/1322_fw.mp4	0.0	229.87925219535828	2.500365972518921
45	208.4560830593109	pulse	1	t		43.0	2.5	/experiments/knapen_AOT/AOT_stimuli/rescaled_final/1322_fw.mp4	0.0	230.2712631225586	
45	210.05622100830078	pulse	1	t		43.0	2.5	/experiments/knapen_AOT/AOT_stimuli/rescaled_final/1322_fw.mp4	0.0	231.87140107154846	
45	210.56443810462952	fix_post	2		12	43.0	2.5	/experiments/knapen_AOT/AOT_stimuli/rescaled_final/1322_fw.mp4	0.0	232.3796181678772	0.10001707077026367
46	210.66445517539978	fix_pre	0		120	44.0	2.5	/experiments/knapen_AOT/AOT_stimuli/rescaled_final/1972_rv.mp4	0.0	232.47963523864746	1.0001659393310547
46	211.6564860343933	pulse	0	t		44.0	2.5	/experiments/knapen_AOT/AOT_stimuli/rescaled_final/1972_rv.mp4	0.0	233.471666097641	
46	211.66462111473083	movie	1		246	44.0	2.5	/experiments/knapen_AOT/AOT_stimuli/rescaled_final/1972_rv.mp4	0.0	233.47980117797852	2.5087850093841553
46	213.2572660446167	pulse	1	t		44.0	2.5	/experiments/knapen_AOT/AOT_stimuli/rescaled_final/1972_rv.mp4	0.0	235.07244610786438	
46	214.173406124115	fix_post	2		12	44.0	2.5	/experiments/knapen_AOT/AOT_stimuli/rescaled_final/1972_rv.mp4	0.0	235.98858618736267	0.0999760627746582
47	214.27338218688965	fix_pre	0		118	45.0	2.5	/experiments/knapen_AOT/AOT_stimuli/rescaled_final/1885_rv.mp4	0.0	236.08856225013733	1.000128984451294
47	214.8570761680603	pulse	0	t		45.0	2.5	/experiments/knapen_AOT/AOT_stimuli/rescaled_final/1885_rv.mp4	0.0	236.67225623130798	
47	215.27351117134094	movie	1		244	45.0	2.5	/experiments/knapen_AOT/AOT_stimuli/rescaled_final/1885_rv.mp4	0.0	237.08869123458862	2.5003528594970703
47	216.45730710029602	pulse	1	t		45.0	2.5	/experiments/knapen_AOT/AOT_stimuli/rescaled_final/1885_rv.mp4	0.0	238.2724871635437	
47	217.773864030838	fix_post	2		12	45.0	2.5	/experiments/knapen_AOT/AOT_stimuli/rescaled_final/1885_rv.mp4	0.0	239.5890440940857	0.10004806518554688
48	217.87391209602356	fix_pre	0		120	46.0	2.5	/experiments/knapen_AOT/AOT_stimuli/rescaled_final/1094_fw.mp4	0.0	239.68909215927124	1.0001161098480225
48	218.05737018585205	pulse	0	t		46.0	2.5	/experiments/knapen_AOT/AOT_stimuli/rescaled_final/1094_fw.mp4	0.0	239.87255024909973	
48	218.87402820587158	movie	1		243	46.0	2.5	/experiments/knapen_AOT/AOT_stimuli/rescaled_final/1094_fw.mp4	0.0	240.68920826911926	2.500422954559326
48	219.6577911376953	pulse	1	t		46.0	2.5	/experiments/knapen_AOT/AOT_stimuli/rescaled_final/1094_fw.mp4	0.0	241.472971200943	
48	221.25792002677917	pulse	1	t		46.0	2.5	/experiments/knapen_AOT/AOT_stimuli/rescaled_final/1094_fw.mp4	0.0	243.07310009002686	
48	221.3744511604309	fix_post	2		12	46.0	2.5	/experiments/knapen_AOT/AOT_stimuli/rescaled_final/1094_fw.mp4	0.0	243.1896312236786	0.09995698928833008
49	221.47440814971924	fix_pre	0		119	47.0	2.5	blank	1.0	243.28958821296692	0.9918558597564697
49	222.4662640094757	movie	1		300	47.0	2.5	blank	1.0	244.2814440727234	2.500359058380127
49	222.85819220542908	pulse	1	t		47.0	2.5	blank	1.0	244.67337226867676	
49	224.45837116241455	pulse	1	t		47.0	2.5	blank	1.0	246.27355122566223	
49	224.96662306785583	fix_post	2		12	47.0	2.5	blank	1.0	246.78180313110352	0.09999799728393555
50	225.06662106513977	fix_pre	0		120	48.0	2.5	/experiments/knapen_AOT/AOT_stimuli/rescaled_final/0107_rv.mp4	0.0	246.88180112838745	1.0001330375671387
50	226.0587100982666	pulse	0	t		48.0	2.5	/experiments/knapen_AOT/AOT_stimuli/rescaled_final/0107_rv.mp4	0.0	247.87389016151428	
50	226.0667541027069	movie	1		245	48.0	2.5	/experiments/knapen_AOT/AOT_stimuli/rescaled_final/0107_rv.mp4	0.0	247.8819341659546	2.508699893951416
50	227.66021418571472	pulse	1	t		48.0	2.5	/experiments/knapen_AOT/AOT_stimuli/rescaled_final/0107_rv.mp4	0.0	249.4753942489624	
50	228.57545399665833	fix_post	2		12	48.0	2.5	/experiments/knapen_AOT/AOT_stimuli/rescaled_final/0107_rv.mp4	0.0	250.390634059906	0.10004401206970215
51	228.67549800872803	fix_pre	0		120	49.0	2.5	/experiments/knapen_AOT/AOT_stimuli/rescaled_final/0135_fw.mp4	0.0	250.4906780719757	1.0002150535583496
51	229.25911808013916	pulse	0	t		49.0	2.5	/experiments/knapen_AOT/AOT_stimuli/rescaled_final/0135_fw.mp4	0.0	251.07429814338684	
51	229.67571306228638	movie	1		243	49.0	2.5	/experiments/knapen_AOT/AOT_stimuli/rescaled_final/0135_fw.mp4	0.0	251.49089312553406	2.5003769397735596
51	230.8595380783081	pulse	1	t		49.0	2.5	/experiments/knapen_AOT/AOT_stimuli/rescaled_final/0135_fw.mp4	0.0	252.6747181415558	
51	232.17609000205994	fix_post	2		12	49.0	2.5	/experiments/knapen_AOT/AOT_stimuli/rescaled_final/0135_fw.mp4	0.0	253.99127006530762	0.09997010231018066
52	232.27606010437012	fix_pre	0		120	50.0	2.5	/experiments/knapen_AOT/AOT_stimuli/rescaled_final/0138_rv.mp4	0.0	254.0912401676178	1.0001220703125
52	232.45976209640503	pulse	0	t		50.0	2.5	/experiments/knapen_AOT/AOT_stimuli/rescaled_final/0138_rv.mp4	0.0	254.2749421596527	
52	233.27618217468262	movie	1		243	50.0	2.5	/experiments/knapen_AOT/AOT_stimuli/rescaled_final/0138_rv.mp4	0.0	255.0913622379303	2.5003859996795654
52	234.05988216400146	pulse	1	t		50.0	2.5	/experiments/knapen_AOT/AOT_stimuli/rescaled_final/0138_rv.mp4	0.0	255.87506222724915	
52	235.66000318527222	pulse	1	t		50.0	2.5	/experiments/knapen_AOT/AOT_stimuli/rescaled_final/0138_rv.mp4	0.0	257.4751832485199	
52	235.77656817436218	fix_post	2		12	50.0	2.5	/experiments/knapen_AOT/AOT_stimuli/rescaled_final/0138_rv.mp4	0.0	257.59174823760986	0.0999898910522461
53	235.87655806541443	fix_pre	0		120	51.0	2.5	/experiments/knapen_AOT/AOT_stimuli/rescaled_final/1472_fw.mp4	0.0	257.6917381286621	1.000143051147461
53	236.8767011165619	movie	1		243	51.0	2.5	/experiments/knapen_AOT/AOT_stimuli/rescaled_final/1472_fw.mp4	0.0	258.69188117980957	2.4920520782470703
53	237.26111817359924	pulse	1	t		51.0	2.5	/experiments/knapen_AOT/AOT_stimuli/rescaled_final/1472_fw.mp4	0.0	259.0762982368469	
53	238.85314202308655	pulse	1	t		51.0	2.5	/experiments/knapen_AOT/AOT_stimuli/rescaled_final/1472_fw.mp4	0.0	260.66832208633423	
53	239.36875319480896	fix_post	2		12	51.0	2.5	/experiments/knapen_AOT/AOT_stimuli/rescaled_final/1472_fw.mp4	0.0	261.18393325805664	0.10001993179321289
54	239.46877312660217	fix_pre	0		120	52.0	2.5	/experiments/knapen_AOT/AOT_stimuli/rescaled_final/0940_fw.mp4	0.0	261.28395318984985	1.0001649856567383
54	240.4532310962677	pulse	0	t		52.0	2.5	/experiments/knapen_AOT/AOT_stimuli/rescaled_final/0940_fw.mp4	0.0	262.2684111595154	
54	240.4689381122589	movie	1		244	52.0	2.5	/experiments/knapen_AOT/AOT_stimuli/rescaled_final/0940_fw.mp4	0.0	262.2841181755066	2.5086989402770996
54	242.06173014640808	pulse	1	t		52.0	2.5	/experiments/knapen_AOT/AOT_stimuli/rescaled_final/0940_fw.mp4	0.0	263.87691020965576	
54	242.977637052536	fix_post	2		12	52.0	2.5	/experiments/knapen_AOT/AOT_stimuli/rescaled_final/0940_fw.mp4	0.0	264.7928171157837	0.09999799728393555
55	243.07763504981995	fix_pre	0		120	53.0	2.5	/experiments/knapen_AOT/AOT_stimuli/rescaled_final/0901_rv.mp4	0.0	264.8928151130676	1.0001611709594727
55	243.65299701690674	pulse	0	t		53.0	2.5	/experiments/knapen_AOT/AOT_stimuli/rescaled_final/0901_rv.mp4	0.0	265.4681770801544	
55	244.07779622077942	movie	1		249	53.0	2.5	/experiments/knapen_AOT/AOT_stimuli/rescaled_final/0901_rv.mp4	0.0	265.8929762840271	2.500351905822754
55	245.25444912910461	pulse	1	t		53.0	2.5	/experiments/knapen_AOT/AOT_stimuli/rescaled_final/0901_rv.mp4	0.0	267.0696291923523	
55	246.57814812660217	fix_post	2		12	53.0	2.5	/experiments/knapen_AOT/AOT_stimuli/rescaled_final/0901_rv.mp4	0.0	268.39332818984985	0.10004997253417969
56	246.67819809913635	fix_pre	0		120	54.0	2.5	blank	1.0	268.49337816238403	1.0001659393310547
56	246.85339307785034	pulse	0	t		54.0	2.5	blank	1.0	268.668573141098	
56	247.6783640384674	movie	1		300	54.0	2.5	blank	1.0	269.4935441017151	2.5003650188446045
56	248.45370817184448	pulse	1	t		54.0	2.5	blank	1.0	270.26888823509216	
56	250.05391216278076	pulse	1	t		54.0	2.5	blank	1.0	271.86909222602844	
56	250.178729057312	fix_post	2		12	54.0	2.5	blank	1.0	271.9939091205597	0.10001015663146973
57	250.27873921394348	fix_pre	0		120	55.0	2.5	/experiments/knapen_AOT/AOT_stimuli/rescaled_final/1668_fw.mp4	0.0	272.09391927719116	1.0001249313354492
57	251.27886414527893	movie	1		244	55.0	2.5	/experiments/knapen_AOT/AOT_stimuli/rescaled_final/1668_fw.mp4	0.0	273.0940442085266	2.4920740127563477
57	251.65420508384705	pulse	1	t		55.0	2.5	/experiments/knapen_AOT/AOT_stimuli/rescaled_final/1668_fw.mp4	0.0	273.4693851470947	
57	253.25442504882812	pulse	1	t		55.0	2.5	/experiments/knapen_AOT/AOT_stimuli/rescaled_final/1668_fw.mp4	0.0	275.0696051120758	
57	253.77093815803528	fix_post	2		12	55.0	2.5	/experiments/knapen_AOT/AOT_stimuli/rescaled_final/1668_fw.mp4	0.0	275.58611822128296	0.10001087188720703
58	253.87094902992249	fix_pre	0		119	56.0	2.5	/experiments/knapen_AOT/AOT_stimuli/rescaled_final/0425_rv.mp4	0.0	275.68612909317017	0.9917540550231934
58	254.85460710525513	pulse	0	t		56.0	2.5	/experiments/knapen_AOT/AOT_stimuli/rescaled_final/0425_rv.mp4	0.0	276.6697871685028	
58	254.86270308494568	movie	1		247	56.0	2.5	/experiments/knapen_AOT/AOT_stimuli/rescaled_final/0425_rv.mp4	0.0	276.67788314819336	2.5087380409240723
58	256.4590120315552	pulse	1	t		56.0	2.5	/experiments/knapen_AOT/AOT_stimuli/rescaled_final/0425_rv.mp4	0.0	278.27419209480286	
58	257.37144112586975	fix_post	2		12	56.0	2.5	/experiments/knapen_AOT/AOT_stimuli/rescaled_final/0425_rv.mp4	0.0	279.18662118911743	0.09999990463256836
59	257.4714410305023	fix_pre	0		120	57.0	2.5	/experiments/knapen_AOT/AOT_stimuli/rescaled_final/0433_rv.mp4	0.0	279.28662109375	1.0001611709594727
59	258.05519104003906	pulse	0	t		57.0	2.5	/experiments/knapen_AOT/AOT_stimuli/rescaled_final/0433_rv.mp4	0.0	279.87037110328674	
59	258.4716022014618	movie	1		244	57.0	2.5	/experiments/knapen_AOT/AOT_stimuli/rescaled_final/0433_rv.mp4	0.0	280.2867822647095	2.5003609657287598
59	259.65540504455566	pulse	1	t		57.0	2.5	/experiments/knapen_AOT/AOT_stimuli/rescaled_final/0433_rv.mp4	0.0	281.47058510780334	
59	260.97196316719055	fix_post	2		12	57.0	2.5	/experiments/knapen_AOT/AOT_stimuli/rescaled_final/0433_rv.mp4	0.0	282.78714323043823	0.10002899169921875
60	261.07199215888977	fix_pre	0		120	58.0	2.5	/experiments/knapen_AOT/AOT_stimuli/rescaled_final/1932_rv.mp4	0.0	282.88717222213745	1.0001490116119385
60	261.25557708740234	pulse	0	t		58.0	2.5	/experiments/knapen_AOT/AOT_stimuli/rescaled_final/1932_rv.mp4	0.0	283.07075715065	
60	262.0721411705017	movie	1		246	58.0	2.5	/experiments/knapen_AOT/AOT_stimuli/rescaled_final/1932_rv.mp4	0.0	283.8873212337494	2.5003609657287598
60	262.85586619377136	pulse	1	t		58.0	2.5	/experiments/knapen_AOT/AOT_stimuli/rescaled_final/1932_rv.mp4	0.0	284.67104625701904	
60	264.4561471939087	pulse	1	t		58.0	2.5	/experiments/knapen_AOT/AOT_stimuli/rescaled_final/1932_rv.mp4	0.0	286.2713272571564	
60	264.57250213623047	fix_post	2		12	58.0	2.5	/experiments/knapen_AOT/AOT_stimuli/rescaled_final/1932_rv.mp4	0.0	286.38768219947815	0.10004305839538574
61	264.67254519462585	fix_pre	0		120	59.0	2.5	/experiments/knapen_AOT/AOT_stimuli/rescaled_final/1009_rv.mp4	0.0	286.48772525787354	1.000108003616333
61	265.6726531982422	movie	1		243	59.0	2.5	/experiments/knapen_AOT/AOT_stimuli/rescaled_final/1009_rv.mp4	0.0	287.48783326148987	2.4920599460601807
61	266.06166219711304	pulse	1	t		59.0	2.5	/experiments/knapen_AOT/AOT_stimuli/rescaled_final/1009_rv.mp4	0.0	287.8768422603607	
61	267.6564869880676	pulse	1	t		59.0	2.5	/experiments/knapen_AOT/AOT_stimuli/rescaled_final/1009_rv.mp4	0.0	289.4716670513153	
61	268.16471314430237	fix_post	2		12	59.0	2.5	/experiments/knapen_AOT/AOT_stimuli/rescaled_final/1009_rv.mp4	0.0	289.97989320755005	0.10004091262817383
62	268.26475405693054	fix_pre	0		120	60.0	2.5	/experiments/knapen_AOT/AOT_stimuli/rescaled_final/1093_fw.mp4	0.0	290.0799341201782	1.000128984451294
62	269.25674200057983	pulse	0	t		60.0	2.5	/experiments/knapen_AOT/AOT_stimuli/rescaled_final/1093_fw.mp4	0.0	291.0719220638275	
62	269.26488304138184	movie	1		245	60.0	2.5	/experiments/knapen_AOT/AOT_stimuli/rescaled_final/1093_fw.mp4	0.0	291.0800631046295	2.5087039470672607
62	270.8578541278839	pulse	1	t		60.0	2.5	/experiments/knapen_AOT/AOT_stimuli/rescaled_final/1093_fw.mp4	0.0	292.6730341911316	
62	271.7735869884491	fix_post	2		12	60.0	2.5	/experiments/knapen_AOT/AOT_stimuli/rescaled_final/1093_fw.mp4	0.0	293.5887670516968	0.10000300407409668
63	271.8735899925232	fix_pre	0		120	61.0	2.5	blank	1.0	293.6887700557709	1.000204086303711
63	272.4571750164032	pulse	0	t		61.0	2.5	blank	1.0	294.2723550796509	
63	272.8737940788269	movie	1		297	61.0	2.5	blank	1.0	294.6889741420746	2.500354051589966
63	274.0574572086334	pulse	1	t		61.0	2.5	blank	1.0	295.8726372718811	
63	275.37414813041687	fix_post	2		12	61.0	2.5	blank	1.0	297.18932819366455	0.09996485710144043
64	275.4741129875183	fix_pre	0		120	62.0	2.5	/experiments/knapen_AOT/AOT_stimuli/rescaled_final/0888_fw.mp4	0.0	297.289293050766	1.0001702308654785
64	275.6576941013336	pulse	0	t		62.0	2.5	/experiments/knapen_AOT/AOT_stimuli/rescaled_final/0888_fw.mp4	0.0	297.4728741645813	
64	276.4742832183838	movie	1		243	62.0	2.5	/experiments/knapen_AOT/AOT_stimuli/rescaled_final/0888_fw.mp4	0.0	298.28946328163147	2.5003788471221924
64	277.25792503356934	pulse	1	t		62.0	2.5	/experiments/knapen_AOT/AOT_stimuli/rescaled_final/0888_fw.mp4	0.0	299.073105096817	
64	278.85831809043884	pulse	1	t		62.0	2.5	/experiments/knapen_AOT/AOT_stimuli/rescaled_final/0888_fw.mp4	0.0	300.6734981536865	
64	278.974662065506	fix_post	2		12	62.0	2.5	/experiments/knapen_AOT/AOT_stimuli/rescaled_final/0888_fw.mp4	0.0	300.78984212875366	0.10001611709594727
65	279.07467818260193	fix_pre	0		120	63.0	2.5	/experiments/knapen_AOT/AOT_stimuli/rescaled_final/1729_rv.mp4	0.0	300.8898582458496	1.0001559257507324
65	280.07483410835266	movie	1		243	63.0	2.5	/experiments/knapen_AOT/AOT_stimuli/rescaled_final/1729_rv.mp4	0.0	301.89001417160034	2.492042064666748
65	280.45900201797485	pulse	1	t		63.0	2.5	/experiments/knapen_AOT/AOT_stimuli/rescaled_final/1729_rv.mp4	0.0	302.27418208122253	
65	282.05869221687317	pulse	1	t		63.0	2.5	/experiments/knapen_AOT/AOT_stimuli/rescaled_final/1729_rv.mp4	0.0	303.87387228012085	
65	282.5668761730194	fix_post	2		12	63.0	2.5	/experiments/knapen_AOT/AOT_stimuli/rescaled_final/1729_rv.mp4	0.0	304.3820562362671	0.10005903244018555
66	282.6669352054596	fix_pre	0		120	64.0	2.5	/experiments/knapen_AOT/AOT_stimuli/rescaled_final/0107_rv.mp4	0.0	304.4821152687073	1.0000989437103271
66	283.65894198417664	pulse	0	t		64.0	2.5	/experiments/knapen_AOT/AOT_stimuli/rescaled_final/0107_rv.mp4	0.0	305.4741220474243	
66	283.6670341491699	movie	1		245	64.0	2.5	/experiments/knapen_AOT/AOT_stimuli/rescaled_final/0107_rv.mp4	0.0	305.4822142124176	2.508676052093506
66	285.2604560852051	pulse	1	t		64.0	2.5	/experiments/knapen_AOT/AOT_stimuli/rescaled_final/0107_rv.mp4	0.0	307.07563614845276	
66	286.1757102012634	fix_post	2		12	64.0	2.5	/experiments/knapen_AOT/AOT_stimuli/rescaled_final/0107_rv.mp4	0.0	307.9908902645111	0.1001279354095459
67	286.275838136673	fix_pre	0		120	65.0	2.5	/experiments/knapen_AOT/AOT_stimuli/rescaled_final/0385_fw.mp4	0.0	308.09101819992065	1.000046968460083
67	286.85931301116943	pulse	0	t		65.0	2.5	/experiments/knapen_AOT/AOT_stimuli/rescaled_final/0385_fw.mp4	0.0	308.6744930744171	
67	287.27588510513306	movie	1		245	65.0	2.5	/experiments/knapen_AOT/AOT_stimuli/rescaled_final/0385_fw.mp4	0.0	309.09106516838074	2.5003719329833984
67	288.4553370475769	pulse	1	t		65.0	2.5	/experiments/knapen_AOT/AOT_stimuli/rescaled_final/0385_fw.mp4	0.0	310.2705171108246	
67	289.77625703811646	fix_post	2		12	65.0	2.5	/experiments/knapen_AOT/AOT_stimuli/rescaled_final/0385_fw.mp4	0.0	311.59143710136414	0.10002517700195312
68	289.8762822151184	fix_pre	0		120	66.0	2.5	/experiments/knapen_AOT/AOT_stimuli/rescaled_final/0556_rv.mp4	0.0	311.6914622783661	1.0001609325408936
68	290.05243706703186	pulse	0	t		66.0	2.5	/experiments/knapen_AOT/AOT_stimuli/rescaled_final/0556_rv.mp4	0.0	311.86761713027954	
68	290.8764431476593	movie	1		244	66.0	2.5	/experiments/knapen_AOT/AOT_stimuli/rescaled_final/0556_rv.mp4	0.0	312.691623210907	2.50039005279541
68	291.65282106399536	pulse	1	t		66.0	2.5	/experiments/knapen_AOT/AOT_stimuli/rescaled_final/0556_rv.mp4	0.0	313.46800112724304	
68	293.2604651451111	pulse	1	t		66.0	2.5	/experiments/knapen_AOT/AOT_stimuli/rescaled_final/0556_rv.mp4	0.0	315.07564520835876	
68	293.3768332004547	fix_post	2		12	66.0	2.5	/experiments/knapen_AOT/AOT_stimuli/rescaled_final/0556_rv.mp4	0.0	315.1920132637024	0.10002994537353516
69	293.47686314582825	fix_pre	0		120	67.0	2.5	/experiments/knapen_AOT/AOT_stimuli/rescaled_final/1961_rv.mp4	0.0	315.2920432090759	1.0001869201660156
69	294.47705006599426	movie	1		243	67.0	2.5	/experiments/knapen_AOT/AOT_stimuli/rescaled_final/1961_rv.mp4	0.0	316.29223012924194	2.4919450283050537
69	294.8612542152405	pulse	1	t		67.0	2.5	/experiments/knapen_AOT/AOT_stimuli/rescaled_final/1961_rv.mp4	0.0	316.67643427848816	
69	296.45265007019043	pulse	1	t		67.0	2.5	/experiments/knapen_AOT/AOT_stimuli/rescaled_final/1961_rv.mp4	0.0	318.2678301334381	
69	296.9689950942993	fix_post	2		12	67.0	2.5	/experiments/knapen_AOT/AOT_stimuli/rescaled_final/1961_rv.mp4	0.0	318.784175157547	0.10000300407409668
70	297.0689980983734	fix_pre	0		119	68.0	2.5	/experiments/knapen_AOT/AOT_stimuli/rescaled_final/0024_rv.mp4	0.0	318.8841781616211	0.9918479919433594
70	298.0526421070099	pulse	0	t		68.0	2.5	/experiments/knapen_AOT/AOT_stimuli/rescaled_final/0024_rv.mp4	0.0	319.86782217025757	
70	298.0608460903168	movie	1		246	68.0	2.5	/experiments/knapen_AOT/AOT_stimuli/rescaled_final/0024_rv.mp4	0.0	319.87602615356445	2.5086910724639893
70	299.65353417396545	pulse	1	t		68.0	2.5	/experiments/knapen_AOT/AOT_stimuli/rescaled_final/0024_rv.mp4	0.0	321.46871423721313	
70	300.56953716278076	fix_post	2		12	68.0	2.5	/experiments/knapen_AOT/AOT_stimuli/rescaled_final/0024_rv.mp4	0.0	322.38471722602844	0.10002803802490234
71	300.66956520080566	fix_pre	0		120	69.0	2.5	blank	1.0	322.48474526405334	1.0001418590545654
71	301.25316619873047	pulse	0	t		69.0	2.5	blank	1.0	323.06834626197815	
71	301.66970705986023	movie	1		300	69.0	2.5	blank	1.0	323.4848871231079	2.5004029273986816
71	302.85335206985474	pulse	1	t		69.0	2.5	blank	1.0	324.6685321331024	
71	304.1701099872589	fix_post	2		12	69.0	2.5	blank	1.0	325.9852900505066	0.10000920295715332
72	304.27011919021606	fix_pre	0		120	70.0	2.5	/experiments/knapen_AOT/AOT_stimuli/rescaled_final/0916_rv.mp4	0.0	326.08529925346375	1.0001509189605713
72	304.45374608039856	pulse	0	t		70.0	2.5	/experiments/knapen_AOT/AOT_stimuli/rescaled_final/0916_rv.mp4	0.0	326.26892614364624	
72	305.27027010917664	movie	1		243	70.0	2.5	/experiments/knapen_AOT/AOT_stimuli/rescaled_final/0916_rv.mp4	0.0	327.0854501724243	2.500335931777954
72	306.0539200305939	pulse	1	t		70.0	2.5	/experiments/knapen_AOT/AOT_stimuli/rescaled_final/0916_rv.mp4	0.0	327.86910009384155	
72	307.65430998802185	pulse	1	t		70.0	2.5	/experiments/knapen_AOT/AOT_stimuli/rescaled_final/0916_rv.mp4	0.0	329.46949005126953	
72	307.7706060409546	fix_post	2		12	70.0	2.5	/experiments/knapen_AOT/AOT_stimuli/rescaled_final/0916_rv.mp4	0.0	329.58578610420227	0.09999299049377441
73	307.87059903144836	fix_pre	0		120	71.0	2.5	/experiments/knapen_AOT/AOT_stimuli/rescaled_final/1940_rv.mp4	0.0	329.68577909469604	1.0001699924468994
73	308.87076902389526	movie	1		243	71.0	2.5	/experiments/knapen_AOT/AOT_stimuli/rescaled_final/1940_rv.mp4	0.0	330.68594908714294	2.492093086242676
73	309.25502014160156	pulse	1	t		71.0	2.5	/experiments/knapen_AOT/AOT_stimuli/rescaled_final/1940_rv.mp4	0.0	331.07020020484924	
73	310.85474920272827	pulse	1	t		71.0	2.5	/experiments/knapen_AOT/AOT_stimuli/rescaled_final/1940_rv.mp4	0.0	332.66992926597595	
73	311.36286211013794	fix_post	2		12	71.0	2.5	/experiments/knapen_AOT/AOT_stimuli/rescaled_final/1940_rv.mp4	0.0	333.1780421733856	0.09997892379760742
74	311.46284103393555	fix_pre	0		120	72.0	2.5	/experiments/knapen_AOT/AOT_stimuli/rescaled_final/0683_rv.mp4	0.0	333.2780210971832	1.0001771450042725
74	312.4549992084503	pulse	0	t		72.0	2.5	/experiments/knapen_AOT/AOT_stimuli/rescaled_final/0683_rv.mp4	0.0	334.270179271698	
74	312.4630181789398	movie	1		244	72.0	2.5	/experiments/knapen_AOT/AOT_stimuli/rescaled_final/0683_rv.mp4	0.0	334.2781982421875	2.508673906326294
74	314.05567717552185	pulse	1	t		72.0	2.5	/experiments/knapen_AOT/AOT_stimuli/rescaled_final/0683_rv.mp4	0.0	335.87085723876953	
74	314.9716920852661	fix_post	2		12	72.0	2.5	/experiments/knapen_AOT/AOT_stimuli/rescaled_final/0683_rv.mp4	0.0	336.7868721485138	0.1000070571899414
75	315.07169914245605	fix_pre	0		120	73.0	2.5	/experiments/knapen_AOT/AOT_stimuli/rescaled_final/1169_fw.mp4	0.0	336.88687920570374	1.0001499652862549
75	315.65525007247925	pulse	0	t		73.0	2.5	/experiments/knapen_AOT/AOT_stimuli/rescaled_final/1169_fw.mp4	0.0	337.47043013572693	
75	316.0718491077423	movie	1		244	73.0	2.5	/experiments/knapen_AOT/AOT_stimuli/rescaled_final/1169_fw.mp4	0.0	337.88702917099	2.500359058380127
75	317.2556450366974	pulse	1	t		73.0	2.5	/experiments/knapen_AOT/AOT_stimuli/rescaled_final/1169_fw.mp4	0.0	339.07082509994507	
75	318.57220816612244	fix_post	2		12	73.0	2.5	/experiments/knapen_AOT/AOT_stimuli/rescaled_final/1169_fw.mp4	0.0	340.3873882293701	0.10002493858337402
76	318.6722331047058	fix_pre	0		120	74.0	2.5	/experiments/knapen_AOT/AOT_stimuli/rescaled_final/1449_rv.mp4	0.0	340.4874131679535	1.0001840591430664
76	318.85591316223145	pulse	0	t		74.0	2.5	/experiments/knapen_AOT/AOT_stimuli/rescaled_final/1449_rv.mp4	0.0	340.6710932254791	
76	319.6724171638489	movie	1		245	74.0	2.5	/experiments/knapen_AOT/AOT_stimuli/rescaled_final/1449_rv.mp4	0.0	341.48759722709656	2.50034499168396
76	320.4560341835022	pulse	1	t		74.0	2.5	/experiments/knapen_AOT/AOT_stimuli/rescaled_final/1449_rv.mp4	0.0	342.2712142467499	
76	322.05633521080017	pulse	1	t		74.0	2.5	/experiments/knapen_AOT/AOT_stimuli/rescaled_final/1449_rv.mp4	0.0	343.87151527404785	
76	322.17276215553284	fix_post	2		12	74.0	2.5	/experiments/knapen_AOT/AOT_stimuli/rescaled_final/1449_rv.mp4	0.0	343.9879422187805	0.1000218391418457
77	322.2727839946747	fix_pre	0		120	75.0	2.5	blank	1.0	344.08796405792236	1.0001411437988281
77	323.2729251384735	movie	1		299	75.0	2.5	blank	1.0	345.0881052017212	2.4920690059661865
77	323.656494140625	pulse	1	t		75.0	2.5	blank	1.0	345.4716742038727	
77	325.2567400932312	pulse	1	t		75.0	2.5	blank	1.0	347.0719201564789	
77	325.7649941444397	fix_post	2		12	75.0	2.5	blank	1.0	347.5801742076874	0.0999908447265625
78	325.86498498916626	fix_pre	0		120	76.0	2.5	/experiments/knapen_AOT/AOT_stimuli/rescaled_final/0335_rv.mp4	0.0	347.68016505241394	1.0001420974731445
78	326.8570442199707	pulse	0	t		76.0	2.5	/experiments/knapen_AOT/AOT_stimuli/rescaled_final/0335_rv.mp4	0.0	348.6722242832184	
78	326.8651270866394	movie	1		245	76.0	2.5	/experiments/knapen_AOT/AOT_stimuli/rescaled_final/0335_rv.mp4	0.0	348.6803071498871	2.508671998977661
78	328.4579131603241	pulse	1	t		76.0	2.5	/experiments/knapen_AOT/AOT_stimuli/rescaled_final/0335_rv.mp4	0.0	350.2730932235718	
78	329.37379908561707	fix_post	2		12	76.0	2.5	/experiments/knapen_AOT/AOT_stimuli/rescaled_final/0335_rv.mp4	0.0	351.18897914886475	0.10005807876586914
79	329.47385716438293	fix_pre	0		120	77.0	2.5	/experiments/knapen_AOT/AOT_stimuli/rescaled_final/0261_fw.mp4	0.0	351.2890372276306	1.000152826309204
79	330.0575702190399	pulse	0	t		77.0	2.5	/experiments/knapen_AOT/AOT_stimuli/rescaled_final/0261_fw.mp4	0.0	351.8727502822876	
79	330.47400999069214	movie	1		246	77.0	2.5	/experiments/knapen_AOT/AOT_stimuli/rescaled_final/0261_fw.mp4	0.0	352.2891900539398	2.5003490447998047
79	331.6577801704407	pulse	1	t		77.0	2.5	/experiments/knapen_AOT/AOT_stimuli/rescaled_final/0261_fw.mp4	0.0	353.47296023368835	
79	332.97435903549194	fix_post	2		12	77.0	2.5	/experiments/knapen_AOT/AOT_stimuli/rescaled_final/0261_fw.mp4	0.0	354.7895390987396	0.10006999969482422
80	333.07442903518677	fix_pre	0		120	78.0	2.5	/experiments/knapen_AOT/AOT_stimuli/rescaled_final/1958_fw.mp4	0.0	354.88960909843445	1.0001490116119385
80	333.258061170578	pulse	0	t		78.0	2.5	/experiments/knapen_AOT/AOT_stimuli/rescaled_final/1958_fw.mp4	0.0	355.0732412338257	
80	334.0745780467987	movie	1		244	78.0	2.5	/experiments/knapen_AOT/AOT_stimuli/rescaled_final/1958_fw.mp4	0.0	355.8897581100464	2.512416124343872
80	334.85824513435364	pulse	1	t		78.0	2.5	/experiments/knapen_AOT/AOT_stimuli/rescaled_final/1958_fw.mp4	0.0	356.6734251976013	
80	336.4605481624603	pulse	1	t		78.0	2.5	/experiments/knapen_AOT/AOT_stimuli/rescaled_final/1958_fw.mp4	0.0	358.275728225708	
80	336.5869941711426	fix_post	2		8	78.0	2.5	/experiments/knapen_AOT/AOT_stimuli/rescaled_final/1958_fw.mp4	0.0	358.40217423439026	0.08792686462402344
81	336.6749210357666	fix_pre	0		120	79.0	2.5	/experiments/knapen_AOT/AOT_stimuli/rescaled_final/1876_rv.mp4	0.0	358.4901010990143	1.0001399517059326
81	337.67506098747253	movie	1		244	79.0	2.5	/experiments/knapen_AOT/AOT_stimuli/rescaled_final/1876_rv.mp4	0.0	359.4902410507202	2.492023229598999
81	338.06324219703674	pulse	1	t		79.0	2.5	/experiments/knapen_AOT/AOT_stimuli/rescaled_final/1876_rv.mp4	0.0	359.8784222602844	
81	339.65893602371216	pulse	1	t		79.0	2.5	/experiments/knapen_AOT/AOT_stimuli/rescaled_final/1876_rv.mp4	0.0	361.47411608695984	
81	340.16708421707153	fix_post	2		12	79.0	2.5	/experiments/knapen_AOT/AOT_stimuli/rescaled_final/1876_rv.mp4	0.0	361.9822642803192	0.10005378723144531
82	340.267138004303	fix_pre	0		120	80.0	2.5	/experiments/knapen_AOT/AOT_stimuli/rescaled_final/0535_fw.mp4	0.0	362.08231806755066	1.0001721382141113
82	341.259152173996	pulse	0	t		80.0	2.5	/experiments/knapen_AOT/AOT_stimuli/rescaled_final/0535_fw.mp4	0.0	363.07433223724365	
82	341.2673101425171	movie	1		245	80.0	2.5	/experiments/knapen_AOT/AOT_stimuli/rescaled_final/0535_fw.mp4	0.0	363.08249020576477	2.5087058544158936
82	342.85999608039856	pulse	1	t		80.0	2.5	/experiments/knapen_AOT/AOT_stimuli/rescaled_final/0535_fw.mp4	0.0	364.67517614364624	
82	343.776015996933	fix_post	2		12	80.0	2.5	/experiments/knapen_AOT/AOT_stimuli/rescaled_final/0535_fw.mp4	0.0	365.59119606018066	0.09999299049377441
83	343.87600898742676	fix_pre	0		120	81.0	2.5	/experiments/knapen_AOT/AOT_stimuli/rescaled_final/0805_rv.mp4	0.0	365.69118905067444	1.0001389980316162
83	344.4596412181854	pulse	0	t		81.0	2.5	/experiments/knapen_AOT/AOT_stimuli/rescaled_final/0805_rv.mp4	0.0	366.2748212814331	
83	344.8761479854584	movie	1		245	81.0	2.5	/experiments/knapen_AOT/AOT_stimuli/rescaled_final/0805_rv.mp4	0.0	366.69132804870605	2.500369071960449
83	346.0599341392517	pulse	1	t		81.0	2.5	/experiments/knapen_AOT/AOT_stimuli/rescaled_final/0805_rv.mp4	0.0	367.8751142024994	
83	347.3765170574188	fix_post	2		12	81.0	2.5	/experiments/knapen_AOT/AOT_stimuli/rescaled_final/0805_rv.mp4	0.0	369.1916971206665	0.10000801086425781
84	347.4765250682831	fix_pre	0		120	82.0	2.5	/experiments/knapen_AOT/AOT_stimuli/rescaled_final/2052_rv.mp4	0.0	369.29170513153076	1.000157117843628
84	347.6601710319519	pulse	0	t		82.0	2.5	/experiments/knapen_AOT/AOT_stimuli/rescaled_final/2052_rv.mp4	0.0	369.4753510951996	
84	348.4766821861267	movie	1		244	82.0	2.5	/experiments/knapen_AOT/AOT_stimuli/rescaled_final/2052_rv.mp4	0.0	370.2918622493744	2.5004119873046875
84	349.2602701187134	pulse	1	t		82.0	2.5	/experiments/knapen_AOT/AOT_stimuli/rescaled_final/2052_rv.mp4	0.0	371.07545018196106	
84	350.8627071380615	pulse	1	t		82.0	2.5	/experiments/knapen_AOT/AOT_stimuli/rescaled_final/2052_rv.mp4	0.0	372.6778872013092	
84	350.9770941734314	fix_post	2		12	82.0	2.5	/experiments/knapen_AOT/AOT_stimuli/rescaled_final/2052_rv.mp4	0.0	372.7922742366791	0.09996891021728516
85	351.0770630836487	fix_pre	0		120	83.0	2.5	blank	1.0	372.89224314689636	1.0001800060272217
85	352.0772430896759	movie	1		299	83.0	2.5	blank	1.0	373.8924231529236	2.492013931274414
85	352.453250169754	pulse	1	t		83.0	2.5	blank	1.0	374.2684302330017	
85	354.05357098579407	pulse	1	t		83.0	2.5	blank	1.0	375.86875104904175	
85	354.5692570209503	fix_post	2		12	83.0	2.5	blank	1.0	376.384437084198	0.10002708435058594
87	354.6692841053009	stim	0		1716					376.4844641685486	14.302215099334717
87	355.6539611816406	pulse	0	t						377.4691412448883	
87	357.2533030509949	pulse	0	t						379.06848311424255	
87	358.853394985199	pulse	0	t						380.66857504844666	
87	360.45364809036255	pulse	0	t						382.26882815361023	
87	362.0538911819458	pulse	0	t						383.8690712451935	
87	363.6540541648865	pulse	0	t						385.46923422813416	
87	365.25429105758667	pulse	0	t						387.06947112083435	
87	366.85456109046936	pulse	0	t						388.66974115371704	
87	368.45483016967773	pulse	0	t						390.2700102329254	
