trial_nr	onset	event_type	phase	response	nr_frames	movie_index	movie_duration	movie_file	blank	onset_abs	duration
0	0.15822887420654297	stim	0		94					21.4058837890625	0.783865213394165
0	0.9336810111999512	response	0	space						22.181335926055908	
1	0.942094087600708	stim	0		9916					22.189749002456665	82.63191080093384
1	83.56816101074219	pulse	0	t						104.81581592559814	
1	83.57400488853455	stim	1		1717					104.8216598033905	14.309201002120972
1	85.16636490821838	pulse	1	t						106.41401982307434	
1	86.76672005653381	pulse	1	t						108.01437497138977	
1	88.36668109893799	pulse	1	t						109.61433601379395	
1	89.96632695198059	pulse	1	t						111.21398186683655	
1	91.56690502166748	pulse	1	t						112.81455993652344	
1	93.16674399375916	pulse	1	t						114.41439890861511	
1	94.76669502258301	pulse	1	t						116.01434993743896	
1	96.36664295196533	pulse	1	t						117.61429786682129	
2	97.88320589065552	fix_pre	0		11	0.0	2.5	/experiments/AOT/AOT_stimuli/rescaled_final/0094_fw.mp4	0.0	119.13086080551147	0.09122419357299805
2	97.9662618637085	pulse	0	t		0.0	2.5	/experiments/AOT/AOT_stimuli/rescaled_final/0094_fw.mp4	0.0	119.21391677856445	
2	97.97443008422852	movie	1		241	0.0	2.5	/experiments/AOT/AOT_stimuli/rescaled_final/0094_fw.mp4	0.0	119.22208499908447	2.50875186920166
2	99.5658769607544	pulse	1	t		0.0	2.5	/experiments/AOT/AOT_stimuli/rescaled_final/0094_fw.mp4	0.0	120.81353187561035	
2	100.48318195343018	fix_post	2		12	0.0	2.5	/experiments/AOT/AOT_stimuli/rescaled_final/0094_fw.mp4	0.0	121.73083686828613	0.09961414337158203
3	100.58279609680176	fix_pre	0		120	1.0	2.5	/experiments/AOT/AOT_stimuli/rescaled_final/1372_rv.mp4	0.0	121.83045101165771	1.0003697872161865
3	101.16633296012878	pulse	0	t		1.0	2.5	/experiments/AOT/AOT_stimuli/rescaled_final/1372_rv.mp4	0.0	122.41398787498474	
3	101.58316588401794	movie	1		242	1.0	2.5	/experiments/AOT/AOT_stimuli/rescaled_final/1372_rv.mp4	0.0	122.8308207988739	2.499547004699707
3	102.7663300037384	pulse	1	t		1.0	2.5	/experiments/AOT/AOT_stimuli/rescaled_final/1372_rv.mp4	0.0	124.01398491859436	
3	104.08271288871765	fix_post	2		12	1.0	2.5	/experiments/AOT/AOT_stimuli/rescaled_final/1372_rv.mp4	0.0	125.33036780357361	0.10048317909240723
4	104.18319606781006	fix_pre	0		120	2.0	2.5	/experiments/AOT/AOT_stimuli/rescaled_final/0438_fw.mp4	0.0	125.43085098266602	0.999957799911499
4	104.36630702018738	pulse	0	t		2.0	2.5	/experiments/AOT/AOT_stimuli/rescaled_final/0438_fw.mp4	0.0	125.61396193504333	
4	105.18315386772156	movie	1		243	2.0	2.5	/experiments/AOT/AOT_stimuli/rescaled_final/0438_fw.mp4	0.0	126.43080878257751	2.4996681213378906
4	105.96617197990417	pulse	1	t		2.0	2.5	/experiments/AOT/AOT_stimuli/rescaled_final/0438_fw.mp4	0.0	127.21382689476013	
4	107.56536293029785	pulse	1	t		2.0	2.5	/experiments/AOT/AOT_stimuli/rescaled_final/0438_fw.mp4	0.0	128.8130178451538	
4	107.68282198905945	fix_post	2		12	2.0	2.5	/experiments/AOT/AOT_stimuli/rescaled_final/0438_fw.mp4	0.0	128.9304769039154	0.10028910636901855
5	107.78311109542847	fix_pre	0		120	3.0	2.5	/experiments/AOT/AOT_stimuli/rescaled_final/2034_fw.mp4	0.0	129.03076601028442	0.9996747970581055
5	108.78278589248657	movie	1		244	3.0	2.5	/experiments/AOT/AOT_stimuli/rescaled_final/2034_fw.mp4	0.0	130.03044080734253	2.4999051094055176
5	109.16638493537903	pulse	1	t		3.0	2.5	/experiments/AOT/AOT_stimuli/rescaled_final/2034_fw.mp4	0.0	130.41403985023499	
5	110.76623296737671	pulse	1	t		3.0	2.5	/experiments/AOT/AOT_stimuli/rescaled_final/2034_fw.mp4	0.0	132.01388788223267	
5	111.28269100189209	fix_post	2		12	3.0	2.5	/experiments/AOT/AOT_stimuli/rescaled_final/2034_fw.mp4	0.0	132.53034591674805	0.10007786750793457
6	111.38276886940002	fix_pre	0		119	4.0	2.5	/experiments/AOT/AOT_stimuli/rescaled_final/1934_fw.mp4	0.0	132.63042378425598	0.9910781383514404
6	112.36626887321472	pulse	0	t		4.0	2.5	/experiments/AOT/AOT_stimuli/rescaled_final/1934_fw.mp4	0.0	133.61392378807068	
6	112.37384700775146	movie	1		242	4.0	2.5	/experiments/AOT/AOT_stimuli/rescaled_final/1934_fw.mp4	0.0	133.62150192260742	2.5089058876037598
6	113.96710395812988	pulse	1	t		4.0	2.5	/experiments/AOT/AOT_stimuli/rescaled_final/1934_fw.mp4	0.0	135.21475887298584	
6	114.88275289535522	fix_post	2		12	4.0	2.5	/experiments/AOT/AOT_stimuli/rescaled_final/1934_fw.mp4	0.0	136.13040781021118	0.0999150276184082
7	114.98266792297363	fix_pre	0		120	5.0	2.5	/experiments/AOT/AOT_stimuli/rescaled_final/1973_fw.mp4	0.0	136.2303228378296	1.0004839897155762
7	115.56662797927856	pulse	0	t		5.0	2.5	/experiments/AOT/AOT_stimuli/rescaled_final/1973_fw.mp4	0.0	136.81428289413452	
7	115.98315191268921	movie	1		244	5.0	2.5	/experiments/AOT/AOT_stimuli/rescaled_final/1973_fw.mp4	0.0	137.23080682754517	2.4995410442352295
7	117.16667890548706	pulse	1	t		5.0	2.5	/experiments/AOT/AOT_stimuli/rescaled_final/1973_fw.mp4	0.0	138.41433382034302	
7	118.48269295692444	fix_post	2		12	5.0	2.5	/experiments/AOT/AOT_stimuli/rescaled_final/1973_fw.mp4	0.0	139.7303478717804	0.10044312477111816
8	118.58313608169556	fix_pre	0		120	6.0	2.5	/experiments/AOT/AOT_stimuli/rescaled_final/0549_fw.mp4	0.0	139.8307909965515	0.9999418258666992
8	118.76664304733276	pulse	0	t		6.0	2.5	/experiments/AOT/AOT_stimuli/rescaled_final/0549_fw.mp4	0.0	140.01429796218872	
8	119.58307790756226	movie	1		242	6.0	2.5	/experiments/AOT/AOT_stimuli/rescaled_final/0549_fw.mp4	0.0	140.8307328224182	2.4995710849761963
8	120.36661887168884	pulse	1	t		6.0	2.5	/experiments/AOT/AOT_stimuli/rescaled_final/0549_fw.mp4	0.0	141.6142737865448	
8	121.96494889259338	pulse	1	t		6.0	2.5	/experiments/AOT/AOT_stimuli/rescaled_final/0549_fw.mp4	0.0	143.21260380744934	
8	122.08264899253845	fix_post	2		12	6.0	2.5	/experiments/AOT/AOT_stimuli/rescaled_final/0549_fw.mp4	0.0	143.3303039073944	0.09999799728393555
9	122.18264698982239	fix_pre	0		120	7.0	2.5	blank	1.0	143.43030190467834	1.0003890991210938
9	123.18303608894348	movie	1		300	7.0	2.5	blank	1.0	144.43069100379944	2.5000557899475098
9	123.56612300872803	pulse	1	t		7.0	2.5	blank	1.0	144.81377792358398	
9	125.16656804084778	pulse	1	t		7.0	2.5	blank	1.0	146.41422295570374	
9	125.68309187889099	fix_post	2		12	7.0	2.5	blank	1.0	146.93074679374695	0.10004615783691406
10	125.7831380367279	fix_pre	0		119	8.0	2.5	/experiments/AOT/AOT_stimuli/rescaled_final/1620_fw.mp4	0.0	147.03079295158386	0.9912428855895996
10	126.7661600112915	pulse	0	t		8.0	2.5	/experiments/AOT/AOT_stimuli/rescaled_final/1620_fw.mp4	0.0	148.01381492614746	
10	126.7743809223175	movie	1		243	8.0	2.5	/experiments/AOT/AOT_stimuli/rescaled_final/1620_fw.mp4	0.0	148.02203583717346	2.50822114944458
10	128.36605596542358	pulse	1	t		8.0	2.5	/experiments/AOT/AOT_stimuli/rescaled_final/1620_fw.mp4	0.0	149.61371088027954	
10	129.28260207176208	fix_post	2		12	8.0	2.5	/experiments/AOT/AOT_stimuli/rescaled_final/1620_fw.mp4	0.0	150.53025698661804	0.1002039909362793
11	129.38280606269836	fix_pre	0		120	9.0	2.5	/experiments/AOT/AOT_stimuli/rescaled_final/0289_fw.mp4	0.0	150.63046097755432	1.000255823135376
11	129.9666109085083	pulse	0	t		9.0	2.5	/experiments/AOT/AOT_stimuli/rescaled_final/0289_fw.mp4	0.0	151.21426582336426	
11	130.38306188583374	movie	1		244	9.0	2.5	/experiments/AOT/AOT_stimuli/rescaled_final/0289_fw.mp4	0.0	151.6307168006897	2.499634027481079
11	131.56653904914856	pulse	1	t		9.0	2.5	/experiments/AOT/AOT_stimuli/rescaled_final/0289_fw.mp4	0.0	152.81419396400452	
11	132.88269591331482	fix_post	2		12	9.0	2.5	/experiments/AOT/AOT_stimuli/rescaled_final/0289_fw.mp4	0.0	154.13035082817078	0.10037803649902344
12	132.98307394981384	fix_pre	0		120	10.0	2.5	/experiments/AOT/AOT_stimuli/rescaled_final/0454_fw.mp4	0.0	154.2307288646698	1.0000660419464111
12	133.166100025177	pulse	0	t		10.0	2.5	/experiments/AOT/AOT_stimuli/rescaled_final/0454_fw.mp4	0.0	154.41375494003296	
12	133.98313999176025	movie	1		243	10.0	2.5	/experiments/AOT/AOT_stimuli/rescaled_final/0454_fw.mp4	0.0	155.2307949066162	2.4994890689849854
12	134.76669692993164	pulse	1	t		10.0	2.5	/experiments/AOT/AOT_stimuli/rescaled_final/0454_fw.mp4	0.0	156.0143518447876	
12	136.3654670715332	pulse	1	t		10.0	2.5	/experiments/AOT/AOT_stimuli/rescaled_final/0454_fw.mp4	0.0	157.61312198638916	
12	136.48262906074524	fix_post	2		12	10.0	2.5	/experiments/AOT/AOT_stimuli/rescaled_final/0454_fw.mp4	0.0	157.7302839756012	0.1000068187713623
13	136.5826358795166	fix_pre	0		120	11.0	2.5	/experiments/AOT/AOT_stimuli/rescaled_final/0585_fw.mp4	0.0	157.83029079437256	1.0004730224609375
13	137.58310890197754	movie	1		244	11.0	2.5	/experiments/AOT/AOT_stimuli/rescaled_final/0585_fw.mp4	0.0	158.8307638168335	2.4994301795959473
13	137.96748208999634	pulse	1	t		11.0	2.5	/experiments/AOT/AOT_stimuli/rescaled_final/0585_fw.mp4	0.0	159.2151370048523	
13	139.56617403030396	pulse	1	t		11.0	2.5	/experiments/AOT/AOT_stimuli/rescaled_final/0585_fw.mp4	0.0	160.8138289451599	
13	140.0825390815735	fix_post	2		12	11.0	2.5	/experiments/AOT/AOT_stimuli/rescaled_final/0585_fw.mp4	0.0	161.33019399642944	0.10008692741394043
14	140.18262600898743	fix_pre	0		119	12.0	2.5	/experiments/AOT/AOT_stimuli/rescaled_final/0049_fw.mp4	0.0	161.43028092384338	0.9919850826263428
14	141.16648888587952	pulse	0	t		12.0	2.5	/experiments/AOT/AOT_stimuli/rescaled_final/0049_fw.mp4	0.0	162.41414380073547	
14	141.17461109161377	movie	1		243	12.0	2.5	/experiments/AOT/AOT_stimuli/rescaled_final/0049_fw.mp4	0.0	162.42226600646973	2.508415937423706
14	142.7657310962677	pulse	1	t		12.0	2.5	/experiments/AOT/AOT_stimuli/rescaled_final/0049_fw.mp4	0.0	164.01338601112366	
14	143.68302702903748	fix_post	2		12	12.0	2.5	/experiments/AOT/AOT_stimuli/rescaled_final/0049_fw.mp4	0.0	164.93068194389343	0.09952783584594727
15	143.78255486488342	fix_pre	0		120	13.0	2.5	blank	1.0	165.03020977973938	1.0000061988830566
15	144.36645889282227	pulse	0	t		13.0	2.5	blank	1.0	165.61411380767822	
15	144.78256106376648	movie	1		300	13.0	2.5	blank	1.0	166.03021597862244	2.5004138946533203
15	145.9660608768463	pulse	1	t		13.0	2.5	blank	1.0	167.21371579170227	
15	147.2829749584198	fix_post	2		12	13.0	2.5	blank	1.0	168.53062987327576	0.10010004043579102
16	147.3830749988556	fix_pre	0		120	14.0	2.5	/experiments/AOT/AOT_stimuli/rescaled_final/1707_rv.mp4	0.0	168.63072991371155	0.9994029998779297
16	147.56644487380981	pulse	0	t		14.0	2.5	/experiments/AOT/AOT_stimuli/rescaled_final/1707_rv.mp4	0.0	168.81409978866577	
16	148.38247799873352	movie	1		242	14.0	2.5	/experiments/AOT/AOT_stimuli/rescaled_final/1707_rv.mp4	0.0	169.63013291358948	2.500030994415283
16	149.16641902923584	pulse	1	t		14.0	2.5	/experiments/AOT/AOT_stimuli/rescaled_final/1707_rv.mp4	0.0	170.4140739440918	
16	150.76437091827393	pulse	1	t		14.0	2.5	/experiments/AOT/AOT_stimuli/rescaled_final/1707_rv.mp4	0.0	172.01202583312988	
16	150.8825089931488	fix_post	2		12	14.0	2.5	/experiments/AOT/AOT_stimuli/rescaled_final/1707_rv.mp4	0.0	172.13016390800476	0.10000896453857422
17	150.98251795768738	fix_pre	0		120	15.0	2.5	/experiments/AOT/AOT_stimuli/rescaled_final/0755_fw.mp4	0.0	172.23017287254333	1.000493049621582
17	151.98301100730896	movie	1		244	15.0	2.5	/experiments/AOT/AOT_stimuli/rescaled_final/0755_fw.mp4	0.0	173.23066592216492	2.4995269775390625
17	152.3662040233612	pulse	1	t		15.0	2.5	/experiments/AOT/AOT_stimuli/rescaled_final/0755_fw.mp4	0.0	173.61385893821716	
17	153.9660758972168	pulse	1	t		15.0	2.5	/experiments/AOT/AOT_stimuli/rescaled_final/0755_fw.mp4	0.0	175.21373081207275	
17	154.48253798484802	fix_post	2		12	15.0	2.5	/experiments/AOT/AOT_stimuli/rescaled_final/0755_fw.mp4	0.0	175.73019289970398	0.10036492347717285
18	154.5829029083252	fix_pre	0		119	16.0	2.5	/experiments/AOT/AOT_stimuli/rescaled_final/0438_rv.mp4	0.0	175.83055782318115	0.9912021160125732
18	155.56640100479126	pulse	0	t		16.0	2.5	/experiments/AOT/AOT_stimuli/rescaled_final/0438_rv.mp4	0.0	176.81405591964722	
18	155.57410502433777	movie	1		245	16.0	2.5	/experiments/AOT/AOT_stimuli/rescaled_final/0438_rv.mp4	0.0	176.82175993919373	2.508875846862793
18	157.16628694534302	pulse	1	t		16.0	2.5	/experiments/AOT/AOT_stimuli/rescaled_final/0438_rv.mp4	0.0	178.41394186019897	
18	158.08298087120056	fix_post	2		12	16.0	2.5	/experiments/AOT/AOT_stimuli/rescaled_final/0438_rv.mp4	0.0	179.33063578605652	0.0994560718536377
19	158.1824369430542	fix_pre	0		120	17.0	2.5	/experiments/AOT/AOT_stimuli/rescaled_final/1543_rv.mp4	0.0	179.43009185791016	0.9999780654907227
19	158.7663049697876	pulse	0	t		17.0	2.5	/experiments/AOT/AOT_stimuli/rescaled_final/1543_rv.mp4	0.0	180.01395988464355	
19	159.18241500854492	movie	1		243	17.0	2.5	/experiments/AOT/AOT_stimuli/rescaled_final/1543_rv.mp4	0.0	180.43006992340088	2.500422954559326
19	160.36505007743835	pulse	1	t		17.0	2.5	/experiments/AOT/AOT_stimuli/rescaled_final/1543_rv.mp4	0.0	181.6127049922943	
19	161.68283796310425	fix_post	2		12	17.0	2.5	/experiments/AOT/AOT_stimuli/rescaled_final/1543_rv.mp4	0.0	182.9304928779602	0.10009098052978516
20	161.78292894363403	fix_pre	0		120	18.0	2.5	/experiments/AOT/AOT_stimuli/rescaled_final/0082_rv.mp4	0.0	183.03058385849	1.0001749992370605
20	161.9650640487671	pulse	0	t		18.0	2.5	/experiments/AOT/AOT_stimuli/rescaled_final/0082_rv.mp4	0.0	183.21271896362305	
20	162.7831039428711	movie	1		242	18.0	2.5	/experiments/AOT/AOT_stimuli/rescaled_final/0082_rv.mp4	0.0	184.03075885772705	2.4989089965820312
20	163.5650770664215	pulse	1	t		18.0	2.5	/experiments/AOT/AOT_stimuli/rescaled_final/0082_rv.mp4	0.0	184.81273198127747	
20	165.16534209251404	pulse	1	t		18.0	2.5	/experiments/AOT/AOT_stimuli/rescaled_final/0082_rv.mp4	0.0	186.41299700737	
20	165.28201293945312	fix_post	2		12	18.0	2.5	/experiments/AOT/AOT_stimuli/rescaled_final/0082_rv.mp4	0.0	186.52966785430908	0.09952712059020996
21	165.38154006004333	fix_pre	0		120	19.0	2.5	blank	1.0	186.6291949748993	1.000417947769165
21	166.3819580078125	movie	1		300	19.0	2.5	blank	1.0	187.62961292266846	2.499645948410034
21	166.76503801345825	pulse	1	t		19.0	2.5	blank	1.0	188.0126929283142	
21	168.3650209903717	pulse	1	t		19.0	2.5	blank	1.0	189.61267590522766	
21	168.88160395622253	fix_post	2		12	19.0	2.5	blank	1.0	190.1292588710785	0.10026812553405762
22	168.9818720817566	fix_pre	0		119	20.0	2.5	/experiments/AOT/AOT_stimuli/rescaled_final/0225_fw.mp4	0.0	190.22952699661255	0.9917819499969482
22	169.96541595458984	pulse	0	t		20.0	2.5	/experiments/AOT/AOT_stimuli/rescaled_final/0225_fw.mp4	0.0	191.2130708694458	
22	169.97365403175354	movie	1		243	20.0	2.5	/experiments/AOT/AOT_stimuli/rescaled_final/0225_fw.mp4	0.0	191.2213089466095	2.50787091255188
22	171.56532096862793	pulse	1	t		20.0	2.5	/experiments/AOT/AOT_stimuli/rescaled_final/0225_fw.mp4	0.0	192.8129758834839	
22	172.48152494430542	fix_post	2		12	20.0	2.5	/experiments/AOT/AOT_stimuli/rescaled_final/0225_fw.mp4	0.0	193.72917985916138	0.10048508644104004
23	172.58201003074646	fix_pre	0		120	21.0	2.5	/experiments/AOT/AOT_stimuli/rescaled_final/0465_rv.mp4	0.0	193.82966494560242	0.9996509552001953
23	173.16541504859924	pulse	0	t		21.0	2.5	/experiments/AOT/AOT_stimuli/rescaled_final/0465_rv.mp4	0.0	194.4130699634552	
23	173.58166098594666	movie	1		243	21.0	2.5	/experiments/AOT/AOT_stimuli/rescaled_final/0465_rv.mp4	0.0	194.8293159008026	2.49938702583313
23	174.76452803611755	pulse	1	t		21.0	2.5	/experiments/AOT/AOT_stimuli/rescaled_final/0465_rv.mp4	0.0	196.0121829509735	
23	176.08104801177979	fix_post	2		12	21.0	2.5	/experiments/AOT/AOT_stimuli/rescaled_final/0465_rv.mp4	0.0	197.32870292663574	0.1004018783569336
24	176.18144989013672	fix_pre	0		120	22.0	2.5	/experiments/AOT/AOT_stimuli/rescaled_final/1960_fw.mp4	0.0	197.42910480499268	1.0000271797180176
24	176.36537194252014	pulse	0	t		22.0	2.5	/experiments/AOT/AOT_stimuli/rescaled_final/1960_fw.mp4	0.0	197.6130268573761	
24	177.18147706985474	movie	1		243	22.0	2.5	/experiments/AOT/AOT_stimuli/rescaled_final/1960_fw.mp4	0.0	198.4291319847107	2.499979019165039
24	177.9644570350647	pulse	1	t		22.0	2.5	/experiments/AOT/AOT_stimuli/rescaled_final/1960_fw.mp4	0.0	199.21211194992065	
24	179.56375098228455	pulse	1	t		22.0	2.5	/experiments/AOT/AOT_stimuli/rescaled_final/1960_fw.mp4	0.0	200.8114058971405	
24	179.68145608901978	fix_post	2		12	22.0	2.5	/experiments/AOT/AOT_stimuli/rescaled_final/1960_fw.mp4	0.0	200.92911100387573	0.10007596015930176
25	179.78153204917908	fix_pre	0		120	23.0	2.5	/experiments/AOT/AOT_stimuli/rescaled_final/1880_rv.mp4	0.0	201.02918696403503	0.9999289512634277
25	180.7814610004425	movie	1		244	23.0	2.5	/experiments/AOT/AOT_stimuli/rescaled_final/1880_rv.mp4	0.0	202.02911591529846	2.4994890689849854
25	181.16414999961853	pulse	1	t		23.0	2.5	/experiments/AOT/AOT_stimuli/rescaled_final/1880_rv.mp4	0.0	202.4118049144745	
25	182.76445388793945	pulse	1	t		23.0	2.5	/experiments/AOT/AOT_stimuli/rescaled_final/1880_rv.mp4	0.0	204.0121088027954	
25	183.2809500694275	fix_post	2		12	23.0	2.5	/experiments/AOT/AOT_stimuli/rescaled_final/1880_rv.mp4	0.0	204.52860498428345	0.1000509262084961
26	183.381000995636	fix_pre	0		119	24.0	2.5	/experiments/AOT/AOT_stimuli/rescaled_final/1834_rv.mp4	0.0	204.62865591049194	0.9921109676361084
26	184.3644618988037	pulse	0	t		24.0	2.5	/experiments/AOT/AOT_stimuli/rescaled_final/1834_rv.mp4	0.0	205.61211681365967	
26	184.3731119632721	movie	1		243	24.0	2.5	/experiments/AOT/AOT_stimuli/rescaled_final/1834_rv.mp4	0.0	205.62076687812805	2.5087859630584717
26	185.96500301361084	pulse	1	t		24.0	2.5	/experiments/AOT/AOT_stimuli/rescaled_final/1834_rv.mp4	0.0	207.2126579284668	
26	186.88189792633057	fix_post	2		12	24.0	2.5	/experiments/AOT/AOT_stimuli/rescaled_final/1834_rv.mp4	0.0	208.12955284118652	0.09989404678344727
27	186.981791973114	fix_pre	0		120	25.0	2.5	/experiments/AOT/AOT_stimuli/rescaled_final/1880_fw.mp4	0.0	208.22944688796997	0.999269962310791
27	187.5652940273285	pulse	0	t		25.0	2.5	/experiments/AOT/AOT_stimuli/rescaled_final/1880_fw.mp4	0.0	208.81294894218445	
27	187.9810619354248	movie	1		246	25.0	2.5	/experiments/AOT/AOT_stimuli/rescaled_final/1880_fw.mp4	0.0	209.22871685028076	2.5002260208129883
27	189.16461086273193	pulse	1	t		25.0	2.5	/experiments/AOT/AOT_stimuli/rescaled_final/1880_fw.mp4	0.0	210.4122657775879	
27	190.4812879562378	fix_post	2		12	25.0	2.5	/experiments/AOT/AOT_stimuli/rescaled_final/1880_fw.mp4	0.0	211.72894287109375	0.09988093376159668
28	190.5811688899994	fix_pre	0		120	26.0	2.5	blank	1.0	211.82882380485535	1.000627040863037
28	190.7655189037323	pulse	0	t		26.0	2.5	blank	1.0	212.01317381858826	
28	191.58179593086243	movie	1		300	26.0	2.5	blank	1.0	212.82945084571838	2.49916410446167
28	192.36445808410645	pulse	1	t		26.0	2.5	blank	1.0	213.6121129989624	
28	193.9652168750763	pulse	1	t		26.0	2.5	blank	1.0	215.21287178993225	
28	194.0809600353241	fix_post	2		12	26.0	2.5	blank	1.0	215.32861495018005	0.09998798370361328
29	194.1809480190277	fix_pre	0		120	27.0	2.5	/experiments/AOT/AOT_stimuli/rescaled_final/0786_rv.mp4	0.0	215.42860293388367	1.0001499652862549
29	195.18109798431396	movie	1		246	27.0	2.5	/experiments/AOT/AOT_stimuli/rescaled_final/0786_rv.mp4	0.0	216.42875289916992	2.499821901321411
29	195.56505489349365	pulse	1	t		27.0	2.5	/experiments/AOT/AOT_stimuli/rescaled_final/0786_rv.mp4	0.0	216.8127098083496	
29	197.16438794136047	pulse	1	t		27.0	2.5	/experiments/AOT/AOT_stimuli/rescaled_final/0786_rv.mp4	0.0	218.41204285621643	
29	197.68091988563538	fix_post	2		12	27.0	2.5	/experiments/AOT/AOT_stimuli/rescaled_final/0786_rv.mp4	0.0	218.92857480049133	0.10100317001342773
30	197.7819230556488	fix_pre	0		119	28.0	2.5	/experiments/AOT/AOT_stimuli/rescaled_final/1226_fw.mp4	0.0	219.02957797050476	0.9915649890899658
30	198.76437091827393	pulse	0	t		28.0	2.5	/experiments/AOT/AOT_stimuli/rescaled_final/1226_fw.mp4	0.0	220.01202583312988	
30	198.77348804473877	movie	1		247	28.0	2.5	/experiments/AOT/AOT_stimuli/rescaled_final/1226_fw.mp4	0.0	220.02114295959473	2.5074338912963867
30	200.36412501335144	pulse	1	t		28.0	2.5	/experiments/AOT/AOT_stimuli/rescaled_final/1226_fw.mp4	0.0	221.6117799282074	
30	201.28092193603516	fix_post	2		12	28.0	2.5	/experiments/AOT/AOT_stimuli/rescaled_final/1226_fw.mp4	0.0	222.5285768508911	0.10003399848937988
31	201.38095593452454	fix_pre	0		120	29.0	2.5	/experiments/AOT/AOT_stimuli/rescaled_final/1930_rv.mp4	0.0	222.6286108493805	1.0000269412994385
31	201.96435689926147	pulse	0	t		29.0	2.5	/experiments/AOT/AOT_stimuli/rescaled_final/1930_rv.mp4	0.0	223.21201181411743	
31	202.38098287582397	movie	1		245	29.0	2.5	/experiments/AOT/AOT_stimuli/rescaled_final/1930_rv.mp4	0.0	223.62863779067993	2.499906063079834
31	203.56440997123718	pulse	1	t		29.0	2.5	/experiments/AOT/AOT_stimuli/rescaled_final/1930_rv.mp4	0.0	224.81206488609314	
31	204.8808889389038	fix_post	2		12	29.0	2.5	/experiments/AOT/AOT_stimuli/rescaled_final/1930_rv.mp4	0.0	226.12854385375977	0.10009407997131348
32	204.98098301887512	fix_pre	0		120	30.0	2.5	/experiments/AOT/AOT_stimuli/rescaled_final/0525_rv.mp4	0.0	226.22863793373108	0.9998989105224609
32	205.16440892219543	pulse	0	t		30.0	2.5	/experiments/AOT/AOT_stimuli/rescaled_final/0525_rv.mp4	0.0	226.4120638370514	
32	205.98088192939758	movie	1		245	30.0	2.5	/experiments/AOT/AOT_stimuli/rescaled_final/0525_rv.mp4	0.0	227.22853684425354	2.5000810623168945
32	206.76434898376465	pulse	1	t		30.0	2.5	/experiments/AOT/AOT_stimuli/rescaled_final/0525_rv.mp4	0.0	228.0120038986206	
32	208.36309790611267	pulse	1	t		30.0	2.5	/experiments/AOT/AOT_stimuli/rescaled_final/0525_rv.mp4	0.0	229.61075282096863	
32	208.48096299171448	fix_post	2		12	30.0	2.5	/experiments/AOT/AOT_stimuli/rescaled_final/0525_rv.mp4	0.0	229.72861790657043	0.10071206092834473
33	208.58167505264282	fix_pre	0		120	31.0	2.5	/experiments/AOT/AOT_stimuli/rescaled_final/1633_rv.mp4	0.0	229.82932996749878	0.9991710186004639
33	209.5808460712433	movie	1		244	31.0	2.5	/experiments/AOT/AOT_stimuli/rescaled_final/1633_rv.mp4	0.0	230.82850098609924	2.499964952468872
33	209.96458387374878	pulse	1	t		31.0	2.5	/experiments/AOT/AOT_stimuli/rescaled_final/1633_rv.mp4	0.0	231.21223878860474	
33	211.5642740726471	pulse	1	t		31.0	2.5	/experiments/AOT/AOT_stimuli/rescaled_final/1633_rv.mp4	0.0	232.81192898750305	
33	212.08081102371216	fix_post	2		12	31.0	2.5	/experiments/AOT/AOT_stimuli/rescaled_final/1633_rv.mp4	0.0	233.32846593856812	0.10096502304077148
34	212.18177604675293	fix_pre	0		119	32.0	2.5	/experiments/AOT/AOT_stimuli/rescaled_final/1815_fw.mp4	0.0	233.4294309616089	0.9915459156036377
34	213.16433000564575	pulse	0	t		32.0	2.5	/experiments/AOT/AOT_stimuli/rescaled_final/1815_fw.mp4	0.0	234.4119849205017	
34	213.17332196235657	movie	1		245	32.0	2.5	/experiments/AOT/AOT_stimuli/rescaled_final/1815_fw.mp4	0.0	234.42097687721252	2.507481098175049
34	214.76469588279724	pulse	1	t		32.0	2.5	/experiments/AOT/AOT_stimuli/rescaled_final/1815_fw.mp4	0.0	236.0123507976532	
34	215.68080306053162	fix_post	2		12	32.0	2.5	/experiments/AOT/AOT_stimuli/rescaled_final/1815_fw.mp4	0.0	236.92845797538757	0.10004186630249023
35	215.7808449268341	fix_pre	0		120	33.0	2.5	/experiments/AOT/AOT_stimuli/rescaled_final/0294_rv.mp4	0.0	237.02849984169006	0.9999561309814453
35	216.36438488960266	pulse	0	t		33.0	2.5	/experiments/AOT/AOT_stimuli/rescaled_final/0294_rv.mp4	0.0	237.61203980445862	
35	216.78080105781555	movie	1		244	33.0	2.5	/experiments/AOT/AOT_stimuli/rescaled_final/0294_rv.mp4	0.0	238.0284559726715	2.5000319480895996
35	217.96433997154236	pulse	1	t		33.0	2.5	/experiments/AOT/AOT_stimuli/rescaled_final/0294_rv.mp4	0.0	239.21199488639832	
35	219.28083300590515	fix_post	2		12	33.0	2.5	/experiments/AOT/AOT_stimuli/rescaled_final/0294_rv.mp4	0.0	240.5284879207611	0.09995293617248535
36	219.38078594207764	fix_pre	0		120	34.0	2.5	/experiments/AOT/AOT_stimuli/rescaled_final/1335_fw.mp4	0.0	240.6284408569336	1.0000231266021729
36	219.5643870830536	pulse	0	t		34.0	2.5	/experiments/AOT/AOT_stimuli/rescaled_final/1335_fw.mp4	0.0	240.81204199790955	
36	220.3808090686798	movie	1		242	34.0	2.5	/experiments/AOT/AOT_stimuli/rescaled_final/1335_fw.mp4	0.0	241.62846398353577	2.5000829696655273
36	221.1642599105835	pulse	1	t		34.0	2.5	/experiments/AOT/AOT_stimuli/rescaled_final/1335_fw.mp4	0.0	242.41191482543945	
36	222.7641580104828	pulse	1	t		34.0	2.5	/experiments/AOT/AOT_stimuli/rescaled_final/1335_fw.mp4	0.0	244.01181292533875	
36	222.88089203834534	fix_post	2		12	34.0	2.5	/experiments/AOT/AOT_stimuli/rescaled_final/1335_fw.mp4	0.0	244.1285469532013	0.09988594055175781
37	222.9807779788971	fix_pre	0		120	35.0	2.5	blank	1.0	244.22843289375305	0.9999599456787109
37	223.9807379245758	movie	1		300	35.0	2.5	blank	1.0	245.22839283943176	2.500897169113159
37	224.36424088478088	pulse	1	t		35.0	2.5	blank	1.0	245.61189579963684	
37	225.96510791778564	pulse	1	t		35.0	2.5	blank	1.0	247.2127628326416	
37	226.48163509368896	fix_post	2		12	35.0	2.5	blank	1.0	247.72929000854492	0.09919095039367676
38	226.58082604408264	fix_pre	0		119	36.0	2.5	/experiments/AOT/AOT_stimuli/rescaled_final/1289_fw.mp4	0.0	247.8284809589386	0.9915399551391602
38	227.56428289413452	pulse	0	t		36.0	2.5	/experiments/AOT/AOT_stimuli/rescaled_final/1289_fw.mp4	0.0	248.81193780899048	
38	227.5723659992218	movie	1		242	36.0	2.5	/experiments/AOT/AOT_stimuli/rescaled_final/1289_fw.mp4	0.0	248.82002091407776	2.501734972000122
38	229.16536498069763	pulse	1	t		36.0	2.5	/experiments/AOT/AOT_stimuli/rescaled_final/1289_fw.mp4	0.0	250.4130198955536	
38	230.07410097122192	fix_post	2		13	36.0	2.5	/experiments/AOT/AOT_stimuli/rescaled_final/1289_fw.mp4	0.0	251.32175588607788	0.10841012001037598
39	230.1825110912323	fix_pre	0		120	37.0	2.5	/experiments/AOT/AOT_stimuli/rescaled_final/1744_rv.mp4	0.0	251.43016600608826	0.9999759197235107
39	230.76556992530823	pulse	0	t		37.0	2.5	/experiments/AOT/AOT_stimuli/rescaled_final/1744_rv.mp4	0.0	252.01322484016418	
39	231.1824870109558	movie	1		244	37.0	2.5	/experiments/AOT/AOT_stimuli/rescaled_final/1744_rv.mp4	0.0	252.43014192581177	2.499631881713867
39	232.36559295654297	pulse	1	t		37.0	2.5	/experiments/AOT/AOT_stimuli/rescaled_final/1744_rv.mp4	0.0	253.61324787139893	
39	233.68211889266968	fix_post	2		12	37.0	2.5	/experiments/AOT/AOT_stimuli/rescaled_final/1744_rv.mp4	0.0	254.92977380752563	0.10046911239624023
40	233.78258800506592	fix_pre	0		120	38.0	2.5	/experiments/AOT/AOT_stimuli/rescaled_final/0412_rv.mp4	0.0	255.03024291992188	1.0000250339508057
40	233.96557593345642	pulse	0	t		38.0	2.5	/experiments/AOT/AOT_stimuli/rescaled_final/0412_rv.mp4	0.0	255.21323084831238	
40	234.78261303901672	movie	1		243	38.0	2.5	/experiments/AOT/AOT_stimuli/rescaled_final/0412_rv.mp4	0.0	256.0302679538727	2.499479055404663
40	235.5660479068756	pulse	1	t		38.0	2.5	/experiments/AOT/AOT_stimuli/rescaled_final/0412_rv.mp4	0.0	256.81370282173157	
40	237.16598105430603	pulse	1	t		38.0	2.5	/experiments/AOT/AOT_stimuli/rescaled_final/0412_rv.mp4	0.0	258.413635969162	
40	237.2820920944214	fix_post	2		12	38.0	2.5	/experiments/AOT/AOT_stimuli/rescaled_final/0412_rv.mp4	0.0	258.52974700927734	0.0999598503112793
41	237.38205194473267	fix_pre	0		120	39.0	2.5	/experiments/AOT/AOT_stimuli/rescaled_final/0012_rv.mp4	0.0	258.6297068595886	1.0000431537628174
41	238.38209509849548	movie	1		243	39.0	2.5	/experiments/AOT/AOT_stimuli/rescaled_final/0012_rv.mp4	0.0	259.62975001335144	2.500527858734131
41	238.76561093330383	pulse	1	t		39.0	2.5	/experiments/AOT/AOT_stimuli/rescaled_final/0012_rv.mp4	0.0	260.0132658481598	
41	240.36599802970886	pulse	1	t		39.0	2.5	/experiments/AOT/AOT_stimuli/rescaled_final/0012_rv.mp4	0.0	261.6136529445648	
41	240.88262295722961	fix_post	2		12	39.0	2.5	/experiments/AOT/AOT_stimuli/rescaled_final/0012_rv.mp4	0.0	262.13027787208557	0.0998389720916748
42	240.9824619293213	fix_pre	0		119	40.0	2.5	blank	1.0	262.23011684417725	0.9914209842681885
42	241.96554899215698	pulse	0	t		40.0	2.5	blank	1.0	263.21320390701294	
42	241.97388291358948	movie	1		301	40.0	2.5	blank	1.0	263.22153782844543	2.5086669921875
42	243.5659430027008	pulse	1	t		40.0	2.5	blank	1.0	264.81359791755676	
42	244.48254990577698	fix_post	2		12	40.0	2.5	blank	1.0	265.73020482063293	0.10000014305114746
43	244.58255004882812	fix_pre	0		120	41.0	2.5	/experiments/AOT/AOT_stimuli/rescaled_final/1480_rv.mp4	0.0	265.8302049636841	1.000114917755127
43	245.16566395759583	pulse	0	t		41.0	2.5	/experiments/AOT/AOT_stimuli/rescaled_final/1480_rv.mp4	0.0	266.4133188724518	
43	245.58266496658325	movie	1		243	41.0	2.5	/experiments/AOT/AOT_stimuli/rescaled_final/1480_rv.mp4	0.0	266.8303198814392	2.4998550415039062
43	246.7662410736084	pulse	1	t		41.0	2.5	/experiments/AOT/AOT_stimuli/rescaled_final/1480_rv.mp4	0.0	268.01389598846436	
43	248.08252000808716	fix_post	2		12	41.0	2.5	/experiments/AOT/AOT_stimuli/rescaled_final/1480_rv.mp4	0.0	269.3301749229431	0.09999203681945801
44	248.18251204490662	fix_pre	0		120	42.0	2.5	/experiments/AOT/AOT_stimuli/rescaled_final/0082_fw.mp4	0.0	269.4301669597626	0.9995148181915283
44	248.3659429550171	pulse	0	t		42.0	2.5	/experiments/AOT/AOT_stimuli/rescaled_final/0082_fw.mp4	0.0	269.61359786987305	
44	249.18202686309814	movie	1		242	42.0	2.5	/experiments/AOT/AOT_stimuli/rescaled_final/0082_fw.mp4	0.0	270.4296817779541	2.5003721714019775
44	249.9659869670868	pulse	1	t		42.0	2.5	/experiments/AOT/AOT_stimuli/rescaled_final/0082_fw.mp4	0.0	271.21364188194275	
44	251.5648889541626	pulse	1	t		42.0	2.5	/experiments/AOT/AOT_stimuli/rescaled_final/0082_fw.mp4	0.0	272.81254386901855	
44	251.68239903450012	fix_post	2		12	42.0	2.5	/experiments/AOT/AOT_stimuli/rescaled_final/0082_fw.mp4	0.0	272.9300539493561	0.0991058349609375
45	251.78150486946106	fix_pre	0		120	43.0	2.5	/experiments/AOT/AOT_stimuli/rescaled_final/1984_rv.mp4	0.0	273.029159784317	1.0010230541229248
45	252.78252792358398	movie	1		243	43.0	2.5	/experiments/AOT/AOT_stimuli/rescaled_final/1984_rv.mp4	0.0	274.03018283843994	2.4985949993133545
45	253.16550087928772	pulse	1	t		43.0	2.5	/experiments/AOT/AOT_stimuli/rescaled_final/1984_rv.mp4	0.0	274.4131557941437	
45	254.7659420967102	pulse	1	t		43.0	2.5	/experiments/AOT/AOT_stimuli/rescaled_final/1984_rv.mp4	0.0	276.01359701156616	
45	255.28112292289734	fix_post	2		12	43.0	2.5	/experiments/AOT/AOT_stimuli/rescaled_final/1984_rv.mp4	0.0	276.5287778377533	0.10104703903198242
46	255.38216996192932	fix_pre	0		119	44.0	2.5	/experiments/AOT/AOT_stimuli/rescaled_final/0440_fw.mp4	0.0	276.6298248767853	0.9919819831848145
46	256.36586594581604	pulse	0	t		44.0	2.5	/experiments/AOT/AOT_stimuli/rescaled_final/0440_fw.mp4	0.0	277.613520860672	
46	256.37415194511414	movie	1		244	44.0	2.5	/experiments/AOT/AOT_stimuli/rescaled_final/0440_fw.mp4	0.0	277.6218068599701	2.5083720684051514
46	257.9673418998718	pulse	1	t		44.0	2.5	/experiments/AOT/AOT_stimuli/rescaled_final/0440_fw.mp4	0.0	279.2149968147278	
46	258.8825240135193	fix_post	2		12	44.0	2.5	/experiments/AOT/AOT_stimuli/rescaled_final/0440_fw.mp4	0.0	280.13017892837524	0.09939193725585938
47	258.98191595077515	fix_pre	0		120	45.0	2.5	/experiments/AOT/AOT_stimuli/rescaled_final/1815_fw.mp4	0.0	280.2295708656311	0.9995601177215576
47	259.56598687171936	pulse	0	t		45.0	2.5	/experiments/AOT/AOT_stimuli/rescaled_final/1815_fw.mp4	0.0	280.8136417865753	
47	259.9814760684967	movie	1		244	45.0	2.5	/experiments/AOT/AOT_stimuli/rescaled_final/1815_fw.mp4	0.0	281.22913098335266	2.499755859375
47	261.1659519672394	pulse	1	t		45.0	2.5	/experiments/AOT/AOT_stimuli/rescaled_final/1815_fw.mp4	0.0	282.41360688209534	
47	262.4812319278717	fix_post	2		12	45.0	2.5	/experiments/AOT/AOT_stimuli/rescaled_final/1815_fw.mp4	0.0	283.72888684272766	0.10021209716796875
48	262.5814440250397	fix_pre	0		120	46.0	2.5	/experiments/AOT/AOT_stimuli/rescaled_final/2003_fw.mp4	0.0	283.82909893989563	1.0009870529174805
48	262.76447796821594	pulse	0	t		46.0	2.5	/experiments/AOT/AOT_stimuli/rescaled_final/2003_fw.mp4	0.0	284.0121328830719	
48	263.58243107795715	movie	1		242	46.0	2.5	/experiments/AOT/AOT_stimuli/rescaled_final/2003_fw.mp4	0.0	284.8300859928131	2.4990198612213135
48	264.3648409843445	pulse	1	t		46.0	2.5	/experiments/AOT/AOT_stimuli/rescaled_final/2003_fw.mp4	0.0	285.61249589920044	
48	265.9652590751648	pulse	1	t		46.0	2.5	/experiments/AOT/AOT_stimuli/rescaled_final/2003_fw.mp4	0.0	287.21291399002075	
48	266.08145093917847	fix_post	2		12	46.0	2.5	/experiments/AOT/AOT_stimuli/rescaled_final/2003_fw.mp4	0.0	287.3291058540344	0.10089111328125
49	266.1823420524597	fix_pre	0		120	47.0	2.5	blank	1.0	287.4299969673157	0.9986798763275146
49	267.18102192878723	movie	1		300	47.0	2.5	blank	1.0	288.4286768436432	2.500547170639038
49	267.5657980442047	pulse	1	t		47.0	2.5	blank	1.0	288.81345295906067	
49	269.16492104530334	pulse	1	t		47.0	2.5	blank	1.0	290.4125759601593	
49	269.68156909942627	fix_post	2		12	47.0	2.5	blank	1.0	290.9292240142822	0.09941697120666504
50	269.78098607063293	fix_pre	0		119	48.0	2.5	/experiments/AOT/AOT_stimuli/rescaled_final/1198_fw.mp4	0.0	291.0286409854889	0.9921238422393799
50	270.7645380496979	pulse	0	t		48.0	2.5	/experiments/AOT/AOT_stimuli/rescaled_final/1198_fw.mp4	0.0	292.01219296455383	
50	270.7731099128723	movie	1		243	48.0	2.5	/experiments/AOT/AOT_stimuli/rescaled_final/1198_fw.mp4	0.0	292.02076482772827	2.5079431533813477
50	272.3641209602356	pulse	1	t		48.0	2.5	/experiments/AOT/AOT_stimuli/rescaled_final/1198_fw.mp4	0.0	293.61177587509155	
50	273.28105306625366	fix_post	2		12	48.0	2.5	/experiments/AOT/AOT_stimuli/rescaled_final/1198_fw.mp4	0.0	294.5287079811096	0.09994983673095703
51	273.3810029029846	fix_pre	0		120	49.0	2.5	/experiments/AOT/AOT_stimuli/rescaled_final/0470_fw.mp4	0.0	294.6286578178406	0.9999780654907227
51	273.96394205093384	pulse	0	t		49.0	2.5	/experiments/AOT/AOT_stimuli/rescaled_final/0470_fw.mp4	0.0	295.2115969657898	
51	274.38098096847534	movie	1		243	49.0	2.5	/experiments/AOT/AOT_stimuli/rescaled_final/0470_fw.mp4	0.0	295.6286358833313	2.500498056411743
51	275.5640518665314	pulse	1	t		49.0	2.5	/experiments/AOT/AOT_stimuli/rescaled_final/0470_fw.mp4	0.0	296.81170678138733	
51	276.8814790248871	fix_post	2		12	49.0	2.5	/experiments/AOT/AOT_stimuli/rescaled_final/0470_fw.mp4	0.0	298.12913393974304	0.09983491897583008
52	276.9813139438629	fix_pre	0		120	50.0	2.5	/experiments/AOT/AOT_stimuli/rescaled_final/0356_fw.mp4	0.0	298.2289688587189	1.000093936920166
52	277.1648440361023	pulse	0	t		50.0	2.5	/experiments/AOT/AOT_stimuli/rescaled_final/0356_fw.mp4	0.0	298.41249895095825	
52	277.9814078807831	movie	1		242	50.0	2.5	/experiments/AOT/AOT_stimuli/rescaled_final/0356_fw.mp4	0.0	299.22906279563904	2.4990880489349365
52	278.7649030685425	pulse	1	t		50.0	2.5	/experiments/AOT/AOT_stimuli/rescaled_final/0356_fw.mp4	0.0	300.01255798339844	
52	280.3633348941803	pulse	1	t		50.0	2.5	/experiments/AOT/AOT_stimuli/rescaled_final/0356_fw.mp4	0.0	301.61098980903625	
52	280.480495929718	fix_post	2		12	50.0	2.5	/experiments/AOT/AOT_stimuli/rescaled_final/0356_fw.mp4	0.0	301.728150844574	0.10015106201171875
53	280.58064699172974	fix_pre	0		120	51.0	2.5	/experiments/AOT/AOT_stimuli/rescaled_final/0353_rv.mp4	0.0	301.8283019065857	0.9998340606689453
53	281.5804810523987	movie	1		244	51.0	2.5	/experiments/AOT/AOT_stimuli/rescaled_final/0353_rv.mp4	0.0	302.82813596725464	2.501401901245117
53	281.96591901779175	pulse	1	t		51.0	2.5	/experiments/AOT/AOT_stimuli/rescaled_final/0353_rv.mp4	0.0	303.2135739326477	
53	283.5639069080353	pulse	1	t		51.0	2.5	/experiments/AOT/AOT_stimuli/rescaled_final/0353_rv.mp4	0.0	304.81156182289124	
53	284.0818829536438	fix_post	2		12	51.0	2.5	/experiments/AOT/AOT_stimuli/rescaled_final/0353_rv.mp4	0.0	305.32953786849976	0.10033798217773438
54	284.18222093582153	fix_pre	0		119	52.0	2.5	/experiments/AOT/AOT_stimuli/rescaled_final/1560_rv.mp4	0.0	305.4298758506775	0.9916760921478271
54	285.165629863739	pulse	0	t		52.0	2.5	/experiments/AOT/AOT_stimuli/rescaled_final/1560_rv.mp4	0.0	306.41328477859497	
54	285.17389702796936	movie	1		245	52.0	2.5	/experiments/AOT/AOT_stimuli/rescaled_final/1560_rv.mp4	0.0	306.4215519428253	2.508333921432495
54	286.76669788360596	pulse	1	t		52.0	2.5	/experiments/AOT/AOT_stimuli/rescaled_final/1560_rv.mp4	0.0	308.0143527984619	
54	287.68223094940186	fix_post	2		12	52.0	2.5	/experiments/AOT/AOT_stimuli/rescaled_final/1560_rv.mp4	0.0	308.9298858642578	0.10018205642700195
55	287.78241300582886	fix_pre	0		120	53.0	2.5	/experiments/AOT/AOT_stimuli/rescaled_final/1607_rv.mp4	0.0	309.0300679206848	0.9998679161071777
55	288.3653130531311	pulse	0	t		53.0	2.5	/experiments/AOT/AOT_stimuli/rescaled_final/1607_rv.mp4	0.0	309.61296796798706	
55	288.78228092193604	movie	1		245	53.0	2.5	/experiments/AOT/AOT_stimuli/rescaled_final/1607_rv.mp4	0.0	310.029935836792	2.499521017074585
55	289.965313911438	pulse	1	t		53.0	2.5	/experiments/AOT/AOT_stimuli/rescaled_final/1607_rv.mp4	0.0	311.21296882629395	
55	291.2818019390106	fix_post	2		12	53.0	2.5	/experiments/AOT/AOT_stimuli/rescaled_final/1607_rv.mp4	0.0	312.5294568538666	0.1004180908203125
56	291.38222002983093	fix_pre	0		120	54.0	2.5	blank	1.0	312.6298749446869	1.0000648498535156
56	291.5656900405884	pulse	0	t		54.0	2.5	blank	1.0	312.81334495544434	
56	292.38228487968445	movie	1		300	54.0	2.5	blank	1.0	313.6299397945404	2.4999451637268066
56	293.16566801071167	pulse	1	t		54.0	2.5	blank	1.0	314.4133229255676	
56	294.7651569843292	pulse	1	t		54.0	2.5	blank	1.0	316.0128118991852	
56	294.88223004341125	fix_post	2		12	54.0	2.5	blank	1.0	316.1298849582672	0.09948301315307617
57	294.98171305656433	fix_pre	0		120	55.0	2.5	/experiments/AOT/AOT_stimuli/rescaled_final/2152_fw.mp4	0.0	316.2293679714203	1.0004658699035645
57	295.9821789264679	movie	1		241	55.0	2.5	/experiments/AOT/AOT_stimuli/rescaled_final/2152_fw.mp4	0.0	317.22983384132385	2.4995861053466797
57	296.365779876709	pulse	1	t		55.0	2.5	/experiments/AOT/AOT_stimuli/rescaled_final/2152_fw.mp4	0.0	317.61343479156494	
57	297.9657599925995	pulse	1	t		55.0	2.5	/experiments/AOT/AOT_stimuli/rescaled_final/2152_fw.mp4	0.0	319.21341490745544	
57	298.4817650318146	fix_post	2		12	55.0	2.5	/experiments/AOT/AOT_stimuli/rescaled_final/2152_fw.mp4	0.0	319.72941994667053	0.10010790824890137
58	298.5818729400635	fix_pre	0		119	56.0	2.5	/experiments/AOT/AOT_stimuli/rescaled_final/1460_fw.mp4	0.0	319.82952785491943	0.9915370941162109
58	299.565721988678	pulse	0	t		56.0	2.5	/experiments/AOT/AOT_stimuli/rescaled_final/1460_fw.mp4	0.0	320.81337690353394	
58	299.5734100341797	movie	1		246	56.0	2.5	/experiments/AOT/AOT_stimuli/rescaled_final/1460_fw.mp4	0.0	320.82106494903564	2.5089449882507324
58	301.1666898727417	pulse	1	t		56.0	2.5	/experiments/AOT/AOT_stimuli/rescaled_final/1460_fw.mp4	0.0	322.41434478759766	
58	302.0823550224304	fix_post	2		12	56.0	2.5	/experiments/AOT/AOT_stimuli/rescaled_final/1460_fw.mp4	0.0	323.3300099372864	0.10004305839538574
59	302.1823980808258	fix_pre	0		120	57.0	2.5	/experiments/AOT/AOT_stimuli/rescaled_final/2037_rv.mp4	0.0	323.43005299568176	1.0001568794250488
59	302.7671060562134	pulse	0	t		57.0	2.5	/experiments/AOT/AOT_stimuli/rescaled_final/2037_rv.mp4	0.0	324.01476097106934	
59	303.18255496025085	movie	1		244	57.0	2.5	/experiments/AOT/AOT_stimuli/rescaled_final/2037_rv.mp4	0.0	324.4302098751068	2.49914813041687
59	304.36582493782043	pulse	1	t		57.0	2.5	/experiments/AOT/AOT_stimuli/rescaled_final/2037_rv.mp4	0.0	325.6134798526764	
59	305.6817030906677	fix_post	2		12	57.0	2.5	/experiments/AOT/AOT_stimuli/rescaled_final/2037_rv.mp4	0.0	326.9293580055237	0.10048198699951172
60	305.78218507766724	fix_pre	0		120	58.0	2.5	/experiments/AOT/AOT_stimuli/rescaled_final/0495_fw.mp4	0.0	327.0298399925232	0.9997580051422119
60	305.96534609794617	pulse	0	t		58.0	2.5	/experiments/AOT/AOT_stimuli/rescaled_final/0495_fw.mp4	0.0	327.2130010128021	
60	306.78194308280945	movie	1		244	58.0	2.5	/experiments/AOT/AOT_stimuli/rescaled_final/0495_fw.mp4	0.0	328.0295979976654	2.4998209476470947
60	307.5656650066376	pulse	1	t		58.0	2.5	/experiments/AOT/AOT_stimuli/rescaled_final/0495_fw.mp4	0.0	328.81331992149353	
60	309.16467809677124	pulse	1	t		58.0	2.5	/experiments/AOT/AOT_stimuli/rescaled_final/0495_fw.mp4	0.0	330.4123330116272	
60	309.28176403045654	fix_post	2		12	58.0	2.5	/experiments/AOT/AOT_stimuli/rescaled_final/0495_fw.mp4	0.0	330.5294189453125	0.10040903091430664
61	309.38217306137085	fix_pre	0		120	59.0	2.5	/experiments/AOT/AOT_stimuli/rescaled_final/1867_fw.mp4	0.0	330.6298279762268	0.9999308586120605
61	310.3821039199829	movie	1		244	59.0	2.5	/experiments/AOT/AOT_stimuli/rescaled_final/1867_fw.mp4	0.0	331.62975883483887	2.5000431537628174
61	310.7654769420624	pulse	1	t		59.0	2.5	/experiments/AOT/AOT_stimuli/rescaled_final/1867_fw.mp4	0.0	332.01313185691833	
61	312.36551904678345	pulse	1	t		59.0	2.5	/experiments/AOT/AOT_stimuli/rescaled_final/1867_fw.mp4	0.0	333.6131739616394	
61	312.8821470737457	fix_post	2		12	59.0	2.5	/experiments/AOT/AOT_stimuli/rescaled_final/1867_fw.mp4	0.0	334.1298019886017	0.09957695007324219
62	312.98172402381897	fix_pre	0		119	60.0	2.5	/experiments/AOT/AOT_stimuli/rescaled_final/1560_rv.mp4	0.0	334.2293789386749	0.9916460514068604
62	313.96555495262146	pulse	0	t		60.0	2.5	/experiments/AOT/AOT_stimuli/rescaled_final/1560_rv.mp4	0.0	335.2132098674774	
62	313.97337007522583	movie	1		245	60.0	2.5	/experiments/AOT/AOT_stimuli/rescaled_final/1560_rv.mp4	0.0	335.2210249900818	2.5087859630584717
62	315.56545090675354	pulse	1	t		60.0	2.5	/experiments/AOT/AOT_stimuli/rescaled_final/1560_rv.mp4	0.0	336.8131058216095	
62	316.4821560382843	fix_post	2		12	60.0	2.5	/experiments/AOT/AOT_stimuli/rescaled_final/1560_rv.mp4	0.0	337.72981095314026	0.09956693649291992
63	316.5817229747772	fix_pre	0		120	61.0	2.5	/experiments/AOT/AOT_stimuli/rescaled_final/1812_fw.mp4	0.0	337.8293778896332	1.0004160404205322
63	317.16563391685486	pulse	0	t		61.0	2.5	/experiments/AOT/AOT_stimuli/rescaled_final/1812_fw.mp4	0.0	338.4132888317108	
63	317.58213901519775	movie	1		244	61.0	2.5	/experiments/AOT/AOT_stimuli/rescaled_final/1812_fw.mp4	0.0	338.8297939300537	2.4999139308929443
63	318.7657940387726	pulse	1	t		61.0	2.5	/experiments/AOT/AOT_stimuli/rescaled_final/1812_fw.mp4	0.0	340.01344895362854	
63	320.0820529460907	fix_post	2		12	61.0	2.5	/experiments/AOT/AOT_stimuli/rescaled_final/1812_fw.mp4	0.0	341.32970786094666	0.10009503364562988
64	320.1821479797363	fix_pre	0		120	62.0	2.5	blank	1.0	341.4298028945923	0.9995310306549072
64	320.36560797691345	pulse	0	t		62.0	2.5	blank	1.0	341.6132628917694	
64	321.18167901039124	movie	1		300	62.0	2.5	blank	1.0	342.4293339252472	2.500462055206299
64	321.9655900001526	pulse	1	t		62.0	2.5	blank	1.0	343.21324491500854	
64	323.56551003456116	pulse	1	t		62.0	2.5	blank	1.0	344.8131649494171	
64	323.68214106559753	fix_post	2		12	62.0	2.5	blank	1.0	344.9297959804535	0.09998488426208496
65	323.7821259498596	fix_pre	0		120	63.0	2.5	/experiments/AOT/AOT_stimuli/rescaled_final/0128_rv.mp4	0.0	345.0297808647156	0.9999611377716064
65	324.7820870876312	movie	1		243	63.0	2.5	/experiments/AOT/AOT_stimuli/rescaled_final/0128_rv.mp4	0.0	346.0297420024872	2.499567985534668
65	325.16622495651245	pulse	1	t		63.0	2.5	/experiments/AOT/AOT_stimuli/rescaled_final/0128_rv.mp4	0.0	346.4138798713684	
65	326.76510190963745	pulse	1	t		63.0	2.5	/experiments/AOT/AOT_stimuli/rescaled_final/0128_rv.mp4	0.0	348.0127568244934	
65	327.2816550731659	fix_post	2		12	63.0	2.5	/experiments/AOT/AOT_stimuli/rescaled_final/0128_rv.mp4	0.0	348.52930998802185	0.10003280639648438
66	327.3816878795624	fix_pre	0		119	64.0	2.5	/experiments/AOT/AOT_stimuli/rescaled_final/0215_rv.mp4	0.0	348.62934279441833	0.9920990467071533
66	328.3650999069214	pulse	0	t		64.0	2.5	/experiments/AOT/AOT_stimuli/rescaled_final/0215_rv.mp4	0.0	349.61275482177734	
66	328.37378692626953	movie	1		243	64.0	2.5	/experiments/AOT/AOT_stimuli/rescaled_final/0215_rv.mp4	0.0	349.6214418411255	2.508239984512329
66	329.964989900589	pulse	1	t		64.0	2.5	/experiments/AOT/AOT_stimuli/rescaled_final/0215_rv.mp4	0.0	351.21264481544495	
66	330.88202691078186	fix_post	2		12	64.0	2.5	/experiments/AOT/AOT_stimuli/rescaled_final/0215_rv.mp4	0.0	352.1296818256378	0.09971499443054199
67	330.9817419052124	fix_pre	0		120	65.0	2.5	/experiments/AOT/AOT_stimuli/rescaled_final/1344_fw.mp4	0.0	352.22939682006836	0.9998230934143066
67	331.5654470920563	pulse	0	t		65.0	2.5	/experiments/AOT/AOT_stimuli/rescaled_final/1344_fw.mp4	0.0	352.81310200691223	
67	331.9815649986267	movie	1		244	65.0	2.5	/experiments/AOT/AOT_stimuli/rescaled_final/1344_fw.mp4	0.0	353.22921991348267	2.5001049041748047
67	333.16554594039917	pulse	1	t		65.0	2.5	/experiments/AOT/AOT_stimuli/rescaled_final/1344_fw.mp4	0.0	354.4132008552551	
67	334.4816699028015	fix_post	2		12	65.0	2.5	/experiments/AOT/AOT_stimuli/rescaled_final/1344_fw.mp4	0.0	355.72932481765747	0.10024714469909668
68	334.5819170475006	fix_pre	0		120	66.0	2.5	/experiments/AOT/AOT_stimuli/rescaled_final/1410_rv.mp4	0.0	355.82957196235657	1.0000169277191162
68	334.7655019760132	pulse	0	t		66.0	2.5	/experiments/AOT/AOT_stimuli/rescaled_final/1410_rv.mp4	0.0	356.01315689086914	
68	335.5819339752197	movie	1		242	66.0	2.5	/experiments/AOT/AOT_stimuli/rescaled_final/1410_rv.mp4	0.0	356.8295888900757	2.4996440410614014
68	336.3654420375824	pulse	1	t		66.0	2.5	/experiments/AOT/AOT_stimuli/rescaled_final/1410_rv.mp4	0.0	357.61309695243835	
68	337.9636950492859	pulse	1	t		66.0	2.5	/experiments/AOT/AOT_stimuli/rescaled_final/1410_rv.mp4	0.0	359.21134996414185	
68	338.0815780162811	fix_post	2		12	66.0	2.5	/experiments/AOT/AOT_stimuli/rescaled_final/1410_rv.mp4	0.0	359.3292329311371	0.09999990463256836
69	338.1815779209137	fix_pre	0		120	67.0	2.5	/experiments/AOT/AOT_stimuli/rescaled_final/1960_rv.mp4	0.0	359.42923283576965	1.0002470016479492
69	339.18182492256165	movie	1		243	67.0	2.5	/experiments/AOT/AOT_stimuli/rescaled_final/1960_rv.mp4	0.0	360.4294798374176	2.5001070499420166
69	339.565486907959	pulse	1	t		67.0	2.5	/experiments/AOT/AOT_stimuli/rescaled_final/1960_rv.mp4	0.0	360.81314182281494	
69	341.16510486602783	pulse	1	t		67.0	2.5	/experiments/AOT/AOT_stimuli/rescaled_final/1960_rv.mp4	0.0	362.4127597808838	
69	341.68193197250366	fix_post	2		12	67.0	2.5	/experiments/AOT/AOT_stimuli/rescaled_final/1960_rv.mp4	0.0	362.9295868873596	0.10013294219970703
70	341.78206491470337	fix_pre	0		119	68.0	2.5	/experiments/AOT/AOT_stimuli/rescaled_final/0147_fw.mp4	0.0	363.0297198295593	0.9911551475524902
70	342.76508498191833	pulse	0	t		68.0	2.5	/experiments/AOT/AOT_stimuli/rescaled_final/0147_fw.mp4	0.0	364.0127398967743	
70	342.77322006225586	movie	1		245	68.0	2.5	/experiments/AOT/AOT_stimuli/rescaled_final/0147_fw.mp4	0.0	364.0208749771118	2.508431911468506
70	344.3656449317932	pulse	1	t		68.0	2.5	/experiments/AOT/AOT_stimuli/rescaled_final/0147_fw.mp4	0.0	365.61329984664917	
70	345.28165197372437	fix_post	2		12	68.0	2.5	/experiments/AOT/AOT_stimuli/rescaled_final/0147_fw.mp4	0.0	366.5293068885803	0.09993290901184082
71	345.3815848827362	fix_pre	0		120	69.0	2.5	/experiments/AOT/AOT_stimuli/rescaled_final/1783_fw.mp4	0.0	366.62923979759216	1.0003101825714111
71	345.96550989151	pulse	0	t		69.0	2.5	/experiments/AOT/AOT_stimuli/rescaled_final/1783_fw.mp4	0.0	367.21316480636597	
71	346.3818950653076	movie	1		243	69.0	2.5	/experiments/AOT/AOT_stimuli/rescaled_final/1783_fw.mp4	0.0	367.6295499801636	2.4995880126953125
71	347.56542801856995	pulse	1	t		69.0	2.5	/experiments/AOT/AOT_stimuli/rescaled_final/1783_fw.mp4	0.0	368.8130829334259	
71	348.88148307800293	fix_post	2		12	69.0	2.5	/experiments/AOT/AOT_stimuli/rescaled_final/1783_fw.mp4	0.0	370.1291379928589	0.10039496421813965
72	348.98187804222107	fix_pre	0		120	70.0	2.5	blank	1.0	370.229532957077	0.9998250007629395
72	349.16495394706726	pulse	0	t		70.0	2.5	blank	1.0	370.4126088619232	
72	349.981703042984	movie	1		300	70.0	2.5	blank	1.0	371.22935795783997	2.50016188621521
72	350.76543402671814	pulse	1	t		70.0	2.5	blank	1.0	372.0130889415741	
72	352.36536288261414	pulse	1	t		70.0	2.5	blank	1.0	373.6130177974701	
72	352.4818649291992	fix_post	2		12	70.0	2.5	blank	1.0	373.7295198440552	0.10001015663146973
73	352.5818750858307	fix_pre	0		120	71.0	2.5	/experiments/AOT/AOT_stimuli/rescaled_final/1282_fw.mp4	0.0	373.82953000068665	0.9987258911132812
73	353.58060097694397	movie	1		242	71.0	2.5	/experiments/AOT/AOT_stimuli/rescaled_final/1282_fw.mp4	0.0	374.8282558917999	2.5010669231414795
73	353.966197013855	pulse	1	t		71.0	2.5	/experiments/AOT/AOT_stimuli/rescaled_final/1282_fw.mp4	0.0	375.21385192871094	
73	355.5640640258789	pulse	1	t		71.0	2.5	/experiments/AOT/AOT_stimuli/rescaled_final/1282_fw.mp4	0.0	376.81171894073486	
73	356.08166790008545	fix_post	2		12	71.0	2.5	/experiments/AOT/AOT_stimuli/rescaled_final/1282_fw.mp4	0.0	377.3293228149414	0.10033416748046875
74	356.1820020675659	fix_pre	0		119	72.0	2.5	/experiments/AOT/AOT_stimuli/rescaled_final/1620_fw.mp4	0.0	377.4296569824219	0.991722822189331
74	357.16539192199707	pulse	0	t		72.0	2.5	/experiments/AOT/AOT_stimuli/rescaled_final/1620_fw.mp4	0.0	378.413046836853	
74	357.17372488975525	movie	1		246	72.0	2.5	/experiments/AOT/AOT_stimuli/rescaled_final/1620_fw.mp4	0.0	378.4213798046112	2.506834030151367
74	358.76466488838196	pulse	1	t		72.0	2.5	/experiments/AOT/AOT_stimuli/rescaled_final/1620_fw.mp4	0.0	380.0123198032379	
74	359.6805589199066	fix_post	2		12	72.0	2.5	/experiments/AOT/AOT_stimuli/rescaled_final/1620_fw.mp4	0.0	380.9282138347626	0.10037708282470703
75	359.7809360027313	fix_pre	0		120	73.0	2.5	/experiments/AOT/AOT_stimuli/rescaled_final/1803_fw.mp4	0.0	381.0285909175873	0.9996418952941895
75	360.36406898498535	pulse	0	t		73.0	2.5	/experiments/AOT/AOT_stimuli/rescaled_final/1803_fw.mp4	0.0	381.6117238998413	
75	360.7805778980255	movie	1		243	73.0	2.5	/experiments/AOT/AOT_stimuli/rescaled_final/1803_fw.mp4	0.0	382.02823281288147	2.4999840259552
75	361.96416687965393	pulse	1	t		73.0	2.5	/experiments/AOT/AOT_stimuli/rescaled_final/1803_fw.mp4	0.0	383.2118217945099	
75	363.2805619239807	fix_post	2		12	73.0	2.5	/experiments/AOT/AOT_stimuli/rescaled_final/1803_fw.mp4	0.0	384.52821683883667	0.10011100769042969
76	363.38067293167114	fix_pre	0		120	74.0	2.5	/experiments/AOT/AOT_stimuli/rescaled_final/2003_rv.mp4	0.0	384.6283278465271	0.9998810291290283
76	363.56529903411865	pulse	0	t		74.0	2.5	/experiments/AOT/AOT_stimuli/rescaled_final/2003_rv.mp4	0.0	384.8129539489746	
76	364.38055396080017	movie	1		245	74.0	2.5	/experiments/AOT/AOT_stimuli/rescaled_final/2003_rv.mp4	0.0	385.6282088756561	2.5
76	365.16395807266235	pulse	1	t		74.0	2.5	/experiments/AOT/AOT_stimuli/rescaled_final/2003_rv.mp4	0.0	386.4116129875183	
76	366.7641530036926	pulse	1	t		74.0	2.5	/experiments/AOT/AOT_stimuli/rescaled_final/2003_rv.mp4	0.0	388.0118079185486	
76	366.88055396080017	fix_post	2		12	74.0	2.5	/experiments/AOT/AOT_stimuli/rescaled_final/2003_rv.mp4	0.0	388.1282088756561	0.1004030704498291
77	366.98095703125	fix_pre	0		120	75.0	2.5	/experiments/AOT/AOT_stimuli/rescaled_final/1282_rv.mp4	0.0	388.22861194610596	0.9995570182800293
77	367.98051404953003	movie	1		244	75.0	2.5	/experiments/AOT/AOT_stimuli/rescaled_final/1282_rv.mp4	0.0	389.228168964386	2.500016927719116
77	368.3645670413971	pulse	1	t		75.0	2.5	/experiments/AOT/AOT_stimuli/rescaled_final/1282_rv.mp4	0.0	389.61222195625305	
77	369.9643440246582	pulse	1	t		75.0	2.5	/experiments/AOT/AOT_stimuli/rescaled_final/1282_rv.mp4	0.0	391.21199893951416	
77	370.48053097724915	fix_post	2		12	75.0	2.5	/experiments/AOT/AOT_stimuli/rescaled_final/1282_rv.mp4	0.0	391.7281858921051	0.10125994682312012
78	370.58179092407227	fix_pre	0		119	76.0	2.5	/experiments/AOT/AOT_stimuli/rescaled_final/1472_fw.mp4	0.0	391.8294458389282	0.9913780689239502
78	371.56533193588257	pulse	0	t		76.0	2.5	/experiments/AOT/AOT_stimuli/rescaled_final/1472_fw.mp4	0.0	392.8129868507385	
78	371.5731689929962	movie	1		244	76.0	2.5	/experiments/AOT/AOT_stimuli/rescaled_final/1472_fw.mp4	0.0	392.8208239078522	2.508181095123291
78	373.1648988723755	pulse	1	t		76.0	2.5	/experiments/AOT/AOT_stimuli/rescaled_final/1472_fw.mp4	0.0	394.41255378723145	
78	374.0813500881195	fix_post	2		12	76.0	2.5	/experiments/AOT/AOT_stimuli/rescaled_final/1472_fw.mp4	0.0	395.32900500297546	0.10053682327270508
79	374.1818869113922	fix_pre	0		120	77.0	2.5	blank	1.0	395.42954182624817	0.9995300769805908
79	374.7654359340668	pulse	0	t		77.0	2.5	blank	1.0	396.01309084892273	
79	375.1814169883728	movie	1		300	77.0	2.5	blank	1.0	396.42907190322876	2.500322103500366
79	376.3648250102997	pulse	1	t		77.0	2.5	blank	1.0	397.61247992515564	
79	377.68173909187317	fix_post	2		12	77.0	2.5	blank	1.0	398.9293940067291	0.10002589225769043
80	377.78176498413086	fix_pre	0		120	78.0	2.5	/experiments/AOT/AOT_stimuli/rescaled_final/0577_rv.mp4	0.0	399.0294198989868	0.9999680519104004
80	377.9652600288391	pulse	0	t		78.0	2.5	/experiments/AOT/AOT_stimuli/rescaled_final/0577_rv.mp4	0.0	399.21291494369507	
80	378.78173303604126	movie	1		241	78.0	2.5	/experiments/AOT/AOT_stimuli/rescaled_final/0577_rv.mp4	0.0	400.0293879508972	2.4996519088745117
80	379.56483006477356	pulse	1	t		78.0	2.5	/experiments/AOT/AOT_stimuli/rescaled_final/0577_rv.mp4	0.0	400.8124849796295	
80	381.1638538837433	pulse	1	t		78.0	2.5	/experiments/AOT/AOT_stimuli/rescaled_final/0577_rv.mp4	0.0	402.41150879859924	
80	381.28138494491577	fix_post	2		12	78.0	2.5	/experiments/AOT/AOT_stimuli/rescaled_final/0577_rv.mp4	0.0	402.52903985977173	0.10034799575805664
81	381.3817329406738	fix_pre	0		120	79.0	2.5	/experiments/AOT/AOT_stimuli/rescaled_final/0847_rv.mp4	0.0	402.6293878555298	0.9999330043792725
81	382.3816659450531	movie	1		243	79.0	2.5	/experiments/AOT/AOT_stimuli/rescaled_final/0847_rv.mp4	0.0	403.62932085990906	2.500041961669922
81	382.7650189399719	pulse	1	t		79.0	2.5	/experiments/AOT/AOT_stimuli/rescaled_final/0847_rv.mp4	0.0	404.0126738548279	
81	384.36474204063416	pulse	1	t		79.0	2.5	/experiments/AOT/AOT_stimuli/rescaled_final/0847_rv.mp4	0.0	405.6123969554901	
81	384.881707906723	fix_post	2		12	79.0	2.5	/experiments/AOT/AOT_stimuli/rescaled_final/0847_rv.mp4	0.0	406.129362821579	0.09961605072021484
82	384.98132395744324	fix_pre	0		119	80.0	2.5	/experiments/AOT/AOT_stimuli/rescaled_final/1688_fw.mp4	0.0	406.2289788722992	0.9916179180145264
82	385.9647390842438	pulse	0	t		80.0	2.5	/experiments/AOT/AOT_stimuli/rescaled_final/1688_fw.mp4	0.0	407.21239399909973	
82	385.97294187545776	movie	1		244	80.0	2.5	/experiments/AOT/AOT_stimuli/rescaled_final/1688_fw.mp4	0.0	407.2205967903137	2.5083730220794678
82	387.56474709510803	pulse	1	t		80.0	2.5	/experiments/AOT/AOT_stimuli/rescaled_final/1688_fw.mp4	0.0	408.812402009964	
82	388.48131489753723	fix_post	2		12	80.0	2.5	/experiments/AOT/AOT_stimuli/rescaled_final/1688_fw.mp4	0.0	409.7289698123932	0.10035204887390137
83	388.58166694641113	fix_pre	0		120	81.0	2.5	/experiments/AOT/AOT_stimuli/rescaled_final/2131_rv.mp4	0.0	409.8293218612671	1.0000770092010498
83	389.1648180484772	pulse	0	t		81.0	2.5	/experiments/AOT/AOT_stimuli/rescaled_final/2131_rv.mp4	0.0	410.41247296333313	
83	389.5817439556122	movie	1		245	81.0	2.5	/experiments/AOT/AOT_stimuli/rescaled_final/2131_rv.mp4	0.0	410.82939887046814	2.499514102935791
83	390.76488399505615	pulse	1	t		81.0	2.5	/experiments/AOT/AOT_stimuli/rescaled_final/2131_rv.mp4	0.0	412.0125389099121	
83	392.081258058548	fix_post	2		12	81.0	2.5	/experiments/AOT/AOT_stimuli/rescaled_final/2131_rv.mp4	0.0	413.32891297340393	0.10052084922790527
84	392.1817789077759	fix_pre	0		120	82.0	2.5	/experiments/AOT/AOT_stimuli/rescaled_final/1764_rv.mp4	0.0	413.42943382263184	0.9994809627532959
84	392.3647360801697	pulse	0	t		82.0	2.5	/experiments/AOT/AOT_stimuli/rescaled_final/1764_rv.mp4	0.0	413.61239099502563	
84	393.1812598705292	movie	1		244	82.0	2.5	/experiments/AOT/AOT_stimuli/rescaled_final/1764_rv.mp4	0.0	414.42891478538513	2.500505208969116
84	393.96523809432983	pulse	1	t		82.0	2.5	/experiments/AOT/AOT_stimuli/rescaled_final/1764_rv.mp4	0.0	415.2128930091858	
84	395.56485199928284	pulse	1	t		82.0	2.5	/experiments/AOT/AOT_stimuli/rescaled_final/1764_rv.mp4	0.0	416.8125069141388	
84	395.6817650794983	fix_post	2		12	82.0	2.5	/experiments/AOT/AOT_stimuli/rescaled_final/1764_rv.mp4	0.0	416.92941999435425	0.09815096855163574
85	395.7799160480499	fix_pre	0		120	83.0	2.5	blank	1.0	417.0275709629059	1.0013148784637451
85	396.7812309265137	movie	1		300	83.0	2.5	blank	1.0	418.02888584136963	2.500385046005249
85	397.16473603248596	pulse	1	t		83.0	2.5	blank	1.0	418.4123909473419	
85	398.7651319503784	pulse	1	t		83.0	2.5	blank	1.0	420.0127868652344	
85	399.2816159725189	fix_post	2		12	83.0	2.5	blank	1.0	420.5292708873749	0.10009002685546875
87	399.3817059993744	stim	0		1716					420.62936091423035	14.300091028213501
87	400.36524987220764	pulse	0	t						421.6129047870636	
87	401.9651288986206	pulse	0	t						423.21278381347656	
87	403.5650670528412	pulse	0	t						424.81272196769714	
87	405.16512393951416	pulse	0	t						426.4127788543701	
87	406.7650799751282	pulse	0	t						428.01273488998413	
87	408.3650109767914	pulse	0	t						429.61266589164734	
87	409.96503496170044	pulse	0	t						431.2126898765564	
87	411.5652039051056	pulse	0	t						432.81285881996155	
87	413.165256023407	pulse	0	t						434.41291093826294	
