trial_nr	onset	event_type	phase	response	nr_frames	movie_index	movie_duration	movie_file	blank	onset_abs	duration
0	0.13301825523376465	stim	0		32					16.47769021987915	0.26679253578186035
0	0.3915865421295166	response	0	space						16.736258506774902	
1	0.399810791015625	stim	0		4608					16.74448275566101	38.41642618179321
1	38.80645799636841	pulse	0	t						55.151129961013794	
1	38.81623697280884	stim	1		1715					55.160908937454224	14.30805230140686
1	40.397576332092285	pulse	1	t						56.74224829673767	
1	41.99785780906677	pulse	1	t						58.34252977371216	
1	43.59809732437134	pulse	1	t						59.942769289016724	
1	45.19826340675354	pulse	1	t						61.542935371398926	
1	46.798558473587036	pulse	1	t						63.14323043823242	
1	48.398799657821655	pulse	1	t						64.74347162246704	
1	49.999359130859375	pulse	1	t						66.34403109550476	
1	51.59926247596741	pulse	1	t						67.9439344406128	
2	53.1242892742157	fix_pre	0		10	0.0	2.5	/experiments/Knapen_AOT/AOT_stimuli/rescaled_final/0973_rv.mp4	0.0	69.46896123886108	0.10009384155273438
2	53.199549436569214	pulse	0	t		0.0	2.5	/experiments/Knapen_AOT/AOT_stimuli/rescaled_final/0973_rv.mp4	0.0	69.5442214012146	
2	53.22438311576843	movie	1		278	0.0	2.5	/experiments/Knapen_AOT/AOT_stimuli/rescaled_final/0973_rv.mp4	0.0	69.56905508041382	2.491969585418701
2	54.79829525947571	pulse	1	t		0.0	2.5	/experiments/Knapen_AOT/AOT_stimuli/rescaled_final/0973_rv.mp4	0.0	71.1429672241211	
2	55.716352701187134	fix_post	2		12	0.0	2.5	/experiments/Knapen_AOT/AOT_stimuli/rescaled_final/0973_rv.mp4	0.0	72.06102466583252	0.1000373363494873
3	55.81639003753662	fix_pre	0		120	1.0	2.5	/experiments/Knapen_AOT/AOT_stimuli/rescaled_final/2036_fw.mp4	0.0	72.161062002182	1.0085275173187256
3	56.40005540847778	pulse	0	t		1.0	2.5	/experiments/Knapen_AOT/AOT_stimuli/rescaled_final/2036_fw.mp4	0.0	72.74472737312317	
3	56.82491755485535	movie	1		280	1.0	2.5	/experiments/Knapen_AOT/AOT_stimuli/rescaled_final/2036_fw.mp4	0.0	73.16958951950073	2.4919867515563965
3	57.99843239784241	pulse	1	t		1.0	2.5	/experiments/Knapen_AOT/AOT_stimuli/rescaled_final/2036_fw.mp4	0.0	74.3431043624878	
3	59.31690430641174	fix_post	2		12	1.0	2.5	/experiments/Knapen_AOT/AOT_stimuli/rescaled_final/2036_fw.mp4	0.0	75.66157627105713	0.10001778602600098
4	59.416922092437744	fix_pre	0		120	2.0	2.5	/experiments/Knapen_AOT/AOT_stimuli/rescaled_final/0973_rv.mp4	0.0	75.76159405708313	1.0085270404815674
4	59.6005117893219	pulse	0	t		2.0	2.5	/experiments/Knapen_AOT/AOT_stimuli/rescaled_final/0973_rv.mp4	0.0	75.94518375396729	
4	60.42544913291931	movie	1		287	2.0	2.5	/experiments/Knapen_AOT/AOT_stimuli/rescaled_final/0973_rv.mp4	0.0	76.7701210975647	2.49198055267334
4	61.198570013046265	pulse	1	t		2.0	2.5	/experiments/Knapen_AOT/AOT_stimuli/rescaled_final/0973_rv.mp4	0.0	77.54324197769165	
4	62.79916572570801	pulse	1	t		2.0	2.5	/experiments/Knapen_AOT/AOT_stimuli/rescaled_final/0973_rv.mp4	0.0	79.1438376903534	
4	62.91742968559265	fix_post	2		12	2.0	2.5	/experiments/Knapen_AOT/AOT_stimuli/rescaled_final/0973_rv.mp4	0.0	79.26210165023804	0.10002708435058594
5	63.01745676994324	fix_pre	0		120	3.0	2.5	/experiments/Knapen_AOT/AOT_stimuli/rescaled_final/1687_rv.mp4	0.0	79.36212873458862	1.0084950923919678
5	64.0259518623352	movie	1		283	3.0	2.5	/experiments/Knapen_AOT/AOT_stimuli/rescaled_final/1687_rv.mp4	0.0	80.37062382698059	2.4920272827148438
5	64.40096187591553	pulse	1	t		3.0	2.5	/experiments/Knapen_AOT/AOT_stimuli/rescaled_final/1687_rv.mp4	0.0	80.74563384056091	
5	66.00058269500732	pulse	1	t		3.0	2.5	/experiments/Knapen_AOT/AOT_stimuli/rescaled_final/1687_rv.mp4	0.0	82.34525465965271	
5	66.51797914505005	fix_post	2		12	3.0	2.5	/experiments/Knapen_AOT/AOT_stimuli/rescaled_final/1687_rv.mp4	0.0	82.86265110969543	0.10001611709594727
6	66.617995262146	fix_pre	0		119	4.0	2.5	/experiments/Knapen_AOT/AOT_stimuli/rescaled_final/1861_fw.mp4	0.0	82.96266722679138	1.0001881122589111
6	67.60166716575623	pulse	0	t		4.0	2.5	/experiments/Knapen_AOT/AOT_stimuli/rescaled_final/1861_fw.mp4	0.0	83.94633913040161	
6	67.61818337440491	movie	1		283	4.0	2.5	/experiments/Knapen_AOT/AOT_stimuli/rescaled_final/1861_fw.mp4	0.0	83.9628553390503	2.5003418922424316
6	69.20005822181702	pulse	1	t		4.0	2.5	/experiments/Knapen_AOT/AOT_stimuli/rescaled_final/1861_fw.mp4	0.0	85.5447301864624	
6	70.11852526664734	fix_post	2		12	4.0	2.5	/experiments/Knapen_AOT/AOT_stimuli/rescaled_final/1861_fw.mp4	0.0	86.46319723129272	0.10001754760742188
7	70.21854281425476	fix_pre	0		120	5.0	2.5	/experiments/Knapen_AOT/AOT_stimuli/rescaled_final/1716_rv.mp4	0.0	86.56321477890015	1.0085601806640625
7	70.80238699913025	pulse	0	t		5.0	2.5	/experiments/Knapen_AOT/AOT_stimuli/rescaled_final/1716_rv.mp4	0.0	87.14705896377563	
7	71.22710299491882	movie	1		285	5.0	2.5	/experiments/Knapen_AOT/AOT_stimuli/rescaled_final/1716_rv.mp4	0.0	87.57177495956421	2.491969108581543
7	72.40068316459656	pulse	1	t		5.0	2.5	/experiments/Knapen_AOT/AOT_stimuli/rescaled_final/1716_rv.mp4	0.0	88.74535512924194	
7	73.71907210350037	fix_post	2		12	5.0	2.5	/experiments/Knapen_AOT/AOT_stimuli/rescaled_final/1716_rv.mp4	0.0	90.06374406814575	0.09999465942382812
8	73.8190667629242	fix_pre	0		120	6.0	2.5	blank	1.0	90.16373872756958	1.0001592636108398
8	74.00264072418213	pulse	0	t		6.0	2.5	blank	1.0	90.34731268882751	
8	74.81922602653503	movie	1		300	6.0	2.5	blank	1.0	91.16389799118042	2.500373363494873
8	75.60334753990173	pulse	1	t		6.0	2.5	blank	1.0	91.94801950454712	
8	77.19482326507568	pulse	1	t		6.0	2.5	blank	1.0	93.53949522972107	
8	77.31959939002991	fix_post	2		12	6.0	2.5	blank	1.0	93.6642713546753	0.10001325607299805
9	77.4196126461029	fix_pre	0		120	7.0	2.5	/experiments/Knapen_AOT/AOT_stimuli/rescaled_final/2016_fw.mp4	0.0	93.76428461074829	1.0085070133209229
9	78.42811965942383	movie	1		273	7.0	2.5	/experiments/Knapen_AOT/AOT_stimuli/rescaled_final/2016_fw.mp4	0.0	94.77279162406921	2.4920735359191895
9	78.79504251480103	pulse	1	t		7.0	2.5	/experiments/Knapen_AOT/AOT_stimuli/rescaled_final/2016_fw.mp4	0.0	95.13971447944641	
9	80.39528584480286	pulse	1	t		7.0	2.5	/experiments/Knapen_AOT/AOT_stimuli/rescaled_final/2016_fw.mp4	0.0	96.73995780944824	
9	80.92019319534302	fix_post	2		12	7.0	2.5	/experiments/Knapen_AOT/AOT_stimuli/rescaled_final/2016_fw.mp4	0.0	97.2648651599884	0.10001873970031738
10	81.02021193504333	fix_pre	0		118	8.0	2.5	/experiments/Knapen_AOT/AOT_stimuli/rescaled_final/1521_fw.mp4	0.0	97.36488389968872	0.9917826652526855
10	81.99563455581665	pulse	0	t		8.0	2.5	/experiments/Knapen_AOT/AOT_stimuli/rescaled_final/1521_fw.mp4	0.0	98.34030652046204	
10	82.01199460029602	movie	1		292	8.0	2.5	/experiments/Knapen_AOT/AOT_stimuli/rescaled_final/1521_fw.mp4	0.0	98.3566665649414	2.5003468990325928
10	83.59578037261963	pulse	1	t		8.0	2.5	/experiments/Knapen_AOT/AOT_stimuli/rescaled_final/1521_fw.mp4	0.0	99.94045233726501	
10	84.51234149932861	fix_post	2		12	8.0	2.5	/experiments/Knapen_AOT/AOT_stimuli/rescaled_final/1521_fw.mp4	0.0	100.857013463974	0.10003662109375
11	84.61237812042236	fix_pre	0		120	9.0	2.5	/experiments/Knapen_AOT/AOT_stimuli/rescaled_final/0946_fw.mp4	0.0	100.95705008506775	1.0084693431854248
11	85.19618654251099	pulse	0	t		9.0	2.5	/experiments/Knapen_AOT/AOT_stimuli/rescaled_final/0946_fw.mp4	0.0	101.54085850715637	
11	85.62084746360779	movie	1		276	9.0	2.5	/experiments/Knapen_AOT/AOT_stimuli/rescaled_final/0946_fw.mp4	0.0	101.96551942825317	2.492034435272217
11	86.79656338691711	pulse	1	t		9.0	2.5	/experiments/Knapen_AOT/AOT_stimuli/rescaled_final/0946_fw.mp4	0.0	103.1412353515625	
11	88.11288189888	fix_post	2		12	9.0	2.5	/experiments/Knapen_AOT/AOT_stimuli/rescaled_final/0946_fw.mp4	0.0	104.45755386352539	0.10002326965332031
12	88.21290516853333	fix_pre	0		120	10.0	2.5	/experiments/Knapen_AOT/AOT_stimuli/rescaled_final/0048_rv.mp4	0.0	104.55757713317871	1.0085313320159912
12	88.39647912979126	pulse	0	t		10.0	2.5	/experiments/Knapen_AOT/AOT_stimuli/rescaled_final/0048_rv.mp4	0.0	104.74115109443665	
12	89.22143650054932	movie	1		286	10.0	2.5	/experiments/Knapen_AOT/AOT_stimuli/rescaled_final/0048_rv.mp4	0.0	105.5661084651947	2.4920029640197754
12	89.99482536315918	pulse	1	t		10.0	2.5	/experiments/Knapen_AOT/AOT_stimuli/rescaled_final/0048_rv.mp4	0.0	106.33949732780457	
12	91.59504890441895	pulse	1	t		10.0	2.5	/experiments/Knapen_AOT/AOT_stimuli/rescaled_final/0048_rv.mp4	0.0	107.93972086906433	
12	91.71343946456909	fix_post	2		12	10.0	2.5	/experiments/Knapen_AOT/AOT_stimuli/rescaled_final/0048_rv.mp4	0.0	108.05811142921448	0.1000223159790039
13	91.8134617805481	fix_pre	0		120	11.0	2.5	/experiments/Knapen_AOT/AOT_stimuli/rescaled_final/0850_fw.mp4	0.0	108.15813374519348	1.0085444450378418
13	92.82200622558594	movie	1		274	11.0	2.5	/experiments/Knapen_AOT/AOT_stimuli/rescaled_final/0850_fw.mp4	0.0	109.16667819023132	2.4921607971191406
13	93.19557809829712	pulse	1	t		11.0	2.5	/experiments/Knapen_AOT/AOT_stimuli/rescaled_final/0850_fw.mp4	0.0	109.5402500629425	
13	94.79536986351013	pulse	1	t		11.0	2.5	/experiments/Knapen_AOT/AOT_stimuli/rescaled_final/0850_fw.mp4	0.0	111.14004182815552	
13	95.31416702270508	fix_post	2		12	11.0	2.5	/experiments/Knapen_AOT/AOT_stimuli/rescaled_final/0850_fw.mp4	0.0	111.65883898735046	0.09981799125671387
14	95.41398501396179	fix_pre	0		119	12.0	2.5	blank	1.0	111.75865697860718	0.9918210506439209
14	96.39766311645508	pulse	0	t		12.0	2.5	blank	1.0	112.74233508110046	
14	96.40580606460571	movie	1		301	12.0	2.5	blank	1.0	112.7504780292511	2.5087244510650635
14	97.99790096282959	pulse	1	t		12.0	2.5	blank	1.0	114.34257292747498	
14	98.91453051567078	fix_post	2		12	12.0	2.5	blank	1.0	115.25920248031616	0.10001516342163086
15	99.01454567909241	fix_pre	0		120	13.0	2.5	/experiments/Knapen_AOT/AOT_stimuli/rescaled_final/1889_rv.mp4	0.0	115.3592176437378	1.0084784030914307
15	99.59816837310791	pulse	0	t		13.0	2.5	/experiments/Knapen_AOT/AOT_stimuli/rescaled_final/1889_rv.mp4	0.0	115.9428403377533	
15	100.02302408218384	movie	1		282	13.0	2.5	/experiments/Knapen_AOT/AOT_stimuli/rescaled_final/1889_rv.mp4	0.0	116.36769604682922	2.4920356273651123
15	101.19656276702881	pulse	1	t		13.0	2.5	/experiments/Knapen_AOT/AOT_stimuli/rescaled_final/1889_rv.mp4	0.0	117.5412347316742	
15	102.51505970954895	fix_post	2		12	13.0	2.5	/experiments/Knapen_AOT/AOT_stimuli/rescaled_final/1889_rv.mp4	0.0	118.85973167419434	0.1002204418182373
16	102.61528015136719	fix_pre	0		120	14.0	2.5	/experiments/Knapen_AOT/AOT_stimuli/rescaled_final/0550_rv.mp4	0.0	118.95995211601257	1.0083107948303223
16	102.79867744445801	pulse	0	t		14.0	2.5	/experiments/Knapen_AOT/AOT_stimuli/rescaled_final/0550_rv.mp4	0.0	119.1433494091034	
16	103.62359094619751	movie	1		293	14.0	2.5	/experiments/Knapen_AOT/AOT_stimuli/rescaled_final/0550_rv.mp4	0.0	119.9682629108429	2.4920132160186768
16	104.39668703079224	pulse	1	t		14.0	2.5	/experiments/Knapen_AOT/AOT_stimuli/rescaled_final/0550_rv.mp4	0.0	120.74135899543762	
16	105.99720597267151	pulse	1	t		14.0	2.5	/experiments/Knapen_AOT/AOT_stimuli/rescaled_final/0550_rv.mp4	0.0	122.3418779373169	
16	106.11560416221619	fix_post	2		12	14.0	2.5	/experiments/Knapen_AOT/AOT_stimuli/rescaled_final/0550_rv.mp4	0.0	122.46027612686157	0.10001492500305176
17	106.21561908721924	fix_pre	0		120	15.0	2.5	/experiments/Knapen_AOT/AOT_stimuli/rescaled_final/1185_fw.mp4	0.0	122.56029105186462	1.0085091590881348
17	107.22412824630737	movie	1		287	15.0	2.5	/experiments/Knapen_AOT/AOT_stimuli/rescaled_final/1185_fw.mp4	0.0	123.56880021095276	2.492016315460205
17	107.59757137298584	pulse	1	t		15.0	2.5	/experiments/Knapen_AOT/AOT_stimuli/rescaled_final/1185_fw.mp4	0.0	123.94224333763123	
17	109.19753408432007	pulse	1	t		15.0	2.5	/experiments/Knapen_AOT/AOT_stimuli/rescaled_final/1185_fw.mp4	0.0	125.54220604896545	
17	109.71614456176758	fix_post	2		12	15.0	2.5	/experiments/Knapen_AOT/AOT_stimuli/rescaled_final/1185_fw.mp4	0.0	126.06081652641296	0.1000359058380127
18	109.81618046760559	fix_pre	0		119	16.0	2.5	/experiments/Knapen_AOT/AOT_stimuli/rescaled_final/0575_rv.mp4	0.0	126.16085243225098	1.000129222869873
18	110.79981231689453	pulse	0	t		16.0	2.5	/experiments/Knapen_AOT/AOT_stimuli/rescaled_final/0575_rv.mp4	0.0	127.14448428153992	
18	110.81630969047546	movie	1		275	16.0	2.5	/experiments/Knapen_AOT/AOT_stimuli/rescaled_final/0575_rv.mp4	0.0	127.16098165512085	2.500368118286133
18	112.39881920814514	pulse	1	t		16.0	2.5	/experiments/Knapen_AOT/AOT_stimuli/rescaled_final/0575_rv.mp4	0.0	128.74349117279053	
18	113.3166778087616	fix_post	2		12	16.0	2.5	/experiments/Knapen_AOT/AOT_stimuli/rescaled_final/0575_rv.mp4	0.0	129.66134977340698	0.10001969337463379
19	113.41669750213623	fix_pre	0		120	17.0	2.5	/experiments/Knapen_AOT/AOT_stimuli/rescaled_final/0818_rv.mp4	0.0	129.76136946678162	1.0085375308990479
19	114.00040602684021	pulse	0	t		17.0	2.5	/experiments/Knapen_AOT/AOT_stimuli/rescaled_final/0818_rv.mp4	0.0	130.3450779914856	
19	114.42523503303528	movie	1		280	17.0	2.5	/experiments/Knapen_AOT/AOT_stimuli/rescaled_final/0818_rv.mp4	0.0	130.76990699768066	2.4920756816864014
19	115.59858989715576	pulse	1	t		17.0	2.5	/experiments/Knapen_AOT/AOT_stimuli/rescaled_final/0818_rv.mp4	0.0	131.94326186180115	
19	116.91731071472168	fix_post	2		12	17.0	2.5	/experiments/Knapen_AOT/AOT_stimuli/rescaled_final/0818_rv.mp4	0.0	133.26198267936707	0.10006999969482422
20	117.0173807144165	fix_pre	0		120	18.0	2.5	/experiments/Knapen_AOT/AOT_stimuli/rescaled_final/0424_rv.mp4	0.0	133.3620526790619	1.008366346359253
20	117.20079159736633	pulse	0	t		18.0	2.5	/experiments/Knapen_AOT/AOT_stimuli/rescaled_final/0424_rv.mp4	0.0	133.54546356201172	
20	118.02574706077576	movie	1		272	18.0	2.5	/experiments/Knapen_AOT/AOT_stimuli/rescaled_final/0424_rv.mp4	0.0	134.37041902542114	2.4920217990875244
20	118.8002245426178	pulse	1	t		18.0	2.5	/experiments/Knapen_AOT/AOT_stimuli/rescaled_final/0424_rv.mp4	0.0	135.14489650726318	
20	120.39952898025513	pulse	1	t		18.0	2.5	/experiments/Knapen_AOT/AOT_stimuli/rescaled_final/0424_rv.mp4	0.0	136.7442009449005	
20	120.51776885986328	fix_post	2		12	18.0	2.5	/experiments/Knapen_AOT/AOT_stimuli/rescaled_final/0424_rv.mp4	0.0	136.86244082450867	0.10001087188720703
21	120.61777973175049	fix_pre	0		120	19.0	2.5	/experiments/Knapen_AOT/AOT_stimuli/rescaled_final/0491_fw.mp4	0.0	136.96245169639587	1.0084927082061768
21	121.62627243995667	movie	1		279	19.0	2.5	/experiments/Knapen_AOT/AOT_stimuli/rescaled_final/0491_fw.mp4	0.0	137.97094440460205	2.492027997970581
21	122.00017404556274	pulse	1	t		19.0	2.5	/experiments/Knapen_AOT/AOT_stimuli/rescaled_final/0491_fw.mp4	0.0	138.34484601020813	
21	123.59999799728394	pulse	1	t		19.0	2.5	/experiments/Knapen_AOT/AOT_stimuli/rescaled_final/0491_fw.mp4	0.0	139.94466996192932	
21	124.11830043792725	fix_post	2		12	19.0	2.5	/experiments/Knapen_AOT/AOT_stimuli/rescaled_final/0491_fw.mp4	0.0	140.46297240257263	0.10001969337463379
22	124.21832013130188	fix_pre	0		119	20.0	2.5	blank	1.0	140.56299209594727	0.991809606552124
22	125.20205688476562	pulse	0	t		20.0	2.5	blank	1.0	141.546728849411	
22	125.210129737854	movie	1		301	20.0	2.5	blank	1.0	141.5548017024994	2.5087499618530273
22	126.80237221717834	pulse	1	t		20.0	2.5	blank	1.0	143.14704418182373	
22	127.71887969970703	fix_post	2		12	20.0	2.5	blank	1.0	144.06355166435242	0.09997701644897461
23	127.818856716156	fix_pre	0		120	21.0	2.5	/experiments/Knapen_AOT/AOT_stimuli/rescaled_final/0978_rv.mp4	0.0	144.1635286808014	1.008509635925293
23	128.40276861190796	pulse	0	t		21.0	2.5	/experiments/Knapen_AOT/AOT_stimuli/rescaled_final/0978_rv.mp4	0.0	144.74744057655334	
23	128.8273663520813	movie	1		283	21.0	2.5	/experiments/Knapen_AOT/AOT_stimuli/rescaled_final/0978_rv.mp4	0.0	145.17203831672668	2.49202036857605
23	130.0008978843689	pulse	1	t		21.0	2.5	/experiments/Knapen_AOT/AOT_stimuli/rescaled_final/0978_rv.mp4	0.0	146.34556984901428	
23	131.31938672065735	fix_post	2		12	21.0	2.5	/experiments/Knapen_AOT/AOT_stimuli/rescaled_final/0978_rv.mp4	0.0	147.66405868530273	0.10001397132873535
24	131.41940069198608	fix_pre	0		120	22.0	2.5	/experiments/Knapen_AOT/AOT_stimuli/rescaled_final/0380_rv.mp4	0.0	147.76407265663147	1.0084998607635498
24	131.5952959060669	pulse	0	t		22.0	2.5	/experiments/Knapen_AOT/AOT_stimuli/rescaled_final/0380_rv.mp4	0.0	147.93996787071228	
24	132.42790055274963	movie	1		291	22.0	2.5	/experiments/Knapen_AOT/AOT_stimuli/rescaled_final/0380_rv.mp4	0.0	148.77257251739502	2.492225170135498
24	133.20132684707642	pulse	1	t		22.0	2.5	/experiments/Knapen_AOT/AOT_stimuli/rescaled_final/0380_rv.mp4	0.0	149.5459988117218	
24	134.7953221797943	pulse	1	t		22.0	2.5	/experiments/Knapen_AOT/AOT_stimuli/rescaled_final/0380_rv.mp4	0.0	151.1399941444397	
24	134.92012572288513	fix_post	2		12	22.0	2.5	/experiments/Knapen_AOT/AOT_stimuli/rescaled_final/0380_rv.mp4	0.0	151.26479768753052	0.09981012344360352
25	135.01993584632874	fix_pre	0		120	23.0	2.5	/experiments/Knapen_AOT/AOT_stimuli/rescaled_final/0580_rv.mp4	0.0	151.36460781097412	1.0085258483886719
25	136.0284616947174	movie	1		279	23.0	2.5	/experiments/Knapen_AOT/AOT_stimuli/rescaled_final/0580_rv.mp4	0.0	152.3731336593628	2.5003530979156494
25	136.39543652534485	pulse	1	t		23.0	2.5	/experiments/Knapen_AOT/AOT_stimuli/rescaled_final/0580_rv.mp4	0.0	152.74010848999023	
25	137.99578976631165	pulse	1	t		23.0	2.5	/experiments/Knapen_AOT/AOT_stimuli/rescaled_final/0580_rv.mp4	0.0	154.34046173095703	
25	138.52881479263306	fix_post	2		11	23.0	2.5	/experiments/Knapen_AOT/AOT_stimuli/rescaled_final/0580_rv.mp4	0.0	154.87348675727844	0.09171462059020996
26	138.62052941322327	fix_pre	0		118	24.0	2.5	/experiments/Knapen_AOT/AOT_stimuli/rescaled_final/0460_rv.mp4	0.0	154.96520137786865	0.9918239116668701
26	139.59585690498352	pulse	0	t		24.0	2.5	/experiments/Knapen_AOT/AOT_stimuli/rescaled_final/0460_rv.mp4	0.0	155.9405288696289	
26	139.61235332489014	movie	1		290	24.0	2.5	/experiments/Knapen_AOT/AOT_stimuli/rescaled_final/0460_rv.mp4	0.0	155.95702528953552	2.5003268718719482
26	141.19627976417542	pulse	1	t		24.0	2.5	/experiments/Knapen_AOT/AOT_stimuli/rescaled_final/0460_rv.mp4	0.0	157.5409517288208	
26	142.11268019676208	fix_post	2		12	24.0	2.5	/experiments/Knapen_AOT/AOT_stimuli/rescaled_final/0460_rv.mp4	0.0	158.45735216140747	0.10001468658447266
27	142.21269488334656	fix_pre	0		120	25.0	2.5	/experiments/Knapen_AOT/AOT_stimuli/rescaled_final/1574_fw.mp4	0.0	158.55736684799194	1.0085184574127197
27	142.7963273525238	pulse	0	t		25.0	2.5	/experiments/Knapen_AOT/AOT_stimuli/rescaled_final/1574_fw.mp4	0.0	159.1409993171692	
27	143.22121334075928	movie	1		282	25.0	2.5	/experiments/Knapen_AOT/AOT_stimuli/rescaled_final/1574_fw.mp4	0.0	159.56588530540466	2.4921505451202393
27	144.39655876159668	pulse	1	t		25.0	2.5	/experiments/Knapen_AOT/AOT_stimuli/rescaled_final/1574_fw.mp4	0.0	160.74123072624207	
27	145.71336388587952	fix_post	2		12	25.0	2.5	/experiments/Knapen_AOT/AOT_stimuli/rescaled_final/1574_fw.mp4	0.0	162.0580358505249	0.0999290943145752
28	145.8132929801941	fix_pre	0		120	26.0	2.5	/experiments/Knapen_AOT/AOT_stimuli/rescaled_final/0615_rv.mp4	0.0	162.15796494483948	1.0084378719329834
28	145.99690437316895	pulse	0	t		26.0	2.5	/experiments/Knapen_AOT/AOT_stimuli/rescaled_final/0615_rv.mp4	0.0	162.34157633781433	
28	146.82173085212708	movie	1		284	26.0	2.5	/experiments/Knapen_AOT/AOT_stimuli/rescaled_final/0615_rv.mp4	0.0	163.16640281677246	2.4920356273651123
28	147.59722018241882	pulse	1	t		26.0	2.5	/experiments/Knapen_AOT/AOT_stimuli/rescaled_final/0615_rv.mp4	0.0	163.9418921470642	
28	149.19544792175293	pulse	1	t		26.0	2.5	/experiments/Knapen_AOT/AOT_stimuli/rescaled_final/0615_rv.mp4	0.0	165.54011988639832	
28	149.3137664794922	fix_post	2		12	26.0	2.5	/experiments/Knapen_AOT/AOT_stimuli/rescaled_final/0615_rv.mp4	0.0	165.65843844413757	0.10000133514404297
29	149.41376781463623	fix_pre	0		120	27.0	2.5	/experiments/Knapen_AOT/AOT_stimuli/rescaled_final/0944_rv.mp4	0.0	165.75843977928162	1.0085055828094482
29	150.42227339744568	movie	1		289	27.0	2.5	/experiments/Knapen_AOT/AOT_stimuli/rescaled_final/0944_rv.mp4	0.0	166.76694536209106	2.4920496940612793
29	150.79616045951843	pulse	1	t		27.0	2.5	/experiments/Knapen_AOT/AOT_stimuli/rescaled_final/0944_rv.mp4	0.0	167.14083242416382	
29	152.39556765556335	pulse	1	t		27.0	2.5	/experiments/Knapen_AOT/AOT_stimuli/rescaled_final/0944_rv.mp4	0.0	168.74023962020874	
29	152.91432309150696	fix_post	2		12	27.0	2.5	/experiments/Knapen_AOT/AOT_stimuli/rescaled_final/0944_rv.mp4	0.0	169.25899505615234	0.09999823570251465
30	153.01432132720947	fix_pre	0		119	28.0	2.5	blank	1.0	169.35899329185486	0.9918820858001709
30	153.99806714057922	pulse	0	t		28.0	2.5	blank	1.0	170.3427391052246	
30	154.00620341300964	movie	1		301	28.0	2.5	blank	1.0	170.35087537765503	2.5086705684661865
30	155.5986886024475	pulse	1	t		28.0	2.5	blank	1.0	171.9433605670929	
30	156.51487398147583	fix_post	2		12	28.0	2.5	blank	1.0	172.85954594612122	0.1000213623046875
31	156.61489534378052	fix_pre	0		120	29.0	2.5	/experiments/Knapen_AOT/AOT_stimuli/rescaled_final/2139_rv.mp4	0.0	172.9595673084259	1.0085203647613525
31	157.1986153125763	pulse	0	t		29.0	2.5	/experiments/Knapen_AOT/AOT_stimuli/rescaled_final/2139_rv.mp4	0.0	173.54328727722168	
31	157.62341570854187	movie	1		289	29.0	2.5	/experiments/Knapen_AOT/AOT_stimuli/rescaled_final/2139_rv.mp4	0.0	173.96808767318726	2.4919826984405518
31	158.79700469970703	pulse	1	t		29.0	2.5	/experiments/Knapen_AOT/AOT_stimuli/rescaled_final/2139_rv.mp4	0.0	175.14167666435242	
31	160.11539840698242	fix_post	2		12	29.0	2.5	/experiments/Knapen_AOT/AOT_stimuli/rescaled_final/2139_rv.mp4	0.0	176.4600703716278	0.10001850128173828
32	160.21541690826416	fix_pre	0		120	30.0	2.5	/experiments/Knapen_AOT/AOT_stimuli/rescaled_final/0422_rv.mp4	0.0	176.56008887290955	1.008488416671753
32	160.39962887763977	pulse	0	t		30.0	2.5	/experiments/Knapen_AOT/AOT_stimuli/rescaled_final/0422_rv.mp4	0.0	176.74430084228516	
32	161.2239053249359	movie	1		284	30.0	2.5	/experiments/Knapen_AOT/AOT_stimuli/rescaled_final/0422_rv.mp4	0.0	177.5685772895813	2.4920175075531006
32	161.99793529510498	pulse	1	t		30.0	2.5	/experiments/Knapen_AOT/AOT_stimuli/rescaled_final/0422_rv.mp4	0.0	178.34260725975037	
32	163.59765195846558	pulse	1	t		30.0	2.5	/experiments/Knapen_AOT/AOT_stimuli/rescaled_final/0422_rv.mp4	0.0	179.94232392311096	
32	163.715922832489	fix_post	2		12	30.0	2.5	/experiments/Knapen_AOT/AOT_stimuli/rescaled_final/0422_rv.mp4	0.0	180.0605947971344	0.10003161430358887
33	163.8159544467926	fix_pre	0		120	31.0	2.5	/experiments/Knapen_AOT/AOT_stimuli/rescaled_final/0818_fw.mp4	0.0	180.160626411438	1.0084848403930664
33	164.82443928718567	movie	1		281	31.0	2.5	/experiments/Knapen_AOT/AOT_stimuli/rescaled_final/0818_fw.mp4	0.0	181.16911125183105	2.4920387268066406
33	165.1998393535614	pulse	1	t		31.0	2.5	/experiments/Knapen_AOT/AOT_stimuli/rescaled_final/0818_fw.mp4	0.0	181.5445113182068	
33	166.7977592945099	pulse	1	t		31.0	2.5	/experiments/Knapen_AOT/AOT_stimuli/rescaled_final/0818_fw.mp4	0.0	183.14243125915527	
33	167.3164780139923	fix_post	2		12	31.0	2.5	/experiments/Knapen_AOT/AOT_stimuli/rescaled_final/0818_fw.mp4	0.0	183.6611499786377	0.10002493858337402
34	167.41650295257568	fix_pre	0		119	32.0	2.5	/experiments/Knapen_AOT/AOT_stimuli/rescaled_final/0978_rv.mp4	0.0	183.76117491722107	1.0001568794250488
34	168.4003324508667	pulse	0	t		32.0	2.5	/experiments/Knapen_AOT/AOT_stimuli/rescaled_final/0978_rv.mp4	0.0	184.74500441551208	
34	168.41665983200073	movie	1		270	32.0	2.5	/experiments/Knapen_AOT/AOT_stimuli/rescaled_final/0978_rv.mp4	0.0	184.76133179664612	2.500349521636963
34	169.9989631175995	pulse	1	t		32.0	2.5	/experiments/Knapen_AOT/AOT_stimuli/rescaled_final/0978_rv.mp4	0.0	186.34363508224487	
34	170.9170093536377	fix_post	2		12	32.0	2.5	/experiments/Knapen_AOT/AOT_stimuli/rescaled_final/0978_rv.mp4	0.0	187.26168131828308	0.10001659393310547
35	171.0170259475708	fix_pre	0		120	33.0	2.5	/experiments/Knapen_AOT/AOT_stimuli/rescaled_final/1979_rv.mp4	0.0	187.3616979122162	1.0085132122039795
35	171.60067129135132	pulse	0	t		33.0	2.5	/experiments/Knapen_AOT/AOT_stimuli/rescaled_final/1979_rv.mp4	0.0	187.9453432559967	
35	172.02553915977478	movie	1		291	33.0	2.5	/experiments/Knapen_AOT/AOT_stimuli/rescaled_final/1979_rv.mp4	0.0	188.37021112442017	2.492048740386963
35	173.19950795173645	pulse	1	t		33.0	2.5	/experiments/Knapen_AOT/AOT_stimuli/rescaled_final/1979_rv.mp4	0.0	189.54417991638184	
35	174.51758790016174	fix_post	2		12	33.0	2.5	/experiments/Knapen_AOT/AOT_stimuli/rescaled_final/1979_rv.mp4	0.0	190.86225986480713	0.0999908447265625
36	174.6175787448883	fix_pre	0		120	34.0	2.5	/experiments/Knapen_AOT/AOT_stimuli/rescaled_final/1444_fw.mp4	0.0	190.9622507095337	1.0084903240203857
36	174.8012011051178	pulse	0	t		34.0	2.5	/experiments/Knapen_AOT/AOT_stimuli/rescaled_final/1444_fw.mp4	0.0	191.14587306976318	
36	175.6260690689087	movie	1		273	34.0	2.5	/experiments/Knapen_AOT/AOT_stimuli/rescaled_final/1444_fw.mp4	0.0	191.97074103355408	2.4920287132263184
36	176.3994483947754	pulse	1	t		34.0	2.5	/experiments/Knapen_AOT/AOT_stimuli/rescaled_final/1444_fw.mp4	0.0	192.74412035942078	
36	177.99999737739563	pulse	1	t		34.0	2.5	/experiments/Knapen_AOT/AOT_stimuli/rescaled_final/1444_fw.mp4	0.0	194.34466934204102	
36	178.118097782135	fix_post	2		12	34.0	2.5	/experiments/Knapen_AOT/AOT_stimuli/rescaled_final/1444_fw.mp4	0.0	194.4627697467804	0.09999823570251465
37	178.21809601783752	fix_pre	0		120	35.0	2.5	blank	1.0	194.5627679824829	1.0001685619354248
37	179.21826457977295	movie	1		300	35.0	2.5	blank	1.0	195.56293654441833	2.5003833770751953
37	179.60185194015503	pulse	1	t		35.0	2.5	blank	1.0	195.94652390480042	
37	181.20216536521912	pulse	1	t		35.0	2.5	blank	1.0	197.5468373298645	
37	181.71864795684814	fix_post	2		12	35.0	2.5	blank	1.0	198.06331992149353	0.10001826286315918
38	181.8186662197113	fix_pre	0		119	36.0	2.5	/experiments/Knapen_AOT/AOT_stimuli/rescaled_final/1953_fw.mp4	0.0	198.1633381843567	1.0001626014709473
38	182.80241060256958	pulse	0	t		36.0	2.5	/experiments/Knapen_AOT/AOT_stimuli/rescaled_final/1953_fw.mp4	0.0	199.14708256721497	
38	182.81882882118225	movie	1		290	36.0	2.5	/experiments/Knapen_AOT/AOT_stimuli/rescaled_final/1953_fw.mp4	0.0	199.16350078582764	2.5003833770751953
38	184.40107679367065	pulse	1	t		36.0	2.5	/experiments/Knapen_AOT/AOT_stimuli/rescaled_final/1953_fw.mp4	0.0	200.74574875831604	
38	185.31921219825745	fix_post	2		12	36.0	2.5	/experiments/Knapen_AOT/AOT_stimuli/rescaled_final/1953_fw.mp4	0.0	201.66388416290283	0.09998488426208496
39	185.41919708251953	fix_pre	0		120	37.0	2.5	/experiments/Knapen_AOT/AOT_stimuli/rescaled_final/0491_rv.mp4	0.0	201.76386904716492	1.0084962844848633
39	186.0029001235962	pulse	0	t		37.0	2.5	/experiments/Knapen_AOT/AOT_stimuli/rescaled_final/0491_rv.mp4	0.0	202.34757208824158	
39	186.4276933670044	movie	1		283	37.0	2.5	/experiments/Knapen_AOT/AOT_stimuli/rescaled_final/0491_rv.mp4	0.0	202.77236533164978	2.49204158782959
39	187.6013159751892	pulse	1	t		37.0	2.5	/experiments/Knapen_AOT/AOT_stimuli/rescaled_final/0491_rv.mp4	0.0	203.9459879398346	
39	188.91973495483398	fix_post	2		12	37.0	2.5	/experiments/Knapen_AOT/AOT_stimuli/rescaled_final/0491_rv.mp4	0.0	205.26440691947937	0.1000216007232666
40	189.01975655555725	fix_pre	0		120	38.0	2.5	/experiments/Knapen_AOT/AOT_stimuli/rescaled_final/1075_fw.mp4	0.0	205.36442852020264	1.008500337600708
40	189.20330238342285	pulse	0	t		38.0	2.5	/experiments/Knapen_AOT/AOT_stimuli/rescaled_final/1075_fw.mp4	0.0	205.54797434806824	
40	190.02825689315796	movie	1		280	38.0	2.5	/experiments/Knapen_AOT/AOT_stimuli/rescaled_final/1075_fw.mp4	0.0	206.37292885780334	2.491999387741089
40	190.80174565315247	pulse	1	t		38.0	2.5	/experiments/Knapen_AOT/AOT_stimuli/rescaled_final/1075_fw.mp4	0.0	207.14641761779785	
40	192.39579463005066	pulse	1	t		38.0	2.5	/experiments/Knapen_AOT/AOT_stimuli/rescaled_final/1075_fw.mp4	0.0	208.74046659469604	
40	192.52025628089905	fix_post	2		12	38.0	2.5	/experiments/Knapen_AOT/AOT_stimuli/rescaled_final/1075_fw.mp4	0.0	208.86492824554443	0.1000220775604248
41	192.62027835845947	fix_pre	0		120	39.0	2.5	/experiments/Knapen_AOT/AOT_stimuli/rescaled_final/0424_fw.mp4	0.0	208.96495032310486	1.0085244178771973
41	193.62880277633667	movie	1		284	39.0	2.5	/experiments/Knapen_AOT/AOT_stimuli/rescaled_final/0424_fw.mp4	0.0	209.97347474098206	2.4919991493225098
41	193.996187210083	pulse	1	t		39.0	2.5	/experiments/Knapen_AOT/AOT_stimuli/rescaled_final/0424_fw.mp4	0.0	210.3408591747284	
41	195.59617257118225	pulse	1	t		39.0	2.5	/experiments/Knapen_AOT/AOT_stimuli/rescaled_final/0424_fw.mp4	0.0	211.94084453582764	
41	196.12080192565918	fix_post	2		12	39.0	2.5	/experiments/Knapen_AOT/AOT_stimuli/rescaled_final/0424_fw.mp4	0.0	212.46547389030457	0.10006284713745117
42	196.22086477279663	fix_pre	0		118	40.0	2.5	/experiments/Knapen_AOT/AOT_stimuli/rescaled_final/1266_fw.mp4	0.0	212.56553673744202	0.991877555847168
42	197.19626784324646	pulse	0	t		40.0	2.5	/experiments/Knapen_AOT/AOT_stimuli/rescaled_final/1266_fw.mp4	0.0	213.54093980789185	
42	197.2127423286438	movie	1		270	40.0	2.5	/experiments/Knapen_AOT/AOT_stimuli/rescaled_final/1266_fw.mp4	0.0	213.55741429328918	2.5003576278686523
42	198.7965362071991	pulse	1	t		40.0	2.5	/experiments/Knapen_AOT/AOT_stimuli/rescaled_final/1266_fw.mp4	0.0	215.14120817184448	
42	199.71309995651245	fix_post	2		12	40.0	2.5	/experiments/Knapen_AOT/AOT_stimuli/rescaled_final/1266_fw.mp4	0.0	216.05777192115784	0.10002732276916504
43	199.81312727928162	fix_pre	0		120	41.0	2.5	/experiments/Knapen_AOT/AOT_stimuli/rescaled_final/1806_fw.mp4	0.0	216.157799243927	1.0084383487701416
43	200.3967854976654	pulse	0	t		41.0	2.5	/experiments/Knapen_AOT/AOT_stimuli/rescaled_final/1806_fw.mp4	0.0	216.7414574623108	
43	200.82156562805176	movie	1		283	41.0	2.5	/experiments/Knapen_AOT/AOT_stimuli/rescaled_final/1806_fw.mp4	0.0	217.16623759269714	2.491989850997925
43	201.997008562088	pulse	1	t		41.0	2.5	/experiments/Knapen_AOT/AOT_stimuli/rescaled_final/1806_fw.mp4	0.0	218.3416805267334	
43	203.31355547904968	fix_post	2		12	41.0	2.5	/experiments/Knapen_AOT/AOT_stimuli/rescaled_final/1806_fw.mp4	0.0	219.65822744369507	0.10000228881835938
44	203.41355776786804	fix_pre	0		120	42.0	2.5	blank	1.0	219.75822973251343	1.000190258026123
44	203.59741830825806	pulse	0	t		42.0	2.5	blank	1.0	219.94209027290344	
44	204.41374802589417	movie	1		300	42.0	2.5	blank	1.0	220.75841999053955	2.5004396438598633
44	205.19736742973328	pulse	1	t		42.0	2.5	blank	1.0	221.54203939437866	
44	206.7977352142334	pulse	1	t		42.0	2.5	blank	1.0	223.14240717887878	
44	206.91418766975403	fix_post	2		12	42.0	2.5	blank	1.0	223.2588596343994	0.09998321533203125
45	207.01417088508606	fix_pre	0		120	43.0	2.5	/experiments/Knapen_AOT/AOT_stimuli/rescaled_final/1090_fw.mp4	0.0	223.35884284973145	1.0084576606750488
45	208.0226285457611	movie	1		290	43.0	2.5	/experiments/Knapen_AOT/AOT_stimuli/rescaled_final/1090_fw.mp4	0.0	224.3673005104065	2.491990566253662
45	208.39654731750488	pulse	1	t		43.0	2.5	/experiments/Knapen_AOT/AOT_stimuli/rescaled_final/1090_fw.mp4	0.0	224.74121928215027	
45	209.9960813522339	pulse	1	t		43.0	2.5	/experiments/Knapen_AOT/AOT_stimuli/rescaled_final/1090_fw.mp4	0.0	226.34075331687927	
45	210.51461911201477	fix_post	2		12	43.0	2.5	/experiments/Knapen_AOT/AOT_stimuli/rescaled_final/1090_fw.mp4	0.0	226.85929107666016	0.10001873970031738
46	210.6146378517151	fix_pre	0		119	44.0	2.5	/experiments/Knapen_AOT/AOT_stimuli/rescaled_final/1522_rv.mp4	0.0	226.95930981636047	1.0002014636993408
46	211.5984981060028	pulse	0	t		44.0	2.5	/experiments/Knapen_AOT/AOT_stimuli/rescaled_final/1522_rv.mp4	0.0	227.9431700706482	
46	211.61483931541443	movie	1		295	44.0	2.5	/experiments/Knapen_AOT/AOT_stimuli/rescaled_final/1522_rv.mp4	0.0	227.95951128005981	2.5004091262817383
46	213.1969277858734	pulse	1	t		44.0	2.5	/experiments/Knapen_AOT/AOT_stimuli/rescaled_final/1522_rv.mp4	0.0	229.5415997505188	
46	214.11524844169617	fix_post	2		12	44.0	2.5	/experiments/Knapen_AOT/AOT_stimuli/rescaled_final/1522_rv.mp4	0.0	230.45992040634155	0.10004472732543945
47	214.2152931690216	fix_pre	0		120	45.0	2.5	/experiments/Knapen_AOT/AOT_stimuli/rescaled_final/0462_rv.mp4	0.0	230.559965133667	1.0084154605865479
47	214.79885840415955	pulse	0	t		45.0	2.5	/experiments/Knapen_AOT/AOT_stimuli/rescaled_final/0462_rv.mp4	0.0	231.14353036880493	
47	215.22370862960815	movie	1		284	45.0	2.5	/experiments/Knapen_AOT/AOT_stimuli/rescaled_final/0462_rv.mp4	0.0	231.56838059425354	2.492013931274414
47	216.39932203292847	pulse	1	t		45.0	2.5	/experiments/Knapen_AOT/AOT_stimuli/rescaled_final/0462_rv.mp4	0.0	232.74399399757385	
47	217.71572256088257	fix_post	2		12	45.0	2.5	/experiments/Knapen_AOT/AOT_stimuli/rescaled_final/0462_rv.mp4	0.0	234.06039452552795	0.10002732276916504
48	217.81574988365173	fix_pre	0		105	46.0	2.5	/experiments/Knapen_AOT/AOT_stimuli/rescaled_final/0220_fw.mp4	0.0	234.16042184829712	1.0085158348083496
48	217.99928092956543	pulse	0	t		46.0	2.5	/experiments/Knapen_AOT/AOT_stimuli/rescaled_final/0220_fw.mp4	0.0	234.34395289421082	
48	218.82426571846008	movie	1		284	46.0	2.5	/experiments/Knapen_AOT/AOT_stimuli/rescaled_final/0220_fw.mp4	0.0	235.16893768310547	2.4920456409454346
48	219.59745144844055	pulse	1	t		46.0	2.5	/experiments/Knapen_AOT/AOT_stimuli/rescaled_final/0220_fw.mp4	0.0	235.94212341308594	
48	221.19952607154846	pulse	1	t		46.0	2.5	/experiments/Knapen_AOT/AOT_stimuli/rescaled_final/0220_fw.mp4	0.0	237.54419803619385	
48	221.31631135940552	fix_post	2		12	46.0	2.5	/experiments/Knapen_AOT/AOT_stimuli/rescaled_final/0220_fw.mp4	0.0	237.6609833240509	0.10002803802490234
49	221.41633939743042	fix_pre	0		120	47.0	2.5	/experiments/Knapen_AOT/AOT_stimuli/rescaled_final/1464_fw.mp4	0.0	237.7610113620758	1.0084373950958252
49	222.42477679252625	movie	1		289	47.0	2.5	/experiments/Knapen_AOT/AOT_stimuli/rescaled_final/1464_fw.mp4	0.0	238.76944875717163	2.492030382156372
49	222.80022931098938	pulse	1	t		47.0	2.5	/experiments/Knapen_AOT/AOT_stimuli/rescaled_final/1464_fw.mp4	0.0	239.14490127563477	
49	224.3983290195465	pulse	1	t		47.0	2.5	/experiments/Knapen_AOT/AOT_stimuli/rescaled_final/1464_fw.mp4	0.0	240.7430009841919	
49	224.91680717468262	fix_post	2		12	47.0	2.5	/experiments/Knapen_AOT/AOT_stimuli/rescaled_final/1464_fw.mp4	0.0	241.261479139328	0.10004162788391113
50	225.01684880256653	fix_pre	0		119	48.0	2.5	/experiments/Knapen_AOT/AOT_stimuli/rescaled_final/0010_fw.mp4	0.0	241.3615207672119	1.008495569229126
50	226.0008146762848	pulse	0	t		48.0	2.5	/experiments/Knapen_AOT/AOT_stimuli/rescaled_final/0010_fw.mp4	0.0	242.34548664093018	
50	226.02534437179565	movie	1		283	48.0	2.5	/experiments/Knapen_AOT/AOT_stimuli/rescaled_final/0010_fw.mp4	0.0	242.37001633644104	2.492051601409912
50	227.59901595115662	pulse	1	t		48.0	2.5	/experiments/Knapen_AOT/AOT_stimuli/rescaled_final/0010_fw.mp4	0.0	243.943687915802	
50	228.51739597320557	fix_post	2		12	48.0	2.5	/experiments/Knapen_AOT/AOT_stimuli/rescaled_final/0010_fw.mp4	0.0	244.86206793785095	0.100006103515625
51	228.6174020767212	fix_pre	0		120	49.0	2.5	blank	1.0	244.96207404136658	1.0001060962677002
51	229.20098614692688	pulse	0	t		49.0	2.5	blank	1.0	245.54565811157227	
51	229.6175081729889	movie	1		300	49.0	2.5	blank	1.0	245.96218013763428	2.5004806518554688
51	230.80133867263794	pulse	1	t		49.0	2.5	blank	1.0	247.14601063728333	
51	232.11798882484436	fix_post	2		12	49.0	2.5	blank	1.0	248.46266078948975	0.09991312026977539
52	232.21790194511414	fix_pre	0		120	50.0	2.5	/experiments/Knapen_AOT/AOT_stimuli/rescaled_final/0864_rv.mp4	0.0	248.56257390975952	1.0085504055023193
52	232.4014585018158	pulse	0	t		50.0	2.5	/experiments/Knapen_AOT/AOT_stimuli/rescaled_final/0864_rv.mp4	0.0	248.74613046646118	
52	233.22645235061646	movie	1		277	50.0	2.5	/experiments/Knapen_AOT/AOT_stimuli/rescaled_final/0864_rv.mp4	0.0	249.57112431526184	2.491992235183716
52	234.00087690353394	pulse	1	t		50.0	2.5	/experiments/Knapen_AOT/AOT_stimuli/rescaled_final/0864_rv.mp4	0.0	250.34554886817932	
52	235.59970378875732	pulse	1	t		50.0	2.5	/experiments/Knapen_AOT/AOT_stimuli/rescaled_final/0864_rv.mp4	0.0	251.9443757534027	
52	235.71844458580017	fix_post	2		12	50.0	2.5	/experiments/Knapen_AOT/AOT_stimuli/rescaled_final/0864_rv.mp4	0.0	252.06311655044556	0.09999394416809082
53	235.81843852996826	fix_pre	0		120	51.0	2.5	/experiments/Knapen_AOT/AOT_stimuli/rescaled_final/0440_fw.mp4	0.0	252.16311049461365	1.0084943771362305
53	236.8269329071045	movie	1		274	51.0	2.5	/experiments/Knapen_AOT/AOT_stimuli/rescaled_final/0440_fw.mp4	0.0	253.17160487174988	2.4920287132263184
53	237.20070266723633	pulse	1	t		51.0	2.5	/experiments/Knapen_AOT/AOT_stimuli/rescaled_final/0440_fw.mp4	0.0	253.5453746318817	
53	238.8017704486847	pulse	1	t		51.0	2.5	/experiments/Knapen_AOT/AOT_stimuli/rescaled_final/0440_fw.mp4	0.0	255.14644241333008	
53	239.3189616203308	fix_post	2		12	51.0	2.5	/experiments/Knapen_AOT/AOT_stimuli/rescaled_final/0440_fw.mp4	0.0	255.6636335849762	0.10003376007080078
54	239.4189953804016	fix_pre	0		119	52.0	2.5	/experiments/Knapen_AOT/AOT_stimuli/rescaled_final/1326_rv.mp4	0.0	255.763667345047	1.0002086162567139
54	240.40281414985657	pulse	0	t		52.0	2.5	/experiments/Knapen_AOT/AOT_stimuli/rescaled_final/1326_rv.mp4	0.0	256.74748611450195	
54	240.41920399665833	movie	1		276	52.0	2.5	/experiments/Knapen_AOT/AOT_stimuli/rescaled_final/1326_rv.mp4	0.0	256.7638759613037	2.5003821849823
54	242.00149536132812	pulse	1	t		52.0	2.5	/experiments/Knapen_AOT/AOT_stimuli/rescaled_final/1326_rv.mp4	0.0	258.3461673259735	
54	242.91958618164062	fix_post	2		12	52.0	2.5	/experiments/Knapen_AOT/AOT_stimuli/rescaled_final/1326_rv.mp4	0.0	259.264258146286	0.09997773170471191
55	243.01956391334534	fix_pre	0		120	53.0	2.5	/experiments/Knapen_AOT/AOT_stimuli/rescaled_final/1644_rv.mp4	0.0	259.3642358779907	1.0084705352783203
55	243.60320615768433	pulse	0	t		53.0	2.5	/experiments/Knapen_AOT/AOT_stimuli/rescaled_final/1644_rv.mp4	0.0	259.9478781223297	
55	244.02803444862366	movie	1		273	53.0	2.5	/experiments/Knapen_AOT/AOT_stimuli/rescaled_final/1644_rv.mp4	0.0	260.37270641326904	2.4920144081115723
55	245.20171403884888	pulse	1	t		53.0	2.5	/experiments/Knapen_AOT/AOT_stimuli/rescaled_final/1644_rv.mp4	0.0	261.54638600349426	
55	246.52004885673523	fix_post	2		12	53.0	2.5	/experiments/Knapen_AOT/AOT_stimuli/rescaled_final/1644_rv.mp4	0.0	262.8647208213806	0.10001230239868164
56	246.6200611591339	fix_pre	0		120	54.0	2.5	blank	1.0	262.9647331237793	1.000272274017334
56	246.7965271472931	pulse	0	t		54.0	2.5	blank	1.0	263.1411991119385	
56	247.62033343315125	movie	1		300	54.0	2.5	blank	1.0	263.96500539779663	2.5002853870391846
56	248.39552474021912	pulse	1	t		54.0	2.5	blank	1.0	264.7401967048645	
56	249.99580240249634	pulse	1	t		54.0	2.5	blank	1.0	266.3404743671417	
56	250.12061882019043	fix_post	2		12	54.0	2.5	blank	1.0	266.4652907848358	0.10005807876586914
57	250.2206768989563	fix_pre	0		120	55.0	2.5	/experiments/Knapen_AOT/AOT_stimuli/rescaled_final/0955_rv.mp4	0.0	266.5653488636017	1.0084223747253418
57	251.22909927368164	movie	1		277	55.0	2.5	/experiments/Knapen_AOT/AOT_stimuli/rescaled_final/0955_rv.mp4	0.0	267.573771238327	2.4920430183410645
57	251.59662652015686	pulse	1	t		55.0	2.5	/experiments/Knapen_AOT/AOT_stimuli/rescaled_final/0955_rv.mp4	0.0	267.94129848480225	
57	253.1966598033905	pulse	1	t		55.0	2.5	/experiments/Knapen_AOT/AOT_stimuli/rescaled_final/0955_rv.mp4	0.0	269.5413317680359	
57	253.7211422920227	fix_post	2		12	55.0	2.5	/experiments/Knapen_AOT/AOT_stimuli/rescaled_final/0955_rv.mp4	0.0	270.0658142566681	0.1000065803527832
58	253.8211488723755	fix_pre	0		118	56.0	2.5	/experiments/Knapen_AOT/AOT_stimuli/rescaled_final/0355_rv.mp4	0.0	270.1658208370209	0.9918229579925537
58	254.79658222198486	pulse	0	t		56.0	2.5	/experiments/Knapen_AOT/AOT_stimuli/rescaled_final/0355_rv.mp4	0.0	271.14125418663025	
58	254.81297183036804	movie	1		281	56.0	2.5	/experiments/Knapen_AOT/AOT_stimuli/rescaled_final/0355_rv.mp4	0.0	271.1576437950134	2.5003600120544434
58	256.3952922821045	pulse	1	t		56.0	2.5	/experiments/Knapen_AOT/AOT_stimuli/rescaled_final/0355_rv.mp4	0.0	272.7399642467499	
58	257.3133318424225	fix_post	2		12	56.0	2.5	/experiments/Knapen_AOT/AOT_stimuli/rescaled_final/0355_rv.mp4	0.0	273.65800380706787	0.10003280639648438
59	257.41336464881897	fix_pre	0		120	57.0	2.5	/experiments/Knapen_AOT/AOT_stimuli/rescaled_final/0392_rv.mp4	0.0	273.75803661346436	1.0084881782531738
59	257.99706983566284	pulse	0	t		57.0	2.5	/experiments/Knapen_AOT/AOT_stimuli/rescaled_final/0392_rv.mp4	0.0	274.3417418003082	
59	258.42185282707214	movie	1		272	57.0	2.5	/experiments/Knapen_AOT/AOT_stimuli/rescaled_final/0392_rv.mp4	0.0	274.76652479171753	2.4920356273651123
59	259.59522128105164	pulse	1	t		57.0	2.5	/experiments/Knapen_AOT/AOT_stimuli/rescaled_final/0392_rv.mp4	0.0	275.939893245697	
59	260.91388845443726	fix_post	2		12	57.0	2.5	/experiments/Knapen_AOT/AOT_stimuli/rescaled_final/0392_rv.mp4	0.0	277.25856041908264	0.10001206398010254
60	261.01390051841736	fix_pre	0		120	58.0	2.5	/experiments/Knapen_AOT/AOT_stimuli/rescaled_final/1411_rv.mp4	0.0	277.35857248306274	1.0085184574127197
60	261.19743967056274	pulse	0	t		58.0	2.5	/experiments/Knapen_AOT/AOT_stimuli/rescaled_final/1411_rv.mp4	0.0	277.54211163520813	
60	262.0224189758301	movie	1		275	58.0	2.5	/experiments/Knapen_AOT/AOT_stimuli/rescaled_final/1411_rv.mp4	0.0	278.36709094047546	2.491990566253662
60	262.79589080810547	pulse	1	t		58.0	2.5	/experiments/Knapen_AOT/AOT_stimuli/rescaled_final/1411_rv.mp4	0.0	279.14056277275085	
60	264.39582657814026	pulse	1	t		58.0	2.5	/experiments/Knapen_AOT/AOT_stimuli/rescaled_final/1411_rv.mp4	0.0	280.74049854278564	
60	264.51440954208374	fix_post	2		12	58.0	2.5	/experiments/Knapen_AOT/AOT_stimuli/rescaled_final/1411_rv.mp4	0.0	280.8590815067291	0.10002565383911133
61	264.61443519592285	fix_pre	0		120	59.0	2.5	/experiments/Knapen_AOT/AOT_stimuli/rescaled_final/0951_fw.mp4	0.0	280.95910716056824	1.008488416671753
61	265.6229236125946	movie	1		277	59.0	2.5	/experiments/Knapen_AOT/AOT_stimuli/rescaled_final/0951_fw.mp4	0.0	281.96759557724	2.4920380115509033
61	265.99662709236145	pulse	1	t		59.0	2.5	/experiments/Knapen_AOT/AOT_stimuli/rescaled_final/0951_fw.mp4	0.0	282.34129905700684	
61	267.5964629650116	pulse	1	t		59.0	2.5	/experiments/Knapen_AOT/AOT_stimuli/rescaled_final/0951_fw.mp4	0.0	283.941134929657	
61	268.1149616241455	fix_post	2		12	59.0	2.5	/experiments/Knapen_AOT/AOT_stimuli/rescaled_final/0951_fw.mp4	0.0	284.4596335887909	0.10002708435058594
62	268.2149887084961	fix_pre	0		119	60.0	2.5	/experiments/Knapen_AOT/AOT_stimuli/rescaled_final/2133_fw.mp4	0.0	284.5596606731415	1.0002405643463135
62	269.19915294647217	pulse	0	t		60.0	2.5	/experiments/Knapen_AOT/AOT_stimuli/rescaled_final/2133_fw.mp4	0.0	285.54382491111755	
62	269.2152292728424	movie	1		273	60.0	2.5	/experiments/Knapen_AOT/AOT_stimuli/rescaled_final/2133_fw.mp4	0.0	285.5599012374878	2.5003416538238525
62	270.79721093177795	pulse	1	t		60.0	2.5	/experiments/Knapen_AOT/AOT_stimuli/rescaled_final/2133_fw.mp4	0.0	287.14188289642334	
62	271.71557092666626	fix_post	2		12	60.0	2.5	/experiments/Knapen_AOT/AOT_stimuli/rescaled_final/2133_fw.mp4	0.0	288.06024289131165	0.09995770454406738
63	271.8155286312103	fix_pre	0		120	61.0	2.5	blank	1.0	288.1602005958557	1.0001423358917236
63	272.3991770744324	pulse	0	t		61.0	2.5	blank	1.0	288.74384903907776	
63	272.81567096710205	movie	1		300	61.0	2.5	blank	1.0	289.16034293174744	2.5003998279571533
63	273.9993543624878	pulse	1	t		61.0	2.5	blank	1.0	290.3440263271332	
63	275.3160707950592	fix_post	2		12	61.0	2.5	blank	1.0	291.6607427597046	0.09999442100524902
64	275.41606521606445	fix_pre	0		120	62.0	2.5	/experiments/Knapen_AOT/AOT_stimuli/rescaled_final/0255_rv.mp4	0.0	291.76073718070984	1.008502721786499
64	275.5996310710907	pulse	0	t		62.0	2.5	/experiments/Knapen_AOT/AOT_stimuli/rescaled_final/0255_rv.mp4	0.0	291.9443030357361	
64	276.42456793785095	movie	1		268	62.0	2.5	/experiments/Knapen_AOT/AOT_stimuli/rescaled_final/0255_rv.mp4	0.0	292.76923990249634	2.4920437335968018
64	277.1992287635803	pulse	1	t		62.0	2.5	/experiments/Knapen_AOT/AOT_stimuli/rescaled_final/0255_rv.mp4	0.0	293.5439007282257	
64	278.7981925010681	pulse	1	t		62.0	2.5	/experiments/Knapen_AOT/AOT_stimuli/rescaled_final/0255_rv.mp4	0.0	295.1428644657135	
64	278.91661167144775	fix_post	2		12	62.0	2.5	/experiments/Knapen_AOT/AOT_stimuli/rescaled_final/0255_rv.mp4	0.0	295.26128363609314	0.10000419616699219
65	279.01661586761475	fix_pre	0		120	63.0	2.5	/experiments/Knapen_AOT/AOT_stimuli/rescaled_final/0264_fw.mp4	0.0	295.36128783226013	1.008462905883789
65	280.02507877349854	movie	1		277	63.0	2.5	/experiments/Knapen_AOT/AOT_stimuli/rescaled_final/0264_fw.mp4	0.0	296.3697507381439	2.4920690059661865
65	280.398889541626	pulse	1	t		63.0	2.5	/experiments/Knapen_AOT/AOT_stimuli/rescaled_final/0264_fw.mp4	0.0	296.74356150627136	
65	281.9986484050751	pulse	1	t		63.0	2.5	/experiments/Knapen_AOT/AOT_stimuli/rescaled_final/0264_fw.mp4	0.0	298.34332036972046	
65	282.5171477794647	fix_post	2		12	63.0	2.5	/experiments/Knapen_AOT/AOT_stimuli/rescaled_final/0264_fw.mp4	0.0	298.8618197441101	0.09998917579650879
66	282.61713695526123	fix_pre	0		119	64.0	2.5	/experiments/Knapen_AOT/AOT_stimuli/rescaled_final/1113_fw.mp4	0.0	298.9618089199066	1.0001945495605469
66	283.600882768631	pulse	0	t		64.0	2.5	/experiments/Knapen_AOT/AOT_stimuli/rescaled_final/1113_fw.mp4	0.0	299.94555473327637	
66	283.6173315048218	movie	1		277	64.0	2.5	/experiments/Knapen_AOT/AOT_stimuli/rescaled_final/1113_fw.mp4	0.0	299.96200346946716	2.500333786010742
66	285.1997616291046	pulse	1	t		64.0	2.5	/experiments/Knapen_AOT/AOT_stimuli/rescaled_final/1113_fw.mp4	0.0	301.54443359375	
66	286.1176652908325	fix_post	2		12	64.0	2.5	/experiments/Knapen_AOT/AOT_stimuli/rescaled_final/1113_fw.mp4	0.0	302.4623372554779	0.10005378723144531
67	286.21771907806396	fix_pre	0		120	65.0	2.5	/experiments/Knapen_AOT/AOT_stimuli/rescaled_final/1032_fw.mp4	0.0	302.56239104270935	1.0084776878356934
67	286.8013370037079	pulse	0	t		65.0	2.5	/experiments/Knapen_AOT/AOT_stimuli/rescaled_final/1032_fw.mp4	0.0	303.14600896835327	
67	287.22619676589966	movie	1		286	65.0	2.5	/experiments/Knapen_AOT/AOT_stimuli/rescaled_final/1032_fw.mp4	0.0	303.57086873054504	2.492027997970581
67	288.3999402523041	pulse	1	t		65.0	2.5	/experiments/Knapen_AOT/AOT_stimuli/rescaled_final/1032_fw.mp4	0.0	304.74461221694946	
67	289.71822476387024	fix_post	2		12	65.0	2.5	/experiments/Knapen_AOT/AOT_stimuli/rescaled_final/1032_fw.mp4	0.0	306.0628967285156	0.1000216007232666
68	289.8182463645935	fix_pre	0		120	66.0	2.5	/experiments/Knapen_AOT/AOT_stimuli/rescaled_final/1897_fw.mp4	0.0	306.1629183292389	1.0084803104400635
68	290.0018448829651	pulse	0	t		66.0	2.5	/experiments/Knapen_AOT/AOT_stimuli/rescaled_final/1897_fw.mp4	0.0	306.3465168476105	
68	290.82672667503357	movie	1		287	66.0	2.5	/experiments/Knapen_AOT/AOT_stimuli/rescaled_final/1897_fw.mp4	0.0	307.17139863967896	2.4920246601104736
68	291.6001965999603	pulse	1	t		66.0	2.5	/experiments/Knapen_AOT/AOT_stimuli/rescaled_final/1897_fw.mp4	0.0	307.9448685646057	
68	293.2004430294037	pulse	1	t		66.0	2.5	/experiments/Knapen_AOT/AOT_stimuli/rescaled_final/1897_fw.mp4	0.0	309.5451149940491	
68	293.31875133514404	fix_post	2		12	66.0	2.5	/experiments/Knapen_AOT/AOT_stimuli/rescaled_final/1897_fw.mp4	0.0	309.66342329978943	0.10001611709594727
69	293.41876745224	fix_pre	0		120	67.0	2.5	/experiments/Knapen_AOT/AOT_stimuli/rescaled_final/0410_rv.mp4	0.0	309.7634394168854	1.008538007736206
69	294.4273054599762	movie	1		291	67.0	2.5	/experiments/Knapen_AOT/AOT_stimuli/rescaled_final/0410_rv.mp4	0.0	310.7719774246216	2.4919841289520264
69	294.8030695915222	pulse	1	t		67.0	2.5	/experiments/Knapen_AOT/AOT_stimuli/rescaled_final/0410_rv.mp4	0.0	311.1477415561676	
69	296.4008934497833	pulse	1	t		67.0	2.5	/experiments/Knapen_AOT/AOT_stimuli/rescaled_final/0410_rv.mp4	0.0	312.7455654144287	
69	296.9192895889282	fix_post	2		12	67.0	2.5	/experiments/Knapen_AOT/AOT_stimuli/rescaled_final/0410_rv.mp4	0.0	313.2639615535736	0.10013055801391602
70	297.01942014694214	fix_pre	0		119	68.0	2.5	blank	1.0	313.3640921115875	0.991757869720459
70	297.9968960285187	pulse	0	t		68.0	2.5	blank	1.0	314.34156799316406	
70	298.0111780166626	movie	1		301	68.0	2.5	blank	1.0	314.355849981308	2.5086700916290283
70	299.595383644104	pulse	1	t		68.0	2.5	blank	1.0	315.9400556087494	
70	300.5198481082916	fix_post	2		12	68.0	2.5	blank	1.0	316.864520072937	0.10005855560302734
71	300.61990666389465	fix_pre	0		120	69.0	2.5	/experiments/Knapen_AOT/AOT_stimuli/rescaled_final/1889_fw.mp4	0.0	316.96457862854004	1.008436918258667
71	301.1957311630249	pulse	0	t		69.0	2.5	/experiments/Knapen_AOT/AOT_stimuli/rescaled_final/1889_fw.mp4	0.0	317.5404031276703	
71	301.6283435821533	movie	1		280	69.0	2.5	/experiments/Knapen_AOT/AOT_stimuli/rescaled_final/1889_fw.mp4	0.0	317.9730155467987	2.4920215606689453
71	302.79590249061584	pulse	1	t		69.0	2.5	/experiments/Knapen_AOT/AOT_stimuli/rescaled_final/1889_fw.mp4	0.0	319.14057445526123	
71	304.12036514282227	fix_post	2		12	69.0	2.5	/experiments/Knapen_AOT/AOT_stimuli/rescaled_final/1889_fw.mp4	0.0	320.46503710746765	0.10001397132873535
72	304.220379114151	fix_pre	0		120	70.0	2.5	/experiments/Knapen_AOT/AOT_stimuli/rescaled_final/1600_fw.mp4	0.0	320.5650510787964	1.0085198879241943
72	304.3956894874573	pulse	0	t		70.0	2.5	/experiments/Knapen_AOT/AOT_stimuli/rescaled_final/1600_fw.mp4	0.0	320.74036145210266	
72	305.2288990020752	movie	1		272	70.0	2.5	/experiments/Knapen_AOT/AOT_stimuli/rescaled_final/1600_fw.mp4	0.0	321.5735709667206	2.491994619369507
72	305.9959194660187	pulse	1	t		70.0	2.5	/experiments/Knapen_AOT/AOT_stimuli/rescaled_final/1600_fw.mp4	0.0	322.34059143066406	
72	307.5961911678314	pulse	1	t		70.0	2.5	/experiments/Knapen_AOT/AOT_stimuli/rescaled_final/1600_fw.mp4	0.0	323.9408631324768	
72	307.7208936214447	fix_post	2		12	70.0	2.5	/experiments/Knapen_AOT/AOT_stimuli/rescaled_final/1600_fw.mp4	0.0	324.0655655860901	0.10008597373962402
73	307.8209795951843	fix_pre	0		120	71.0	2.5	/experiments/Knapen_AOT/AOT_stimuli/rescaled_final/0194_fw.mp4	0.0	324.1656515598297	1.0084352493286133
73	308.82941484451294	movie	1		278	71.0	2.5	/experiments/Knapen_AOT/AOT_stimuli/rescaled_final/0194_fw.mp4	0.0	325.1740868091583	2.4920406341552734
73	309.19615364074707	pulse	1	t		71.0	2.5	/experiments/Knapen_AOT/AOT_stimuli/rescaled_final/0194_fw.mp4	0.0	325.54082560539246	
73	310.79659247398376	pulse	1	t		71.0	2.5	/experiments/Knapen_AOT/AOT_stimuli/rescaled_final/0194_fw.mp4	0.0	327.14126443862915	
73	311.3214554786682	fix_post	2		12	71.0	2.5	/experiments/Knapen_AOT/AOT_stimuli/rescaled_final/0194_fw.mp4	0.0	327.6661274433136	0.10001516342163086
74	311.42147064208984	fix_pre	0		118	72.0	2.5	/experiments/Knapen_AOT/AOT_stimuli/rescaled_final/0082_fw.mp4	0.0	327.76614260673523	0.9918234348297119
74	312.396901845932	pulse	0	t		72.0	2.5	/experiments/Knapen_AOT/AOT_stimuli/rescaled_final/0082_fw.mp4	0.0	328.7415738105774	
74	312.41329407691956	movie	1		274	72.0	2.5	/experiments/Knapen_AOT/AOT_stimuli/rescaled_final/0082_fw.mp4	0.0	328.75796604156494	2.5003418922424316
74	313.9967529773712	pulse	1	t		72.0	2.5	/experiments/Knapen_AOT/AOT_stimuli/rescaled_final/0082_fw.mp4	0.0	330.3414249420166	
74	314.913635969162	fix_post	2		12	72.0	2.5	/experiments/Knapen_AOT/AOT_stimuli/rescaled_final/0082_fw.mp4	0.0	331.2583079338074	0.10003328323364258
75	315.01366925239563	fix_pre	0		120	73.0	2.5	/experiments/Knapen_AOT/AOT_stimuli/rescaled_final/0400_fw.mp4	0.0	331.358341217041	1.0084984302520752
75	315.5973527431488	pulse	0	t		73.0	2.5	/experiments/Knapen_AOT/AOT_stimuli/rescaled_final/0400_fw.mp4	0.0	331.9420247077942	
75	316.0221676826477	movie	1		277	73.0	2.5	/experiments/Knapen_AOT/AOT_stimuli/rescaled_final/0400_fw.mp4	0.0	332.3668396472931	2.4921257495880127
75	317.19612884521484	pulse	1	t		73.0	2.5	/experiments/Knapen_AOT/AOT_stimuli/rescaled_final/0400_fw.mp4	0.0	333.54080080986023	
75	318.5142934322357	fix_post	2		12	73.0	2.5	/experiments/Knapen_AOT/AOT_stimuli/rescaled_final/0400_fw.mp4	0.0	334.8589653968811	0.0999593734741211
76	318.61425280570984	fix_pre	0		120	74.0	2.5	/experiments/Knapen_AOT/AOT_stimuli/rescaled_final/0922_rv.mp4	0.0	334.9589247703552	1.0084781646728516
76	318.79791593551636	pulse	0	t		74.0	2.5	/experiments/Knapen_AOT/AOT_stimuli/rescaled_final/0922_rv.mp4	0.0	335.14258790016174	
76	319.6227309703827	movie	1		266	74.0	2.5	/experiments/Knapen_AOT/AOT_stimuli/rescaled_final/0922_rv.mp4	0.0	335.9674029350281	2.4919872283935547
76	320.3986642360687	pulse	1	t		74.0	2.5	/experiments/Knapen_AOT/AOT_stimuli/rescaled_final/0922_rv.mp4	0.0	336.7433362007141	
76	321.9961853027344	pulse	1	t		74.0	2.5	/experiments/Knapen_AOT/AOT_stimuli/rescaled_final/0922_rv.mp4	0.0	338.34085726737976	
76	322.11471819877625	fix_post	2		12	74.0	2.5	/experiments/Knapen_AOT/AOT_stimuli/rescaled_final/0922_rv.mp4	0.0	338.45939016342163	0.10006332397460938
77	322.21478152275085	fix_pre	0		120	75.0	2.5	/experiments/Knapen_AOT/AOT_stimuli/rescaled_final/0305_rv.mp4	0.0	338.55945348739624	1.0085694789886475
77	323.2233510017395	movie	1		278	75.0	2.5	/experiments/Knapen_AOT/AOT_stimuli/rescaled_final/0305_rv.mp4	0.0	339.5680229663849	2.4919333457946777
77	323.5972366333008	pulse	1	t		75.0	2.5	/experiments/Knapen_AOT/AOT_stimuli/rescaled_final/0305_rv.mp4	0.0	339.94190859794617	
77	325.19685101509094	pulse	1	t		75.0	2.5	/experiments/Knapen_AOT/AOT_stimuli/rescaled_final/0305_rv.mp4	0.0	341.5415229797363	
77	325.7152843475342	fix_post	2		12	75.0	2.5	/experiments/Knapen_AOT/AOT_stimuli/rescaled_final/0305_rv.mp4	0.0	342.05995631217957	0.10011124610900879
78	325.8153955936432	fix_pre	0		119	76.0	2.5	blank	1.0	342.1600675582886	0.9916818141937256
78	326.7990984916687	pulse	0	t		76.0	2.5	blank	1.0	343.1437704563141	
78	326.8070774078369	movie	1		301	76.0	2.5	blank	1.0	343.1517493724823	2.5087625980377197
78	328.39926981925964	pulse	1	t		76.0	2.5	blank	1.0	344.74394178390503	
78	329.31584000587463	fix_post	2		12	76.0	2.5	blank	1.0	345.66051197052	0.10017633438110352
79	329.41601634025574	fix_pre	0		120	77.0	2.5	/experiments/Knapen_AOT/AOT_stimuli/rescaled_final/0984_fw.mp4	0.0	345.7606883049011	1.0083520412445068
79	329.99957489967346	pulse	0	t		77.0	2.5	/experiments/Knapen_AOT/AOT_stimuli/rescaled_final/0984_fw.mp4	0.0	346.34424686431885	
79	330.42436838150024	movie	1		281	77.0	2.5	/experiments/Knapen_AOT/AOT_stimuli/rescaled_final/0984_fw.mp4	0.0	346.76904034614563	2.492009401321411
79	331.59820675849915	pulse	1	t		77.0	2.5	/experiments/Knapen_AOT/AOT_stimuli/rescaled_final/0984_fw.mp4	0.0	347.94287872314453	
79	332.91637778282166	fix_post	2		12	77.0	2.5	/experiments/Knapen_AOT/AOT_stimuli/rescaled_final/0984_fw.mp4	0.0	349.26104974746704	0.1000678539276123
80	333.01644563674927	fix_pre	0		120	78.0	2.5	/experiments/Knapen_AOT/AOT_stimuli/rescaled_final/1687_fw.mp4	0.0	349.36111760139465	1.0084896087646484
80	333.19994497299194	pulse	0	t		78.0	2.5	/experiments/Knapen_AOT/AOT_stimuli/rescaled_final/1687_fw.mp4	0.0	349.54461693763733	
80	334.0249352455139	movie	1		276	78.0	2.5	/experiments/Knapen_AOT/AOT_stimuli/rescaled_final/1687_fw.mp4	0.0	350.3696072101593	2.4920058250427246
80	334.7984664440155	pulse	1	t		78.0	2.5	/experiments/Knapen_AOT/AOT_stimuli/rescaled_final/1687_fw.mp4	0.0	351.1431384086609	
80	336.398725271225	pulse	1	t		78.0	2.5	/experiments/Knapen_AOT/AOT_stimuli/rescaled_final/1687_fw.mp4	0.0	352.74339723587036	
80	336.51694107055664	fix_post	2		12	78.0	2.5	/experiments/Knapen_AOT/AOT_stimuli/rescaled_final/1687_fw.mp4	0.0	352.861613035202	0.0999913215637207
81	336.61693239212036	fix_pre	0		120	79.0	2.5	/experiments/Knapen_AOT/AOT_stimuli/rescaled_final/1861_rv.mp4	0.0	352.96160435676575	1.008491039276123
81	337.6254234313965	movie	1		274	79.0	2.5	/experiments/Knapen_AOT/AOT_stimuli/rescaled_final/1861_rv.mp4	0.0	353.97009539604187	2.4920496940612793
81	337.9990322589874	pulse	1	t		79.0	2.5	/experiments/Knapen_AOT/AOT_stimuli/rescaled_final/1861_rv.mp4	0.0	354.3437042236328	
81	339.59927344322205	pulse	1	t		79.0	2.5	/experiments/Knapen_AOT/AOT_stimuli/rescaled_final/1861_rv.mp4	0.0	355.94394540786743	
81	340.11747312545776	fix_post	2		12	79.0	2.5	/experiments/Knapen_AOT/AOT_stimuli/rescaled_final/1861_rv.mp4	0.0	356.46214509010315	0.10003995895385742
82	340.2175130844116	fix_pre	0		119	80.0	2.5	/experiments/Knapen_AOT/AOT_stimuli/rescaled_final/1716_fw.mp4	0.0	356.562185049057	1.0086324214935303
82	341.20139837265015	pulse	0	t		80.0	2.5	/experiments/Knapen_AOT/AOT_stimuli/rescaled_final/1716_fw.mp4	0.0	357.54607033729553	
82	341.22614550590515	movie	1		281	80.0	2.5	/experiments/Knapen_AOT/AOT_stimuli/rescaled_final/1716_fw.mp4	0.0	357.57081747055054	2.4918901920318604
82	342.8006401062012	pulse	1	t		80.0	2.5	/experiments/Knapen_AOT/AOT_stimuli/rescaled_final/1716_fw.mp4	0.0	359.14531207084656	
82	343.718035697937	fix_post	2		12	80.0	2.5	/experiments/Knapen_AOT/AOT_stimuli/rescaled_final/1716_fw.mp4	0.0	360.0627076625824	0.09998035430908203
83	343.8180160522461	fix_pre	0		120	81.0	2.5	/experiments/Knapen_AOT/AOT_stimuli/rescaled_final/0305_rv.mp4	0.0	360.1626880168915	1.0085151195526123
83	344.4023325443268	pulse	0	t		81.0	2.5	/experiments/Knapen_AOT/AOT_stimuli/rescaled_final/0305_rv.mp4	0.0	360.74700450897217	
83	344.8265311717987	movie	1		266	81.0	2.5	/experiments/Knapen_AOT/AOT_stimuli/rescaled_final/0305_rv.mp4	0.0	361.1712031364441	2.4920215606689453
83	346.0006158351898	pulse	1	t		81.0	2.5	/experiments/Knapen_AOT/AOT_stimuli/rescaled_final/0305_rv.mp4	0.0	362.3452877998352	
83	347.31855273246765	fix_post	2		12	81.0	2.5	/experiments/Knapen_AOT/AOT_stimuli/rescaled_final/0305_rv.mp4	0.0	363.66322469711304	0.10006451606750488
84	347.41861724853516	fix_pre	0		120	82.0	2.5	blank	1.0	363.76328921318054	1.0000956058502197
84	347.6021785736084	pulse	0	t		82.0	2.5	blank	1.0	363.9468505382538	
84	348.4187128543854	movie	1		300	82.0	2.5	blank	1.0	364.76338481903076	2.5003747940063477
84	349.2023799419403	pulse	1	t		82.0	2.5	blank	1.0	365.5470519065857	
84	350.8027489185333	pulse	1	t		82.0	2.5	blank	1.0	367.1474208831787	
84	350.9190876483917	fix_post	2		12	82.0	2.5	blank	1.0	367.2637596130371	0.10003471374511719
85	351.01912236213684	fix_pre	0		120	83.0	2.5	/experiments/Knapen_AOT/AOT_stimuli/rescaled_final/1577_rv.mp4	0.0	367.3637943267822	1.008495807647705
85	352.02761816978455	movie	1		278	83.0	2.5	/experiments/Knapen_AOT/AOT_stimuli/rescaled_final/1577_rv.mp4	0.0	368.37229013442993	2.4920337200164795
85	352.4025523662567	pulse	1	t		83.0	2.5	/experiments/Knapen_AOT/AOT_stimuli/rescaled_final/1577_rv.mp4	0.0	368.7472243309021	
85	354.00339460372925	pulse	1	t		83.0	2.5	/experiments/Knapen_AOT/AOT_stimuli/rescaled_final/1577_rv.mp4	0.0	370.34806656837463	
85	354.519651889801	fix_post	2		12	83.0	2.5	/experiments/Knapen_AOT/AOT_stimuli/rescaled_final/1577_rv.mp4	0.0	370.8643238544464	0.09995174407958984
87	354.6196036338806	stim	0		1716					370.964275598526	14.302197217941284
87	355.5960018634796	pulse	0	t						371.940673828125	
87	357.1957929134369	pulse	0	t						373.5404648780823	
87	358.79621481895447	pulse	0	t						375.14088678359985	
87	360.3959903717041	pulse	0	t						376.7406623363495	
87	361.99592781066895	pulse	0	t						378.34059977531433	
87	363.59624433517456	pulse	0	t						379.94091629981995	
87	365.19657492637634	pulse	0	t						381.54124689102173	
87	366.79703640937805	pulse	0	t						383.14170837402344	
87	368.3969542980194	pulse	0	t						384.7416262626648	
