trial_nr	onset	event_type	phase	response	nr_frames	movie_index	movie_duration	movie_file	blank	onset_abs	duration
0	0.20837903022766113	stim	0		117					27.803012132644653	0.9750730991363525
0	1.1753110885620117	response	0	space						28.769944190979004	
1	1.1834521293640137	stim	0		4174					28.778085231781006	34.808247804641724
1	35.961589097976685	pulse	0	t						63.55622220039368	
1	35.99169993400574	stim	1		1716					63.58633303642273	14.299102067947388
1	37.55654001235962	pulse	1	t						65.15117311477661	
1	39.15688490867615	pulse	1	t						66.75151801109314	
1	40.757009983062744	pulse	1	t						68.35164308547974	
1	42.356560945510864	pulse	1	t						69.95119404792786	
1	43.95663499832153	pulse	1	t						71.55126810073853	
1	45.5570170879364	pulse	1	t						73.1516501903534	
1	47.157201051712036	pulse	1	t						74.75183415412903	
1	48.757314920425415	pulse	1	t						76.35194802284241	
2	50.290802001953125	fix_pre	0		9	0.0	2.5	/experiments/knapen_AOT/AOT_stimuli/rescaled_final/0905_fw.mp4	0.0	77.88543510437012	0.07498407363891602
2	50.35780310630798	pulse	0	t		0.0	2.5	/experiments/knapen_AOT/AOT_stimuli/rescaled_final/0905_fw.mp4	0.0	77.95243620872498	
2	50.36578607559204	movie	1		248	0.0	2.5	/experiments/knapen_AOT/AOT_stimuli/rescaled_final/0905_fw.mp4	0.0	77.96041917800903	2.508720874786377
2	51.95829200744629	pulse	1	t		0.0	2.5	/experiments/knapen_AOT/AOT_stimuli/rescaled_final/0905_fw.mp4	0.0	79.55292510986328	
2	52.87450695037842	fix_post	2		12	0.0	2.5	/experiments/knapen_AOT/AOT_stimuli/rescaled_final/0905_fw.mp4	0.0	80.46914005279541	0.10006904602050781
3	52.974575996398926	fix_pre	0		120	1.0	2.5	/experiments/knapen_AOT/AOT_stimuli/rescaled_final/0585_rv.mp4	0.0	80.56920909881592	1.0000951290130615
3	53.558146953582764	pulse	0	t		1.0	2.5	/experiments/knapen_AOT/AOT_stimuli/rescaled_final/0585_rv.mp4	0.0	81.15278005599976	
3	53.97467112541199	movie	1		244	1.0	2.5	/experiments/knapen_AOT/AOT_stimuli/rescaled_final/0585_rv.mp4	0.0	81.56930422782898	2.500365972518921
3	55.1584370136261	pulse	1	t		1.0	2.5	/experiments/knapen_AOT/AOT_stimuli/rescaled_final/0585_rv.mp4	0.0	82.75307011604309	
3	56.47503709793091	fix_post	2		12	1.0	2.5	/experiments/knapen_AOT/AOT_stimuli/rescaled_final/0585_rv.mp4	0.0	84.0696702003479	0.10004186630249023
4	56.5750789642334	fix_pre	0		120	2.0	2.5	/experiments/knapen_AOT/AOT_stimuli/rescaled_final/2110_rv.mp4	0.0	84.16971206665039	1.0001630783081055
4	56.75869607925415	pulse	0	t		2.0	2.5	/experiments/knapen_AOT/AOT_stimuli/rescaled_final/2110_rv.mp4	0.0	84.35332918167114	
4	57.575242042541504	movie	1		245	2.0	2.5	/experiments/knapen_AOT/AOT_stimuli/rescaled_final/2110_rv.mp4	0.0	85.1698751449585	2.500382900238037
4	58.35901093482971	pulse	1	t		2.0	2.5	/experiments/knapen_AOT/AOT_stimuli/rescaled_final/2110_rv.mp4	0.0	85.9536440372467	
4	59.95911002159119	pulse	1	t		2.0	2.5	/experiments/knapen_AOT/AOT_stimuli/rescaled_final/2110_rv.mp4	0.0	87.55374312400818	
4	60.07562494277954	fix_post	2		12	2.0	2.5	/experiments/knapen_AOT/AOT_stimuli/rescaled_final/2110_rv.mp4	0.0	87.67025804519653	0.10000801086425781
5	60.1756329536438	fix_pre	0		120	3.0	2.5	/experiments/knapen_AOT/AOT_stimuli/rescaled_final/2018_rv.mp4	0.0	87.77026605606079	1.0001401901245117
5	61.17577314376831	movie	1		243	3.0	2.5	/experiments/knapen_AOT/AOT_stimuli/rescaled_final/2018_rv.mp4	0.0	88.7704062461853	2.4920217990875244
5	61.564048051834106	pulse	1	t		3.0	2.5	/experiments/knapen_AOT/AOT_stimuli/rescaled_final/2018_rv.mp4	0.0	89.1586811542511	
5	63.15958595275879	pulse	1	t		3.0	2.5	/experiments/knapen_AOT/AOT_stimuli/rescaled_final/2018_rv.mp4	0.0	90.75421905517578	
5	63.667794942855835	fix_post	2		12	3.0	2.5	/experiments/knapen_AOT/AOT_stimuli/rescaled_final/2018_rv.mp4	0.0	91.26242804527283	0.10000109672546387
6	63.7677960395813	fix_pre	0		120	4.0	2.5	/experiments/knapen_AOT/AOT_stimuli/rescaled_final/1428_rv.mp4	0.0	91.36242914199829	1.00022292137146
6	64.75982999801636	pulse	0	t		4.0	2.5	/experiments/knapen_AOT/AOT_stimuli/rescaled_final/1428_rv.mp4	0.0	92.35446310043335	
6	64.76801896095276	movie	1		249	4.0	2.5	/experiments/knapen_AOT/AOT_stimuli/rescaled_final/1428_rv.mp4	0.0	92.36265206336975	2.508679151535034
6	66.36101412773132	pulse	1	t		4.0	2.5	/experiments/knapen_AOT/AOT_stimuli/rescaled_final/1428_rv.mp4	0.0	93.95564723014832	
6	67.2766981124878	fix_post	2		12	4.0	2.5	/experiments/knapen_AOT/AOT_stimuli/rescaled_final/1428_rv.mp4	0.0	94.87133121490479	0.09997081756591797
7	67.37666893005371	fix_pre	0		120	5.0	2.5	blank	1.0	94.9713020324707	1.0001721382141113
7	67.96028709411621	pulse	0	t		5.0	2.5	blank	1.0	95.5549201965332	
7	68.37684106826782	movie	1		300	5.0	2.5	blank	1.0	95.97147417068481	2.5004210472106934
7	69.56057500839233	pulse	1	t		5.0	2.5	blank	1.0	97.15520811080933	
7	70.87726211547852	fix_post	2		12	5.0	2.5	blank	1.0	98.47189521789551	0.09998893737792969
8	70.97725105285645	fix_pre	0		120	6.0	2.5	/experiments/knapen_AOT/AOT_stimuli/rescaled_final/1938_fw.mp4	0.0	98.57188415527344	1.0002028942108154
8	71.16079711914062	pulse	0	t		6.0	2.5	/experiments/knapen_AOT/AOT_stimuli/rescaled_final/1938_fw.mp4	0.0	98.75543022155762	
8	71.97745394706726	movie	1		244	6.0	2.5	/experiments/knapen_AOT/AOT_stimuli/rescaled_final/1938_fw.mp4	0.0	99.57208704948425	2.500296115875244
8	72.76110005378723	pulse	1	t		6.0	2.5	/experiments/knapen_AOT/AOT_stimuli/rescaled_final/1938_fw.mp4	0.0	100.35573315620422	
8	74.36141204833984	pulse	1	t		6.0	2.5	/experiments/knapen_AOT/AOT_stimuli/rescaled_final/1938_fw.mp4	0.0	101.95604515075684	
8	74.4777500629425	fix_post	2		12	6.0	2.5	/experiments/knapen_AOT/AOT_stimuli/rescaled_final/1938_fw.mp4	0.0	102.0723831653595	0.10001206398010254
9	74.57776212692261	fix_pre	0		120	7.0	2.5	/experiments/knapen_AOT/AOT_stimuli/rescaled_final/0658_fw.mp4	0.0	102.1723952293396	1.000152826309204
9	75.57791495323181	movie	1		242	7.0	2.5	/experiments/knapen_AOT/AOT_stimuli/rescaled_final/0658_fw.mp4	0.0	103.1725480556488	2.4920551776885986
9	75.96214604377747	pulse	1	t		7.0	2.5	/experiments/knapen_AOT/AOT_stimuli/rescaled_final/0658_fw.mp4	0.0	103.55677914619446	
9	77.56180500984192	pulse	1	t		7.0	2.5	/experiments/knapen_AOT/AOT_stimuli/rescaled_final/0658_fw.mp4	0.0	105.15643811225891	
9	78.06997013092041	fix_post	2		12	7.0	2.5	/experiments/knapen_AOT/AOT_stimuli/rescaled_final/0658_fw.mp4	0.0	105.6646032333374	0.09999394416809082
10	78.1699640750885	fix_pre	0		120	8.0	2.5	/experiments/knapen_AOT/AOT_stimuli/rescaled_final/0538_fw.mp4	0.0	105.7645971775055	1.0001909732818604
10	79.1619701385498	pulse	0	t		8.0	2.5	/experiments/knapen_AOT/AOT_stimuli/rescaled_final/0538_fw.mp4	0.0	106.7566032409668	
10	79.17015504837036	movie	1		245	8.0	2.5	/experiments/knapen_AOT/AOT_stimuli/rescaled_final/0538_fw.mp4	0.0	106.76478815078735	2.5086419582366943
10	80.76354098320007	pulse	1	t		8.0	2.5	/experiments/knapen_AOT/AOT_stimuli/rescaled_final/0538_fw.mp4	0.0	108.35817408561707	
10	81.67879700660706	fix_post	2		12	8.0	2.5	/experiments/knapen_AOT/AOT_stimuli/rescaled_final/0538_fw.mp4	0.0	109.27343010902405	0.10006499290466309
11	81.77886199951172	fix_pre	0		120	9.0	2.5	/experiments/knapen_AOT/AOT_stimuli/rescaled_final/0240_rv.mp4	0.0	109.37349510192871	1.0001211166381836
11	82.36247491836548	pulse	0	t		9.0	2.5	/experiments/knapen_AOT/AOT_stimuli/rescaled_final/0240_rv.mp4	0.0	109.95710802078247	
11	82.7789831161499	movie	1		244	9.0	2.5	/experiments/knapen_AOT/AOT_stimuli/rescaled_final/0240_rv.mp4	0.0	110.3736162185669	2.5003488063812256
11	83.96287798881531	pulse	1	t		9.0	2.5	/experiments/knapen_AOT/AOT_stimuli/rescaled_final/0240_rv.mp4	0.0	111.5575110912323	
11	85.27933192253113	fix_post	2		12	9.0	2.5	/experiments/knapen_AOT/AOT_stimuli/rescaled_final/0240_rv.mp4	0.0	112.87396502494812	0.10013318061828613
12	85.37946510314941	fix_pre	0		120	10.0	2.5	/experiments/knapen_AOT/AOT_stimuli/rescaled_final/2166_rv.mp4	0.0	112.9740982055664	1.000082015991211
12	85.56295704841614	pulse	0	t		10.0	2.5	/experiments/knapen_AOT/AOT_stimuli/rescaled_final/2166_rv.mp4	0.0	113.15759015083313	
12	86.37954711914062	movie	1		244	10.0	2.5	/experiments/knapen_AOT/AOT_stimuli/rescaled_final/2166_rv.mp4	0.0	113.97418022155762	2.500356912612915
12	87.16316604614258	pulse	1	t		10.0	2.5	/experiments/knapen_AOT/AOT_stimuli/rescaled_final/2166_rv.mp4	0.0	114.75779914855957	
12	88.76734113693237	pulse	1	t		10.0	2.5	/experiments/knapen_AOT/AOT_stimuli/rescaled_final/2166_rv.mp4	0.0	116.36197423934937	
12	88.87990403175354	fix_post	2		12	10.0	2.5	/experiments/knapen_AOT/AOT_stimuli/rescaled_final/2166_rv.mp4	0.0	116.47453713417053	0.10000491142272949
13	88.97990894317627	fix_pre	0		119	11.0	2.5	/experiments/knapen_AOT/AOT_stimuli/rescaled_final/1641_rv.mp4	0.0	116.57454204559326	0.9918711185455322
13	89.9717800617218	movie	1		243	11.0	2.5	/experiments/knapen_AOT/AOT_stimuli/rescaled_final/1641_rv.mp4	0.0	117.5664131641388	2.500335931777954
13	90.36380410194397	pulse	1	t		11.0	2.5	/experiments/knapen_AOT/AOT_stimuli/rescaled_final/1641_rv.mp4	0.0	117.95843720436096	
13	91.96389102935791	pulse	1	t		11.0	2.5	/experiments/knapen_AOT/AOT_stimuli/rescaled_final/1641_rv.mp4	0.0	119.5585241317749	
13	92.47211599349976	fix_post	2		12	11.0	2.5	/experiments/knapen_AOT/AOT_stimuli/rescaled_final/1641_rv.mp4	0.0	120.06674909591675	0.09999608993530273
14	92.57211208343506	fix_pre	0		120	12.0	2.5	blank	1.0	120.16674518585205	1.000227928161621
14	93.56414794921875	pulse	0	t		12.0	2.5	blank	1.0	121.15878105163574	
14	93.57234001159668	movie	1		301	12.0	2.5	blank	1.0	121.16697311401367	2.5086259841918945
14	95.16435813903809	pulse	1	t		12.0	2.5	blank	1.0	122.75899124145508	
14	96.08096599578857	fix_post	2		12	12.0	2.5	blank	1.0	123.67559909820557	0.100067138671875
15	96.18103313446045	fix_pre	0		120	13.0	2.5	/experiments/knapen_AOT/AOT_stimuli/rescaled_final/0719_rv.mp4	0.0	123.77566623687744	1.00010085105896
15	96.75701093673706	pulse	0	t		13.0	2.5	/experiments/knapen_AOT/AOT_stimuli/rescaled_final/0719_rv.mp4	0.0	124.35164403915405	
15	97.18113398551941	movie	1		244	13.0	2.5	/experiments/knapen_AOT/AOT_stimuli/rescaled_final/0719_rv.mp4	0.0	124.7757670879364	2.500430107116699
15	98.35794806480408	pulse	1	t		13.0	2.5	/experiments/knapen_AOT/AOT_stimuli/rescaled_final/0719_rv.mp4	0.0	125.95258116722107	
15	99.68156409263611	fix_post	2		12	13.0	2.5	/experiments/knapen_AOT/AOT_stimuli/rescaled_final/0719_rv.mp4	0.0	127.2761971950531	0.09996390342712402
16	99.78152799606323	fix_pre	0		117	14.0	2.5	/experiments/knapen_AOT/AOT_stimuli/rescaled_final/0426_fw.mp4	0.0	127.37616109848022	1.0001671314239502
16	99.95762801170349	pulse	0	t		14.0	2.5	/experiments/knapen_AOT/AOT_stimuli/rescaled_final/0426_fw.mp4	0.0	127.55226111412048	
16	100.78169512748718	movie	1		244	14.0	2.5	/experiments/knapen_AOT/AOT_stimuli/rescaled_final/0426_fw.mp4	0.0	128.37632822990417	2.5003368854522705
16	101.55795812606812	pulse	1	t		14.0	2.5	/experiments/knapen_AOT/AOT_stimuli/rescaled_final/0426_fw.mp4	0.0	129.1525912284851	
16	103.15729308128357	pulse	1	t		14.0	2.5	/experiments/knapen_AOT/AOT_stimuli/rescaled_final/0426_fw.mp4	0.0	130.75192618370056	
16	103.28203201293945	fix_post	2		12	14.0	2.5	/experiments/knapen_AOT/AOT_stimuli/rescaled_final/0426_fw.mp4	0.0	130.87666511535645	0.10004591941833496
17	103.38207793235779	fix_pre	0		120	15.0	2.5	/experiments/knapen_AOT/AOT_stimuli/rescaled_final/1948_rv.mp4	0.0	130.97671103477478	1.0001311302185059
17	104.3822090625763	movie	1		243	15.0	2.5	/experiments/knapen_AOT/AOT_stimuli/rescaled_final/1948_rv.mp4	0.0	131.9768421649933	2.492048978805542
17	104.75741696357727	pulse	1	t		15.0	2.5	/experiments/knapen_AOT/AOT_stimuli/rescaled_final/1948_rv.mp4	0.0	132.35205006599426	
17	106.35774993896484	pulse	1	t		15.0	2.5	/experiments/knapen_AOT/AOT_stimuli/rescaled_final/1948_rv.mp4	0.0	133.95238304138184	
17	106.87425804138184	fix_post	2		12	15.0	2.5	/experiments/knapen_AOT/AOT_stimuli/rescaled_final/1948_rv.mp4	0.0	134.46889114379883	0.10000991821289062
18	106.97426795959473	fix_pre	0		119	16.0	2.5	/experiments/knapen_AOT/AOT_stimuli/rescaled_final/0757_fw.mp4	0.0	134.56890106201172	0.9918150901794434
18	107.9580090045929	pulse	0	t		16.0	2.5	/experiments/knapen_AOT/AOT_stimuli/rescaled_final/0757_fw.mp4	0.0	135.5526421070099	
18	107.96608304977417	movie	1		247	16.0	2.5	/experiments/knapen_AOT/AOT_stimuli/rescaled_final/0757_fw.mp4	0.0	135.56071615219116	2.5087430477142334
18	109.55955505371094	pulse	1	t		16.0	2.5	/experiments/knapen_AOT/AOT_stimuli/rescaled_final/0757_fw.mp4	0.0	137.15418815612793	
18	110.4748260974884	fix_post	2		12	16.0	2.5	/experiments/knapen_AOT/AOT_stimuli/rescaled_final/0757_fw.mp4	0.0	138.0694591999054	0.09999299049377441
19	110.57481908798218	fix_pre	0		120	17.0	2.5	/experiments/knapen_AOT/AOT_stimuli/rescaled_final/0262_rv.mp4	0.0	138.16945219039917	1.0001859664916992
19	111.15848708152771	pulse	0	t		17.0	2.5	/experiments/knapen_AOT/AOT_stimuli/rescaled_final/0262_rv.mp4	0.0	138.7531201839447	
19	111.57500505447388	movie	1		247	17.0	2.5	/experiments/knapen_AOT/AOT_stimuli/rescaled_final/0262_rv.mp4	0.0	139.16963815689087	2.5003180503845215
19	112.75876593589783	pulse	1	t		17.0	2.5	/experiments/knapen_AOT/AOT_stimuli/rescaled_final/0262_rv.mp4	0.0	140.35339903831482	
19	114.0753231048584	fix_post	2		12	17.0	2.5	/experiments/knapen_AOT/AOT_stimuli/rescaled_final/0262_rv.mp4	0.0	141.6699562072754	0.1000068187713623
20	114.17532992362976	fix_pre	0		120	18.0	2.5	/experiments/knapen_AOT/AOT_stimuli/rescaled_final/2084_rv.mp4	0.0	141.76996302604675	1.0001611709594727
20	114.35890007019043	pulse	0	t		18.0	2.5	/experiments/knapen_AOT/AOT_stimuli/rescaled_final/2084_rv.mp4	0.0	141.95353317260742	
20	115.17549109458923	movie	1		243	18.0	2.5	/experiments/knapen_AOT/AOT_stimuli/rescaled_final/2084_rv.mp4	0.0	142.77012419700623	2.500386953353882
20	115.95914602279663	pulse	1	t		18.0	2.5	/experiments/knapen_AOT/AOT_stimuli/rescaled_final/2084_rv.mp4	0.0	143.55377912521362	
20	117.55916905403137	pulse	1	t		18.0	2.5	/experiments/knapen_AOT/AOT_stimuli/rescaled_final/2084_rv.mp4	0.0	145.15380215644836	
20	117.67587804794312	fix_post	2		12	18.0	2.5	/experiments/knapen_AOT/AOT_stimuli/rescaled_final/2084_rv.mp4	0.0	145.2705111503601	0.10003209114074707
21	117.77591013908386	fix_pre	0		120	19.0	2.5	blank	1.0	145.37054324150085	1.000126838684082
21	118.77603697776794	movie	1		299	19.0	2.5	blank	1.0	146.37067008018494	2.492042064666748
21	119.15969705581665	pulse	1	t		19.0	2.5	blank	1.0	146.75433015823364	
21	120.75982713699341	pulse	1	t		19.0	2.5	blank	1.0	148.3544602394104	
21	121.26807904243469	fix_post	2		12	19.0	2.5	blank	1.0	148.86271214485168	0.10001802444458008
22	121.36809706687927	fix_pre	0		120	20.0	2.5	/experiments/knapen_AOT/AOT_stimuli/rescaled_final/0183_fw.mp4	0.0	148.96273016929626	1.0001399517059326
22	122.36016201972961	pulse	0	t		20.0	2.5	/experiments/knapen_AOT/AOT_stimuli/rescaled_final/0183_fw.mp4	0.0	149.9547951221466	
22	122.3682370185852	movie	1		245	20.0	2.5	/experiments/knapen_AOT/AOT_stimuli/rescaled_final/0183_fw.mp4	0.0	149.9628701210022	2.508739948272705
22	123.9607629776001	pulse	1	t		20.0	2.5	/experiments/knapen_AOT/AOT_stimuli/rescaled_final/0183_fw.mp4	0.0	151.5553960800171	
22	124.87697696685791	fix_post	2		12	20.0	2.5	/experiments/knapen_AOT/AOT_stimuli/rescaled_final/0183_fw.mp4	0.0	152.4716100692749	0.0999600887298584
23	124.97693705558777	fix_pre	0		120	21.0	2.5	/experiments/knapen_AOT/AOT_stimuli/rescaled_final/1805_rv.mp4	0.0	152.57157015800476	1.0001869201660156
23	125.5605981349945	pulse	0	t		21.0	2.5	/experiments/knapen_AOT/AOT_stimuli/rescaled_final/1805_rv.mp4	0.0	153.1552312374115	
23	125.97712397575378	movie	1		244	21.0	2.5	/experiments/knapen_AOT/AOT_stimuli/rescaled_final/1805_rv.mp4	0.0	153.57175707817078	2.5003881454467773
23	127.1609320640564	pulse	1	t		21.0	2.5	/experiments/knapen_AOT/AOT_stimuli/rescaled_final/1805_rv.mp4	0.0	154.7555651664734	
23	128.47751212120056	fix_post	2		12	21.0	2.5	/experiments/knapen_AOT/AOT_stimuli/rescaled_final/1805_rv.mp4	0.0	156.07214522361755	0.10003495216369629
24	128.57754707336426	fix_pre	0		120	22.0	2.5	/experiments/knapen_AOT/AOT_stimuli/rescaled_final/1939_fw.mp4	0.0	156.17218017578125	1.0001108646392822
24	128.7611620426178	pulse	0	t		22.0	2.5	/experiments/knapen_AOT/AOT_stimuli/rescaled_final/1939_fw.mp4	0.0	156.3557951450348	
24	129.57765793800354	movie	1		244	22.0	2.5	/experiments/knapen_AOT/AOT_stimuli/rescaled_final/1939_fw.mp4	0.0	157.17229104042053	2.500343084335327
24	130.36129999160767	pulse	1	t		22.0	2.5	/experiments/knapen_AOT/AOT_stimuli/rescaled_final/1939_fw.mp4	0.0	157.95593309402466	
24	131.96244597434998	pulse	1	t		22.0	2.5	/experiments/knapen_AOT/AOT_stimuli/rescaled_final/1939_fw.mp4	0.0	159.55707907676697	
24	132.07800102233887	fix_post	2		12	22.0	2.5	/experiments/knapen_AOT/AOT_stimuli/rescaled_final/1939_fw.mp4	0.0	159.67263412475586	0.10002803802490234
25	132.17802906036377	fix_pre	0		120	23.0	2.5	/experiments/knapen_AOT/AOT_stimuli/rescaled_final/1911_fw.mp4	0.0	159.77266216278076	1.000182867050171
25	133.17821192741394	movie	1		243	23.0	2.5	/experiments/knapen_AOT/AOT_stimuli/rescaled_final/1911_fw.mp4	0.0	160.77284502983093	2.4920201301574707
25	133.5623459815979	pulse	1	t		23.0	2.5	/experiments/knapen_AOT/AOT_stimuli/rescaled_final/1911_fw.mp4	0.0	161.1569790840149	
25	135.16214513778687	pulse	1	t		23.0	2.5	/experiments/knapen_AOT/AOT_stimuli/rescaled_final/1911_fw.mp4	0.0	162.75677824020386	
25	135.6702320575714	fix_post	2		12	23.0	2.5	/experiments/knapen_AOT/AOT_stimuli/rescaled_final/1911_fw.mp4	0.0	163.2648651599884	0.09999799728393555
26	135.77023005485535	fix_pre	0		120	24.0	2.5	/experiments/knapen_AOT/AOT_stimuli/rescaled_final/1001_fw.mp4	0.0	163.36486315727234	1.0001630783081055
26	136.76233911514282	pulse	0	t		24.0	2.5	/experiments/knapen_AOT/AOT_stimuli/rescaled_final/1001_fw.mp4	0.0	164.35697221755981	
26	136.77039313316345	movie	1		245	24.0	2.5	/experiments/knapen_AOT/AOT_stimuli/rescaled_final/1001_fw.mp4	0.0	164.36502623558044	2.50870680809021
26	138.36300802230835	pulse	1	t		24.0	2.5	/experiments/knapen_AOT/AOT_stimuli/rescaled_final/1001_fw.mp4	0.0	165.95764112472534	
26	139.27909994125366	fix_post	2		12	24.0	2.5	/experiments/knapen_AOT/AOT_stimuli/rescaled_final/1001_fw.mp4	0.0	166.87373304367065	0.10000300407409668
27	139.37910294532776	fix_pre	0		120	25.0	2.5	/experiments/knapen_AOT/AOT_stimuli/rescaled_final/1584_fw.mp4	0.0	166.97373604774475	1.000195026397705
27	139.96275806427002	pulse	0	t		25.0	2.5	/experiments/knapen_AOT/AOT_stimuli/rescaled_final/1584_fw.mp4	0.0	167.557391166687	
27	140.37929797172546	movie	1		244	25.0	2.5	/experiments/knapen_AOT/AOT_stimuli/rescaled_final/1584_fw.mp4	0.0	167.97393107414246	2.5003550052642822
27	141.563157081604	pulse	1	t		25.0	2.5	/experiments/knapen_AOT/AOT_stimuli/rescaled_final/1584_fw.mp4	0.0	169.157790184021	
27	142.87965297698975	fix_post	2		12	25.0	2.5	/experiments/knapen_AOT/AOT_stimuli/rescaled_final/1584_fw.mp4	0.0	170.47428607940674	0.10001802444458008
28	142.97967100143433	fix_pre	0		120	26.0	2.5	/experiments/knapen_AOT/AOT_stimuli/rescaled_final/1013_fw.mp4	0.0	170.57430410385132	1.0001261234283447
28	143.16326594352722	pulse	0	t		26.0	2.5	/experiments/knapen_AOT/AOT_stimuli/rescaled_final/1013_fw.mp4	0.0	170.7578990459442	
28	143.97979712486267	movie	1		244	26.0	2.5	/experiments/knapen_AOT/AOT_stimuli/rescaled_final/1013_fw.mp4	0.0	171.57443022727966	2.500372886657715
28	144.76336908340454	pulse	1	t		26.0	2.5	/experiments/knapen_AOT/AOT_stimuli/rescaled_final/1013_fw.mp4	0.0	172.35800218582153	
28	146.3635699748993	pulse	1	t		26.0	2.5	/experiments/knapen_AOT/AOT_stimuli/rescaled_final/1013_fw.mp4	0.0	173.95820307731628	
28	146.48017001152039	fix_post	2		12	26.0	2.5	/experiments/knapen_AOT/AOT_stimuli/rescaled_final/1013_fw.mp4	0.0	174.07480311393738	0.1000211238861084
29	146.5801911354065	fix_pre	0		120	27.0	2.5	/experiments/knapen_AOT/AOT_stimuli/rescaled_final/1895_fw.mp4	0.0	174.1748242378235	1.000168800354004
29	147.5803599357605	movie	1		245	27.0	2.5	/experiments/knapen_AOT/AOT_stimuli/rescaled_final/1895_fw.mp4	0.0	175.1749930381775	2.4919991493225098
29	147.9646511077881	pulse	1	t		27.0	2.5	/experiments/knapen_AOT/AOT_stimuli/rescaled_final/1895_fw.mp4	0.0	175.55928421020508	
29	149.55697512626648	pulse	1	t		27.0	2.5	/experiments/knapen_AOT/AOT_stimuli/rescaled_final/1895_fw.mp4	0.0	177.15160822868347	
29	150.072359085083	fix_post	2		12	27.0	2.5	/experiments/knapen_AOT/AOT_stimuli/rescaled_final/1895_fw.mp4	0.0	177.6669921875	0.10002803802490234
30	150.1723871231079	fix_pre	0		120	28.0	2.5	blank	1.0	177.7670202255249	1.0002470016479492
30	151.15695691108704	pulse	0	t		28.0	2.5	blank	1.0	178.75159001350403	
30	151.17263412475586	movie	1		301	28.0	2.5	blank	1.0	178.76726722717285	2.5086119174957275
30	152.7571530342102	pulse	1	t		28.0	2.5	blank	1.0	180.3517861366272	
30	153.6812460422516	fix_post	2		12	28.0	2.5	blank	1.0	181.27587914466858	0.10003399848937988
31	153.78128004074097	fix_pre	0		120	29.0	2.5	/experiments/knapen_AOT/AOT_stimuli/rescaled_final/1939_fw.mp4	0.0	181.37591314315796	1.000128984451294
31	154.35734391212463	pulse	0	t		29.0	2.5	/experiments/knapen_AOT/AOT_stimuli/rescaled_final/1939_fw.mp4	0.0	181.95197701454163	
31	154.78140902519226	movie	1		244	29.0	2.5	/experiments/knapen_AOT/AOT_stimuli/rescaled_final/1939_fw.mp4	0.0	182.37604212760925	2.500391960144043
31	155.95722198486328	pulse	1	t		29.0	2.5	/experiments/knapen_AOT/AOT_stimuli/rescaled_final/1939_fw.mp4	0.0	183.55185508728027	
31	157.2818009853363	fix_post	2		12	29.0	2.5	/experiments/knapen_AOT/AOT_stimuli/rescaled_final/1939_fw.mp4	0.0	184.8764340877533	0.10000896453857422
32	157.38180994987488	fix_pre	0		120	30.0	2.5	/experiments/knapen_AOT/AOT_stimuli/rescaled_final/1506_fw.mp4	0.0	184.97644305229187	1.000171184539795
32	157.5569760799408	pulse	0	t		30.0	2.5	/experiments/knapen_AOT/AOT_stimuli/rescaled_final/1506_fw.mp4	0.0	185.1516091823578	
32	158.38198113441467	movie	1		239	30.0	2.5	/experiments/knapen_AOT/AOT_stimuli/rescaled_final/1506_fw.mp4	0.0	185.97661423683167	2.492029905319214
32	159.1572070121765	pulse	1	t		30.0	2.5	/experiments/knapen_AOT/AOT_stimuli/rescaled_final/1506_fw.mp4	0.0	186.7518401145935	
32	160.7574760913849	pulse	1	t		30.0	2.5	/experiments/knapen_AOT/AOT_stimuli/rescaled_final/1506_fw.mp4	0.0	188.35210919380188	
32	160.8740110397339	fix_post	2		13	30.0	2.5	/experiments/knapen_AOT/AOT_stimuli/rescaled_final/1506_fw.mp4	0.0	188.46864414215088	0.10834693908691406
33	160.9823579788208	fix_pre	0		119	31.0	2.5	/experiments/knapen_AOT/AOT_stimuli/rescaled_final/0267_fw.mp4	0.0	188.5769910812378	0.9917881488800049
33	161.9741461277008	movie	1		246	31.0	2.5	/experiments/knapen_AOT/AOT_stimuli/rescaled_final/0267_fw.mp4	0.0	189.5687792301178	2.5003678798675537
33	162.35839796066284	pulse	1	t		31.0	2.5	/experiments/knapen_AOT/AOT_stimuli/rescaled_final/0267_fw.mp4	0.0	189.95303106307983	
33	163.9580249786377	pulse	1	t		31.0	2.5	/experiments/knapen_AOT/AOT_stimuli/rescaled_final/0267_fw.mp4	0.0	191.5526580810547	
33	164.47451400756836	fix_post	2		12	31.0	2.5	/experiments/knapen_AOT/AOT_stimuli/rescaled_final/0267_fw.mp4	0.0	192.06914710998535	0.1000680923461914
34	164.57458209991455	fix_pre	0		119	32.0	2.5	/experiments/knapen_AOT/AOT_stimuli/rescaled_final/2015_fw.mp4	0.0	192.16921520233154	0.9917829036712646
34	165.5582320690155	pulse	0	t		32.0	2.5	/experiments/knapen_AOT/AOT_stimuli/rescaled_final/2015_fw.mp4	0.0	193.1528651714325	
34	165.56636500358582	movie	1		244	32.0	2.5	/experiments/knapen_AOT/AOT_stimuli/rescaled_final/2015_fw.mp4	0.0	193.1609981060028	2.5087480545043945
34	167.1598780155182	pulse	1	t		32.0	2.5	/experiments/knapen_AOT/AOT_stimuli/rescaled_final/2015_fw.mp4	0.0	194.75451111793518	
34	168.0751130580902	fix_post	2		12	32.0	2.5	/experiments/knapen_AOT/AOT_stimuli/rescaled_final/2015_fw.mp4	0.0	195.6697461605072	0.09996986389160156
35	168.1750829219818	fix_pre	0		120	33.0	2.5	/experiments/knapen_AOT/AOT_stimuli/rescaled_final/1428_fw.mp4	0.0	195.7697160243988	1.0001699924468994
35	168.7587490081787	pulse	0	t		33.0	2.5	/experiments/knapen_AOT/AOT_stimuli/rescaled_final/1428_fw.mp4	0.0	196.3533821105957	
35	169.1752529144287	movie	1		248	33.0	2.5	/experiments/knapen_AOT/AOT_stimuli/rescaled_final/1428_fw.mp4	0.0	196.7698860168457	2.5003600120544434
35	170.35903191566467	pulse	1	t		33.0	2.5	/experiments/knapen_AOT/AOT_stimuli/rescaled_final/1428_fw.mp4	0.0	197.95366501808167	
35	171.67561292648315	fix_post	2		12	33.0	2.5	/experiments/knapen_AOT/AOT_stimuli/rescaled_final/1428_fw.mp4	0.0	199.27024602890015	0.10004210472106934
36	171.77565503120422	fix_pre	0		120	34.0	2.5	/experiments/knapen_AOT/AOT_stimuli/rescaled_final/0949_rv.mp4	0.0	199.37028813362122	1.0001590251922607
36	171.9592571258545	pulse	0	t		34.0	2.5	/experiments/knapen_AOT/AOT_stimuli/rescaled_final/0949_rv.mp4	0.0	199.55389022827148	
36	172.77581405639648	movie	1		244	34.0	2.5	/experiments/knapen_AOT/AOT_stimuli/rescaled_final/0949_rv.mp4	0.0	200.37044715881348	2.500319004058838
36	173.55939602851868	pulse	1	t		34.0	2.5	/experiments/knapen_AOT/AOT_stimuli/rescaled_final/0949_rv.mp4	0.0	201.15402913093567	
36	175.15967202186584	pulse	1	t		34.0	2.5	/experiments/knapen_AOT/AOT_stimuli/rescaled_final/0949_rv.mp4	0.0	202.75430512428284	
36	175.27613306045532	fix_post	2		12	34.0	2.5	/experiments/knapen_AOT/AOT_stimuli/rescaled_final/0949_rv.mp4	0.0	202.87076616287231	0.10001897811889648
37	175.37615203857422	fix_pre	0		120	35.0	2.5	blank	1.0	202.9707851409912	1.000190019607544
37	176.37634205818176	movie	1		299	35.0	2.5	blank	1.0	203.97097516059875	2.492053985595703
37	176.7598991394043	pulse	1	t		35.0	2.5	blank	1.0	204.3545322418213	
37	178.36012291908264	pulse	1	t		35.0	2.5	blank	1.0	205.95475602149963	
37	178.86839604377747	fix_post	2		12	35.0	2.5	blank	1.0	206.46302914619446	0.10001707077026367
38	178.96841311454773	fix_pre	0		120	36.0	2.5	/experiments/knapen_AOT/AOT_stimuli/rescaled_final/0121_rv.mp4	0.0	206.56304621696472	1.000108003616333
38	179.96041798591614	pulse	0	t		36.0	2.5	/experiments/knapen_AOT/AOT_stimuli/rescaled_final/0121_rv.mp4	0.0	207.55505108833313	
38	179.96852111816406	movie	1		244	36.0	2.5	/experiments/knapen_AOT/AOT_stimuli/rescaled_final/0121_rv.mp4	0.0	207.56315422058105	2.5087058544158936
38	181.56126403808594	pulse	1	t		36.0	2.5	/experiments/knapen_AOT/AOT_stimuli/rescaled_final/0121_rv.mp4	0.0	209.15589714050293	
38	182.47722697257996	fix_post	2		12	36.0	2.5	/experiments/knapen_AOT/AOT_stimuli/rescaled_final/0121_rv.mp4	0.0	210.07186007499695	0.09999203681945801
39	182.5772190093994	fix_pre	0		120	37.0	2.5	/experiments/knapen_AOT/AOT_stimuli/rescaled_final/2016_rv.mp4	0.0	210.1718521118164	1.0001890659332275
39	183.1609411239624	pulse	0	t		37.0	2.5	/experiments/knapen_AOT/AOT_stimuli/rescaled_final/2016_rv.mp4	0.0	210.7555742263794	
39	183.57740807533264	movie	1		243	37.0	2.5	/experiments/knapen_AOT/AOT_stimuli/rescaled_final/2016_rv.mp4	0.0	211.17204117774963	2.5003280639648438
39	184.76119804382324	pulse	1	t		37.0	2.5	/experiments/knapen_AOT/AOT_stimuli/rescaled_final/2016_rv.mp4	0.0	212.35583114624023	
39	186.07773613929749	fix_post	2		12	37.0	2.5	/experiments/knapen_AOT/AOT_stimuli/rescaled_final/2016_rv.mp4	0.0	213.67236924171448	0.10007691383361816
40	186.1778130531311	fix_pre	0		120	38.0	2.5	/experiments/knapen_AOT/AOT_stimuli/rescaled_final/1805_fw.mp4	0.0	213.7724461555481	1.000133991241455
40	186.3612871170044	pulse	0	t		38.0	2.5	/experiments/knapen_AOT/AOT_stimuli/rescaled_final/1805_fw.mp4	0.0	213.9559202194214	
40	187.17794704437256	movie	1		244	38.0	2.5	/experiments/knapen_AOT/AOT_stimuli/rescaled_final/1805_fw.mp4	0.0	214.77258014678955	2.500354051589966
40	187.96166396141052	pulse	1	t		38.0	2.5	/experiments/knapen_AOT/AOT_stimuli/rescaled_final/1805_fw.mp4	0.0	215.55629706382751	
40	189.5592920780182	pulse	1	t		38.0	2.5	/experiments/knapen_AOT/AOT_stimuli/rescaled_final/1805_fw.mp4	0.0	217.15392518043518	
40	189.67830109596252	fix_post	2		12	38.0	2.5	/experiments/knapen_AOT/AOT_stimuli/rescaled_final/1805_fw.mp4	0.0	217.27293419837952	0.10004687309265137
41	189.77834796905518	fix_pre	0		120	39.0	2.5	/experiments/knapen_AOT/AOT_stimuli/rescaled_final/0908_rv.mp4	0.0	217.37298107147217	1.000133991241455
41	190.77848196029663	movie	1		242	39.0	2.5	/experiments/knapen_AOT/AOT_stimuli/rescaled_final/0908_rv.mp4	0.0	218.37311506271362	2.4920401573181152
41	191.16265201568604	pulse	1	t		39.0	2.5	/experiments/knapen_AOT/AOT_stimuli/rescaled_final/0908_rv.mp4	0.0	218.75728511810303	
41	192.76225209236145	pulse	1	t		39.0	2.5	/experiments/knapen_AOT/AOT_stimuli/rescaled_final/0908_rv.mp4	0.0	220.35688519477844	
41	193.27052211761475	fix_post	2		12	39.0	2.5	/experiments/knapen_AOT/AOT_stimuli/rescaled_final/0908_rv.mp4	0.0	220.86515522003174	0.10001492500305176
42	193.3705370426178	fix_pre	0		120	40.0	2.5	/experiments/knapen_AOT/AOT_stimuli/rescaled_final/2097_fw.mp4	0.0	220.9651701450348	1.000201940536499
42	194.3626139163971	pulse	0	t		40.0	2.5	/experiments/knapen_AOT/AOT_stimuli/rescaled_final/2097_fw.mp4	0.0	221.9572470188141	
42	194.3707389831543	movie	1		244	40.0	2.5	/experiments/knapen_AOT/AOT_stimuli/rescaled_final/2097_fw.mp4	0.0	221.9653720855713	2.5086259841918945
42	195.96331691741943	pulse	1	t		40.0	2.5	/experiments/knapen_AOT/AOT_stimuli/rescaled_final/2097_fw.mp4	0.0	223.55795001983643	
42	196.8793649673462	fix_post	2		12	40.0	2.5	/experiments/knapen_AOT/AOT_stimuli/rescaled_final/2097_fw.mp4	0.0	224.47399806976318	0.10004401206970215
43	196.9794089794159	fix_pre	0		120	41.0	2.5	blank	1.0	224.57404208183289	1.0001671314239502
43	197.56308794021606	pulse	0	t		41.0	2.5	blank	1.0	225.15772104263306	
43	197.97957611083984	movie	1		300	41.0	2.5	blank	1.0	225.57420921325684	2.500337839126587
43	199.1632969379425	pulse	1	t		41.0	2.5	blank	1.0	226.7579300403595	
43	200.47991394996643	fix_post	2		12	41.0	2.5	blank	1.0	228.07454705238342	0.10004997253417969
44	200.5799639225006	fix_pre	0		120	42.0	2.5	/experiments/knapen_AOT/AOT_stimuli/rescaled_final/0388_fw.mp4	0.0	228.1745970249176	1.0001051425933838
44	200.7635691165924	pulse	0	t		42.0	2.5	/experiments/knapen_AOT/AOT_stimuli/rescaled_final/0388_fw.mp4	0.0	228.3582022190094	
44	201.580069065094	movie	1		245	42.0	2.5	/experiments/knapen_AOT/AOT_stimuli/rescaled_final/0388_fw.mp4	0.0	229.174702167511	2.5004239082336426
44	202.36385798454285	pulse	1	t		42.0	2.5	/experiments/knapen_AOT/AOT_stimuli/rescaled_final/0388_fw.mp4	0.0	229.95849108695984	
44	203.9616401195526	pulse	1	t		42.0	2.5	/experiments/knapen_AOT/AOT_stimuli/rescaled_final/0388_fw.mp4	0.0	231.5562732219696	
44	204.08049297332764	fix_post	2		12	42.0	2.5	/experiments/knapen_AOT/AOT_stimuli/rescaled_final/0388_fw.mp4	0.0	231.67512607574463	0.10003495216369629
45	204.18052792549133	fix_pre	0		120	43.0	2.5	/experiments/knapen_AOT/AOT_stimuli/rescaled_final/0294_fw.mp4	0.0	231.77516102790833	1.0000782012939453
45	205.18060612678528	movie	1		243	43.0	2.5	/experiments/knapen_AOT/AOT_stimuli/rescaled_final/0294_fw.mp4	0.0	232.77523922920227	2.4920217990875244
45	205.56557297706604	pulse	1	t		43.0	2.5	/experiments/knapen_AOT/AOT_stimuli/rescaled_final/0294_fw.mp4	0.0	233.16020607948303	
45	207.1645290851593	pulse	1	t		43.0	2.5	/experiments/knapen_AOT/AOT_stimuli/rescaled_final/0294_fw.mp4	0.0	234.7591621875763	
45	207.6726279258728	fix_post	2		12	43.0	2.5	/experiments/knapen_AOT/AOT_stimuli/rescaled_final/0294_fw.mp4	0.0	235.2672610282898	0.10004615783691406
46	207.77267408370972	fix_pre	0		120	44.0	2.5	/experiments/knapen_AOT/AOT_stimuli/rescaled_final/1181_rv.mp4	0.0	235.3673071861267	1.0002219676971436
46	208.76478791236877	pulse	0	t		44.0	2.5	/experiments/knapen_AOT/AOT_stimuli/rescaled_final/1181_rv.mp4	0.0	236.35942101478577	
46	208.77289605140686	movie	1		245	44.0	2.5	/experiments/knapen_AOT/AOT_stimuli/rescaled_final/1181_rv.mp4	0.0	236.36752915382385	2.5086190700531006
46	210.36546301841736	pulse	1	t		44.0	2.5	/experiments/knapen_AOT/AOT_stimuli/rescaled_final/1181_rv.mp4	0.0	237.96009612083435	
46	211.28151512145996	fix_post	2		12	44.0	2.5	/experiments/knapen_AOT/AOT_stimuli/rescaled_final/1181_rv.mp4	0.0	238.87614822387695	0.10007596015930176
47	211.38159108161926	fix_pre	0		120	45.0	2.5	/experiments/knapen_AOT/AOT_stimuli/rescaled_final/1911_rv.mp4	0.0	238.97622418403625	1.0001368522644043
47	211.95774006843567	pulse	0	t		45.0	2.5	/experiments/knapen_AOT/AOT_stimuli/rescaled_final/1911_rv.mp4	0.0	239.55237317085266	
47	212.38172793388367	movie	1		244	45.0	2.5	/experiments/knapen_AOT/AOT_stimuli/rescaled_final/1911_rv.mp4	0.0	239.97636103630066	2.5003390312194824
47	213.55763602256775	pulse	1	t		45.0	2.5	/experiments/knapen_AOT/AOT_stimuli/rescaled_final/1911_rv.mp4	0.0	241.15226912498474	
47	214.88206696510315	fix_post	2		12	45.0	2.5	/experiments/knapen_AOT/AOT_stimuli/rescaled_final/1911_rv.mp4	0.0	242.47670006752014	0.10004496574401855
48	214.98211193084717	fix_pre	0		119	46.0	2.5	/experiments/knapen_AOT/AOT_stimuli/rescaled_final/1153_rv.mp4	0.0	242.57674503326416	1.0001060962677002
48	215.15813899040222	pulse	0	t		46.0	2.5	/experiments/knapen_AOT/AOT_stimuli/rescaled_final/1153_rv.mp4	0.0	242.7527720928192	
48	215.98221802711487	movie	1		245	46.0	2.5	/experiments/knapen_AOT/AOT_stimuli/rescaled_final/1153_rv.mp4	0.0	243.57685112953186	2.5003890991210938
48	216.75758004188538	pulse	1	t		46.0	2.5	/experiments/knapen_AOT/AOT_stimuli/rescaled_final/1153_rv.mp4	0.0	244.35221314430237	
48	218.3577220439911	pulse	1	t		46.0	2.5	/experiments/knapen_AOT/AOT_stimuli/rescaled_final/1153_rv.mp4	0.0	245.95235514640808	
48	218.48260712623596	fix_post	2		12	46.0	2.5	/experiments/knapen_AOT/AOT_stimuli/rescaled_final/1153_rv.mp4	0.0	246.07724022865295	0.10002398490905762
49	218.58263111114502	fix_pre	0		120	47.0	2.5	/experiments/knapen_AOT/AOT_stimuli/rescaled_final/0443_fw.mp4	0.0	246.177264213562	1.0001568794250488
49	219.58278799057007	movie	1		244	47.0	2.5	/experiments/knapen_AOT/AOT_stimuli/rescaled_final/0443_fw.mp4	0.0	247.17742109298706	2.49202299118042
49	219.95808291435242	pulse	1	t		47.0	2.5	/experiments/knapen_AOT/AOT_stimuli/rescaled_final/0443_fw.mp4	0.0	247.5527160167694	
49	221.5583529472351	pulse	1	t		47.0	2.5	/experiments/knapen_AOT/AOT_stimuli/rescaled_final/0443_fw.mp4	0.0	249.1529860496521	
49	222.0748109817505	fix_post	2		12	47.0	2.5	/experiments/knapen_AOT/AOT_stimuli/rescaled_final/0443_fw.mp4	0.0	249.66944408416748	0.10001516342163086
50	222.17482614517212	fix_pre	0		119	48.0	2.5	blank	1.0	249.7694592475891	0.9918267726898193
50	223.1584551334381	pulse	0	t		48.0	2.5	blank	1.0	250.7530882358551	
50	223.16665291786194	movie	1		301	48.0	2.5	blank	1.0	250.76128602027893	2.5086820125579834
50	224.75881004333496	pulse	1	t		48.0	2.5	blank	1.0	252.35344314575195	
50	225.67533493041992	fix_post	2		12	48.0	2.5	blank	1.0	253.2699680328369	0.09999608993530273
51	225.77533102035522	fix_pre	0		120	49.0	2.5	/experiments/knapen_AOT/AOT_stimuli/rescaled_final/0385_rv.mp4	0.0	253.36996412277222	1.0002110004425049
51	226.35897302627563	pulse	0	t		49.0	2.5	/experiments/knapen_AOT/AOT_stimuli/rescaled_final/0385_rv.mp4	0.0	253.95360612869263	
51	226.77554202079773	movie	1		245	49.0	2.5	/experiments/knapen_AOT/AOT_stimuli/rescaled_final/0385_rv.mp4	0.0	254.37017512321472	2.500325918197632
51	227.95925211906433	pulse	1	t		49.0	2.5	/experiments/knapen_AOT/AOT_stimuli/rescaled_final/0385_rv.mp4	0.0	255.55388522148132	
51	229.27586793899536	fix_post	2		12	49.0	2.5	/experiments/knapen_AOT/AOT_stimuli/rescaled_final/0385_rv.mp4	0.0	256.87050104141235	0.10002613067626953
52	229.37589406967163	fix_pre	0		120	50.0	2.5	/experiments/knapen_AOT/AOT_stimuli/rescaled_final/0921_fw.mp4	0.0	256.9705271720886	1.0001769065856934
52	229.55939507484436	pulse	0	t		50.0	2.5	/experiments/knapen_AOT/AOT_stimuli/rescaled_final/0921_fw.mp4	0.0	257.15402817726135	
52	230.37607097625732	movie	1		245	50.0	2.5	/experiments/knapen_AOT/AOT_stimuli/rescaled_final/0921_fw.mp4	0.0	257.9707040786743	2.500364065170288
52	231.15982794761658	pulse	1	t		50.0	2.5	/experiments/knapen_AOT/AOT_stimuli/rescaled_final/0921_fw.mp4	0.0	258.75446105003357	
52	232.7573220729828	pulse	1	t		50.0	2.5	/experiments/knapen_AOT/AOT_stimuli/rescaled_final/0921_fw.mp4	0.0	260.3519551753998	
52	232.8764350414276	fix_post	2		12	50.0	2.5	/experiments/knapen_AOT/AOT_stimuli/rescaled_final/0921_fw.mp4	0.0	260.4710681438446	0.10003495216369629
53	232.9764699935913	fix_pre	0		120	51.0	2.5	/experiments/knapen_AOT/AOT_stimuli/rescaled_final/0025_rv.mp4	0.0	260.5711030960083	1.0001211166381836
53	233.9765911102295	movie	1		243	51.0	2.5	/experiments/knapen_AOT/AOT_stimuli/rescaled_final/0025_rv.mp4	0.0	261.5712242126465	2.4920108318328857
53	234.36069107055664	pulse	1	t		51.0	2.5	/experiments/knapen_AOT/AOT_stimuli/rescaled_final/0025_rv.mp4	0.0	261.95532417297363	
53	235.9603500366211	pulse	1	t		51.0	2.5	/experiments/knapen_AOT/AOT_stimuli/rescaled_final/0025_rv.mp4	0.0	263.5549831390381	
53	236.46860194206238	fix_post	2		12	51.0	2.5	/experiments/knapen_AOT/AOT_stimuli/rescaled_final/0025_rv.mp4	0.0	264.06323504447937	0.10002017021179199
54	236.56862211227417	fix_pre	0		120	52.0	2.5	/experiments/knapen_AOT/AOT_stimuli/rescaled_final/1851_fw.mp4	0.0	264.16325521469116	1.0001888275146484
54	237.5606451034546	pulse	0	t		52.0	2.5	/experiments/knapen_AOT/AOT_stimuli/rescaled_final/1851_fw.mp4	0.0	265.1552782058716	
54	237.56881093978882	movie	1		246	52.0	2.5	/experiments/knapen_AOT/AOT_stimuli/rescaled_final/1851_fw.mp4	0.0	265.1634440422058	2.5086891651153564
54	239.1620090007782	pulse	1	t		52.0	2.5	/experiments/knapen_AOT/AOT_stimuli/rescaled_final/1851_fw.mp4	0.0	266.7566421031952	
54	240.07750010490417	fix_post	2		12	52.0	2.5	/experiments/knapen_AOT/AOT_stimuli/rescaled_final/1851_fw.mp4	0.0	267.67213320732117	0.10003280639648438
55	240.17753291130066	fix_pre	0		120	53.0	2.5	/experiments/knapen_AOT/AOT_stimuli/rescaled_final/1641_fw.mp4	0.0	267.77216601371765	1.0001871585845947
55	240.7612099647522	pulse	0	t		53.0	2.5	/experiments/knapen_AOT/AOT_stimuli/rescaled_final/1641_fw.mp4	0.0	268.3558430671692	
55	241.17772006988525	movie	1		243	53.0	2.5	/experiments/knapen_AOT/AOT_stimuli/rescaled_final/1641_fw.mp4	0.0	268.77235317230225	2.5003058910369873
55	242.36155891418457	pulse	1	t		53.0	2.5	/experiments/knapen_AOT/AOT_stimuli/rescaled_final/1641_fw.mp4	0.0	269.95619201660156	
55	243.67802596092224	fix_post	2		12	53.0	2.5	/experiments/knapen_AOT/AOT_stimuli/rescaled_final/1641_fw.mp4	0.0	271.27265906333923	0.10001206398010254
56	243.77803802490234	fix_pre	0		120	54.0	2.5	/experiments/knapen_AOT/AOT_stimuli/rescaled_final/0924_fw.mp4	0.0	271.37267112731934	1.000166893005371
56	243.96156907081604	pulse	0	t		54.0	2.5	/experiments/knapen_AOT/AOT_stimuli/rescaled_final/0924_fw.mp4	0.0	271.55620217323303	
56	244.77820491790771	movie	1		244	54.0	2.5	/experiments/knapen_AOT/AOT_stimuli/rescaled_final/0924_fw.mp4	0.0	272.3728380203247	2.5003700256347656
56	245.56187510490417	pulse	1	t		54.0	2.5	/experiments/knapen_AOT/AOT_stimuli/rescaled_final/0924_fw.mp4	0.0	273.15650820732117	
56	247.16221404075623	pulse	1	t		54.0	2.5	/experiments/knapen_AOT/AOT_stimuli/rescaled_final/0924_fw.mp4	0.0	274.7568471431732	
56	247.27857494354248	fix_post	2		12	54.0	2.5	/experiments/knapen_AOT/AOT_stimuli/rescaled_final/0924_fw.mp4	0.0	274.8732080459595	0.09999799728393555
57	247.37857294082642	fix_pre	0		120	55.0	2.5	blank	1.0	274.9732060432434	1.0001780986785889
57	248.378751039505	movie	1		299	55.0	2.5	blank	1.0	275.973384141922	2.492016077041626
57	248.7623279094696	pulse	1	t		55.0	2.5	blank	1.0	276.3569610118866	
57	250.36248993873596	pulse	1	t		55.0	2.5	blank	1.0	277.95712304115295	
57	250.87076711654663	fix_post	2		12	55.0	2.5	blank	1.0	278.4654002189636	0.10002398490905762
58	250.9707911014557	fix_pre	0		120	56.0	2.5	/experiments/knapen_AOT/AOT_stimuli/rescaled_final/0623_fw.mp4	0.0	278.5654242038727	1.0001568794250488
58	251.96278595924377	pulse	0	t		56.0	2.5	/experiments/knapen_AOT/AOT_stimuli/rescaled_final/0623_fw.mp4	0.0	279.55741906166077	
58	251.97094798088074	movie	1		244	56.0	2.5	/experiments/knapen_AOT/AOT_stimuli/rescaled_final/0623_fw.mp4	0.0	279.56558108329773	2.508674144744873
58	253.5642910003662	pulse	1	t		56.0	2.5	/experiments/knapen_AOT/AOT_stimuli/rescaled_final/0623_fw.mp4	0.0	281.1589241027832	
58	254.4796221256256	fix_post	2		12	56.0	2.5	/experiments/knapen_AOT/AOT_stimuli/rescaled_final/0623_fw.mp4	0.0	282.0742552280426	0.10002398490905762
59	254.57964611053467	fix_pre	0		120	57.0	2.5	/experiments/knapen_AOT/AOT_stimuli/rescaled_final/1175_fw.mp4	0.0	282.17427921295166	1.0001490116119385
59	255.16329407691956	pulse	0	t		57.0	2.5	/experiments/knapen_AOT/AOT_stimuli/rescaled_final/1175_fw.mp4	0.0	282.75792717933655	
59	255.5797951221466	movie	1		244	57.0	2.5	/experiments/knapen_AOT/AOT_stimuli/rescaled_final/1175_fw.mp4	0.0	283.1744282245636	2.5003769397735596
59	256.7636950016022	pulse	1	t		57.0	2.5	/experiments/knapen_AOT/AOT_stimuli/rescaled_final/1175_fw.mp4	0.0	284.35832810401917	
59	258.08017206192017	fix_post	2		12	57.0	2.5	/experiments/knapen_AOT/AOT_stimuli/rescaled_final/1175_fw.mp4	0.0	285.67480516433716	0.10000991821289062
60	258.18018198013306	fix_pre	0		120	58.0	2.5	/experiments/knapen_AOT/AOT_stimuli/rescaled_final/0753_fw.mp4	0.0	285.77481508255005	1.0001649856567383
60	258.3638050556183	pulse	0	t		58.0	2.5	/experiments/knapen_AOT/AOT_stimuli/rescaled_final/0753_fw.mp4	0.0	285.9584381580353	
60	259.1803469657898	movie	1		244	58.0	2.5	/experiments/knapen_AOT/AOT_stimuli/rescaled_final/0753_fw.mp4	0.0	286.7749800682068	2.5003750324249268
60	259.9640760421753	pulse	1	t		58.0	2.5	/experiments/knapen_AOT/AOT_stimuli/rescaled_final/0753_fw.mp4	0.0	287.5587091445923	
60	261.5618920326233	pulse	1	t		58.0	2.5	/experiments/knapen_AOT/AOT_stimuli/rescaled_final/0753_fw.mp4	0.0	289.1565251350403	
60	261.6807219982147	fix_post	2		12	58.0	2.5	/experiments/knapen_AOT/AOT_stimuli/rescaled_final/0753_fw.mp4	0.0	289.2753551006317	0.1000070571899414
61	261.78072905540466	fix_pre	0		120	59.0	2.5	/experiments/knapen_AOT/AOT_stimuli/rescaled_final/0598_rv.mp4	0.0	289.37536215782166	1.0001449584960938
61	262.78087401390076	movie	1		246	59.0	2.5	/experiments/knapen_AOT/AOT_stimuli/rescaled_final/0598_rv.mp4	0.0	290.37550711631775	2.492027997970581
61	263.1650359630585	pulse	1	t		59.0	2.5	/experiments/knapen_AOT/AOT_stimuli/rescaled_final/0598_rv.mp4	0.0	290.75966906547546	
61	264.7574701309204	pulse	1	t		59.0	2.5	/experiments/knapen_AOT/AOT_stimuli/rescaled_final/0598_rv.mp4	0.0	292.3521032333374	
61	265.27290201187134	fix_post	2		12	59.0	2.5	/experiments/knapen_AOT/AOT_stimuli/rescaled_final/0598_rv.mp4	0.0	292.86753511428833	0.10009503364562988
62	265.37299704551697	fix_pre	0		120	60.0	2.5	/experiments/knapen_AOT/AOT_stimuli/rescaled_final/2052_rv.mp4	0.0	292.96763014793396	1.0000669956207275
62	266.35750102996826	pulse	0	t		60.0	2.5	/experiments/knapen_AOT/AOT_stimuli/rescaled_final/2052_rv.mp4	0.0	293.95213413238525	
62	266.3730640411377	movie	1		245	60.0	2.5	/experiments/knapen_AOT/AOT_stimuli/rescaled_final/2052_rv.mp4	0.0	293.9676971435547	2.5087339878082275
62	267.96590399742126	pulse	1	t		60.0	2.5	/experiments/knapen_AOT/AOT_stimuli/rescaled_final/2052_rv.mp4	0.0	295.56053709983826	
62	268.8817980289459	fix_post	2		12	60.0	2.5	/experiments/knapen_AOT/AOT_stimuli/rescaled_final/2052_rv.mp4	0.0	296.4764311313629	0.10002708435058594
63	268.9818251132965	fix_pre	0		120	61.0	2.5	blank	1.0	296.5764582157135	1.0001327991485596
63	269.55782198905945	pulse	0	t		61.0	2.5	blank	1.0	297.15245509147644	
63	269.98195791244507	movie	1		300	61.0	2.5	blank	1.0	297.57659101486206	2.5003881454467773
63	271.1572530269623	pulse	1	t		61.0	2.5	blank	1.0	298.7518861293793	
63	272.48234605789185	fix_post	2		12	61.0	2.5	blank	1.0	300.07697916030884	0.09999585151672363
64	272.58234190940857	fix_pre	0		120	62.0	2.5	/experiments/knapen_AOT/AOT_stimuli/rescaled_final/0519_fw.mp4	0.0	300.17697501182556	1.0001330375671387
64	272.75761699676514	pulse	0	t		62.0	2.5	/experiments/knapen_AOT/AOT_stimuli/rescaled_final/0519_fw.mp4	0.0	300.35225009918213	
64	273.5824749469757	movie	1		240	62.0	2.5	/experiments/knapen_AOT/AOT_stimuli/rescaled_final/0519_fw.mp4	0.0	301.1771080493927	2.5003981590270996
64	274.3578450679779	pulse	1	t		62.0	2.5	/experiments/knapen_AOT/AOT_stimuli/rescaled_final/0519_fw.mp4	0.0	301.9524781703949	
64	275.9580581188202	pulse	1	t		62.0	2.5	/experiments/knapen_AOT/AOT_stimuli/rescaled_final/0519_fw.mp4	0.0	303.5526912212372	
64	276.0828731060028	fix_post	2		12	62.0	2.5	/experiments/knapen_AOT/AOT_stimuli/rescaled_final/0519_fw.mp4	0.0	303.6775062084198	0.10006999969482422
65	276.18294310569763	fix_pre	0		120	63.0	2.5	/experiments/knapen_AOT/AOT_stimuli/rescaled_final/0288_rv.mp4	0.0	303.7775762081146	1.0001468658447266
65	277.18308997154236	movie	1		244	63.0	2.5	/experiments/knapen_AOT/AOT_stimuli/rescaled_final/0288_rv.mp4	0.0	304.77772307395935	2.4920361042022705
65	277.5582129955292	pulse	1	t		63.0	2.5	/experiments/knapen_AOT/AOT_stimuli/rescaled_final/0288_rv.mp4	0.0	305.15284609794617	
65	279.1585659980774	pulse	1	t		63.0	2.5	/experiments/knapen_AOT/AOT_stimuli/rescaled_final/0288_rv.mp4	0.0	306.7531991004944	
65	279.67512607574463	fix_post	2		12	63.0	2.5	/experiments/knapen_AOT/AOT_stimuli/rescaled_final/0288_rv.mp4	0.0	307.2697591781616	0.099945068359375
66	279.775071144104	fix_pre	0		119	64.0	2.5	/experiments/knapen_AOT/AOT_stimuli/rescaled_final/0189_rv.mp4	0.0	307.369704246521	0.9918668270111084
66	280.7587320804596	pulse	0	t		64.0	2.5	/experiments/knapen_AOT/AOT_stimuli/rescaled_final/0189_rv.mp4	0.0	308.3533651828766	
66	280.7669379711151	movie	1		245	64.0	2.5	/experiments/knapen_AOT/AOT_stimuli/rescaled_final/0189_rv.mp4	0.0	308.3615710735321	2.508692979812622
66	282.36020493507385	pulse	1	t		64.0	2.5	/experiments/knapen_AOT/AOT_stimuli/rescaled_final/0189_rv.mp4	0.0	309.95483803749084	
66	283.27563095092773	fix_post	2		12	64.0	2.5	/experiments/knapen_AOT/AOT_stimuli/rescaled_final/0189_rv.mp4	0.0	310.8702640533447	0.09998106956481934
67	283.37561202049255	fix_pre	0		120	65.0	2.5	/experiments/knapen_AOT/AOT_stimuli/rescaled_final/1602_rv.mp4	0.0	310.97024512290955	1.0001730918884277
67	283.9592430591583	pulse	0	t		65.0	2.5	/experiments/knapen_AOT/AOT_stimuli/rescaled_final/1602_rv.mp4	0.0	311.5538761615753	
67	284.375785112381	movie	1		244	65.0	2.5	/experiments/knapen_AOT/AOT_stimuli/rescaled_final/1602_rv.mp4	0.0	311.970418214798	2.5003750324249268
67	285.5595819950104	pulse	1	t		65.0	2.5	/experiments/knapen_AOT/AOT_stimuli/rescaled_final/1602_rv.mp4	0.0	313.15421509742737	
67	286.8761601448059	fix_post	2		12	65.0	2.5	/experiments/knapen_AOT/AOT_stimuli/rescaled_final/1602_rv.mp4	0.0	314.4707932472229	0.10004377365112305
68	286.97620391845703	fix_pre	0		120	66.0	2.5	/experiments/knapen_AOT/AOT_stimuli/rescaled_final/2018_rv.mp4	0.0	314.570837020874	1.0000920295715332
68	287.1597349643707	pulse	0	t		66.0	2.5	/experiments/knapen_AOT/AOT_stimuli/rescaled_final/2018_rv.mp4	0.0	314.7543680667877	
68	287.97629594802856	movie	1		244	66.0	2.5	/experiments/knapen_AOT/AOT_stimuli/rescaled_final/2018_rv.mp4	0.0	315.57092905044556	2.500413179397583
68	288.759957075119	pulse	1	t		66.0	2.5	/experiments/knapen_AOT/AOT_stimuli/rescaled_final/2018_rv.mp4	0.0	316.354590177536	
68	290.36023902893066	pulse	1	t		66.0	2.5	/experiments/knapen_AOT/AOT_stimuli/rescaled_final/2018_rv.mp4	0.0	317.95487213134766	
68	290.47670912742615	fix_post	2		12	66.0	2.5	/experiments/knapen_AOT/AOT_stimuli/rescaled_final/2018_rv.mp4	0.0	318.07134222984314	0.10001301765441895
69	290.57672214508057	fix_pre	0		120	67.0	2.5	/experiments/knapen_AOT/AOT_stimuli/rescaled_final/2015_rv.mp4	0.0	318.17135524749756	1.0001378059387207
69	291.5768599510193	movie	1		243	67.0	2.5	/experiments/knapen_AOT/AOT_stimuli/rescaled_final/2015_rv.mp4	0.0	319.1714930534363	2.4920120239257812
69	291.9611749649048	pulse	1	t		67.0	2.5	/experiments/knapen_AOT/AOT_stimuli/rescaled_final/2015_rv.mp4	0.0	319.5558080673218	
69	293.5607941150665	pulse	1	t		67.0	2.5	/experiments/knapen_AOT/AOT_stimuli/rescaled_final/2015_rv.mp4	0.0	321.1554272174835	
69	294.06887197494507	fix_post	2		12	67.0	2.5	/experiments/knapen_AOT/AOT_stimuli/rescaled_final/2015_rv.mp4	0.0	321.66350507736206	0.10004210472106934
70	294.16891407966614	fix_pre	0		120	68.0	2.5	/experiments/knapen_AOT/AOT_stimuli/rescaled_final/1851_rv.mp4	0.0	321.76354718208313	1.000187873840332
70	295.1610441207886	pulse	0	t		68.0	2.5	/experiments/knapen_AOT/AOT_stimuli/rescaled_final/1851_rv.mp4	0.0	322.75567722320557	
70	295.16910195350647	movie	1		245	68.0	2.5	/experiments/knapen_AOT/AOT_stimuli/rescaled_final/1851_rv.mp4	0.0	322.76373505592346	2.5086660385131836
70	296.7618820667267	pulse	1	t		68.0	2.5	/experiments/knapen_AOT/AOT_stimuli/rescaled_final/1851_rv.mp4	0.0	324.3565151691437	
70	297.67776799201965	fix_post	2		12	68.0	2.5	/experiments/knapen_AOT/AOT_stimuli/rescaled_final/1851_rv.mp4	0.0	325.27240109443665	0.1000819206237793
71	297.77784991264343	fix_pre	0		120	69.0	2.5	/experiments/knapen_AOT/AOT_stimuli/rescaled_final/1494_fw.mp4	0.0	325.3724830150604	1.0000600814819336
71	298.36137413978577	pulse	0	t		69.0	2.5	/experiments/knapen_AOT/AOT_stimuli/rescaled_final/1494_fw.mp4	0.0	325.95600724220276	
71	298.77790999412537	movie	1		245	69.0	2.5	/experiments/knapen_AOT/AOT_stimuli/rescaled_final/1494_fw.mp4	0.0	326.37254309654236	2.5003740787506104
71	299.95777893066406	pulse	1	t		69.0	2.5	/experiments/knapen_AOT/AOT_stimuli/rescaled_final/1494_fw.mp4	0.0	327.55241203308105	
71	301.278284072876	fix_post	2		12	69.0	2.5	/experiments/knapen_AOT/AOT_stimuli/rescaled_final/1494_fw.mp4	0.0	328.87291717529297	0.10002589225769043
72	301.37830996513367	fix_pre	0		120	70.0	2.5	blank	1.0	328.97294306755066	1.000209093093872
72	301.56200313568115	pulse	0	t		70.0	2.5	blank	1.0	329.15663623809814	
72	302.37851905822754	movie	1		300	70.0	2.5	blank	1.0	329.97315216064453	2.500311851501465
72	303.16219091415405	pulse	1	t		70.0	2.5	blank	1.0	330.75682401657104	
72	304.7622940540314	pulse	1	t		70.0	2.5	blank	1.0	332.35692715644836	
72	304.878830909729	fix_post	2		12	70.0	2.5	blank	1.0	332.473464012146	0.10000801086425781
73	304.97883892059326	fix_pre	0		120	71.0	2.5	/experiments/knapen_AOT/AOT_stimuli/rescaled_final/1187_rv.mp4	0.0	332.57347202301025	1.000157117843628
73	305.9789960384369	movie	1		243	71.0	2.5	/experiments/knapen_AOT/AOT_stimuli/rescaled_final/1187_rv.mp4	0.0	333.5736291408539	2.492042064666748
73	306.3637399673462	pulse	1	t		71.0	2.5	/experiments/knapen_AOT/AOT_stimuli/rescaled_final/1187_rv.mp4	0.0	333.9583730697632	
73	307.96296095848083	pulse	1	t		71.0	2.5	/experiments/knapen_AOT/AOT_stimuli/rescaled_final/1187_rv.mp4	0.0	335.5575940608978	
73	308.47103810310364	fix_post	2		12	71.0	2.5	/experiments/knapen_AOT/AOT_stimuli/rescaled_final/1187_rv.mp4	0.0	336.06567120552063	0.10004401206970215
74	308.57108211517334	fix_pre	0		120	72.0	2.5	/experiments/knapen_AOT/AOT_stimuli/rescaled_final/0443_rv.mp4	0.0	336.16571521759033	1.000128984451294
74	309.56316900253296	pulse	0	t		72.0	2.5	/experiments/knapen_AOT/AOT_stimuli/rescaled_final/0443_rv.mp4	0.0	337.15780210494995	
74	309.57121109962463	movie	1		246	72.0	2.5	/experiments/knapen_AOT/AOT_stimuli/rescaled_final/0443_rv.mp4	0.0	337.1658442020416	2.5087180137634277
74	311.1637771129608	pulse	1	t		72.0	2.5	/experiments/knapen_AOT/AOT_stimuli/rescaled_final/0443_rv.mp4	0.0	338.7584102153778	
74	312.07992911338806	fix_post	2		12	72.0	2.5	/experiments/knapen_AOT/AOT_stimuli/rescaled_final/0443_rv.mp4	0.0	339.67456221580505	0.10002589225769043
75	312.17995500564575	fix_pre	0		120	73.0	2.5	/experiments/knapen_AOT/AOT_stimuli/rescaled_final/1305_fw.mp4	0.0	339.77458810806274	1.0001380443572998
75	312.76349210739136	pulse	0	t		73.0	2.5	/experiments/knapen_AOT/AOT_stimuli/rescaled_final/1305_fw.mp4	0.0	340.35812520980835	
75	313.18009305000305	movie	1		244	73.0	2.5	/experiments/knapen_AOT/AOT_stimuli/rescaled_final/1305_fw.mp4	0.0	340.77472615242004	2.50039005279541
75	314.36395502090454	pulse	1	t		73.0	2.5	/experiments/knapen_AOT/AOT_stimuli/rescaled_final/1305_fw.mp4	0.0	341.95858812332153	
75	315.68048310279846	fix_post	2		12	73.0	2.5	/experiments/knapen_AOT/AOT_stimuli/rescaled_final/1305_fw.mp4	0.0	343.27511620521545	0.10001683235168457
76	315.78049993515015	fix_pre	0		120	74.0	2.5	/experiments/knapen_AOT/AOT_stimuli/rescaled_final/1013_rv.mp4	0.0	343.37513303756714	1.0001580715179443
76	315.96412897109985	pulse	0	t		74.0	2.5	/experiments/knapen_AOT/AOT_stimuli/rescaled_final/1013_rv.mp4	0.0	343.55876207351685	
76	316.7806580066681	movie	1		245	74.0	2.5	/experiments/knapen_AOT/AOT_stimuli/rescaled_final/1013_rv.mp4	0.0	344.3752911090851	2.5003299713134766
76	317.5644459724426	pulse	1	t		74.0	2.5	/experiments/knapen_AOT/AOT_stimuli/rescaled_final/1013_rv.mp4	0.0	345.1590790748596	
76	319.1620740890503	pulse	1	t		74.0	2.5	/experiments/knapen_AOT/AOT_stimuli/rescaled_final/1013_rv.mp4	0.0	346.7567071914673	
76	319.28098797798157	fix_post	2		12	74.0	2.5	/experiments/knapen_AOT/AOT_stimuli/rescaled_final/1013_rv.mp4	0.0	346.87562108039856	0.10004711151123047
77	319.3810350894928	fix_pre	0		120	75.0	2.5	blank	1.0	346.9756681919098	1.0001029968261719
77	320.38113808631897	movie	1		299	75.0	2.5	blank	1.0	347.97577118873596	2.4920740127563477
77	320.7571530342102	pulse	1	t		75.0	2.5	blank	1.0	348.3517861366272	
77	322.36505007743835	pulse	1	t		75.0	2.5	blank	1.0	349.95968317985535	
77	322.8732120990753	fix_post	2		12	75.0	2.5	blank	1.0	350.4678452014923	0.10000085830688477
78	322.9732129573822	fix_pre	0		119	76.0	2.5	/experiments/knapen_AOT/AOT_stimuli/rescaled_final/1068_fw.mp4	0.0	350.5678460597992	0.9918510913848877
78	323.9568729400635	pulse	0	t		76.0	2.5	/experiments/knapen_AOT/AOT_stimuli/rescaled_final/1068_fw.mp4	0.0	351.55150604248047	
78	323.9650640487671	movie	1		246	76.0	2.5	/experiments/knapen_AOT/AOT_stimuli/rescaled_final/1068_fw.mp4	0.0	351.5596971511841	2.508657932281494
78	325.5656170845032	pulse	1	t		76.0	2.5	/experiments/knapen_AOT/AOT_stimuli/rescaled_final/1068_fw.mp4	0.0	353.16025018692017	
78	326.4737219810486	fix_post	2		12	76.0	2.5	/experiments/knapen_AOT/AOT_stimuli/rescaled_final/1068_fw.mp4	0.0	354.0683550834656	0.10004711151123047
79	326.5737690925598	fix_pre	0		120	77.0	2.5	/experiments/knapen_AOT/AOT_stimuli/rescaled_final/0719_rv.mp4	0.0	354.1684021949768	1.000182867050171
79	327.15735507011414	pulse	0	t		77.0	2.5	/experiments/knapen_AOT/AOT_stimuli/rescaled_final/0719_rv.mp4	0.0	354.7519881725311	
79	327.57395195961	movie	1		245	77.0	2.5	/experiments/knapen_AOT/AOT_stimuli/rescaled_final/0719_rv.mp4	0.0	355.168585062027	2.5003230571746826
79	328.75768303871155	pulse	1	t		77.0	2.5	/experiments/knapen_AOT/AOT_stimuli/rescaled_final/0719_rv.mp4	0.0	356.35231614112854	
79	330.07427501678467	fix_post	2		12	77.0	2.5	/experiments/knapen_AOT/AOT_stimuli/rescaled_final/0719_rv.mp4	0.0	357.66890811920166	0.10000395774841309
80	330.1742789745331	fix_pre	0		120	78.0	2.5	/experiments/knapen_AOT/AOT_stimuli/rescaled_final/0388_rv.mp4	0.0	357.7689120769501	1.0001471042633057
80	330.35791206359863	pulse	0	t		78.0	2.5	/experiments/knapen_AOT/AOT_stimuli/rescaled_final/0388_rv.mp4	0.0	357.9525451660156	
80	331.1744260787964	movie	1		245	78.0	2.5	/experiments/knapen_AOT/AOT_stimuli/rescaled_final/0388_rv.mp4	0.0	358.7690591812134	2.5003888607025146
80	331.9582350254059	pulse	1	t		78.0	2.5	/experiments/knapen_AOT/AOT_stimuli/rescaled_final/0388_rv.mp4	0.0	359.5528681278229	
80	333.558296918869	pulse	1	t		78.0	2.5	/experiments/knapen_AOT/AOT_stimuli/rescaled_final/0388_rv.mp4	0.0	361.152930021286	
80	333.6748149394989	fix_post	2		12	78.0	2.5	/experiments/knapen_AOT/AOT_stimuli/rescaled_final/0388_rv.mp4	0.0	361.2694480419159	0.10004997253417969
81	333.7748649120331	fix_pre	0		117	79.0	2.5	/experiments/knapen_AOT/AOT_stimuli/rescaled_final/2092_fw.mp4	0.0	361.3694980144501	1.0001301765441895
81	334.77499508857727	movie	1		244	79.0	2.5	/experiments/knapen_AOT/AOT_stimuli/rescaled_final/2092_fw.mp4	0.0	362.36962819099426	2.4920079708099365
81	335.1597709655762	pulse	1	t		79.0	2.5	/experiments/knapen_AOT/AOT_stimuli/rescaled_final/2092_fw.mp4	0.0	362.75440406799316	
81	336.75901913642883	pulse	1	t		79.0	2.5	/experiments/knapen_AOT/AOT_stimuli/rescaled_final/2092_fw.mp4	0.0	364.3536522388458	
81	337.2670030593872	fix_post	2		12	79.0	2.5	/experiments/knapen_AOT/AOT_stimuli/rescaled_final/2092_fw.mp4	0.0	364.8616361618042	0.10003900527954102
82	337.36704206466675	fix_pre	0		120	80.0	2.5	/experiments/knapen_AOT/AOT_stimuli/rescaled_final/0756_rv.mp4	0.0	364.96167516708374	1.0001029968261719
82	338.3591139316559	pulse	0	t		80.0	2.5	/experiments/knapen_AOT/AOT_stimuli/rescaled_final/0756_rv.mp4	0.0	365.9537470340729	
82	338.3671450614929	movie	1		246	80.0	2.5	/experiments/knapen_AOT/AOT_stimuli/rescaled_final/0756_rv.mp4	0.0	365.9617781639099	2.508746862411499
82	339.9599370956421	pulse	1	t		80.0	2.5	/experiments/knapen_AOT/AOT_stimuli/rescaled_final/0756_rv.mp4	0.0	367.5545701980591	
82	340.8758919239044	fix_post	2		12	80.0	2.5	/experiments/knapen_AOT/AOT_stimuli/rescaled_final/0756_rv.mp4	0.0	368.4705250263214	0.10003900527954102
83	340.97593092918396	fix_pre	0		120	81.0	2.5	/experiments/knapen_AOT/AOT_stimuli/rescaled_final/1795_rv.mp4	0.0	368.57056403160095	1.0001330375671387
83	341.5594630241394	pulse	0	t		81.0	2.5	/experiments/knapen_AOT/AOT_stimuli/rescaled_final/1795_rv.mp4	0.0	369.1540961265564	
83	341.9760639667511	movie	1		245	81.0	2.5	/experiments/knapen_AOT/AOT_stimuli/rescaled_final/1795_rv.mp4	0.0	369.5706970691681	2.50032901763916
83	343.1598229408264	pulse	1	t		81.0	2.5	/experiments/knapen_AOT/AOT_stimuli/rescaled_final/1795_rv.mp4	0.0	370.7544560432434	
83	344.47639298439026	fix_post	2		12	81.0	2.5	/experiments/knapen_AOT/AOT_stimuli/rescaled_final/1795_rv.mp4	0.0	372.07102608680725	0.10007500648498535
84	344.57646799087524	fix_pre	0		120	82.0	2.5	blank	1.0	372.17110109329224	1.000133991241455
84	344.76010298728943	pulse	0	t		82.0	2.5	blank	1.0	372.3547360897064	
84	345.5766019821167	movie	1		300	82.0	2.5	blank	1.0	373.1712350845337	2.5003490447998047
84	346.36020493507385	pulse	1	t		82.0	2.5	blank	1.0	373.95483803749084	
84	347.96049404144287	pulse	1	t		82.0	2.5	blank	1.0	375.55512714385986	
84	348.0769510269165	fix_post	2		12	82.0	2.5	blank	1.0	375.6715841293335	0.10001611709594727
85	348.17696714401245	fix_pre	0		120	83.0	2.5	/experiments/knapen_AOT/AOT_stimuli/rescaled_final/1169_fw.mp4	0.0	375.77160024642944	1.0001418590545654
85	349.177109003067	movie	1		244	83.0	2.5	/experiments/knapen_AOT/AOT_stimuli/rescaled_final/1169_fw.mp4	0.0	376.771742105484	2.4920949935913086
85	349.5621221065521	pulse	1	t		83.0	2.5	/experiments/knapen_AOT/AOT_stimuli/rescaled_final/1169_fw.mp4	0.0	377.1567552089691	
85	351.1608989238739	pulse	1	t		83.0	2.5	/experiments/knapen_AOT/AOT_stimuli/rescaled_final/1169_fw.mp4	0.0	378.7555320262909	
85	351.6692039966583	fix_post	2		12	83.0	2.5	/experiments/knapen_AOT/AOT_stimuli/rescaled_final/1169_fw.mp4	0.0	379.2638370990753	0.09999608993530273
87	351.7692000865936	stim	0		1716					379.3638331890106	14.30213189125061
87	352.76118898391724	pulse	0	t						380.35582208633423	
87	354.36134910583496	pulse	0	t						381.95598220825195	
87	355.96170592308044	pulse	0	t						383.55633902549744	
87	357.5619361400604	pulse	0	t						385.1565692424774	
87	359.16206192970276	pulse	0	t						386.75669503211975	
87	360.76230907440186	pulse	0	t						388.35694217681885	
87	362.3625750541687	pulse	0	t						389.9572081565857	
87	363.96284794807434	pulse	0	t						391.55748105049133	
87	365.5629789829254	pulse	0	t						393.1576120853424	
