trial_nr	onset	event_type	phase	response	nr_frames	movie_index	movie_duration	movie_file	blank	onset_abs	duration
0	0.14142942428588867	stim	0		6					15.650428533554077	0.04998373985290527
0	0.1832869052886963	response	0	space						15.692286014556885	
1	0.19141316413879395	stim	0		4592					15.700412273406982	38.284138679504395
1	38.465667724609375	pulse	0	t						53.97466683387756	
1	38.47555184364319	stim	1		1715					53.98455095291138	14.307254076004028
1	40.05596852302551	pulse	1	t						55.5649676322937	
1	41.656280755996704	pulse	1	t						57.16527986526489	
1	43.25647807121277	pulse	1	t						58.76547718048096	
1	44.856775999069214	pulse	1	t						60.3657751083374	
1	46.45714735984802	pulse	1	t						61.96614646911621	
1	48.04977989196777	pulse	1	t						63.55877900123596	
1	49.6500928401947	pulse	1	t						65.15909194946289	
1	51.24980616569519	pulse	1	t						66.75880527496338	
2	52.78280591964722	fix_pre	0		9	0.0	2.5	/experiments/Knapen_AOT/AOT_stimuli/rescaled_final/1062_rv.mp4	0.0	68.2918050289154	0.09157776832580566
2	52.850279808044434	pulse	0	t		0.0	2.5	/experiments/Knapen_AOT/AOT_stimuli/rescaled_final/1062_rv.mp4	0.0	68.35927891731262	
2	52.87438368797302	movie	1		283	0.0	2.5	/experiments/Knapen_AOT/AOT_stimuli/rescaled_final/1062_rv.mp4	0.0	68.38338279724121	2.4919934272766113
2	54.44985890388489	pulse	1	t		0.0	2.5	/experiments/Knapen_AOT/AOT_stimuli/rescaled_final/1062_rv.mp4	0.0	69.95885801315308	
2	55.366377115249634	fix_post	2		12	0.0	2.5	/experiments/Knapen_AOT/AOT_stimuli/rescaled_final/1062_rv.mp4	0.0	70.87537622451782	0.10002684593200684
3	55.46640396118164	fix_pre	0		120	1.0	2.5	/experiments/Knapen_AOT/AOT_stimuli/rescaled_final/0055_fw.mp4	0.0	70.97540307044983	1.008500099182129
3	56.050111532211304	pulse	0	t		1.0	2.5	/experiments/Knapen_AOT/AOT_stimuli/rescaled_final/0055_fw.mp4	0.0	71.55911064147949	
3	56.47490406036377	movie	1		275	1.0	2.5	/experiments/Knapen_AOT/AOT_stimuli/rescaled_final/0055_fw.mp4	0.0	71.98390316963196	2.4920105934143066
3	57.650636196136475	pulse	1	t		1.0	2.5	/experiments/Knapen_AOT/AOT_stimuli/rescaled_final/0055_fw.mp4	0.0	73.15963530540466	
3	58.966914653778076	fix_post	2		12	1.0	2.5	/experiments/Knapen_AOT/AOT_stimuli/rescaled_final/0055_fw.mp4	0.0	74.47591376304626	0.10002756118774414
4	59.06694221496582	fix_pre	0		120	2.0	2.5	/experiments/Knapen_AOT/AOT_stimuli/rescaled_final/1565_rv.mp4	0.0	74.57594132423401	1.0084855556488037
4	59.25057792663574	pulse	0	t		2.0	2.5	/experiments/Knapen_AOT/AOT_stimuli/rescaled_final/1565_rv.mp4	0.0	74.75957703590393	
4	60.075427770614624	movie	1		288	2.0	2.5	/experiments/Knapen_AOT/AOT_stimuli/rescaled_final/1565_rv.mp4	0.0	75.58442687988281	2.4920237064361572
4	60.85088062286377	pulse	1	t		2.0	2.5	/experiments/Knapen_AOT/AOT_stimuli/rescaled_final/1565_rv.mp4	0.0	76.35987973213196	
4	62.450995445251465	pulse	1	t		2.0	2.5	/experiments/Knapen_AOT/AOT_stimuli/rescaled_final/1565_rv.mp4	0.0	77.95999455451965	
4	62.56745147705078	fix_post	2		12	2.0	2.5	/experiments/Knapen_AOT/AOT_stimuli/rescaled_final/1565_rv.mp4	0.0	78.07645058631897	0.10003423690795898
5	62.66748571395874	fix_pre	0		120	3.0	2.5	/experiments/Knapen_AOT/AOT_stimuli/rescaled_final/1474_rv.mp4	0.0	78.17648482322693	1.0085010528564453
5	63.675986766815186	movie	1		290	3.0	2.5	/experiments/Knapen_AOT/AOT_stimuli/rescaled_final/1474_rv.mp4	0.0	79.18498587608337	2.492103099822998
5	64.05142402648926	pulse	1	t		3.0	2.5	/experiments/Knapen_AOT/AOT_stimuli/rescaled_final/1474_rv.mp4	0.0	79.56042313575745	
5	65.65159177780151	pulse	1	t		3.0	2.5	/experiments/Knapen_AOT/AOT_stimuli/rescaled_final/1474_rv.mp4	0.0	81.1605908870697	
5	66.16808986663818	fix_post	2		12	3.0	2.5	/experiments/Knapen_AOT/AOT_stimuli/rescaled_final/1474_rv.mp4	0.0	81.67708897590637	0.09996914863586426
6	66.26805901527405	fix_pre	0		119	4.0	2.5	/experiments/Knapen_AOT/AOT_stimuli/rescaled_final/0646_rv.mp4	0.0	81.77705812454224	1.0001399517059326
6	67.25177097320557	pulse	0	t		4.0	2.5	/experiments/Knapen_AOT/AOT_stimuli/rescaled_final/0646_rv.mp4	0.0	82.76077008247375	
6	67.26819896697998	movie	1		284	4.0	2.5	/experiments/Knapen_AOT/AOT_stimuli/rescaled_final/0646_rv.mp4	0.0	82.77719807624817	2.500333309173584
6	68.85061430931091	pulse	1	t		4.0	2.5	/experiments/Knapen_AOT/AOT_stimuli/rescaled_final/0646_rv.mp4	0.0	84.3596134185791	
6	69.76853227615356	fix_post	2		12	4.0	2.5	/experiments/Knapen_AOT/AOT_stimuli/rescaled_final/0646_rv.mp4	0.0	85.27753138542175	0.10005378723144531
7	69.86858606338501	fix_pre	0		120	5.0	2.5	/experiments/Knapen_AOT/AOT_stimuli/rescaled_final/1193_fw.mp4	0.0	85.3775851726532	1.0085022449493408
7	70.45223665237427	pulse	0	t		5.0	2.5	/experiments/Knapen_AOT/AOT_stimuli/rescaled_final/1193_fw.mp4	0.0	85.96123576164246	
7	70.87708830833435	movie	1		290	5.0	2.5	/experiments/Knapen_AOT/AOT_stimuli/rescaled_final/1193_fw.mp4	0.0	86.38608741760254	2.4919934272766113
7	72.05048537254333	pulse	1	t		5.0	2.5	/experiments/Knapen_AOT/AOT_stimuli/rescaled_final/1193_fw.mp4	0.0	87.55948448181152	
7	73.36908173561096	fix_post	2		12	5.0	2.5	/experiments/Knapen_AOT/AOT_stimuli/rescaled_final/1193_fw.mp4	0.0	88.87808084487915	0.10000729560852051
8	73.46908903121948	fix_pre	0		120	6.0	2.5	blank	1.0	88.97808814048767	1.0001907348632812
8	73.65295720100403	pulse	0	t		6.0	2.5	blank	1.0	89.16195631027222	
8	74.46927976608276	movie	1		300	6.0	2.5	blank	1.0	89.97827887535095	2.500368356704712
8	75.2531259059906	pulse	1	t		6.0	2.5	blank	1.0	90.76212501525879	
8	76.85336256027222	pulse	1	t		6.0	2.5	blank	1.0	92.3623616695404	
8	76.96964812278748	fix_post	2		12	6.0	2.5	blank	1.0	92.47864723205566	0.10007715225219727
9	77.06972527503967	fix_pre	0		120	7.0	2.5	/experiments/Knapen_AOT/AOT_stimuli/rescaled_final/1455_fw.mp4	0.0	92.57872438430786	1.0084517002105713
9	78.07817697525024	movie	1		291	7.0	2.5	/experiments/Knapen_AOT/AOT_stimuli/rescaled_final/1455_fw.mp4	0.0	93.58717608451843	2.491980791091919
9	78.45288181304932	pulse	1	t		7.0	2.5	/experiments/Knapen_AOT/AOT_stimuli/rescaled_final/1455_fw.mp4	0.0	93.9618809223175	
9	80.05164432525635	pulse	1	t		7.0	2.5	/experiments/Knapen_AOT/AOT_stimuli/rescaled_final/1455_fw.mp4	0.0	95.56064343452454	
9	80.57015776634216	fix_post	2		12	7.0	2.5	/experiments/Knapen_AOT/AOT_stimuli/rescaled_final/1455_fw.mp4	0.0	96.07915687561035	0.10002708435058594
10	80.67018485069275	fix_pre	0		119	8.0	2.5	/experiments/Knapen_AOT/AOT_stimuli/rescaled_final/1647_fw.mp4	0.0	96.17918395996094	1.0001814365386963
10	81.6539077758789	pulse	0	t		8.0	2.5	/experiments/Knapen_AOT/AOT_stimuli/rescaled_final/1647_fw.mp4	0.0	97.1629068851471	
10	81.67036628723145	movie	1		277	8.0	2.5	/experiments/Knapen_AOT/AOT_stimuli/rescaled_final/1647_fw.mp4	0.0	97.17936539649963	2.5003421306610107
10	83.25233268737793	pulse	1	t		8.0	2.5	/experiments/Knapen_AOT/AOT_stimuli/rescaled_final/1647_fw.mp4	0.0	98.76133179664612	
10	84.17070841789246	fix_post	2		12	8.0	2.5	/experiments/Knapen_AOT/AOT_stimuli/rescaled_final/1647_fw.mp4	0.0	99.67970752716064	0.10001873970031738
11	84.27072715759277	fix_pre	0		120	9.0	2.5	/experiments/Knapen_AOT/AOT_stimuli/rescaled_final/1722_rv.mp4	0.0	99.77972626686096	1.0085010528564453
11	84.85440564155579	pulse	0	t		9.0	2.5	/experiments/Knapen_AOT/AOT_stimuli/rescaled_final/1722_rv.mp4	0.0	100.36340475082397	
11	85.27922821044922	movie	1		289	9.0	2.5	/experiments/Knapen_AOT/AOT_stimuli/rescaled_final/1722_rv.mp4	0.0	100.78822731971741	2.492083787918091
11	86.4527177810669	pulse	1	t		9.0	2.5	/experiments/Knapen_AOT/AOT_stimuli/rescaled_final/1722_rv.mp4	0.0	101.96171689033508	
11	87.77131199836731	fix_post	2		12	9.0	2.5	/experiments/Knapen_AOT/AOT_stimuli/rescaled_final/1722_rv.mp4	0.0	103.2803111076355	0.10012340545654297
12	87.87143540382385	fix_pre	0		120	10.0	2.5	/experiments/Knapen_AOT/AOT_stimuli/rescaled_final/1645_rv.mp4	0.0	103.38043451309204	1.0083987712860107
12	88.0550582408905	pulse	0	t		10.0	2.5	/experiments/Knapen_AOT/AOT_stimuli/rescaled_final/1645_rv.mp4	0.0	103.56405735015869	
12	88.87983417510986	movie	1		273	10.0	2.5	/experiments/Knapen_AOT/AOT_stimuli/rescaled_final/1645_rv.mp4	0.0	104.38883328437805	2.4919536113739014
12	89.65315508842468	pulse	1	t		10.0	2.5	/experiments/Knapen_AOT/AOT_stimuli/rescaled_final/1645_rv.mp4	0.0	105.16215419769287	
12	91.25337934494019	pulse	1	t		10.0	2.5	/experiments/Knapen_AOT/AOT_stimuli/rescaled_final/1645_rv.mp4	0.0	106.76237845420837	
12	91.37178778648376	fix_post	2		12	10.0	2.5	/experiments/Knapen_AOT/AOT_stimuli/rescaled_final/1645_rv.mp4	0.0	106.88078689575195	0.1000211238861084
13	91.47180891036987	fix_pre	0		120	11.0	2.5	/experiments/Knapen_AOT/AOT_stimuli/rescaled_final/0616_fw.mp4	0.0	106.98080801963806	1.0084803104400635
13	92.48028922080994	movie	1		291	11.0	2.5	/experiments/Knapen_AOT/AOT_stimuli/rescaled_final/0616_fw.mp4	0.0	107.98928833007812	2.492021322250366
13	92.85410809516907	pulse	1	t		11.0	2.5	/experiments/Knapen_AOT/AOT_stimuli/rescaled_final/0616_fw.mp4	0.0	108.36310720443726	
13	94.45142960548401	pulse	1	t		11.0	2.5	/experiments/Knapen_AOT/AOT_stimuli/rescaled_final/0616_fw.mp4	0.0	109.9604287147522	
13	94.9723105430603	fix_post	2		12	11.0	2.5	/experiments/Knapen_AOT/AOT_stimuli/rescaled_final/0616_fw.mp4	0.0	110.48130965232849	0.1000359058380127
14	95.07234644889832	fix_pre	0		119	12.0	2.5	/experiments/Knapen_AOT/AOT_stimuli/rescaled_final/1235_fw.mp4	0.0	110.5813455581665	1.0002522468566895
14	96.05632972717285	pulse	0	t		12.0	2.5	/experiments/Knapen_AOT/AOT_stimuli/rescaled_final/1235_fw.mp4	0.0	111.56532883644104	
14	96.072598695755	movie	1		297	12.0	2.5	/experiments/Knapen_AOT/AOT_stimuli/rescaled_final/1235_fw.mp4	0.0	111.5815978050232	2.5002381801605225
14	97.65230870246887	pulse	1	t		12.0	2.5	/experiments/Knapen_AOT/AOT_stimuli/rescaled_final/1235_fw.mp4	0.0	113.16130781173706	
14	98.57283687591553	fix_post	2		12	12.0	2.5	/experiments/Knapen_AOT/AOT_stimuli/rescaled_final/1235_fw.mp4	0.0	114.08183598518372	0.10004138946533203
15	98.67287826538086	fix_pre	0		120	13.0	2.5	blank	1.0	114.18187737464905	1.0001542568206787
15	99.25669193267822	pulse	0	t		13.0	2.5	blank	1.0	114.76569104194641	
15	99.67303252220154	movie	1		300	13.0	2.5	blank	1.0	115.18203163146973	2.5003743171691895
15	100.85677766799927	pulse	1	t		13.0	2.5	blank	1.0	116.36577677726746	
15	102.17340683937073	fix_post	2		12	13.0	2.5	blank	1.0	117.68240594863892	0.10016012191772461
16	102.27356696128845	fix_pre	0		120	14.0	2.5	/experiments/Knapen_AOT/AOT_stimuli/rescaled_final/0482_rv.mp4	0.0	117.78256607055664	1.0083906650543213
16	102.44995546340942	pulse	0	t		14.0	2.5	/experiments/Knapen_AOT/AOT_stimuli/rescaled_final/0482_rv.mp4	0.0	117.95895457267761	
16	103.28195762634277	movie	1		281	14.0	2.5	/experiments/Knapen_AOT/AOT_stimuli/rescaled_final/0482_rv.mp4	0.0	118.79095673561096	2.4920365810394287
16	104.05524277687073	pulse	1	t		14.0	2.5	/experiments/Knapen_AOT/AOT_stimuli/rescaled_final/0482_rv.mp4	0.0	119.56424188613892	
16	105.64929103851318	pulse	1	t		14.0	2.5	/experiments/Knapen_AOT/AOT_stimuli/rescaled_final/0482_rv.mp4	0.0	121.15829014778137	
16	105.7739942073822	fix_post	2		12	14.0	2.5	/experiments/Knapen_AOT/AOT_stimuli/rescaled_final/0482_rv.mp4	0.0	121.28299331665039	0.09998178482055664
17	105.87397599220276	fix_pre	0		120	15.0	2.5	/experiments/Knapen_AOT/AOT_stimuli/rescaled_final/1980_fw.mp4	0.0	121.38297510147095	1.0085186958312988
17	106.88249468803406	movie	1		282	15.0	2.5	/experiments/Knapen_AOT/AOT_stimuli/rescaled_final/1980_fw.mp4	0.0	122.39149379730225	2.4920382499694824
17	107.24952578544617	pulse	1	t		15.0	2.5	/experiments/Knapen_AOT/AOT_stimuli/rescaled_final/1980_fw.mp4	0.0	122.75852489471436	
17	108.84967970848083	pulse	1	t		15.0	2.5	/experiments/Knapen_AOT/AOT_stimuli/rescaled_final/1980_fw.mp4	0.0	124.35867881774902	
17	109.37453293800354	fix_post	2		12	15.0	2.5	/experiments/Knapen_AOT/AOT_stimuli/rescaled_final/1980_fw.mp4	0.0	124.88353204727173	0.0999903678894043
18	109.47452330589294	fix_pre	0		118	16.0	2.5	/experiments/Knapen_AOT/AOT_stimuli/rescaled_final/1599_fw.mp4	0.0	124.98352241516113	0.9918322563171387
18	110.4499077796936	pulse	0	t		16.0	2.5	/experiments/Knapen_AOT/AOT_stimuli/rescaled_final/1599_fw.mp4	0.0	125.95890688896179	
18	110.46635556221008	movie	1		288	16.0	2.5	/experiments/Knapen_AOT/AOT_stimuli/rescaled_final/1599_fw.mp4	0.0	125.97535467147827	2.500340700149536
18	112.05022859573364	pulse	1	t		16.0	2.5	/experiments/Knapen_AOT/AOT_stimuli/rescaled_final/1599_fw.mp4	0.0	127.55922770500183	
18	112.96669626235962	fix_post	2		12	16.0	2.5	/experiments/Knapen_AOT/AOT_stimuli/rescaled_final/1599_fw.mp4	0.0	128.4756953716278	0.10005640983581543
19	113.06675267219543	fix_pre	0		120	17.0	2.5	/experiments/Knapen_AOT/AOT_stimuli/rescaled_final/0496_rv.mp4	0.0	128.57575178146362	1.0086028575897217
19	113.65034103393555	pulse	0	t		17.0	2.5	/experiments/Knapen_AOT/AOT_stimuli/rescaled_final/0496_rv.mp4	0.0	129.15934014320374	
19	114.07535552978516	movie	1		290	17.0	2.5	/experiments/Knapen_AOT/AOT_stimuli/rescaled_final/0496_rv.mp4	0.0	129.58435463905334	2.4918761253356934
19	115.24924302101135	pulse	1	t		17.0	2.5	/experiments/Knapen_AOT/AOT_stimuli/rescaled_final/0496_rv.mp4	0.0	130.75824213027954	
19	116.56723165512085	fix_post	2		12	17.0	2.5	/experiments/Knapen_AOT/AOT_stimuli/rescaled_final/0496_rv.mp4	0.0	132.07623076438904	0.10001707077026367
20	116.66724872589111	fix_pre	0		120	18.0	2.5	/experiments/Knapen_AOT/AOT_stimuli/rescaled_final/1171_rv.mp4	0.0	132.1762478351593	1.0085265636444092
20	116.85084676742554	pulse	0	t		18.0	2.5	/experiments/Knapen_AOT/AOT_stimuli/rescaled_final/1171_rv.mp4	0.0	132.35984587669373	
20	117.67577528953552	movie	1		279	18.0	2.5	/experiments/Knapen_AOT/AOT_stimuli/rescaled_final/1171_rv.mp4	0.0	133.1847743988037	2.492091417312622
20	118.44996643066406	pulse	1	t		18.0	2.5	/experiments/Knapen_AOT/AOT_stimuli/rescaled_final/1171_rv.mp4	0.0	133.95896553993225	
20	120.04936146736145	pulse	1	t		18.0	2.5	/experiments/Knapen_AOT/AOT_stimuli/rescaled_final/1171_rv.mp4	0.0	135.55836057662964	
20	120.16786670684814	fix_post	2		12	18.0	2.5	/experiments/Knapen_AOT/AOT_stimuli/rescaled_final/1171_rv.mp4	0.0	135.67686581611633	0.09996485710144043
21	120.26783156394958	fix_pre	0		120	19.0	2.5	/experiments/Knapen_AOT/AOT_stimuli/rescaled_final/1373_rv.mp4	0.0	135.77683067321777	1.0084843635559082
21	121.2763159275055	movie	1		283	19.0	2.5	/experiments/Knapen_AOT/AOT_stimuli/rescaled_final/1373_rv.mp4	0.0	136.78531503677368	2.492001533508301
21	121.6505994796753	pulse	1	t		19.0	2.5	/experiments/Knapen_AOT/AOT_stimuli/rescaled_final/1373_rv.mp4	0.0	137.15959858894348	
21	123.24968457221985	pulse	1	t		19.0	2.5	/experiments/Knapen_AOT/AOT_stimuli/rescaled_final/1373_rv.mp4	0.0	138.75868368148804	
21	123.7683174610138	fix_post	2		12	19.0	2.5	/experiments/Knapen_AOT/AOT_stimuli/rescaled_final/1373_rv.mp4	0.0	139.27731657028198	0.100250244140625
22	123.86856770515442	fix_pre	0		119	20.0	2.5	/experiments/Knapen_AOT/AOT_stimuli/rescaled_final/1301_fw.mp4	0.0	139.3775668144226	0.999945878982544
22	124.85205292701721	pulse	0	t		20.0	2.5	/experiments/Knapen_AOT/AOT_stimuli/rescaled_final/1301_fw.mp4	0.0	140.3610520362854	
22	124.86851358413696	movie	1		292	20.0	2.5	/experiments/Knapen_AOT/AOT_stimuli/rescaled_final/1301_fw.mp4	0.0	140.37751269340515	2.5003576278686523
22	126.45080780982971	pulse	1	t		20.0	2.5	/experiments/Knapen_AOT/AOT_stimuli/rescaled_final/1301_fw.mp4	0.0	141.9598069190979	
22	127.36887121200562	fix_post	2		12	20.0	2.5	/experiments/Knapen_AOT/AOT_stimuli/rescaled_final/1301_fw.mp4	0.0	142.8778703212738	0.10002779960632324
23	127.46889901161194	fix_pre	0		120	21.0	2.5	blank	1.0	142.97789812088013	1.0001111030578613
23	128.05246376991272	pulse	0	t		21.0	2.5	blank	1.0	143.5614628791809	
23	128.4690101146698	movie	1		300	21.0	2.5	blank	1.0	143.978009223938	2.5004193782806396
23	129.65271615982056	pulse	1	t		21.0	2.5	blank	1.0	145.16171526908875	
23	130.96942949295044	fix_post	2		12	21.0	2.5	blank	1.0	146.47842860221863	0.09998512268066406
24	131.0694146156311	fix_pre	0		120	22.0	2.5	/experiments/Knapen_AOT/AOT_stimuli/rescaled_final/1379_rv.mp4	0.0	146.5784137248993	1.0085155963897705
24	131.25306463241577	pulse	0	t		22.0	2.5	/experiments/Knapen_AOT/AOT_stimuli/rescaled_final/1379_rv.mp4	0.0	146.76206374168396	
24	132.07793021202087	movie	1		286	22.0	2.5	/experiments/Knapen_AOT/AOT_stimuli/rescaled_final/1379_rv.mp4	0.0	147.58692932128906	2.4920361042022705
24	132.85108494758606	pulse	1	t		22.0	2.5	/experiments/Knapen_AOT/AOT_stimuli/rescaled_final/1379_rv.mp4	0.0	148.36008405685425	
24	134.45136284828186	pulse	1	t		22.0	2.5	/experiments/Knapen_AOT/AOT_stimuli/rescaled_final/1379_rv.mp4	0.0	149.96036195755005	
24	134.56996631622314	fix_post	2		12	22.0	2.5	/experiments/Knapen_AOT/AOT_stimuli/rescaled_final/1379_rv.mp4	0.0	150.07896542549133	0.10002899169921875
25	134.66999530792236	fix_pre	0		120	23.0	2.5	/experiments/Knapen_AOT/AOT_stimuli/rescaled_final/1942_rv.mp4	0.0	150.17899441719055	1.0084545612335205
25	135.67844986915588	movie	1		289	23.0	2.5	/experiments/Knapen_AOT/AOT_stimuli/rescaled_final/1942_rv.mp4	0.0	151.18744897842407	2.4920401573181152
25	136.05239462852478	pulse	1	t		23.0	2.5	/experiments/Knapen_AOT/AOT_stimuli/rescaled_final/1942_rv.mp4	0.0	151.56139373779297	
25	137.65194249153137	pulse	1	t		23.0	2.5	/experiments/Knapen_AOT/AOT_stimuli/rescaled_final/1942_rv.mp4	0.0	153.16094160079956	
25	138.170490026474	fix_post	2		12	23.0	2.5	/experiments/Knapen_AOT/AOT_stimuli/rescaled_final/1942_rv.mp4	0.0	153.6794891357422	0.10001158714294434
26	138.27050161361694	fix_pre	0		119	24.0	2.5	/experiments/Knapen_AOT/AOT_stimuli/rescaled_final/0885_fw.mp4	0.0	153.77950072288513	1.0002045631408691
26	139.2541697025299	pulse	0	t		24.0	2.5	/experiments/Knapen_AOT/AOT_stimuli/rescaled_final/0885_fw.mp4	0.0	154.7631688117981	
26	139.2707061767578	movie	1		281	24.0	2.5	/experiments/Knapen_AOT/AOT_stimuli/rescaled_final/0885_fw.mp4	0.0	154.779705286026	2.500337600708008
26	140.8530662059784	pulse	1	t		24.0	2.5	/experiments/Knapen_AOT/AOT_stimuli/rescaled_final/0885_fw.mp4	0.0	156.36206531524658	
26	141.77104377746582	fix_post	2		12	24.0	2.5	/experiments/Knapen_AOT/AOT_stimuli/rescaled_final/0885_fw.mp4	0.0	157.280042886734	0.100006103515625
27	141.87104988098145	fix_pre	0		120	25.0	2.5	/experiments/Knapen_AOT/AOT_stimuli/rescaled_final/1717_rv.mp4	0.0	157.38004899024963	1.00850248336792
27	142.45466566085815	pulse	0	t		25.0	2.5	/experiments/Knapen_AOT/AOT_stimuli/rescaled_final/1717_rv.mp4	0.0	157.96366477012634	
27	142.87955236434937	movie	1		278	25.0	2.5	/experiments/Knapen_AOT/AOT_stimuli/rescaled_final/1717_rv.mp4	0.0	158.38855147361755	2.492027759552002
27	144.0536744594574	pulse	1	t		25.0	2.5	/experiments/Knapen_AOT/AOT_stimuli/rescaled_final/1717_rv.mp4	0.0	159.5626735687256	
27	145.37158012390137	fix_post	2		12	25.0	2.5	/experiments/Knapen_AOT/AOT_stimuli/rescaled_final/1717_rv.mp4	0.0	160.88057923316956	0.10009169578552246
28	145.4716718196869	fix_pre	0		120	26.0	2.5	blank	1.0	160.98067092895508	1.0000622272491455
28	145.65514469146729	pulse	0	t		26.0	2.5	blank	1.0	161.16414380073547	
28	146.47173404693604	movie	1		300	26.0	2.5	blank	1.0	161.98073315620422	2.5003812313079834
28	147.25535607337952	pulse	1	t		26.0	2.5	blank	1.0	162.7643551826477	
28	148.85559344291687	pulse	1	t		26.0	2.5	blank	1.0	164.36459255218506	
28	148.97211527824402	fix_post	2		12	26.0	2.5	blank	1.0	164.4811143875122	0.10002303123474121
29	149.07213830947876	fix_pre	0		120	27.0	2.5	/experiments/Knapen_AOT/AOT_stimuli/rescaled_final/1675_rv.mp4	0.0	164.58113741874695	1.0084898471832275
29	150.080628156662	movie	1		286	27.0	2.5	/experiments/Knapen_AOT/AOT_stimuli/rescaled_final/1675_rv.mp4	0.0	165.58962726593018	2.4920785427093506
29	150.45452189445496	pulse	1	t		27.0	2.5	/experiments/Knapen_AOT/AOT_stimuli/rescaled_final/1675_rv.mp4	0.0	165.96352100372314	
29	152.05390667915344	pulse	1	t		27.0	2.5	/experiments/Knapen_AOT/AOT_stimuli/rescaled_final/1675_rv.mp4	0.0	167.56290578842163	
29	152.57270669937134	fix_post	2		12	27.0	2.5	/experiments/Knapen_AOT/AOT_stimuli/rescaled_final/1675_rv.mp4	0.0	168.08170580863953	0.10002970695495605
30	152.6727364063263	fix_pre	0		119	28.0	2.5	/experiments/Knapen_AOT/AOT_stimuli/rescaled_final/0055_rv.mp4	0.0	168.18173551559448	1.0000731945037842
30	153.6563115119934	pulse	0	t		28.0	2.5	/experiments/Knapen_AOT/AOT_stimuli/rescaled_final/0055_rv.mp4	0.0	169.1653106212616	
30	153.67280960083008	movie	1		290	28.0	2.5	/experiments/Knapen_AOT/AOT_stimuli/rescaled_final/0055_rv.mp4	0.0	169.18180871009827	2.5004000663757324
30	155.2550892829895	pulse	1	t		28.0	2.5	/experiments/Knapen_AOT/AOT_stimuli/rescaled_final/0055_rv.mp4	0.0	170.7640883922577	
30	156.1732096672058	fix_post	2		12	28.0	2.5	/experiments/Knapen_AOT/AOT_stimuli/rescaled_final/0055_rv.mp4	0.0	171.682208776474	0.10006546974182129
31	156.27327513694763	fix_pre	0		120	29.0	2.5	/experiments/Knapen_AOT/AOT_stimuli/rescaled_final/1494_rv.mp4	0.0	171.78227424621582	1.0084869861602783
31	156.85680651664734	pulse	0	t		29.0	2.5	/experiments/Knapen_AOT/AOT_stimuli/rescaled_final/1494_rv.mp4	0.0	172.36580562591553	
31	157.2817621231079	movie	1		280	29.0	2.5	/experiments/Knapen_AOT/AOT_stimuli/rescaled_final/1494_rv.mp4	0.0	172.7907612323761	2.4919753074645996
31	158.45553064346313	pulse	1	t		29.0	2.5	/experiments/Knapen_AOT/AOT_stimuli/rescaled_final/1494_rv.mp4	0.0	173.96452975273132	
31	159.7737374305725	fix_post	2		12	29.0	2.5	/experiments/Knapen_AOT/AOT_stimuli/rescaled_final/1494_rv.mp4	0.0	175.2827365398407	0.10003948211669922
32	159.8737769126892	fix_pre	0		120	30.0	2.5	/experiments/Knapen_AOT/AOT_stimuli/rescaled_final/0482_fw.mp4	0.0	175.3827760219574	1.0085422992706299
32	160.04994773864746	pulse	0	t		30.0	2.5	/experiments/Knapen_AOT/AOT_stimuli/rescaled_final/0482_fw.mp4	0.0	175.55894684791565	
32	160.88231921195984	movie	1		280	30.0	2.5	/experiments/Knapen_AOT/AOT_stimuli/rescaled_final/0482_fw.mp4	0.0	176.39131832122803	2.4920339584350586
32	161.65713787078857	pulse	1	t		30.0	2.5	/experiments/Knapen_AOT/AOT_stimuli/rescaled_final/0482_fw.mp4	0.0	177.16613698005676	
32	163.24970316886902	pulse	1	t		30.0	2.5	/experiments/Knapen_AOT/AOT_stimuli/rescaled_final/0482_fw.mp4	0.0	178.7587022781372	
32	163.3743531703949	fix_post	2		12	30.0	2.5	/experiments/Knapen_AOT/AOT_stimuli/rescaled_final/0482_fw.mp4	0.0	178.8833522796631	0.0999443531036377
33	163.47429752349854	fix_pre	0		120	31.0	2.5	/experiments/Knapen_AOT/AOT_stimuli/rescaled_final/1235_rv.mp4	0.0	178.98329663276672	1.0085089206695557
33	164.4828064441681	movie	1		278	31.0	2.5	/experiments/Knapen_AOT/AOT_stimuli/rescaled_final/1235_rv.mp4	0.0	179.99180555343628	2.4920177459716797
33	164.84993290901184	pulse	1	t		31.0	2.5	/experiments/Knapen_AOT/AOT_stimuli/rescaled_final/1235_rv.mp4	0.0	180.35893201828003	
33	166.45015811920166	pulse	1	t		31.0	2.5	/experiments/Knapen_AOT/AOT_stimuli/rescaled_final/1235_rv.mp4	0.0	181.95915722846985	
33	166.97482419013977	fix_post	2		12	31.0	2.5	/experiments/Knapen_AOT/AOT_stimuli/rescaled_final/1235_rv.mp4	0.0	182.48382329940796	0.10002446174621582
34	167.074848651886	fix_pre	0		118	32.0	2.5	/experiments/Knapen_AOT/AOT_stimuli/rescaled_final/1378_rv.mp4	0.0	182.58384776115417	0.991851806640625
34	168.05016469955444	pulse	0	t		32.0	2.5	/experiments/Knapen_AOT/AOT_stimuli/rescaled_final/1378_rv.mp4	0.0	183.55916380882263	
34	168.0667004585266	movie	1		284	32.0	2.5	/experiments/Knapen_AOT/AOT_stimuli/rescaled_final/1378_rv.mp4	0.0	183.5756995677948	2.500345468521118
34	169.65048742294312	pulse	1	t		32.0	2.5	/experiments/Knapen_AOT/AOT_stimuli/rescaled_final/1378_rv.mp4	0.0	185.1594865322113	
34	170.56704592704773	fix_post	2		12	32.0	2.5	/experiments/Knapen_AOT/AOT_stimuli/rescaled_final/1378_rv.mp4	0.0	186.07604503631592	0.10007524490356445
35	170.6671211719513	fix_pre	0		120	33.0	2.5	/experiments/Knapen_AOT/AOT_stimuli/rescaled_final/1295_fw.mp4	0.0	186.17612028121948	1.0085506439208984
35	171.2506458759308	pulse	0	t		33.0	2.5	/experiments/Knapen_AOT/AOT_stimuli/rescaled_final/1295_fw.mp4	0.0	186.75964498519897	
35	171.6756718158722	movie	1		286	33.0	2.5	/experiments/Knapen_AOT/AOT_stimuli/rescaled_final/1295_fw.mp4	0.0	187.18467092514038	2.4919512271881104
35	172.85090684890747	pulse	1	t		33.0	2.5	/experiments/Knapen_AOT/AOT_stimuli/rescaled_final/1295_fw.mp4	0.0	188.35990595817566	
35	174.1676230430603	fix_post	2		12	33.0	2.5	/experiments/Knapen_AOT/AOT_stimuli/rescaled_final/1295_fw.mp4	0.0	189.6766221523285	0.09995436668395996
36	174.26757740974426	fix_pre	0		120	34.0	2.5	blank	1.0	189.77657651901245	1.000166416168213
36	174.45110321044922	pulse	0	t		34.0	2.5	blank	1.0	189.9601023197174	
36	175.26774382591248	movie	1		300	34.0	2.5	blank	1.0	190.77674293518066	2.500366449356079
36	176.0514280796051	pulse	1	t		34.0	2.5	blank	1.0	191.5604271888733	
36	177.65184497833252	pulse	1	t		34.0	2.5	blank	1.0	193.1608440876007	
36	177.76811027526855	fix_post	2		12	34.0	2.5	blank	1.0	193.27710938453674	0.10008406639099121
37	177.86819434165955	fix_pre	0		120	35.0	2.5	/experiments/Knapen_AOT/AOT_stimuli/rescaled_final/1295_rv.mp4	0.0	193.37719345092773	1.0085442066192627
37	178.8767385482788	movie	1		283	35.0	2.5	/experiments/Knapen_AOT/AOT_stimuli/rescaled_final/1295_rv.mp4	0.0	194.385737657547	2.4919650554656982
37	179.25040459632874	pulse	1	t		35.0	2.5	/experiments/Knapen_AOT/AOT_stimuli/rescaled_final/1295_rv.mp4	0.0	194.75940370559692	
37	180.85021686553955	pulse	1	t		35.0	2.5	/experiments/Knapen_AOT/AOT_stimuli/rescaled_final/1295_rv.mp4	0.0	196.35921597480774	
37	181.3687036037445	fix_post	2		12	35.0	2.5	/experiments/Knapen_AOT/AOT_stimuli/rescaled_final/1295_rv.mp4	0.0	196.8777027130127	0.09998846054077148
38	181.46869206428528	fix_pre	0		119	36.0	2.5	/experiments/Knapen_AOT/AOT_stimuli/rescaled_final/0532_rv.mp4	0.0	196.97769117355347	1.000147819519043
38	182.45235133171082	pulse	0	t		36.0	2.5	/experiments/Knapen_AOT/AOT_stimuli/rescaled_final/0532_rv.mp4	0.0	197.961350440979	
38	182.46883988380432	movie	1		293	36.0	2.5	/experiments/Knapen_AOT/AOT_stimuli/rescaled_final/0532_rv.mp4	0.0	197.9778389930725	2.50034761428833
38	184.05117273330688	pulse	1	t		36.0	2.5	/experiments/Knapen_AOT/AOT_stimuli/rescaled_final/0532_rv.mp4	0.0	199.56017184257507	
38	184.96918749809265	fix_post	2		12	36.0	2.5	/experiments/Knapen_AOT/AOT_stimuli/rescaled_final/0532_rv.mp4	0.0	200.47818660736084	0.10001492500305176
39	185.0692024230957	fix_pre	0		120	37.0	2.5	/experiments/Knapen_AOT/AOT_stimuli/rescaled_final/1535_fw.mp4	0.0	200.5782015323639	1.0085737705230713
39	185.65281629562378	pulse	0	t		37.0	2.5	/experiments/Knapen_AOT/AOT_stimuli/rescaled_final/1535_fw.mp4	0.0	201.16181540489197	
39	186.07777619361877	movie	1		273	37.0	2.5	/experiments/Knapen_AOT/AOT_stimuli/rescaled_final/1535_fw.mp4	0.0	201.58677530288696	2.4919559955596924
39	187.2532181739807	pulse	1	t		37.0	2.5	/experiments/Knapen_AOT/AOT_stimuli/rescaled_final/1535_fw.mp4	0.0	202.7622172832489	
39	188.56973218917847	fix_post	2		12	37.0	2.5	/experiments/Knapen_AOT/AOT_stimuli/rescaled_final/1535_fw.mp4	0.0	204.07873129844666	0.10001945495605469
40	188.66975164413452	fix_pre	0		120	38.0	2.5	/experiments/Knapen_AOT/AOT_stimuli/rescaled_final/1382_rv.mp4	0.0	204.1787507534027	1.0084922313690186
40	188.85325574874878	pulse	0	t		38.0	2.5	/experiments/Knapen_AOT/AOT_stimuli/rescaled_final/1382_rv.mp4	0.0	204.36225485801697	
40	189.67824387550354	movie	1		262	38.0	2.5	/experiments/Knapen_AOT/AOT_stimuli/rescaled_final/1382_rv.mp4	0.0	205.18724298477173	2.4920506477355957
40	190.45184421539307	pulse	1	t		38.0	2.5	/experiments/Knapen_AOT/AOT_stimuli/rescaled_final/1382_rv.mp4	0.0	205.96084332466125	
40	192.05148577690125	pulse	1	t		38.0	2.5	/experiments/Knapen_AOT/AOT_stimuli/rescaled_final/1382_rv.mp4	0.0	207.56048488616943	
40	192.17029452323914	fix_post	2		12	38.0	2.5	/experiments/Knapen_AOT/AOT_stimuli/rescaled_final/1382_rv.mp4	0.0	207.67929363250732	0.09999251365661621
41	192.27028703689575	fix_pre	0		120	39.0	2.5	/experiments/Knapen_AOT/AOT_stimuli/rescaled_final/1954_rv.mp4	0.0	207.77928614616394	1.008518934249878
41	193.27880597114563	movie	1		284	39.0	2.5	/experiments/Knapen_AOT/AOT_stimuli/rescaled_final/1954_rv.mp4	0.0	208.78780508041382	2.49200439453125
41	193.65411496162415	pulse	1	t		39.0	2.5	/experiments/Knapen_AOT/AOT_stimuli/rescaled_final/1954_rv.mp4	0.0	209.16311407089233	
41	195.25229001045227	pulse	1	t		39.0	2.5	/experiments/Knapen_AOT/AOT_stimuli/rescaled_final/1954_rv.mp4	0.0	210.76128911972046	
41	195.77081036567688	fix_post	2		12	39.0	2.5	/experiments/Knapen_AOT/AOT_stimuli/rescaled_final/1954_rv.mp4	0.0	211.27980947494507	0.10001921653747559
42	195.87082958221436	fix_pre	0		119	40.0	2.5	/experiments/Knapen_AOT/AOT_stimuli/rescaled_final/1109_fw.mp4	0.0	211.37982869148254	1.0001485347747803
42	196.85448908805847	pulse	0	t		40.0	2.5	/experiments/Knapen_AOT/AOT_stimuli/rescaled_final/1109_fw.mp4	0.0	212.36348819732666	
42	196.87097811698914	movie	1		290	40.0	2.5	/experiments/Knapen_AOT/AOT_stimuli/rescaled_final/1109_fw.mp4	0.0	212.37997722625732	2.5004780292510986
42	198.45369410514832	pulse	1	t		40.0	2.5	/experiments/Knapen_AOT/AOT_stimuli/rescaled_final/1109_fw.mp4	0.0	213.9626932144165	
42	199.37145614624023	fix_post	2		12	40.0	2.5	/experiments/Knapen_AOT/AOT_stimuli/rescaled_final/1109_fw.mp4	0.0	214.88045525550842	0.09995388984680176
43	199.47141003608704	fix_pre	0		120	41.0	2.5	blank	1.0	214.98040914535522	1.0001091957092285
43	200.05498814582825	pulse	0	t		41.0	2.5	blank	1.0	215.56398725509644	
43	200.47151923179626	movie	1		300	41.0	2.5	blank	1.0	215.98051834106445	2.5003764629364014
43	201.65518426895142	pulse	1	t		41.0	2.5	blank	1.0	217.1641833782196	
43	202.97189569473267	fix_post	2		12	41.0	2.5	blank	1.0	218.48089480400085	0.1000223159790039
44	203.07191801071167	fix_pre	0		120	42.0	2.5	/experiments/Knapen_AOT/AOT_stimuli/rescaled_final/1728_rv.mp4	0.0	218.58091711997986	1.008552074432373
44	203.25549459457397	pulse	0	t		42.0	2.5	/experiments/Knapen_AOT/AOT_stimuli/rescaled_final/1728_rv.mp4	0.0	218.76449370384216	
44	204.08047008514404	movie	1		286	42.0	2.5	/experiments/Knapen_AOT/AOT_stimuli/rescaled_final/1728_rv.mp4	0.0	219.58946919441223	2.4920196533203125
44	204.8538796901703	pulse	1	t		42.0	2.5	/experiments/Knapen_AOT/AOT_stimuli/rescaled_final/1728_rv.mp4	0.0	220.36287879943848	
44	206.45403671264648	pulse	1	t		42.0	2.5	/experiments/Knapen_AOT/AOT_stimuli/rescaled_final/1728_rv.mp4	0.0	221.96303582191467	
44	206.57248973846436	fix_post	2		12	42.0	2.5	/experiments/Knapen_AOT/AOT_stimuli/rescaled_final/1728_rv.mp4	0.0	222.08148884773254	0.10004258155822754
45	206.67253232002258	fix_pre	0		120	43.0	2.5	/experiments/Knapen_AOT/AOT_stimuli/rescaled_final/1118_fw.mp4	0.0	222.18153142929077	1.0084269046783447
45	207.68095922470093	movie	1		281	43.0	2.5	/experiments/Knapen_AOT/AOT_stimuli/rescaled_final/1118_fw.mp4	0.0	223.18995833396912	2.49204683303833
45	208.05503702163696	pulse	1	t		43.0	2.5	/experiments/Knapen_AOT/AOT_stimuli/rescaled_final/1118_fw.mp4	0.0	223.56403613090515	
45	209.6545217037201	pulse	1	t		43.0	2.5	/experiments/Knapen_AOT/AOT_stimuli/rescaled_final/1118_fw.mp4	0.0	225.16352081298828	
45	210.17300605773926	fix_post	2		12	43.0	2.5	/experiments/Knapen_AOT/AOT_stimuli/rescaled_final/1118_fw.mp4	0.0	225.68200516700745	0.0999910831451416
46	210.2729971408844	fix_pre	0		119	44.0	2.5	/experiments/Knapen_AOT/AOT_stimuli/rescaled_final/1880_fw.mp4	0.0	225.7819962501526	1.0001816749572754
46	211.2568063735962	pulse	0	t		44.0	2.5	/experiments/Knapen_AOT/AOT_stimuli/rescaled_final/1880_fw.mp4	0.0	226.76580548286438	
46	211.27317881584167	movie	1		281	44.0	2.5	/experiments/Knapen_AOT/AOT_stimuli/rescaled_final/1880_fw.mp4	0.0	226.78217792510986	2.5004050731658936
46	212.8551013469696	pulse	1	t		44.0	2.5	/experiments/Knapen_AOT/AOT_stimuli/rescaled_final/1880_fw.mp4	0.0	228.3641004562378	
46	213.77358388900757	fix_post	2		12	44.0	2.5	/experiments/Knapen_AOT/AOT_stimuli/rescaled_final/1880_fw.mp4	0.0	229.28258299827576	0.10015249252319336
47	213.87373638153076	fix_pre	0		120	45.0	2.5	/experiments/Knapen_AOT/AOT_stimuli/rescaled_final/1144_fw.mp4	0.0	229.38273549079895	1.0083181858062744
47	214.4571168422699	pulse	0	t		45.0	2.5	/experiments/Knapen_AOT/AOT_stimuli/rescaled_final/1144_fw.mp4	0.0	229.9661159515381	
47	214.88205456733704	movie	1		269	45.0	2.5	/experiments/Knapen_AOT/AOT_stimuli/rescaled_final/1144_fw.mp4	0.0	230.39105367660522	2.4920144081115723
47	216.05589723587036	pulse	1	t		45.0	2.5	/experiments/Knapen_AOT/AOT_stimuli/rescaled_final/1144_fw.mp4	0.0	231.56489634513855	
47	217.3740689754486	fix_post	2		12	45.0	2.5	/experiments/Knapen_AOT/AOT_stimuli/rescaled_final/1144_fw.mp4	0.0	232.8830680847168	0.10015296936035156
48	217.47422194480896	fix_pre	0		105	46.0	2.5	/experiments/Knapen_AOT/AOT_stimuli/rescaled_final/1496_rv.mp4	0.0	232.98322105407715	1.0083985328674316
48	217.65772485733032	pulse	0	t		46.0	2.5	/experiments/Knapen_AOT/AOT_stimuli/rescaled_final/1496_rv.mp4	0.0	233.1667239665985	
48	218.4826204776764	movie	1		287	46.0	2.5	/experiments/Knapen_AOT/AOT_stimuli/rescaled_final/1496_rv.mp4	0.0	233.99161958694458	2.4920246601104736
48	219.2562882900238	pulse	1	t		46.0	2.5	/experiments/Knapen_AOT/AOT_stimuli/rescaled_final/1496_rv.mp4	0.0	234.765287399292	
48	220.85022568702698	pulse	1	t		46.0	2.5	/experiments/Knapen_AOT/AOT_stimuli/rescaled_final/1496_rv.mp4	0.0	236.35922479629517	
48	220.97464513778687	fix_post	2		12	46.0	2.5	/experiments/Knapen_AOT/AOT_stimuli/rescaled_final/1496_rv.mp4	0.0	236.48364424705505	0.09998798370361328
49	221.07463312149048	fix_pre	0		120	47.0	2.5	/experiments/Knapen_AOT/AOT_stimuli/rescaled_final/0197_rv.mp4	0.0	236.58363223075867	1.008507490158081
49	222.08314061164856	movie	1		278	47.0	2.5	/experiments/Knapen_AOT/AOT_stimuli/rescaled_final/0197_rv.mp4	0.0	237.59213972091675	2.4920098781585693
49	222.45021986961365	pulse	1	t		47.0	2.5	/experiments/Knapen_AOT/AOT_stimuli/rescaled_final/0197_rv.mp4	0.0	237.95921897888184	
49	224.05036520957947	pulse	1	t		47.0	2.5	/experiments/Knapen_AOT/AOT_stimuli/rescaled_final/0197_rv.mp4	0.0	239.55936431884766	
49	224.57515048980713	fix_post	2		12	47.0	2.5	/experiments/Knapen_AOT/AOT_stimuli/rescaled_final/0197_rv.mp4	0.0	240.08414959907532	0.09999847412109375
50	224.67514896392822	fix_pre	0		118	48.0	2.5	/experiments/Knapen_AOT/AOT_stimuli/rescaled_final/0984_rv.mp4	0.0	240.1841480731964	0.9918274879455566
50	225.65057921409607	pulse	0	t		48.0	2.5	/experiments/Knapen_AOT/AOT_stimuli/rescaled_final/0984_rv.mp4	0.0	241.15957832336426	
50	225.66697645187378	movie	1		285	48.0	2.5	/experiments/Knapen_AOT/AOT_stimuli/rescaled_final/0984_rv.mp4	0.0	241.17597556114197	2.500356674194336
50	227.25096011161804	pulse	1	t		48.0	2.5	/experiments/Knapen_AOT/AOT_stimuli/rescaled_final/0984_rv.mp4	0.0	242.75995922088623	
50	228.16733312606812	fix_post	2		12	48.0	2.5	/experiments/Knapen_AOT/AOT_stimuli/rescaled_final/0984_rv.mp4	0.0	243.6763322353363	0.10008907318115234
51	228.26742219924927	fix_pre	0		120	49.0	2.5	blank	1.0	243.77642130851746	1.0000998973846436
51	228.8510148525238	pulse	0	t		49.0	2.5	blank	1.0	244.360013961792	
51	229.2675220966339	movie	1		300	49.0	2.5	blank	1.0	244.7765212059021	2.5004823207855225
51	230.45130920410156	pulse	1	t		49.0	2.5	blank	1.0	245.96030831336975	
51	231.76800441741943	fix_post	2		12	49.0	2.5	blank	1.0	247.27700352668762	0.09998297691345215
52	231.86798739433289	fix_pre	0		120	50.0	2.5	/experiments/Knapen_AOT/AOT_stimuli/rescaled_final/1193_rv.mp4	0.0	247.37698650360107	1.008446216583252
52	232.05147695541382	pulse	0	t		50.0	2.5	/experiments/Knapen_AOT/AOT_stimuli/rescaled_final/1193_rv.mp4	0.0	247.560476064682	
52	232.87643361091614	movie	1		279	50.0	2.5	/experiments/Knapen_AOT/AOT_stimuli/rescaled_final/1193_rv.mp4	0.0	248.38543272018433	2.4920449256896973
52	233.65090036392212	pulse	1	t		50.0	2.5	/experiments/Knapen_AOT/AOT_stimuli/rescaled_final/1193_rv.mp4	0.0	249.1598994731903	
52	235.25201559066772	pulse	1	t		50.0	2.5	/experiments/Knapen_AOT/AOT_stimuli/rescaled_final/1193_rv.mp4	0.0	250.7610146999359	
52	235.36847853660583	fix_post	2		12	50.0	2.5	/experiments/Knapen_AOT/AOT_stimuli/rescaled_final/1193_rv.mp4	0.0	250.87747764587402	0.09997820854187012
53	235.4684567451477	fix_pre	0		120	51.0	2.5	/experiments/Knapen_AOT/AOT_stimuli/rescaled_final/1401_fw.mp4	0.0	250.9774558544159	1.0084748268127441
53	236.47693157196045	movie	1		270	51.0	2.5	/experiments/Knapen_AOT/AOT_stimuli/rescaled_final/1401_fw.mp4	0.0	251.98593068122864	2.492033004760742
53	236.85239458084106	pulse	1	t		51.0	2.5	/experiments/Knapen_AOT/AOT_stimuli/rescaled_final/1401_fw.mp4	0.0	252.36139369010925	
53	238.4505524635315	pulse	1	t		51.0	2.5	/experiments/Knapen_AOT/AOT_stimuli/rescaled_final/1401_fw.mp4	0.0	253.95955157279968	
53	238.9689645767212	fix_post	2		12	51.0	2.5	/experiments/Knapen_AOT/AOT_stimuli/rescaled_final/1401_fw.mp4	0.0	254.47796368598938	0.10003447532653809
54	239.06899905204773	fix_pre	0		119	52.0	2.5	/experiments/Knapen_AOT/AOT_stimuli/rescaled_final/0492_rv.mp4	0.0	254.57799816131592	1.0001471042633057
54	240.05277919769287	pulse	0	t		52.0	2.5	/experiments/Knapen_AOT/AOT_stimuli/rescaled_final/0492_rv.mp4	0.0	255.56177830696106	
54	240.06914615631104	movie	1		288	52.0	2.5	/experiments/Knapen_AOT/AOT_stimuli/rescaled_final/0492_rv.mp4	0.0	255.57814526557922	2.500373363494873
54	241.65164875984192	pulse	1	t		52.0	2.5	/experiments/Knapen_AOT/AOT_stimuli/rescaled_final/0492_rv.mp4	0.0	257.1606478691101	
54	242.5695195198059	fix_post	2		12	52.0	2.5	/experiments/Knapen_AOT/AOT_stimuli/rescaled_final/0492_rv.mp4	0.0	258.0785186290741	0.10000729560852051
55	242.66952681541443	fix_pre	0		120	53.0	2.5	/experiments/Knapen_AOT/AOT_stimuli/rescaled_final/1165_fw.mp4	0.0	258.1785259246826	1.008509635925293
55	243.25322699546814	pulse	0	t		53.0	2.5	/experiments/Knapen_AOT/AOT_stimuli/rescaled_final/1165_fw.mp4	0.0	258.7622261047363	
55	243.67803645133972	movie	1		276	53.0	2.5	/experiments/Knapen_AOT/AOT_stimuli/rescaled_final/1165_fw.mp4	0.0	259.1870355606079	2.492016077041626
55	244.85174942016602	pulse	1	t		53.0	2.5	/experiments/Knapen_AOT/AOT_stimuli/rescaled_final/1165_fw.mp4	0.0	260.3607485294342	
55	246.17005252838135	fix_post	2		12	53.0	2.5	/experiments/Knapen_AOT/AOT_stimuli/rescaled_final/1165_fw.mp4	0.0	261.67905163764954	0.10001039505004883
56	246.2700629234314	fix_pre	0		120	54.0	2.5	blank	1.0	261.7790620326996	1.0001485347747803
56	246.45371460914612	pulse	0	t		54.0	2.5	blank	1.0	261.9627137184143	
56	247.27021145820618	movie	1		300	54.0	2.5	blank	1.0	262.77921056747437	2.500394582748413
56	248.05395126342773	pulse	1	t		54.0	2.5	blank	1.0	263.5629503726959	
56	249.6541678905487	pulse	1	t		54.0	2.5	blank	1.0	265.1631669998169	
56	249.7706060409546	fix_post	2		12	54.0	2.5	blank	1.0	265.2796051502228	0.10013341903686523
57	249.87073945999146	fix_pre	0		120	55.0	2.5	/experiments/Knapen_AOT/AOT_stimuli/rescaled_final/1269_fw.mp4	0.0	265.37973856925964	1.0084211826324463
57	250.8791606426239	movie	1		284	55.0	2.5	/experiments/Knapen_AOT/AOT_stimuli/rescaled_final/1269_fw.mp4	0.0	266.3881597518921	2.491987466812134
57	251.2534248828888	pulse	1	t		55.0	2.5	/experiments/Knapen_AOT/AOT_stimuli/rescaled_final/1269_fw.mp4	0.0	266.762423992157	
57	252.8523588180542	pulse	1	t		55.0	2.5	/experiments/Knapen_AOT/AOT_stimuli/rescaled_final/1269_fw.mp4	0.0	268.3613579273224	
57	253.37114810943604	fix_post	2		12	55.0	2.5	/experiments/Knapen_AOT/AOT_stimuli/rescaled_final/1269_fw.mp4	0.0	268.8801472187042	0.10004472732543945
58	253.47119283676147	fix_pre	0		119	56.0	2.5	/experiments/Knapen_AOT/AOT_stimuli/rescaled_final/2089_rv.mp4	0.0	268.98019194602966	1.0086545944213867
58	254.45494532585144	pulse	0	t		56.0	2.5	/experiments/Knapen_AOT/AOT_stimuli/rescaled_final/2089_rv.mp4	0.0	269.96394443511963	
58	254.47984743118286	movie	1		281	56.0	2.5	/experiments/Knapen_AOT/AOT_stimuli/rescaled_final/2089_rv.mp4	0.0	269.98884654045105	2.4918410778045654
58	256.05381083488464	pulse	1	t		56.0	2.5	/experiments/Knapen_AOT/AOT_stimuli/rescaled_final/2089_rv.mp4	0.0	271.56280994415283	
58	256.9716885089874	fix_post	2		12	56.0	2.5	/experiments/Knapen_AOT/AOT_stimuli/rescaled_final/2089_rv.mp4	0.0	272.4806876182556	0.10000967979431152
59	257.07169818878174	fix_pre	0		120	57.0	2.5	/experiments/Knapen_AOT/AOT_stimuli/rescaled_final/0167_rv.mp4	0.0	272.5806972980499	1.0086019039154053
59	257.65540599823	pulse	0	t		57.0	2.5	/experiments/Knapen_AOT/AOT_stimuli/rescaled_final/0167_rv.mp4	0.0	273.16440510749817	
59	258.08030009269714	movie	1		273	57.0	2.5	/experiments/Knapen_AOT/AOT_stimuli/rescaled_final/0167_rv.mp4	0.0	273.58929920196533	2.491942882537842
59	259.2541358470917	pulse	1	t		57.0	2.5	/experiments/Knapen_AOT/AOT_stimuli/rescaled_final/0167_rv.mp4	0.0	274.76313495635986	
59	260.572242975235	fix_post	2		12	57.0	2.5	/experiments/Knapen_AOT/AOT_stimuli/rescaled_final/0167_rv.mp4	0.0	276.0812420845032	0.10007572174072266
60	260.6723186969757	fix_pre	0		120	58.0	2.5	/experiments/Knapen_AOT/AOT_stimuli/rescaled_final/0618_fw.mp4	0.0	276.1813178062439	1.0084571838378906
60	260.85591101646423	pulse	0	t		58.0	2.5	/experiments/Knapen_AOT/AOT_stimuli/rescaled_final/0618_fw.mp4	0.0	276.3649101257324	
60	261.6807758808136	movie	1		284	58.0	2.5	/experiments/Knapen_AOT/AOT_stimuli/rescaled_final/0618_fw.mp4	0.0	277.1897749900818	2.491988182067871
60	262.45457696914673	pulse	1	t		58.0	2.5	/experiments/Knapen_AOT/AOT_stimuli/rescaled_final/0618_fw.mp4	0.0	277.9635760784149	
60	264.0545094013214	pulse	1	t		58.0	2.5	/experiments/Knapen_AOT/AOT_stimuli/rescaled_final/0618_fw.mp4	0.0	279.5635085105896	
60	264.17276406288147	fix_post	2		12	58.0	2.5	/experiments/Knapen_AOT/AOT_stimuli/rescaled_final/0618_fw.mp4	0.0	279.68176317214966	0.10001969337463379
61	264.2727837562561	fix_pre	0		120	59.0	2.5	/experiments/Knapen_AOT/AOT_stimuli/rescaled_final/1136_rv.mp4	0.0	279.7817828655243	1.0084760189056396
61	265.28125977516174	movie	1		286	59.0	2.5	/experiments/Knapen_AOT/AOT_stimuli/rescaled_final/1136_rv.mp4	0.0	280.79025888442993	2.49210786819458
61	265.65486335754395	pulse	1	t		59.0	2.5	/experiments/Knapen_AOT/AOT_stimuli/rescaled_final/1136_rv.mp4	0.0	281.16386246681213	
61	267.2546696662903	pulse	1	t		59.0	2.5	/experiments/Knapen_AOT/AOT_stimuli/rescaled_final/1136_rv.mp4	0.0	282.7636687755585	
61	267.7733676433563	fix_post	2		12	59.0	2.5	/experiments/Knapen_AOT/AOT_stimuli/rescaled_final/1136_rv.mp4	0.0	283.2823667526245	0.1000053882598877
62	267.8733730316162	fix_pre	0		119	60.0	2.5	/experiments/Knapen_AOT/AOT_stimuli/rescaled_final/1251_rv.mp4	0.0	283.3823721408844	1.0002202987670898
62	268.84962272644043	pulse	0	t		60.0	2.5	/experiments/Knapen_AOT/AOT_stimuli/rescaled_final/1251_rv.mp4	0.0	284.3586218357086	
62	268.8735933303833	movie	1		275	60.0	2.5	/experiments/Knapen_AOT/AOT_stimuli/rescaled_final/1251_rv.mp4	0.0	284.3825924396515	2.500277042388916
62	270.4557273387909	pulse	1	t		60.0	2.5	/experiments/Knapen_AOT/AOT_stimuli/rescaled_final/1251_rv.mp4	0.0	285.9647264480591	
62	271.3738703727722	fix_post	2		12	60.0	2.5	/experiments/Knapen_AOT/AOT_stimuli/rescaled_final/1251_rv.mp4	0.0	286.8828694820404	0.10002827644348145
63	271.4738986492157	fix_pre	0		120	61.0	2.5	/experiments/Knapen_AOT/AOT_stimuli/rescaled_final/0661_rv.mp4	0.0	286.9828977584839	1.0085628032684326
63	272.04953169822693	pulse	0	t		61.0	2.5	/experiments/Knapen_AOT/AOT_stimuli/rescaled_final/0661_rv.mp4	0.0	287.5585308074951	
63	272.48246145248413	movie	1		284	61.0	2.5	/experiments/Knapen_AOT/AOT_stimuli/rescaled_final/0661_rv.mp4	0.0	287.9914605617523	2.4919590950012207
63	273.6498727798462	pulse	1	t		61.0	2.5	/experiments/Knapen_AOT/AOT_stimuli/rescaled_final/0661_rv.mp4	0.0	289.1588718891144	
63	274.97442054748535	fix_post	2		12	61.0	2.5	/experiments/Knapen_AOT/AOT_stimuli/rescaled_final/0661_rv.mp4	0.0	290.48341965675354	0.10004401206970215
64	275.07446455955505	fix_pre	0		120	62.0	2.5	/experiments/Knapen_AOT/AOT_stimuli/rescaled_final/0167_fw.mp4	0.0	290.58346366882324	1.0084218978881836
64	275.2496545314789	pulse	0	t		62.0	2.5	/experiments/Knapen_AOT/AOT_stimuli/rescaled_final/0167_fw.mp4	0.0	290.75865364074707	
64	276.08288645744324	movie	1		277	62.0	2.5	/experiments/Knapen_AOT/AOT_stimuli/rescaled_final/0167_fw.mp4	0.0	291.5918855667114	2.4920432567596436
64	276.84993839263916	pulse	1	t		62.0	2.5	/experiments/Knapen_AOT/AOT_stimuli/rescaled_final/0167_fw.mp4	0.0	292.35893750190735	
64	278.450501203537	pulse	1	t		62.0	2.5	/experiments/Knapen_AOT/AOT_stimuli/rescaled_final/0167_fw.mp4	0.0	293.9595003128052	
64	278.5749297142029	fix_post	2		12	62.0	2.5	/experiments/Knapen_AOT/AOT_stimuli/rescaled_final/0167_fw.mp4	0.0	294.08392882347107	0.10001921653747559
65	278.67494893074036	fix_pre	0		120	63.0	2.5	blank	1.0	294.18394804000854	1.0002267360687256
65	279.6751756668091	movie	1		300	63.0	2.5	blank	1.0	295.18417477607727	2.500371217727661
65	280.0503740310669	pulse	1	t		63.0	2.5	blank	1.0	295.5593731403351	
65	281.6508264541626	pulse	1	t		63.0	2.5	blank	1.0	297.1598255634308	
65	282.17554688453674	fix_post	2		12	63.0	2.5	blank	1.0	297.68454599380493	0.10002326965332031
66	282.27557015419006	fix_pre	0		118	64.0	2.5	/experiments/Knapen_AOT/AOT_stimuli/rescaled_final/0124_rv.mp4	0.0	297.78456926345825	0.9918527603149414
66	283.25119256973267	pulse	0	t		64.0	2.5	/experiments/Knapen_AOT/AOT_stimuli/rescaled_final/0124_rv.mp4	0.0	298.76019167900085	
66	283.267422914505	movie	1		282	64.0	2.5	/experiments/Knapen_AOT/AOT_stimuli/rescaled_final/0124_rv.mp4	0.0	298.7764220237732	2.5004022121429443
66	284.84983348846436	pulse	1	t		64.0	2.5	/experiments/Knapen_AOT/AOT_stimuli/rescaled_final/0124_rv.mp4	0.0	300.35883259773254	
66	285.76782512664795	fix_post	2		12	64.0	2.5	/experiments/Knapen_AOT/AOT_stimuli/rescaled_final/0124_rv.mp4	0.0	301.27682423591614	0.09986376762390137
67	285.86768889427185	fix_pre	0		120	65.0	2.5	/experiments/Knapen_AOT/AOT_stimuli/rescaled_final/1261_rv.mp4	0.0	301.37668800354004	1.0085561275482178
67	286.4513645172119	pulse	0	t		65.0	2.5	/experiments/Knapen_AOT/AOT_stimuli/rescaled_final/1261_rv.mp4	0.0	301.9603636264801	
67	286.87624502182007	movie	1		282	65.0	2.5	/experiments/Knapen_AOT/AOT_stimuli/rescaled_final/1261_rv.mp4	0.0	302.38524413108826	2.491976737976074
67	288.05006742477417	pulse	1	t		65.0	2.5	/experiments/Knapen_AOT/AOT_stimuli/rescaled_final/1261_rv.mp4	0.0	303.55906653404236	
67	289.36822175979614	fix_post	2		12	65.0	2.5	/experiments/Knapen_AOT/AOT_stimuli/rescaled_final/1261_rv.mp4	0.0	304.87722086906433	0.10001349449157715
68	289.4682352542877	fix_pre	0		120	66.0	2.5	/experiments/Knapen_AOT/AOT_stimuli/rescaled_final/1051_rv.mp4	0.0	304.9772343635559	1.0085198879241943
68	289.65184783935547	pulse	0	t		66.0	2.5	/experiments/Knapen_AOT/AOT_stimuli/rescaled_final/1051_rv.mp4	0.0	305.16084694862366	
68	290.4767551422119	movie	1		282	66.0	2.5	/experiments/Knapen_AOT/AOT_stimuli/rescaled_final/1051_rv.mp4	0.0	305.9857542514801	2.49198055267334
68	291.25174736976624	pulse	1	t		66.0	2.5	/experiments/Knapen_AOT/AOT_stimuli/rescaled_final/1051_rv.mp4	0.0	306.7607464790344	
68	292.85063219070435	pulse	1	t		66.0	2.5	/experiments/Knapen_AOT/AOT_stimuli/rescaled_final/1051_rv.mp4	0.0	308.35963129997253	
68	292.96873569488525	fix_post	2		12	66.0	2.5	/experiments/Knapen_AOT/AOT_stimuli/rescaled_final/1051_rv.mp4	0.0	308.47773480415344	0.10005474090576172
69	293.068790435791	fix_pre	0		120	67.0	2.5	/experiments/Knapen_AOT/AOT_stimuli/rescaled_final/1302_fw.mp4	0.0	308.5777895450592	1.008495807647705
69	294.0772862434387	movie	1		279	67.0	2.5	/experiments/Knapen_AOT/AOT_stimuli/rescaled_final/1302_fw.mp4	0.0	309.5862853527069	2.492016315460205
69	294.45115756988525	pulse	1	t		67.0	2.5	/experiments/Knapen_AOT/AOT_stimuli/rescaled_final/1302_fw.mp4	0.0	309.96015667915344	
69	296.0507378578186	pulse	1	t		67.0	2.5	/experiments/Knapen_AOT/AOT_stimuli/rescaled_final/1302_fw.mp4	0.0	311.5597369670868	
69	296.5693025588989	fix_post	2		12	67.0	2.5	/experiments/Knapen_AOT/AOT_stimuli/rescaled_final/1302_fw.mp4	0.0	312.0783016681671	0.10001420974731445
70	296.66931676864624	fix_pre	0		119	68.0	2.5	/experiments/Knapen_AOT/AOT_stimuli/rescaled_final/1301_fw.mp4	0.0	312.17831587791443	1.0001296997070312
70	297.65305376052856	pulse	0	t		68.0	2.5	/experiments/Knapen_AOT/AOT_stimuli/rescaled_final/1301_fw.mp4	0.0	313.16205286979675	
70	297.66944646835327	movie	1		279	68.0	2.5	/experiments/Knapen_AOT/AOT_stimuli/rescaled_final/1301_fw.mp4	0.0	313.17844557762146	2.5003902912139893
70	299.252117395401	pulse	1	t		68.0	2.5	/experiments/Knapen_AOT/AOT_stimuli/rescaled_final/1301_fw.mp4	0.0	314.7611165046692	
70	300.16983675956726	fix_post	2		12	68.0	2.5	/experiments/Knapen_AOT/AOT_stimuli/rescaled_final/1301_fw.mp4	0.0	315.67883586883545	0.10000896453857422
71	300.26984572410583	fix_pre	0		120	69.0	2.5	/experiments/Knapen_AOT/AOT_stimuli/rescaled_final/0520_rv.mp4	0.0	315.778844833374	1.0085341930389404
71	300.85346508026123	pulse	0	t		69.0	2.5	/experiments/Knapen_AOT/AOT_stimuli/rescaled_final/0520_rv.mp4	0.0	316.3624641895294	
71	301.2783799171448	movie	1		279	69.0	2.5	/experiments/Knapen_AOT/AOT_stimuli/rescaled_final/0520_rv.mp4	0.0	316.78737902641296	2.4919915199279785
71	302.4521541595459	pulse	1	t		69.0	2.5	/experiments/Knapen_AOT/AOT_stimuli/rescaled_final/0520_rv.mp4	0.0	317.9611532688141	
71	303.77037143707275	fix_post	2		12	69.0	2.5	/experiments/Knapen_AOT/AOT_stimuli/rescaled_final/0520_rv.mp4	0.0	319.27937054634094	0.10005950927734375
72	303.8704309463501	fix_pre	0		120	70.0	2.5	blank	1.0	319.3794300556183	1.0002100467681885
72	304.05398774147034	pulse	0	t		70.0	2.5	blank	1.0	319.5629868507385	
72	304.8706409931183	movie	1		299	70.0	2.5	blank	1.0	320.3796401023865	2.5002617835998535
72	305.6545145511627	pulse	1	t		70.0	2.5	blank	1.0	321.1635136604309	
72	307.25453448295593	pulse	1	t		70.0	2.5	blank	1.0	322.7635335922241	
72	307.37090277671814	fix_post	2		12	70.0	2.5	blank	1.0	322.8799018859863	0.10004091262817383
73	307.4709436893463	fix_pre	0		120	71.0	2.5	/experiments/Knapen_AOT/AOT_stimuli/rescaled_final/0652_rv.mp4	0.0	322.9799427986145	1.008549451828003
73	308.4794931411743	movie	1		277	71.0	2.5	/experiments/Knapen_AOT/AOT_stimuli/rescaled_final/0652_rv.mp4	0.0	323.9884922504425	2.4920074939727783
73	308.8529348373413	pulse	1	t		71.0	2.5	/experiments/Knapen_AOT/AOT_stimuli/rescaled_final/0652_rv.mp4	0.0	324.3619339466095	
73	310.453275680542	pulse	1	t		71.0	2.5	/experiments/Knapen_AOT/AOT_stimuli/rescaled_final/0652_rv.mp4	0.0	325.9622747898102	
73	310.9715006351471	fix_post	2		12	71.0	2.5	/experiments/Knapen_AOT/AOT_stimuli/rescaled_final/0652_rv.mp4	0.0	326.4804997444153	0.10011148452758789
74	311.0716121196747	fix_pre	0		119	72.0	2.5	/experiments/Knapen_AOT/AOT_stimuli/rescaled_final/2049_rv.mp4	0.0	326.58061122894287	1.0000054836273193
74	312.05551958084106	pulse	0	t		72.0	2.5	/experiments/Knapen_AOT/AOT_stimuli/rescaled_final/2049_rv.mp4	0.0	327.56451869010925	
74	312.071617603302	movie	1		287	72.0	2.5	/experiments/Knapen_AOT/AOT_stimuli/rescaled_final/2049_rv.mp4	0.0	327.5806167125702	2.5004475116729736
74	313.6543242931366	pulse	1	t		72.0	2.5	/experiments/Knapen_AOT/AOT_stimuli/rescaled_final/2049_rv.mp4	0.0	329.1633234024048	
74	314.572065114975	fix_post	2		12	72.0	2.5	/experiments/Knapen_AOT/AOT_stimuli/rescaled_final/2049_rv.mp4	0.0	330.08106422424316	0.09995889663696289
75	314.67202401161194	fix_pre	0		120	73.0	2.5	/experiments/Knapen_AOT/AOT_stimuli/rescaled_final/0014_fw.mp4	0.0	330.1810231208801	1.0085690021514893
75	315.2556881904602	pulse	0	t		73.0	2.5	/experiments/Knapen_AOT/AOT_stimuli/rescaled_final/0014_fw.mp4	0.0	330.7646872997284	
75	315.6805930137634	movie	1		279	73.0	2.5	/experiments/Knapen_AOT/AOT_stimuli/rescaled_final/0014_fw.mp4	0.0	331.1895921230316	2.491957187652588
75	316.85469579696655	pulse	1	t		73.0	2.5	/experiments/Knapen_AOT/AOT_stimuli/rescaled_final/0014_fw.mp4	0.0	332.36369490623474	
75	318.172550201416	fix_post	2		12	73.0	2.5	/experiments/Knapen_AOT/AOT_stimuli/rescaled_final/0014_fw.mp4	0.0	333.6815493106842	0.10002350807189941
76	318.2725737094879	fix_pre	0		120	74.0	2.5	/experiments/Knapen_AOT/AOT_stimuli/rescaled_final/2049_fw.mp4	0.0	333.7815728187561	1.0084822177886963
76	318.4562072753906	pulse	0	t		74.0	2.5	/experiments/Knapen_AOT/AOT_stimuli/rescaled_final/2049_fw.mp4	0.0	333.9652063846588	
76	319.2810559272766	movie	1		280	74.0	2.5	/experiments/Knapen_AOT/AOT_stimuli/rescaled_final/2049_fw.mp4	0.0	334.7900550365448	2.492039680480957
76	320.05441975593567	pulse	1	t		74.0	2.5	/experiments/Knapen_AOT/AOT_stimuli/rescaled_final/2049_fw.mp4	0.0	335.56341886520386	
76	321.654500246048	pulse	1	t		74.0	2.5	/experiments/Knapen_AOT/AOT_stimuli/rescaled_final/2049_fw.mp4	0.0	337.16349935531616	
76	321.77309560775757	fix_post	2		12	74.0	2.5	/experiments/Knapen_AOT/AOT_stimuli/rescaled_final/2049_fw.mp4	0.0	337.28209471702576	0.10001826286315918
77	321.8731138706207	fix_pre	0		120	75.0	2.5	/experiments/Knapen_AOT/AOT_stimuli/rescaled_final/0496_rv.mp4	0.0	337.3821129798889	1.0085172653198242
77	322.88163113594055	movie	1		283	75.0	2.5	/experiments/Knapen_AOT/AOT_stimuli/rescaled_final/0496_rv.mp4	0.0	338.39063024520874	2.492004156112671
77	323.2555763721466	pulse	1	t		75.0	2.5	/experiments/Knapen_AOT/AOT_stimuli/rescaled_final/0496_rv.mp4	0.0	338.7645754814148	
77	324.8554096221924	pulse	1	t		75.0	2.5	/experiments/Knapen_AOT/AOT_stimuli/rescaled_final/0496_rv.mp4	0.0	340.36440873146057	
77	325.3736352920532	fix_post	2		12	75.0	2.5	/experiments/Knapen_AOT/AOT_stimuli/rescaled_final/0496_rv.mp4	0.0	340.8826344013214	0.1001133918762207
78	325.47374868392944	fix_pre	0		119	76.0	2.5	/experiments/Knapen_AOT/AOT_stimuli/rescaled_final/1051_rv.mp4	0.0	340.98274779319763	1.0000791549682617
78	326.45753026008606	pulse	0	t		76.0	2.5	/experiments/Knapen_AOT/AOT_stimuli/rescaled_final/1051_rv.mp4	0.0	341.96652936935425	
78	326.4738278388977	movie	1		287	76.0	2.5	/experiments/Knapen_AOT/AOT_stimuli/rescaled_final/1051_rv.mp4	0.0	341.9828269481659	2.500340700149536
78	328.05669832229614	pulse	1	t		76.0	2.5	/experiments/Knapen_AOT/AOT_stimuli/rescaled_final/1051_rv.mp4	0.0	343.56569743156433	
78	328.97416853904724	fix_post	2		12	76.0	2.5	/experiments/Knapen_AOT/AOT_stimuli/rescaled_final/1051_rv.mp4	0.0	344.48316764831543	0.10001802444458008
79	329.0741865634918	fix_pre	0		120	77.0	2.5	blank	1.0	344.58318567276	1.0001578330993652
79	329.64992570877075	pulse	0	t		77.0	2.5	blank	1.0	345.15892481803894	
79	330.0743443965912	movie	1		300	77.0	2.5	blank	1.0	345.5833435058594	2.500377893447876
79	331.24998664855957	pulse	1	t		77.0	2.5	blank	1.0	346.75898575782776	
79	332.57472229003906	fix_post	2		12	77.0	2.5	blank	1.0	348.08372139930725	0.10004591941833496
80	332.6747682094574	fix_pre	0		120	78.0	2.5	/experiments/Knapen_AOT/AOT_stimuli/rescaled_final/0335_rv.mp4	0.0	348.1837673187256	1.0084683895111084
80	332.8502404689789	pulse	0	t		78.0	2.5	/experiments/Knapen_AOT/AOT_stimuli/rescaled_final/0335_rv.mp4	0.0	348.35923957824707	
80	333.6832365989685	movie	1		267	78.0	2.5	/experiments/Knapen_AOT/AOT_stimuli/rescaled_final/0335_rv.mp4	0.0	349.1922357082367	2.492018461227417
80	334.4506034851074	pulse	1	t		78.0	2.5	/experiments/Knapen_AOT/AOT_stimuli/rescaled_final/0335_rv.mp4	0.0	349.9596025943756	
80	336.05046463012695	pulse	1	t		78.0	2.5	/experiments/Knapen_AOT/AOT_stimuli/rescaled_final/0335_rv.mp4	0.0	351.55946373939514	
80	336.1752550601959	fix_post	2		12	78.0	2.5	/experiments/Knapen_AOT/AOT_stimuli/rescaled_final/0335_rv.mp4	0.0	351.6842541694641	0.10006332397460938
81	336.27531838417053	fix_pre	0		120	79.0	2.5	/experiments/Knapen_AOT/AOT_stimuli/rescaled_final/2089_rv.mp4	0.0	351.7843174934387	1.0084238052368164
81	337.28374218940735	movie	1		259	79.0	2.5	/experiments/Knapen_AOT/AOT_stimuli/rescaled_final/2089_rv.mp4	0.0	352.79274129867554	2.500415325164795
81	337.6510055065155	pulse	1	t		79.0	2.5	/experiments/Knapen_AOT/AOT_stimuli/rescaled_final/2089_rv.mp4	0.0	353.1600046157837	
81	339.2509927749634	pulse	1	t		79.0	2.5	/experiments/Knapen_AOT/AOT_stimuli/rescaled_final/2089_rv.mp4	0.0	354.75999188423157	
81	339.78415751457214	fix_post	2		11	79.0	2.5	/experiments/Knapen_AOT/AOT_stimuli/rescaled_final/2089_rv.mp4	0.0	355.29315662384033	0.09169173240661621
82	339.87584924697876	fix_pre	0		118	80.0	2.5	/experiments/Knapen_AOT/AOT_stimuli/rescaled_final/1524_rv.mp4	0.0	355.38484835624695	0.9917917251586914
82	340.851211309433	pulse	0	t		80.0	2.5	/experiments/Knapen_AOT/AOT_stimuli/rescaled_final/1524_rv.mp4	0.0	356.3602104187012	
82	340.86764097213745	movie	1		288	80.0	2.5	/experiments/Knapen_AOT/AOT_stimuli/rescaled_final/1524_rv.mp4	0.0	356.37664008140564	2.500380754470825
82	342.45028614997864	pulse	1	t		80.0	2.5	/experiments/Knapen_AOT/AOT_stimuli/rescaled_final/1524_rv.mp4	0.0	357.9592852592468	
82	343.3680217266083	fix_post	2		12	80.0	2.5	/experiments/Knapen_AOT/AOT_stimuli/rescaled_final/1524_rv.mp4	0.0	358.87702083587646	0.10000133514404297
83	343.4680230617523	fix_pre	0		120	81.0	2.5	/experiments/Knapen_AOT/AOT_stimuli/rescaled_final/0661_fw.mp4	0.0	358.9770221710205	1.0084905624389648
83	344.0517601966858	pulse	0	t		81.0	2.5	/experiments/Knapen_AOT/AOT_stimuli/rescaled_final/0661_fw.mp4	0.0	359.560759305954	
83	344.4765136241913	movie	1		290	81.0	2.5	/experiments/Knapen_AOT/AOT_stimuli/rescaled_final/0661_fw.mp4	0.0	359.9855127334595	2.4920315742492676
83	345.6504635810852	pulse	1	t		81.0	2.5	/experiments/Knapen_AOT/AOT_stimuli/rescaled_final/0661_fw.mp4	0.0	361.1594626903534	
83	346.96854519844055	fix_post	2		12	81.0	2.5	/experiments/Knapen_AOT/AOT_stimuli/rescaled_final/0661_fw.mp4	0.0	362.47754430770874	0.1000065803527832
84	347.06855177879333	fix_pre	0		120	82.0	2.5	/experiments/Knapen_AOT/AOT_stimuli/rescaled_final/1645_rv.mp4	0.0	362.5775508880615	1.0085148811340332
84	347.2522919178009	pulse	0	t		82.0	2.5	/experiments/Knapen_AOT/AOT_stimuli/rescaled_final/1645_rv.mp4	0.0	362.7612910270691	
84	348.07706665992737	movie	1		286	82.0	2.5	/experiments/Knapen_AOT/AOT_stimuli/rescaled_final/1645_rv.mp4	0.0	363.58606576919556	2.4920191764831543
84	348.85106563568115	pulse	1	t		82.0	2.5	/experiments/Knapen_AOT/AOT_stimuli/rescaled_final/1645_rv.mp4	0.0	364.36006474494934	
84	350.4509105682373	pulse	1	t		82.0	2.5	/experiments/Knapen_AOT/AOT_stimuli/rescaled_final/1645_rv.mp4	0.0	365.9599096775055	
84	350.5690858364105	fix_post	2		12	82.0	2.5	/experiments/Knapen_AOT/AOT_stimuli/rescaled_final/1645_rv.mp4	0.0	366.0780849456787	0.10007548332214355
85	350.66916131973267	fix_pre	0		120	83.0	2.5	blank	1.0	366.17816042900085	1.0000808238983154
85	351.669242143631	movie	1		300	83.0	2.5	blank	1.0	367.17824125289917	2.5003724098205566
85	352.0529215335846	pulse	1	t		83.0	2.5	blank	1.0	367.5619206428528	
85	353.65307807922363	pulse	1	t		83.0	2.5	blank	1.0	369.1620771884918	
85	354.16961455345154	fix_post	2		12	83.0	2.5	blank	1.0	369.6786136627197	0.09999704360961914
87	354.26961159706116	stim	0		1715					369.77861070632935	14.293853044509888
87	355.2534918785095	pulse	0	t						370.7624909877777	
87	356.8536944389343	pulse	0	t						372.3626935482025	
87	358.45384788513184	pulse	0	t						373.9628469944	
87	360.0541296005249	pulse	0	t						375.5631287097931	
87	361.6543071269989	pulse	0	t						377.1633062362671	
87	363.2545289993286	pulse	0	t						378.7635281085968	
87	364.8547959327698	pulse	0	t						380.36379504203796	
87	366.45500779151917	pulse	0	t						381.96400690078735	
87	368.0552444458008	pulse	0	t						383.56424355506897	
