trial_nr	onset	event_type	phase	response	nr_frames	movie_index	movie_duration	movie_file	blank	onset_abs	duration
0	0.14995908737182617	stim	0		109					48.88092613220215	0.9082059860229492
0	1.0502331256866455	response	0	space						49.78120017051697	
1	1.0581650733947754	stim	0		126086					49.7891321182251	1050.7200219631195
1	1051.7742800712585	pulse	0	t						1100.5052471160889	
1	1051.7781870365143	stim	1		1717					1100.5091540813446	14.308279037475586
1	1053.3617579936981	pulse	1	t						1102.0927250385284	
1	1054.961629152298	pulse	1	t						1103.6925961971283	
1	1056.5616109371185	pulse	1	t						1105.2925779819489	
1	1058.1617360115051	pulse	1	t						1106.8927030563354	
1	1059.7616000175476	pulse	1	t						1108.492567062378	
1	1061.3616111278534	pulse	1	t						1110.0925781726837	
1	1062.9615659713745	pulse	1	t						1111.6925330162048	
1	1064.5616290569305	pulse	1	t						1113.2925961017609	
2	1066.0864660739899	fix_pre	0		10	0.0	2.5	/experiments/AOT/AOT_stimuli/rescaled_final/1245_rv.mp4	0.0	1114.8174331188202	0.09165287017822266
2	1066.1616179943085	pulse	0	t		0.0	2.5	/experiments/AOT/AOT_stimuli/rescaled_final/1245_rv.mp4	0.0	1114.8925850391388	
2	1066.178118944168	movie	1		242	0.0	2.5	/experiments/AOT/AOT_stimuli/rescaled_final/1245_rv.mp4	0.0	1114.9090859889984	2.4995551109313965
2	1067.7627501487732	pulse	1	t		0.0	2.5	/experiments/AOT/AOT_stimuli/rescaled_final/1245_rv.mp4	0.0	1116.4937171936035	
2	1068.6776740550995	fix_post	2		12	0.0	2.5	/experiments/AOT/AOT_stimuli/rescaled_final/1245_rv.mp4	0.0	1117.4086410999298	0.10032892227172852
3	1068.7780029773712	fix_pre	0		120	1.0	2.5	/experiments/AOT/AOT_stimuli/rescaled_final/0348_rv.mp4	0.0	1117.5089700222015	1.0001201629638672
3	1069.3616189956665	pulse	0	t		1.0	2.5	/experiments/AOT/AOT_stimuli/rescaled_final/0348_rv.mp4	0.0	1118.0925860404968	
3	1069.778123140335	movie	1		243	1.0	2.5	/experiments/AOT/AOT_stimuli/rescaled_final/0348_rv.mp4	0.0	1118.5090901851654	2.5004990100860596
3	1070.9617021083832	pulse	1	t		1.0	2.5	/experiments/AOT/AOT_stimuli/rescaled_final/0348_rv.mp4	0.0	1119.6926691532135	
3	1072.2786221504211	fix_post	2		12	1.0	2.5	/experiments/AOT/AOT_stimuli/rescaled_final/0348_rv.mp4	0.0	1121.0095891952515	0.09943485260009766
4	1072.3780570030212	fix_pre	0		120	2.0	2.5	/experiments/AOT/AOT_stimuli/rescaled_final/1890_fw.mp4	0.0	1121.1090240478516	0.9999480247497559
4	1072.5615379810333	pulse	0	t		2.0	2.5	/experiments/AOT/AOT_stimuli/rescaled_final/1890_fw.mp4	0.0	1121.2925050258636	
4	1073.378005027771	movie	1		241	2.0	2.5	/experiments/AOT/AOT_stimuli/rescaled_final/1890_fw.mp4	0.0	1122.1089720726013	2.499706983566284
4	1074.161782026291	pulse	1	t		2.0	2.5	/experiments/AOT/AOT_stimuli/rescaled_final/1890_fw.mp4	0.0	1122.8927490711212	
4	1075.76003408432	pulse	1	t		2.0	2.5	/experiments/AOT/AOT_stimuli/rescaled_final/1890_fw.mp4	0.0	1124.4910011291504	
4	1075.8777120113373	fix_post	2		12	2.0	2.5	/experiments/AOT/AOT_stimuli/rescaled_final/1890_fw.mp4	0.0	1124.6086790561676	0.10034012794494629
5	1075.9780521392822	fix_pre	0		120	3.0	2.5	/experiments/AOT/AOT_stimuli/rescaled_final/2177_rv.mp4	0.0	1124.7090191841125	1.0000388622283936
5	1076.9780910015106	movie	1		243	3.0	2.5	/experiments/AOT/AOT_stimuli/rescaled_final/2177_rv.mp4	0.0	1125.709058046341	2.5000269412994385
5	1077.3614220619202	pulse	1	t		3.0	2.5	/experiments/AOT/AOT_stimuli/rescaled_final/2177_rv.mp4	0.0	1126.0923891067505	
5	1078.9615890979767	pulse	1	t		3.0	2.5	/experiments/AOT/AOT_stimuli/rescaled_final/2177_rv.mp4	0.0	1127.692556142807	
5	1079.47811794281	fix_post	2		12	3.0	2.5	/experiments/AOT/AOT_stimuli/rescaled_final/2177_rv.mp4	0.0	1128.2090849876404	0.09993314743041992
6	1079.5780510902405	fix_pre	0		119	4.0	2.5	/experiments/AOT/AOT_stimuli/rescaled_final/0759_fw.mp4	0.0	1128.3090181350708	0.9917130470275879
6	1080.5615479946136	pulse	0	t		4.0	2.5	/experiments/AOT/AOT_stimuli/rescaled_final/0759_fw.mp4	0.0	1129.292515039444	
6	1080.569764137268	movie	1		244	4.0	2.5	/experiments/AOT/AOT_stimuli/rescaled_final/0759_fw.mp4	0.0	1129.3007311820984	2.5082929134368896
6	1082.1615591049194	pulse	1	t		4.0	2.5	/experiments/AOT/AOT_stimuli/rescaled_final/0759_fw.mp4	0.0	1130.8925261497498	
6	1083.078057050705	fix_post	2		12	4.0	2.5	/experiments/AOT/AOT_stimuli/rescaled_final/0759_fw.mp4	0.0	1131.8090240955353	0.09993791580200195
7	1083.177994966507	fix_pre	0		120	5.0	2.5	blank	1.0	1131.9089620113373	0.9999861717224121
7	1083.761579990387	pulse	0	t		5.0	2.5	blank	1.0	1132.4925470352173	
7	1084.1779811382294	movie	1		300	5.0	2.5	blank	1.0	1132.9089481830597	2.50002384185791
7	1085.361613035202	pulse	1	t		5.0	2.5	blank	1.0	1134.0925800800323	
7	1086.6780049800873	fix_post	2		12	5.0	2.5	blank	1.0	1135.4089720249176	0.10004115104675293
8	1086.778046131134	fix_pre	0		120	6.0	2.5	/experiments/AOT/AOT_stimuli/rescaled_final/0541_fw.mp4	0.0	1135.5090131759644	0.9999239444732666
8	1086.96160197258	pulse	0	t		6.0	2.5	/experiments/AOT/AOT_stimuli/rescaled_final/0541_fw.mp4	0.0	1135.6925690174103	
8	1087.7779700756073	movie	1		246	6.0	2.5	/experiments/AOT/AOT_stimuli/rescaled_final/0541_fw.mp4	0.0	1136.5089371204376	2.5000388622283936
8	1088.5614931583405	pulse	1	t		6.0	2.5	/experiments/AOT/AOT_stimuli/rescaled_final/0541_fw.mp4	0.0	1137.2924602031708	
8	1090.16153216362	pulse	1	t		6.0	2.5	/experiments/AOT/AOT_stimuli/rescaled_final/0541_fw.mp4	0.0	1138.8924992084503	
8	1090.2780089378357	fix_post	2		12	6.0	2.5	/experiments/AOT/AOT_stimuli/rescaled_final/0541_fw.mp4	0.0	1139.008975982666	0.09998822212219238
9	1090.3779971599579	fix_pre	0		120	7.0	2.5	/experiments/AOT/AOT_stimuli/rescaled_final/2096_fw.mp4	0.0	1139.1089642047882	1.0000159740447998
9	1091.3780131340027	movie	1		243	7.0	2.5	/experiments/AOT/AOT_stimuli/rescaled_final/2096_fw.mp4	0.0	1140.108980178833	2.500027894973755
9	1091.761113166809	pulse	1	t		7.0	2.5	/experiments/AOT/AOT_stimuli/rescaled_final/2096_fw.mp4	0.0	1140.4920802116394	
9	1093.3614540100098	pulse	1	t		7.0	2.5	/experiments/AOT/AOT_stimuli/rescaled_final/2096_fw.mp4	0.0	1142.09242105484	
9	1093.8780410289764	fix_post	2		12	7.0	2.5	/experiments/AOT/AOT_stimuli/rescaled_final/2096_fw.mp4	0.0	1142.6090080738068	0.100067138671875
10	1093.9781081676483	fix_pre	0		119	8.0	2.5	/experiments/AOT/AOT_stimuli/rescaled_final/1728_fw.mp4	0.0	1142.7090752124786	0.991567850112915
10	1094.961459159851	pulse	0	t		8.0	2.5	/experiments/AOT/AOT_stimuli/rescaled_final/1728_fw.mp4	0.0	1143.6924262046814	
10	1094.9696760177612	movie	1		244	8.0	2.5	/experiments/AOT/AOT_stimuli/rescaled_final/1728_fw.mp4	0.0	1143.7006430625916	2.5083279609680176
10	1096.5609710216522	pulse	1	t		8.0	2.5	/experiments/AOT/AOT_stimuli/rescaled_final/1728_fw.mp4	0.0	1145.2919380664825	
10	1097.4780039787292	fix_post	2		12	8.0	2.5	/experiments/AOT/AOT_stimuli/rescaled_final/1728_fw.mp4	0.0	1146.2089710235596	0.09996914863586426
11	1097.577973127365	fix_pre	0		120	9.0	2.5	/experiments/AOT/AOT_stimuli/rescaled_final/1259_fw.mp4	0.0	1146.3089401721954	0.9999828338623047
11	1098.1615040302277	pulse	0	t		9.0	2.5	/experiments/AOT/AOT_stimuli/rescaled_final/1259_fw.mp4	0.0	1146.892471075058	
11	1098.5779559612274	movie	1		244	9.0	2.5	/experiments/AOT/AOT_stimuli/rescaled_final/1259_fw.mp4	0.0	1147.3089230060577	2.499601125717163
11	1099.761507987976	pulse	1	t		9.0	2.5	/experiments/AOT/AOT_stimuli/rescaled_final/1259_fw.mp4	0.0	1148.4924750328064	
11	1101.0775570869446	fix_post	2		12	9.0	2.5	/experiments/AOT/AOT_stimuli/rescaled_final/1259_fw.mp4	0.0	1149.808524131775	0.10002303123474121
12	1101.1775801181793	fix_pre	0		120	10.0	2.5	/experiments/AOT/AOT_stimuli/rescaled_final/2171_rv.mp4	0.0	1149.9085471630096	1.0000419616699219
12	1101.3610889911652	pulse	0	t		10.0	2.5	/experiments/AOT/AOT_stimuli/rescaled_final/2171_rv.mp4	0.0	1150.0920560359955	
12	1102.1776220798492	movie	1		242	10.0	2.5	/experiments/AOT/AOT_stimuli/rescaled_final/2171_rv.mp4	0.0	1150.9085891246796	2.500520944595337
12	1102.9611070156097	pulse	1	t		10.0	2.5	/experiments/AOT/AOT_stimuli/rescaled_final/2171_rv.mp4	0.0	1151.69207406044	
12	1104.559786081314	pulse	1	t		10.0	2.5	/experiments/AOT/AOT_stimuli/rescaled_final/2171_rv.mp4	0.0	1153.2907531261444	
12	1104.6781430244446	fix_post	2		12	10.0	2.5	/experiments/AOT/AOT_stimuli/rescaled_final/2171_rv.mp4	0.0	1153.409110069275	0.09986591339111328
13	1104.7780089378357	fix_pre	0		120	11.0	2.5	/experiments/AOT/AOT_stimuli/rescaled_final/1811_fw.mp4	0.0	1153.508975982666	1.0000500679016113
13	1105.7780590057373	movie	1		243	11.0	2.5	/experiments/AOT/AOT_stimuli/rescaled_final/1811_fw.mp4	0.0	1154.5090260505676	2.4995009899139404
13	1106.1624331474304	pulse	1	t		11.0	2.5	/experiments/AOT/AOT_stimuli/rescaled_final/1811_fw.mp4	0.0	1154.8934001922607	
13	1107.76132106781	pulse	1	t		11.0	2.5	/experiments/AOT/AOT_stimuli/rescaled_final/1811_fw.mp4	0.0	1156.4922881126404	
13	1108.2775599956512	fix_post	2		12	11.0	2.5	/experiments/AOT/AOT_stimuli/rescaled_final/1811_fw.mp4	0.0	1157.0085270404816	0.10041403770446777
14	1108.3779740333557	fix_pre	0		119	12.0	2.5	blank	1.0	1157.108941078186	0.9915719032287598
14	1109.3614361286163	pulse	0	t		12.0	2.5	blank	1.0	1158.0924031734467	
14	1109.3695459365845	movie	1		301	12.0	2.5	blank	1.0	1158.1005129814148	2.5083231925964355
14	1110.9614460468292	pulse	1	t		12.0	2.5	blank	1.0	1159.6924130916595	
14	1111.877869129181	fix_post	2		12	12.0	2.5	blank	1.0	1160.6088361740112	0.0999908447265625
15	1111.9778599739075	fix_pre	0		120	13.0	2.5	/experiments/AOT/AOT_stimuli/rescaled_final/1627_fw.mp4	0.0	1160.7088270187378	0.9999780654907227
15	1112.561383008957	pulse	0	t		13.0	2.5	/experiments/AOT/AOT_stimuli/rescaled_final/1627_fw.mp4	0.0	1161.2923500537872	
15	1112.9778380393982	movie	1		244	13.0	2.5	/experiments/AOT/AOT_stimuli/rescaled_final/1627_fw.mp4	0.0	1161.7088050842285	2.4996659755706787
15	1114.1613969802856	pulse	1	t		13.0	2.5	/experiments/AOT/AOT_stimuli/rescaled_final/1627_fw.mp4	0.0	1162.892364025116	
15	1115.4775040149689	fix_post	2		12	13.0	2.5	/experiments/AOT/AOT_stimuli/rescaled_final/1627_fw.mp4	0.0	1164.2084710597992	0.10030198097229004
16	1115.5778059959412	fix_pre	0		120	14.0	2.5	/experiments/AOT/AOT_stimuli/rescaled_final/2084_rv.mp4	0.0	1164.3087730407715	1.0001349449157715
16	1115.7613229751587	pulse	0	t		14.0	2.5	/experiments/AOT/AOT_stimuli/rescaled_final/2084_rv.mp4	0.0	1164.492290019989	
16	1116.577940940857	movie	1		243	14.0	2.5	/experiments/AOT/AOT_stimuli/rescaled_final/2084_rv.mp4	0.0	1165.3089079856873	2.499936103820801
16	1117.3613221645355	pulse	1	t		14.0	2.5	/experiments/AOT/AOT_stimuli/rescaled_final/2084_rv.mp4	0.0	1166.0922892093658	
16	1118.9598140716553	pulse	1	t		14.0	2.5	/experiments/AOT/AOT_stimuli/rescaled_final/2084_rv.mp4	0.0	1167.6907811164856	
16	1119.0778770446777	fix_post	2		12	14.0	2.5	/experiments/AOT/AOT_stimuli/rescaled_final/2084_rv.mp4	0.0	1167.808844089508	0.09998011589050293
17	1119.1778571605682	fix_pre	0		120	15.0	2.5	/experiments/AOT/AOT_stimuli/rescaled_final/0142_fw.mp4	0.0	1167.9088242053986	0.9999988079071045
17	1120.1778559684753	movie	1		244	15.0	2.5	/experiments/AOT/AOT_stimuli/rescaled_final/0142_fw.mp4	0.0	1168.9088230133057	2.4999771118164062
17	1120.5610899925232	pulse	1	t		15.0	2.5	/experiments/AOT/AOT_stimuli/rescaled_final/0142_fw.mp4	0.0	1169.2920570373535	
17	1122.1613140106201	pulse	1	t		15.0	2.5	/experiments/AOT/AOT_stimuli/rescaled_final/0142_fw.mp4	0.0	1170.8922810554504	
17	1122.6778330802917	fix_post	2		12	15.0	2.5	/experiments/AOT/AOT_stimuli/rescaled_final/0142_fw.mp4	0.0	1171.408800125122	0.09993886947631836
18	1122.777771949768	fix_pre	0		119	16.0	2.5	/experiments/AOT/AOT_stimuli/rescaled_final/0631_fw.mp4	0.0	1171.5087389945984	0.9916841983795166
18	1123.7613179683685	pulse	0	t		16.0	2.5	/experiments/AOT/AOT_stimuli/rescaled_final/0631_fw.mp4	0.0	1172.4922850131989	
18	1123.7694561481476	movie	1		245	16.0	2.5	/experiments/AOT/AOT_stimuli/rescaled_final/0631_fw.mp4	0.0	1172.500423192978	2.5084638595581055
18	1125.3609189987183	pulse	1	t		16.0	2.5	/experiments/AOT/AOT_stimuli/rescaled_final/0631_fw.mp4	0.0	1174.0918860435486	
18	1126.2779200077057	fix_post	2		12	16.0	2.5	/experiments/AOT/AOT_stimuli/rescaled_final/0631_fw.mp4	0.0	1175.008887052536	0.09994196891784668
19	1126.3778619766235	fix_pre	0		120	17.0	2.5	/experiments/AOT/AOT_stimuli/rescaled_final/1117_rv.mp4	0.0	1175.1088290214539	0.9998769760131836
19	1126.961331129074	pulse	0	t		17.0	2.5	/experiments/AOT/AOT_stimuli/rescaled_final/1117_rv.mp4	0.0	1175.6922981739044	
19	1127.3777389526367	movie	1		243	17.0	2.5	/experiments/AOT/AOT_stimuli/rescaled_final/1117_rv.mp4	0.0	1176.108705997467	2.5000741481781006
19	1128.5613651275635	pulse	1	t		17.0	2.5	/experiments/AOT/AOT_stimuli/rescaled_final/1117_rv.mp4	0.0	1177.2923321723938	
19	1129.8778131008148	fix_post	2		12	17.0	2.5	/experiments/AOT/AOT_stimuli/rescaled_final/1117_rv.mp4	0.0	1178.6087801456451	0.10002493858337402
20	1129.9778380393982	fix_pre	0		120	18.0	2.5	/experiments/AOT/AOT_stimuli/rescaled_final/1868_rv.mp4	0.0	1178.7088050842285	1.0000278949737549
20	1130.161427974701	pulse	0	t		18.0	2.5	/experiments/AOT/AOT_stimuli/rescaled_final/1868_rv.mp4	0.0	1178.8923950195312	
20	1130.977865934372	movie	1		243	18.0	2.5	/experiments/AOT/AOT_stimuli/rescaled_final/1868_rv.mp4	0.0	1179.7088329792023	2.499951124191284
20	1131.7612459659576	pulse	1	t		18.0	2.5	/experiments/AOT/AOT_stimuli/rescaled_final/1868_rv.mp4	0.0	1180.492213010788	
20	1133.3597149848938	pulse	1	t		18.0	2.5	/experiments/AOT/AOT_stimuli/rescaled_final/1868_rv.mp4	0.0	1182.0906820297241	
20	1133.4778170585632	fix_post	2		12	18.0	2.5	/experiments/AOT/AOT_stimuli/rescaled_final/1868_rv.mp4	0.0	1182.2087841033936	0.09994101524353027
21	1133.5777580738068	fix_pre	0		120	19.0	2.5	/experiments/AOT/AOT_stimuli/rescaled_final/0643_fw.mp4	0.0	1182.308725118637	1.000067949295044
21	1134.5778260231018	movie	1		242	19.0	2.5	/experiments/AOT/AOT_stimuli/rescaled_final/0643_fw.mp4	0.0	1183.3087930679321	2.4999470710754395
21	1134.9607870578766	pulse	1	t		19.0	2.5	/experiments/AOT/AOT_stimuli/rescaled_final/0643_fw.mp4	0.0	1183.691754102707	
21	1136.5612721443176	pulse	1	t		19.0	2.5	/experiments/AOT/AOT_stimuli/rescaled_final/0643_fw.mp4	0.0	1185.292239189148	
21	1137.0777730941772	fix_post	2		12	19.0	2.5	/experiments/AOT/AOT_stimuli/rescaled_final/0643_fw.mp4	0.0	1185.8087401390076	0.09993886947631836
22	1137.1777119636536	fix_pre	0		119	20.0	2.5	blank	1.0	1185.908679008484	0.9917399883270264
22	1138.1612820625305	pulse	0	t		20.0	2.5	blank	1.0	1186.8922491073608	
22	1138.1694519519806	movie	1		301	20.0	2.5	blank	1.0	1186.900418996811	2.5083320140838623
22	1139.7613389492035	pulse	1	t		20.0	2.5	blank	1.0	1188.4923059940338	
22	1140.6777839660645	fix_post	2		12	20.0	2.5	blank	1.0	1189.4087510108948	0.10001301765441895
23	1140.7777969837189	fix_pre	0		120	21.0	2.5	/experiments/AOT/AOT_stimuli/rescaled_final/1103_fw.mp4	0.0	1189.5087640285492	0.9999980926513672
23	1141.3613810539246	pulse	0	t		21.0	2.5	/experiments/AOT/AOT_stimuli/rescaled_final/1103_fw.mp4	0.0	1190.0923480987549	
23	1141.7777950763702	movie	1		244	21.0	2.5	/experiments/AOT/AOT_stimuli/rescaled_final/1103_fw.mp4	0.0	1190.5087621212006	2.499953031539917
23	1142.9613349437714	pulse	1	t		21.0	2.5	/experiments/AOT/AOT_stimuli/rescaled_final/1103_fw.mp4	0.0	1191.6923019886017	
23	1144.2777481079102	fix_post	2		12	21.0	2.5	/experiments/AOT/AOT_stimuli/rescaled_final/1103_fw.mp4	0.0	1193.0087151527405	0.1000058650970459
24	1144.3777539730072	fix_pre	0		120	22.0	2.5	/experiments/AOT/AOT_stimuli/rescaled_final/1259_fw.mp4	0.0	1193.1087210178375	1.000014066696167
24	1144.5612299442291	pulse	0	t		22.0	2.5	/experiments/AOT/AOT_stimuli/rescaled_final/1259_fw.mp4	0.0	1193.2921969890594	
24	1145.3777680397034	movie	1		243	22.0	2.5	/experiments/AOT/AOT_stimuli/rescaled_final/1259_fw.mp4	0.0	1194.1087350845337	2.499872922897339
24	1146.1612570285797	pulse	1	t		22.0	2.5	/experiments/AOT/AOT_stimuli/rescaled_final/1259_fw.mp4	0.0	1194.89222407341	
24	1147.759999036789	pulse	1	t		22.0	2.5	/experiments/AOT/AOT_stimuli/rescaled_final/1259_fw.mp4	0.0	1196.4909660816193	
24	1147.8776409626007	fix_post	2		12	22.0	2.5	/experiments/AOT/AOT_stimuli/rescaled_final/1259_fw.mp4	0.0	1196.608608007431	0.10008406639099121
25	1147.9777250289917	fix_pre	0		120	23.0	2.5	/experiments/AOT/AOT_stimuli/rescaled_final/0450_fw.mp4	0.0	1196.708692073822	0.9999599456787109
25	1148.9776849746704	movie	1		243	23.0	2.5	/experiments/AOT/AOT_stimuli/rescaled_final/0450_fw.mp4	0.0	1197.7086520195007	2.5000760555267334
25	1149.3610970973969	pulse	1	t		23.0	2.5	/experiments/AOT/AOT_stimuli/rescaled_final/0450_fw.mp4	0.0	1198.0920641422272	
25	1150.9611999988556	pulse	1	t		23.0	2.5	/experiments/AOT/AOT_stimuli/rescaled_final/0450_fw.mp4	0.0	1199.692167043686	
25	1151.4777610301971	fix_post	2		12	23.0	2.5	/experiments/AOT/AOT_stimuli/rescaled_final/0450_fw.mp4	0.0	1200.2087280750275	0.09987211227416992
26	1151.5776331424713	fix_pre	0		119	24.0	2.5	/experiments/AOT/AOT_stimuli/rescaled_final/0057_fw.mp4	0.0	1200.3086001873016	0.991722822189331
26	1152.5611131191254	pulse	0	t		24.0	2.5	/experiments/AOT/AOT_stimuli/rescaled_final/0057_fw.mp4	0.0	1201.2920801639557	
26	1152.5693559646606	movie	1		245	24.0	2.5	/experiments/AOT/AOT_stimuli/rescaled_final/0057_fw.mp4	0.0	1201.300323009491	2.508362054824829
26	1154.1612989902496	pulse	1	t		24.0	2.5	/experiments/AOT/AOT_stimuli/rescaled_final/0057_fw.mp4	0.0	1202.89226603508	
26	1155.0777180194855	fix_post	2		12	24.0	2.5	/experiments/AOT/AOT_stimuli/rescaled_final/0057_fw.mp4	0.0	1203.8086850643158	0.1000819206237793
27	1155.1777999401093	fix_pre	0		120	25.0	2.5	/experiments/AOT/AOT_stimuli/rescaled_final/0833_fw.mp4	0.0	1203.9087669849396	0.9999451637268066
27	1155.7611811161041	pulse	0	t		25.0	2.5	/experiments/AOT/AOT_stimuli/rescaled_final/0833_fw.mp4	0.0	1204.4921481609344	
27	1156.177745103836	movie	1		243	25.0	2.5	/experiments/AOT/AOT_stimuli/rescaled_final/0833_fw.mp4	0.0	1204.9087121486664	2.500541925430298
27	1157.3607461452484	pulse	1	t		25.0	2.5	/experiments/AOT/AOT_stimuli/rescaled_final/0833_fw.mp4	0.0	1206.0917131900787	
27	1158.6782870292664	fix_post	2		12	25.0	2.5	/experiments/AOT/AOT_stimuli/rescaled_final/0833_fw.mp4	0.0	1207.4092540740967	0.09953594207763672
28	1158.777822971344	fix_pre	0		120	26.0	2.5	blank	1.0	1207.5087900161743	1.0001389980316162
28	1158.9613571166992	pulse	0	t		26.0	2.5	blank	1.0	1207.6923241615295	
28	1159.7779619693756	movie	1		300	26.0	2.5	blank	1.0	1208.508929014206	2.4997050762176514
28	1160.561145067215	pulse	1	t		26.0	2.5	blank	1.0	1209.2921121120453	
28	1162.1612150669098	pulse	1	t		26.0	2.5	blank	1.0	1210.89218211174	
28	1162.2776670455933	fix_post	2		12	26.0	2.5	blank	1.0	1211.0086340904236	0.10002899169921875
29	1162.3776960372925	fix_pre	0		120	27.0	2.5	/experiments/AOT/AOT_stimuli/rescaled_final/0796_rv.mp4	0.0	1211.1086630821228	0.9999330043792725
29	1163.3776290416718	movie	1		243	27.0	2.5	/experiments/AOT/AOT_stimuli/rescaled_final/0796_rv.mp4	0.0	1212.108596086502	2.4995779991149902
29	1163.7607221603394	pulse	1	t		27.0	2.5	/experiments/AOT/AOT_stimuli/rescaled_final/0796_rv.mp4	0.0	1212.4916892051697	
29	1165.3610529899597	pulse	1	t		27.0	2.5	/experiments/AOT/AOT_stimuli/rescaled_final/0796_rv.mp4	0.0	1214.09202003479	
29	1165.8772070407867	fix_post	2		12	27.0	2.5	/experiments/AOT/AOT_stimuli/rescaled_final/0796_rv.mp4	0.0	1214.608174085617	0.10048389434814453
30	1165.977690935135	fix_pre	0		119	28.0	2.5	/experiments/AOT/AOT_stimuli/rescaled_final/2132_rv.mp4	0.0	1214.7086579799652	0.9915351867675781
30	1166.9611320495605	pulse	0	t		28.0	2.5	/experiments/AOT/AOT_stimuli/rescaled_final/2132_rv.mp4	0.0	1215.6920990943909	
30	1166.9692261219025	movie	1		245	28.0	2.5	/experiments/AOT/AOT_stimuli/rescaled_final/2132_rv.mp4	0.0	1215.7001931667328	2.5083930492401123
30	1168.5603921413422	pulse	1	t		28.0	2.5	/experiments/AOT/AOT_stimuli/rescaled_final/2132_rv.mp4	0.0	1217.2913591861725	
30	1169.4776191711426	fix_post	2		12	28.0	2.5	/experiments/AOT/AOT_stimuli/rescaled_final/2132_rv.mp4	0.0	1218.208586215973	0.09995293617248535
31	1169.577572107315	fix_pre	0		120	29.0	2.5	/experiments/AOT/AOT_stimuli/rescaled_final/1186_fw.mp4	0.0	1218.3085391521454	1.0000438690185547
31	1170.1610741615295	pulse	0	t		29.0	2.5	/experiments/AOT/AOT_stimuli/rescaled_final/1186_fw.mp4	0.0	1218.8920412063599	
31	1170.5776159763336	movie	1		242	29.0	2.5	/experiments/AOT/AOT_stimuli/rescaled_final/1186_fw.mp4	0.0	1219.308583021164	2.4999301433563232
31	1171.7610960006714	pulse	1	t		29.0	2.5	/experiments/AOT/AOT_stimuli/rescaled_final/1186_fw.mp4	0.0	1220.4920630455017	
31	1173.07754611969	fix_post	2		12	29.0	2.5	/experiments/AOT/AOT_stimuli/rescaled_final/1186_fw.mp4	0.0	1221.8085131645203	0.1000218391418457
32	1173.1775679588318	fix_pre	0		120	30.0	2.5	/experiments/AOT/AOT_stimuli/rescaled_final/0783_rv.mp4	0.0	1221.908535003662	0.9999949932098389
32	1173.361083984375	pulse	0	t		30.0	2.5	/experiments/AOT/AOT_stimuli/rescaled_final/0783_rv.mp4	0.0	1222.0920510292053	
32	1174.1775629520416	movie	1		243	30.0	2.5	/experiments/AOT/AOT_stimuli/rescaled_final/0783_rv.mp4	0.0	1222.908529996872	2.5000669956207275
32	1174.9610850811005	pulse	1	t		30.0	2.5	/experiments/AOT/AOT_stimuli/rescaled_final/0783_rv.mp4	0.0	1223.6920521259308	
32	1176.559515953064	pulse	1	t		30.0	2.5	/experiments/AOT/AOT_stimuli/rescaled_final/0783_rv.mp4	0.0	1225.2904829978943	
32	1176.6776299476624	fix_post	2		12	30.0	2.5	/experiments/AOT/AOT_stimuli/rescaled_final/0783_rv.mp4	0.0	1225.4085969924927	0.09997320175170898
33	1176.777603149414	fix_pre	0		120	31.0	2.5	/experiments/AOT/AOT_stimuli/rescaled_final/1654_rv.mp4	0.0	1225.5085701942444	0.9999639987945557
33	1177.7775671482086	movie	1		243	31.0	2.5	/experiments/AOT/AOT_stimuli/rescaled_final/1654_rv.mp4	0.0	1226.508534193039	2.499976873397827
33	1178.1619231700897	pulse	1	t		31.0	2.5	/experiments/AOT/AOT_stimuli/rescaled_final/1654_rv.mp4	0.0	1226.89289021492	
33	1179.7611110210419	pulse	1	t		31.0	2.5	/experiments/AOT/AOT_stimuli/rescaled_final/1654_rv.mp4	0.0	1228.4920780658722	
33	1180.2775440216064	fix_post	2		12	31.0	2.5	/experiments/AOT/AOT_stimuli/rescaled_final/1654_rv.mp4	0.0	1229.0085110664368	0.09965705871582031
34	1180.3772010803223	fix_pre	0		119	32.0	2.5	/experiments/AOT/AOT_stimuli/rescaled_final/1586_rv.mp4	0.0	1229.1081681251526	0.991934061050415
34	1181.3610200881958	pulse	0	t		32.0	2.5	/experiments/AOT/AOT_stimuli/rescaled_final/1586_rv.mp4	0.0	1230.0919871330261	
34	1181.3691351413727	movie	1		243	32.0	2.5	/experiments/AOT/AOT_stimuli/rescaled_final/1586_rv.mp4	0.0	1230.100102186203	2.508466958999634
34	1182.9605140686035	pulse	1	t		32.0	2.5	/experiments/AOT/AOT_stimuli/rescaled_final/1586_rv.mp4	0.0	1231.6914811134338	
34	1183.8776021003723	fix_post	2		12	32.0	2.5	/experiments/AOT/AOT_stimuli/rescaled_final/1586_rv.mp4	0.0	1232.6085691452026	0.10001301765441895
35	1183.9776151180267	fix_pre	0		120	33.0	2.5	/experiments/AOT/AOT_stimuli/rescaled_final/1306_rv.mp4	0.0	1232.708582162857	1.000154972076416
35	1184.5610320568085	pulse	0	t		33.0	2.5	/experiments/AOT/AOT_stimuli/rescaled_final/1306_rv.mp4	0.0	1233.2919991016388	
35	1184.9777700901031	movie	1		242	33.0	2.5	/experiments/AOT/AOT_stimuli/rescaled_final/1306_rv.mp4	0.0	1233.7087371349335	2.499752998352051
35	1186.1611559391022	pulse	1	t		33.0	2.5	/experiments/AOT/AOT_stimuli/rescaled_final/1306_rv.mp4	0.0	1234.8921229839325	
35	1187.4775230884552	fix_post	2		12	33.0	2.5	/experiments/AOT/AOT_stimuli/rescaled_final/1306_rv.mp4	0.0	1236.2084901332855	0.1000058650970459
36	1187.5775289535522	fix_pre	0		119	34.0	2.5	/experiments/AOT/AOT_stimuli/rescaled_final/0331_rv.mp4	0.0	1236.3084959983826	1.000002145767212
36	1187.7610220909119	pulse	0	t		34.0	2.5	/experiments/AOT/AOT_stimuli/rescaled_final/0331_rv.mp4	0.0	1236.4919891357422	
36	1188.5775310993195	movie	1		243	34.0	2.5	/experiments/AOT/AOT_stimuli/rescaled_final/0331_rv.mp4	0.0	1237.3084981441498	2.500072956085205
36	1189.3610081672668	pulse	1	t		34.0	2.5	/experiments/AOT/AOT_stimuli/rescaled_final/0331_rv.mp4	0.0	1238.0919752120972	
36	1190.9594740867615	pulse	1	t		34.0	2.5	/experiments/AOT/AOT_stimuli/rescaled_final/0331_rv.mp4	0.0	1239.6904411315918	
36	1191.0776040554047	fix_post	2		12	34.0	2.5	/experiments/AOT/AOT_stimuli/rescaled_final/0331_rv.mp4	0.0	1239.808571100235	0.10000801086425781
37	1191.177612066269	fix_pre	0		120	35.0	2.5	blank	1.0	1239.9085791110992	0.9999048709869385
37	1192.1775169372559	movie	1		300	35.0	2.5	blank	1.0	1240.9084839820862	2.499955177307129
37	1192.5610189437866	pulse	1	t		35.0	2.5	blank	1.0	1241.291985988617	
37	1194.1610260009766	pulse	1	t		35.0	2.5	blank	1.0	1242.8919930458069	
37	1194.677472114563	fix_post	2		12	35.0	2.5	blank	1.0	1243.4084391593933	0.09996604919433594
38	1194.7774381637573	fix_pre	0		119	36.0	2.5	/experiments/AOT/AOT_stimuli/rescaled_final/1074_fw.mp4	0.0	1243.5084052085876	0.9917647838592529
38	1195.7611269950867	pulse	0	t		36.0	2.5	/experiments/AOT/AOT_stimuli/rescaled_final/1074_fw.mp4	0.0	1244.492094039917	
38	1195.7692029476166	movie	1		245	36.0	2.5	/experiments/AOT/AOT_stimuli/rescaled_final/1074_fw.mp4	0.0	1244.500169992447	2.507887125015259
38	1197.3604600429535	pulse	1	t		36.0	2.5	/experiments/AOT/AOT_stimuli/rescaled_final/1074_fw.mp4	0.0	1246.0914270877838	
38	1198.2770900726318	fix_post	2		12	36.0	2.5	/experiments/AOT/AOT_stimuli/rescaled_final/1074_fw.mp4	0.0	1247.0080571174622	0.10039806365966797
39	1198.3774881362915	fix_pre	0		120	37.0	2.5	/experiments/AOT/AOT_stimuli/rescaled_final/0857_rv.mp4	0.0	1247.1084551811218	0.9999649524688721
39	1198.9610290527344	pulse	0	t		37.0	2.5	/experiments/AOT/AOT_stimuli/rescaled_final/0857_rv.mp4	0.0	1247.6919960975647	
39	1199.3774530887604	movie	1		242	37.0	2.5	/experiments/AOT/AOT_stimuli/rescaled_final/0857_rv.mp4	0.0	1248.1084201335907	2.500016927719116
39	1200.5610401630402	pulse	1	t		37.0	2.5	/experiments/AOT/AOT_stimuli/rescaled_final/0857_rv.mp4	0.0	1249.2920072078705	
39	1201.8774700164795	fix_post	2		12	37.0	2.5	/experiments/AOT/AOT_stimuli/rescaled_final/0857_rv.mp4	0.0	1250.6084370613098	0.09999299049377441
40	1201.9774630069733	fix_pre	0		120	38.0	2.5	/experiments/AOT/AOT_stimuli/rescaled_final/1368_rv.mp4	0.0	1250.7084300518036	1.0000591278076172
40	1202.1609599590302	pulse	0	t		38.0	2.5	/experiments/AOT/AOT_stimuli/rescaled_final/1368_rv.mp4	0.0	1250.8919270038605	
40	1202.9775221347809	movie	1		242	38.0	2.5	/experiments/AOT/AOT_stimuli/rescaled_final/1368_rv.mp4	0.0	1251.7084891796112	2.5000410079956055
40	1203.7609989643097	pulse	1	t		38.0	2.5	/experiments/AOT/AOT_stimuli/rescaled_final/1368_rv.mp4	0.0	1252.49196600914	
40	1205.3592691421509	pulse	1	t		38.0	2.5	/experiments/AOT/AOT_stimuli/rescaled_final/1368_rv.mp4	0.0	1254.0902361869812	
40	1205.4775631427765	fix_post	2		12	38.0	2.5	/experiments/AOT/AOT_stimuli/rescaled_final/1368_rv.mp4	0.0	1254.2085301876068	0.09980988502502441
41	1205.5773730278015	fix_pre	0		120	39.0	2.5	/experiments/AOT/AOT_stimuli/rescaled_final/0057_fw.mp4	0.0	1254.3083400726318	1.000072956085205
41	1206.5774459838867	movie	1		244	39.0	2.5	/experiments/AOT/AOT_stimuli/rescaled_final/0057_fw.mp4	0.0	1255.308413028717	2.49997615814209
41	1206.960478067398	pulse	1	t		39.0	2.5	/experiments/AOT/AOT_stimuli/rescaled_final/0057_fw.mp4	0.0	1255.6914451122284	
41	1208.5609459877014	pulse	1	t		39.0	2.5	/experiments/AOT/AOT_stimuli/rescaled_final/0057_fw.mp4	0.0	1257.2919130325317	
41	1209.0774221420288	fix_post	2		12	39.0	2.5	/experiments/AOT/AOT_stimuli/rescaled_final/0057_fw.mp4	0.0	1257.8083891868591	0.10004401206970215
42	1209.1774661540985	fix_pre	0		119	40.0	2.5	/experiments/AOT/AOT_stimuli/rescaled_final/1677_rv.mp4	0.0	1257.9084331989288	0.9917268753051758
42	1210.1609411239624	pulse	0	t		40.0	2.5	/experiments/AOT/AOT_stimuli/rescaled_final/1677_rv.mp4	0.0	1258.8919081687927	
42	1210.1691930294037	movie	1		247	40.0	2.5	/experiments/AOT/AOT_stimuli/rescaled_final/1677_rv.mp4	0.0	1258.900160074234	2.5078461170196533
42	1211.760332107544	pulse	1	t		40.0	2.5	/experiments/AOT/AOT_stimuli/rescaled_final/1677_rv.mp4	0.0	1260.4912991523743	
42	1212.6770391464233	fix_post	2		12	40.0	2.5	/experiments/AOT/AOT_stimuli/rescaled_final/1677_rv.mp4	0.0	1261.4080061912537	0.09995889663696289
43	1212.7769980430603	fix_pre	0		120	41.0	2.5	blank	1.0	1261.5079650878906	1.0004589557647705
43	1213.3605270385742	pulse	0	t		41.0	2.5	blank	1.0	1262.0914940834045	
43	1213.777456998825	movie	1		300	41.0	2.5	blank	1.0	1262.5084240436554	2.499958038330078
43	1214.9610900878906	pulse	1	t		41.0	2.5	blank	1.0	1263.692057132721	
43	1216.2774150371552	fix_post	2		12	41.0	2.5	blank	1.0	1265.0083820819855	0.10009312629699707
44	1216.3775081634521	fix_pre	0		120	42.0	2.5	/experiments/AOT/AOT_stimuli/rescaled_final/0039_fw.mp4	0.0	1265.1084752082825	1.007842779159546
44	1216.5609650611877	pulse	0	t		42.0	2.5	/experiments/AOT/AOT_stimuli/rescaled_final/0039_fw.mp4	0.0	1265.291932106018	
44	1217.3853509426117	movie	1		246	42.0	2.5	/experiments/AOT/AOT_stimuli/rescaled_final/0039_fw.mp4	0.0	1266.116317987442	2.492000102996826
44	1218.1608459949493	pulse	1	t		42.0	2.5	/experiments/AOT/AOT_stimuli/rescaled_final/0039_fw.mp4	0.0	1266.8918130397797	
44	1219.7608239650726	pulse	1	t		42.0	2.5	/experiments/AOT/AOT_stimuli/rescaled_final/0039_fw.mp4	0.0	1268.491791009903	
44	1219.8773510456085	fix_post	2		12	42.0	2.5	/experiments/AOT/AOT_stimuli/rescaled_final/0039_fw.mp4	0.0	1268.6083180904388	0.10005593299865723
45	1219.9774069786072	fix_pre	0		120	43.0	2.5	/experiments/AOT/AOT_stimuli/rescaled_final/0253_rv.mp4	0.0	1268.7083740234375	0.9998781681060791
45	1220.9772851467133	movie	1		246	43.0	2.5	/experiments/AOT/AOT_stimuli/rescaled_final/0253_rv.mp4	0.0	1269.7082521915436	2.5000219345092773
45	1221.3604159355164	pulse	1	t		43.0	2.5	/experiments/AOT/AOT_stimuli/rescaled_final/0253_rv.mp4	0.0	1270.0913829803467	
45	1222.960793018341	pulse	1	t		43.0	2.5	/experiments/AOT/AOT_stimuli/rescaled_final/0253_rv.mp4	0.0	1271.6917600631714	
45	1223.4773070812225	fix_post	2		12	43.0	2.5	/experiments/AOT/AOT_stimuli/rescaled_final/0253_rv.mp4	0.0	1272.2082741260529	0.09994006156921387
46	1223.5772471427917	fix_pre	0		119	44.0	2.5	/experiments/AOT/AOT_stimuli/rescaled_final/0032_rv.mp4	0.0	1272.308214187622	0.9917559623718262
46	1224.5608310699463	pulse	0	t		44.0	2.5	/experiments/AOT/AOT_stimuli/rescaled_final/0032_rv.mp4	0.0	1273.2917981147766	
46	1224.5690031051636	movie	1		245	44.0	2.5	/experiments/AOT/AOT_stimuli/rescaled_final/0032_rv.mp4	0.0	1273.299970149994	2.5082759857177734
46	1226.1621470451355	pulse	1	t		44.0	2.5	/experiments/AOT/AOT_stimuli/rescaled_final/0032_rv.mp4	0.0	1274.8931140899658	
46	1227.0772790908813	fix_post	2		12	44.0	2.5	/experiments/AOT/AOT_stimuli/rescaled_final/0032_rv.mp4	0.0	1275.8082461357117	0.10003399848937988
47	1227.1773130893707	fix_pre	0		120	45.0	2.5	/experiments/AOT/AOT_stimuli/rescaled_final/1524_fw.mp4	0.0	1275.908280134201	1.0000309944152832
47	1227.7607870101929	pulse	0	t		45.0	2.5	/experiments/AOT/AOT_stimuli/rescaled_final/1524_fw.mp4	0.0	1276.4917540550232	
47	1228.177344083786	movie	1		242	45.0	2.5	/experiments/AOT/AOT_stimuli/rescaled_final/1524_fw.mp4	0.0	1276.9083111286163	2.5000200271606445
47	1229.3609120845795	pulse	1	t		45.0	2.5	/experiments/AOT/AOT_stimuli/rescaled_final/1524_fw.mp4	0.0	1278.0918791294098	
47	1230.6773641109467	fix_post	2		12	45.0	2.5	/experiments/AOT/AOT_stimuli/rescaled_final/1524_fw.mp4	0.0	1279.408331155777	0.09991002082824707
48	1230.777274131775	fix_pre	0		120	46.0	2.5	/experiments/AOT/AOT_stimuli/rescaled_final/0644_fw.mp4	0.0	1279.5082411766052	1.0000648498535156
48	1230.9607951641083	pulse	0	t		46.0	2.5	/experiments/AOT/AOT_stimuli/rescaled_final/0644_fw.mp4	0.0	1279.6917622089386	
48	1231.7773389816284	movie	1		242	46.0	2.5	/experiments/AOT/AOT_stimuli/rescaled_final/0644_fw.mp4	0.0	1280.5083060264587	2.4999210834503174
48	1232.560739994049	pulse	1	t		46.0	2.5	/experiments/AOT/AOT_stimuli/rescaled_final/0644_fw.mp4	0.0	1281.2917070388794	
48	1234.1592111587524	pulse	1	t		46.0	2.5	/experiments/AOT/AOT_stimuli/rescaled_final/0644_fw.mp4	0.0	1282.8901782035828	
48	1234.2772600650787	fix_post	2		12	46.0	2.5	/experiments/AOT/AOT_stimuli/rescaled_final/0644_fw.mp4	0.0	1283.008227109909	0.10007405281066895
49	1234.3773341178894	fix_pre	0		120	47.0	2.5	blank	1.0	1283.1083011627197	0.9999449253082275
49	1235.3772790431976	movie	1		300	47.0	2.5	blank	1.0	1284.108246088028	2.499964952468872
49	1235.760780096054	pulse	1	t		47.0	2.5	blank	1.0	1284.4917471408844	
49	1237.3608691692352	pulse	1	t		47.0	2.5	blank	1.0	1286.0918362140656	
49	1237.8772439956665	fix_post	2		12	47.0	2.5	blank	1.0	1286.6082110404968	0.1000521183013916
50	1237.977296113968	fix_pre	0		119	48.0	2.5	/experiments/AOT/AOT_stimuli/rescaled_final/1409_rv.mp4	0.0	1286.7082631587982	0.991581916809082
50	1238.960860967636	pulse	0	t		48.0	2.5	/experiments/AOT/AOT_stimuli/rescaled_final/1409_rv.mp4	0.0	1287.6918280124664	
50	1238.968878030777	movie	1		245	48.0	2.5	/experiments/AOT/AOT_stimuli/rescaled_final/1409_rv.mp4	0.0	1287.6998450756073	2.5083401203155518
50	1240.5606579780579	pulse	1	t		48.0	2.5	/experiments/AOT/AOT_stimuli/rescaled_final/1409_rv.mp4	0.0	1289.2916250228882	
50	1241.4772181510925	fix_post	2		12	48.0	2.5	/experiments/AOT/AOT_stimuli/rescaled_final/1409_rv.mp4	0.0	1290.2081851959229	0.10011601448059082
51	1241.5773341655731	fix_pre	0		120	49.0	2.5	/experiments/AOT/AOT_stimuli/rescaled_final/0783_fw.mp4	0.0	1290.3083012104034	0.9998948574066162
51	1242.1606540679932	pulse	0	t		49.0	2.5	/experiments/AOT/AOT_stimuli/rescaled_final/0783_fw.mp4	0.0	1290.8916211128235	
51	1242.5772290229797	movie	1		244	49.0	2.5	/experiments/AOT/AOT_stimuli/rescaled_final/0783_fw.mp4	0.0	1291.30819606781	2.500087022781372
51	1243.7607910633087	pulse	1	t		49.0	2.5	/experiments/AOT/AOT_stimuli/rescaled_final/0783_fw.mp4	0.0	1292.491758108139	
51	1245.077316045761	fix_post	2		12	49.0	2.5	/experiments/AOT/AOT_stimuli/rescaled_final/0783_fw.mp4	0.0	1293.8082830905914	0.09999203681945801
52	1245.1773080825806	fix_pre	0		120	50.0	2.5	/experiments/AOT/AOT_stimuli/rescaled_final/1500_rv.mp4	0.0	1293.908275127411	1.0000100135803223
52	1245.3607511520386	pulse	0	t		50.0	2.5	/experiments/AOT/AOT_stimuli/rescaled_final/1500_rv.mp4	0.0	1294.091718196869	
52	1246.177318096161	movie	1		245	50.0	2.5	/experiments/AOT/AOT_stimuli/rescaled_final/1500_rv.mp4	0.0	1294.9082851409912	2.499847888946533
52	1246.9606969356537	pulse	1	t		50.0	2.5	/experiments/AOT/AOT_stimuli/rescaled_final/1500_rv.mp4	0.0	1295.691663980484	
52	1248.5607199668884	pulse	1	t		50.0	2.5	/experiments/AOT/AOT_stimuli/rescaled_final/1500_rv.mp4	0.0	1297.2916870117188	
52	1248.6771659851074	fix_post	2		12	50.0	2.5	/experiments/AOT/AOT_stimuli/rescaled_final/1500_rv.mp4	0.0	1297.4081330299377	0.10007715225219727
53	1248.7772431373596	fix_pre	0		120	51.0	2.5	/experiments/AOT/AOT_stimuli/rescaled_final/1654_fw.mp4	0.0	1297.50821018219	0.9999628067016602
53	1249.7772059440613	movie	1		244	51.0	2.5	/experiments/AOT/AOT_stimuli/rescaled_final/1654_fw.mp4	0.0	1298.5081729888916	2.499953031539917
53	1250.1604421138763	pulse	1	t		51.0	2.5	/experiments/AOT/AOT_stimuli/rescaled_final/1654_fw.mp4	0.0	1298.8914091587067	
53	1251.7606790065765	pulse	1	t		51.0	2.5	/experiments/AOT/AOT_stimuli/rescaled_final/1654_fw.mp4	0.0	1300.4916460514069	
53	1252.2771589756012	fix_post	2		12	51.0	2.5	/experiments/AOT/AOT_stimuli/rescaled_final/1654_fw.mp4	0.0	1301.0081260204315	0.10016107559204102
54	1252.3773200511932	fix_pre	0		119	52.0	2.5	/experiments/AOT/AOT_stimuli/rescaled_final/0975_fw.mp4	0.0	1301.1082870960236	0.9915590286254883
54	1253.3607051372528	pulse	0	t		52.0	2.5	/experiments/AOT/AOT_stimuli/rescaled_final/0975_fw.mp4	0.0	1302.0916721820831	
54	1253.3688790798187	movie	1		243	52.0	2.5	/experiments/AOT/AOT_stimuli/rescaled_final/0975_fw.mp4	0.0	1302.099846124649	2.5083858966827393
54	1254.9603159427643	pulse	1	t		52.0	2.5	/experiments/AOT/AOT_stimuli/rescaled_final/0975_fw.mp4	0.0	1303.6912829875946	
54	1255.8772649765015	fix_post	2		12	52.0	2.5	/experiments/AOT/AOT_stimuli/rescaled_final/0975_fw.mp4	0.0	1304.6082320213318	0.09983301162719727
55	1255.9770979881287	fix_pre	0		120	53.0	2.5	/experiments/AOT/AOT_stimuli/rescaled_final/2096_rv.mp4	0.0	1304.708065032959	1.0000381469726562
55	1256.5607559680939	pulse	0	t		53.0	2.5	/experiments/AOT/AOT_stimuli/rescaled_final/2096_rv.mp4	0.0	1305.2917230129242	
55	1256.9771361351013	movie	1		243	53.0	2.5	/experiments/AOT/AOT_stimuli/rescaled_final/2096_rv.mp4	0.0	1305.7081031799316	2.5000808238983154
55	1258.16068816185	pulse	1	t		53.0	2.5	/experiments/AOT/AOT_stimuli/rescaled_final/2096_rv.mp4	0.0	1306.8916552066803	
55	1259.4772169589996	fix_post	2		12	53.0	2.5	/experiments/AOT/AOT_stimuli/rescaled_final/2096_rv.mp4	0.0	1308.20818400383	0.09993720054626465
56	1259.577154159546	fix_pre	0		120	54.0	2.5	/experiments/AOT/AOT_stimuli/rescaled_final/2096_fw.mp4	0.0	1308.3081212043762	1.0000169277191162
56	1259.7606739997864	pulse	0	t		54.0	2.5	/experiments/AOT/AOT_stimuli/rescaled_final/2096_fw.mp4	0.0	1308.4916410446167	
56	1260.577171087265	movie	1		244	54.0	2.5	/experiments/AOT/AOT_stimuli/rescaled_final/2096_fw.mp4	0.0	1309.3081381320953	2.5000600814819336
56	1261.360612154007	pulse	1	t		54.0	2.5	/experiments/AOT/AOT_stimuli/rescaled_final/2096_fw.mp4	0.0	1310.0915791988373	
56	1262.9607100486755	pulse	1	t		54.0	2.5	/experiments/AOT/AOT_stimuli/rescaled_final/2096_fw.mp4	0.0	1311.6916770935059	
56	1263.077231168747	fix_post	2		12	54.0	2.5	/experiments/AOT/AOT_stimuli/rescaled_final/2096_fw.mp4	0.0	1311.8081982135773	0.10004782676696777
57	1263.177278995514	fix_pre	0		120	55.0	2.5	blank	1.0	1311.9082460403442	0.9998879432678223
57	1264.1771669387817	movie	1		300	55.0	2.5	blank	1.0	1312.908133983612	2.499972105026245
57	1264.560539007187	pulse	1	t		55.0	2.5	blank	1.0	1313.2915060520172	
57	1266.1607699394226	pulse	1	t		55.0	2.5	blank	1.0	1314.891736984253	
57	1266.677139043808	fix_post	2		12	55.0	2.5	blank	1.0	1315.4081060886383	0.10000991821289062
58	1266.7771489620209	fix_pre	0		119	56.0	2.5	/experiments/AOT/AOT_stimuli/rescaled_final/0616_fw.mp4	0.0	1315.5081160068512	0.9917471408843994
58	1267.7607929706573	pulse	0	t		56.0	2.5	/experiments/AOT/AOT_stimuli/rescaled_final/0616_fw.mp4	0.0	1316.4917600154877	
58	1267.7688961029053	movie	1		245	56.0	2.5	/experiments/AOT/AOT_stimuli/rescaled_final/0616_fw.mp4	0.0	1316.4998631477356	2.508009910583496
58	1269.3599081039429	pulse	1	t		56.0	2.5	/experiments/AOT/AOT_stimuli/rescaled_final/0616_fw.mp4	0.0	1318.0908751487732	
58	1270.2769060134888	fix_post	2		12	56.0	2.5	/experiments/AOT/AOT_stimuli/rescaled_final/0616_fw.mp4	0.0	1319.007873058319	0.10039496421813965
59	1270.377300977707	fix_pre	0		120	57.0	2.5	/experiments/AOT/AOT_stimuli/rescaled_final/1152_fw.mp4	0.0	1319.1082680225372	1.0001440048217773
59	1270.960832118988	pulse	0	t		57.0	2.5	/experiments/AOT/AOT_stimuli/rescaled_final/1152_fw.mp4	0.0	1319.6917991638184	
59	1271.3774449825287	movie	1		245	57.0	2.5	/experiments/AOT/AOT_stimuli/rescaled_final/1152_fw.mp4	0.0	1320.108412027359	2.4997851848602295
59	1272.5607080459595	pulse	1	t		57.0	2.5	/experiments/AOT/AOT_stimuli/rescaled_final/1152_fw.mp4	0.0	1321.2916750907898	
59	1273.877230167389	fix_post	2		12	57.0	2.5	/experiments/AOT/AOT_stimuli/rescaled_final/1152_fw.mp4	0.0	1322.6081972122192	0.09991979598999023
60	1273.977149963379	fix_pre	0		120	58.0	2.5	/experiments/AOT/AOT_stimuli/rescaled_final/2171_fw.mp4	0.0	1322.7081170082092	1.0000340938568115
60	1274.1606719493866	pulse	0	t		58.0	2.5	/experiments/AOT/AOT_stimuli/rescaled_final/2171_fw.mp4	0.0	1322.891638994217	
60	1274.9771840572357	movie	1		242	58.0	2.5	/experiments/AOT/AOT_stimuli/rescaled_final/2171_fw.mp4	0.0	1323.708151102066	2.499908924102783
60	1275.7606761455536	pulse	1	t		58.0	2.5	/experiments/AOT/AOT_stimuli/rescaled_final/2171_fw.mp4	0.0	1324.491643190384	
60	1277.3588750362396	pulse	1	t		58.0	2.5	/experiments/AOT/AOT_stimuli/rescaled_final/2171_fw.mp4	0.0	1326.08984208107	
60	1277.4770929813385	fix_post	2		12	58.0	2.5	/experiments/AOT/AOT_stimuli/rescaled_final/2171_fw.mp4	0.0	1326.2080600261688	0.0999751091003418
61	1277.5770680904388	fix_pre	0		120	59.0	2.5	/experiments/AOT/AOT_stimuli/rescaled_final/0728_rv.mp4	0.0	1326.3080351352692	1.0000810623168945
61	1278.5771491527557	movie	1		244	59.0	2.5	/experiments/AOT/AOT_stimuli/rescaled_final/0728_rv.mp4	0.0	1327.308116197586	2.5000128746032715
61	1278.9601509571075	pulse	1	t		59.0	2.5	/experiments/AOT/AOT_stimuli/rescaled_final/0728_rv.mp4	0.0	1327.6911180019379	
61	1280.5605511665344	pulse	1	t		59.0	2.5	/experiments/AOT/AOT_stimuli/rescaled_final/0728_rv.mp4	0.0	1329.2915182113647	
61	1281.077162027359	fix_post	2		12	59.0	2.5	/experiments/AOT/AOT_stimuli/rescaled_final/0728_rv.mp4	0.0	1329.8081290721893	0.09993410110473633
62	1281.1770961284637	fix_pre	0		119	60.0	2.5	/experiments/AOT/AOT_stimuli/rescaled_final/0208_fw.mp4	0.0	1329.908063173294	0.9915928840637207
62	1282.1604821681976	pulse	0	t		60.0	2.5	/experiments/AOT/AOT_stimuli/rescaled_final/0208_fw.mp4	0.0	1330.891449213028	
62	1282.1686890125275	movie	1		244	60.0	2.5	/experiments/AOT/AOT_stimuli/rescaled_final/0208_fw.mp4	0.0	1330.8996560573578	2.508336067199707
62	1283.7598669528961	pulse	1	t		60.0	2.5	/experiments/AOT/AOT_stimuli/rescaled_final/0208_fw.mp4	0.0	1332.4908339977264	
62	1284.6770250797272	fix_post	2		12	60.0	2.5	/experiments/AOT/AOT_stimuli/rescaled_final/0208_fw.mp4	0.0	1333.4079921245575	0.10004687309265137
63	1284.7770719528198	fix_pre	0		120	61.0	2.5	blank	1.0	1333.5080389976501	0.9999480247497559
63	1285.360543012619	pulse	0	t		61.0	2.5	blank	1.0	1334.0915100574493	
63	1285.7770199775696	movie	1		300	61.0	2.5	blank	1.0	1334.5079870224	2.500152111053467
63	1286.9605560302734	pulse	1	t		61.0	2.5	blank	1.0	1335.6915230751038	
63	1288.277172088623	fix_post	2		12	61.0	2.5	blank	1.0	1337.0081391334534	0.09989285469055176
64	1288.3770649433136	fix_pre	0		120	62.0	2.5	/experiments/AOT/AOT_stimuli/rescaled_final/0876_fw.mp4	0.0	1337.108031988144	1.0001330375671387
64	1288.560513973236	pulse	0	t		62.0	2.5	/experiments/AOT/AOT_stimuli/rescaled_final/0876_fw.mp4	0.0	1337.2914810180664	
64	1289.3771979808807	movie	1		243	62.0	2.5	/experiments/AOT/AOT_stimuli/rescaled_final/0876_fw.mp4	0.0	1338.108165025711	2.4998559951782227
64	1290.1605939865112	pulse	1	t		62.0	2.5	/experiments/AOT/AOT_stimuli/rescaled_final/0876_fw.mp4	0.0	1338.8915610313416	
64	1291.7591290473938	pulse	1	t		62.0	2.5	/experiments/AOT/AOT_stimuli/rescaled_final/0876_fw.mp4	0.0	1340.4900960922241	
64	1291.877053976059	fix_post	2		12	62.0	2.5	/experiments/AOT/AOT_stimuli/rescaled_final/0876_fw.mp4	0.0	1340.6080210208893	0.09994816780090332
65	1291.9770021438599	fix_pre	0		120	63.0	2.5	/experiments/AOT/AOT_stimuli/rescaled_final/1535_rv.mp4	0.0	1340.7079691886902	0.9999959468841553
65	1292.976998090744	movie	1		242	63.0	2.5	/experiments/AOT/AOT_stimuli/rescaled_final/1535_rv.mp4	0.0	1341.7079651355743	2.4999759197235107
65	1293.3600380420685	pulse	1	t		63.0	2.5	/experiments/AOT/AOT_stimuli/rescaled_final/1535_rv.mp4	0.0	1342.0910050868988	
65	1294.9604949951172	pulse	1	t		63.0	2.5	/experiments/AOT/AOT_stimuli/rescaled_final/1535_rv.mp4	0.0	1343.6914620399475	
65	1295.4769740104675	fix_post	2		12	63.0	2.5	/experiments/AOT/AOT_stimuli/rescaled_final/1535_rv.mp4	0.0	1344.2079410552979	0.09998607635498047
66	1295.5769600868225	fix_pre	0		119	64.0	2.5	/experiments/AOT/AOT_stimuli/rescaled_final/1418_rv.mp4	0.0	1344.3079271316528	0.9916410446166992
66	1296.560506105423	pulse	0	t		64.0	2.5	/experiments/AOT/AOT_stimuli/rescaled_final/1418_rv.mp4	0.0	1345.2914731502533	
66	1296.5686011314392	movie	1		245	64.0	2.5	/experiments/AOT/AOT_stimuli/rescaled_final/1418_rv.mp4	0.0	1345.2995681762695	2.508410930633545
66	1298.1601779460907	pulse	1	t		64.0	2.5	/experiments/AOT/AOT_stimuli/rescaled_final/1418_rv.mp4	0.0	1346.891144990921	
66	1299.0770120620728	fix_post	2		12	64.0	2.5	/experiments/AOT/AOT_stimuli/rescaled_final/1418_rv.mp4	0.0	1347.807979106903	0.10006308555603027
67	1299.1770751476288	fix_pre	0		120	65.0	2.5	/experiments/AOT/AOT_stimuli/rescaled_final/1758_rv.mp4	0.0	1347.908042192459	0.9999878406524658
67	1299.7605030536652	pulse	0	t		65.0	2.5	/experiments/AOT/AOT_stimuli/rescaled_final/1758_rv.mp4	0.0	1348.4914700984955	
67	1300.1770629882812	movie	1		243	65.0	2.5	/experiments/AOT/AOT_stimuli/rescaled_final/1758_rv.mp4	0.0	1348.9080300331116	2.499997138977051
67	1301.3605561256409	pulse	1	t		65.0	2.5	/experiments/AOT/AOT_stimuli/rescaled_final/1758_rv.mp4	0.0	1350.0915231704712	
67	1302.6770601272583	fix_post	2		12	65.0	2.5	/experiments/AOT/AOT_stimuli/rescaled_final/1758_rv.mp4	0.0	1351.4080271720886	0.09993791580200195
68	1302.7769980430603	fix_pre	0		120	66.0	2.5	/experiments/AOT/AOT_stimuli/rescaled_final/1436_fw.mp4	0.0	1351.5079650878906	1.0000591278076172
68	1302.9603991508484	pulse	0	t		66.0	2.5	/experiments/AOT/AOT_stimuli/rescaled_final/1436_fw.mp4	0.0	1351.6913661956787	
68	1303.777057170868	movie	1		243	66.0	2.5	/experiments/AOT/AOT_stimuli/rescaled_final/1436_fw.mp4	0.0	1352.5080242156982	2.4998958110809326
68	1304.5603909492493	pulse	1	t		66.0	2.5	/experiments/AOT/AOT_stimuli/rescaled_final/1436_fw.mp4	0.0	1353.2913579940796	
68	1306.1590061187744	pulse	1	t		66.0	2.5	/experiments/AOT/AOT_stimuli/rescaled_final/1436_fw.mp4	0.0	1354.8899731636047	
68	1306.2769529819489	fix_post	2		12	66.0	2.5	/experiments/AOT/AOT_stimuli/rescaled_final/1436_fw.mp4	0.0	1355.0079200267792	0.09992218017578125
69	1306.3768751621246	fix_pre	0		120	67.0	2.5	/experiments/AOT/AOT_stimuli/rescaled_final/0857_fw.mp4	0.0	1355.107842206955	1.0001389980316162
69	1307.3770141601562	movie	1		242	67.0	2.5	/experiments/AOT/AOT_stimuli/rescaled_final/0857_fw.mp4	0.0	1356.1079812049866	2.4999799728393555
69	1307.7598149776459	pulse	1	t		67.0	2.5	/experiments/AOT/AOT_stimuli/rescaled_final/0857_fw.mp4	0.0	1356.4907820224762	
69	1309.360486984253	pulse	1	t		67.0	2.5	/experiments/AOT/AOT_stimuli/rescaled_final/0857_fw.mp4	0.0	1358.0914540290833	
69	1309.8769941329956	fix_post	2		12	67.0	2.5	/experiments/AOT/AOT_stimuli/rescaled_final/0857_fw.mp4	0.0	1358.607961177826	0.10001587867736816
70	1309.977010011673	fix_pre	0		119	68.0	2.5	blank	1.0	1358.7079770565033	0.9915180206298828
70	1310.9604661464691	pulse	0	t		68.0	2.5	blank	1.0	1359.6914331912994	
70	1310.9685280323029	movie	1		301	68.0	2.5	blank	1.0	1359.6994950771332	2.5083839893341064
70	1312.5604791641235	pulse	1	t		68.0	2.5	blank	1.0	1361.2914462089539	
70	1313.476912021637	fix_post	2		12	68.0	2.5	blank	1.0	1362.2078790664673	0.10000991821289062
71	1313.5769219398499	fix_pre	0		120	69.0	2.5	/experiments/AOT/AOT_stimuli/rescaled_final/0251_fw.mp4	0.0	1362.3078889846802	1.0000770092010498
71	1314.1604380607605	pulse	0	t		69.0	2.5	/experiments/AOT/AOT_stimuli/rescaled_final/0251_fw.mp4	0.0	1362.8914051055908	
71	1314.576998949051	movie	1		243	69.0	2.5	/experiments/AOT/AOT_stimuli/rescaled_final/0251_fw.mp4	0.0	1363.3079659938812	2.5000510215759277
71	1315.760437965393	pulse	1	t		69.0	2.5	/experiments/AOT/AOT_stimuli/rescaled_final/0251_fw.mp4	0.0	1364.4914050102234	
71	1317.0770499706268	fix_post	2		12	69.0	2.5	/experiments/AOT/AOT_stimuli/rescaled_final/0251_fw.mp4	0.0	1365.8080170154572	0.099822998046875
72	1317.1768729686737	fix_pre	0		120	70.0	2.5	/experiments/AOT/AOT_stimuli/rescaled_final/0208_rv.mp4	0.0	1365.907840013504	1.0000660419464111
72	1317.3603579998016	pulse	0	t		70.0	2.5	/experiments/AOT/AOT_stimuli/rescaled_final/0208_rv.mp4	0.0	1366.091325044632	
72	1318.1769390106201	movie	1		244	70.0	2.5	/experiments/AOT/AOT_stimuli/rescaled_final/0208_rv.mp4	0.0	1366.9079060554504	2.4999871253967285
72	1318.960412979126	pulse	1	t		70.0	2.5	/experiments/AOT/AOT_stimuli/rescaled_final/0208_rv.mp4	0.0	1367.6913800239563	
72	1320.5588459968567	pulse	1	t		70.0	2.5	/experiments/AOT/AOT_stimuli/rescaled_final/0208_rv.mp4	0.0	1369.289813041687	
72	1320.6769261360168	fix_post	2		12	70.0	2.5	/experiments/AOT/AOT_stimuli/rescaled_final/0208_rv.mp4	0.0	1369.4078931808472	0.09992003440856934
73	1320.7768461704254	fix_pre	0		120	71.0	2.5	/experiments/AOT/AOT_stimuli/rescaled_final/1302_fw.mp4	0.0	1369.5078132152557	1.0000109672546387
73	1321.77685713768	movie	1		243	71.0	2.5	/experiments/AOT/AOT_stimuli/rescaled_final/1302_fw.mp4	0.0	1370.5078241825104	2.5000879764556885
73	1322.1600029468536	pulse	1	t		71.0	2.5	/experiments/AOT/AOT_stimuli/rescaled_final/1302_fw.mp4	0.0	1370.890969991684	
73	1323.760334968567	pulse	1	t		71.0	2.5	/experiments/AOT/AOT_stimuli/rescaled_final/1302_fw.mp4	0.0	1372.4913020133972	
73	1324.2769451141357	fix_post	2		12	71.0	2.5	/experiments/AOT/AOT_stimuli/rescaled_final/1302_fw.mp4	0.0	1373.007912158966	0.09953904151916504
74	1324.376484155655	fix_pre	0		119	72.0	2.5	/experiments/AOT/AOT_stimuli/rescaled_final/1109_rv.mp4	0.0	1373.1074512004852	0.9916520118713379
74	1325.3599400520325	pulse	0	t		72.0	2.5	/experiments/AOT/AOT_stimuli/rescaled_final/1109_rv.mp4	0.0	1374.0909070968628	
74	1325.3681361675262	movie	1		243	72.0	2.5	/experiments/AOT/AOT_stimuli/rescaled_final/1109_rv.mp4	0.0	1374.0991032123566	2.5088019371032715
74	1326.9602401256561	pulse	1	t		72.0	2.5	/experiments/AOT/AOT_stimuli/rescaled_final/1109_rv.mp4	0.0	1375.6912071704865	
74	1327.8769381046295	fix_post	2		12	72.0	2.5	/experiments/AOT/AOT_stimuli/rescaled_final/1109_rv.mp4	0.0	1376.6079051494598	0.09991693496704102
75	1327.9768550395966	fix_pre	0		120	73.0	2.5	/experiments/AOT/AOT_stimuli/rescaled_final/1758_fw.mp4	0.0	1376.7078220844269	0.9999570846557617
75	1328.560366153717	pulse	0	t		73.0	2.5	/experiments/AOT/AOT_stimuli/rescaled_final/1758_fw.mp4	0.0	1377.2913331985474	
75	1328.9768121242523	movie	1		243	73.0	2.5	/experiments/AOT/AOT_stimuli/rescaled_final/1758_fw.mp4	0.0	1377.7077791690826	2.500027894973755
75	1330.1603510379791	pulse	1	t		73.0	2.5	/experiments/AOT/AOT_stimuli/rescaled_final/1758_fw.mp4	0.0	1378.8913180828094	
75	1331.476840019226	fix_post	2		12	73.0	2.5	/experiments/AOT/AOT_stimuli/rescaled_final/1758_fw.mp4	0.0	1380.2078070640564	0.09995913505554199
76	1331.5767991542816	fix_pre	0		120	74.0	2.5	/experiments/AOT/AOT_stimuli/rescaled_final/1212_fw.mp4	0.0	1380.307766199112	1.0000038146972656
76	1331.7602829933167	pulse	0	t		74.0	2.5	/experiments/AOT/AOT_stimuli/rescaled_final/1212_fw.mp4	0.0	1380.491250038147	
76	1332.5768029689789	movie	1		243	74.0	2.5	/experiments/AOT/AOT_stimuli/rescaled_final/1212_fw.mp4	0.0	1381.3077700138092	2.5000381469726562
76	1333.3602831363678	pulse	1	t		74.0	2.5	/experiments/AOT/AOT_stimuli/rescaled_final/1212_fw.mp4	0.0	1382.0912501811981	
76	1334.9585320949554	pulse	1	t		74.0	2.5	/experiments/AOT/AOT_stimuli/rescaled_final/1212_fw.mp4	0.0	1383.6894991397858	
76	1335.0768411159515	fix_post	2		12	74.0	2.5	/experiments/AOT/AOT_stimuli/rescaled_final/1212_fw.mp4	0.0	1383.8078081607819	0.09993100166320801
77	1335.1767721176147	fix_pre	0		120	75.0	2.5	/experiments/AOT/AOT_stimuli/rescaled_final/0229_rv.mp4	0.0	1383.907739162445	0.9999759197235107
77	1336.1767480373383	movie	1		245	75.0	2.5	/experiments/AOT/AOT_stimuli/rescaled_final/0229_rv.mp4	0.0	1384.9077150821686	2.4996109008789062
77	1336.5599031448364	pulse	1	t		75.0	2.5	/experiments/AOT/AOT_stimuli/rescaled_final/0229_rv.mp4	0.0	1385.2908701896667	
77	1338.1602809429169	pulse	1	t		75.0	2.5	/experiments/AOT/AOT_stimuli/rescaled_final/0229_rv.mp4	0.0	1386.8912479877472	
77	1338.6763589382172	fix_post	2		12	75.0	2.5	/experiments/AOT/AOT_stimuli/rescaled_final/0229_rv.mp4	0.0	1387.4073259830475	0.10033512115478516
78	1338.776694059372	fix_pre	0		119	76.0	2.5	blank	1.0	1387.5076611042023	0.9916939735412598
78	1339.760272026062	pulse	0	t		76.0	2.5	blank	1.0	1388.4912390708923	
78	1339.7683880329132	movie	1		301	76.0	2.5	blank	1.0	1388.4993550777435	2.5083539485931396
78	1341.360139131546	pulse	1	t		76.0	2.5	blank	1.0	1390.0911061763763	
78	1342.2767419815063	fix_post	2		12	76.0	2.5	blank	1.0	1391.0077090263367	0.1000051498413086
79	1342.3767471313477	fix_pre	0		120	77.0	2.5	/experiments/AOT/AOT_stimuli/rescaled_final/1912_rv.mp4	0.0	1391.107714176178	0.9999690055847168
79	1342.9603171348572	pulse	0	t		77.0	2.5	/experiments/AOT/AOT_stimuli/rescaled_final/1912_rv.mp4	0.0	1391.6912841796875	
79	1343.3767161369324	movie	1		246	77.0	2.5	/experiments/AOT/AOT_stimuli/rescaled_final/1912_rv.mp4	0.0	1392.1076831817627	2.500074863433838
79	1344.5603201389313	pulse	1	t		77.0	2.5	/experiments/AOT/AOT_stimuli/rescaled_final/1912_rv.mp4	0.0	1393.2912871837616	
79	1345.8767910003662	fix_post	2		12	77.0	2.5	/experiments/AOT/AOT_stimuli/rescaled_final/1912_rv.mp4	0.0	1394.6077580451965	0.09994196891784668
80	1345.976732969284	fix_pre	0		120	78.0	2.5	/experiments/AOT/AOT_stimuli/rescaled_final/0761_rv.mp4	0.0	1394.7077000141144	1.0000040531158447
80	1346.1601481437683	pulse	0	t		78.0	2.5	/experiments/AOT/AOT_stimuli/rescaled_final/0761_rv.mp4	0.0	1394.8911151885986	
80	1346.9767370224	movie	1		243	78.0	2.5	/experiments/AOT/AOT_stimuli/rescaled_final/0761_rv.mp4	0.0	1395.7077040672302	2.4999849796295166
80	1347.7602479457855	pulse	1	t		78.0	2.5	/experiments/AOT/AOT_stimuli/rescaled_final/0761_rv.mp4	0.0	1396.4912149906158	
80	1349.358670949936	pulse	1	t		78.0	2.5	/experiments/AOT/AOT_stimuli/rescaled_final/0761_rv.mp4	0.0	1398.0896379947662	
80	1349.4767220020294	fix_post	2		12	78.0	2.5	/experiments/AOT/AOT_stimuli/rescaled_final/0761_rv.mp4	0.0	1398.2076890468597	0.10002613067626953
81	1349.5767481327057	fix_pre	0		120	79.0	2.5	/experiments/AOT/AOT_stimuli/rescaled_final/0271_rv.mp4	0.0	1398.307715177536	0.9999768733978271
81	1350.5767250061035	movie	1		243	79.0	2.5	/experiments/AOT/AOT_stimuli/rescaled_final/0271_rv.mp4	0.0	1399.3076920509338	2.4999611377716064
81	1350.9598729610443	pulse	1	t		79.0	2.5	/experiments/AOT/AOT_stimuli/rescaled_final/0271_rv.mp4	0.0	1399.6908400058746	
81	1352.5601780414581	pulse	1	t		79.0	2.5	/experiments/AOT/AOT_stimuli/rescaled_final/0271_rv.mp4	0.0	1401.2911450862885	
81	1353.0766861438751	fix_post	2		12	79.0	2.5	/experiments/AOT/AOT_stimuli/rescaled_final/0271_rv.mp4	0.0	1401.8076531887054	0.10027194023132324
82	1353.1769580841064	fix_pre	0		119	80.0	2.5	/experiments/AOT/AOT_stimuli/rescaled_final/2101_fw.mp4	0.0	1401.9079251289368	0.9914910793304443
82	1354.1601660251617	pulse	0	t		80.0	2.5	/experiments/AOT/AOT_stimuli/rescaled_final/2101_fw.mp4	0.0	1402.891133069992	
82	1354.168449163437	movie	1		244	80.0	2.5	/experiments/AOT/AOT_stimuli/rescaled_final/2101_fw.mp4	0.0	1402.8994162082672	2.508286952972412
82	1355.7599730491638	pulse	1	t		80.0	2.5	/experiments/AOT/AOT_stimuli/rescaled_final/2101_fw.mp4	0.0	1404.4909400939941	
82	1356.6767361164093	fix_post	2		12	80.0	2.5	/experiments/AOT/AOT_stimuli/rescaled_final/2101_fw.mp4	0.0	1405.4077031612396	0.0999758243560791
83	1356.7767119407654	fix_pre	0		120	81.0	2.5	/experiments/AOT/AOT_stimuli/rescaled_final/0498_fw.mp4	0.0	1405.5076789855957	1.0000240802764893
83	1357.360326051712	pulse	0	t		81.0	2.5	/experiments/AOT/AOT_stimuli/rescaled_final/0498_fw.mp4	0.0	1406.0912930965424	
83	1357.7767360210419	movie	1		245	81.0	2.5	/experiments/AOT/AOT_stimuli/rescaled_final/0498_fw.mp4	0.0	1406.5077030658722	2.499946117401123
83	1358.9601719379425	pulse	1	t		81.0	2.5	/experiments/AOT/AOT_stimuli/rescaled_final/0498_fw.mp4	0.0	1407.6911389827728	
83	1360.276682138443	fix_post	2		12	81.0	2.5	/experiments/AOT/AOT_stimuli/rescaled_final/0498_fw.mp4	0.0	1409.0076491832733	0.1000208854675293
84	1360.3767030239105	fix_pre	0		120	82.0	2.5	blank	1.0	1409.1076700687408	0.9999740123748779
84	1360.5602481365204	pulse	0	t		82.0	2.5	blank	1.0	1409.2912151813507	
84	1361.3766770362854	movie	1		300	82.0	2.5	blank	1.0	1410.1076440811157	2.4999871253967285
84	1362.1600720882416	pulse	1	t		82.0	2.5	blank	1.0	1410.891039133072	
84	1363.7601850032806	pulse	1	t		82.0	2.5	blank	1.0	1412.491152048111	
84	1363.8766641616821	fix_post	2		12	82.0	2.5	blank	1.0	1412.6076312065125	0.09993982315063477
85	1363.9766039848328	fix_pre	0		120	83.0	2.5	/experiments/AOT/AOT_stimuli/rescaled_final/0155_rv.mp4	0.0	1412.707571029663	1.0001020431518555
85	1364.9767060279846	movie	1		242	83.0	2.5	/experiments/AOT/AOT_stimuli/rescaled_final/0155_rv.mp4	0.0	1413.707673072815	2.500009059906006
85	1365.360228061676	pulse	1	t		83.0	2.5	/experiments/AOT/AOT_stimuli/rescaled_final/0155_rv.mp4	0.0	1414.0911951065063	
85	1366.9602191448212	pulse	1	t		83.0	2.5	/experiments/AOT/AOT_stimuli/rescaled_final/0155_rv.mp4	0.0	1415.6911861896515	
85	1367.4767150878906	fix_post	2		12	83.0	2.5	/experiments/AOT/AOT_stimuli/rescaled_final/0155_rv.mp4	0.0	1416.207682132721	0.0998990535736084
87	1367.5766141414642	stim	0		1716					1416.3075811862946	14.300110816955566
87	1368.560105085373	pulse	0	t						1417.2910721302032	
87	1370.1600880622864	pulse	0	t						1418.8910551071167	
87	1371.7601511478424	pulse	0	t						1420.4911181926727	
87	1373.3601400852203	pulse	0	t						1422.0911071300507	
87	1374.9601271152496	pulse	0	t						1423.69109416008	
87	1376.560189962387	pulse	0	t						1425.2911570072174	
87	1378.1601469516754	pulse	0	t						1426.8911139965057	
87	1379.7600660324097	pulse	0	t						1428.49103307724	
87	1381.3596539497375	pulse	0	t						1430.0906209945679	
