trial_nr	onset	event_type	phase	response	nr_frames	movie_index	movie_duration	movie_file	blank	onset_abs	duration
0	0.20829200744628906	stim	0		65					92.87878704071045	0.541733980178833
0	0.7419371604919434	response	0	space						93.4124321937561	
1	0.7500259876251221	stim	0		5180					93.42052102088928	43.182170152664185
1	43.92230701446533	pulse	0	t						136.5928020477295	
1	43.93219614028931	stim	1		1716					136.60269117355347	14.30135202407837
1	45.51526999473572	pulse	1	t						138.18576502799988	
1	47.11553502082825	pulse	1	t						139.7860300540924	
1	48.71561908721924	pulse	1	t						141.3861141204834	
1	50.31600213050842	pulse	1	t						142.98649716377258	
1	51.91621017456055	pulse	1	t						144.5867052078247	
1	53.51630711555481	pulse	1	t						146.18680214881897	
1	55.11654806137085	pulse	1	t						147.787043094635	
1	56.71683406829834	pulse	1	t						149.3873291015625	
2	58.233548164367676	fix_pre	0		11	0.0	2.5	/experiments/knapen_AOT/AOT_stimuli/rescaled_final/1548_rv.mp4	0.0	150.90404319763184	0.09173083305358887
2	58.31713604927063	pulse	0	t		0.0	2.5	/experiments/knapen_AOT/AOT_stimuli/rescaled_final/1548_rv.mp4	0.0	150.9876310825348	
2	58.325278997421265	movie	1		244	0.0	2.5	/experiments/knapen_AOT/AOT_stimuli/rescaled_final/1548_rv.mp4	0.0	150.99577403068542	2.508665084838867
2	59.917937994003296	pulse	1	t		0.0	2.5	/experiments/knapen_AOT/AOT_stimuli/rescaled_final/1548_rv.mp4	0.0	152.58843302726746	
2	60.83394408226013	fix_post	2		12	0.0	2.5	/experiments/knapen_AOT/AOT_stimuli/rescaled_final/1548_rv.mp4	0.0	153.5044391155243	0.1000509262084961
3	60.93399500846863	fix_pre	0		120	1.0	2.5	/experiments/knapen_AOT/AOT_stimuli/rescaled_final/1891_fw.mp4	0.0	153.6044900417328	1.0001130104064941
3	61.517595052719116	pulse	0	t		1.0	2.5	/experiments/knapen_AOT/AOT_stimuli/rescaled_final/1891_fw.mp4	0.0	154.18809008598328	
3	61.93410801887512	movie	1		244	1.0	2.5	/experiments/knapen_AOT/AOT_stimuli/rescaled_final/1891_fw.mp4	0.0	154.60460305213928	2.5003609657287598
3	63.117998123168945	pulse	1	t		1.0	2.5	/experiments/knapen_AOT/AOT_stimuli/rescaled_final/1891_fw.mp4	0.0	155.7884931564331	
3	64.43446898460388	fix_post	2		12	1.0	2.5	/experiments/knapen_AOT/AOT_stimuli/rescaled_final/1891_fw.mp4	0.0	157.10496401786804	0.10003018379211426
4	64.534499168396	fix_pre	0		120	2.0	2.5	/experiments/knapen_AOT/AOT_stimuli/rescaled_final/0131_rv.mp4	0.0	157.20499420166016	1.0002219676971436
4	64.71804213523865	pulse	0	t		2.0	2.5	/experiments/knapen_AOT/AOT_stimuli/rescaled_final/0131_rv.mp4	0.0	157.3885371685028	
4	65.53472113609314	movie	1		243	2.0	2.5	/experiments/knapen_AOT/AOT_stimuli/rescaled_final/0131_rv.mp4	0.0	158.2052161693573	2.5002999305725098
4	66.31087708473206	pulse	1	t		2.0	2.5	/experiments/knapen_AOT/AOT_stimuli/rescaled_final/0131_rv.mp4	0.0	158.98137211799622	
4	67.91852116584778	pulse	1	t		2.0	2.5	/experiments/knapen_AOT/AOT_stimuli/rescaled_final/0131_rv.mp4	0.0	160.58901619911194	
4	68.03502106666565	fix_post	2		12	2.0	2.5	/experiments/knapen_AOT/AOT_stimuli/rescaled_final/0131_rv.mp4	0.0	160.7055160999298	0.10001802444458008
5	68.13503909111023	fix_pre	0		120	3.0	2.5	/experiments/knapen_AOT/AOT_stimuli/rescaled_final/0544_fw.mp4	0.0	160.8055341243744	1.000187873840332
5	69.13522696495056	movie	1		243	3.0	2.5	/experiments/knapen_AOT/AOT_stimuli/rescaled_final/0544_fw.mp4	0.0	161.80572199821472	2.491986036300659
5	69.52355599403381	pulse	1	t		3.0	2.5	/experiments/knapen_AOT/AOT_stimuli/rescaled_final/0544_fw.mp4	0.0	162.19405102729797	
5	71.11183309555054	pulse	1	t		3.0	2.5	/experiments/knapen_AOT/AOT_stimuli/rescaled_final/0544_fw.mp4	0.0	163.7823281288147	
5	71.62721300125122	fix_post	2		12	3.0	2.5	/experiments/knapen_AOT/AOT_stimuli/rescaled_final/0544_fw.mp4	0.0	164.29770803451538	0.1000361442565918
6	71.72724914550781	fix_pre	0		119	4.0	2.5	/experiments/knapen_AOT/AOT_stimuli/rescaled_final/0174_fw.mp4	0.0	164.39774417877197	0.9918239116668701
6	72.71095108985901	pulse	0	t		4.0	2.5	/experiments/knapen_AOT/AOT_stimuli/rescaled_final/0174_fw.mp4	0.0	165.38144612312317	
6	72.71907305717468	movie	1		245	4.0	2.5	/experiments/knapen_AOT/AOT_stimuli/rescaled_final/0174_fw.mp4	0.0	165.38956809043884	2.508678913116455
6	74.31309914588928	pulse	1	t		4.0	2.5	/experiments/knapen_AOT/AOT_stimuli/rescaled_final/0174_fw.mp4	0.0	166.98359417915344	
6	75.22775197029114	fix_post	2		12	4.0	2.5	/experiments/knapen_AOT/AOT_stimuli/rescaled_final/0174_fw.mp4	0.0	167.8982470035553	0.10007905960083008
7	75.32783102989197	fix_pre	0		120	5.0	2.5	/experiments/knapen_AOT/AOT_stimuli/rescaled_final/1571_rv.mp4	0.0	167.99832606315613	1.0001211166381836
7	75.91138410568237	pulse	0	t		5.0	2.5	/experiments/knapen_AOT/AOT_stimuli/rescaled_final/1571_rv.mp4	0.0	168.58187913894653	
7	76.32795214653015	movie	1		243	5.0	2.5	/experiments/knapen_AOT/AOT_stimuli/rescaled_final/1571_rv.mp4	0.0	168.9984471797943	2.5003318786621094
7	77.51166200637817	pulse	1	t		5.0	2.5	/experiments/knapen_AOT/AOT_stimuli/rescaled_final/1571_rv.mp4	0.0	170.18215703964233	
7	78.82828402519226	fix_post	2		12	5.0	2.5	/experiments/knapen_AOT/AOT_stimuli/rescaled_final/1571_rv.mp4	0.0	171.49877905845642	0.10008502006530762
8	78.92836904525757	fix_pre	0		120	6.0	2.5	/experiments/knapen_AOT/AOT_stimuli/rescaled_final/1518_fw.mp4	0.0	171.59886407852173	1.0001170635223389
8	79.11193704605103	pulse	0	t		6.0	2.5	/experiments/knapen_AOT/AOT_stimuli/rescaled_final/1518_fw.mp4	0.0	171.78243207931519	
8	79.92848610877991	movie	1		243	6.0	2.5	/experiments/knapen_AOT/AOT_stimuli/rescaled_final/1518_fw.mp4	0.0	172.59898114204407	2.500354051589966
8	80.7122130393982	pulse	1	t		6.0	2.5	/experiments/knapen_AOT/AOT_stimuli/rescaled_final/1518_fw.mp4	0.0	173.38270807266235	
8	82.31235408782959	pulse	1	t		6.0	2.5	/experiments/knapen_AOT/AOT_stimuli/rescaled_final/1518_fw.mp4	0.0	174.98284912109375	
8	82.42884016036987	fix_post	2		12	6.0	2.5	/experiments/knapen_AOT/AOT_stimuli/rescaled_final/1518_fw.mp4	0.0	175.09933519363403	0.10004401206970215
9	82.52888417243958	fix_pre	0		120	7.0	2.5	blank	1.0	175.19937920570374	1.0001189708709717
9	83.52900314331055	movie	1		299	7.0	2.5	blank	1.0	176.1994981765747	2.4920859336853027
9	83.91252994537354	pulse	1	t		7.0	2.5	blank	1.0	176.5830249786377	
9	85.51293206214905	pulse	1	t		7.0	2.5	blank	1.0	178.1834270954132	
9	86.02108907699585	fix_post	2		12	7.0	2.5	blank	1.0	178.69158411026	0.10000300407409668
10	86.12109208106995	fix_pre	0		120	8.0	2.5	/experiments/knapen_AOT/AOT_stimuli/rescaled_final/1409_rv.mp4	0.0	178.7915871143341	1.0001039505004883
10	87.11316800117493	pulse	0	t		8.0	2.5	/experiments/knapen_AOT/AOT_stimuli/rescaled_final/1409_rv.mp4	0.0	179.7836630344391	
10	87.12119603157043	movie	1		244	8.0	2.5	/experiments/knapen_AOT/AOT_stimuli/rescaled_final/1409_rv.mp4	0.0	179.7916910648346	2.5087461471557617
10	88.71398115158081	pulse	1	t		8.0	2.5	/experiments/knapen_AOT/AOT_stimuli/rescaled_final/1409_rv.mp4	0.0	181.38447618484497	
10	89.6299421787262	fix_post	2		12	8.0	2.5	/experiments/knapen_AOT/AOT_stimuli/rescaled_final/1409_rv.mp4	0.0	182.30043721199036	0.10001492500305176
11	89.72995710372925	fix_pre	0		120	9.0	2.5	/experiments/knapen_AOT/AOT_stimuli/rescaled_final/0972_fw.mp4	0.0	182.4004521369934	1.0001299381256104
11	90.31353998184204	pulse	0	t		9.0	2.5	/experiments/knapen_AOT/AOT_stimuli/rescaled_final/0972_fw.mp4	0.0	182.9840350151062	
11	90.73008704185486	movie	1		243	9.0	2.5	/experiments/knapen_AOT/AOT_stimuli/rescaled_final/0972_fw.mp4	0.0	183.40058207511902	2.5003600120544434
11	91.91389107704163	pulse	1	t		9.0	2.5	/experiments/knapen_AOT/AOT_stimuli/rescaled_final/0972_fw.mp4	0.0	184.5843861103058	
11	93.2304470539093	fix_post	2		12	9.0	2.5	/experiments/knapen_AOT/AOT_stimuli/rescaled_final/0972_fw.mp4	0.0	185.90094208717346	0.09999608993530273
12	93.3304431438446	fix_pre	0		120	10.0	2.5	/experiments/knapen_AOT/AOT_stimuli/rescaled_final/2008_rv.mp4	0.0	186.00093817710876	1.0001649856567383
12	93.51412510871887	pulse	0	t		10.0	2.5	/experiments/knapen_AOT/AOT_stimuli/rescaled_final/2008_rv.mp4	0.0	186.18462014198303	
12	94.33060812950134	movie	1		243	10.0	2.5	/experiments/knapen_AOT/AOT_stimuli/rescaled_final/2008_rv.mp4	0.0	187.0011031627655	2.5004029273986816
12	95.11429214477539	pulse	1	t		10.0	2.5	/experiments/knapen_AOT/AOT_stimuli/rescaled_final/2008_rv.mp4	0.0	187.78478717803955	
12	96.71435904502869	pulse	1	t		10.0	2.5	/experiments/knapen_AOT/AOT_stimuli/rescaled_final/2008_rv.mp4	0.0	189.38485407829285	
12	96.83101105690002	fix_post	2		12	10.0	2.5	/experiments/knapen_AOT/AOT_stimuli/rescaled_final/2008_rv.mp4	0.0	189.50150609016418	0.09999394416809082
13	96.93100500106812	fix_pre	0		120	11.0	2.5	/experiments/knapen_AOT/AOT_stimuli/rescaled_final/1019_fw.mp4	0.0	189.60150003433228	1.0001370906829834
13	97.9311420917511	movie	1		240	11.0	2.5	/experiments/knapen_AOT/AOT_stimuli/rescaled_final/1019_fw.mp4	0.0	190.60163712501526	2.4920899868011475
13	98.31526803970337	pulse	1	t		11.0	2.5	/experiments/knapen_AOT/AOT_stimuli/rescaled_final/1019_fw.mp4	0.0	190.98576307296753	
13	99.91509294509888	pulse	1	t		11.0	2.5	/experiments/knapen_AOT/AOT_stimuli/rescaled_final/1019_fw.mp4	0.0	192.58558797836304	
13	100.42323207855225	fix_post	2		12	11.0	2.5	/experiments/knapen_AOT/AOT_stimuli/rescaled_final/1019_fw.mp4	0.0	193.0937271118164	0.09999394416809082
14	100.52322602272034	fix_pre	0		120	12.0	2.5	blank	1.0	193.1937210559845	1.0001580715179443
14	101.51527714729309	pulse	0	t		12.0	2.5	blank	1.0	194.18577218055725	
14	101.52338409423828	movie	1		301	12.0	2.5	blank	1.0	194.19387912750244	2.508671998977661
14	103.11543798446655	pulse	1	t		12.0	2.5	blank	1.0	195.7859330177307	
14	104.03205609321594	fix_post	2		12	12.0	2.5	blank	1.0	196.7025511264801	0.10005688667297363
15	104.13211297988892	fix_pre	0		120	13.0	2.5	/experiments/knapen_AOT/AOT_stimuli/rescaled_final/1005_fw.mp4	0.0	196.80260801315308	1.000136137008667
15	104.71565914154053	pulse	0	t		13.0	2.5	/experiments/knapen_AOT/AOT_stimuli/rescaled_final/1005_fw.mp4	0.0	197.3861541748047	
15	105.13224911689758	movie	1		245	13.0	2.5	/experiments/knapen_AOT/AOT_stimuli/rescaled_final/1005_fw.mp4	0.0	197.80274415016174	2.500349998474121
15	106.3161301612854	pulse	1	t		13.0	2.5	/experiments/knapen_AOT/AOT_stimuli/rescaled_final/1005_fw.mp4	0.0	198.98662519454956	
15	107.6325991153717	fix_post	2		12	13.0	2.5	/experiments/knapen_AOT/AOT_stimuli/rescaled_final/1005_fw.mp4	0.0	200.30309414863586	0.10010695457458496
16	107.73270606994629	fix_pre	0		120	14.0	2.5	/experiments/knapen_AOT/AOT_stimuli/rescaled_final/1523_rv.mp4	0.0	200.40320110321045	1.0000479221343994
16	107.91627502441406	pulse	0	t		14.0	2.5	/experiments/knapen_AOT/AOT_stimuli/rescaled_final/1523_rv.mp4	0.0	200.58677005767822	
16	108.73275399208069	movie	1		243	14.0	2.5	/experiments/knapen_AOT/AOT_stimuli/rescaled_final/1523_rv.mp4	0.0	201.40324902534485	2.5003671646118164
16	109.51643395423889	pulse	1	t		14.0	2.5	/experiments/knapen_AOT/AOT_stimuli/rescaled_final/1523_rv.mp4	0.0	202.18692898750305	
16	111.11656904220581	pulse	1	t		14.0	2.5	/experiments/knapen_AOT/AOT_stimuli/rescaled_final/1523_rv.mp4	0.0	203.78706407546997	
16	111.2331211566925	fix_post	2		12	14.0	2.5	/experiments/knapen_AOT/AOT_stimuli/rescaled_final/1523_rv.mp4	0.0	203.90361618995667	0.10003900527954102
17	111.33316016197205	fix_pre	0		120	15.0	2.5	/experiments/knapen_AOT/AOT_stimuli/rescaled_final/0253_fw.mp4	0.0	204.0036551952362	1.000154972076416
17	112.33331513404846	movie	1		244	15.0	2.5	/experiments/knapen_AOT/AOT_stimuli/rescaled_final/0253_fw.mp4	0.0	205.00381016731262	2.4920098781585693
17	112.71738195419312	pulse	1	t		15.0	2.5	/experiments/knapen_AOT/AOT_stimuli/rescaled_final/0253_fw.mp4	0.0	205.38787698745728	
17	114.31712698936462	pulse	1	t		15.0	2.5	/experiments/knapen_AOT/AOT_stimuli/rescaled_final/0253_fw.mp4	0.0	206.98762202262878	
17	114.82532501220703	fix_post	2		12	15.0	2.5	/experiments/knapen_AOT/AOT_stimuli/rescaled_final/0253_fw.mp4	0.0	207.4958200454712	0.10005712509155273
18	114.92538213729858	fix_pre	0		120	16.0	2.5	/experiments/knapen_AOT/AOT_stimuli/rescaled_final/0323_rv.mp4	0.0	207.59587717056274	1.0001599788665771
18	115.91736316680908	pulse	0	t		16.0	2.5	/experiments/knapen_AOT/AOT_stimuli/rescaled_final/0323_rv.mp4	0.0	208.58785820007324	
18	115.92554211616516	movie	1		245	16.0	2.5	/experiments/knapen_AOT/AOT_stimuli/rescaled_final/0323_rv.mp4	0.0	208.59603714942932	2.5086779594421387
18	117.51863408088684	pulse	1	t		16.0	2.5	/experiments/knapen_AOT/AOT_stimuli/rescaled_final/0323_rv.mp4	0.0	210.189129114151	
18	118.4342200756073	fix_post	2		12	16.0	2.5	/experiments/knapen_AOT/AOT_stimuli/rescaled_final/0323_rv.mp4	0.0	211.10471510887146	0.1000208854675293
19	118.53424096107483	fix_pre	0		120	17.0	2.5	/experiments/knapen_AOT/AOT_stimuli/rescaled_final/0544_fw.mp4	0.0	211.204735994339	1.0001461505889893
19	119.11796998977661	pulse	0	t		17.0	2.5	/experiments/knapen_AOT/AOT_stimuli/rescaled_final/0544_fw.mp4	0.0	211.78846502304077	
19	119.53438711166382	movie	1		244	17.0	2.5	/experiments/knapen_AOT/AOT_stimuli/rescaled_final/0544_fw.mp4	0.0	212.20488214492798	2.500401020050049
19	120.71827006340027	pulse	1	t		17.0	2.5	/experiments/knapen_AOT/AOT_stimuli/rescaled_final/0544_fw.mp4	0.0	213.38876509666443	
19	122.03478813171387	fix_post	2		12	17.0	2.5	/experiments/knapen_AOT/AOT_stimuli/rescaled_final/0544_fw.mp4	0.0	214.70528316497803	0.09998297691345215
20	122.13477110862732	fix_pre	0		120	18.0	2.5	/experiments/knapen_AOT/AOT_stimuli/rescaled_final/1376_rv.mp4	0.0	214.80526614189148	1.0001530647277832
20	122.31840896606445	pulse	0	t		18.0	2.5	/experiments/knapen_AOT/AOT_stimuli/rescaled_final/1376_rv.mp4	0.0	214.9889039993286	
20	123.1349241733551	movie	1		243	18.0	2.5	/experiments/knapen_AOT/AOT_stimuli/rescaled_final/1376_rv.mp4	0.0	215.80541920661926	2.5003538131713867
20	123.91855812072754	pulse	1	t		18.0	2.5	/experiments/knapen_AOT/AOT_stimuli/rescaled_final/1376_rv.mp4	0.0	216.5890531539917	
20	125.51867604255676	pulse	1	t		18.0	2.5	/experiments/knapen_AOT/AOT_stimuli/rescaled_final/1376_rv.mp4	0.0	218.18917107582092	
20	125.63527798652649	fix_post	2		12	18.0	2.5	/experiments/knapen_AOT/AOT_stimuli/rescaled_final/1376_rv.mp4	0.0	218.30577301979065	0.10005998611450195
21	125.73533797264099	fix_pre	0		119	19.0	2.5	/experiments/knapen_AOT/AOT_stimuli/rescaled_final/1697_rv.mp4	0.0	218.40583300590515	0.991814136505127
21	126.72715210914612	movie	1		243	19.0	2.5	/experiments/knapen_AOT/AOT_stimuli/rescaled_final/1697_rv.mp4	0.0	219.39764714241028	2.5003349781036377
21	127.11924695968628	pulse	1	t		19.0	2.5	/experiments/knapen_AOT/AOT_stimuli/rescaled_final/1697_rv.mp4	0.0	219.78974199295044	
21	128.71178817749023	pulse	1	t		19.0	2.5	/experiments/knapen_AOT/AOT_stimuli/rescaled_final/1697_rv.mp4	0.0	221.3822832107544	
21	129.22748708724976	fix_post	2		12	19.0	2.5	/experiments/knapen_AOT/AOT_stimuli/rescaled_final/1697_rv.mp4	0.0	221.89798212051392	0.10004806518554688
22	129.3275351524353	fix_pre	0		120	20.0	2.5	blank	1.0	221.99803018569946	1.0001850128173828
22	130.3120400905609	pulse	0	t		20.0	2.5	blank	1.0	222.98253512382507	
22	130.32772016525269	movie	1		301	20.0	2.5	blank	1.0	222.99821519851685	2.5086238384246826
22	131.91231513023376	pulse	1	t		20.0	2.5	blank	1.0	224.58281016349792	
22	132.83634400367737	fix_post	2		12	20.0	2.5	blank	1.0	225.50683903694153	0.10002994537353516
23	132.9363739490509	fix_pre	0		120	21.0	2.5	/experiments/knapen_AOT/AOT_stimuli/rescaled_final/1631_rv.mp4	0.0	225.60686898231506	1.0001280307769775
23	133.5116970539093	pulse	0	t		21.0	2.5	/experiments/knapen_AOT/AOT_stimuli/rescaled_final/1631_rv.mp4	0.0	226.18219208717346	
23	133.93650197982788	movie	1		243	21.0	2.5	/experiments/knapen_AOT/AOT_stimuli/rescaled_final/1631_rv.mp4	0.0	226.60699701309204	2.5004429817199707
23	135.11613202095032	pulse	1	t		21.0	2.5	/experiments/knapen_AOT/AOT_stimuli/rescaled_final/1631_rv.mp4	0.0	227.78662705421448	
23	136.43694496154785	fix_post	2		12	21.0	2.5	/experiments/knapen_AOT/AOT_stimuli/rescaled_final/1631_rv.mp4	0.0	229.107439994812	0.09998416900634766
24	136.5369291305542	fix_pre	0		120	22.0	2.5	/experiments/knapen_AOT/AOT_stimuli/rescaled_final/1085_fw.mp4	0.0	229.20742416381836	1.0001230239868164
24	136.7121560573578	pulse	0	t		22.0	2.5	/experiments/knapen_AOT/AOT_stimuli/rescaled_final/1085_fw.mp4	0.0	229.38265109062195	
24	137.53705215454102	movie	1		244	22.0	2.5	/experiments/knapen_AOT/AOT_stimuli/rescaled_final/1085_fw.mp4	0.0	230.20754718780518	2.5003697872161865
24	138.3124761581421	pulse	1	t		22.0	2.5	/experiments/knapen_AOT/AOT_stimuli/rescaled_final/1085_fw.mp4	0.0	230.98297119140625	
24	139.91258907318115	pulse	1	t		22.0	2.5	/experiments/knapen_AOT/AOT_stimuli/rescaled_final/1085_fw.mp4	0.0	232.5830841064453	
24	140.0374219417572	fix_post	2		12	22.0	2.5	/experiments/knapen_AOT/AOT_stimuli/rescaled_final/1085_fw.mp4	0.0	232.70791697502136	0.10002422332763672
25	140.13744616508484	fix_pre	0		119	23.0	2.5	/experiments/knapen_AOT/AOT_stimuli/rescaled_final/1162_rv.mp4	0.0	232.807941198349	0.991879940032959
25	141.1293261051178	movie	1		244	23.0	2.5	/experiments/knapen_AOT/AOT_stimuli/rescaled_final/1162_rv.mp4	0.0	233.79982113838196	2.500295877456665
25	141.51413202285767	pulse	1	t		23.0	2.5	/experiments/knapen_AOT/AOT_stimuli/rescaled_final/1162_rv.mp4	0.0	234.18462705612183	
25	143.11316204071045	pulse	1	t		23.0	2.5	/experiments/knapen_AOT/AOT_stimuli/rescaled_final/1162_rv.mp4	0.0	235.7836570739746	
25	143.62962198257446	fix_post	2		12	23.0	2.5	/experiments/knapen_AOT/AOT_stimuli/rescaled_final/1162_rv.mp4	0.0	236.30011701583862	0.1000370979309082
26	143.72965908050537	fix_pre	0		119	24.0	2.5	/experiments/knapen_AOT/AOT_stimuli/rescaled_final/0818_rv.mp4	0.0	236.40015411376953	0.9917910099029541
26	144.71332097053528	pulse	0	t		24.0	2.5	/experiments/knapen_AOT/AOT_stimuli/rescaled_final/0818_rv.mp4	0.0	237.38381600379944	
26	144.72145009040833	movie	1		244	24.0	2.5	/experiments/knapen_AOT/AOT_stimuli/rescaled_final/0818_rv.mp4	0.0	237.39194512367249	2.508704900741577
26	146.31413507461548	pulse	1	t		24.0	2.5	/experiments/knapen_AOT/AOT_stimuli/rescaled_final/0818_rv.mp4	0.0	238.98463010787964	
26	147.2301549911499	fix_post	2		12	24.0	2.5	/experiments/knapen_AOT/AOT_stimuli/rescaled_final/0818_rv.mp4	0.0	239.90065002441406	0.100067138671875
27	147.33022212982178	fix_pre	0		120	25.0	2.5	/experiments/knapen_AOT/AOT_stimuli/rescaled_final/1885_rv.mp4	0.0	240.00071716308594	1.000108003616333
27	147.91377711296082	pulse	0	t		25.0	2.5	/experiments/knapen_AOT/AOT_stimuli/rescaled_final/1885_rv.mp4	0.0	240.58427214622498	
27	148.3303301334381	movie	1		244	25.0	2.5	/experiments/knapen_AOT/AOT_stimuli/rescaled_final/1885_rv.mp4	0.0	241.00082516670227	2.5003838539123535
27	149.5143120288849	pulse	1	t		25.0	2.5	/experiments/knapen_AOT/AOT_stimuli/rescaled_final/1885_rv.mp4	0.0	242.18480706214905	
27	150.83071398735046	fix_post	2		12	25.0	2.5	/experiments/knapen_AOT/AOT_stimuli/rescaled_final/1885_rv.mp4	0.0	243.50120902061462	0.10000896453857422
28	150.93072295188904	fix_pre	0		120	26.0	2.5	blank	1.0	243.6012179851532	1.000150203704834
28	151.11443305015564	pulse	0	t		26.0	2.5	blank	1.0	243.7849280834198	
28	151.93087315559387	movie	1		300	26.0	2.5	blank	1.0	244.60136818885803	2.5003910064697266
28	152.71455311775208	pulse	1	t		26.0	2.5	blank	1.0	245.38504815101624	
28	154.31480503082275	pulse	1	t		26.0	2.5	blank	1.0	246.9853000640869	
28	154.4312641620636	fix_post	2		12	26.0	2.5	blank	1.0	247.10175919532776	0.10002493858337402
29	154.53128910064697	fix_pre	0		120	27.0	2.5	/experiments/knapen_AOT/AOT_stimuli/rescaled_final/0693_fw.mp4	0.0	247.20178413391113	1.0001239776611328
29	155.5314130783081	movie	1		242	27.0	2.5	/experiments/knapen_AOT/AOT_stimuli/rescaled_final/0693_fw.mp4	0.0	248.20190811157227	2.4920599460601807
29	155.9171380996704	pulse	1	t		27.0	2.5	/experiments/knapen_AOT/AOT_stimuli/rescaled_final/0693_fw.mp4	0.0	248.58763313293457	
29	157.51528000831604	pulse	1	t		27.0	2.5	/experiments/knapen_AOT/AOT_stimuli/rescaled_final/0693_fw.mp4	0.0	250.1857750415802	
29	158.0234730243683	fix_post	2		12	27.0	2.5	/experiments/knapen_AOT/AOT_stimuli/rescaled_final/0693_fw.mp4	0.0	250.69396805763245	0.09997797012329102
30	158.12345099449158	fix_pre	0		117	28.0	2.5	/experiments/knapen_AOT/AOT_stimuli/rescaled_final/1665_rv.mp4	0.0	250.79394602775574	1.0001440048217773
30	159.11553812026978	pulse	0	t		28.0	2.5	/experiments/knapen_AOT/AOT_stimuli/rescaled_final/1665_rv.mp4	0.0	251.78603315353394	
30	159.12359499931335	movie	1		244	28.0	2.5	/experiments/knapen_AOT/AOT_stimuli/rescaled_final/1665_rv.mp4	0.0	251.79409003257751	2.508749008178711
30	160.71710205078125	pulse	1	t		28.0	2.5	/experiments/knapen_AOT/AOT_stimuli/rescaled_final/1665_rv.mp4	0.0	253.3875970840454	
30	161.63234400749207	fix_post	2		12	28.0	2.5	/experiments/knapen_AOT/AOT_stimuli/rescaled_final/1665_rv.mp4	0.0	254.30283904075623	0.09999799728393555
31	161.732342004776	fix_pre	0		120	29.0	2.5	/experiments/knapen_AOT/AOT_stimuli/rescaled_final/1398_fw.mp4	0.0	254.40283703804016	1.000154972076416
31	162.31602001190186	pulse	0	t		29.0	2.5	/experiments/knapen_AOT/AOT_stimuli/rescaled_final/1398_fw.mp4	0.0	254.98651504516602	
31	162.73249697685242	movie	1		245	29.0	2.5	/experiments/knapen_AOT/AOT_stimuli/rescaled_final/1398_fw.mp4	0.0	255.40299201011658	2.5003931522369385
31	163.91635704040527	pulse	1	t		29.0	2.5	/experiments/knapen_AOT/AOT_stimuli/rescaled_final/1398_fw.mp4	0.0	256.58685207366943	
31	165.23289012908936	fix_post	2		12	29.0	2.5	/experiments/knapen_AOT/AOT_stimuli/rescaled_final/1398_fw.mp4	0.0	257.9033851623535	0.10001492500305176
32	165.3329050540924	fix_pre	0		120	30.0	2.5	/experiments/knapen_AOT/AOT_stimuli/rescaled_final/1250_rv.mp4	0.0	258.00340008735657	1.0002069473266602
32	165.51648497581482	pulse	0	t		30.0	2.5	/experiments/knapen_AOT/AOT_stimuli/rescaled_final/1250_rv.mp4	0.0	258.186980009079	
32	166.33311200141907	movie	1		245	30.0	2.5	/experiments/knapen_AOT/AOT_stimuli/rescaled_final/1250_rv.mp4	0.0	259.0036070346832	2.5002691745758057
32	167.11667895317078	pulse	1	t		30.0	2.5	/experiments/knapen_AOT/AOT_stimuli/rescaled_final/1250_rv.mp4	0.0	259.78717398643494	
32	168.71455717086792	pulse	1	t		30.0	2.5	/experiments/knapen_AOT/AOT_stimuli/rescaled_final/1250_rv.mp4	0.0	261.3850522041321	
32	168.83338117599487	fix_post	2		12	30.0	2.5	/experiments/knapen_AOT/AOT_stimuli/rescaled_final/1250_rv.mp4	0.0	261.50387620925903	0.10005784034729004
33	168.93343901634216	fix_pre	0		120	31.0	2.5	/experiments/knapen_AOT/AOT_stimuli/rescaled_final/1514_fw.mp4	0.0	261.6039340496063	1.0001239776611328
33	169.9335629940033	movie	1		242	31.0	2.5	/experiments/knapen_AOT/AOT_stimuli/rescaled_final/1514_fw.mp4	0.0	262.60405802726746	2.492042064666748
33	170.31862115859985	pulse	1	t		31.0	2.5	/experiments/knapen_AOT/AOT_stimuli/rescaled_final/1514_fw.mp4	0.0	262.989116191864	
33	171.917396068573	pulse	1	t		31.0	2.5	/experiments/knapen_AOT/AOT_stimuli/rescaled_final/1514_fw.mp4	0.0	264.58789110183716	
33	172.42560505867004	fix_post	2		12	31.0	2.5	/experiments/knapen_AOT/AOT_stimuli/rescaled_final/1514_fw.mp4	0.0	265.0961000919342	0.0999898910522461
34	172.5255949497223	fix_pre	0		120	32.0	2.5	/experiments/knapen_AOT/AOT_stimuli/rescaled_final/0272_fw.mp4	0.0	265.19608998298645	1.0001800060272217
34	173.51764798164368	pulse	0	t		32.0	2.5	/experiments/knapen_AOT/AOT_stimuli/rescaled_final/0272_fw.mp4	0.0	266.18814301490784	
34	173.5257749557495	movie	1		244	32.0	2.5	/experiments/knapen_AOT/AOT_stimuli/rescaled_final/0272_fw.mp4	0.0	266.1962699890137	2.508681058883667
34	175.11849308013916	pulse	1	t		32.0	2.5	/experiments/knapen_AOT/AOT_stimuli/rescaled_final/0272_fw.mp4	0.0	267.7889881134033	
34	176.03445601463318	fix_post	2		12	32.0	2.5	/experiments/knapen_AOT/AOT_stimuli/rescaled_final/0272_fw.mp4	0.0	268.70495104789734	0.10004711151123047
35	176.1345031261444	fix_pre	0		120	33.0	2.5	blank	1.0	268.80499815940857	1.000114917755127
35	176.71822214126587	pulse	0	t		33.0	2.5	blank	1.0	269.38871717453003	
35	177.13461804389954	movie	1		300	33.0	2.5	blank	1.0	269.8051130771637	2.500415086746216
35	178.31839108467102	pulse	1	t		33.0	2.5	blank	1.0	270.9888861179352	
35	179.63503313064575	fix_post	2		12	33.0	2.5	blank	1.0	272.3055281639099	0.10002994537353516
36	179.7350630760193	fix_pre	0		120	34.0	2.5	/experiments/knapen_AOT/AOT_stimuli/rescaled_final/1399_rv.mp4	0.0	272.40555810928345	1.000087022781372
36	179.91855907440186	pulse	0	t		34.0	2.5	/experiments/knapen_AOT/AOT_stimuli/rescaled_final/1399_rv.mp4	0.0	272.589054107666	
36	180.73515009880066	movie	1		244	34.0	2.5	/experiments/knapen_AOT/AOT_stimuli/rescaled_final/1399_rv.mp4	0.0	273.4056451320648	2.5003888607025146
36	181.51144695281982	pulse	1	t		34.0	2.5	/experiments/knapen_AOT/AOT_stimuli/rescaled_final/1399_rv.mp4	0.0	274.181941986084	
36	183.11917805671692	pulse	1	t		34.0	2.5	/experiments/knapen_AOT/AOT_stimuli/rescaled_final/1399_rv.mp4	0.0	275.7896730899811	
36	183.23553895950317	fix_post	2		12	34.0	2.5	/experiments/knapen_AOT/AOT_stimuli/rescaled_final/1399_rv.mp4	0.0	275.90603399276733	0.10001111030578613
37	183.33555006980896	fix_pre	0		120	35.0	2.5	/experiments/knapen_AOT/AOT_stimuli/rescaled_final/1571_fw.mp4	0.0	276.0060451030731	1.000187873840332
37	184.3357379436493	movie	1		242	35.0	2.5	/experiments/knapen_AOT/AOT_stimuli/rescaled_final/1571_fw.mp4	0.0	277.00623297691345	2.4919991493225098
37	184.7197380065918	pulse	1	t		35.0	2.5	/experiments/knapen_AOT/AOT_stimuli/rescaled_final/1571_fw.mp4	0.0	277.39023303985596	
37	186.31222915649414	pulse	1	t		35.0	2.5	/experiments/knapen_AOT/AOT_stimuli/rescaled_final/1571_fw.mp4	0.0	278.9827241897583	
37	186.8277370929718	fix_post	2		12	35.0	2.5	/experiments/knapen_AOT/AOT_stimuli/rescaled_final/1571_fw.mp4	0.0	279.49823212623596	0.10006189346313477
38	186.92779898643494	fix_pre	0		119	36.0	2.5	/experiments/knapen_AOT/AOT_stimuli/rescaled_final/0175_fw.mp4	0.0	279.5982940196991	0.9917590618133545
38	187.9114580154419	pulse	0	t		36.0	2.5	/experiments/knapen_AOT/AOT_stimuli/rescaled_final/0175_fw.mp4	0.0	280.58195304870605	
38	187.9195580482483	movie	1		245	36.0	2.5	/experiments/knapen_AOT/AOT_stimuli/rescaled_final/0175_fw.mp4	0.0	280.59005308151245	2.508718967437744
38	189.51228308677673	pulse	1	t		36.0	2.5	/experiments/knapen_AOT/AOT_stimuli/rescaled_final/0175_fw.mp4	0.0	282.1827781200409	
38	190.42827701568604	fix_post	2		12	36.0	2.5	/experiments/knapen_AOT/AOT_stimuli/rescaled_final/0175_fw.mp4	0.0	283.0987720489502	0.10007405281066895
39	190.5283510684967	fix_pre	0		120	37.0	2.5	/experiments/knapen_AOT/AOT_stimuli/rescaled_final/0370_rv.mp4	0.0	283.19884610176086	1.0001049041748047
39	191.11193299293518	pulse	0	t		37.0	2.5	/experiments/knapen_AOT/AOT_stimuli/rescaled_final/0370_rv.mp4	0.0	283.78242802619934	
39	191.5284559726715	movie	1		244	37.0	2.5	/experiments/knapen_AOT/AOT_stimuli/rescaled_final/0370_rv.mp4	0.0	284.19895100593567	2.5003910064697266
39	192.71231508255005	pulse	1	t		37.0	2.5	/experiments/knapen_AOT/AOT_stimuli/rescaled_final/0370_rv.mp4	0.0	285.3828101158142	
39	194.02884697914124	fix_post	2		12	37.0	2.5	/experiments/knapen_AOT/AOT_stimuli/rescaled_final/0370_rv.mp4	0.0	286.6993420124054	0.09998106956481934
40	194.12882804870605	fix_pre	0		120	38.0	2.5	/experiments/knapen_AOT/AOT_stimuli/rescaled_final/0141_rv.mp4	0.0	286.7993230819702	1.0001840591430664
40	194.31237316131592	pulse	0	t		38.0	2.5	/experiments/knapen_AOT/AOT_stimuli/rescaled_final/0141_rv.mp4	0.0	286.9828681945801	
40	195.12901210784912	movie	1		244	38.0	2.5	/experiments/knapen_AOT/AOT_stimuli/rescaled_final/0141_rv.mp4	0.0	287.7995071411133	2.5003180503845215
40	195.91259717941284	pulse	1	t		38.0	2.5	/experiments/knapen_AOT/AOT_stimuli/rescaled_final/0141_rv.mp4	0.0	288.583092212677	
40	197.5129361152649	pulse	1	t		38.0	2.5	/experiments/knapen_AOT/AOT_stimuli/rescaled_final/0141_rv.mp4	0.0	290.18343114852905	
40	197.62933015823364	fix_post	2		12	38.0	2.5	/experiments/knapen_AOT/AOT_stimuli/rescaled_final/0141_rv.mp4	0.0	290.2998251914978	0.1000969409942627
41	197.7294270992279	fix_pre	0		120	39.0	2.5	/experiments/knapen_AOT/AOT_stimuli/rescaled_final/0706_fw.mp4	0.0	290.39992213249207	1.000067949295044
41	198.72949504852295	movie	1		244	39.0	2.5	/experiments/knapen_AOT/AOT_stimuli/rescaled_final/0706_fw.mp4	0.0	291.3999900817871	2.4920730590820312
41	199.11352515220642	pulse	1	t		39.0	2.5	/experiments/knapen_AOT/AOT_stimuli/rescaled_final/0706_fw.mp4	0.0	291.7840201854706	
41	200.7134289741516	pulse	1	t		39.0	2.5	/experiments/knapen_AOT/AOT_stimuli/rescaled_final/0706_fw.mp4	0.0	293.38392400741577	
41	201.22156810760498	fix_post	2		12	39.0	2.5	/experiments/knapen_AOT/AOT_stimuli/rescaled_final/0706_fw.mp4	0.0	293.89206314086914	0.09999895095825195
42	201.32156705856323	fix_pre	0		120	40.0	2.5	blank	1.0	293.9920620918274	1.000201940536499
42	202.31354904174805	pulse	0	t		40.0	2.5	blank	1.0	294.9840440750122	
42	202.32176899909973	movie	1		301	40.0	2.5	blank	1.0	294.9922640323639	2.508664131164551
42	203.91396808624268	pulse	1	t		40.0	2.5	blank	1.0	296.58446311950684	
42	204.83043313026428	fix_post	2		12	40.0	2.5	blank	1.0	297.50092816352844	0.10000181198120117
43	204.93043494224548	fix_pre	0		120	41.0	2.5	/experiments/knapen_AOT/AOT_stimuli/rescaled_final/1256_rv.mp4	0.0	297.60092997550964	1.0004172325134277
43	205.51420307159424	pulse	0	t		41.0	2.5	/experiments/knapen_AOT/AOT_stimuli/rescaled_final/1256_rv.mp4	0.0	298.1846981048584	
43	205.9308521747589	movie	1		245	41.0	2.5	/experiments/knapen_AOT/AOT_stimuli/rescaled_final/1256_rv.mp4	0.0	298.60134720802307	2.5001049041748047
43	207.1143879890442	pulse	1	t		41.0	2.5	/experiments/knapen_AOT/AOT_stimuli/rescaled_final/1256_rv.mp4	0.0	299.78488302230835	
43	208.43095707893372	fix_post	2		12	41.0	2.5	/experiments/knapen_AOT/AOT_stimuli/rescaled_final/1256_rv.mp4	0.0	301.1014521121979	0.10004687309265137
44	208.53100395202637	fix_pre	0		120	42.0	2.5	/experiments/knapen_AOT/AOT_stimuli/rescaled_final/2025_fw.mp4	0.0	301.2014989852905	1.0001060962677002
44	208.7144911289215	pulse	0	t		42.0	2.5	/experiments/knapen_AOT/AOT_stimuli/rescaled_final/2025_fw.mp4	0.0	301.38498616218567	
44	209.53111004829407	movie	1		244	42.0	2.5	/experiments/knapen_AOT/AOT_stimuli/rescaled_final/2025_fw.mp4	0.0	302.2016050815582	2.500438928604126
44	210.3147439956665	pulse	1	t		42.0	2.5	/experiments/knapen_AOT/AOT_stimuli/rescaled_final/2025_fw.mp4	0.0	302.98523902893066	
44	211.9151029586792	pulse	1	t		42.0	2.5	/experiments/knapen_AOT/AOT_stimuli/rescaled_final/2025_fw.mp4	0.0	304.58559799194336	
44	212.0315489768982	fix_post	2		12	42.0	2.5	/experiments/knapen_AOT/AOT_stimuli/rescaled_final/2025_fw.mp4	0.0	304.70204401016235	0.09996199607849121
45	212.13151097297668	fix_pre	0		119	43.0	2.5	/experiments/knapen_AOT/AOT_stimuli/rescaled_final/0787_rv.mp4	0.0	304.80200600624084	0.9918441772460938
45	213.12335515022278	movie	1		245	43.0	2.5	/experiments/knapen_AOT/AOT_stimuli/rescaled_final/0787_rv.mp4	0.0	305.79385018348694	2.500347852706909
45	213.5153501033783	pulse	1	t		43.0	2.5	/experiments/knapen_AOT/AOT_stimuli/rescaled_final/0787_rv.mp4	0.0	306.18584513664246	
45	215.1155300140381	pulse	1	t		43.0	2.5	/experiments/knapen_AOT/AOT_stimuli/rescaled_final/0787_rv.mp4	0.0	307.78602504730225	
45	215.6237030029297	fix_post	2		12	43.0	2.5	/experiments/knapen_AOT/AOT_stimuli/rescaled_final/0787_rv.mp4	0.0	308.29419803619385	0.10002899169921875
46	215.7237319946289	fix_pre	0		120	44.0	2.5	/experiments/knapen_AOT/AOT_stimuli/rescaled_final/0559_fw.mp4	0.0	308.39422702789307	1.0002241134643555
46	216.71571898460388	pulse	0	t		44.0	2.5	/experiments/knapen_AOT/AOT_stimuli/rescaled_final/0559_fw.mp4	0.0	309.38621401786804	
46	216.72395610809326	movie	1		242	44.0	2.5	/experiments/knapen_AOT/AOT_stimuli/rescaled_final/0559_fw.mp4	0.0	309.3944511413574	2.5086469650268555
46	218.31716012954712	pulse	1	t		44.0	2.5	/experiments/knapen_AOT/AOT_stimuli/rescaled_final/0559_fw.mp4	0.0	310.9876551628113	
46	219.23260307312012	fix_post	2		12	44.0	2.5	/experiments/knapen_AOT/AOT_stimuli/rescaled_final/0559_fw.mp4	0.0	311.9030981063843	0.10003900527954102
47	219.33264207839966	fix_pre	0		120	45.0	2.5	/experiments/knapen_AOT/AOT_stimuli/rescaled_final/0175_fw.mp4	0.0	312.0031371116638	1.0001449584960938
47	219.91628313064575	pulse	0	t		45.0	2.5	/experiments/knapen_AOT/AOT_stimuli/rescaled_final/0175_fw.mp4	0.0	312.5867781639099	
47	220.33278703689575	movie	1		244	45.0	2.5	/experiments/knapen_AOT/AOT_stimuli/rescaled_final/0175_fw.mp4	0.0	313.0032820701599	2.5003321170806885
47	221.51659107208252	pulse	1	t		45.0	2.5	/experiments/knapen_AOT/AOT_stimuli/rescaled_final/0175_fw.mp4	0.0	314.1870861053467	
47	222.83311915397644	fix_post	2		12	45.0	2.5	/experiments/knapen_AOT/AOT_stimuli/rescaled_final/0175_fw.mp4	0.0	315.5036141872406	0.10001587867736816
48	222.9331350326538	fix_pre	0		120	46.0	2.5	/experiments/knapen_AOT/AOT_stimuli/rescaled_final/1359_rv.mp4	0.0	315.60363006591797	1.000196933746338
48	223.11669397354126	pulse	0	t		46.0	2.5	/experiments/knapen_AOT/AOT_stimuli/rescaled_final/1359_rv.mp4	0.0	315.7871890068054	
48	223.93333196640015	movie	1		243	46.0	2.5	/experiments/knapen_AOT/AOT_stimuli/rescaled_final/1359_rv.mp4	0.0	316.6038269996643	2.5003321170806885
48	224.71693301200867	pulse	1	t		46.0	2.5	/experiments/knapen_AOT/AOT_stimuli/rescaled_final/1359_rv.mp4	0.0	317.3874280452728	
48	226.3170521259308	pulse	1	t		46.0	2.5	/experiments/knapen_AOT/AOT_stimuli/rescaled_final/1359_rv.mp4	0.0	318.98754715919495	
48	226.43366408348083	fix_post	2		12	46.0	2.5	/experiments/knapen_AOT/AOT_stimuli/rescaled_final/1359_rv.mp4	0.0	319.104159116745	0.09998893737792969
49	226.53365302085876	fix_pre	0		120	47.0	2.5	blank	1.0	319.2041480541229	1.000190019607544
49	227.5338430404663	movie	1		299	47.0	2.5	blank	1.0	320.20433807373047	2.4920549392700195
49	227.91752195358276	pulse	1	t		47.0	2.5	blank	1.0	320.5880169868469	
49	229.51762509346008	pulse	1	t		47.0	2.5	blank	1.0	322.18812012672424	
49	230.02589797973633	fix_post	2		12	47.0	2.5	blank	1.0	322.6963930130005	0.09998607635498047
50	230.1258840560913	fix_pre	0		120	48.0	2.5	/experiments/knapen_AOT/AOT_stimuli/rescaled_final/1715_fw.mp4	0.0	322.79637908935547	1.000128984451294
50	231.11792397499084	pulse	0	t		48.0	2.5	/experiments/knapen_AOT/AOT_stimuli/rescaled_final/1715_fw.mp4	0.0	323.788419008255	
50	231.1260130405426	movie	1		247	48.0	2.5	/experiments/knapen_AOT/AOT_stimuli/rescaled_final/1715_fw.mp4	0.0	323.79650807380676	2.508726119995117
50	232.719309091568	pulse	1	t		48.0	2.5	/experiments/knapen_AOT/AOT_stimuli/rescaled_final/1715_fw.mp4	0.0	325.38980412483215	
50	233.63473916053772	fix_post	2		12	48.0	2.5	/experiments/knapen_AOT/AOT_stimuli/rescaled_final/1715_fw.mp4	0.0	326.3052341938019	0.10016179084777832
51	233.7349009513855	fix_pre	0		120	49.0	2.5	/experiments/knapen_AOT/AOT_stimuli/rescaled_final/1771_rv.mp4	0.0	326.40539598464966	1.0000340938568115
51	234.3183720111847	pulse	0	t		49.0	2.5	/experiments/knapen_AOT/AOT_stimuli/rescaled_final/1771_rv.mp4	0.0	326.98886704444885	
51	234.7349350452423	movie	1		244	49.0	2.5	/experiments/knapen_AOT/AOT_stimuli/rescaled_final/1771_rv.mp4	0.0	327.40543007850647	2.500354051589966
51	235.91878700256348	pulse	1	t		49.0	2.5	/experiments/knapen_AOT/AOT_stimuli/rescaled_final/1771_rv.mp4	0.0	328.58928203582764	
51	237.23528909683228	fix_post	2		12	49.0	2.5	/experiments/knapen_AOT/AOT_stimuli/rescaled_final/1771_rv.mp4	0.0	329.90578413009644	0.10000205039978027
52	237.33529114723206	fix_pre	0		120	50.0	2.5	/experiments/knapen_AOT/AOT_stimuli/rescaled_final/0061_rv.mp4	0.0	330.0057861804962	1.0001449584960938
52	237.5188000202179	pulse	0	t		50.0	2.5	/experiments/knapen_AOT/AOT_stimuli/rescaled_final/0061_rv.mp4	0.0	330.18929505348206	
52	238.33543610572815	movie	1		243	50.0	2.5	/experiments/knapen_AOT/AOT_stimuli/rescaled_final/0061_rv.mp4	0.0	331.0059311389923	2.5003609657287598
52	239.1115951538086	pulse	1	t		50.0	2.5	/experiments/knapen_AOT/AOT_stimuli/rescaled_final/0061_rv.mp4	0.0	331.78209018707275	
52	240.71102499961853	pulse	1	t		50.0	2.5	/experiments/knapen_AOT/AOT_stimuli/rescaled_final/0061_rv.mp4	0.0	333.3815200328827	
52	240.8357970714569	fix_post	2		12	50.0	2.5	/experiments/knapen_AOT/AOT_stimuli/rescaled_final/0061_rv.mp4	0.0	333.50629210472107	0.10006904602050781
53	240.93586611747742	fix_pre	0		120	51.0	2.5	/experiments/knapen_AOT/AOT_stimuli/rescaled_final/0436_fw.mp4	0.0	333.6063611507416	1.000128984451294
53	241.9359951019287	movie	1		243	51.0	2.5	/experiments/knapen_AOT/AOT_stimuli/rescaled_final/0436_fw.mp4	0.0	334.60649013519287	2.4920380115509033
53	242.31117510795593	pulse	1	t		51.0	2.5	/experiments/knapen_AOT/AOT_stimuli/rescaled_final/0436_fw.mp4	0.0	334.9816701412201	
53	243.91150617599487	pulse	1	t		51.0	2.5	/experiments/knapen_AOT/AOT_stimuli/rescaled_final/0436_fw.mp4	0.0	336.58200120925903	
53	244.42803311347961	fix_post	2		12	51.0	2.5	/experiments/knapen_AOT/AOT_stimuli/rescaled_final/0436_fw.mp4	0.0	337.0985281467438	0.10001397132873535
54	244.52804708480835	fix_pre	0		119	52.0	2.5	/experiments/knapen_AOT/AOT_stimuli/rescaled_final/2026_fw.mp4	0.0	337.1985421180725	0.9917600154876709
54	245.5116729736328	pulse	0	t		52.0	2.5	/experiments/knapen_AOT/AOT_stimuli/rescaled_final/2026_fw.mp4	0.0	338.182168006897	
54	245.51980710029602	movie	1		244	52.0	2.5	/experiments/knapen_AOT/AOT_stimuli/rescaled_final/2026_fw.mp4	0.0	338.1903021335602	2.5087409019470215
54	247.112624168396	pulse	1	t		52.0	2.5	/experiments/knapen_AOT/AOT_stimuli/rescaled_final/2026_fw.mp4	0.0	339.78311920166016	
54	248.02854800224304	fix_post	2		12	52.0	2.5	/experiments/knapen_AOT/AOT_stimuli/rescaled_final/2026_fw.mp4	0.0	340.6990430355072	0.10006594657897949
55	248.12861394882202	fix_pre	0		120	53.0	2.5	/experiments/knapen_AOT/AOT_stimuli/rescaled_final/1085_rv.mp4	0.0	340.7991089820862	1.0000970363616943
55	248.7122299671173	pulse	0	t		53.0	2.5	/experiments/knapen_AOT/AOT_stimuli/rescaled_final/1085_rv.mp4	0.0	341.38272500038147	
55	249.12871098518372	movie	1		244	53.0	2.5	/experiments/knapen_AOT/AOT_stimuli/rescaled_final/1085_rv.mp4	0.0	341.7992060184479	2.500411033630371
55	250.31252813339233	pulse	1	t		53.0	2.5	/experiments/knapen_AOT/AOT_stimuli/rescaled_final/1085_rv.mp4	0.0	342.9830231666565	
55	251.6291220188141	fix_post	2		12	53.0	2.5	/experiments/knapen_AOT/AOT_stimuli/rescaled_final/1085_rv.mp4	0.0	344.29961705207825	0.10002708435058594
56	251.72914910316467	fix_pre	0		120	54.0	2.5	blank	1.0	344.39964413642883	1.000074863433838
56	251.91262912750244	pulse	0	t		54.0	2.5	blank	1.0	344.5831241607666	
56	252.7292239665985	movie	1		300	54.0	2.5	blank	1.0	345.39971899986267	2.500415086746216
56	253.51289200782776	pulse	1	t		54.0	2.5	blank	1.0	346.1833870410919	
56	255.11313915252686	pulse	1	t		54.0	2.5	blank	1.0	347.783634185791	
56	255.22963905334473	fix_post	2		12	54.0	2.5	blank	1.0	347.9001340866089	0.10007095336914062
57	255.32971000671387	fix_pre	0		120	55.0	2.5	/experiments/knapen_AOT/AOT_stimuli/rescaled_final/1102_fw.mp4	0.0	348.000205039978	1.0000841617584229
57	256.3297941684723	movie	1		242	55.0	2.5	/experiments/knapen_AOT/AOT_stimuli/rescaled_final/1102_fw.mp4	0.0	349.00028920173645	2.492017984390259
57	256.7148129940033	pulse	1	t		55.0	2.5	/experiments/knapen_AOT/AOT_stimuli/rescaled_final/1102_fw.mp4	0.0	349.38530802726746	
57	258.3136610984802	pulse	1	t		55.0	2.5	/experiments/knapen_AOT/AOT_stimuli/rescaled_final/1102_fw.mp4	0.0	350.9841561317444	
57	258.82181215286255	fix_post	2		12	55.0	2.5	/experiments/knapen_AOT/AOT_stimuli/rescaled_final/1102_fw.mp4	0.0	351.4923071861267	0.10003280639648438
58	258.92184495925903	fix_pre	0		120	56.0	2.5	/experiments/knapen_AOT/AOT_stimuli/rescaled_final/2127_fw.mp4	0.0	351.5923399925232	1.0001161098480225
58	259.9138901233673	pulse	0	t		56.0	2.5	/experiments/knapen_AOT/AOT_stimuli/rescaled_final/2127_fw.mp4	0.0	352.58438515663147	
58	259.92196106910706	movie	1		249	56.0	2.5	/experiments/knapen_AOT/AOT_stimuli/rescaled_final/2127_fw.mp4	0.0	352.5924561023712	2.5087380409240723
58	261.5148310661316	pulse	1	t		56.0	2.5	/experiments/knapen_AOT/AOT_stimuli/rescaled_final/2127_fw.mp4	0.0	354.18532609939575	
58	262.4306991100311	fix_post	2		12	56.0	2.5	/experiments/knapen_AOT/AOT_stimuli/rescaled_final/2127_fw.mp4	0.0	355.1011941432953	0.1000669002532959
59	262.5307660102844	fix_pre	0		120	57.0	2.5	/experiments/knapen_AOT/AOT_stimuli/rescaled_final/1987_rv.mp4	0.0	355.2012610435486	1.0001139640808105
59	263.1144120693207	pulse	0	t		57.0	2.5	/experiments/knapen_AOT/AOT_stimuli/rescaled_final/1987_rv.mp4	0.0	355.78490710258484	
59	263.53087997436523	movie	1		244	57.0	2.5	/experiments/knapen_AOT/AOT_stimuli/rescaled_final/1987_rv.mp4	0.0	356.2013750076294	2.500359058380127
59	264.7146370410919	pulse	1	t		57.0	2.5	/experiments/knapen_AOT/AOT_stimuli/rescaled_final/1987_rv.mp4	0.0	357.3851320743561	
59	266.03123903274536	fix_post	2		12	57.0	2.5	/experiments/knapen_AOT/AOT_stimuli/rescaled_final/1987_rv.mp4	0.0	358.7017340660095	0.10001206398010254
60	266.13125109672546	fix_pre	0		120	58.0	2.5	/experiments/knapen_AOT/AOT_stimuli/rescaled_final/1746_fw.mp4	0.0	358.8017461299896	1.0001499652862549
60	266.31488013267517	pulse	0	t		58.0	2.5	/experiments/knapen_AOT/AOT_stimuli/rescaled_final/1746_fw.mp4	0.0	358.98537516593933	
60	267.1314010620117	movie	1		244	58.0	2.5	/experiments/knapen_AOT/AOT_stimuli/rescaled_final/1746_fw.mp4	0.0	359.8018960952759	2.5003609657287598
60	267.9150900840759	pulse	1	t		58.0	2.5	/experiments/knapen_AOT/AOT_stimuli/rescaled_final/1746_fw.mp4	0.0	360.5855851173401	
60	269.5152871608734	pulse	1	t		58.0	2.5	/experiments/knapen_AOT/AOT_stimuli/rescaled_final/1746_fw.mp4	0.0	362.1857821941376	
60	269.6317620277405	fix_post	2		12	58.0	2.5	/experiments/knapen_AOT/AOT_stimuli/rescaled_final/1746_fw.mp4	0.0	362.30225706100464	0.10004210472106934
61	269.73180413246155	fix_pre	0		120	59.0	2.5	/experiments/knapen_AOT/AOT_stimuli/rescaled_final/0106_fw.mp4	0.0	362.4022991657257	1.0001368522644043
61	270.73194098472595	movie	1		242	59.0	2.5	/experiments/knapen_AOT/AOT_stimuli/rescaled_final/0106_fw.mp4	0.0	363.4024360179901	2.4920871257781982
61	271.11631417274475	pulse	1	t		59.0	2.5	/experiments/knapen_AOT/AOT_stimuli/rescaled_final/0106_fw.mp4	0.0	363.7868092060089	
61	272.71577501296997	pulse	1	t		59.0	2.5	/experiments/knapen_AOT/AOT_stimuli/rescaled_final/0106_fw.mp4	0.0	365.38627004623413	
61	273.22402811050415	fix_post	2		12	59.0	2.5	/experiments/knapen_AOT/AOT_stimuli/rescaled_final/0106_fw.mp4	0.0	365.8945231437683	0.10003495216369629
62	273.32406306266785	fix_pre	0		120	60.0	2.5	/experiments/knapen_AOT/AOT_stimuli/rescaled_final/0141_fw.mp4	0.0	365.994558095932	1.0001049041748047
62	274.31602907180786	pulse	0	t		60.0	2.5	/experiments/knapen_AOT/AOT_stimuli/rescaled_final/0141_fw.mp4	0.0	366.986524105072	
62	274.32416796684265	movie	1		246	60.0	2.5	/experiments/knapen_AOT/AOT_stimuli/rescaled_final/0141_fw.mp4	0.0	366.9946630001068	2.5086870193481445
62	275.917160987854	pulse	1	t		60.0	2.5	/experiments/knapen_AOT/AOT_stimuli/rescaled_final/0141_fw.mp4	0.0	368.58765602111816	
62	276.8328549861908	fix_post	2		12	60.0	2.5	/experiments/knapen_AOT/AOT_stimuli/rescaled_final/0141_fw.mp4	0.0	369.50335001945496	0.10001015663146973
63	276.93286514282227	fix_pre	0		120	61.0	2.5	/experiments/knapen_AOT/AOT_stimuli/rescaled_final/1697_fw.mp4	0.0	369.6033601760864	1.0001428127288818
63	277.5165710449219	pulse	0	t		61.0	2.5	/experiments/knapen_AOT/AOT_stimuli/rescaled_final/1697_fw.mp4	0.0	370.18706607818604	
63	277.93300795555115	movie	1		239	61.0	2.5	/experiments/knapen_AOT/AOT_stimuli/rescaled_final/1697_fw.mp4	0.0	370.6035029888153	2.5050501823425293
63	279.11679911613464	pulse	1	t		61.0	2.5	/experiments/knapen_AOT/AOT_stimuli/rescaled_final/1697_fw.mp4	0.0	371.7872941493988	
63	280.4380581378937	fix_post	2		12	61.0	2.5	/experiments/knapen_AOT/AOT_stimuli/rescaled_final/1697_fw.mp4	0.0	373.10855317115784	0.09532594680786133
64	280.53338408470154	fix_pre	0		120	62.0	2.5	/experiments/knapen_AOT/AOT_stimuli/rescaled_final/1604_rv.mp4	0.0	373.2038791179657	1.0001568794250488
64	280.7172350883484	pulse	0	t		62.0	2.5	/experiments/knapen_AOT/AOT_stimuli/rescaled_final/1604_rv.mp4	0.0	373.38773012161255	
64	281.5335409641266	movie	1		243	62.0	2.5	/experiments/knapen_AOT/AOT_stimuli/rescaled_final/1604_rv.mp4	0.0	374.20403599739075	2.5003390312194824
64	282.31726813316345	pulse	1	t		62.0	2.5	/experiments/knapen_AOT/AOT_stimuli/rescaled_final/1604_rv.mp4	0.0	374.9877631664276	
64	283.9173901081085	pulse	1	t		62.0	2.5	/experiments/knapen_AOT/AOT_stimuli/rescaled_final/1604_rv.mp4	0.0	376.5878851413727	
64	284.03387999534607	fix_post	2		12	62.0	2.5	/experiments/knapen_AOT/AOT_stimuli/rescaled_final/1604_rv.mp4	0.0	376.70437502861023	0.10006904602050781
65	284.1339490413666	fix_pre	0		120	63.0	2.5	blank	1.0	376.80444407463074	1.0001459121704102
65	285.134094953537	movie	1		299	63.0	2.5	blank	1.0	377.80458998680115	2.4920501708984375
65	285.51763796806335	pulse	1	t		63.0	2.5	blank	1.0	378.1881330013275	
65	287.1180651187897	pulse	1	t		63.0	2.5	blank	1.0	379.78856015205383	
65	287.6261451244354	fix_post	2		12	63.0	2.5	blank	1.0	380.2966401576996	0.10001492500305176
66	287.7261600494385	fix_pre	0		120	64.0	2.5	/experiments/knapen_AOT/AOT_stimuli/rescaled_final/0686_fw.mp4	0.0	380.39665508270264	1.0001211166381836
66	288.7182800769806	pulse	0	t		64.0	2.5	/experiments/knapen_AOT/AOT_stimuli/rescaled_final/0686_fw.mp4	0.0	381.38877511024475	
66	288.72628116607666	movie	1		245	64.0	2.5	/experiments/knapen_AOT/AOT_stimuli/rescaled_final/0686_fw.mp4	0.0	381.3967761993408	2.5087788105010986
66	290.3191261291504	pulse	1	t		64.0	2.5	/experiments/knapen_AOT/AOT_stimuli/rescaled_final/0686_fw.mp4	0.0	382.98962116241455	
66	291.23505997657776	fix_post	2		12	64.0	2.5	/experiments/knapen_AOT/AOT_stimuli/rescaled_final/0686_fw.mp4	0.0	383.9055550098419	0.09993720054626465
67	291.334997177124	fix_pre	0		120	65.0	2.5	/experiments/knapen_AOT/AOT_stimuli/rescaled_final/1862_rv.mp4	0.0	384.0054922103882	1.000175952911377
67	291.9186120033264	pulse	0	t		65.0	2.5	/experiments/knapen_AOT/AOT_stimuli/rescaled_final/1862_rv.mp4	0.0	384.5891070365906	
67	292.3351731300354	movie	1		244	65.0	2.5	/experiments/knapen_AOT/AOT_stimuli/rescaled_final/1862_rv.mp4	0.0	385.00566816329956	2.5003490447998047
67	293.51902294158936	pulse	1	t		65.0	2.5	/experiments/knapen_AOT/AOT_stimuli/rescaled_final/1862_rv.mp4	0.0	386.1895179748535	
67	294.8355221748352	fix_post	2		12	65.0	2.5	/experiments/knapen_AOT/AOT_stimuli/rescaled_final/1862_rv.mp4	0.0	387.50601720809937	0.10004687309265137
68	294.93556904792786	fix_pre	0		120	66.0	2.5	/experiments/knapen_AOT/AOT_stimuli/rescaled_final/1250_fw.mp4	0.0	387.606064081192	1.0001320838928223
68	295.11166310310364	pulse	0	t		66.0	2.5	/experiments/knapen_AOT/AOT_stimuli/rescaled_final/1250_fw.mp4	0.0	387.7821581363678	
68	295.9357011318207	movie	1		245	66.0	2.5	/experiments/knapen_AOT/AOT_stimuli/rescaled_final/1250_fw.mp4	0.0	388.60619616508484	2.5004239082336426
68	296.71204805374146	pulse	1	t		66.0	2.5	/experiments/knapen_AOT/AOT_stimuli/rescaled_final/1250_fw.mp4	0.0	389.3825430870056	
68	298.31713795661926	pulse	1	t		66.0	2.5	/experiments/knapen_AOT/AOT_stimuli/rescaled_final/1250_fw.mp4	0.0	390.9876329898834	
68	298.4361250400543	fix_post	2		12	66.0	2.5	/experiments/knapen_AOT/AOT_stimuli/rescaled_final/1250_fw.mp4	0.0	391.1066200733185	0.09996390342712402
69	298.53608894348145	fix_pre	0		120	67.0	2.5	/experiments/knapen_AOT/AOT_stimuli/rescaled_final/1913_fw.mp4	0.0	391.2065839767456	1.0001771450042725
69	299.5362660884857	movie	1		244	67.0	2.5	/experiments/knapen_AOT/AOT_stimuli/rescaled_final/1913_fw.mp4	0.0	392.2067611217499	2.491987943649292
69	299.9201719760895	pulse	1	t		67.0	2.5	/experiments/knapen_AOT/AOT_stimuli/rescaled_final/1913_fw.mp4	0.0	392.59066700935364	
69	301.5120179653168	pulse	1	t		67.0	2.5	/experiments/knapen_AOT/AOT_stimuli/rescaled_final/1913_fw.mp4	0.0	394.18251299858093	
69	302.028254032135	fix_post	2		12	67.0	2.5	/experiments/knapen_AOT/AOT_stimuli/rescaled_final/1913_fw.mp4	0.0	394.69874906539917	0.10004591941833496
70	302.12829995155334	fix_pre	0		119	68.0	2.5	/experiments/knapen_AOT/AOT_stimuli/rescaled_final/0502_rv.mp4	0.0	394.7987949848175	0.9918131828308105
70	303.11188197135925	pulse	0	t		68.0	2.5	/experiments/knapen_AOT/AOT_stimuli/rescaled_final/0502_rv.mp4	0.0	395.7823770046234	
70	303.12011313438416	movie	1		244	68.0	2.5	/experiments/knapen_AOT/AOT_stimuli/rescaled_final/0502_rv.mp4	0.0	395.7906081676483	2.508678913116455
70	304.71364307403564	pulse	1	t		68.0	2.5	/experiments/knapen_AOT/AOT_stimuli/rescaled_final/0502_rv.mp4	0.0	397.3841381072998	
70	305.6287920475006	fix_post	2		12	68.0	2.5	/experiments/knapen_AOT/AOT_stimuli/rescaled_final/0502_rv.mp4	0.0	398.29928708076477	0.10009503364562988
71	305.72888708114624	fix_pre	0		120	69.0	2.5	/experiments/knapen_AOT/AOT_stimuli/rescaled_final/0442_fw.mp4	0.0	398.3993821144104	1.0000910758972168
71	306.31249594688416	pulse	0	t		69.0	2.5	/experiments/knapen_AOT/AOT_stimuli/rescaled_final/0442_fw.mp4	0.0	398.9829909801483	
71	306.72897815704346	movie	1		244	69.0	2.5	/experiments/knapen_AOT/AOT_stimuli/rescaled_final/0442_fw.mp4	0.0	399.3994731903076	2.5003910064697266
71	307.91270112991333	pulse	1	t		69.0	2.5	/experiments/knapen_AOT/AOT_stimuli/rescaled_final/0442_fw.mp4	0.0	400.5831961631775	
71	309.2293691635132	fix_post	2		12	69.0	2.5	/experiments/knapen_AOT/AOT_stimuli/rescaled_final/0442_fw.mp4	0.0	401.89986419677734	0.10001397132873535
72	309.3293831348419	fix_pre	0		120	70.0	2.5	blank	1.0	401.9998781681061	1.000128984451294
72	309.5129590034485	pulse	0	t		70.0	2.5	blank	1.0	402.18345403671265	
72	310.3295121192932	movie	1		300	70.0	2.5	blank	1.0	403.0000071525574	2.500380039215088
72	311.1131420135498	pulse	1	t		70.0	2.5	blank	1.0	403.78363704681396	
72	312.71344804763794	pulse	1	t		70.0	2.5	blank	1.0	405.3839430809021	
72	312.8298921585083	fix_post	2		12	70.0	2.5	blank	1.0	405.50038719177246	0.10002899169921875
73	312.9299211502075	fix_pre	0		120	71.0	2.5	/experiments/knapen_AOT/AOT_stimuli/rescaled_final/0972_fw.mp4	0.0	405.6004161834717	1.0002038478851318
73	313.93012499809265	movie	1		242	71.0	2.5	/experiments/knapen_AOT/AOT_stimuli/rescaled_final/0972_fw.mp4	0.0	406.6006200313568	2.4919841289520264
73	314.3149161338806	pulse	1	t		71.0	2.5	/experiments/knapen_AOT/AOT_stimuli/rescaled_final/0972_fw.mp4	0.0	406.9854111671448	
73	315.91393303871155	pulse	1	t		71.0	2.5	/experiments/knapen_AOT/AOT_stimuli/rescaled_final/0972_fw.mp4	0.0	408.5844280719757	
73	316.4221091270447	fix_post	2		12	71.0	2.5	/experiments/knapen_AOT/AOT_stimuli/rescaled_final/0972_fw.mp4	0.0	409.09260416030884	0.09999799728393555
74	316.5221071243286	fix_pre	0		120	72.0	2.5	/experiments/knapen_AOT/AOT_stimuli/rescaled_final/0015_rv.mp4	0.0	409.1926021575928	1.0001678466796875
74	317.5142240524292	pulse	0	t		72.0	2.5	/experiments/knapen_AOT/AOT_stimuli/rescaled_final/0015_rv.mp4	0.0	410.18471908569336	
74	317.5222749710083	movie	1		245	72.0	2.5	/experiments/knapen_AOT/AOT_stimuli/rescaled_final/0015_rv.mp4	0.0	410.19277000427246	2.5087010860443115
74	319.1148450374603	pulse	1	t		72.0	2.5	/experiments/knapen_AOT/AOT_stimuli/rescaled_final/0015_rv.mp4	0.0	411.7853400707245	
74	320.0309760570526	fix_post	2		12	72.0	2.5	/experiments/knapen_AOT/AOT_stimuli/rescaled_final/0015_rv.mp4	0.0	412.7014710903168	0.09999704360961914
75	320.13097310066223	fix_pre	0		120	73.0	2.5	/experiments/knapen_AOT/AOT_stimuli/rescaled_final/0436_rv.mp4	0.0	412.8014681339264	1.0002670288085938
75	320.7145709991455	pulse	0	t		73.0	2.5	/experiments/knapen_AOT/AOT_stimuli/rescaled_final/0436_rv.mp4	0.0	413.38506603240967	
75	321.1312401294708	movie	1		244	73.0	2.5	/experiments/knapen_AOT/AOT_stimuli/rescaled_final/0436_rv.mp4	0.0	413.801735162735	2.500247001647949
75	322.31491112709045	pulse	1	t		73.0	2.5	/experiments/knapen_AOT/AOT_stimuli/rescaled_final/0436_rv.mp4	0.0	414.9854061603546	
75	323.6314871311188	fix_post	2		12	73.0	2.5	/experiments/knapen_AOT/AOT_stimuli/rescaled_final/0436_rv.mp4	0.0	416.30198216438293	0.09999799728393555
76	323.7314851284027	fix_pre	0		120	74.0	2.5	/experiments/knapen_AOT/AOT_stimuli/rescaled_final/1359_rv.mp4	0.0	416.40198016166687	1.000154972076416
76	323.9151620864868	pulse	0	t		74.0	2.5	/experiments/knapen_AOT/AOT_stimuli/rescaled_final/1359_rv.mp4	0.0	416.585657119751	
76	324.7316401004791	movie	1		243	74.0	2.5	/experiments/knapen_AOT/AOT_stimuli/rescaled_final/1359_rv.mp4	0.0	417.4021351337433	2.500419855117798
76	325.51544308662415	pulse	1	t		74.0	2.5	/experiments/knapen_AOT/AOT_stimuli/rescaled_final/1359_rv.mp4	0.0	418.1859381198883	
76	327.11571311950684	pulse	1	t		74.0	2.5	/experiments/knapen_AOT/AOT_stimuli/rescaled_final/1359_rv.mp4	0.0	419.786208152771	
76	327.2320599555969	fix_post	2		12	74.0	2.5	/experiments/knapen_AOT/AOT_stimuli/rescaled_final/1359_rv.mp4	0.0	419.9025549888611	0.09997820854187012
77	327.3320381641388	fix_pre	0		120	75.0	2.5	blank	1.0	420.00253319740295	1.000175952911377
77	328.33221411705017	movie	1		299	75.0	2.5	blank	1.0	421.00270915031433	2.492050886154175
77	328.71580696105957	pulse	1	t		75.0	2.5	blank	1.0	421.38630199432373	
77	330.31608295440674	pulse	1	t		75.0	2.5	blank	1.0	422.9865779876709	
77	330.82426500320435	fix_post	2		12	75.0	2.5	blank	1.0	423.4947600364685	0.1000051498413086
78	330.92427015304565	fix_pre	0		120	76.0	2.5	/experiments/knapen_AOT/AOT_stimuli/rescaled_final/1563_fw.mp4	0.0	423.5947651863098	1.0001158714294434
78	331.91631507873535	pulse	0	t		76.0	2.5	/experiments/knapen_AOT/AOT_stimuli/rescaled_final/1563_fw.mp4	0.0	424.5868101119995	
78	331.9243860244751	movie	1		245	76.0	2.5	/experiments/knapen_AOT/AOT_stimuli/rescaled_final/1563_fw.mp4	0.0	424.59488105773926	2.5087599754333496
78	333.51695108413696	pulse	1	t		76.0	2.5	/experiments/knapen_AOT/AOT_stimuli/rescaled_final/1563_fw.mp4	0.0	426.1874461174011	
78	334.43314599990845	fix_post	2		12	76.0	2.5	/experiments/knapen_AOT/AOT_stimuli/rescaled_final/1563_fw.mp4	0.0	427.1036410331726	0.1000051498413086
79	334.53315114974976	fix_pre	0		120	77.0	2.5	/experiments/knapen_AOT/AOT_stimuli/rescaled_final/0895_fw.mp4	0.0	427.2036461830139	1.000180959701538
79	335.11673307418823	pulse	0	t		77.0	2.5	/experiments/knapen_AOT/AOT_stimuli/rescaled_final/0895_fw.mp4	0.0	427.7872281074524	
79	335.5333321094513	movie	1		243	77.0	2.5	/experiments/knapen_AOT/AOT_stimuli/rescaled_final/0895_fw.mp4	0.0	428.20382714271545	2.500325918197632
79	336.7170560359955	pulse	1	t		77.0	2.5	/experiments/knapen_AOT/AOT_stimuli/rescaled_final/0895_fw.mp4	0.0	429.38755106925964	
79	338.0336580276489	fix_post	2		12	77.0	2.5	/experiments/knapen_AOT/AOT_stimuli/rescaled_final/0895_fw.mp4	0.0	430.7041530609131	0.1000070571899414
80	338.13366508483887	fix_pre	0		120	78.0	2.5	/experiments/knapen_AOT/AOT_stimuli/rescaled_final/0029_rv.mp4	0.0	430.804160118103	1.0001490116119385
80	338.3172950744629	pulse	0	t		78.0	2.5	/experiments/knapen_AOT/AOT_stimuli/rescaled_final/0029_rv.mp4	0.0	430.98779010772705	
80	339.1338140964508	movie	1		240	78.0	2.5	/experiments/knapen_AOT/AOT_stimuli/rescaled_final/0029_rv.mp4	0.0	431.80430912971497	2.5004498958587646
80	339.91760206222534	pulse	1	t		78.0	2.5	/experiments/knapen_AOT/AOT_stimuli/rescaled_final/0029_rv.mp4	0.0	432.5880970954895	
80	341.5179901123047	pulse	1	t		78.0	2.5	/experiments/knapen_AOT/AOT_stimuli/rescaled_final/0029_rv.mp4	0.0	434.18848514556885	
80	341.63426399230957	fix_post	2		12	78.0	2.5	/experiments/knapen_AOT/AOT_stimuli/rescaled_final/0029_rv.mp4	0.0	434.30475902557373	0.09995198249816895
81	341.73421597480774	fix_pre	0		120	79.0	2.5	/experiments/knapen_AOT/AOT_stimuli/rescaled_final/1958_fw.mp4	0.0	434.4047110080719	1.0001161098480225
81	342.73433208465576	movie	1		242	79.0	2.5	/experiments/knapen_AOT/AOT_stimuli/rescaled_final/1958_fw.mp4	0.0	435.4048271179199	2.4920380115509033
81	343.1186010837555	pulse	1	t		79.0	2.5	/experiments/knapen_AOT/AOT_stimuli/rescaled_final/1958_fw.mp4	0.0	435.78909611701965	
81	344.7182049751282	pulse	1	t		79.0	2.5	/experiments/knapen_AOT/AOT_stimuli/rescaled_final/1958_fw.mp4	0.0	437.38870000839233	
81	345.22637009620667	fix_post	2		12	79.0	2.5	/experiments/knapen_AOT/AOT_stimuli/rescaled_final/1958_fw.mp4	0.0	437.8968651294708	0.10002303123474121
82	345.3263931274414	fix_pre	0		120	80.0	2.5	/experiments/knapen_AOT/AOT_stimuli/rescaled_final/1257_rv.mp4	0.0	437.99688816070557	1.0001399517059326
82	346.318480014801	pulse	0	t		80.0	2.5	/experiments/knapen_AOT/AOT_stimuli/rescaled_final/1257_rv.mp4	0.0	438.9889750480652	
82	346.32653307914734	movie	1		247	80.0	2.5	/experiments/knapen_AOT/AOT_stimuli/rescaled_final/1257_rv.mp4	0.0	438.9970281124115	2.508755922317505
82	347.9193480014801	pulse	1	t		80.0	2.5	/experiments/knapen_AOT/AOT_stimuli/rescaled_final/1257_rv.mp4	0.0	440.58984303474426	
82	348.83528900146484	fix_post	2		12	80.0	2.5	/experiments/knapen_AOT/AOT_stimuli/rescaled_final/1257_rv.mp4	0.0	441.505784034729	0.10001301765441895
83	348.93530201911926	fix_pre	0		120	81.0	2.5	/experiments/knapen_AOT/AOT_stimuli/rescaled_final/0920_rv.mp4	0.0	441.6057970523834	1.0001280307769775
83	349.5114440917969	pulse	0	t		81.0	2.5	/experiments/knapen_AOT/AOT_stimuli/rescaled_final/0920_rv.mp4	0.0	442.18193912506104	
83	349.93543004989624	movie	1		243	81.0	2.5	/experiments/knapen_AOT/AOT_stimuli/rescaled_final/0920_rv.mp4	0.0	442.6059250831604	2.500377893447876
83	351.11138701438904	pulse	1	t		81.0	2.5	/experiments/knapen_AOT/AOT_stimuli/rescaled_final/0920_rv.mp4	0.0	443.7818820476532	
83	352.4358079433441	fix_post	2		12	81.0	2.5	/experiments/knapen_AOT/AOT_stimuli/rescaled_final/0920_rv.mp4	0.0	445.1063029766083	0.10000109672546387
84	352.5358090400696	fix_pre	0		120	82.0	2.5	/experiments/knapen_AOT/AOT_stimuli/rescaled_final/1399_fw.mp4	0.0	445.20630407333374	1.000143051147461
84	352.71190214157104	pulse	0	t		82.0	2.5	/experiments/knapen_AOT/AOT_stimuli/rescaled_final/1399_fw.mp4	0.0	445.3823971748352	
84	353.53595209121704	movie	1		244	82.0	2.5	/experiments/knapen_AOT/AOT_stimuli/rescaled_final/1399_fw.mp4	0.0	446.2064471244812	2.500364065170288
84	354.3113980293274	pulse	1	t		82.0	2.5	/experiments/knapen_AOT/AOT_stimuli/rescaled_final/1399_fw.mp4	0.0	446.98189306259155	
84	355.9114639759064	pulse	1	t		82.0	2.5	/experiments/knapen_AOT/AOT_stimuli/rescaled_final/1399_fw.mp4	0.0	448.58195900917053	
84	356.03631615638733	fix_post	2		12	82.0	2.5	/experiments/knapen_AOT/AOT_stimuli/rescaled_final/1399_fw.mp4	0.0	448.7068111896515	0.10003781318664551
85	356.136353969574	fix_pre	0		120	83.0	2.5	blank	1.0	448.80684900283813	1.0001239776611328
85	357.1364779472351	movie	1		299	83.0	2.5	blank	1.0	449.80697298049927	2.4920690059661865
85	357.5116889476776	pulse	1	t		83.0	2.5	blank	1.0	450.1821839809418	
85	359.1120491027832	pulse	1	t		83.0	2.5	blank	1.0	451.78254413604736	
85	359.6285469532013	fix_post	2		12	83.0	2.5	blank	1.0	452.29904198646545	0.09998703002929688
87	359.7285339832306	stim	0		1716					452.39902901649475	14.302260160446167
87	360.71224212646484	pulse	0	t						453.382737159729	
87	362.31238317489624	pulse	0	t						454.9828782081604	
87	363.9126150608063	pulse	0	t						456.58311009407043	
87	365.5129020214081	pulse	0	t						458.18339705467224	
87	367.11317205429077	pulse	0	t						459.78366708755493	
87	368.7134211063385	pulse	0	t						461.38391613960266	
87	370.31359696388245	pulse	0	t						462.9840919971466	
87	371.9138901233673	pulse	0	t						464.58438515663147	
87	373.5141451358795	pulse	0	t						466.1846401691437	
