trial_nr	onset	event_type	phase	response	nr_frames	movie_index	movie_duration	movie_file	blank	onset_abs	duration
0	0.14147400856018066	stim	0		19					34.98388361930847	0.15816187858581543
0	0.29164695739746094	response	0	space						35.13405656814575	
1	0.2996358871459961	stim	0		4332					35.14204549789429	36.115370750427246
1	36.39486241340637	pulse	0	t						71.23727202415466	
1	36.41500663757324	stim	1		1715					71.25741624832153	14.300602912902832
1	37.989948749542236	pulse	1	t						72.83235836029053	
1	39.58939504623413	pulse	1	t						74.43180465698242	
1	41.18942356109619	pulse	1	t						76.03183317184448	
1	42.789650201797485	pulse	1	t						77.63205981254578	
1	44.390056848526	pulse	1	t						79.23246645927429	
1	45.99024724960327	pulse	1	t						80.83265686035156	
1	47.5903902053833	pulse	1	t						82.43279981613159	
1	49.190624475479126	pulse	1	t						84.03303408622742	
2	50.715609550476074	fix_pre	0		10	0.0	2.5	/experiments/Knapen_AOT/AOT_stimuli/rescaled_final/0932_fw.mp4	0.0	85.55801916122437	0.10003209114074707
2	50.79090142250061	pulse	0	t		0.0	2.5	/experiments/Knapen_AOT/AOT_stimuli/rescaled_final/0932_fw.mp4	0.0	85.6333110332489	
2	50.81564164161682	movie	1		291	0.0	2.5	/experiments/Knapen_AOT/AOT_stimuli/rescaled_final/0932_fw.mp4	0.0	85.65805125236511	2.4920427799224854
2	52.38943648338318	pulse	1	t		0.0	2.5	/experiments/Knapen_AOT/AOT_stimuli/rescaled_final/0932_fw.mp4	0.0	87.23184609413147	
2	53.30768442153931	fix_post	2		12	0.0	2.5	/experiments/Knapen_AOT/AOT_stimuli/rescaled_final/0932_fw.mp4	0.0	88.1500940322876	0.09998917579650879
3	53.407673597335815	fix_pre	0		120	1.0	2.5	/experiments/Knapen_AOT/AOT_stimuli/rescaled_final/0804_rv.mp4	0.0	88.2500832080841	1.0085084438323975
3	53.99135947227478	pulse	0	t		1.0	2.5	/experiments/Knapen_AOT/AOT_stimuli/rescaled_final/0804_rv.mp4	0.0	88.83376908302307	
3	54.41618204116821	movie	1		294	1.0	2.5	/experiments/Knapen_AOT/AOT_stimuli/rescaled_final/0804_rv.mp4	0.0	89.2585916519165	2.492063522338867
3	55.58938264846802	pulse	1	t		1.0	2.5	/experiments/Knapen_AOT/AOT_stimuli/rescaled_final/0804_rv.mp4	0.0	90.43179225921631	
3	56.90824556350708	fix_post	2		12	1.0	2.5	/experiments/Knapen_AOT/AOT_stimuli/rescaled_final/0804_rv.mp4	0.0	91.75065517425537	0.09998703002929688
4	57.00823259353638	fix_pre	0		120	2.0	2.5	/experiments/Knapen_AOT/AOT_stimuli/rescaled_final/1633_rv.mp4	0.0	91.85064220428467	1.0084879398345947
4	57.19178104400635	pulse	0	t		2.0	2.5	/experiments/Knapen_AOT/AOT_stimuli/rescaled_final/1633_rv.mp4	0.0	92.03419065475464	
4	58.01672053337097	movie	1		278	2.0	2.5	/experiments/Knapen_AOT/AOT_stimuli/rescaled_final/1633_rv.mp4	0.0	92.85913014411926	2.4920341968536377
4	58.789867877960205	pulse	1	t		2.0	2.5	/experiments/Knapen_AOT/AOT_stimuli/rescaled_final/1633_rv.mp4	0.0	93.6322774887085	
4	60.39032030105591	pulse	1	t		2.0	2.5	/experiments/Knapen_AOT/AOT_stimuli/rescaled_final/1633_rv.mp4	0.0	95.2327299118042	
4	60.50875473022461	fix_post	2		12	2.0	2.5	/experiments/Knapen_AOT/AOT_stimuli/rescaled_final/1633_rv.mp4	0.0	95.3511643409729	0.10001873970031738
5	60.60877346992493	fix_pre	0		120	3.0	2.5	/experiments/Knapen_AOT/AOT_stimuli/rescaled_final/0079_fw.mp4	0.0	95.45118308067322	1.0085093975067139
5	61.61728286743164	movie	1		286	3.0	2.5	/experiments/Knapen_AOT/AOT_stimuli/rescaled_final/0079_fw.mp4	0.0	96.45969247817993	2.49204158782959
5	61.99095153808594	pulse	1	t		3.0	2.5	/experiments/Knapen_AOT/AOT_stimuli/rescaled_final/0079_fw.mp4	0.0	96.83336114883423	
5	63.59073257446289	pulse	1	t		3.0	2.5	/experiments/Knapen_AOT/AOT_stimuli/rescaled_final/0079_fw.mp4	0.0	98.43314218521118	
5	64.10932445526123	fix_post	2		12	3.0	2.5	/experiments/Knapen_AOT/AOT_stimuli/rescaled_final/0079_fw.mp4	0.0	98.95173406600952	0.09999418258666992
6	64.2093186378479	fix_pre	0		119	4.0	2.5	/experiments/Knapen_AOT/AOT_stimuli/rescaled_final/1082_rv.mp4	0.0	99.05172824859619	1.000105857849121
6	65.19303035736084	pulse	0	t		4.0	2.5	/experiments/Knapen_AOT/AOT_stimuli/rescaled_final/1082_rv.mp4	0.0	100.03543996810913	
6	65.20942449569702	movie	1		286	4.0	2.5	/experiments/Knapen_AOT/AOT_stimuli/rescaled_final/1082_rv.mp4	0.0	100.05183410644531	2.5004544258117676
6	66.79178547859192	pulse	1	t		4.0	2.5	/experiments/Knapen_AOT/AOT_stimuli/rescaled_final/1082_rv.mp4	0.0	101.63419508934021	
6	67.70987892150879	fix_post	2		12	4.0	2.5	/experiments/Knapen_AOT/AOT_stimuli/rescaled_final/1082_rv.mp4	0.0	102.55228853225708	0.09996700286865234
7	67.80984592437744	fix_pre	0		120	5.0	2.5	/experiments/Knapen_AOT/AOT_stimuli/rescaled_final/1718_rv.mp4	0.0	102.65225553512573	1.0085210800170898
7	68.39355564117432	pulse	0	t		5.0	2.5	/experiments/Knapen_AOT/AOT_stimuli/rescaled_final/1718_rv.mp4	0.0	103.23596525192261	
7	68.81836700439453	movie	1		285	5.0	2.5	/experiments/Knapen_AOT/AOT_stimuli/rescaled_final/1718_rv.mp4	0.0	103.66077661514282	2.492128610610962
7	69.99324297904968	pulse	1	t		5.0	2.5	/experiments/Knapen_AOT/AOT_stimuli/rescaled_final/1718_rv.mp4	0.0	104.83565258979797	
7	71.3104956150055	fix_post	2		12	5.0	2.5	/experiments/Knapen_AOT/AOT_stimuli/rescaled_final/1718_rv.mp4	0.0	106.15290522575378	0.09989333152770996
8	71.4103889465332	fix_pre	0		120	6.0	2.5	/experiments/Knapen_AOT/AOT_stimuli/rescaled_final/1183_rv.mp4	0.0	106.2527985572815	1.008516788482666
8	71.59395813941956	pulse	0	t		6.0	2.5	/experiments/Knapen_AOT/AOT_stimuli/rescaled_final/1183_rv.mp4	0.0	106.43636775016785	
8	72.41890573501587	movie	1		286	6.0	2.5	/experiments/Knapen_AOT/AOT_stimuli/rescaled_final/1183_rv.mp4	0.0	107.26131534576416	2.4920122623443604
8	73.19203114509583	pulse	1	t		6.0	2.5	/experiments/Knapen_AOT/AOT_stimuli/rescaled_final/1183_rv.mp4	0.0	108.03444075584412	
8	74.79232335090637	pulse	1	t		6.0	2.5	/experiments/Knapen_AOT/AOT_stimuli/rescaled_final/1183_rv.mp4	0.0	109.63473296165466	
8	74.91091799736023	fix_post	2		12	6.0	2.5	/experiments/Knapen_AOT/AOT_stimuli/rescaled_final/1183_rv.mp4	0.0	109.75332760810852	0.10004138946533203
9	75.01095938682556	fix_pre	0		120	7.0	2.5	blank	1.0	109.85336899757385	1.0001323223114014
9	76.01109170913696	movie	1		300	7.0	2.5	blank	1.0	110.85350131988525	2.500389814376831
9	76.39476180076599	pulse	1	t		7.0	2.5	blank	1.0	111.23717141151428	
9	77.99492359161377	pulse	1	t		7.0	2.5	blank	1.0	112.83733320236206	
9	78.5114815235138	fix_post	2		12	7.0	2.5	blank	1.0	113.35389113426208	0.10006332397460938
10	78.6115448474884	fix_pre	0		119	8.0	2.5	/experiments/Knapen_AOT/AOT_stimuli/rescaled_final/1229_rv.mp4	0.0	113.4539544582367	1.0000889301300049
10	79.59517097473145	pulse	0	t		8.0	2.5	/experiments/Knapen_AOT/AOT_stimuli/rescaled_final/1229_rv.mp4	0.0	114.43758058547974	
10	79.61163377761841	movie	1		279	8.0	2.5	/experiments/Knapen_AOT/AOT_stimuli/rescaled_final/1229_rv.mp4	0.0	114.4540433883667	2.5003795623779297
10	81.19401812553406	pulse	1	t		8.0	2.5	/experiments/Knapen_AOT/AOT_stimuli/rescaled_final/1229_rv.mp4	0.0	116.03642773628235	
10	82.11201333999634	fix_post	2		12	8.0	2.5	/experiments/Knapen_AOT/AOT_stimuli/rescaled_final/1229_rv.mp4	0.0	116.95442295074463	0.10005021095275879
11	82.2120635509491	fix_pre	0		120	9.0	2.5	/experiments/Knapen_AOT/AOT_stimuli/rescaled_final/0800_rv.mp4	0.0	117.05447316169739	1.0085265636444092
11	82.79572534561157	pulse	0	t		9.0	2.5	/experiments/Knapen_AOT/AOT_stimuli/rescaled_final/0800_rv.mp4	0.0	117.63813495635986	
11	83.2205901145935	movie	1		287	9.0	2.5	/experiments/Knapen_AOT/AOT_stimuli/rescaled_final/0800_rv.mp4	0.0	118.0629997253418	2.4919776916503906
11	84.39400887489319	pulse	1	t		9.0	2.5	/experiments/Knapen_AOT/AOT_stimuli/rescaled_final/0800_rv.mp4	0.0	119.23641848564148	
11	85.7125678062439	fix_post	2		12	9.0	2.5	/experiments/Knapen_AOT/AOT_stimuli/rescaled_final/0800_rv.mp4	0.0	120.55497741699219	0.10001921653747559
12	85.81258702278137	fix_pre	0		120	10.0	2.5	/experiments/Knapen_AOT/AOT_stimuli/rescaled_final/0737_fw.mp4	0.0	120.65499663352966	1.0084819793701172
12	85.99613356590271	pulse	0	t		10.0	2.5	/experiments/Knapen_AOT/AOT_stimuli/rescaled_final/0737_fw.mp4	0.0	120.838543176651	
12	86.82106900215149	movie	1		285	10.0	2.5	/experiments/Knapen_AOT/AOT_stimuli/rescaled_final/0737_fw.mp4	0.0	121.66347861289978	2.4920709133148193
12	87.59425091743469	pulse	1	t		10.0	2.5	/experiments/Knapen_AOT/AOT_stimuli/rescaled_final/0737_fw.mp4	0.0	122.43666052818298	
12	89.19635581970215	pulse	1	t		10.0	2.5	/experiments/Knapen_AOT/AOT_stimuli/rescaled_final/0737_fw.mp4	0.0	124.03876543045044	
12	89.31313991546631	fix_post	2		12	10.0	2.5	/experiments/Knapen_AOT/AOT_stimuli/rescaled_final/0737_fw.mp4	0.0	124.1555495262146	0.09998393058776855
13	89.41312384605408	fix_pre	0		120	11.0	2.5	/experiments/Knapen_AOT/AOT_stimuli/rescaled_final/2000_fw.mp4	0.0	124.25553345680237	1.0084993839263916
13	90.42162322998047	movie	1		290	11.0	2.5	/experiments/Knapen_AOT/AOT_stimuli/rescaled_final/2000_fw.mp4	0.0	125.26403284072876	2.4920403957366943
13	90.79496717453003	pulse	1	t		11.0	2.5	/experiments/Knapen_AOT/AOT_stimuli/rescaled_final/2000_fw.mp4	0.0	125.63737678527832	
13	92.39499187469482	pulse	1	t		11.0	2.5	/experiments/Knapen_AOT/AOT_stimuli/rescaled_final/2000_fw.mp4	0.0	127.23740148544312	
13	92.91366362571716	fix_post	2		12	11.0	2.5	/experiments/Knapen_AOT/AOT_stimuli/rescaled_final/2000_fw.mp4	0.0	127.75607323646545	0.09999847412109375
14	93.01366209983826	fix_pre	0		119	12.0	2.5	/experiments/Knapen_AOT/AOT_stimuli/rescaled_final/1353_fw.mp4	0.0	127.85607171058655	1.0001294612884521
14	93.99734449386597	pulse	0	t		12.0	2.5	/experiments/Knapen_AOT/AOT_stimuli/rescaled_final/1353_fw.mp4	0.0	128.83975410461426	
14	94.01379156112671	movie	1		290	12.0	2.5	/experiments/Knapen_AOT/AOT_stimuli/rescaled_final/1353_fw.mp4	0.0	128.856201171875	2.500408172607422
14	95.59613490104675	pulse	1	t		12.0	2.5	/experiments/Knapen_AOT/AOT_stimuli/rescaled_final/1353_fw.mp4	0.0	130.43854451179504	
14	96.51419973373413	fix_post	2		12	12.0	2.5	/experiments/Knapen_AOT/AOT_stimuli/rescaled_final/1353_fw.mp4	0.0	131.35660934448242	0.10001468658447266
15	96.6142144203186	fix_pre	0		120	13.0	2.5	blank	1.0	131.4566240310669	1.0001320838928223
15	97.18988251686096	pulse	0	t		13.0	2.5	blank	1.0	132.03229212760925	
15	97.61434650421143	movie	1		300	13.0	2.5	blank	1.0	132.45675611495972	2.5003929138183594
15	98.79003834724426	pulse	1	t		13.0	2.5	blank	1.0	133.63244795799255	
15	100.11473941802979	fix_post	2		12	13.0	2.5	blank	1.0	134.95714902877808	0.1000363826751709
16	100.21477580070496	fix_pre	0		120	14.0	2.5	/experiments/Knapen_AOT/AOT_stimuli/rescaled_final/0375_rv.mp4	0.0	135.05718541145325	1.008491039276123
16	100.39026713371277	pulse	0	t		14.0	2.5	/experiments/Knapen_AOT/AOT_stimuli/rescaled_final/0375_rv.mp4	0.0	135.23267674446106	
16	101.22326683998108	movie	1		288	14.0	2.5	/experiments/Knapen_AOT/AOT_stimuli/rescaled_final/0375_rv.mp4	0.0	136.06567645072937	2.4920153617858887
16	101.9901955127716	pulse	1	t		14.0	2.5	/experiments/Knapen_AOT/AOT_stimuli/rescaled_final/0375_rv.mp4	0.0	136.8326051235199	
16	103.59086394309998	pulse	1	t		14.0	2.5	/experiments/Knapen_AOT/AOT_stimuli/rescaled_final/0375_rv.mp4	0.0	138.43327355384827	
16	103.71528220176697	fix_post	2		12	14.0	2.5	/experiments/Knapen_AOT/AOT_stimuli/rescaled_final/0375_rv.mp4	0.0	138.55769181251526	0.10001468658447266
17	103.81529688835144	fix_pre	0		120	15.0	2.5	/experiments/Knapen_AOT/AOT_stimuli/rescaled_final/1313_rv.mp4	0.0	138.65770649909973	1.008542537689209
17	104.82383942604065	movie	1		286	15.0	2.5	/experiments/Knapen_AOT/AOT_stimuli/rescaled_final/1313_rv.mp4	0.0	139.66624903678894	2.4921607971191406
17	105.19032216072083	pulse	1	t		15.0	2.5	/experiments/Knapen_AOT/AOT_stimuli/rescaled_final/1313_rv.mp4	0.0	140.03273177146912	
17	106.79094815254211	pulse	1	t		15.0	2.5	/experiments/Knapen_AOT/AOT_stimuli/rescaled_final/1313_rv.mp4	0.0	141.6333577632904	
17	107.31600022315979	fix_post	2		12	15.0	2.5	/experiments/Knapen_AOT/AOT_stimuli/rescaled_final/1313_rv.mp4	0.0	142.15840983390808	0.09986400604248047
18	107.41586422920227	fix_pre	0		118	16.0	2.5	/experiments/Knapen_AOT/AOT_stimuli/rescaled_final/1109_rv.mp4	0.0	142.25827383995056	0.9917981624603271
18	108.39136981964111	pulse	0	t		16.0	2.5	/experiments/Knapen_AOT/AOT_stimuli/rescaled_final/1109_rv.mp4	0.0	143.2337794303894	
18	108.4076623916626	movie	1		280	16.0	2.5	/experiments/Knapen_AOT/AOT_stimuli/rescaled_final/1109_rv.mp4	0.0	143.2500720024109	2.5003957748413086
18	109.99017882347107	pulse	1	t		16.0	2.5	/experiments/Knapen_AOT/AOT_stimuli/rescaled_final/1109_rv.mp4	0.0	144.83258843421936	
18	110.9080581665039	fix_post	2		12	16.0	2.5	/experiments/Knapen_AOT/AOT_stimuli/rescaled_final/1109_rv.mp4	0.0	145.7504677772522	0.10003209114074707
19	111.00809025764465	fix_pre	0		120	17.0	2.5	/experiments/Knapen_AOT/AOT_stimuli/rescaled_final/0348_fw.mp4	0.0	145.85049986839294	1.00846529006958
19	111.59177422523499	pulse	0	t		17.0	2.5	/experiments/Knapen_AOT/AOT_stimuli/rescaled_final/0348_fw.mp4	0.0	146.43418383598328	
19	112.01655554771423	movie	1		283	17.0	2.5	/experiments/Knapen_AOT/AOT_stimuli/rescaled_final/0348_fw.mp4	0.0	146.85896515846252	2.4920382499694824
19	113.19043636322021	pulse	1	t		17.0	2.5	/experiments/Knapen_AOT/AOT_stimuli/rescaled_final/0348_fw.mp4	0.0	148.0328459739685	
19	114.50859379768372	fix_post	2		12	17.0	2.5	/experiments/Knapen_AOT/AOT_stimuli/rescaled_final/0348_fw.mp4	0.0	149.351003408432	0.09999370574951172
20	114.60858750343323	fix_pre	0		120	18.0	2.5	/experiments/Knapen_AOT/AOT_stimuli/rescaled_final/1348_rv.mp4	0.0	149.45099711418152	1.0085391998291016
20	114.79214572906494	pulse	0	t		18.0	2.5	/experiments/Knapen_AOT/AOT_stimuli/rescaled_final/1348_rv.mp4	0.0	149.63455533981323	
20	115.61712670326233	movie	1		274	18.0	2.5	/experiments/Knapen_AOT/AOT_stimuli/rescaled_final/1348_rv.mp4	0.0	150.45953631401062	2.492034673690796
20	116.39049696922302	pulse	1	t		18.0	2.5	/experiments/Knapen_AOT/AOT_stimuli/rescaled_final/1348_rv.mp4	0.0	151.2329065799713	
20	117.99273943901062	pulse	1	t		18.0	2.5	/experiments/Knapen_AOT/AOT_stimuli/rescaled_final/1348_rv.mp4	0.0	152.8351490497589	
20	118.10916137695312	fix_post	2		12	18.0	2.5	/experiments/Knapen_AOT/AOT_stimuli/rescaled_final/1348_rv.mp4	0.0	152.95157098770142	0.09998178482055664
21	118.20914316177368	fix_pre	0		120	19.0	2.5	/experiments/Knapen_AOT/AOT_stimuli/rescaled_final/1969_fw.mp4	0.0	153.05155277252197	1.0085046291351318
21	119.21764779090881	movie	1		292	19.0	2.5	/experiments/Knapen_AOT/AOT_stimuli/rescaled_final/1969_fw.mp4	0.0	154.0600574016571	2.492018222808838
21	119.59149217605591	pulse	1	t		19.0	2.5	/experiments/Knapen_AOT/AOT_stimuli/rescaled_final/1969_fw.mp4	0.0	154.4339017868042	
21	121.1910936832428	pulse	1	t		19.0	2.5	/experiments/Knapen_AOT/AOT_stimuli/rescaled_final/1969_fw.mp4	0.0	156.0335032939911	
21	121.70966601371765	fix_post	2		12	19.0	2.5	/experiments/Knapen_AOT/AOT_stimuli/rescaled_final/1969_fw.mp4	0.0	156.55207562446594	0.10001921653747559
22	121.80968523025513	fix_pre	0		119	20.0	2.5	/experiments/Knapen_AOT/AOT_stimuli/rescaled_final/2021_fw.mp4	0.0	156.65209484100342	1.0001657009124756
22	122.79340887069702	pulse	0	t		20.0	2.5	/experiments/Knapen_AOT/AOT_stimuli/rescaled_final/2021_fw.mp4	0.0	157.6358184814453	
22	122.8098509311676	movie	1		288	20.0	2.5	/experiments/Knapen_AOT/AOT_stimuli/rescaled_final/2021_fw.mp4	0.0	157.6522605419159	2.5003879070281982
22	124.39216303825378	pulse	1	t		20.0	2.5	/experiments/Knapen_AOT/AOT_stimuli/rescaled_final/2021_fw.mp4	0.0	159.23457264900208	
22	125.3102388381958	fix_post	2		12	20.0	2.5	/experiments/Knapen_AOT/AOT_stimuli/rescaled_final/2021_fw.mp4	0.0	160.1526484489441	0.10003805160522461
23	125.41027688980103	fix_pre	0		120	21.0	2.5	blank	1.0	160.25268650054932	1.0000991821289062
23	125.99395537376404	pulse	0	t		21.0	2.5	blank	1.0	160.83636498451233	
23	126.41037607192993	movie	1		300	21.0	2.5	blank	1.0	161.25278568267822	2.500361442565918
23	127.59410762786865	pulse	1	t		21.0	2.5	blank	1.0	162.43651723861694	
23	128.91073751449585	fix_post	2		12	21.0	2.5	blank	1.0	163.75314712524414	0.1000368595123291
24	129.01077437400818	fix_pre	0		120	22.0	2.5	/experiments/Knapen_AOT/AOT_stimuli/rescaled_final/0207_fw.mp4	0.0	163.85318398475647	1.0085382461547852
24	129.1943428516388	pulse	0	t		22.0	2.5	/experiments/Knapen_AOT/AOT_stimuli/rescaled_final/0207_fw.mp4	0.0	164.03675246238708	
24	130.01931262016296	movie	1		289	22.0	2.5	/experiments/Knapen_AOT/AOT_stimuli/rescaled_final/0207_fw.mp4	0.0	164.86172223091125	2.4919941425323486
24	130.79237461090088	pulse	1	t		22.0	2.5	/experiments/Knapen_AOT/AOT_stimuli/rescaled_final/0207_fw.mp4	0.0	165.63478422164917	
24	132.39293766021729	pulse	1	t		22.0	2.5	/experiments/Knapen_AOT/AOT_stimuli/rescaled_final/0207_fw.mp4	0.0	167.23534727096558	
24	132.5113067626953	fix_post	2		12	22.0	2.5	/experiments/Knapen_AOT/AOT_stimuli/rescaled_final/0207_fw.mp4	0.0	167.3537163734436	0.10001039505004883
25	132.61131715774536	fix_pre	0		120	23.0	2.5	/experiments/Knapen_AOT/AOT_stimuli/rescaled_final/1866_fw.mp4	0.0	167.45372676849365	1.0085103511810303
25	133.6198275089264	movie	1		283	23.0	2.5	/experiments/Knapen_AOT/AOT_stimuli/rescaled_final/1866_fw.mp4	0.0	168.46223711967468	2.4920268058776855
25	133.99409413337708	pulse	1	t		23.0	2.5	/experiments/Knapen_AOT/AOT_stimuli/rescaled_final/1866_fw.mp4	0.0	168.83650374412537	
25	135.59336066246033	pulse	1	t		23.0	2.5	/experiments/Knapen_AOT/AOT_stimuli/rescaled_final/1866_fw.mp4	0.0	170.43577027320862	
25	136.11185431480408	fix_post	2		12	23.0	2.5	/experiments/Knapen_AOT/AOT_stimuli/rescaled_final/1866_fw.mp4	0.0	170.95426392555237	0.1000359058380127
26	136.2118902206421	fix_pre	0		119	24.0	2.5	/experiments/Knapen_AOT/AOT_stimuli/rescaled_final/0236_rv.mp4	0.0	171.05429983139038	1.0001099109649658
26	137.19558954238892	pulse	0	t		24.0	2.5	/experiments/Knapen_AOT/AOT_stimuli/rescaled_final/0236_rv.mp4	0.0	172.0379991531372	
26	137.21200013160706	movie	1		289	24.0	2.5	/experiments/Knapen_AOT/AOT_stimuli/rescaled_final/0236_rv.mp4	0.0	172.05440974235535	2.5004005432128906
26	138.7944531440735	pulse	1	t		24.0	2.5	/experiments/Knapen_AOT/AOT_stimuli/rescaled_final/0236_rv.mp4	0.0	173.63686275482178	
26	139.71240067481995	fix_post	2		12	24.0	2.5	/experiments/Knapen_AOT/AOT_stimuli/rescaled_final/0236_rv.mp4	0.0	174.55481028556824	0.1000220775604248
27	139.81242275238037	fix_pre	0		120	25.0	2.5	/experiments/Knapen_AOT/AOT_stimuli/rescaled_final/0800_rv.mp4	0.0	174.65483236312866	1.008491039276123
27	140.39603090286255	pulse	0	t		25.0	2.5	/experiments/Knapen_AOT/AOT_stimuli/rescaled_final/0800_rv.mp4	0.0	175.23844051361084	
27	140.8209137916565	movie	1		286	25.0	2.5	/experiments/Knapen_AOT/AOT_stimuli/rescaled_final/0800_rv.mp4	0.0	175.66332340240479	2.492021322250366
27	141.9963903427124	pulse	1	t		25.0	2.5	/experiments/Knapen_AOT/AOT_stimuli/rescaled_final/0800_rv.mp4	0.0	176.8387999534607	
27	143.31293511390686	fix_post	2		12	25.0	2.5	/experiments/Knapen_AOT/AOT_stimuli/rescaled_final/0800_rv.mp4	0.0	178.15534472465515	0.10003900527954102
28	143.4129741191864	fix_pre	0		120	26.0	2.5	/experiments/Knapen_AOT/AOT_stimuli/rescaled_final/0808_fw.mp4	0.0	178.2553837299347	1.0084927082061768
28	143.59659624099731	pulse	0	t		26.0	2.5	/experiments/Knapen_AOT/AOT_stimuli/rescaled_final/0808_fw.mp4	0.0	178.4390058517456	
28	144.42146682739258	movie	1		289	26.0	2.5	/experiments/Knapen_AOT/AOT_stimuli/rescaled_final/0808_fw.mp4	0.0	179.26387643814087	2.4920382499694824
28	145.19549703598022	pulse	1	t		26.0	2.5	/experiments/Knapen_AOT/AOT_stimuli/rescaled_final/0808_fw.mp4	0.0	180.03790664672852	
28	146.7951476573944	pulse	1	t		26.0	2.5	/experiments/Knapen_AOT/AOT_stimuli/rescaled_final/0808_fw.mp4	0.0	181.6375572681427	
28	146.91350507736206	fix_post	2		12	26.0	2.5	/experiments/Knapen_AOT/AOT_stimuli/rescaled_final/0808_fw.mp4	0.0	181.75591468811035	0.10000085830688477
29	147.01350593566895	fix_pre	0		120	27.0	2.5	blank	1.0	181.85591554641724	1.000121831893921
29	148.01362776756287	movie	1		300	27.0	2.5	blank	1.0	182.85603737831116	2.5003814697265625
29	148.39024710655212	pulse	1	t		27.0	2.5	blank	1.0	183.23265671730042	
29	149.9894368648529	pulse	1	t		27.0	2.5	blank	1.0	184.8318464756012	
29	150.51400923728943	fix_post	2		12	27.0	2.5	blank	1.0	185.35641884803772	0.1000204086303711
30	150.6140296459198	fix_pre	0		118	28.0	2.5	/experiments/Knapen_AOT/AOT_stimuli/rescaled_final/0731_fw.mp4	0.0	185.4564392566681	0.9918394088745117
30	151.58934092521667	pulse	0	t		28.0	2.5	/experiments/Knapen_AOT/AOT_stimuli/rescaled_final/0731_fw.mp4	0.0	186.43175053596497	
30	151.6058690547943	movie	1		283	28.0	2.5	/experiments/Knapen_AOT/AOT_stimuli/rescaled_final/0731_fw.mp4	0.0	186.4482786655426	2.500347375869751
30	153.18962168693542	pulse	1	t		28.0	2.5	/experiments/Knapen_AOT/AOT_stimuli/rescaled_final/0731_fw.mp4	0.0	188.03203129768372	
30	154.10621643066406	fix_post	2		12	28.0	2.5	/experiments/Knapen_AOT/AOT_stimuli/rescaled_final/0731_fw.mp4	0.0	188.94862604141235	0.1000220775604248
31	154.2062385082245	fix_pre	0		120	29.0	2.5	/experiments/Knapen_AOT/AOT_stimuli/rescaled_final/1456_fw.mp4	0.0	189.04864811897278	1.0084846019744873
31	154.78986024856567	pulse	0	t		29.0	2.5	/experiments/Knapen_AOT/AOT_stimuli/rescaled_final/1456_fw.mp4	0.0	189.63226985931396	
31	155.21472311019897	movie	1		283	29.0	2.5	/experiments/Knapen_AOT/AOT_stimuli/rescaled_final/1456_fw.mp4	0.0	190.05713272094727	2.4920458793640137
31	156.39007830619812	pulse	1	t		29.0	2.5	/experiments/Knapen_AOT/AOT_stimuli/rescaled_final/1456_fw.mp4	0.0	191.2324879169464	
31	157.706768989563	fix_post	2		12	29.0	2.5	/experiments/Knapen_AOT/AOT_stimuli/rescaled_final/1456_fw.mp4	0.0	192.54917860031128	0.10002899169921875
32	157.8067979812622	fix_pre	0		120	30.0	2.5	/experiments/Knapen_AOT/AOT_stimuli/rescaled_final/1650_rv.mp4	0.0	192.6492075920105	1.0085151195526123
32	157.9904932975769	pulse	0	t		30.0	2.5	/experiments/Knapen_AOT/AOT_stimuli/rescaled_final/1650_rv.mp4	0.0	192.8329029083252	
32	158.81531310081482	movie	1		284	30.0	2.5	/experiments/Knapen_AOT/AOT_stimuli/rescaled_final/1650_rv.mp4	0.0	193.6577227115631	2.4920191764831543
32	159.59066820144653	pulse	1	t		30.0	2.5	/experiments/Knapen_AOT/AOT_stimuli/rescaled_final/1650_rv.mp4	0.0	194.43307781219482	
32	161.1908049583435	pulse	1	t		30.0	2.5	/experiments/Knapen_AOT/AOT_stimuli/rescaled_final/1650_rv.mp4	0.0	196.0332145690918	
32	161.30733227729797	fix_post	2		12	30.0	2.5	/experiments/Knapen_AOT/AOT_stimuli/rescaled_final/1650_rv.mp4	0.0	196.14974188804626	0.09999346733093262
33	161.4073257446289	fix_pre	0		120	31.0	2.5	/experiments/Knapen_AOT/AOT_stimuli/rescaled_final/0998_fw.mp4	0.0	196.2497353553772	1.0085458755493164
33	162.41587162017822	movie	1		286	31.0	2.5	/experiments/Knapen_AOT/AOT_stimuli/rescaled_final/0998_fw.mp4	0.0	197.2582812309265	2.4920246601104736
33	162.78956270217896	pulse	1	t		31.0	2.5	/experiments/Knapen_AOT/AOT_stimuli/rescaled_final/0998_fw.mp4	0.0	197.63197231292725	
33	164.38963794708252	pulse	1	t		31.0	2.5	/experiments/Knapen_AOT/AOT_stimuli/rescaled_final/0998_fw.mp4	0.0	199.2320475578308	
33	164.9078962802887	fix_post	2		12	31.0	2.5	/experiments/Knapen_AOT/AOT_stimuli/rescaled_final/0998_fw.mp4	0.0	199.750305891037	0.09999370574951172
34	165.0078899860382	fix_pre	0		119	32.0	2.5	/experiments/Knapen_AOT/AOT_stimuli/rescaled_final/1268_rv.mp4	0.0	199.8502995967865	1.0001182556152344
34	165.99158358573914	pulse	0	t		32.0	2.5	/experiments/Knapen_AOT/AOT_stimuli/rescaled_final/1268_rv.mp4	0.0	200.83399319648743	
34	166.00800824165344	movie	1		279	32.0	2.5	/experiments/Knapen_AOT/AOT_stimuli/rescaled_final/1268_rv.mp4	0.0	200.85041785240173	2.500385284423828
34	167.59026432037354	pulse	1	t		32.0	2.5	/experiments/Knapen_AOT/AOT_stimuli/rescaled_final/1268_rv.mp4	0.0	202.43267393112183	
34	168.50839352607727	fix_post	2		12	32.0	2.5	/experiments/Knapen_AOT/AOT_stimuli/rescaled_final/1268_rv.mp4	0.0	203.35080313682556	0.1000666618347168
35	168.608460187912	fix_pre	0		120	33.0	2.5	blank	1.0	203.45086979866028	1.0001130104064941
35	169.19205713272095	pulse	0	t		33.0	2.5	blank	1.0	204.03446674346924	
35	169.60857319831848	movie	1		300	33.0	2.5	blank	1.0	204.45098280906677	2.500375509262085
35	170.7923448085785	pulse	1	t		33.0	2.5	blank	1.0	205.63475441932678	
35	172.10894870758057	fix_post	2		12	33.0	2.5	blank	1.0	206.95135831832886	0.10001873970031738
36	172.20896744728088	fix_pre	0		120	34.0	2.5	/experiments/Knapen_AOT/AOT_stimuli/rescaled_final/0539_fw.mp4	0.0	207.05137705802917	1.0085113048553467
36	172.39276671409607	pulse	0	t		34.0	2.5	/experiments/Knapen_AOT/AOT_stimuli/rescaled_final/0539_fw.mp4	0.0	207.23517632484436	
36	173.21747875213623	movie	1		278	34.0	2.5	/experiments/Knapen_AOT/AOT_stimuli/rescaled_final/0539_fw.mp4	0.0	208.05988836288452	2.4920074939727783
36	173.9916124343872	pulse	1	t		34.0	2.5	/experiments/Knapen_AOT/AOT_stimuli/rescaled_final/0539_fw.mp4	0.0	208.8340220451355	
36	175.5909492969513	pulse	1	t		34.0	2.5	/experiments/Knapen_AOT/AOT_stimuli/rescaled_final/0539_fw.mp4	0.0	210.43335890769958	
36	175.709486246109	fix_post	2		12	34.0	2.5	/experiments/Knapen_AOT/AOT_stimuli/rescaled_final/0539_fw.mp4	0.0	210.5518958568573	0.10000729560852051
37	175.80949354171753	fix_pre	0		120	35.0	2.5	/experiments/Knapen_AOT/AOT_stimuli/rescaled_final/1720_fw.mp4	0.0	210.65190315246582	1.0085420608520508
37	176.81803560256958	movie	1		277	35.0	2.5	/experiments/Knapen_AOT/AOT_stimuli/rescaled_final/1720_fw.mp4	0.0	211.66044521331787	2.4921224117279053
37	177.19309377670288	pulse	1	t		35.0	2.5	/experiments/Knapen_AOT/AOT_stimuli/rescaled_final/1720_fw.mp4	0.0	212.03550338745117	
37	178.79155230522156	pulse	1	t		35.0	2.5	/experiments/Knapen_AOT/AOT_stimuli/rescaled_final/1720_fw.mp4	0.0	213.63396191596985	
37	179.31015801429749	fix_post	2		12	35.0	2.5	/experiments/Knapen_AOT/AOT_stimuli/rescaled_final/1720_fw.mp4	0.0	214.15256762504578	0.09990215301513672
38	179.41006016731262	fix_pre	0		119	36.0	2.5	/experiments/Knapen_AOT/AOT_stimuli/rescaled_final/1834_rv.mp4	0.0	214.2524697780609	1.0001654624938965
38	180.39412188529968	pulse	0	t		36.0	2.5	/experiments/Knapen_AOT/AOT_stimuli/rescaled_final/1834_rv.mp4	0.0	215.23653149604797	
38	180.41022562980652	movie	1		283	36.0	2.5	/experiments/Knapen_AOT/AOT_stimuli/rescaled_final/1834_rv.mp4	0.0	215.2526352405548	2.5003466606140137
38	181.99241662025452	pulse	1	t		36.0	2.5	/experiments/Knapen_AOT/AOT_stimuli/rescaled_final/1834_rv.mp4	0.0	216.8348262310028	
38	182.91057229042053	fix_post	2		12	36.0	2.5	/experiments/Knapen_AOT/AOT_stimuli/rescaled_final/1834_rv.mp4	0.0	217.75298190116882	0.10002803802490234
39	183.01060032844543	fix_pre	0		120	37.0	2.5	/experiments/Knapen_AOT/AOT_stimuli/rescaled_final/1392_fw.mp4	0.0	217.85300993919373	1.0084941387176514
39	183.59421062469482	pulse	0	t		37.0	2.5	/experiments/Knapen_AOT/AOT_stimuli/rescaled_final/1392_fw.mp4	0.0	218.43662023544312	
39	184.0190944671631	movie	1		275	37.0	2.5	/experiments/Knapen_AOT/AOT_stimuli/rescaled_final/1392_fw.mp4	0.0	218.86150407791138	2.4921417236328125
39	185.19277167320251	pulse	1	t		37.0	2.5	/experiments/Knapen_AOT/AOT_stimuli/rescaled_final/1392_fw.mp4	0.0	220.0351812839508	
39	186.5112361907959	fix_post	2		12	37.0	2.5	/experiments/Knapen_AOT/AOT_stimuli/rescaled_final/1392_fw.mp4	0.0	221.3536458015442	0.09990787506103516
40	186.61114406585693	fix_pre	0		120	38.0	2.5	/experiments/Knapen_AOT/AOT_stimuli/rescaled_final/0704_rv.mp4	0.0	221.45355367660522	1.0085110664367676
40	186.79470419883728	pulse	0	t		38.0	2.5	/experiments/Knapen_AOT/AOT_stimuli/rescaled_final/0704_rv.mp4	0.0	221.63711380958557	
40	187.6196551322937	movie	1		278	38.0	2.5	/experiments/Knapen_AOT/AOT_stimuli/rescaled_final/0704_rv.mp4	0.0	222.462064743042	2.492013931274414
40	188.39425444602966	pulse	1	t		38.0	2.5	/experiments/Knapen_AOT/AOT_stimuli/rescaled_final/0704_rv.mp4	0.0	223.23666405677795	
40	189.99324250221252	pulse	1	t		38.0	2.5	/experiments/Knapen_AOT/AOT_stimuli/rescaled_final/0704_rv.mp4	0.0	224.83565211296082	
40	190.11166906356812	fix_post	2		12	38.0	2.5	/experiments/Knapen_AOT/AOT_stimuli/rescaled_final/0704_rv.mp4	0.0	224.9540786743164	0.10002732276916504
41	190.21169638633728	fix_pre	0		120	39.0	2.5	/experiments/Knapen_AOT/AOT_stimuli/rescaled_final/0667_rv.mp4	0.0	225.05410599708557	1.0084633827209473
41	191.22015976905823	movie	1		284	39.0	2.5	/experiments/Knapen_AOT/AOT_stimuli/rescaled_final/0667_rv.mp4	0.0	226.06256937980652	2.4920506477355957
41	191.5938355922699	pulse	1	t		39.0	2.5	/experiments/Knapen_AOT/AOT_stimuli/rescaled_final/0667_rv.mp4	0.0	226.4362452030182	
41	193.1940679550171	pulse	1	t		39.0	2.5	/experiments/Knapen_AOT/AOT_stimuli/rescaled_final/0667_rv.mp4	0.0	228.03647756576538	
41	193.71221041679382	fix_post	2		12	39.0	2.5	/experiments/Knapen_AOT/AOT_stimuli/rescaled_final/0667_rv.mp4	0.0	228.55462002754211	0.10002613067626953
42	193.8122365474701	fix_pre	0		119	40.0	2.5	/experiments/Knapen_AOT/AOT_stimuli/rescaled_final/1398_rv.mp4	0.0	228.65464615821838	1.000159740447998
42	194.79599714279175	pulse	0	t		40.0	2.5	/experiments/Knapen_AOT/AOT_stimuli/rescaled_final/1398_rv.mp4	0.0	229.63840675354004	
42	194.8123962879181	movie	1		286	40.0	2.5	/experiments/Knapen_AOT/AOT_stimuli/rescaled_final/1398_rv.mp4	0.0	229.65480589866638	2.5003769397735596
42	196.39479660987854	pulse	1	t		40.0	2.5	/experiments/Knapen_AOT/AOT_stimuli/rescaled_final/1398_rv.mp4	0.0	231.23720622062683	
42	197.31277322769165	fix_post	2		12	40.0	2.5	/experiments/Knapen_AOT/AOT_stimuli/rescaled_final/1398_rv.mp4	0.0	232.15518283843994	0.10004305839538574
43	197.41281628608704	fix_pre	0		120	41.0	2.5	/experiments/Knapen_AOT/AOT_stimuli/rescaled_final/0651_fw.mp4	0.0	232.25522589683533	1.0084714889526367
43	197.99652099609375	pulse	0	t		41.0	2.5	/experiments/Knapen_AOT/AOT_stimuli/rescaled_final/0651_fw.mp4	0.0	232.83893060684204	
43	198.42128777503967	movie	1		286	41.0	2.5	/experiments/Knapen_AOT/AOT_stimuli/rescaled_final/0651_fw.mp4	0.0	233.26369738578796	2.492023468017578
43	199.59495043754578	pulse	1	t		41.0	2.5	/experiments/Knapen_AOT/AOT_stimuli/rescaled_final/0651_fw.mp4	0.0	234.43736004829407	
43	200.91331124305725	fix_post	2		12	41.0	2.5	/experiments/Knapen_AOT/AOT_stimuli/rescaled_final/0651_fw.mp4	0.0	235.75572085380554	0.10000157356262207
44	201.01331281661987	fix_pre	0		120	42.0	2.5	blank	1.0	235.85572242736816	1.000164270401001
44	201.19695901870728	pulse	0	t		42.0	2.5	blank	1.0	236.03936862945557	
44	202.01347708702087	movie	1		300	42.0	2.5	blank	1.0	236.85588669776917	2.500481128692627
44	202.7972128391266	pulse	1	t		42.0	2.5	blank	1.0	237.63962244987488	
44	204.39737105369568	pulse	1	t		42.0	2.5	blank	1.0	239.23978066444397	
44	204.5139582157135	fix_post	2		12	42.0	2.5	blank	1.0	239.3563678264618	0.09991145133972168
45	204.61386966705322	fix_pre	0		120	43.0	2.5	/experiments/Knapen_AOT/AOT_stimuli/rescaled_final/0568_rv.mp4	0.0	239.4562792778015	1.0085628032684326
45	205.62243247032166	movie	1		278	43.0	2.5	/experiments/Knapen_AOT/AOT_stimuli/rescaled_final/0568_rv.mp4	0.0	240.46484208106995	2.4919521808624268
45	205.99696254730225	pulse	1	t		43.0	2.5	/experiments/Knapen_AOT/AOT_stimuli/rescaled_final/0568_rv.mp4	0.0	240.83937215805054	
45	207.59008955955505	pulse	1	t		43.0	2.5	/experiments/Knapen_AOT/AOT_stimuli/rescaled_final/0568_rv.mp4	0.0	242.43249917030334	
45	208.11438465118408	fix_post	2		12	43.0	2.5	/experiments/Knapen_AOT/AOT_stimuli/rescaled_final/0568_rv.mp4	0.0	242.95679426193237	0.10003232955932617
46	208.2144169807434	fix_pre	0		118	44.0	2.5	/experiments/Knapen_AOT/AOT_stimuli/rescaled_final/1189_fw.mp4	0.0	243.0568265914917	0.9920268058776855
46	209.19035267829895	pulse	0	t		44.0	2.5	/experiments/Knapen_AOT/AOT_stimuli/rescaled_final/1189_fw.mp4	0.0	244.03276228904724	
46	209.2064437866211	movie	1		280	44.0	2.5	/experiments/Knapen_AOT/AOT_stimuli/rescaled_final/1189_fw.mp4	0.0	244.04885339736938	2.5001485347747803
46	210.79007530212402	pulse	1	t		44.0	2.5	/experiments/Knapen_AOT/AOT_stimuli/rescaled_final/1189_fw.mp4	0.0	245.63248491287231	
46	211.70659232139587	fix_post	2		12	44.0	2.5	/experiments/Knapen_AOT/AOT_stimuli/rescaled_final/1189_fw.mp4	0.0	246.54900193214417	0.1000680923461914
47	211.80666041374207	fix_pre	0		120	45.0	2.5	/experiments/Knapen_AOT/AOT_stimuli/rescaled_final/0730_rv.mp4	0.0	246.64907002449036	1.0084879398345947
47	212.3901972770691	pulse	0	t		45.0	2.5	/experiments/Knapen_AOT/AOT_stimuli/rescaled_final/0730_rv.mp4	0.0	247.23260688781738	
47	212.81514835357666	movie	1		277	45.0	2.5	/experiments/Knapen_AOT/AOT_stimuli/rescaled_final/0730_rv.mp4	0.0	247.65755796432495	2.4920060634613037
47	213.99084401130676	pulse	1	t		45.0	2.5	/experiments/Knapen_AOT/AOT_stimuli/rescaled_final/0730_rv.mp4	0.0	248.83325362205505	
47	215.30715441703796	fix_post	2		12	45.0	2.5	/experiments/Knapen_AOT/AOT_stimuli/rescaled_final/0730_rv.mp4	0.0	250.14956402778625	0.09999275207519531
48	215.40714716911316	fix_pre	0		120	46.0	2.5	/experiments/Knapen_AOT/AOT_stimuli/rescaled_final/2124_rv.mp4	0.0	250.24955677986145	1.0085012912750244
48	215.59068775177002	pulse	0	t		46.0	2.5	/experiments/Knapen_AOT/AOT_stimuli/rescaled_final/2124_rv.mp4	0.0	250.4330973625183	
48	216.41564846038818	movie	1		267	46.0	2.5	/experiments/Knapen_AOT/AOT_stimuli/rescaled_final/2124_rv.mp4	0.0	251.25805807113647	2.4920151233673096
48	217.19095015525818	pulse	1	t		46.0	2.5	/experiments/Knapen_AOT/AOT_stimuli/rescaled_final/2124_rv.mp4	0.0	252.03335976600647	
48	218.79120659828186	pulse	1	t		46.0	2.5	/experiments/Knapen_AOT/AOT_stimuli/rescaled_final/2124_rv.mp4	0.0	253.63361620903015	
48	218.9076635837555	fix_post	2		12	46.0	2.5	/experiments/Knapen_AOT/AOT_stimuli/rescaled_final/2124_rv.mp4	0.0	253.75007319450378	0.10000729560852051
49	219.007670879364	fix_pre	0		120	47.0	2.5	/experiments/Knapen_AOT/AOT_stimuli/rescaled_final/0730_fw.mp4	0.0	253.8500804901123	1.0086486339569092
49	220.01631951332092	movie	1		282	47.0	2.5	/experiments/Knapen_AOT/AOT_stimuli/rescaled_final/0730_fw.mp4	0.0	254.8587291240692	2.4918935298919678
49	220.39018416404724	pulse	1	t		47.0	2.5	/experiments/Knapen_AOT/AOT_stimuli/rescaled_final/0730_fw.mp4	0.0	255.23259377479553	
49	221.99021816253662	pulse	1	t		47.0	2.5	/experiments/Knapen_AOT/AOT_stimuli/rescaled_final/0730_fw.mp4	0.0	256.8326277732849	
49	222.5082130432129	fix_post	2		12	47.0	2.5	/experiments/Knapen_AOT/AOT_stimuli/rescaled_final/0730_fw.mp4	0.0	257.3506226539612	0.10002613067626953
50	222.60823917388916	fix_pre	0		119	48.0	2.5	blank	1.0	257.45064878463745	0.991793155670166
50	223.59196734428406	pulse	0	t		48.0	2.5	blank	1.0	258.43437695503235	
50	223.60003232955933	movie	1		301	48.0	2.5	blank	1.0	258.4424419403076	2.5087342262268066
50	225.19215893745422	pulse	1	t		48.0	2.5	blank	1.0	260.0345685482025	
50	226.10876655578613	fix_post	2		12	48.0	2.5	blank	1.0	260.9511761665344	0.10017585754394531
51	226.20894241333008	fix_pre	0		120	49.0	2.5	/experiments/Knapen_AOT/AOT_stimuli/rescaled_final/0720_rv.mp4	0.0	261.05135202407837	1.008321762084961
51	226.79246735572815	pulse	0	t		49.0	2.5	/experiments/Knapen_AOT/AOT_stimuli/rescaled_final/0720_rv.mp4	0.0	261.63487696647644	
51	227.21726417541504	movie	1		289	49.0	2.5	/experiments/Knapen_AOT/AOT_stimuli/rescaled_final/0720_rv.mp4	0.0	262.05967378616333	2.492105007171631
51	228.3908588886261	pulse	1	t		49.0	2.5	/experiments/Knapen_AOT/AOT_stimuli/rescaled_final/0720_rv.mp4	0.0	263.2332684993744	
51	229.70936918258667	fix_post	2		12	49.0	2.5	/experiments/Knapen_AOT/AOT_stimuli/rescaled_final/0720_rv.mp4	0.0	264.55177879333496	0.0999605655670166
52	229.8093297481537	fix_pre	0		120	50.0	2.5	/experiments/Knapen_AOT/AOT_stimuli/rescaled_final/0857_rv.mp4	0.0	264.651739358902	1.0085179805755615
52	229.9930305480957	pulse	0	t		50.0	2.5	/experiments/Knapen_AOT/AOT_stimuli/rescaled_final/0857_rv.mp4	0.0	264.835440158844	
52	230.81784772872925	movie	1		272	50.0	2.5	/experiments/Knapen_AOT/AOT_stimuli/rescaled_final/0857_rv.mp4	0.0	265.66025733947754	2.49202561378479
52	231.59112119674683	pulse	1	t		50.0	2.5	/experiments/Knapen_AOT/AOT_stimuli/rescaled_final/0857_rv.mp4	0.0	266.4335308074951	
52	233.19168210029602	pulse	1	t		50.0	2.5	/experiments/Knapen_AOT/AOT_stimuli/rescaled_final/0857_rv.mp4	0.0	268.0340917110443	
52	233.30987334251404	fix_post	2		12	50.0	2.5	/experiments/Knapen_AOT/AOT_stimuli/rescaled_final/0857_rv.mp4	0.0	268.15228295326233	0.10003018379211426
53	233.40990352630615	fix_pre	0		120	51.0	2.5	/experiments/Knapen_AOT/AOT_stimuli/rescaled_final/1012_rv.mp4	0.0	268.25231313705444	1.008455753326416
53	234.41835927963257	movie	1		287	51.0	2.5	/experiments/Knapen_AOT/AOT_stimuli/rescaled_final/1012_rv.mp4	0.0	269.26076889038086	2.49202561378479
53	234.79173731803894	pulse	1	t		51.0	2.5	/experiments/Knapen_AOT/AOT_stimuli/rescaled_final/1012_rv.mp4	0.0	269.63414692878723	
53	236.39189839363098	pulse	1	t		51.0	2.5	/experiments/Knapen_AOT/AOT_stimuli/rescaled_final/1012_rv.mp4	0.0	271.2343080043793	
53	236.91038489341736	fix_post	2		12	51.0	2.5	/experiments/Knapen_AOT/AOT_stimuli/rescaled_final/1012_rv.mp4	0.0	271.75279450416565	0.10003018379211426
54	237.01041507720947	fix_pre	0		119	52.0	2.5	/experiments/Knapen_AOT/AOT_stimuli/rescaled_final/1278_fw.mp4	0.0	271.85282468795776	1.0002896785736084
54	237.99424982070923	pulse	0	t		52.0	2.5	/experiments/Knapen_AOT/AOT_stimuli/rescaled_final/1278_fw.mp4	0.0	272.8366594314575	
54	238.01070475578308	movie	1		282	52.0	2.5	/experiments/Knapen_AOT/AOT_stimuli/rescaled_final/1278_fw.mp4	0.0	272.8531143665314	2.500229597091675
54	239.59317541122437	pulse	1	t		52.0	2.5	/experiments/Knapen_AOT/AOT_stimuli/rescaled_final/1278_fw.mp4	0.0	274.43558502197266	
54	240.51093435287476	fix_post	2		12	52.0	2.5	/experiments/Knapen_AOT/AOT_stimuli/rescaled_final/1278_fw.mp4	0.0	275.35334396362305	0.10001301765441895
55	240.61094737052917	fix_pre	0		120	53.0	2.5	/experiments/Knapen_AOT/AOT_stimuli/rescaled_final/0155_fw.mp4	0.0	275.45335698127747	1.0085070133209229
55	241.19457697868347	pulse	0	t		53.0	2.5	/experiments/Knapen_AOT/AOT_stimuli/rescaled_final/0155_fw.mp4	0.0	276.03698658943176	
55	241.6194543838501	movie	1		286	53.0	2.5	/experiments/Knapen_AOT/AOT_stimuli/rescaled_final/0155_fw.mp4	0.0	276.4618639945984	2.4920146465301514
55	242.794118642807	pulse	1	t		53.0	2.5	/experiments/Knapen_AOT/AOT_stimuli/rescaled_final/0155_fw.mp4	0.0	277.6365282535553	
55	244.11146903038025	fix_post	2		12	53.0	2.5	/experiments/Knapen_AOT/AOT_stimuli/rescaled_final/0155_fw.mp4	0.0	278.95387864112854	0.10002374649047852
56	244.21149277687073	fix_pre	0		120	54.0	2.5	/experiments/Knapen_AOT/AOT_stimuli/rescaled_final/0873_rv.mp4	0.0	279.053902387619	1.0085046291351318
56	244.3951346874237	pulse	0	t		54.0	2.5	/experiments/Knapen_AOT/AOT_stimuli/rescaled_final/0873_rv.mp4	0.0	279.237544298172	
56	245.21999740600586	movie	1		264	54.0	2.5	/experiments/Knapen_AOT/AOT_stimuli/rescaled_final/0873_rv.mp4	0.0	280.06240701675415	2.492018938064575
56	245.99366092681885	pulse	1	t		54.0	2.5	/experiments/Knapen_AOT/AOT_stimuli/rescaled_final/0873_rv.mp4	0.0	280.83607053756714	
56	247.59370970726013	pulse	1	t		54.0	2.5	/experiments/Knapen_AOT/AOT_stimuli/rescaled_final/0873_rv.mp4	0.0	282.4361193180084	
56	247.71201634407043	fix_post	2		12	54.0	2.5	/experiments/Knapen_AOT/AOT_stimuli/rescaled_final/0873_rv.mp4	0.0	282.5544259548187	0.10002422332763672
57	247.81204056739807	fix_pre	0		120	55.0	2.5	blank	1.0	282.65445017814636	1.0001304149627686
57	248.81217098236084	movie	1		300	55.0	2.5	blank	1.0	283.65458059310913	2.5004079341888428
57	249.19577860832214	pulse	1	t		55.0	2.5	blank	1.0	284.03818821907043	
57	250.7960033416748	pulse	1	t		55.0	2.5	blank	1.0	285.6384129524231	
57	251.31257891654968	fix_post	2		12	55.0	2.5	blank	1.0	286.154988527298	0.10000848770141602
58	251.4125874042511	fix_pre	0		119	56.0	2.5	/experiments/Knapen_AOT/AOT_stimuli/rescaled_final/0323_rv.mp4	0.0	286.2549970149994	1.008622646331787
58	252.39631533622742	pulse	0	t		56.0	2.5	/experiments/Knapen_AOT/AOT_stimuli/rescaled_final/0323_rv.mp4	0.0	287.2387249469757	
58	252.42121005058289	movie	1		279	56.0	2.5	/experiments/Knapen_AOT/AOT_stimuli/rescaled_final/0323_rv.mp4	0.0	287.2636196613312	2.491877555847168
58	253.99552845954895	pulse	1	t		56.0	2.5	/experiments/Knapen_AOT/AOT_stimuli/rescaled_final/0323_rv.mp4	0.0	288.83793807029724	
58	254.91308760643005	fix_post	2		12	56.0	2.5	/experiments/Knapen_AOT/AOT_stimuli/rescaled_final/0323_rv.mp4	0.0	289.75549721717834	0.10001730918884277
59	255.0131049156189	fix_pre	0		120	57.0	2.5	/experiments/Knapen_AOT/AOT_stimuli/rescaled_final/1297_rv.mp4	0.0	289.8555145263672	1.0085179805755615
59	255.59682154655457	pulse	0	t		57.0	2.5	/experiments/Knapen_AOT/AOT_stimuli/rescaled_final/1297_rv.mp4	0.0	290.43923115730286	
59	256.02162289619446	movie	1		286	57.0	2.5	/experiments/Knapen_AOT/AOT_stimuli/rescaled_final/1297_rv.mp4	0.0	290.86403250694275	2.4920294284820557
59	257.1951515674591	pulse	1	t		57.0	2.5	/experiments/Knapen_AOT/AOT_stimuli/rescaled_final/1297_rv.mp4	0.0	292.0375611782074	
59	258.5136523246765	fix_post	2		12	57.0	2.5	/experiments/Knapen_AOT/AOT_stimuli/rescaled_final/1297_rv.mp4	0.0	293.3560619354248	0.10001754760742188
60	258.61366987228394	fix_pre	0		120	58.0	2.5	/experiments/Knapen_AOT/AOT_stimuli/rescaled_final/0962_fw.mp4	0.0	293.4560794830322	1.008502721786499
60	258.7972893714905	pulse	0	t		58.0	2.5	/experiments/Knapen_AOT/AOT_stimuli/rescaled_final/0962_fw.mp4	0.0	293.63969898223877	
60	259.62217259407043	movie	1		278	58.0	2.5	/experiments/Knapen_AOT/AOT_stimuli/rescaled_final/0962_fw.mp4	0.0	294.4645822048187	2.4919991493225098
60	260.39573884010315	pulse	1	t		58.0	2.5	/experiments/Knapen_AOT/AOT_stimuli/rescaled_final/0962_fw.mp4	0.0	295.23814845085144	
60	261.9966917037964	pulse	1	t		58.0	2.5	/experiments/Knapen_AOT/AOT_stimuli/rescaled_final/0962_fw.mp4	0.0	296.8391013145447	
60	262.11417174339294	fix_post	2		12	58.0	2.5	/experiments/Knapen_AOT/AOT_stimuli/rescaled_final/0962_fw.mp4	0.0	296.95658135414124	0.10007786750793457
61	262.2142496109009	fix_pre	0		120	59.0	2.5	/experiments/Knapen_AOT/AOT_stimuli/rescaled_final/0629_fw.mp4	0.0	297.05665922164917	1.0085291862487793
61	263.22277879714966	movie	1		285	59.0	2.5	/experiments/Knapen_AOT/AOT_stimuli/rescaled_final/0629_fw.mp4	0.0	298.06518840789795	2.491943836212158
61	263.59675455093384	pulse	1	t		59.0	2.5	/experiments/Knapen_AOT/AOT_stimuli/rescaled_final/0629_fw.mp4	0.0	298.43916416168213	
61	265.1902413368225	pulse	1	t		59.0	2.5	/experiments/Knapen_AOT/AOT_stimuli/rescaled_final/0629_fw.mp4	0.0	300.0326509475708	
61	265.7147226333618	fix_post	2		12	59.0	2.5	/experiments/Knapen_AOT/AOT_stimuli/rescaled_final/0629_fw.mp4	0.0	300.5571322441101	0.10006570816040039
62	265.8147883415222	fix_pre	0		118	60.0	2.5	/experiments/Knapen_AOT/AOT_stimuli/rescaled_final/0155_rv.mp4	0.0	300.6571979522705	0.9918825626373291
62	266.7905168533325	pulse	0	t		60.0	2.5	/experiments/Knapen_AOT/AOT_stimuli/rescaled_final/0155_rv.mp4	0.0	301.6329264640808	
62	266.80667090415955	movie	1		288	60.0	2.5	/experiments/Knapen_AOT/AOT_stimuli/rescaled_final/0155_rv.mp4	0.0	301.64908051490784	2.500243902206421
62	268.3988924026489	pulse	1	t		60.0	2.5	/experiments/Knapen_AOT/AOT_stimuli/rescaled_final/0155_rv.mp4	0.0	303.2413020133972	
62	269.30691480636597	fix_post	2		12	60.0	2.5	/experiments/Knapen_AOT/AOT_stimuli/rescaled_final/0155_rv.mp4	0.0	304.14932441711426	0.10003256797790527
63	269.4069473743439	fix_pre	0		120	61.0	2.5	blank	1.0	304.24935698509216	1.000124216079712
63	269.9906551837921	pulse	0	t		61.0	2.5	blank	1.0	304.8330647945404	
63	270.4070715904236	movie	1		300	61.0	2.5	blank	1.0	305.2494812011719	2.500417709350586
63	271.5910449028015	pulse	1	t		61.0	2.5	blank	1.0	306.4334545135498	
63	272.90748929977417	fix_post	2		12	61.0	2.5	blank	1.0	307.74989891052246	0.09998583793640137
64	273.00747513771057	fix_pre	0		120	62.0	2.5	/experiments/Knapen_AOT/AOT_stimuli/rescaled_final/0529_rv.mp4	0.0	307.84988474845886	1.0085358619689941
64	273.1911196708679	pulse	0	t		62.0	2.5	/experiments/Knapen_AOT/AOT_stimuli/rescaled_final/0529_rv.mp4	0.0	308.0335292816162	
64	274.01601099967957	movie	1		280	62.0	2.5	/experiments/Knapen_AOT/AOT_stimuli/rescaled_final/0529_rv.mp4	0.0	308.85842061042786	2.5003302097320557
64	274.79144048690796	pulse	1	t		62.0	2.5	/experiments/Knapen_AOT/AOT_stimuli/rescaled_final/0529_rv.mp4	0.0	309.63385009765625	
64	276.3916094303131	pulse	1	t		62.0	2.5	/experiments/Knapen_AOT/AOT_stimuli/rescaled_final/0529_rv.mp4	0.0	311.2340190410614	
64	276.5163412094116	fix_post	2		11	62.0	2.5	/experiments/Knapen_AOT/AOT_stimuli/rescaled_final/0529_rv.mp4	0.0	311.3587508201599	0.09167838096618652
65	276.6080195903778	fix_pre	0		120	63.0	2.5	/experiments/Knapen_AOT/AOT_stimuli/rescaled_final/0307_rv.mp4	0.0	311.4504292011261	1.008491039276123
65	277.61651062965393	movie	1		280	63.0	2.5	/experiments/Knapen_AOT/AOT_stimuli/rescaled_final/0307_rv.mp4	0.0	312.4589202404022	2.4920554161071777
65	277.99059104919434	pulse	1	t		63.0	2.5	/experiments/Knapen_AOT/AOT_stimuli/rescaled_final/0307_rv.mp4	0.0	312.8330006599426	
65	279.59205651283264	pulse	1	t		63.0	2.5	/experiments/Knapen_AOT/AOT_stimuli/rescaled_final/0307_rv.mp4	0.0	314.43446612358093	
65	280.1085660457611	fix_post	2		12	63.0	2.5	/experiments/Knapen_AOT/AOT_stimuli/rescaled_final/0307_rv.mp4	0.0	314.9509756565094	0.09999227523803711
66	280.20855832099915	fix_pre	0		119	64.0	2.5	/experiments/Knapen_AOT/AOT_stimuli/rescaled_final/2118_rv.mp4	0.0	315.05096793174744	1.0001428127288818
66	281.1924834251404	pulse	0	t		64.0	2.5	/experiments/Knapen_AOT/AOT_stimuli/rescaled_final/2118_rv.mp4	0.0	316.0348930358887	
66	281.208701133728	movie	1		289	64.0	2.5	/experiments/Knapen_AOT/AOT_stimuli/rescaled_final/2118_rv.mp4	0.0	316.0511107444763	2.500370502471924
66	282.7917938232422	pulse	1	t		64.0	2.5	/experiments/Knapen_AOT/AOT_stimuli/rescaled_final/2118_rv.mp4	0.0	317.6342034339905	
66	283.70907163619995	fix_post	2		12	64.0	2.5	/experiments/Knapen_AOT/AOT_stimuli/rescaled_final/2118_rv.mp4	0.0	318.55148124694824	0.10014152526855469
67	283.8092131614685	fix_pre	0		120	65.0	2.5	/experiments/Knapen_AOT/AOT_stimuli/rescaled_final/1072_rv.mp4	0.0	318.6516227722168	1.0083916187286377
67	284.3927323818207	pulse	0	t		65.0	2.5	/experiments/Knapen_AOT/AOT_stimuli/rescaled_final/1072_rv.mp4	0.0	319.23514199256897	
67	284.81760478019714	movie	1		283	65.0	2.5	/experiments/Knapen_AOT/AOT_stimuli/rescaled_final/1072_rv.mp4	0.0	319.66001439094543	2.492027997970581
67	285.9912106990814	pulse	1	t		65.0	2.5	/experiments/Knapen_AOT/AOT_stimuli/rescaled_final/1072_rv.mp4	0.0	320.8336203098297	
67	287.3096327781677	fix_post	2		12	65.0	2.5	/experiments/Knapen_AOT/AOT_stimuli/rescaled_final/1072_rv.mp4	0.0	322.152042388916	0.10001420974731445
68	287.40964698791504	fix_pre	0		120	66.0	2.5	/experiments/Knapen_AOT/AOT_stimuli/rescaled_final/0543_rv.mp4	0.0	322.25205659866333	1.008531093597412
68	287.59320044517517	pulse	0	t		66.0	2.5	/experiments/Knapen_AOT/AOT_stimuli/rescaled_final/0543_rv.mp4	0.0	322.43561005592346	
68	288.41817808151245	movie	1		281	66.0	2.5	/experiments/Knapen_AOT/AOT_stimuli/rescaled_final/0543_rv.mp4	0.0	323.26058769226074	2.4921348094940186
68	289.1916434764862	pulse	1	t		66.0	2.5	/experiments/Knapen_AOT/AOT_stimuli/rescaled_final/0543_rv.mp4	0.0	324.0340530872345	
68	290.79203391075134	pulse	1	t		66.0	2.5	/experiments/Knapen_AOT/AOT_stimuli/rescaled_final/0543_rv.mp4	0.0	325.63444352149963	
68	290.91031289100647	fix_post	2		12	66.0	2.5	/experiments/Knapen_AOT/AOT_stimuli/rescaled_final/0543_rv.mp4	0.0	325.75272250175476	0.09997391700744629
69	291.0102868080139	fix_pre	0		120	67.0	2.5	/experiments/Knapen_AOT/AOT_stimuli/rescaled_final/0804_fw.mp4	0.0	325.8526964187622	1.008415937423706
69	292.0187027454376	movie	1		284	67.0	2.5	/experiments/Knapen_AOT/AOT_stimuli/rescaled_final/0804_fw.mp4	0.0	326.8611123561859	2.4920527935028076
69	292.39245200157166	pulse	1	t		67.0	2.5	/experiments/Knapen_AOT/AOT_stimuli/rescaled_final/0804_fw.mp4	0.0	327.23486161231995	
69	293.9949700832367	pulse	1	t		67.0	2.5	/experiments/Knapen_AOT/AOT_stimuli/rescaled_final/0804_fw.mp4	0.0	328.837379693985	
69	294.51075553894043	fix_post	2		12	67.0	2.5	/experiments/Knapen_AOT/AOT_stimuli/rescaled_final/0804_fw.mp4	0.0	329.3531651496887	0.09995841979980469
70	294.61071395874023	fix_pre	0		119	68.0	2.5	/experiments/Knapen_AOT/AOT_stimuli/rescaled_final/1782_rv.mp4	0.0	329.4531235694885	1.0002295970916748
70	295.594571352005	pulse	0	t		68.0	2.5	/experiments/Knapen_AOT/AOT_stimuli/rescaled_final/1782_rv.mp4	0.0	330.4369809627533	
70	295.6109435558319	movie	1		288	68.0	2.5	/experiments/Knapen_AOT/AOT_stimuli/rescaled_final/1782_rv.mp4	0.0	330.4533531665802	2.500340461730957
70	297.19354367256165	pulse	1	t		68.0	2.5	/experiments/Knapen_AOT/AOT_stimuli/rescaled_final/1782_rv.mp4	0.0	332.03595328330994	
70	298.11128401756287	fix_post	2		12	68.0	2.5	/experiments/Knapen_AOT/AOT_stimuli/rescaled_final/1782_rv.mp4	0.0	332.95369362831116	0.09999299049377441
71	298.21127700805664	fix_pre	0		120	69.0	2.5	/experiments/Knapen_AOT/AOT_stimuli/rescaled_final/1434_rv.mp4	0.0	333.05368661880493	1.0084891319274902
71	298.79496002197266	pulse	0	t		69.0	2.5	/experiments/Knapen_AOT/AOT_stimuli/rescaled_final/1434_rv.mp4	0.0	333.63736963272095	
71	299.21976613998413	movie	1		284	69.0	2.5	/experiments/Knapen_AOT/AOT_stimuli/rescaled_final/1434_rv.mp4	0.0	334.0621757507324	2.492034435272217
71	300.3934235572815	pulse	1	t		69.0	2.5	/experiments/Knapen_AOT/AOT_stimuli/rescaled_final/1434_rv.mp4	0.0	335.2358331680298	
71	301.71180057525635	fix_post	2		12	69.0	2.5	/experiments/Knapen_AOT/AOT_stimuli/rescaled_final/1434_rv.mp4	0.0	336.55421018600464	0.10009503364562988
72	301.811895608902	fix_pre	0		120	70.0	2.5	blank	1.0	336.65430521965027	1.000063419342041
72	301.99538469314575	pulse	0	t		70.0	2.5	blank	1.0	336.83779430389404	
72	302.811959028244	movie	1		300	70.0	2.5	blank	1.0	337.6543686389923	2.5003738403320312
72	303.59563279151917	pulse	1	t		70.0	2.5	blank	1.0	338.43804240226746	
72	305.1959810256958	pulse	1	t		70.0	2.5	blank	1.0	340.0383906364441	
72	305.31233286857605	fix_post	2		12	70.0	2.5	blank	1.0	340.15474247932434	0.1000974178314209
73	305.41243028640747	fix_pre	0		120	71.0	2.5	/experiments/Knapen_AOT/AOT_stimuli/rescaled_final/1439_fw.mp4	0.0	340.25483989715576	1.008415937423706
73	306.4208462238312	movie	1		283	71.0	2.5	/experiments/Knapen_AOT/AOT_stimuli/rescaled_final/1439_fw.mp4	0.0	341.26325583457947	2.492069721221924
73	306.7947175502777	pulse	1	t		71.0	2.5	/experiments/Knapen_AOT/AOT_stimuli/rescaled_final/1439_fw.mp4	0.0	341.637127161026	
73	308.3948197364807	pulse	1	t		71.0	2.5	/experiments/Knapen_AOT/AOT_stimuli/rescaled_final/1439_fw.mp4	0.0	343.237229347229	
73	308.9129159450531	fix_post	2		12	71.0	2.5	/experiments/Knapen_AOT/AOT_stimuli/rescaled_final/1439_fw.mp4	0.0	343.7553255558014	0.10000395774841309
74	309.0129199028015	fix_pre	0		119	72.0	2.5	/experiments/Knapen_AOT/AOT_stimuli/rescaled_final/0651_fw.mp4	0.0	343.8553295135498	1.0001583099365234
74	309.9966506958008	pulse	0	t		72.0	2.5	/experiments/Knapen_AOT/AOT_stimuli/rescaled_final/0651_fw.mp4	0.0	344.8390603065491	
74	310.01307821273804	movie	1		277	72.0	2.5	/experiments/Knapen_AOT/AOT_stimuli/rescaled_final/0651_fw.mp4	0.0	344.8554878234863	2.500373363494873
74	311.5959484577179	pulse	1	t		72.0	2.5	/experiments/Knapen_AOT/AOT_stimuli/rescaled_final/0651_fw.mp4	0.0	346.4383580684662	
74	312.5134515762329	fix_post	2		12	72.0	2.5	/experiments/Knapen_AOT/AOT_stimuli/rescaled_final/0651_fw.mp4	0.0	347.3558611869812	0.0999760627746582
75	312.61342763900757	fix_pre	0		120	73.0	2.5	/experiments/Knapen_AOT/AOT_stimuli/rescaled_final/0962_fw.mp4	0.0	347.45583724975586	1.0085046291351318
75	313.19708156585693	pulse	0	t		73.0	2.5	/experiments/Knapen_AOT/AOT_stimuli/rescaled_final/0962_fw.mp4	0.0	348.0394911766052	
75	313.6219322681427	movie	1		285	73.0	2.5	/experiments/Knapen_AOT/AOT_stimuli/rescaled_final/0962_fw.mp4	0.0	348.464341878891	2.4920287132263184
75	314.79545855522156	pulse	1	t		73.0	2.5	/experiments/Knapen_AOT/AOT_stimuli/rescaled_final/0962_fw.mp4	0.0	349.63786816596985	
75	316.113960981369	fix_post	2		12	73.0	2.5	/experiments/Knapen_AOT/AOT_stimuli/rescaled_final/0962_fw.mp4	0.0	350.9563705921173	0.10001850128173828
76	316.21397948265076	fix_pre	0		120	74.0	2.5	/experiments/Knapen_AOT/AOT_stimuli/rescaled_final/0731_rv.mp4	0.0	351.05638909339905	1.008507490158081
76	316.3895881175995	pulse	0	t		74.0	2.5	/experiments/Knapen_AOT/AOT_stimuli/rescaled_final/0731_rv.mp4	0.0	351.2319977283478	
76	317.22248697280884	movie	1		289	74.0	2.5	/experiments/Knapen_AOT/AOT_stimuli/rescaled_final/0731_rv.mp4	0.0	352.06489658355713	2.4920477867126465
76	317.98958230018616	pulse	1	t		74.0	2.5	/experiments/Knapen_AOT/AOT_stimuli/rescaled_final/0731_rv.mp4	0.0	352.83199191093445	
76	319.5898289680481	pulse	1	t		74.0	2.5	/experiments/Knapen_AOT/AOT_stimuli/rescaled_final/0731_rv.mp4	0.0	354.4322385787964	
76	319.7145347595215	fix_post	2		12	74.0	2.5	/experiments/Knapen_AOT/AOT_stimuli/rescaled_final/0731_rv.mp4	0.0	354.5569443702698	0.10003066062927246
77	319.81456542015076	fix_pre	0		120	75.0	2.5	/experiments/Knapen_AOT/AOT_stimuli/rescaled_final/1754_fw.mp4	0.0	354.65697503089905	1.008467674255371
77	320.8230330944061	movie	1		280	75.0	2.5	/experiments/Knapen_AOT/AOT_stimuli/rescaled_final/1754_fw.mp4	0.0	355.6654427051544	2.4921154975891113
77	321.18990683555603	pulse	1	t		75.0	2.5	/experiments/Knapen_AOT/AOT_stimuli/rescaled_final/1754_fw.mp4	0.0	356.0323164463043	
77	322.79025387763977	pulse	1	t		75.0	2.5	/experiments/Knapen_AOT/AOT_stimuli/rescaled_final/1754_fw.mp4	0.0	357.63266348838806	
77	323.31514859199524	fix_post	2		12	75.0	2.5	/experiments/Knapen_AOT/AOT_stimuli/rescaled_final/1754_fw.mp4	0.0	358.15755820274353	0.09992170333862305
78	323.41507029533386	fix_pre	0		118	76.0	2.5	/experiments/Knapen_AOT/AOT_stimuli/rescaled_final/1529_rv.mp4	0.0	358.25747990608215	0.9917912483215332
78	324.39076828956604	pulse	0	t		76.0	2.5	/experiments/Knapen_AOT/AOT_stimuli/rescaled_final/1529_rv.mp4	0.0	359.23317790031433	
78	324.4068615436554	movie	1		286	76.0	2.5	/experiments/Knapen_AOT/AOT_stimuli/rescaled_final/1529_rv.mp4	0.0	359.2492711544037	2.5003747940063477
78	325.99083280563354	pulse	1	t		76.0	2.5	/experiments/Knapen_AOT/AOT_stimuli/rescaled_final/1529_rv.mp4	0.0	360.83324241638184	
78	326.90723633766174	fix_post	2		12	76.0	2.5	/experiments/Knapen_AOT/AOT_stimuli/rescaled_final/1529_rv.mp4	0.0	361.74964594841003	0.10004067420959473
79	327.00727701187134	fix_pre	0		120	77.0	2.5	blank	1.0	361.84968662261963	1.0001168251037598
79	327.5909538269043	pulse	0	t		77.0	2.5	blank	1.0	362.4333634376526	
79	328.0073938369751	movie	1		300	77.0	2.5	blank	1.0	362.8498034477234	2.500394344329834
79	329.1911792755127	pulse	1	t		77.0	2.5	blank	1.0	364.033588886261	
79	330.50778818130493	fix_post	2		12	77.0	2.5	blank	1.0	365.3501977920532	0.10002255439758301
80	330.6078107357025	fix_pre	0		120	78.0	2.5	/experiments/Knapen_AOT/AOT_stimuli/rescaled_final/0203_fw.mp4	0.0	365.4502203464508	1.0084929466247559
80	330.79139018058777	pulse	0	t		78.0	2.5	/experiments/Knapen_AOT/AOT_stimuli/rescaled_final/0203_fw.mp4	0.0	365.63379979133606	
80	331.61630368232727	movie	1		283	78.0	2.5	/experiments/Knapen_AOT/AOT_stimuli/rescaled_final/0203_fw.mp4	0.0	366.45871329307556	2.4921634197235107
80	332.3897216320038	pulse	1	t		78.0	2.5	/experiments/Knapen_AOT/AOT_stimuli/rescaled_final/0203_fw.mp4	0.0	367.2321312427521	
80	333.9901850223541	pulse	1	t		78.0	2.5	/experiments/Knapen_AOT/AOT_stimuli/rescaled_final/0203_fw.mp4	0.0	368.8325946331024	
80	334.1084671020508	fix_post	2		12	78.0	2.5	/experiments/Knapen_AOT/AOT_stimuli/rescaled_final/0203_fw.mp4	0.0	368.9508767127991	0.09988689422607422
81	334.20835399627686	fix_pre	0		120	79.0	2.5	/experiments/Knapen_AOT/AOT_stimuli/rescaled_final/0600_rv.mp4	0.0	369.05076360702515	1.0084865093231201
81	335.2168405056	movie	1		282	79.0	2.5	/experiments/Knapen_AOT/AOT_stimuli/rescaled_final/0600_rv.mp4	0.0	370.05925011634827	2.492075204849243
81	335.59100890159607	pulse	1	t		79.0	2.5	/experiments/Knapen_AOT/AOT_stimuli/rescaled_final/0600_rv.mp4	0.0	370.43341851234436	
81	337.19030356407166	pulse	1	t		79.0	2.5	/experiments/Knapen_AOT/AOT_stimuli/rescaled_final/0600_rv.mp4	0.0	372.03271317481995	
81	337.7089157104492	fix_post	2		12	79.0	2.5	/experiments/Knapen_AOT/AOT_stimuli/rescaled_final/0600_rv.mp4	0.0	372.5513253211975	0.10007119178771973
82	337.80898690223694	fix_pre	0		119	80.0	2.5	/experiments/Knapen_AOT/AOT_stimuli/rescaled_final/0467_rv.mp4	0.0	372.65139651298523	1.000148057937622
82	338.79257011413574	pulse	0	t		80.0	2.5	/experiments/Knapen_AOT/AOT_stimuli/rescaled_final/0467_rv.mp4	0.0	373.63497972488403	
82	338.80913496017456	movie	1		283	80.0	2.5	/experiments/Knapen_AOT/AOT_stimuli/rescaled_final/0467_rv.mp4	0.0	373.65154457092285	2.500288486480713
82	340.39156007766724	pulse	1	t		80.0	2.5	/experiments/Knapen_AOT/AOT_stimuli/rescaled_final/0467_rv.mp4	0.0	375.2339696884155	
82	341.3094234466553	fix_post	2		12	80.0	2.5	/experiments/Knapen_AOT/AOT_stimuli/rescaled_final/0467_rv.mp4	0.0	376.15183305740356	0.09999704360961914
83	341.4094204902649	fix_pre	0		120	81.0	2.5	/experiments/Knapen_AOT/AOT_stimuli/rescaled_final/0965_rv.mp4	0.0	376.2518301010132	1.0085077285766602
83	341.9931843280792	pulse	0	t		81.0	2.5	/experiments/Knapen_AOT/AOT_stimuli/rescaled_final/0965_rv.mp4	0.0	376.8355939388275	
83	342.41792821884155	movie	1		270	81.0	2.5	/experiments/Knapen_AOT/AOT_stimuli/rescaled_final/0965_rv.mp4	0.0	377.26033782958984	2.4920520782470703
83	343.5933334827423	pulse	1	t		81.0	2.5	/experiments/Knapen_AOT/AOT_stimuli/rescaled_final/0965_rv.mp4	0.0	378.4357430934906	
83	344.9099802970886	fix_post	2		12	81.0	2.5	/experiments/Knapen_AOT/AOT_stimuli/rescaled_final/0965_rv.mp4	0.0	379.7523899078369	0.10000157356262207
84	345.00998187065125	fix_pre	0		120	82.0	2.5	/experiments/Knapen_AOT/AOT_stimuli/rescaled_final/0737_fw.mp4	0.0	379.85239148139954	1.0084903240203857
84	345.1935336589813	pulse	0	t		82.0	2.5	/experiments/Knapen_AOT/AOT_stimuli/rescaled_final/0737_fw.mp4	0.0	380.0359432697296	
84	346.01847219467163	movie	1		281	82.0	2.5	/experiments/Knapen_AOT/AOT_stimuli/rescaled_final/0737_fw.mp4	0.0	380.8608818054199	2.492018461227417
84	346.79390239715576	pulse	1	t		82.0	2.5	/experiments/Knapen_AOT/AOT_stimuli/rescaled_final/0737_fw.mp4	0.0	381.63631200790405	
84	348.3923795223236	pulse	1	t		82.0	2.5	/experiments/Knapen_AOT/AOT_stimuli/rescaled_final/0737_fw.mp4	0.0	383.2347891330719	
84	348.51049065589905	fix_post	2		12	82.0	2.5	/experiments/Knapen_AOT/AOT_stimuli/rescaled_final/0737_fw.mp4	0.0	383.35290026664734	0.10001659393310547
85	348.61050724983215	fix_pre	0		120	83.0	2.5	blank	1.0	383.45291686058044	1.0001492500305176
85	349.61065649986267	movie	1		300	83.0	2.5	blank	1.0	384.45306611061096	2.500432252883911
85	349.99437856674194	pulse	1	t		83.0	2.5	blank	1.0	384.83678817749023	
85	351.59463810920715	pulse	1	t		83.0	2.5	blank	1.0	386.43704771995544	
85	352.1110887527466	fix_post	2		12	83.0	2.5	blank	1.0	386.9534983634949	0.10001659393310547
87	352.2111053466797	stim	0		1715					387.053514957428	14.293789148330688
87	353.1948506832123	pulse	0	t						388.03726029396057	
87	354.7949824333191	pulse	0	t						389.6373920440674	
87	356.3952615261078	pulse	0	t						391.2376711368561	
87	357.9956440925598	pulse	0	t						392.8380537033081	
87	359.59592509269714	pulse	0	t						394.43833470344543	
87	361.19597911834717	pulse	0	t						396.03838872909546	
87	362.796190738678	pulse	0	t						397.63860034942627	
87	364.3963966369629	pulse	0	t						399.2388062477112	
87	365.99667620658875	pulse	0	t						400.83908581733704	
