trial_nr	onset	event_type	phase	response	nr_frames	movie_index	movie_duration	movie_file	blank	onset_abs	duration
0	0.16660141944885254	stim	0		4					22.553402423858643	0.04150962829589844
0	0.20094823837280273	response	0	space						22.587749242782593	
1	0.20811104774475098	stim	0		4732					22.59491205215454	39.45024657249451
1	39.64083170890808	pulse	0	t						62.02763271331787	
1	39.65835762023926	stim	1		1715					62.04515862464905	14.299520492553711
1	41.239492893218994	pulse	1	t						63.626293897628784	
1	42.83976411819458	pulse	1	t						65.22656512260437	
1	44.43998670578003	pulse	1	t						66.82678771018982	
1	46.0403196811676	pulse	1	t						68.42712068557739	
1	47.640538930892944	pulse	1	t						70.02733993530273	
1	49.24100184440613	pulse	1	t						71.62780284881592	
1	50.841219902038574	pulse	1	t						73.22802090644836	
1	52.44131660461426	pulse	1	t						74.82811760902405	
2	53.95787811279297	fix_pre	0		11	0.0	2.5	/experiments/knapen_AOT/AOT_stimuli/rescaled_final/0734_fw.mp4	0.0	76.34467911720276	0.11672496795654297
2	54.04150652885437	pulse	0	t		0.0	2.5	/experiments/knapen_AOT/AOT_stimuli/rescaled_final/0734_fw.mp4	0.0	76.42830753326416	
2	54.07460308074951	movie	1		289	0.0	2.5	/experiments/knapen_AOT/AOT_stimuli/rescaled_final/0734_fw.mp4	0.0	76.4614040851593	2.4836771488189697
2	55.639928579330444	pulse	1	t		0.0	2.5	/experiments/knapen_AOT/AOT_stimuli/rescaled_final/0734_fw.mp4	0.0	78.02672958374023	
2	56.55828022956848	fix_post	2		12	0.0	2.5	/experiments/knapen_AOT/AOT_stimuli/rescaled_final/0734_fw.mp4	0.0	78.94508123397827	0.10002613067626953
3	56.65830636024475	fix_pre	0		120	1.0	2.5	/experiments/knapen_AOT/AOT_stimuli/rescaled_final/1661_fw.mp4	0.0	79.04510736465454	1.008542537689209
3	57.23501181602478	pulse	0	t		1.0	2.5	/experiments/knapen_AOT/AOT_stimuli/rescaled_final/1661_fw.mp4	0.0	79.62181282043457	
3	57.66684889793396	movie	1		289	1.0	2.5	/experiments/knapen_AOT/AOT_stimuli/rescaled_final/1661_fw.mp4	0.0	80.05364990234375	2.4919559955596924
3	58.839948654174805	pulse	1	t		1.0	2.5	/experiments/knapen_AOT/AOT_stimuli/rescaled_final/1661_fw.mp4	0.0	81.2267496585846	
3	60.15880489349365	fix_post	2		12	1.0	2.5	/experiments/knapen_AOT/AOT_stimuli/rescaled_final/1661_fw.mp4	0.0	82.54560589790344	0.10000777244567871
4	60.25881266593933	fix_pre	0		120	2.0	2.5	/experiments/knapen_AOT/AOT_stimuli/rescaled_final/1399_rv.mp4	0.0	82.64561367034912	1.0085148811340332
4	60.434653520584106	pulse	0	t		2.0	2.5	/experiments/knapen_AOT/AOT_stimuli/rescaled_final/1399_rv.mp4	0.0	82.8214545249939	
4	61.267327547073364	movie	1		277	2.0	2.5	/experiments/knapen_AOT/AOT_stimuli/rescaled_final/1399_rv.mp4	0.0	83.65412855148315	2.492025852203369
4	62.034276485443115	pulse	1	t		2.0	2.5	/experiments/knapen_AOT/AOT_stimuli/rescaled_final/1399_rv.mp4	0.0	84.4210774898529	
4	63.63450312614441	pulse	1	t		2.0	2.5	/experiments/knapen_AOT/AOT_stimuli/rescaled_final/1399_rv.mp4	0.0	86.0213041305542	
4	63.75935339927673	fix_post	2		12	2.0	2.5	/experiments/knapen_AOT/AOT_stimuli/rescaled_final/1399_rv.mp4	0.0	86.14615440368652	0.10003519058227539
5	63.85938858985901	fix_pre	0		120	3.0	2.5	/experiments/knapen_AOT/AOT_stimuli/rescaled_final/1664_rv.mp4	0.0	86.2461895942688	1.0084781646728516
5	64.86786675453186	movie	1		280	3.0	2.5	/experiments/knapen_AOT/AOT_stimuli/rescaled_final/1664_rv.mp4	0.0	87.25466775894165	2.49208927154541
5	65.23428654670715	pulse	1	t		3.0	2.5	/experiments/knapen_AOT/AOT_stimuli/rescaled_final/1664_rv.mp4	0.0	87.62108755111694	
5	66.83504056930542	pulse	1	t		3.0	2.5	/experiments/knapen_AOT/AOT_stimuli/rescaled_final/1664_rv.mp4	0.0	89.22184157371521	
5	67.35995602607727	fix_post	2		12	3.0	2.5	/experiments/knapen_AOT/AOT_stimuli/rescaled_final/1664_rv.mp4	0.0	89.74675703048706	0.09993934631347656
6	67.45989537239075	fix_pre	0		118	4.0	2.5	/experiments/knapen_AOT/AOT_stimuli/rescaled_final/1629_rv.mp4	0.0	89.84669637680054	0.9918146133422852
6	68.43528246879578	pulse	0	t		4.0	2.5	/experiments/knapen_AOT/AOT_stimuli/rescaled_final/1629_rv.mp4	0.0	90.82208347320557	
6	68.45170998573303	movie	1		268	4.0	2.5	/experiments/knapen_AOT/AOT_stimuli/rescaled_final/1629_rv.mp4	0.0	90.83851099014282	2.500403881072998
6	70.03532290458679	pulse	1	t		4.0	2.5	/experiments/knapen_AOT/AOT_stimuli/rescaled_final/1629_rv.mp4	0.0	92.42212390899658	
6	70.95211386680603	fix_post	2		12	4.0	2.5	/experiments/knapen_AOT/AOT_stimuli/rescaled_final/1629_rv.mp4	0.0	93.33891487121582	0.10000467300415039
7	71.05211853981018	fix_pre	0		120	5.0	2.5	/experiments/knapen_AOT/AOT_stimuli/rescaled_final/1880_fw.mp4	0.0	93.43891954421997	1.0084891319274902
7	71.63574481010437	pulse	0	t		5.0	2.5	/experiments/knapen_AOT/AOT_stimuli/rescaled_final/1880_fw.mp4	0.0	94.02254581451416	
7	72.06060767173767	movie	1		284	5.0	2.5	/experiments/knapen_AOT/AOT_stimuli/rescaled_final/1880_fw.mp4	0.0	94.44740867614746	2.492018461227417
7	73.23596811294556	pulse	1	t		5.0	2.5	/experiments/knapen_AOT/AOT_stimuli/rescaled_final/1880_fw.mp4	0.0	95.62276911735535	
7	74.55262613296509	fix_post	2		12	5.0	2.5	/experiments/knapen_AOT/AOT_stimuli/rescaled_final/1880_fw.mp4	0.0	96.93942713737488	0.10000443458557129
8	74.65263056755066	fix_pre	0		120	6.0	2.5	/experiments/knapen_AOT/AOT_stimuli/rescaled_final/1112_fw.mp4	0.0	97.03943157196045	1.0085043907165527
8	74.83622217178345	pulse	0	t		6.0	2.5	/experiments/knapen_AOT/AOT_stimuli/rescaled_final/1112_fw.mp4	0.0	97.22302317619324	
8	75.66113495826721	movie	1		288	6.0	2.5	/experiments/knapen_AOT/AOT_stimuli/rescaled_final/1112_fw.mp4	0.0	98.047935962677	2.4920480251312256
8	76.43423414230347	pulse	1	t		6.0	2.5	/experiments/knapen_AOT/AOT_stimuli/rescaled_final/1112_fw.mp4	0.0	98.82103514671326	
8	78.03449296951294	pulse	1	t		6.0	2.5	/experiments/knapen_AOT/AOT_stimuli/rescaled_final/1112_fw.mp4	0.0	100.42129397392273	
8	78.15318298339844	fix_post	2		12	6.0	2.5	/experiments/knapen_AOT/AOT_stimuli/rescaled_final/1112_fw.mp4	0.0	100.53998398780823	0.10002803802490234
9	78.25321102142334	fix_pre	0		120	7.0	2.5	blank	1.0	100.64001202583313	1.000131607055664
9	79.253342628479	movie	1		300	7.0	2.5	blank	1.0	101.6401436328888	2.5003983974456787
9	79.63695621490479	pulse	1	t		7.0	2.5	blank	1.0	102.02375721931458	
9	81.23718690872192	pulse	1	t		7.0	2.5	blank	1.0	103.62398791313171	
9	81.75374102592468	fix_post	2		12	7.0	2.5	blank	1.0	104.14054203033447	0.09998846054077148
10	81.85372948646545	fix_pre	0		119	8.0	2.5	/experiments/knapen_AOT/AOT_stimuli/rescaled_final/1214_rv.mp4	0.0	104.24053049087524	1.0002508163452148
10	82.83755302429199	pulse	0	t		8.0	2.5	/experiments/knapen_AOT/AOT_stimuli/rescaled_final/1214_rv.mp4	0.0	105.22435402870178	
10	82.85398030281067	movie	1		283	8.0	2.5	/experiments/knapen_AOT/AOT_stimuli/rescaled_final/1214_rv.mp4	0.0	105.24078130722046	2.5002925395965576
10	84.43716883659363	pulse	1	t		8.0	2.5	/experiments/knapen_AOT/AOT_stimuli/rescaled_final/1214_rv.mp4	0.0	106.82396984100342	
10	85.35427284240723	fix_post	2		12	8.0	2.5	/experiments/knapen_AOT/AOT_stimuli/rescaled_final/1214_rv.mp4	0.0	107.74107384681702	0.10000967979431152
11	85.45428252220154	fix_pre	0		120	9.0	2.5	/experiments/knapen_AOT/AOT_stimuli/rescaled_final/1395_fw.mp4	0.0	107.84108352661133	1.0084872245788574
11	86.03826212882996	pulse	0	t		9.0	2.5	/experiments/knapen_AOT/AOT_stimuli/rescaled_final/1395_fw.mp4	0.0	108.42506313323975	
11	86.4627697467804	movie	1		276	9.0	2.5	/experiments/knapen_AOT/AOT_stimuli/rescaled_final/1395_fw.mp4	0.0	108.84957075119019	2.4920406341552734
11	87.63638973236084	pulse	1	t		9.0	2.5	/experiments/knapen_AOT/AOT_stimuli/rescaled_final/1395_fw.mp4	0.0	110.02319073677063	
11	88.95481038093567	fix_post	2		12	9.0	2.5	/experiments/knapen_AOT/AOT_stimuli/rescaled_final/1395_fw.mp4	0.0	111.34161138534546	0.10000419616699219
12	89.05481457710266	fix_pre	0		120	10.0	2.5	/experiments/knapen_AOT/AOT_stimuli/rescaled_final/1057_fw.mp4	0.0	111.44161558151245	1.0087013244628906
12	89.23836660385132	pulse	0	t		10.0	2.5	/experiments/knapen_AOT/AOT_stimuli/rescaled_final/1057_fw.mp4	0.0	111.62516760826111	
12	90.06351590156555	movie	1		272	10.0	2.5	/experiments/knapen_AOT/AOT_stimuli/rescaled_final/1057_fw.mp4	0.0	112.45031690597534	2.4918394088745117
12	90.83791971206665	pulse	1	t		10.0	2.5	/experiments/knapen_AOT/AOT_stimuli/rescaled_final/1057_fw.mp4	0.0	113.22472071647644	
12	92.43670964241028	pulse	1	t		10.0	2.5	/experiments/knapen_AOT/AOT_stimuli/rescaled_final/1057_fw.mp4	0.0	114.82351064682007	
12	92.55535531044006	fix_post	2		12	10.0	2.5	/experiments/knapen_AOT/AOT_stimuli/rescaled_final/1057_fw.mp4	0.0	114.94215631484985	0.1000051498413086
13	92.65536046028137	fix_pre	0		120	11.0	2.5	/experiments/knapen_AOT/AOT_stimuli/rescaled_final/1757_fw.mp4	0.0	115.04216146469116	1.0085012912750244
13	93.6638617515564	movie	1		274	11.0	2.5	/experiments/knapen_AOT/AOT_stimuli/rescaled_final/1757_fw.mp4	0.0	116.05066275596619	2.4920382499694824
13	94.03735876083374	pulse	1	t		11.0	2.5	/experiments/knapen_AOT/AOT_stimuli/rescaled_final/1757_fw.mp4	0.0	116.42415976524353	
13	95.6385087966919	pulse	1	t		11.0	2.5	/experiments/knapen_AOT/AOT_stimuli/rescaled_final/1757_fw.mp4	0.0	118.02530980110168	
13	96.15590000152588	fix_post	2		12	11.0	2.5	/experiments/knapen_AOT/AOT_stimuli/rescaled_final/1757_fw.mp4	0.0	118.54270100593567	0.10015177726745605
14	96.25605177879333	fix_pre	0		119	12.0	2.5	/experiments/knapen_AOT/AOT_stimuli/rescaled_final/1004_rv.mp4	0.0	118.64285278320312	1.0000362396240234
14	97.23981094360352	pulse	0	t		12.0	2.5	/experiments/knapen_AOT/AOT_stimuli/rescaled_final/1004_rv.mp4	0.0	119.6266119480133	
14	97.25608801841736	movie	1		287	12.0	2.5	/experiments/knapen_AOT/AOT_stimuli/rescaled_final/1004_rv.mp4	0.0	119.64288902282715	2.5003597736358643
14	98.838623046875	pulse	1	t		12.0	2.5	/experiments/knapen_AOT/AOT_stimuli/rescaled_final/1004_rv.mp4	0.0	121.22542405128479	
14	99.75644779205322	fix_post	2		12	12.0	2.5	/experiments/knapen_AOT/AOT_stimuli/rescaled_final/1004_rv.mp4	0.0	122.14324879646301	0.10004687309265137
15	99.85649466514587	fix_pre	0		120	13.0	2.5	/experiments/knapen_AOT/AOT_stimuli/rescaled_final/0680_fw.mp4	0.0	122.24329566955566	1.0084495544433594
15	100.44011998176575	pulse	0	t		13.0	2.5	/experiments/knapen_AOT/AOT_stimuli/rescaled_final/0680_fw.mp4	0.0	122.82692098617554	
15	100.86494421958923	movie	1		267	13.0	2.5	/experiments/knapen_AOT/AOT_stimuli/rescaled_final/0680_fw.mp4	0.0	123.25174522399902	2.4920241832733154
15	102.03894472122192	pulse	1	t		13.0	2.5	/experiments/knapen_AOT/AOT_stimuli/rescaled_final/0680_fw.mp4	0.0	124.42574572563171	
15	103.35696840286255	fix_post	2		12	13.0	2.5	/experiments/knapen_AOT/AOT_stimuli/rescaled_final/0680_fw.mp4	0.0	125.74376940727234	0.10001087188720703
16	103.45697927474976	fix_pre	0		120	14.0	2.5	blank	1.0	125.84378027915955	1.0001442432403564
16	103.64056086540222	pulse	0	t		14.0	2.5	blank	1.0	126.02736186981201	
16	104.45712351799011	movie	1		300	14.0	2.5	blank	1.0	126.8439245223999	2.5004165172576904
16	105.2408127784729	pulse	1	t		14.0	2.5	blank	1.0	127.62761378288269	
16	106.8410210609436	pulse	1	t		14.0	2.5	blank	1.0	129.2278220653534	
16	106.9575400352478	fix_post	2		12	14.0	2.5	blank	1.0	129.3443410396576	0.10004711151123047
17	107.05758714675903	fix_pre	0		120	15.0	2.5	/experiments/knapen_AOT/AOT_stimuli/rescaled_final/2102_fw.mp4	0.0	129.44438815116882	1.0084495544433594
17	108.06603670120239	movie	1		285	15.0	2.5	/experiments/knapen_AOT/AOT_stimuli/rescaled_final/2102_fw.mp4	0.0	130.45283770561218	2.492046594619751
17	108.4399299621582	pulse	1	t		15.0	2.5	/experiments/knapen_AOT/AOT_stimuli/rescaled_final/2102_fw.mp4	0.0	130.826730966568	
17	110.04060959815979	pulse	1	t		15.0	2.5	/experiments/knapen_AOT/AOT_stimuli/rescaled_final/2102_fw.mp4	0.0	132.42741060256958	
17	110.55808329582214	fix_post	2		12	15.0	2.5	/experiments/knapen_AOT/AOT_stimuli/rescaled_final/2102_fw.mp4	0.0	132.94488430023193	0.10001277923583984
18	110.65809607505798	fix_pre	0		119	16.0	2.5	/experiments/knapen_AOT/AOT_stimuli/rescaled_final/0712_rv.mp4	0.0	133.04489707946777	1.0001304149627686
18	111.64176273345947	pulse	0	t		16.0	2.5	/experiments/knapen_AOT/AOT_stimuli/rescaled_final/0712_rv.mp4	0.0	134.02856373786926	
18	111.65822649002075	movie	1		282	16.0	2.5	/experiments/knapen_AOT/AOT_stimuli/rescaled_final/0712_rv.mp4	0.0	134.04502749443054	2.5003652572631836
18	113.24030900001526	pulse	1	t		16.0	2.5	/experiments/knapen_AOT/AOT_stimuli/rescaled_final/0712_rv.mp4	0.0	135.62711000442505	
18	114.15859174728394	fix_post	2		12	16.0	2.5	/experiments/knapen_AOT/AOT_stimuli/rescaled_final/0712_rv.mp4	0.0	136.54539275169373	0.1000361442565918
19	114.25862789154053	fix_pre	0		120	17.0	2.5	/experiments/knapen_AOT/AOT_stimuli/rescaled_final/0121_rv.mp4	0.0	136.64542889595032	1.0084750652313232
19	114.8425555229187	pulse	0	t		17.0	2.5	/experiments/knapen_AOT/AOT_stimuli/rescaled_final/0121_rv.mp4	0.0	137.2293565273285	
19	115.26710295677185	movie	1		267	17.0	2.5	/experiments/knapen_AOT/AOT_stimuli/rescaled_final/0121_rv.mp4	0.0	137.65390396118164	2.4920780658721924
19	116.44035458564758	pulse	1	t		17.0	2.5	/experiments/knapen_AOT/AOT_stimuli/rescaled_final/0121_rv.mp4	0.0	138.82715559005737	
19	117.75918102264404	fix_post	2		12	17.0	2.5	/experiments/knapen_AOT/AOT_stimuli/rescaled_final/0121_rv.mp4	0.0	140.14598202705383	0.09996461868286133
20	117.8591456413269	fix_pre	0		120	18.0	2.5	/experiments/knapen_AOT/AOT_stimuli/rescaled_final/1004_rv.mp4	0.0	140.2459466457367	1.008486032485962
20	118.03469729423523	pulse	0	t		18.0	2.5	/experiments/knapen_AOT/AOT_stimuli/rescaled_final/1004_rv.mp4	0.0	140.42149829864502	
20	118.86763167381287	movie	1		271	18.0	2.5	/experiments/knapen_AOT/AOT_stimuli/rescaled_final/1004_rv.mp4	0.0	141.25443267822266	2.492042064666748
20	119.63468074798584	pulse	1	t		18.0	2.5	/experiments/knapen_AOT/AOT_stimuli/rescaled_final/1004_rv.mp4	0.0	142.02148175239563	
20	121.2348985671997	pulse	1	t		18.0	2.5	/experiments/knapen_AOT/AOT_stimuli/rescaled_final/1004_rv.mp4	0.0	143.6216995716095	
20	121.35967373847961	fix_post	2		12	18.0	2.5	/experiments/knapen_AOT/AOT_stimuli/rescaled_final/1004_rv.mp4	0.0	143.7464747428894	0.09998726844787598
21	121.45966100692749	fix_pre	0		120	19.0	2.5	/experiments/knapen_AOT/AOT_stimuli/rescaled_final/0692_rv.mp4	0.0	143.84646201133728	1.0085461139678955
21	122.46820712089539	movie	1		269	19.0	2.5	/experiments/knapen_AOT/AOT_stimuli/rescaled_final/0692_rv.mp4	0.0	144.85500812530518	2.4920222759246826
21	122.8352062702179	pulse	1	t		19.0	2.5	/experiments/knapen_AOT/AOT_stimuli/rescaled_final/0692_rv.mp4	0.0	145.22200727462769	
21	124.43537497520447	pulse	1	t		19.0	2.5	/experiments/knapen_AOT/AOT_stimuli/rescaled_final/0692_rv.mp4	0.0	146.82217597961426	
21	124.96022939682007	fix_post	2		12	19.0	2.5	/experiments/knapen_AOT/AOT_stimuli/rescaled_final/0692_rv.mp4	0.0	147.34703040122986	0.09999489784240723
22	125.06022429466248	fix_pre	0		118	20.0	2.5	blank	1.0	147.44702529907227	0.983468770980835
22	126.03577780723572	pulse	0	t		20.0	2.5	blank	1.0	148.4225788116455	
22	126.04369306564331	movie	1		301	20.0	2.5	blank	1.0	148.4304940700531	2.508739709854126
22	127.63588881492615	pulse	1	t		20.0	2.5	blank	1.0	150.02268981933594	
22	128.55243277549744	fix_post	2		12	20.0	2.5	blank	1.0	150.93923377990723	0.10000324249267578
23	128.6524360179901	fix_pre	0		120	21.0	2.5	/experiments/knapen_AOT/AOT_stimuli/rescaled_final/1526_fw.mp4	0.0	151.0392370223999	1.0085110664367676
23	129.23604130744934	pulse	0	t		21.0	2.5	/experiments/knapen_AOT/AOT_stimuli/rescaled_final/1526_fw.mp4	0.0	151.62284231185913	
23	129.66094708442688	movie	1		288	21.0	2.5	/experiments/knapen_AOT/AOT_stimuli/rescaled_final/1526_fw.mp4	0.0	152.04774808883667	2.492018699645996
23	130.8344202041626	pulse	1	t		21.0	2.5	/experiments/knapen_AOT/AOT_stimuli/rescaled_final/1526_fw.mp4	0.0	153.2212212085724	
23	132.15296578407288	fix_post	2		12	21.0	2.5	/experiments/knapen_AOT/AOT_stimuli/rescaled_final/1526_fw.mp4	0.0	154.53976678848267	0.10009932518005371
24	132.25306510925293	fix_pre	0		120	22.0	2.5	/experiments/knapen_AOT/AOT_stimuli/rescaled_final/1328_fw.mp4	0.0	154.63986611366272	1.0084569454193115
24	132.4368121623993	pulse	0	t		22.0	2.5	/experiments/knapen_AOT/AOT_stimuli/rescaled_final/1328_fw.mp4	0.0	154.82361316680908	
24	133.26152205467224	movie	1		271	22.0	2.5	/experiments/knapen_AOT/AOT_stimuli/rescaled_final/1328_fw.mp4	0.0	155.64832305908203	2.4919888973236084
24	134.03572940826416	pulse	1	t		22.0	2.5	/experiments/knapen_AOT/AOT_stimuli/rescaled_final/1328_fw.mp4	0.0	156.42253041267395	
24	135.63609313964844	pulse	1	t		22.0	2.5	/experiments/knapen_AOT/AOT_stimuli/rescaled_final/1328_fw.mp4	0.0	158.02289414405823	
24	135.75351095199585	fix_post	2		12	22.0	2.5	/experiments/knapen_AOT/AOT_stimuli/rescaled_final/1328_fw.mp4	0.0	158.14031195640564	0.10005474090576172
25	135.8535656929016	fix_pre	0		120	23.0	2.5	/experiments/knapen_AOT/AOT_stimuli/rescaled_final/2152_fw.mp4	0.0	158.2403666973114	1.0084688663482666
25	136.86203455924988	movie	1		265	23.0	2.5	/experiments/knapen_AOT/AOT_stimuli/rescaled_final/2152_fw.mp4	0.0	159.24883556365967	2.492021322250366
25	137.2369725704193	pulse	1	t		23.0	2.5	/experiments/knapen_AOT/AOT_stimuli/rescaled_final/2152_fw.mp4	0.0	159.6237735748291	
25	138.83540630340576	pulse	1	t		23.0	2.5	/experiments/knapen_AOT/AOT_stimuli/rescaled_final/2152_fw.mp4	0.0	161.22220730781555	
25	139.35405588150024	fix_post	2		12	23.0	2.5	/experiments/knapen_AOT/AOT_stimuli/rescaled_final/2152_fw.mp4	0.0	161.74085688591003	0.10000324249267578
26	139.45405912399292	fix_pre	0		119	24.0	2.5	/experiments/knapen_AOT/AOT_stimuli/rescaled_final/1839_fw.mp4	0.0	161.8408601284027	1.0002343654632568
26	140.43789267539978	pulse	0	t		24.0	2.5	/experiments/knapen_AOT/AOT_stimuli/rescaled_final/1839_fw.mp4	0.0	162.82469367980957	
26	140.45429348945618	movie	1		286	24.0	2.5	/experiments/knapen_AOT/AOT_stimuli/rescaled_final/1839_fw.mp4	0.0	162.84109449386597	2.5002877712249756
26	142.0361933708191	pulse	1	t		24.0	2.5	/experiments/knapen_AOT/AOT_stimuli/rescaled_final/1839_fw.mp4	0.0	164.42299437522888	
26	142.95458126068115	fix_post	2		12	24.0	2.5	/experiments/knapen_AOT/AOT_stimuli/rescaled_final/1839_fw.mp4	0.0	165.34138226509094	0.10007238388061523
27	143.05465364456177	fix_pre	0		120	25.0	2.5	/experiments/knapen_AOT/AOT_stimuli/rescaled_final/0330_rv.mp4	0.0	165.44145464897156	1.0084717273712158
27	143.63819909095764	pulse	0	t		25.0	2.5	/experiments/knapen_AOT/AOT_stimuli/rescaled_final/0330_rv.mp4	0.0	166.02500009536743	
27	144.06312537193298	movie	1		273	25.0	2.5	/experiments/knapen_AOT/AOT_stimuli/rescaled_final/0330_rv.mp4	0.0	166.44992637634277	2.492011547088623
27	145.23716640472412	pulse	1	t		25.0	2.5	/experiments/knapen_AOT/AOT_stimuli/rescaled_final/0330_rv.mp4	0.0	167.6239674091339	
27	146.5551369190216	fix_post	2		12	25.0	2.5	/experiments/knapen_AOT/AOT_stimuli/rescaled_final/0330_rv.mp4	0.0	168.9419379234314	0.10001158714294434
28	146.65514850616455	fix_pre	0		120	26.0	2.5	blank	1.0	169.04194951057434	1.0001640319824219
28	146.83873653411865	pulse	0	t		26.0	2.5	blank	1.0	169.22553753852844	
28	147.65531253814697	movie	1		300	26.0	2.5	blank	1.0	170.04211354255676	2.500351905822754
28	148.43901872634888	pulse	1	t		26.0	2.5	blank	1.0	170.82581973075867	
28	150.03928780555725	pulse	1	t		26.0	2.5	blank	1.0	172.42608880996704	
28	150.15566444396973	fix_post	2		12	26.0	2.5	blank	1.0	172.54246544837952	0.10006403923034668
29	150.25572848320007	fix_pre	0		120	27.0	2.5	/experiments/knapen_AOT/AOT_stimuli/rescaled_final/2044_rv.mp4	0.0	172.64252948760986	1.0084500312805176
29	151.2641785144806	movie	1		268	27.0	2.5	/experiments/knapen_AOT/AOT_stimuli/rescaled_final/2044_rv.mp4	0.0	173.65097951889038	2.4920854568481445
29	151.63752126693726	pulse	1	t		27.0	2.5	/experiments/knapen_AOT/AOT_stimuli/rescaled_final/2044_rv.mp4	0.0	174.02432227134705	
29	153.23976683616638	pulse	1	t		27.0	2.5	/experiments/knapen_AOT/AOT_stimuli/rescaled_final/2044_rv.mp4	0.0	175.62656784057617	
29	153.75626397132874	fix_post	2		12	27.0	2.5	/experiments/knapen_AOT/AOT_stimuli/rescaled_final/2044_rv.mp4	0.0	176.14306497573853	0.09995818138122559
30	153.85622215270996	fix_pre	0		119	28.0	2.5	/experiments/knapen_AOT/AOT_stimuli/rescaled_final/1839_rv.mp4	0.0	176.24302315711975	1.0086796283721924
30	154.84018325805664	pulse	0	t		28.0	2.5	/experiments/knapen_AOT/AOT_stimuli/rescaled_final/1839_rv.mp4	0.0	177.22698426246643	
30	154.86490178108215	movie	1		269	28.0	2.5	/experiments/knapen_AOT/AOT_stimuli/rescaled_final/1839_rv.mp4	0.0	177.25170278549194	2.4918525218963623
30	156.43858695030212	pulse	1	t		28.0	2.5	/experiments/knapen_AOT/AOT_stimuli/rescaled_final/1839_rv.mp4	0.0	178.8253879547119	
30	157.35675430297852	fix_post	2		12	28.0	2.5	/experiments/knapen_AOT/AOT_stimuli/rescaled_final/1839_rv.mp4	0.0	179.7435553073883	0.10004210472106934
31	157.45679640769958	fix_pre	0		120	29.0	2.5	/experiments/knapen_AOT/AOT_stimuli/rescaled_final/2008_fw.mp4	0.0	179.84359741210938	1.0085365772247314
31	158.0407087802887	pulse	0	t		29.0	2.5	/experiments/knapen_AOT/AOT_stimuli/rescaled_final/2008_fw.mp4	0.0	180.4275097846985	
31	158.46533298492432	movie	1		275	29.0	2.5	/experiments/knapen_AOT/AOT_stimuli/rescaled_final/2008_fw.mp4	0.0	180.8521339893341	2.4919545650482178
31	159.64040780067444	pulse	1	t		29.0	2.5	/experiments/knapen_AOT/AOT_stimuli/rescaled_final/2008_fw.mp4	0.0	182.02720880508423	
31	160.95728754997253	fix_post	2		12	29.0	2.5	/experiments/knapen_AOT/AOT_stimuli/rescaled_final/2008_fw.mp4	0.0	183.34408855438232	0.10003852844238281
32	161.05732607841492	fix_pre	0		120	30.0	2.5	/experiments/knapen_AOT/AOT_stimuli/rescaled_final/1121_fw.mp4	0.0	183.4441270828247	1.0084798336029053
32	161.24113059043884	pulse	0	t		30.0	2.5	/experiments/knapen_AOT/AOT_stimuli/rescaled_final/1121_fw.mp4	0.0	183.62793159484863	
32	162.06580591201782	movie	1		284	30.0	2.5	/experiments/knapen_AOT/AOT_stimuli/rescaled_final/1121_fw.mp4	0.0	184.4526069164276	2.4920644760131836
32	162.83880758285522	pulse	1	t		30.0	2.5	/experiments/knapen_AOT/AOT_stimuli/rescaled_final/1121_fw.mp4	0.0	185.22560858726501	
32	164.43915915489197	pulse	1	t		30.0	2.5	/experiments/knapen_AOT/AOT_stimuli/rescaled_final/1121_fw.mp4	0.0	186.82596015930176	
32	164.557870388031	fix_post	2		12	30.0	2.5	/experiments/knapen_AOT/AOT_stimuli/rescaled_final/1121_fw.mp4	0.0	186.9446713924408	0.09996676445007324
33	164.65783715248108	fix_pre	0		120	31.0	2.5	/experiments/knapen_AOT/AOT_stimuli/rescaled_final/0111_fw.mp4	0.0	187.04463815689087	1.0085217952728271
33	165.6663589477539	movie	1		275	31.0	2.5	/experiments/knapen_AOT/AOT_stimuli/rescaled_final/0111_fw.mp4	0.0	188.0531599521637	2.492016553878784
33	166.03994941711426	pulse	1	t		31.0	2.5	/experiments/knapen_AOT/AOT_stimuli/rescaled_final/0111_fw.mp4	0.0	188.42675042152405	
33	167.6395308971405	pulse	1	t		31.0	2.5	/experiments/knapen_AOT/AOT_stimuli/rescaled_final/0111_fw.mp4	0.0	190.0263319015503	
33	168.1583755016327	fix_post	2		12	31.0	2.5	/experiments/knapen_AOT/AOT_stimuli/rescaled_final/0111_fw.mp4	0.0	190.54517650604248	0.10008692741394043
34	168.25846242904663	fix_pre	0		118	32.0	2.5	/experiments/knapen_AOT/AOT_stimuli/rescaled_final/1309_rv.mp4	0.0	190.64526343345642	0.9918539524078369
34	169.23408603668213	pulse	0	t		32.0	2.5	/experiments/knapen_AOT/AOT_stimuli/rescaled_final/1309_rv.mp4	0.0	191.62088704109192	
34	169.25031638145447	movie	1		292	32.0	2.5	/experiments/knapen_AOT/AOT_stimuli/rescaled_final/1309_rv.mp4	0.0	191.63711738586426	2.5003275871276855
34	170.83464121818542	pulse	1	t		32.0	2.5	/experiments/knapen_AOT/AOT_stimuli/rescaled_final/1309_rv.mp4	0.0	193.22144222259521	
34	171.75064396858215	fix_post	2		12	32.0	2.5	/experiments/knapen_AOT/AOT_stimuli/rescaled_final/1309_rv.mp4	0.0	194.13744497299194	0.09995508193969727
35	171.85059905052185	fix_pre	0		120	33.0	2.5	/experiments/knapen_AOT/AOT_stimuli/rescaled_final/1057_rv.mp4	0.0	194.23740005493164	1.0085623264312744
35	172.43425631523132	pulse	0	t		33.0	2.5	/experiments/knapen_AOT/AOT_stimuli/rescaled_final/1057_rv.mp4	0.0	194.8210573196411	
35	172.85916137695312	movie	1		263	33.0	2.5	/experiments/knapen_AOT/AOT_stimuli/rescaled_final/1057_rv.mp4	0.0	195.24596238136292	2.4919593334198
35	174.034405708313	pulse	1	t		33.0	2.5	/experiments/knapen_AOT/AOT_stimuli/rescaled_final/1057_rv.mp4	0.0	196.42120671272278	
35	175.35112071037292	fix_post	2		12	33.0	2.5	/experiments/knapen_AOT/AOT_stimuli/rescaled_final/1057_rv.mp4	0.0	197.73792171478271	0.10001850128173828
36	175.45113921165466	fix_pre	0		120	34.0	2.5	blank	1.0	197.83794021606445	1.0002152919769287
36	175.63465785980225	pulse	0	t		34.0	2.5	blank	1.0	198.02145886421204	
36	176.4513545036316	movie	1		300	34.0	2.5	blank	1.0	198.83815550804138	2.500308036804199
36	177.23484468460083	pulse	1	t		34.0	2.5	blank	1.0	199.62164568901062	
36	178.8351230621338	pulse	1	t		34.0	2.5	blank	1.0	201.22192406654358	
36	178.9516625404358	fix_post	2		12	34.0	2.5	blank	1.0	201.33846354484558	0.09999918937683105
37	179.05166172981262	fix_pre	0		120	35.0	2.5	/experiments/knapen_AOT/AOT_stimuli/rescaled_final/1937_fw.mp4	0.0	201.4384627342224	1.008544921875
37	180.06020665168762	movie	1		273	35.0	2.5	/experiments/knapen_AOT/AOT_stimuli/rescaled_final/1937_fw.mp4	0.0	202.4470076560974	2.491990566253662
37	180.43409872055054	pulse	1	t		35.0	2.5	/experiments/knapen_AOT/AOT_stimuli/rescaled_final/1937_fw.mp4	0.0	202.82089972496033	
37	182.03569841384888	pulse	1	t		35.0	2.5	/experiments/knapen_AOT/AOT_stimuli/rescaled_final/1937_fw.mp4	0.0	204.42249941825867	
37	182.55219721794128	fix_post	2		12	35.0	2.5	/experiments/knapen_AOT/AOT_stimuli/rescaled_final/1937_fw.mp4	0.0	204.93899822235107	0.1000053882598877
38	182.65220260620117	fix_pre	0		119	36.0	2.5	/experiments/knapen_AOT/AOT_stimuli/rescaled_final/1145_fw.mp4	0.0	205.03900361061096	1.0001707077026367
38	183.63600516319275	pulse	0	t		36.0	2.5	/experiments/knapen_AOT/AOT_stimuli/rescaled_final/1145_fw.mp4	0.0	206.02280616760254	
38	183.6523733139038	movie	1		281	36.0	2.5	/experiments/knapen_AOT/AOT_stimuli/rescaled_final/1145_fw.mp4	0.0	206.0391743183136	2.5004019737243652
38	185.23519372940063	pulse	1	t		36.0	2.5	/experiments/knapen_AOT/AOT_stimuli/rescaled_final/1145_fw.mp4	0.0	207.62199473381042	
38	186.15277528762817	fix_post	2		12	36.0	2.5	/experiments/knapen_AOT/AOT_stimuli/rescaled_final/1145_fw.mp4	0.0	208.53957629203796	0.09999322891235352
39	186.25276851654053	fix_pre	0		120	37.0	2.5	/experiments/knapen_AOT/AOT_stimuli/rescaled_final/1257_rv.mp4	0.0	208.63956952095032	1.008491039276123
39	186.8364074230194	pulse	0	t		37.0	2.5	/experiments/knapen_AOT/AOT_stimuli/rescaled_final/1257_rv.mp4	0.0	209.2232084274292	
39	187.26125955581665	movie	1		282	37.0	2.5	/experiments/knapen_AOT/AOT_stimuli/rescaled_final/1257_rv.mp4	0.0	209.64806056022644	2.4920361042022705
39	188.43506932258606	pulse	1	t		37.0	2.5	/experiments/knapen_AOT/AOT_stimuli/rescaled_final/1257_rv.mp4	0.0	210.82187032699585	
39	189.75329566001892	fix_post	2		12	37.0	2.5	/experiments/knapen_AOT/AOT_stimuli/rescaled_final/1257_rv.mp4	0.0	212.1400966644287	0.1000053882598877
40	189.8533010482788	fix_pre	0		120	38.0	2.5	/experiments/knapen_AOT/AOT_stimuli/rescaled_final/1623_fw.mp4	0.0	212.2401020526886	1.0084874629974365
40	190.03698062896729	pulse	0	t		38.0	2.5	/experiments/knapen_AOT/AOT_stimuli/rescaled_final/1623_fw.mp4	0.0	212.42378163337708	
40	190.86178851127625	movie	1		272	38.0	2.5	/experiments/knapen_AOT/AOT_stimuli/rescaled_final/1623_fw.mp4	0.0	213.24858951568604	2.492046594619751
40	191.63718485832214	pulse	1	t		38.0	2.5	/experiments/knapen_AOT/AOT_stimuli/rescaled_final/1623_fw.mp4	0.0	214.02398586273193	
40	193.2353036403656	pulse	1	t		38.0	2.5	/experiments/knapen_AOT/AOT_stimuli/rescaled_final/1623_fw.mp4	0.0	215.6221046447754	
40	193.353835105896	fix_post	2		12	38.0	2.5	/experiments/knapen_AOT/AOT_stimuli/rescaled_final/1623_fw.mp4	0.0	215.7406361103058	0.10012054443359375
41	193.4539556503296	fix_pre	0		120	39.0	2.5	/experiments/knapen_AOT/AOT_stimuli/rescaled_final/1547_fw.mp4	0.0	215.84075665473938	1.008385419845581
41	194.46234107017517	movie	1		269	39.0	2.5	/experiments/knapen_AOT/AOT_stimuli/rescaled_final/1547_fw.mp4	0.0	216.84914207458496	2.492013692855835
41	194.83610653877258	pulse	1	t		39.0	2.5	/experiments/knapen_AOT/AOT_stimuli/rescaled_final/1547_fw.mp4	0.0	217.22290754318237	
41	196.43790888786316	pulse	1	t		39.0	2.5	/experiments/knapen_AOT/AOT_stimuli/rescaled_final/1547_fw.mp4	0.0	218.82470989227295	
41	196.954354763031	fix_post	2		12	39.0	2.5	/experiments/knapen_AOT/AOT_stimuli/rescaled_final/1547_fw.mp4	0.0	219.3411557674408	0.10009574890136719
42	197.05445051193237	fix_pre	0		119	40.0	2.5	/experiments/knapen_AOT/AOT_stimuli/rescaled_final/0823_fw.mp4	0.0	219.44125151634216	1.0000996589660645
42	198.03812503814697	pulse	0	t		40.0	2.5	/experiments/knapen_AOT/AOT_stimuli/rescaled_final/0823_fw.mp4	0.0	220.42492604255676	
42	198.05455017089844	movie	1		271	40.0	2.5	/experiments/knapen_AOT/AOT_stimuli/rescaled_final/0823_fw.mp4	0.0	220.44135117530823	2.5003843307495117
42	199.6376793384552	pulse	1	t		40.0	2.5	/experiments/knapen_AOT/AOT_stimuli/rescaled_final/0823_fw.mp4	0.0	222.024480342865	
42	200.55493450164795	fix_post	2		12	40.0	2.5	/experiments/knapen_AOT/AOT_stimuli/rescaled_final/0823_fw.mp4	0.0	222.94173550605774	0.09999370574951172
43	200.65492820739746	fix_pre	0		120	41.0	2.5	blank	1.0	223.04172921180725	1.0002574920654297
43	201.2385675907135	pulse	0	t		41.0	2.5	blank	1.0	223.6253685951233	
43	201.6551856994629	movie	1		300	41.0	2.5	blank	1.0	224.04198670387268	2.500288963317871
43	202.83889150619507	pulse	1	t		41.0	2.5	blank	1.0	225.22569251060486	
43	204.15547466278076	fix_post	2		12	41.0	2.5	blank	1.0	226.54227566719055	0.10005569458007812
44	204.25553035736084	fix_pre	0		120	42.0	2.5	/experiments/knapen_AOT/AOT_stimuli/rescaled_final/0892_rv.mp4	0.0	226.64233136177063	1.0084149837493896
44	204.43900799751282	pulse	0	t		42.0	2.5	/experiments/knapen_AOT/AOT_stimuli/rescaled_final/0892_rv.mp4	0.0	226.8258090019226	
44	205.26394534111023	movie	1		281	42.0	2.5	/experiments/knapen_AOT/AOT_stimuli/rescaled_final/0892_rv.mp4	0.0	227.65074634552002	2.49208927154541
44	206.03758835792542	pulse	1	t		42.0	2.5	/experiments/knapen_AOT/AOT_stimuli/rescaled_final/0892_rv.mp4	0.0	228.4243893623352	
44	207.63750052452087	pulse	1	t		42.0	2.5	/experiments/knapen_AOT/AOT_stimuli/rescaled_final/0892_rv.mp4	0.0	230.02430152893066	
44	207.75603461265564	fix_post	2		12	42.0	2.5	/experiments/knapen_AOT/AOT_stimuli/rescaled_final/0892_rv.mp4	0.0	230.14283561706543	0.09998798370361328
45	207.85602259635925	fix_pre	0		120	43.0	2.5	/experiments/knapen_AOT/AOT_stimuli/rescaled_final/0756_fw.mp4	0.0	230.24282360076904	1.0085711479187012
45	208.86459374427795	movie	1		286	43.0	2.5	/experiments/knapen_AOT/AOT_stimuli/rescaled_final/0756_fw.mp4	0.0	231.25139474868774	2.492027521133423
45	209.23804879188538	pulse	1	t		43.0	2.5	/experiments/knapen_AOT/AOT_stimuli/rescaled_final/0756_fw.mp4	0.0	231.62484979629517	
45	210.83788013458252	pulse	1	t		43.0	2.5	/experiments/knapen_AOT/AOT_stimuli/rescaled_final/0756_fw.mp4	0.0	233.2246811389923	
45	211.35662126541138	fix_post	2		12	43.0	2.5	/experiments/knapen_AOT/AOT_stimuli/rescaled_final/0756_fw.mp4	0.0	233.74342226982117	0.09998726844787598
46	211.45660853385925	fix_pre	0		119	44.0	2.5	/experiments/knapen_AOT/AOT_stimuli/rescaled_final/1798_fw.mp4	0.0	233.84340953826904	1.000119686126709
46	212.44031047821045	pulse	0	t		44.0	2.5	/experiments/knapen_AOT/AOT_stimuli/rescaled_final/1798_fw.mp4	0.0	234.82711148262024	
46	212.45672821998596	movie	1		286	44.0	2.5	/experiments/knapen_AOT/AOT_stimuli/rescaled_final/1798_fw.mp4	0.0	234.84352922439575	2.5003559589385986
46	214.03938508033752	pulse	1	t		44.0	2.5	/experiments/knapen_AOT/AOT_stimuli/rescaled_final/1798_fw.mp4	0.0	236.42618608474731	
46	214.95708417892456	fix_post	2		12	44.0	2.5	/experiments/knapen_AOT/AOT_stimuli/rescaled_final/1798_fw.mp4	0.0	237.34388518333435	0.10004472732543945
47	215.05712890625	fix_pre	0		120	45.0	2.5	/experiments/knapen_AOT/AOT_stimuli/rescaled_final/2135_rv.mp4	0.0	237.4439299106598	1.0085070133209229
47	215.64103770256042	pulse	0	t		45.0	2.5	/experiments/knapen_AOT/AOT_stimuli/rescaled_final/2135_rv.mp4	0.0	238.02783870697021	
47	216.06563591957092	movie	1		284	45.0	2.5	/experiments/knapen_AOT/AOT_stimuli/rescaled_final/2135_rv.mp4	0.0	238.4524369239807	2.491964817047119
47	217.239563703537	pulse	1	t		45.0	2.5	/experiments/knapen_AOT/AOT_stimuli/rescaled_final/2135_rv.mp4	0.0	239.62636470794678	
47	218.55760073661804	fix_post	2		12	45.0	2.5	/experiments/knapen_AOT/AOT_stimuli/rescaled_final/2135_rv.mp4	0.0	240.94440174102783	0.10002493858337402
48	218.65762567520142	fix_pre	0		120	46.0	2.5	/experiments/knapen_AOT/AOT_stimuli/rescaled_final/1880_rv.mp4	0.0	241.0444266796112	1.0085248947143555
48	218.84146976470947	pulse	0	t		46.0	2.5	/experiments/knapen_AOT/AOT_stimuli/rescaled_final/1880_rv.mp4	0.0	241.22827076911926	
48	219.66615056991577	movie	1		258	46.0	2.5	/experiments/knapen_AOT/AOT_stimuli/rescaled_final/1880_rv.mp4	0.0	242.05295157432556	2.4920170307159424
48	220.43920922279358	pulse	1	t		46.0	2.5	/experiments/knapen_AOT/AOT_stimuli/rescaled_final/1880_rv.mp4	0.0	242.82601022720337	
48	222.0396249294281	pulse	1	t		46.0	2.5	/experiments/knapen_AOT/AOT_stimuli/rescaled_final/1880_rv.mp4	0.0	244.4264259338379	
48	222.1581676006317	fix_post	2		12	46.0	2.5	/experiments/knapen_AOT/AOT_stimuli/rescaled_final/1880_rv.mp4	0.0	244.5449686050415	0.10000133514404297
49	222.25816893577576	fix_pre	0		120	47.0	2.5	/experiments/knapen_AOT/AOT_stimuli/rescaled_final/1232_fw.mp4	0.0	244.64496994018555	1.0085258483886719
49	223.26669478416443	movie	1		294	47.0	2.5	/experiments/knapen_AOT/AOT_stimuli/rescaled_final/1232_fw.mp4	0.0	245.65349578857422	2.4919886589050293
49	223.6404390335083	pulse	1	t		47.0	2.5	/experiments/knapen_AOT/AOT_stimuli/rescaled_final/1232_fw.mp4	0.0	246.0272400379181	
49	225.24005556106567	pulse	1	t		47.0	2.5	/experiments/knapen_AOT/AOT_stimuli/rescaled_final/1232_fw.mp4	0.0	247.62685656547546	
49	225.75868344306946	fix_post	2		12	47.0	2.5	/experiments/knapen_AOT/AOT_stimuli/rescaled_final/1232_fw.mp4	0.0	248.14548444747925	0.10004615783691406
50	225.85872960090637	fix_pre	0		118	48.0	2.5	/experiments/knapen_AOT/AOT_stimuli/rescaled_final/1951_rv.mp4	0.0	248.24553060531616	0.9918899536132812
50	226.83446383476257	pulse	0	t		48.0	2.5	/experiments/knapen_AOT/AOT_stimuli/rescaled_final/1951_rv.mp4	0.0	249.22126483917236	
50	226.85061955451965	movie	1		291	48.0	2.5	/experiments/knapen_AOT/AOT_stimuli/rescaled_final/1951_rv.mp4	0.0	249.23742055892944	2.500288724899292
50	228.43481540679932	pulse	1	t		48.0	2.5	/experiments/knapen_AOT/AOT_stimuli/rescaled_final/1951_rv.mp4	0.0	250.8216164112091	
50	229.35090827941895	fix_post	2		12	48.0	2.5	/experiments/knapen_AOT/AOT_stimuli/rescaled_final/1951_rv.mp4	0.0	251.73770928382874	0.10001587867736816
51	229.4509241580963	fix_pre	0		120	49.0	2.5	blank	1.0	251.8377251625061	1.0001499652862549
51	230.03474140167236	pulse	0	t		49.0	2.5	blank	1.0	252.42154240608215	
51	230.45107412338257	movie	1		300	49.0	2.5	blank	1.0	252.83787512779236	2.500391960144043
51	231.63480806350708	pulse	1	t		49.0	2.5	blank	1.0	254.02160906791687	
51	232.9514660835266	fix_post	2		12	49.0	2.5	blank	1.0	255.3382670879364	0.10000777244567871
52	233.0514738559723	fix_pre	0		120	50.0	2.5	/experiments/knapen_AOT/AOT_stimuli/rescaled_final/1152_fw.mp4	0.0	255.43827486038208	1.008479356765747
52	233.23505878448486	pulse	0	t		50.0	2.5	/experiments/knapen_AOT/AOT_stimuli/rescaled_final/1152_fw.mp4	0.0	255.62185978889465	
52	234.05995321273804	movie	1		281	50.0	2.5	/experiments/knapen_AOT/AOT_stimuli/rescaled_final/1152_fw.mp4	0.0	256.4467542171478	2.492035150527954
52	234.83529996871948	pulse	1	t		50.0	2.5	/experiments/knapen_AOT/AOT_stimuli/rescaled_final/1152_fw.mp4	0.0	257.2221009731293	
52	236.43566226959229	pulse	1	t		50.0	2.5	/experiments/knapen_AOT/AOT_stimuli/rescaled_final/1152_fw.mp4	0.0	258.8224632740021	
52	236.551988363266	fix_post	2		12	50.0	2.5	/experiments/knapen_AOT/AOT_stimuli/rescaled_final/1152_fw.mp4	0.0	258.9387893676758	0.10001277923583984
53	236.65200114250183	fix_pre	0		120	51.0	2.5	/experiments/knapen_AOT/AOT_stimuli/rescaled_final/0253_rv.mp4	0.0	259.0388021469116	1.0085029602050781
53	237.6605041027069	movie	1		282	51.0	2.5	/experiments/knapen_AOT/AOT_stimuli/rescaled_final/0253_rv.mp4	0.0	260.0473051071167	2.492039918899536
53	238.03581857681274	pulse	1	t		51.0	2.5	/experiments/knapen_AOT/AOT_stimuli/rescaled_final/0253_rv.mp4	0.0	260.42261958122253	
53	239.63601446151733	pulse	1	t		51.0	2.5	/experiments/knapen_AOT/AOT_stimuli/rescaled_final/0253_rv.mp4	0.0	262.0228154659271	
53	240.15254402160645	fix_post	2		12	51.0	2.5	/experiments/knapen_AOT/AOT_stimuli/rescaled_final/0253_rv.mp4	0.0	262.53934502601624	0.09999346733093262
54	240.25253748893738	fix_pre	0		119	52.0	2.5	/experiments/knapen_AOT/AOT_stimuli/rescaled_final/0525_fw.mp4	0.0	262.63933849334717	1.0001420974731445
54	241.2362358570099	pulse	0	t		52.0	2.5	/experiments/knapen_AOT/AOT_stimuli/rescaled_final/0525_fw.mp4	0.0	263.6230368614197	
54	241.25267958641052	movie	1		284	52.0	2.5	/experiments/knapen_AOT/AOT_stimuli/rescaled_final/0525_fw.mp4	0.0	263.6394805908203	2.5003881454467773
54	242.83685445785522	pulse	1	t		52.0	2.5	/experiments/knapen_AOT/AOT_stimuli/rescaled_final/0525_fw.mp4	0.0	265.223655462265	
54	243.7530677318573	fix_post	2		12	52.0	2.5	/experiments/knapen_AOT/AOT_stimuli/rescaled_final/0525_fw.mp4	0.0	266.1398687362671	0.10004925727844238
55	243.85311698913574	fix_pre	0		120	53.0	2.5	/experiments/knapen_AOT/AOT_stimuli/rescaled_final/1035_rv.mp4	0.0	266.23991799354553	1.0085382461547852
55	244.43678212165833	pulse	0	t		53.0	2.5	/experiments/knapen_AOT/AOT_stimuli/rescaled_final/1035_rv.mp4	0.0	266.8235831260681	
55	244.86165523529053	movie	1		264	53.0	2.5	/experiments/knapen_AOT/AOT_stimuli/rescaled_final/1035_rv.mp4	0.0	267.2484562397003	2.491950273513794
55	246.0357370376587	pulse	1	t		53.0	2.5	/experiments/knapen_AOT/AOT_stimuli/rescaled_final/1035_rv.mp4	0.0	268.4225380420685	
55	247.35360550880432	fix_post	2		12	53.0	2.5	/experiments/knapen_AOT/AOT_stimuli/rescaled_final/1035_rv.mp4	0.0	269.7404065132141	0.1000056266784668
56	247.4536111354828	fix_pre	0		120	54.0	2.5	/experiments/knapen_AOT/AOT_stimuli/rescaled_final/0165_rv.mp4	0.0	269.8404121398926	1.0085351467132568
56	247.63738250732422	pulse	0	t		54.0	2.5	/experiments/knapen_AOT/AOT_stimuli/rescaled_final/0165_rv.mp4	0.0	270.024183511734	
56	248.46214628219604	movie	1		269	54.0	2.5	/experiments/knapen_AOT/AOT_stimuli/rescaled_final/0165_rv.mp4	0.0	270.84894728660583	2.4921317100524902
56	249.2375180721283	pulse	1	t		54.0	2.5	/experiments/knapen_AOT/AOT_stimuli/rescaled_final/0165_rv.mp4	0.0	271.6243190765381	
56	250.83563375473022	pulse	1	t		54.0	2.5	/experiments/knapen_AOT/AOT_stimuli/rescaled_final/0165_rv.mp4	0.0	273.22243475914	
56	250.95427799224854	fix_post	2		12	54.0	2.5	/experiments/knapen_AOT/AOT_stimuli/rescaled_final/0165_rv.mp4	0.0	273.3410789966583	0.09991979598999023
57	251.05419778823853	fix_pre	0		120	55.0	2.5	blank	1.0	273.4409987926483	1.000122308731079
57	252.0543200969696	movie	1		300	55.0	2.5	blank	1.0	274.4411211013794	2.5003628730773926
57	252.43792986869812	pulse	1	t		55.0	2.5	blank	1.0	274.8247308731079	
57	254.03813695907593	pulse	1	t		55.0	2.5	blank	1.0	276.4249379634857	
57	254.554682970047	fix_post	2		12	55.0	2.5	blank	1.0	276.9414839744568	0.10002923011779785
58	254.6547122001648	fix_pre	0		119	56.0	2.5	/experiments/knapen_AOT/AOT_stimuli/rescaled_final/0756_fw.mp4	0.0	277.0415132045746	1.000213861465454
58	255.6383774280548	pulse	0	t		56.0	2.5	/experiments/knapen_AOT/AOT_stimuli/rescaled_final/0756_fw.mp4	0.0	278.0251784324646	
58	255.65492606163025	movie	1		286	56.0	2.5	/experiments/knapen_AOT/AOT_stimuli/rescaled_final/0756_fw.mp4	0.0	278.04172706604004	2.5003299713134766
58	257.2367787361145	pulse	1	t		56.0	2.5	/experiments/knapen_AOT/AOT_stimuli/rescaled_final/0756_fw.mp4	0.0	279.6235797405243	
58	258.1552560329437	fix_post	2		12	56.0	2.5	/experiments/knapen_AOT/AOT_stimuli/rescaled_final/0756_fw.mp4	0.0	280.5420570373535	0.10000061988830566
59	258.25525665283203	fix_pre	0		120	57.0	2.5	/experiments/knapen_AOT/AOT_stimuli/rescaled_final/0641_rv.mp4	0.0	280.6420576572418	1.008491039276123
59	258.8388442993164	pulse	0	t		57.0	2.5	/experiments/knapen_AOT/AOT_stimuli/rescaled_final/0641_rv.mp4	0.0	281.2256453037262	
59	259.26374769210815	movie	1		286	57.0	2.5	/experiments/knapen_AOT/AOT_stimuli/rescaled_final/0641_rv.mp4	0.0	281.65054869651794	2.4921069145202637
59	260.43720960617065	pulse	1	t		57.0	2.5	/experiments/knapen_AOT/AOT_stimuli/rescaled_final/0641_rv.mp4	0.0	282.82401061058044	
59	261.7558546066284	fix_post	2		12	57.0	2.5	/experiments/knapen_AOT/AOT_stimuli/rescaled_final/0641_rv.mp4	0.0	284.1426556110382	0.09999203681945801
60	261.8558466434479	fix_pre	0		120	58.0	2.5	/experiments/knapen_AOT/AOT_stimuli/rescaled_final/0358_fw.mp4	0.0	284.24264764785767	1.0085067749023438
60	262.0393395423889	pulse	0	t		58.0	2.5	/experiments/knapen_AOT/AOT_stimuli/rescaled_final/0358_fw.mp4	0.0	284.4261405467987	
60	262.8643534183502	movie	1		279	58.0	2.5	/experiments/knapen_AOT/AOT_stimuli/rescaled_final/0358_fw.mp4	0.0	285.25115442276	2.491952419281006
60	263.637437582016	pulse	1	t		58.0	2.5	/experiments/knapen_AOT/AOT_stimuli/rescaled_final/0358_fw.mp4	0.0	286.0242385864258	
60	265.23764967918396	pulse	1	t		58.0	2.5	/experiments/knapen_AOT/AOT_stimuli/rescaled_final/0358_fw.mp4	0.0	287.62445068359375	
60	265.3563058376312	fix_post	2		12	58.0	2.5	/experiments/knapen_AOT/AOT_stimuli/rescaled_final/0358_fw.mp4	0.0	287.743106842041	0.10003352165222168
61	265.45633935928345	fix_pre	0		120	59.0	2.5	/experiments/knapen_AOT/AOT_stimuli/rescaled_final/1513_rv.mp4	0.0	287.84314036369324	1.008476972579956
61	266.4648163318634	movie	1		271	59.0	2.5	/experiments/knapen_AOT/AOT_stimuli/rescaled_final/1513_rv.mp4	0.0	288.8516173362732	2.492225408554077
61	266.8401987552643	pulse	1	t		59.0	2.5	/experiments/knapen_AOT/AOT_stimuli/rescaled_final/1513_rv.mp4	0.0	289.2269997596741	
61	268.43834590911865	pulse	1	t		59.0	2.5	/experiments/knapen_AOT/AOT_stimuli/rescaled_final/1513_rv.mp4	0.0	290.82514691352844	
61	268.9570417404175	fix_post	2		12	59.0	2.5	/experiments/knapen_AOT/AOT_stimuli/rescaled_final/1513_rv.mp4	0.0	291.34384274482727	0.09980273246765137
62	269.05684447288513	fix_pre	0		119	60.0	2.5	/experiments/knapen_AOT/AOT_stimuli/rescaled_final/1138_fw.mp4	0.0	291.4436454772949	1.0002527236938477
62	270.04083013534546	pulse	0	t		60.0	2.5	/experiments/knapen_AOT/AOT_stimuli/rescaled_final/1138_fw.mp4	0.0	292.42763113975525	
62	270.057097196579	movie	1		281	60.0	2.5	/experiments/knapen_AOT/AOT_stimuli/rescaled_final/1138_fw.mp4	0.0	292.44389820098877	2.500295400619507
62	271.6399962902069	pulse	1	t		60.0	2.5	/experiments/knapen_AOT/AOT_stimuli/rescaled_final/1138_fw.mp4	0.0	294.0267972946167	
62	272.5573925971985	fix_post	2		12	60.0	2.5	/experiments/knapen_AOT/AOT_stimuli/rescaled_final/1138_fw.mp4	0.0	294.9441936016083	0.10001969337463379
63	272.6574122905731	fix_pre	0		120	61.0	2.5	/experiments/knapen_AOT/AOT_stimuli/rescaled_final/2174_fw.mp4	0.0	295.0442132949829	1.0085206031799316
63	273.24104738235474	pulse	0	t		61.0	2.5	/experiments/knapen_AOT/AOT_stimuli/rescaled_final/2174_fw.mp4	0.0	295.6278483867645	
63	273.66593289375305	movie	1		268	61.0	2.5	/experiments/knapen_AOT/AOT_stimuli/rescaled_final/2174_fw.mp4	0.0	296.05273389816284	2.492041826248169
63	274.83928060531616	pulse	1	t		61.0	2.5	/experiments/knapen_AOT/AOT_stimuli/rescaled_final/2174_fw.mp4	0.0	297.22608160972595	
63	276.1579747200012	fix_post	2		12	61.0	2.5	/experiments/knapen_AOT/AOT_stimuli/rescaled_final/2174_fw.mp4	0.0	298.544775724411	0.09998202323913574
64	276.25795674324036	fix_pre	0		120	62.0	2.5	/experiments/knapen_AOT/AOT_stimuli/rescaled_final/1381_rv.mp4	0.0	298.64475774765015	1.008552074432373
64	276.44167613983154	pulse	0	t		62.0	2.5	/experiments/knapen_AOT/AOT_stimuli/rescaled_final/1381_rv.mp4	0.0	298.82847714424133	
64	277.26650881767273	movie	1		273	62.0	2.5	/experiments/knapen_AOT/AOT_stimuli/rescaled_final/1381_rv.mp4	0.0	299.6533098220825	2.4920237064361572
64	278.03997135162354	pulse	1	t		62.0	2.5	/experiments/knapen_AOT/AOT_stimuli/rescaled_final/1381_rv.mp4	0.0	300.4267723560333	
64	279.6400890350342	pulse	1	t		62.0	2.5	/experiments/knapen_AOT/AOT_stimuli/rescaled_final/1381_rv.mp4	0.0	302.02689003944397	
64	279.7585325241089	fix_post	2		12	62.0	2.5	/experiments/knapen_AOT/AOT_stimuli/rescaled_final/1381_rv.mp4	0.0	302.1453335285187	0.10000061988830566
65	279.8585331439972	fix_pre	0		120	63.0	2.5	blank	1.0	302.245334148407	1.0001139640808105
65	280.858647108078	movie	1		300	63.0	2.5	blank	1.0	303.2454481124878	2.5003557205200195
65	281.2423930168152	pulse	1	t		63.0	2.5	blank	1.0	303.629194021225	
65	282.84247040748596	pulse	1	t		63.0	2.5	blank	1.0	305.22927141189575	
65	283.359002828598	fix_post	2		12	63.0	2.5	blank	1.0	305.7458038330078	0.10004186630249023
66	283.4590446949005	fix_pre	0		119	64.0	2.5	/experiments/knapen_AOT/AOT_stimuli/rescaled_final/0548_fw.mp4	0.0	305.8458456993103	1.000124454498291
66	284.4349958896637	pulse	0	t		64.0	2.5	/experiments/knapen_AOT/AOT_stimuli/rescaled_final/0548_fw.mp4	0.0	306.8217968940735	
66	284.4591691493988	movie	1		289	64.0	2.5	/experiments/knapen_AOT/AOT_stimuli/rescaled_final/0548_fw.mp4	0.0	306.8459701538086	2.5004196166992188
66	286.03545331954956	pulse	1	t		64.0	2.5	/experiments/knapen_AOT/AOT_stimuli/rescaled_final/0548_fw.mp4	0.0	308.42225432395935	
66	286.959588766098	fix_post	2		12	64.0	2.5	/experiments/knapen_AOT/AOT_stimuli/rescaled_final/0548_fw.mp4	0.0	309.3463897705078	0.09999632835388184
67	287.0595850944519	fix_pre	0		120	65.0	2.5	/experiments/knapen_AOT/AOT_stimuli/rescaled_final/1112_rv.mp4	0.0	309.4463860988617	1.0084984302520752
67	287.6351659297943	pulse	0	t		65.0	2.5	/experiments/knapen_AOT/AOT_stimuli/rescaled_final/1112_rv.mp4	0.0	310.0219669342041	
67	288.068083524704	movie	1		286	65.0	2.5	/experiments/knapen_AOT/AOT_stimuli/rescaled_final/1112_rv.mp4	0.0	310.45488452911377	2.4920144081115723
67	289.23519253730774	pulse	1	t		65.0	2.5	/experiments/knapen_AOT/AOT_stimuli/rescaled_final/1112_rv.mp4	0.0	311.62199354171753	
67	290.56009793281555	fix_post	2		12	65.0	2.5	/experiments/knapen_AOT/AOT_stimuli/rescaled_final/1112_rv.mp4	0.0	312.94689893722534	0.1000814437866211
68	290.6601793766022	fix_pre	0		120	66.0	2.5	/experiments/knapen_AOT/AOT_stimuli/rescaled_final/0480_fw.mp4	0.0	313.04698038101196	1.008451223373413
68	290.83550786972046	pulse	0	t		66.0	2.5	/experiments/knapen_AOT/AOT_stimuli/rescaled_final/0480_fw.mp4	0.0	313.22230887413025	
68	291.6686305999756	movie	1		280	66.0	2.5	/experiments/knapen_AOT/AOT_stimuli/rescaled_final/0480_fw.mp4	0.0	314.0554316043854	2.492003917694092
68	292.4357388019562	pulse	1	t		66.0	2.5	/experiments/knapen_AOT/AOT_stimuli/rescaled_final/0480_fw.mp4	0.0	314.82253980636597	
68	294.03576827049255	pulse	1	t		66.0	2.5	/experiments/knapen_AOT/AOT_stimuli/rescaled_final/0480_fw.mp4	0.0	316.42256927490234	
68	294.1606345176697	fix_post	2		12	66.0	2.5	/experiments/knapen_AOT/AOT_stimuli/rescaled_final/0480_fw.mp4	0.0	316.54743552207947	0.10002875328063965
69	294.2606632709503	fix_pre	0		120	67.0	2.5	/experiments/knapen_AOT/AOT_stimuli/rescaled_final/0869_fw.mp4	0.0	316.6474642753601	1.0085046291351318
69	295.26916790008545	movie	1		276	67.0	2.5	/experiments/knapen_AOT/AOT_stimuli/rescaled_final/0869_fw.mp4	0.0	317.65596890449524	2.4922170639038086
69	295.6347188949585	pulse	1	t		67.0	2.5	/experiments/knapen_AOT/AOT_stimuli/rescaled_final/0869_fw.mp4	0.0	318.0215198993683	
69	297.2364704608917	pulse	1	t		67.0	2.5	/experiments/knapen_AOT/AOT_stimuli/rescaled_final/0869_fw.mp4	0.0	319.6232714653015	
69	297.76138496398926	fix_post	2		12	67.0	2.5	/experiments/knapen_AOT/AOT_stimuli/rescaled_final/0869_fw.mp4	0.0	320.14818596839905	0.09982466697692871
70	297.8612096309662	fix_pre	0		118	68.0	2.5	/experiments/knapen_AOT/AOT_stimuli/rescaled_final/0765_rv.mp4	0.0	320.248010635376	1.000365972518921
70	298.83660888671875	pulse	0	t		68.0	2.5	/experiments/knapen_AOT/AOT_stimuli/rescaled_final/0765_rv.mp4	0.0	321.22340989112854	
70	298.8615756034851	movie	1		284	68.0	2.5	/experiments/knapen_AOT/AOT_stimuli/rescaled_final/0765_rv.mp4	0.0	321.2483766078949	2.4918160438537598
70	300.43544936180115	pulse	1	t		68.0	2.5	/experiments/knapen_AOT/AOT_stimuli/rescaled_final/0765_rv.mp4	0.0	322.82225036621094	
70	301.35339164733887	fix_post	2		12	68.0	2.5	/experiments/knapen_AOT/AOT_stimuli/rescaled_final/0765_rv.mp4	0.0	323.74019265174866	0.10001993179321289
71	301.4534115791321	fix_pre	0		120	69.0	2.5	blank	1.0	323.84021258354187	1.0001451969146729
71	302.0370557308197	pulse	0	t		69.0	2.5	blank	1.0	324.4238567352295	
71	302.45355677604675	movie	1		300	69.0	2.5	blank	1.0	324.84035778045654	2.5004091262817383
71	303.6372399330139	pulse	1	t		69.0	2.5	blank	1.0	326.0240409374237	
71	304.9539659023285	fix_post	2		12	69.0	2.5	blank	1.0	327.3407669067383	0.09999752044677734
72	305.05396342277527	fix_pre	0		119	70.0	2.5	/experiments/knapen_AOT/AOT_stimuli/rescaled_final/1568_rv.mp4	0.0	327.44076442718506	1.0085570812225342
72	305.23781991004944	pulse	0	t		70.0	2.5	/experiments/knapen_AOT/AOT_stimuli/rescaled_final/1568_rv.mp4	0.0	327.62462091445923	
72	306.0625205039978	movie	1		277	70.0	2.5	/experiments/knapen_AOT/AOT_stimuli/rescaled_final/1568_rv.mp4	0.0	328.4493215084076	2.4920501708984375
72	306.8358221054077	pulse	1	t		70.0	2.5	/experiments/knapen_AOT/AOT_stimuli/rescaled_final/1568_rv.mp4	0.0	329.2226231098175	
72	308.4357967376709	pulse	1	t		70.0	2.5	/experiments/knapen_AOT/AOT_stimuli/rescaled_final/1568_rv.mp4	0.0	330.8225977420807	
72	308.55457067489624	fix_post	2		12	70.0	2.5	/experiments/knapen_AOT/AOT_stimuli/rescaled_final/1568_rv.mp4	0.0	330.94137167930603	0.0999295711517334
73	308.654500246048	fix_pre	0		120	71.0	2.5	/experiments/knapen_AOT/AOT_stimuli/rescaled_final/1437_rv.mp4	0.0	331.04130125045776	1.0084946155548096
73	309.6629948616028	movie	1		273	71.0	2.5	/experiments/knapen_AOT/AOT_stimuli/rescaled_final/1437_rv.mp4	0.0	332.0497958660126	2.492039680480957
73	310.0374929904938	pulse	1	t		71.0	2.5	/experiments/knapen_AOT/AOT_stimuli/rescaled_final/1437_rv.mp4	0.0	332.42429399490356	
73	311.63624238967896	pulse	1	t		71.0	2.5	/experiments/knapen_AOT/AOT_stimuli/rescaled_final/1437_rv.mp4	0.0	334.02304339408875	
73	312.15503454208374	fix_post	2		12	71.0	2.5	/experiments/knapen_AOT/AOT_stimuli/rescaled_final/1437_rv.mp4	0.0	334.54183554649353	0.10002803802490234
74	312.25506258010864	fix_pre	0		119	72.0	2.5	/experiments/knapen_AOT/AOT_stimuli/rescaled_final/1695_rv.mp4	0.0	334.64186358451843	1.0003139972686768
74	313.2390806674957	pulse	0	t		72.0	2.5	/experiments/knapen_AOT/AOT_stimuli/rescaled_final/1695_rv.mp4	0.0	335.6258816719055	
74	313.2553765773773	movie	1		269	72.0	2.5	/experiments/knapen_AOT/AOT_stimuli/rescaled_final/1695_rv.mp4	0.0	335.6421775817871	2.5001919269561768
74	314.8376214504242	pulse	1	t		72.0	2.5	/experiments/knapen_AOT/AOT_stimuli/rescaled_final/1695_rv.mp4	0.0	337.224422454834	
74	315.7555685043335	fix_post	2		12	72.0	2.5	/experiments/knapen_AOT/AOT_stimuli/rescaled_final/1695_rv.mp4	0.0	338.1423695087433	0.1000053882598877
75	315.8555738925934	fix_pre	0		120	73.0	2.5	/experiments/knapen_AOT/AOT_stimuli/rescaled_final/1945_rv.mp4	0.0	338.2423748970032	1.0085437297821045
75	316.43915128707886	pulse	0	t		73.0	2.5	/experiments/knapen_AOT/AOT_stimuli/rescaled_final/1945_rv.mp4	0.0	338.82595229148865	
75	316.8641176223755	movie	1		281	73.0	2.5	/experiments/knapen_AOT/AOT_stimuli/rescaled_final/1945_rv.mp4	0.0	339.2509186267853	2.491997003555298
75	318.0382077693939	pulse	1	t		73.0	2.5	/experiments/knapen_AOT/AOT_stimuli/rescaled_final/1945_rv.mp4	0.0	340.4250087738037	
75	319.3561146259308	fix_post	2		12	73.0	2.5	/experiments/knapen_AOT/AOT_stimuli/rescaled_final/1945_rv.mp4	0.0	341.7429156303406	0.10000228881835938
76	319.45611691474915	fix_pre	0		120	74.0	2.5	/experiments/knapen_AOT/AOT_stimuli/rescaled_final/0121_fw.mp4	0.0	341.84291791915894	1.0084996223449707
76	319.63970613479614	pulse	0	t		74.0	2.5	/experiments/knapen_AOT/AOT_stimuli/rescaled_final/0121_fw.mp4	0.0	342.02650713920593	
76	320.4646165370941	movie	1		271	74.0	2.5	/experiments/knapen_AOT/AOT_stimuli/rescaled_final/0121_fw.mp4	0.0	342.8514175415039	2.492018699645996
76	321.23796820640564	pulse	1	t		74.0	2.5	/experiments/knapen_AOT/AOT_stimuli/rescaled_final/0121_fw.mp4	0.0	343.62476921081543	
76	322.8384404182434	pulse	1	t		74.0	2.5	/experiments/knapen_AOT/AOT_stimuli/rescaled_final/0121_fw.mp4	0.0	345.2252414226532	
76	322.9566352367401	fix_post	2		12	74.0	2.5	/experiments/knapen_AOT/AOT_stimuli/rescaled_final/0121_fw.mp4	0.0	345.3434362411499	0.1000216007232666
77	323.0566568374634	fix_pre	0		120	75.0	2.5	/experiments/knapen_AOT/AOT_stimuli/rescaled_final/1681_fw.mp4	0.0	345.44345784187317	1.0085091590881348
77	324.0651659965515	movie	1		279	75.0	2.5	/experiments/knapen_AOT/AOT_stimuli/rescaled_final/1681_fw.mp4	0.0	346.4519670009613	2.4920694828033447
77	324.4386808872223	pulse	1	t		75.0	2.5	/experiments/knapen_AOT/AOT_stimuli/rescaled_final/1681_fw.mp4	0.0	346.8254818916321	
77	326.0407021045685	pulse	1	t		75.0	2.5	/experiments/knapen_AOT/AOT_stimuli/rescaled_final/1681_fw.mp4	0.0	348.42750310897827	
77	326.55723547935486	fix_post	2		12	75.0	2.5	/experiments/knapen_AOT/AOT_stimuli/rescaled_final/1681_fw.mp4	0.0	348.94403648376465	0.09996414184570312
78	326.65719962120056	fix_pre	0		119	76.0	2.5	blank	1.0	349.04400062561035	0.9917988777160645
78	327.64087295532227	pulse	0	t		76.0	2.5	blank	1.0	350.02767395973206	
78	327.6489984989166	movie	1		301	76.0	2.5	blank	1.0	350.0357995033264	2.508723020553589
78	329.2410888671875	pulse	1	t		76.0	2.5	blank	1.0	351.6278898715973	
78	330.1577215194702	fix_post	2		12	76.0	2.5	blank	1.0	352.54452252388	0.1000361442565918
79	330.2577576637268	fix_pre	0		120	77.0	2.5	/experiments/knapen_AOT/AOT_stimuli/rescaled_final/1854_rv.mp4	0.0	352.6445586681366	1.008476734161377
79	330.84138655662537	pulse	0	t		77.0	2.5	/experiments/knapen_AOT/AOT_stimuli/rescaled_final/1854_rv.mp4	0.0	353.22818756103516	
79	331.2662343978882	movie	1		277	77.0	2.5	/experiments/knapen_AOT/AOT_stimuli/rescaled_final/1854_rv.mp4	0.0	353.653035402298	2.5003714561462402
79	332.4406695365906	pulse	1	t		77.0	2.5	/experiments/knapen_AOT/AOT_stimuli/rescaled_final/1854_rv.mp4	0.0	354.82747054100037	
79	333.7666058540344	fix_post	2		11	77.0	2.5	/experiments/knapen_AOT/AOT_stimuli/rescaled_final/1854_rv.mp4	0.0	356.1534068584442	0.09167623519897461
80	333.8582820892334	fix_pre	0		120	78.0	2.5	/experiments/knapen_AOT/AOT_stimuli/rescaled_final/0046_rv.mp4	0.0	356.2450830936432	1.008518934249878
80	334.0350728034973	pulse	0	t		78.0	2.5	/experiments/knapen_AOT/AOT_stimuli/rescaled_final/0046_rv.mp4	0.0	356.4218738079071	
80	334.8668010234833	movie	1		275	78.0	2.5	/experiments/knapen_AOT/AOT_stimuli/rescaled_final/0046_rv.mp4	0.0	357.25360202789307	2.4919989109039307
80	335.6400537490845	pulse	1	t		78.0	2.5	/experiments/knapen_AOT/AOT_stimuli/rescaled_final/0046_rv.mp4	0.0	358.02685475349426	
80	337.23427963256836	pulse	1	t		78.0	2.5	/experiments/knapen_AOT/AOT_stimuli/rescaled_final/0046_rv.mp4	0.0	359.62108063697815	
80	337.3587999343872	fix_post	2		12	78.0	2.5	/experiments/knapen_AOT/AOT_stimuli/rescaled_final/0046_rv.mp4	0.0	359.745600938797	0.10016989707946777
81	337.4589698314667	fix_pre	0		120	79.0	2.5	/experiments/knapen_AOT/AOT_stimuli/rescaled_final/1732_fw.mp4	0.0	359.84577083587646	1.0083491802215576
81	338.46731901168823	movie	1		270	79.0	2.5	/experiments/knapen_AOT/AOT_stimuli/rescaled_final/1732_fw.mp4	0.0	360.854120016098	2.492048740386963
81	338.8352506160736	pulse	1	t		79.0	2.5	/experiments/knapen_AOT/AOT_stimuli/rescaled_final/1732_fw.mp4	0.0	361.2220516204834	
81	340.4352276325226	pulse	1	t		79.0	2.5	/experiments/knapen_AOT/AOT_stimuli/rescaled_final/1732_fw.mp4	0.0	362.8220286369324	
81	340.9593677520752	fix_post	2		12	79.0	2.5	/experiments/knapen_AOT/AOT_stimuli/rescaled_final/1732_fw.mp4	0.0	363.346168756485	0.10001730918884277
82	341.05938506126404	fix_pre	0		118	80.0	2.5	/experiments/knapen_AOT/AOT_stimuli/rescaled_final/0102_fw.mp4	0.0	363.4461860656738	0.991804838180542
82	342.03481101989746	pulse	0	t		80.0	2.5	/experiments/knapen_AOT/AOT_stimuli/rescaled_final/0102_fw.mp4	0.0	364.42161202430725	
82	342.0511898994446	movie	1		277	80.0	2.5	/experiments/knapen_AOT/AOT_stimuli/rescaled_final/0102_fw.mp4	0.0	364.43799090385437	2.5004115104675293
82	343.63524532318115	pulse	1	t		80.0	2.5	/experiments/knapen_AOT/AOT_stimuli/rescaled_final/0102_fw.mp4	0.0	366.02204632759094	
82	344.5516014099121	fix_post	2		12	80.0	2.5	/experiments/knapen_AOT/AOT_stimuli/rescaled_final/0102_fw.mp4	0.0	366.9384024143219	0.09999561309814453
83	344.65159702301025	fix_pre	0		120	81.0	2.5	/experiments/knapen_AOT/AOT_stimuli/rescaled_final/0880_rv.mp4	0.0	367.03839802742004	1.0084753036499023
83	345.2355010509491	pulse	0	t		81.0	2.5	/experiments/knapen_AOT/AOT_stimuli/rescaled_final/0880_rv.mp4	0.0	367.6223020553589	
83	345.66007232666016	movie	1		280	81.0	2.5	/experiments/knapen_AOT/AOT_stimuli/rescaled_final/0880_rv.mp4	0.0	368.04687333106995	2.492023468017578
83	346.835551738739	pulse	1	t		81.0	2.5	/experiments/knapen_AOT/AOT_stimuli/rescaled_final/0880_rv.mp4	0.0	369.2223527431488	
83	348.15209579467773	fix_post	2		12	81.0	2.5	/experiments/knapen_AOT/AOT_stimuli/rescaled_final/0880_rv.mp4	0.0	370.5388967990875	0.10002923011779785
84	348.25212502479553	fix_pre	0		120	82.0	2.5	/experiments/knapen_AOT/AOT_stimuli/rescaled_final/1558_fw.mp4	0.0	370.6389260292053	1.0085575580596924
84	348.43571424484253	pulse	0	t		82.0	2.5	/experiments/knapen_AOT/AOT_stimuli/rescaled_final/1558_fw.mp4	0.0	370.8225152492523	
84	349.2606825828552	movie	1		281	82.0	2.5	/experiments/knapen_AOT/AOT_stimuli/rescaled_final/1558_fw.mp4	0.0	371.647483587265	2.492079019546509
84	350.0360817909241	pulse	1	t		82.0	2.5	/experiments/knapen_AOT/AOT_stimuli/rescaled_final/1558_fw.mp4	0.0	372.42288279533386	
84	351.63435077667236	pulse	1	t		82.0	2.5	/experiments/knapen_AOT/AOT_stimuli/rescaled_final/1558_fw.mp4	0.0	374.02115178108215	
84	351.75276160240173	fix_post	2		12	82.0	2.5	/experiments/knapen_AOT/AOT_stimuli/rescaled_final/1558_fw.mp4	0.0	374.1395626068115	0.09993124008178711
85	351.8526928424835	fix_pre	0		120	83.0	2.5	blank	1.0	374.2394938468933	1.0001451969146729
85	352.8528380393982	movie	1		300	83.0	2.5	blank	1.0	375.239639043808	2.500333547592163
85	353.2366945743561	pulse	1	t		83.0	2.5	blank	1.0	375.62349557876587	
85	354.83709955215454	pulse	1	t		83.0	2.5	blank	1.0	377.22390055656433	
85	355.35317158699036	fix_post	2		12	83.0	2.5	blank	1.0	377.73997259140015	0.1001138687133789
87	355.45328545570374	stim	0		1715					377.8400864601135	14.293739080429077
87	356.43712306022644	pulse	0	t						378.82392406463623	
87	358.0371849536896	pulse	0	t						380.42398595809937	
87	359.63737201690674	pulse	0	t						382.0241730213165	
87	361.2375919818878	pulse	0	t						383.6243929862976	
87	362.8377945423126	pulse	0	t						385.2245955467224	
87	364.4381351470947	pulse	0	t						386.8249361515045	
87	366.0382995605469	pulse	0	t						388.42510056495667	
87	367.63856267929077	pulse	0	t						390.02536368370056	
87	369.23887872695923	pulse	0	t						391.625679731369	
