trial_nr	onset	event_type	phase	response	nr_frames	movie_index	movie_duration	movie_file	blank	onset_abs	duration
0	0.19133615493774414	stim	0		5					18.012887716293335	0.058231353759765625
0	0.2443547248840332	response	0	space						18.065906286239624	
1	0.24956750869750977	stim	0		4643					18.0711190700531	38.7086136341095
1	38.941301584243774	pulse	0	t						56.762853145599365	
1	38.95818114280701	stim	1		1715					56.7797327041626	14.299350023269653
1	40.53920817375183	pulse	1	t						58.36075973510742	
1	42.139360666275024	pulse	1	t						59.960912227630615	
1	43.73200225830078	pulse	1	t						61.55355381965637	
1	45.33997893333435	pulse	1	t						63.16153049468994	
1	46.931846618652344	pulse	1	t						64.75339818000793	
1	48.53201103210449	pulse	1	t						66.35356259346008	
1	50.13215732574463	pulse	1	t						67.95370888710022	
1	51.73241853713989	pulse	1	t						69.55397009849548	
2	53.25753116607666	fix_pre	0		5	0.0	2.5	/experiments/knapen_AOT/AOT_stimuli/rescaled_final/0146_fw.mp4	0.0	71.07908272743225	0.14177227020263672
2	53.332714796066284	pulse	0	t		0.0	2.5	/experiments/knapen_AOT/AOT_stimuli/rescaled_final/0146_fw.mp4	0.0	71.15426635742188	
2	53.3993034362793	movie	1		295	0.0	2.5	/experiments/knapen_AOT/AOT_stimuli/rescaled_final/0146_fw.mp4	0.0	71.22085499763489	2.4669272899627686
2	54.93290376663208	pulse	1	t		0.0	2.5	/experiments/knapen_AOT/AOT_stimuli/rescaled_final/0146_fw.mp4	0.0	72.75445532798767	
2	55.866230726242065	fix_post	2		12	0.0	2.5	/experiments/knapen_AOT/AOT_stimuli/rescaled_final/0146_fw.mp4	0.0	73.68778228759766	0.10016417503356934
3	55.966394901275635	fix_pre	0		120	1.0	2.5	/experiments/knapen_AOT/AOT_stimuli/rescaled_final/0345_fw.mp4	0.0	73.78794646263123	1.0083370208740234
3	56.53335356712341	pulse	0	t		1.0	2.5	/experiments/knapen_AOT/AOT_stimuli/rescaled_final/0345_fw.mp4	0.0	74.354905128479	
3	56.97473192214966	movie	1		296	1.0	2.5	/experiments/knapen_AOT/AOT_stimuli/rescaled_final/0345_fw.mp4	0.0	74.79628348350525	2.4920527935028076
3	58.13356637954712	pulse	1	t		1.0	2.5	/experiments/knapen_AOT/AOT_stimuli/rescaled_final/0345_fw.mp4	0.0	75.95511794090271	
3	59.466784715652466	fix_post	2		12	1.0	2.5	/experiments/knapen_AOT/AOT_stimuli/rescaled_final/0345_fw.mp4	0.0	77.28833627700806	0.10008811950683594
4	59.5668728351593	fix_pre	0		120	2.0	2.5	/experiments/knapen_AOT/AOT_stimuli/rescaled_final/1264_rv.mp4	0.0	77.38842439651489	1.0084483623504639
4	59.73371434211731	pulse	0	t		2.0	2.5	/experiments/knapen_AOT/AOT_stimuli/rescaled_final/1264_rv.mp4	0.0	77.5552659034729	
4	60.575321197509766	movie	1		297	2.0	2.5	/experiments/knapen_AOT/AOT_stimuli/rescaled_final/1264_rv.mp4	0.0	78.39687275886536	2.4836649894714355
4	61.33388900756836	pulse	1	t		2.0	2.5	/experiments/knapen_AOT/AOT_stimuli/rescaled_final/1264_rv.mp4	0.0	79.15544056892395	
4	62.934306621551514	pulse	1	t		2.0	2.5	/experiments/knapen_AOT/AOT_stimuli/rescaled_final/1264_rv.mp4	0.0	80.7558581829071	
4	63.0589861869812	fix_post	2		12	2.0	2.5	/experiments/knapen_AOT/AOT_stimuli/rescaled_final/1264_rv.mp4	0.0	80.88053774833679	0.10003066062927246
5	63.159016847610474	fix_pre	0		120	3.0	2.5	/experiments/knapen_AOT/AOT_stimuli/rescaled_final/1989_rv.mp4	0.0	80.98056840896606	1.0084867477416992
5	64.16750359535217	movie	1		298	3.0	2.5	/experiments/knapen_AOT/AOT_stimuli/rescaled_final/1989_rv.mp4	0.0	81.98905515670776	2.4920153617858887
5	64.53438591957092	pulse	1	t		3.0	2.5	/experiments/knapen_AOT/AOT_stimuli/rescaled_final/1989_rv.mp4	0.0	82.35593748092651	
5	66.13458108901978	pulse	1	t		3.0	2.5	/experiments/knapen_AOT/AOT_stimuli/rescaled_final/1989_rv.mp4	0.0	83.95613265037537	
5	66.65951895713806	fix_post	2		12	3.0	2.5	/experiments/knapen_AOT/AOT_stimuli/rescaled_final/1989_rv.mp4	0.0	84.48107051849365	0.10001039505004883
6	66.75952935218811	fix_pre	0		118	4.0	2.5	/experiments/knapen_AOT/AOT_stimuli/rescaled_final/1288_fw.mp4	0.0	84.5810809135437	0.9918320178985596
6	67.73481893539429	pulse	0	t		4.0	2.5	/experiments/knapen_AOT/AOT_stimuli/rescaled_final/1288_fw.mp4	0.0	85.55637049674988	
6	67.75136137008667	movie	1		300	4.0	2.5	/experiments/knapen_AOT/AOT_stimuli/rescaled_final/1288_fw.mp4	0.0	85.57291293144226	2.5003833770751953
6	69.33515739440918	pulse	1	t		4.0	2.5	/experiments/knapen_AOT/AOT_stimuli/rescaled_final/1288_fw.mp4	0.0	87.15670895576477	
6	70.25174474716187	fix_post	2		12	4.0	2.5	/experiments/knapen_AOT/AOT_stimuli/rescaled_final/1288_fw.mp4	0.0	88.07329630851746	0.10001659393310547
7	70.35176134109497	fix_pre	0		120	5.0	2.5	/experiments/knapen_AOT/AOT_stimuli/rescaled_final/0929_fw.mp4	0.0	88.17331290245056	1.0001351833343506
7	70.93543148040771	pulse	0	t		5.0	2.5	/experiments/knapen_AOT/AOT_stimuli/rescaled_final/0929_fw.mp4	0.0	88.7569830417633	
7	71.35189652442932	movie	1		295	5.0	2.5	/experiments/knapen_AOT/AOT_stimuli/rescaled_final/0929_fw.mp4	0.0	89.17344808578491	2.500370740890503
7	72.53310656547546	pulse	1	t		5.0	2.5	/experiments/knapen_AOT/AOT_stimuli/rescaled_final/0929_fw.mp4	0.0	90.35465812683105	
7	73.85226726531982	fix_post	2		12	5.0	2.5	/experiments/knapen_AOT/AOT_stimuli/rescaled_final/0929_fw.mp4	0.0	91.67381882667542	0.10002303123474121
8	73.95229029655457	fix_pre	0		120	6.0	2.5	blank	1.0	91.77384185791016	1.0001399517059326
8	74.13581538200378	pulse	0	t		6.0	2.5	blank	1.0	91.95736694335938	
8	74.9524302482605	movie	1		300	6.0	2.5	blank	1.0	92.77398180961609	2.5004451274871826
8	75.73602843284607	pulse	1	t		6.0	2.5	blank	1.0	93.55757999420166	
8	77.33637547492981	pulse	1	t		6.0	2.5	blank	1.0	95.1579270362854	
8	77.45287537574768	fix_post	2		12	6.0	2.5	blank	1.0	95.27442693710327	0.09996485710144043
9	77.55284023284912	fix_pre	0		120	7.0	2.5	/experiments/knapen_AOT/AOT_stimuli/rescaled_final/1528_rv.mp4	0.0	95.37439179420471	1.0168640613555908
9	78.56970429420471	movie	1		297	7.0	2.5	/experiments/knapen_AOT/AOT_stimuli/rescaled_final/1528_rv.mp4	0.0	96.3912558555603	2.4753172397613525
9	78.93306684494019	pulse	1	t		7.0	2.5	/experiments/knapen_AOT/AOT_stimuli/rescaled_final/1528_rv.mp4	0.0	96.75461840629578	
9	80.5322093963623	pulse	1	t		7.0	2.5	/experiments/knapen_AOT/AOT_stimuli/rescaled_final/1528_rv.mp4	0.0	98.3537609577179	
9	81.04502153396606	fix_post	2		12	7.0	2.5	/experiments/knapen_AOT/AOT_stimuli/rescaled_final/1528_rv.mp4	0.0	98.86657309532166	0.10004639625549316
10	81.14506793022156	fix_pre	0		120	8.0	2.5	/experiments/knapen_AOT/AOT_stimuli/rescaled_final/1639_rv.mp4	0.0	98.96661949157715	1.0084969997406006
10	82.13713502883911	pulse	0	t		8.0	2.5	/experiments/knapen_AOT/AOT_stimuli/rescaled_final/1639_rv.mp4	0.0	99.9586865901947	
10	82.15356492996216	movie	1		293	8.0	2.5	/experiments/knapen_AOT/AOT_stimuli/rescaled_final/1639_rv.mp4	0.0	99.97511649131775	2.5003390312194824
10	83.73507595062256	pulse	1	t		8.0	2.5	/experiments/knapen_AOT/AOT_stimuli/rescaled_final/1639_rv.mp4	0.0	101.55662751197815	
10	84.65390396118164	fix_post	2		12	8.0	2.5	/experiments/knapen_AOT/AOT_stimuli/rescaled_final/1639_rv.mp4	0.0	102.47545552253723	0.10003781318664551
11	84.75394177436829	fix_pre	0		120	9.0	2.5	/experiments/knapen_AOT/AOT_stimuli/rescaled_final/1917_fw.mp4	0.0	102.57549333572388	1.0085368156433105
11	85.33762073516846	pulse	0	t		9.0	2.5	/experiments/knapen_AOT/AOT_stimuli/rescaled_final/1917_fw.mp4	0.0	103.15917229652405	
11	85.7624785900116	movie	1		265	9.0	2.5	/experiments/knapen_AOT/AOT_stimuli/rescaled_final/1917_fw.mp4	0.0	103.58403015136719	2.4919798374176025
11	86.9370608329773	pulse	1	t		9.0	2.5	/experiments/knapen_AOT/AOT_stimuli/rescaled_final/1917_fw.mp4	0.0	104.75861239433289	
11	88.2544584274292	fix_post	2		12	9.0	2.5	/experiments/knapen_AOT/AOT_stimuli/rescaled_final/1917_fw.mp4	0.0	106.07600998878479	0.10007500648498535
12	88.35453343391418	fix_pre	0		120	10.0	2.5	/experiments/knapen_AOT/AOT_stimuli/rescaled_final/0092_fw.mp4	0.0	106.17608499526978	1.0084896087646484
12	88.53805088996887	pulse	0	t		10.0	2.5	/experiments/knapen_AOT/AOT_stimuli/rescaled_final/0092_fw.mp4	0.0	106.35960245132446	
12	89.36302304267883	movie	1		261	10.0	2.5	/experiments/knapen_AOT/AOT_stimuli/rescaled_final/0092_fw.mp4	0.0	107.18457460403442	2.492274761199951
12	90.13892960548401	pulse	1	t		10.0	2.5	/experiments/knapen_AOT/AOT_stimuli/rescaled_final/0092_fw.mp4	0.0	107.9604811668396	
12	91.73635244369507	pulse	1	t		10.0	2.5	/experiments/knapen_AOT/AOT_stimuli/rescaled_final/0092_fw.mp4	0.0	109.55790400505066	
12	91.85529780387878	fix_post	2		12	10.0	2.5	/experiments/knapen_AOT/AOT_stimuli/rescaled_final/0092_fw.mp4	0.0	109.67684936523438	0.0997316837310791
13	91.95502948760986	fix_pre	0		120	11.0	2.5	/experiments/knapen_AOT/AOT_stimuli/rescaled_final/0449_fw.mp4	0.0	109.77658104896545	1.0252876281738281
13	92.98031711578369	movie	1		255	11.0	2.5	/experiments/knapen_AOT/AOT_stimuli/rescaled_final/0449_fw.mp4	0.0	110.80186867713928	2.4752469062805176
13	93.3371946811676	pulse	1	t		11.0	2.5	/experiments/knapen_AOT/AOT_stimuli/rescaled_final/0449_fw.mp4	0.0	111.1587462425232	
13	94.93707346916199	pulse	1	t		11.0	2.5	/experiments/knapen_AOT/AOT_stimuli/rescaled_final/0449_fw.mp4	0.0	112.75862503051758	
13	95.45556402206421	fix_post	2		12	11.0	2.5	/experiments/knapen_AOT/AOT_stimuli/rescaled_final/0449_fw.mp4	0.0	113.2771155834198	0.10002946853637695
14	95.55559349060059	fix_pre	0		119	12.0	2.5	blank	1.0	113.37714505195618	0.9917829036712646
14	96.53926706314087	pulse	0	t		12.0	2.5	blank	1.0	114.36081862449646	
14	96.54737639427185	movie	1		301	12.0	2.5	blank	1.0	114.36892795562744	2.508718252182007
14	98.13952207565308	pulse	1	t		12.0	2.5	blank	1.0	115.96107363700867	
14	99.05609464645386	fix_post	2		12	12.0	2.5	blank	1.0	116.87764620780945	0.10002779960632324
15	99.15612244606018	fix_pre	0		120	13.0	2.5	/experiments/knapen_AOT/AOT_stimuli/rescaled_final/0457_fw.mp4	0.0	116.97767400741577	1.0168721675872803
15	99.73990726470947	pulse	0	t		13.0	2.5	/experiments/knapen_AOT/AOT_stimuli/rescaled_final/0457_fw.mp4	0.0	117.56145882606506	
15	100.17299461364746	movie	1		277	13.0	2.5	/experiments/knapen_AOT/AOT_stimuli/rescaled_final/0457_fw.mp4	0.0	117.99454617500305	2.483652353286743
15	101.33821272850037	pulse	1	t		13.0	2.5	/experiments/knapen_AOT/AOT_stimuli/rescaled_final/0457_fw.mp4	0.0	119.15976428985596	
15	102.6566469669342	fix_post	2		12	13.0	2.5	/experiments/knapen_AOT/AOT_stimuli/rescaled_final/0457_fw.mp4	0.0	120.4781985282898	0.10007882118225098
16	102.75672578811646	fix_pre	0		120	14.0	2.5	/experiments/knapen_AOT/AOT_stimuli/rescaled_final/0899_rv.mp4	0.0	120.57827734947205	1.0167968273162842
16	102.93382120132446	pulse	0	t		14.0	2.5	/experiments/knapen_AOT/AOT_stimuli/rescaled_final/0899_rv.mp4	0.0	120.75537276268005	
16	103.77352261543274	movie	1		270	14.0	2.5	/experiments/knapen_AOT/AOT_stimuli/rescaled_final/0899_rv.mp4	0.0	121.59507417678833	2.4837520122528076
16	104.5381760597229	pulse	1	t		14.0	2.5	/experiments/knapen_AOT/AOT_stimuli/rescaled_final/0899_rv.mp4	0.0	122.35972762107849	
16	106.13252115249634	pulse	1	t		14.0	2.5	/experiments/knapen_AOT/AOT_stimuli/rescaled_final/0899_rv.mp4	0.0	123.95407271385193	
16	106.25727462768555	fix_post	2		12	14.0	2.5	/experiments/knapen_AOT/AOT_stimuli/rescaled_final/0899_rv.mp4	0.0	124.07882618904114	0.09992790222167969
17	106.35720252990723	fix_pre	0		120	15.0	2.5	/experiments/knapen_AOT/AOT_stimuli/rescaled_final/1247_fw.mp4	0.0	124.17875409126282	1.0337121486663818
17	107.39091467857361	movie	1		246	15.0	2.5	/experiments/knapen_AOT/AOT_stimuli/rescaled_final/1247_fw.mp4	0.0	125.2124662399292	2.4670464992523193
17	107.73295783996582	pulse	1	t		15.0	2.5	/experiments/knapen_AOT/AOT_stimuli/rescaled_final/1247_fw.mp4	0.0	125.55450940132141	
17	109.33319544792175	pulse	1	t		15.0	2.5	/experiments/knapen_AOT/AOT_stimuli/rescaled_final/1247_fw.mp4	0.0	127.15474700927734	
17	109.85796117782593	fix_post	2		12	15.0	2.5	/experiments/knapen_AOT/AOT_stimuli/rescaled_final/1247_fw.mp4	0.0	127.67951273918152	0.09990978240966797
18	109.9578709602356	fix_pre	0		118	16.0	2.5	/experiments/knapen_AOT/AOT_stimuli/rescaled_final/2127_rv.mp4	0.0	127.77942252159119	1.0002827644348145
18	110.9331169128418	pulse	0	t		16.0	2.5	/experiments/knapen_AOT/AOT_stimuli/rescaled_final/2127_rv.mp4	0.0	128.7546684741974	
18	110.95815372467041	movie	1		257	16.0	2.5	/experiments/knapen_AOT/AOT_stimuli/rescaled_final/2127_rv.mp4	0.0	128.779705286026	2.4918019771575928
18	112.53348469734192	pulse	1	t		16.0	2.5	/experiments/knapen_AOT/AOT_stimuli/rescaled_final/2127_rv.mp4	0.0	130.3550362586975	
18	113.449955701828	fix_post	2		12	16.0	2.5	/experiments/knapen_AOT/AOT_stimuli/rescaled_final/2127_rv.mp4	0.0	131.2715072631836	0.10000920295715332
19	113.54996490478516	fix_pre	0		120	17.0	2.5	/experiments/knapen_AOT/AOT_stimuli/rescaled_final/1212_rv.mp4	0.0	131.37151646614075	1.0255272388458252
19	114.13362097740173	pulse	0	t		17.0	2.5	/experiments/knapen_AOT/AOT_stimuli/rescaled_final/1212_rv.mp4	0.0	131.95517253875732	
19	114.57549214363098	movie	1		256	17.0	2.5	/experiments/knapen_AOT/AOT_stimuli/rescaled_final/1212_rv.mp4	0.0	132.39704370498657	2.4750826358795166
19	115.73420786857605	pulse	1	t		17.0	2.5	/experiments/knapen_AOT/AOT_stimuli/rescaled_final/1212_rv.mp4	0.0	133.55575942993164	
19	117.0505747795105	fix_post	2		12	17.0	2.5	/experiments/knapen_AOT/AOT_stimuli/rescaled_final/1212_rv.mp4	0.0	134.8721263408661	0.09992527961730957
20	117.15050005912781	fix_pre	0		120	18.0	2.5	/experiments/knapen_AOT/AOT_stimuli/rescaled_final/0726_rv.mp4	0.0	134.9720516204834	1.0171306133270264
20	117.33410787582397	pulse	0	t		18.0	2.5	/experiments/knapen_AOT/AOT_stimuli/rescaled_final/0726_rv.mp4	0.0	135.15565943717957	
20	118.16763067245483	movie	1		257	18.0	2.5	/experiments/knapen_AOT/AOT_stimuli/rescaled_final/0726_rv.mp4	0.0	135.98918223381042	2.483677625656128
20	118.93254113197327	pulse	1	t		18.0	2.5	/experiments/knapen_AOT/AOT_stimuli/rescaled_final/0726_rv.mp4	0.0	136.75409269332886	
20	120.53460216522217	pulse	1	t		18.0	2.5	/experiments/knapen_AOT/AOT_stimuli/rescaled_final/0726_rv.mp4	0.0	138.35615372657776	
20	120.65130829811096	fix_post	2		12	18.0	2.5	/experiments/knapen_AOT/AOT_stimuli/rescaled_final/0726_rv.mp4	0.0	138.47285985946655	0.09987497329711914
21	120.75118327140808	fix_pre	0		120	19.0	2.5	/experiments/knapen_AOT/AOT_stimuli/rescaled_final/0793_rv.mp4	0.0	138.57273483276367	1.0250365734100342
21	121.77621984481812	movie	1		250	19.0	2.5	/experiments/knapen_AOT/AOT_stimuli/rescaled_final/0793_rv.mp4	0.0	139.5977714061737	2.475459337234497
21	122.13455772399902	pulse	1	t		19.0	2.5	/experiments/knapen_AOT/AOT_stimuli/rescaled_final/0793_rv.mp4	0.0	139.95610928535461	
21	123.73351621627808	pulse	1	t		19.0	2.5	/experiments/knapen_AOT/AOT_stimuli/rescaled_final/0793_rv.mp4	0.0	141.55506777763367	
21	124.25167918205261	fix_post	2		12	19.0	2.5	/experiments/knapen_AOT/AOT_stimuli/rescaled_final/0793_rv.mp4	0.0	142.0732307434082	0.1001734733581543
22	124.35185265541077	fix_pre	0		119	20.0	2.5	blank	1.0	142.17340421676636	0.9916009902954102
22	125.33582019805908	pulse	0	t		20.0	2.5	blank	1.0	143.15737175941467	
22	125.34345364570618	movie	1		301	20.0	2.5	blank	1.0	143.16500520706177	2.5086829662323
22	126.9355616569519	pulse	1	t		20.0	2.5	blank	1.0	144.7571132183075	
22	127.85213661193848	fix_post	2		12	20.0	2.5	blank	1.0	145.67368817329407	0.09999227523803711
23	127.95212888717651	fix_pre	0		120	21.0	2.5	/experiments/knapen_AOT/AOT_stimuli/rescaled_final/0096_fw.mp4	0.0	145.7736804485321	1.0254321098327637
23	128.5357747077942	pulse	0	t		21.0	2.5	/experiments/knapen_AOT/AOT_stimuli/rescaled_final/0096_fw.mp4	0.0	146.35732626914978	
23	128.97756099700928	movie	1		252	21.0	2.5	/experiments/knapen_AOT/AOT_stimuli/rescaled_final/0096_fw.mp4	0.0	146.79911255836487	2.4752159118652344
23	130.13772106170654	pulse	1	t		21.0	2.5	/experiments/knapen_AOT/AOT_stimuli/rescaled_final/0096_fw.mp4	0.0	147.95927262306213	
23	131.4527769088745	fix_post	2		12	21.0	2.5	/experiments/knapen_AOT/AOT_stimuli/rescaled_final/0096_fw.mp4	0.0	149.2743284702301	0.0998983383178711
24	131.55267524719238	fix_pre	0		120	22.0	2.5	/experiments/knapen_AOT/AOT_stimuli/rescaled_final/0400_rv.mp4	0.0	149.37422680854797	1.017021656036377
24	131.7362504005432	pulse	0	t		22.0	2.5	/experiments/knapen_AOT/AOT_stimuli/rescaled_final/0400_rv.mp4	0.0	149.5578019618988	
24	132.56969690322876	movie	1		256	22.0	2.5	/experiments/knapen_AOT/AOT_stimuli/rescaled_final/0400_rv.mp4	0.0	150.39124846458435	2.483535051345825
24	133.33462381362915	pulse	1	t		22.0	2.5	/experiments/knapen_AOT/AOT_stimuli/rescaled_final/0400_rv.mp4	0.0	151.15617537498474	
24	134.93495774269104	pulse	1	t		22.0	2.5	/experiments/knapen_AOT/AOT_stimuli/rescaled_final/0400_rv.mp4	0.0	152.75650930404663	
24	135.05323195457458	fix_post	2		12	22.0	2.5	/experiments/knapen_AOT/AOT_stimuli/rescaled_final/0400_rv.mp4	0.0	152.87478351593018	0.10003852844238281
25	135.15327048301697	fix_pre	0		120	23.0	2.5	/experiments/knapen_AOT/AOT_stimuli/rescaled_final/1598_rv.mp4	0.0	152.97482204437256	1.0252690315246582
25	136.17853951454163	movie	1		251	23.0	2.5	/experiments/knapen_AOT/AOT_stimuli/rescaled_final/1598_rv.mp4	0.0	154.00009107589722	2.4752931594848633
25	136.5375280380249	pulse	1	t		23.0	2.5	/experiments/knapen_AOT/AOT_stimuli/rescaled_final/1598_rv.mp4	0.0	154.3590795993805	
25	138.13561391830444	pulse	1	t		23.0	2.5	/experiments/knapen_AOT/AOT_stimuli/rescaled_final/1598_rv.mp4	0.0	155.95716547966003	
25	138.6538326740265	fix_post	2		12	23.0	2.5	/experiments/knapen_AOT/AOT_stimuli/rescaled_final/1598_rv.mp4	0.0	156.47538423538208	0.09994840621948242
26	138.75378108024597	fix_pre	0		119	24.0	2.5	/experiments/knapen_AOT/AOT_stimuli/rescaled_final/2137_fw.mp4	0.0	156.57533264160156	1.00868558883667
26	139.73745203018188	pulse	0	t		24.0	2.5	/experiments/knapen_AOT/AOT_stimuli/rescaled_final/2137_fw.mp4	0.0	157.55900359153748	
26	139.76246666908264	movie	1		246	24.0	2.5	/experiments/knapen_AOT/AOT_stimuli/rescaled_final/2137_fw.mp4	0.0	157.58401823043823	2.4921557903289795
26	141.33760333061218	pulse	1	t		24.0	2.5	/experiments/knapen_AOT/AOT_stimuli/rescaled_final/2137_fw.mp4	0.0	159.15915489196777	
26	142.25462245941162	fix_post	2		12	24.0	2.5	/experiments/knapen_AOT/AOT_stimuli/rescaled_final/2137_fw.mp4	0.0	160.0761740207672	0.09968709945678711
27	142.3543095588684	fix_pre	0		120	25.0	2.5	/experiments/knapen_AOT/AOT_stimuli/rescaled_final/0738_rv.mp4	0.0	160.175861120224	1.02528977394104
27	142.93799996376038	pulse	0	t		25.0	2.5	/experiments/knapen_AOT/AOT_stimuli/rescaled_final/0738_rv.mp4	0.0	160.75955152511597	
27	143.37959933280945	movie	1		264	25.0	2.5	/experiments/knapen_AOT/AOT_stimuli/rescaled_final/0738_rv.mp4	0.0	161.20115089416504	2.4753005504608154
27	144.53629231452942	pulse	1	t		25.0	2.5	/experiments/knapen_AOT/AOT_stimuli/rescaled_final/0738_rv.mp4	0.0	162.357843875885	
27	145.85489988327026	fix_post	2		12	25.0	2.5	/experiments/knapen_AOT/AOT_stimuli/rescaled_final/0738_rv.mp4	0.0	163.67645144462585	0.09999275207519531
28	145.95489263534546	fix_pre	0		120	26.0	2.5	/experiments/knapen_AOT/AOT_stimuli/rescaled_final/0147_fw.mp4	0.0	163.77644419670105	1.0168263912200928
28	146.13845992088318	pulse	0	t		26.0	2.5	/experiments/knapen_AOT/AOT_stimuli/rescaled_final/0147_fw.mp4	0.0	163.96001148223877	
28	146.97171902656555	movie	1		256	26.0	2.5	/experiments/knapen_AOT/AOT_stimuli/rescaled_final/0147_fw.mp4	0.0	164.79327058792114	2.4920785427093506
28	147.7365300655365	pulse	1	t		26.0	2.5	/experiments/knapen_AOT/AOT_stimuli/rescaled_final/0147_fw.mp4	0.0	165.5580816268921	
28	149.336895942688	pulse	1	t		26.0	2.5	/experiments/knapen_AOT/AOT_stimuli/rescaled_final/0147_fw.mp4	0.0	167.15844750404358	
28	149.4637975692749	fix_post	2		11	26.0	2.5	/experiments/knapen_AOT/AOT_stimuli/rescaled_final/0147_fw.mp4	0.0	167.2853491306305	0.09158968925476074
29	149.55538725852966	fix_pre	0		120	27.0	2.5	blank	1.0	167.37693881988525	1.000157117843628
29	150.5555443763733	movie	1		300	27.0	2.5	blank	1.0	168.37709593772888	2.500547170639038
29	150.93921828269958	pulse	1	t		27.0	2.5	blank	1.0	168.76076984405518	
29	152.53945589065552	pulse	1	t		27.0	2.5	blank	1.0	170.3610074520111	
29	153.05609154701233	fix_post	2		12	27.0	2.5	blank	1.0	170.87764310836792	0.09996294975280762
30	153.15605449676514	fix_pre	0		119	28.0	2.5	/experiments/knapen_AOT/AOT_stimuli/rescaled_final/1606_fw.mp4	0.0	170.97760605812073	1.0167226791381836
30	154.13969087600708	pulse	0	t		28.0	2.5	/experiments/knapen_AOT/AOT_stimuli/rescaled_final/1606_fw.mp4	0.0	171.96124243736267	
30	154.17277717590332	movie	1		251	28.0	2.5	/experiments/knapen_AOT/AOT_stimuli/rescaled_final/1606_fw.mp4	0.0	171.9943287372589	2.4921464920043945
30	155.74022245407104	pulse	1	t		28.0	2.5	/experiments/knapen_AOT/AOT_stimuli/rescaled_final/1606_fw.mp4	0.0	173.56177401542664	
30	156.66492366790771	fix_post	2		11	28.0	2.5	/experiments/knapen_AOT/AOT_stimuli/rescaled_final/1606_fw.mp4	0.0	174.4864752292633	0.09196901321411133
31	156.75689268112183	fix_pre	0		120	29.0	2.5	/experiments/knapen_AOT/AOT_stimuli/rescaled_final/1564_rv.mp4	0.0	174.57844424247742	1.0251271724700928
31	157.33229041099548	pulse	0	t		29.0	2.5	/experiments/knapen_AOT/AOT_stimuli/rescaled_final/1564_rv.mp4	0.0	175.15384197235107	
31	157.78201985359192	movie	1		247	29.0	2.5	/experiments/knapen_AOT/AOT_stimuli/rescaled_final/1564_rv.mp4	0.0	175.6035714149475	2.4750149250030518
31	158.93227219581604	pulse	1	t		29.0	2.5	/experiments/knapen_AOT/AOT_stimuli/rescaled_final/1564_rv.mp4	0.0	176.75382375717163	
31	160.25703477859497	fix_post	2		12	29.0	2.5	/experiments/knapen_AOT/AOT_stimuli/rescaled_final/1564_rv.mp4	0.0	178.07858633995056	0.09998750686645508
32	160.35702228546143	fix_pre	0		120	30.0	2.5	/experiments/knapen_AOT/AOT_stimuli/rescaled_final/0509_fw.mp4	0.0	178.17857384681702	1.0168991088867188
32	160.53234148025513	pulse	0	t		30.0	2.5	/experiments/knapen_AOT/AOT_stimuli/rescaled_final/0509_fw.mp4	0.0	178.35389304161072	
32	161.37392139434814	movie	1		253	30.0	2.5	/experiments/knapen_AOT/AOT_stimuli/rescaled_final/0509_fw.mp4	0.0	179.19547295570374	2.4836506843566895
32	162.13270568847656	pulse	1	t		30.0	2.5	/experiments/knapen_AOT/AOT_stimuli/rescaled_final/0509_fw.mp4	0.0	179.95425724983215	
32	163.73231506347656	pulse	1	t		30.0	2.5	/experiments/knapen_AOT/AOT_stimuli/rescaled_final/0509_fw.mp4	0.0	181.55386662483215	
32	163.85757207870483	fix_post	2		12	30.0	2.5	/experiments/knapen_AOT/AOT_stimuli/rescaled_final/0509_fw.mp4	0.0	181.67912364006042	0.10001420974731445
33	163.95758628845215	fix_pre	0		120	31.0	2.5	/experiments/knapen_AOT/AOT_stimuli/rescaled_final/0654_rv.mp4	0.0	181.77913784980774	1.0170278549194336
33	164.97461414337158	movie	1		252	31.0	2.5	/experiments/knapen_AOT/AOT_stimuli/rescaled_final/0654_rv.mp4	0.0	182.79616570472717	2.483797550201416
33	165.33354997634888	pulse	1	t		31.0	2.5	/experiments/knapen_AOT/AOT_stimuli/rescaled_final/0654_rv.mp4	0.0	183.15510153770447	
33	166.93335485458374	pulse	1	t		31.0	2.5	/experiments/knapen_AOT/AOT_stimuli/rescaled_final/0654_rv.mp4	0.0	184.75490641593933	
33	167.458411693573	fix_post	2		12	31.0	2.5	/experiments/knapen_AOT/AOT_stimuli/rescaled_final/0654_rv.mp4	0.0	185.2799632549286	0.0997626781463623
34	167.55817437171936	fix_pre	0		118	32.0	2.5	/experiments/knapen_AOT/AOT_stimuli/rescaled_final/0189_fw.mp4	0.0	185.37972593307495	1.0084774494171143
34	168.53348112106323	pulse	0	t		32.0	2.5	/experiments/knapen_AOT/AOT_stimuli/rescaled_final/0189_fw.mp4	0.0	186.35503268241882	
34	168.56665182113647	movie	1		239	32.0	2.5	/experiments/knapen_AOT/AOT_stimuli/rescaled_final/0189_fw.mp4	0.0	186.38820338249207	2.4920835494995117
34	170.13357591629028	pulse	1	t		32.0	2.5	/experiments/knapen_AOT/AOT_stimuli/rescaled_final/0189_fw.mp4	0.0	187.95512747764587	
34	171.058735370636	fix_post	2		11	32.0	2.5	/experiments/knapen_AOT/AOT_stimuli/rescaled_final/0189_fw.mp4	0.0	188.88028693199158	0.0916283130645752
35	171.15036368370056	fix_pre	0		120	33.0	2.5	/experiments/knapen_AOT/AOT_stimuli/rescaled_final/0816_rv.mp4	0.0	188.97191524505615	1.025224208831787
35	171.73413467407227	pulse	0	t		33.0	2.5	/experiments/knapen_AOT/AOT_stimuli/rescaled_final/0816_rv.mp4	0.0	189.55568623542786	
35	172.17558789253235	movie	1		269	33.0	2.5	/experiments/knapen_AOT/AOT_stimuli/rescaled_final/0816_rv.mp4	0.0	189.99713945388794	2.475440263748169
35	173.33247780799866	pulse	1	t		33.0	2.5	/experiments/knapen_AOT/AOT_stimuli/rescaled_final/0816_rv.mp4	0.0	191.15402936935425	
35	174.65102815628052	fix_post	2		12	33.0	2.5	/experiments/knapen_AOT/AOT_stimuli/rescaled_final/0816_rv.mp4	0.0	192.4725797176361	0.09991192817687988
36	174.7509400844574	fix_pre	0		120	34.0	2.5	/experiments/knapen_AOT/AOT_stimuli/rescaled_final/1678_fw.mp4	0.0	192.572491645813	1.0251667499542236
36	174.93463730812073	pulse	0	t		34.0	2.5	/experiments/knapen_AOT/AOT_stimuli/rescaled_final/1678_fw.mp4	0.0	192.75618886947632	
36	175.77610683441162	movie	1		255	34.0	2.5	/experiments/knapen_AOT/AOT_stimuli/rescaled_final/1678_fw.mp4	0.0	193.5976583957672	2.4753429889678955
36	176.53296828269958	pulse	1	t		34.0	2.5	/experiments/knapen_AOT/AOT_stimuli/rescaled_final/1678_fw.mp4	0.0	194.35451984405518	
36	178.13271021842957	pulse	1	t		34.0	2.5	/experiments/knapen_AOT/AOT_stimuli/rescaled_final/1678_fw.mp4	0.0	195.95426177978516	
36	178.25144982337952	fix_post	2		12	34.0	2.5	/experiments/knapen_AOT/AOT_stimuli/rescaled_final/1678_fw.mp4	0.0	196.0730013847351	0.10010671615600586
37	178.35155653953552	fix_pre	0		120	35.0	2.5	blank	1.0	196.1731081008911	1.0001118183135986
37	179.35166835784912	movie	1		300	35.0	2.5	blank	1.0	197.1732199192047	2.5002620220184326
37	179.73528957366943	pulse	1	t		35.0	2.5	blank	1.0	197.55684113502502	
37	181.33547449111938	pulse	1	t		35.0	2.5	blank	1.0	199.15702605247498	
37	181.85193037986755	fix_post	2		12	35.0	2.5	blank	1.0	199.67348194122314	0.10009407997131348
38	181.95202445983887	fix_pre	0		119	36.0	2.5	/experiments/knapen_AOT/AOT_stimuli/rescaled_final/1683_fw.mp4	0.0	199.77357602119446	1.017021894454956
38	182.93564558029175	pulse	0	t		36.0	2.5	/experiments/knapen_AOT/AOT_stimuli/rescaled_final/1683_fw.mp4	0.0	200.75719714164734	
38	182.96904635429382	movie	1		255	36.0	2.5	/experiments/knapen_AOT/AOT_stimuli/rescaled_final/1683_fw.mp4	0.0	200.7905979156494	2.4835267066955566
38	184.53626704216003	pulse	1	t		36.0	2.5	/experiments/knapen_AOT/AOT_stimuli/rescaled_final/1683_fw.mp4	0.0	202.35781860351562	
38	185.45257306098938	fix_post	2		12	36.0	2.5	/experiments/knapen_AOT/AOT_stimuli/rescaled_final/1683_fw.mp4	0.0	203.27412462234497	0.09994888305664062
39	185.55252194404602	fix_pre	0		120	37.0	2.5	/experiments/knapen_AOT/AOT_stimuli/rescaled_final/0777_rv.mp4	0.0	203.3740735054016	1.016829252243042
39	186.13615679740906	pulse	0	t		37.0	2.5	/experiments/knapen_AOT/AOT_stimuli/rescaled_final/0777_rv.mp4	0.0	203.95770835876465	
39	186.56935119628906	movie	1		252	37.0	2.5	/experiments/knapen_AOT/AOT_stimuli/rescaled_final/0777_rv.mp4	0.0	204.39090275764465	2.483670711517334
39	187.73479533195496	pulse	1	t		37.0	2.5	/experiments/knapen_AOT/AOT_stimuli/rescaled_final/0777_rv.mp4	0.0	205.55634689331055	
39	189.0530219078064	fix_post	2		12	37.0	2.5	/experiments/knapen_AOT/AOT_stimuli/rescaled_final/0777_rv.mp4	0.0	206.874573469162	0.10002827644348145
40	189.15305018424988	fix_pre	0		120	38.0	2.5	/experiments/knapen_AOT/AOT_stimuli/rescaled_final/1082_rv.mp4	0.0	206.97460174560547	1.0168523788452148
40	189.33735036849976	pulse	0	t		38.0	2.5	/experiments/knapen_AOT/AOT_stimuli/rescaled_final/1082_rv.mp4	0.0	207.15890192985535	
40	190.1699025630951	movie	1		255	38.0	2.5	/experiments/knapen_AOT/AOT_stimuli/rescaled_final/1082_rv.mp4	0.0	207.99145412445068	2.4837629795074463
40	190.9347767829895	pulse	1	t		38.0	2.5	/experiments/knapen_AOT/AOT_stimuli/rescaled_final/1082_rv.mp4	0.0	208.7563283443451	
40	192.5363163948059	pulse	1	t		38.0	2.5	/experiments/knapen_AOT/AOT_stimuli/rescaled_final/1082_rv.mp4	0.0	210.3578679561615	
40	192.65366554260254	fix_post	2		12	38.0	2.5	/experiments/knapen_AOT/AOT_stimuli/rescaled_final/1082_rv.mp4	0.0	210.47521710395813	0.09993648529052734
41	192.75360202789307	fix_pre	0		120	39.0	2.5	/experiments/knapen_AOT/AOT_stimuli/rescaled_final/1356_rv.mp4	0.0	210.57515358924866	1.0253105163574219
41	193.7789125442505	movie	1		254	39.0	2.5	/experiments/knapen_AOT/AOT_stimuli/rescaled_final/1356_rv.mp4	0.0	211.60046410560608	2.475278615951538
41	194.1382806301117	pulse	1	t		39.0	2.5	/experiments/knapen_AOT/AOT_stimuli/rescaled_final/1356_rv.mp4	0.0	211.95983219146729	
41	195.73816323280334	pulse	1	t		39.0	2.5	/experiments/knapen_AOT/AOT_stimuli/rescaled_final/1356_rv.mp4	0.0	213.55971479415894	
41	196.25419116020203	fix_post	2		12	39.0	2.5	/experiments/knapen_AOT/AOT_stimuli/rescaled_final/1356_rv.mp4	0.0	214.07574272155762	0.09998607635498047
42	196.354177236557	fix_pre	0		119	40.0	2.5	/experiments/knapen_AOT/AOT_stimuli/rescaled_final/0654_fw.mp4	0.0	214.1757287979126	1.0254557132720947
42	197.33783292770386	pulse	0	t		40.0	2.5	/experiments/knapen_AOT/AOT_stimuli/rescaled_final/0654_fw.mp4	0.0	215.15938448905945	
42	197.3796329498291	movie	1		242	40.0	2.5	/experiments/knapen_AOT/AOT_stimuli/rescaled_final/0654_fw.mp4	0.0	215.2011845111847	2.475107192993164
42	198.93711829185486	pulse	1	t		40.0	2.5	/experiments/knapen_AOT/AOT_stimuli/rescaled_final/0654_fw.mp4	0.0	216.75866985321045	
42	199.85474014282227	fix_post	2		12	40.0	2.5	/experiments/knapen_AOT/AOT_stimuli/rescaled_final/0654_fw.mp4	0.0	217.67629170417786	0.09996938705444336
43	199.9547095298767	fix_pre	0		120	41.0	2.5	blank	1.0	217.7762610912323	1.0001771450042725
43	200.53830218315125	pulse	0	t		41.0	2.5	blank	1.0	218.35985374450684	
43	200.95488667488098	movie	1		300	41.0	2.5	blank	1.0	218.77643823623657	2.500316619873047
43	202.1385474205017	pulse	1	t		41.0	2.5	blank	1.0	219.9600989818573	
43	203.45520329475403	fix_post	2		12	41.0	2.5	blank	1.0	221.27675485610962	0.10031008720397949
44	203.555513381958	fix_pre	0		120	42.0	2.5	/experiments/knapen_AOT/AOT_stimuli/rescaled_final/1766_rv.mp4	0.0	221.3770649433136	1.0165140628814697
44	203.73880672454834	pulse	0	t		42.0	2.5	/experiments/knapen_AOT/AOT_stimuli/rescaled_final/1766_rv.mp4	0.0	221.56035828590393	
44	204.57202744483948	movie	1		268	42.0	2.5	/experiments/knapen_AOT/AOT_stimuli/rescaled_final/1766_rv.mp4	0.0	222.39357900619507	2.4837446212768555
44	205.3369550704956	pulse	1	t		42.0	2.5	/experiments/knapen_AOT/AOT_stimuli/rescaled_final/1766_rv.mp4	0.0	223.1585066318512	
44	206.93713307380676	pulse	1	t		42.0	2.5	/experiments/knapen_AOT/AOT_stimuli/rescaled_final/1766_rv.mp4	0.0	224.75868463516235	
44	207.05577206611633	fix_post	2		12	42.0	2.5	/experiments/knapen_AOT/AOT_stimuli/rescaled_final/1766_rv.mp4	0.0	224.87732362747192	0.10001373291015625
45	207.1557857990265	fix_pre	0		120	43.0	2.5	/experiments/knapen_AOT/AOT_stimuli/rescaled_final/0457_rv.mp4	0.0	224.97733736038208	1.0169219970703125
45	208.1727077960968	movie	1		247	43.0	2.5	/experiments/knapen_AOT/AOT_stimuli/rescaled_final/0457_rv.mp4	0.0	225.9942593574524	2.483616828918457
45	208.53937101364136	pulse	1	t		43.0	2.5	/experiments/knapen_AOT/AOT_stimuli/rescaled_final/0457_rv.mp4	0.0	226.36092257499695	
45	210.13787150382996	pulse	1	t		43.0	2.5	/experiments/knapen_AOT/AOT_stimuli/rescaled_final/0457_rv.mp4	0.0	227.95942306518555	
45	210.65632462501526	fix_post	2		12	43.0	2.5	/experiments/knapen_AOT/AOT_stimuli/rescaled_final/0457_rv.mp4	0.0	228.47787618637085	0.09999823570251465
46	210.75632286071777	fix_pre	0		119	44.0	2.5	/experiments/knapen_AOT/AOT_stimuli/rescaled_final/1611_rv.mp4	0.0	228.57787442207336	1.0085678100585938
46	211.74015259742737	pulse	0	t		44.0	2.5	/experiments/knapen_AOT/AOT_stimuli/rescaled_final/1611_rv.mp4	0.0	229.56170415878296	
46	211.76489067077637	movie	1		269	44.0	2.5	/experiments/knapen_AOT/AOT_stimuli/rescaled_final/1611_rv.mp4	0.0	229.58644223213196	2.4921188354492188
46	213.33851647377014	pulse	1	t		44.0	2.5	/experiments/knapen_AOT/AOT_stimuli/rescaled_final/1611_rv.mp4	0.0	231.16006803512573	
46	214.2570095062256	fix_post	2		12	44.0	2.5	/experiments/knapen_AOT/AOT_stimuli/rescaled_final/1611_rv.mp4	0.0	232.07856106758118	0.09991288185119629
47	214.35692238807678	fix_pre	0		120	45.0	2.5	/experiments/knapen_AOT/AOT_stimuli/rescaled_final/0471_fw.mp4	0.0	232.17847394943237	1.016770362854004
47	214.93248891830444	pulse	0	t		45.0	2.5	/experiments/knapen_AOT/AOT_stimuli/rescaled_final/0471_fw.mp4	0.0	232.75404047966003	
47	215.3736927509308	movie	1		254	45.0	2.5	/experiments/knapen_AOT/AOT_stimuli/rescaled_final/0471_fw.mp4	0.0	233.19524431228638	2.483741521835327
47	216.5325791835785	pulse	1	t		45.0	2.5	/experiments/knapen_AOT/AOT_stimuli/rescaled_final/0471_fw.mp4	0.0	234.35413074493408	
47	217.8574342727661	fix_post	2		12	45.0	2.5	/experiments/knapen_AOT/AOT_stimuli/rescaled_final/0471_fw.mp4	0.0	235.6789858341217	0.09999990463256836
48	217.95743417739868	fix_pre	0		120	46.0	2.5	/experiments/knapen_AOT/AOT_stimuli/rescaled_final/0859_rv.mp4	0.0	235.77898573875427	1.0168099403381348
48	218.13291239738464	pulse	0	t		46.0	2.5	/experiments/knapen_AOT/AOT_stimuli/rescaled_final/0859_rv.mp4	0.0	235.95446395874023	
48	218.97424411773682	movie	1		273	46.0	2.5	/experiments/knapen_AOT/AOT_stimuli/rescaled_final/0859_rv.mp4	0.0	236.7957956790924	2.4839625358581543
48	219.73303818702698	pulse	1	t		46.0	2.5	/experiments/knapen_AOT/AOT_stimuli/rescaled_final/0859_rv.mp4	0.0	237.55458974838257	
48	221.33378887176514	pulse	1	t		46.0	2.5	/experiments/knapen_AOT/AOT_stimuli/rescaled_final/0859_rv.mp4	0.0	239.15534043312073	
48	221.45820665359497	fix_post	2		12	46.0	2.5	/experiments/knapen_AOT/AOT_stimuli/rescaled_final/0859_rv.mp4	0.0	239.27975821495056	0.09976339340209961
49	221.55797004699707	fix_pre	0		120	47.0	2.5	/experiments/knapen_AOT/AOT_stimuli/rescaled_final/1297_fw.mp4	0.0	239.37952160835266	1.02520751953125
49	222.58317756652832	movie	1		245	47.0	2.5	/experiments/knapen_AOT/AOT_stimuli/rescaled_final/1297_fw.mp4	0.0	240.4047291278839	3.1421844959259033
49	222.93453216552734	pulse	1	t		47.0	2.5	/experiments/knapen_AOT/AOT_stimuli/rescaled_final/1297_fw.mp4	0.0	240.75608372688293	
49	224.53382968902588	pulse	1	t		47.0	2.5	/experiments/knapen_AOT/AOT_stimuli/rescaled_final/1297_fw.mp4	0.0	242.35538125038147	
49	225.72536206245422	fix_post	2		0	47.0	2.5	/experiments/knapen_AOT/AOT_stimuli/rescaled_final/1297_fw.mp4	0.0	243.54691362380981	0.002240896224975586
50	225.7276029586792	fix_pre	0		50	48.0	2.5	blank	1.0	243.5491545200348	0.4143352508544922
50	226.13418579101562	pulse	0	t		48.0	2.5	blank	1.0	243.95573735237122	
50	226.1419382095337	movie	1		301	48.0	2.5	blank	1.0	243.96348977088928	2.5089609622955322
50	227.7341902256012	pulse	1	t		48.0	2.5	blank	1.0	245.5557417869568	
50	228.65089917182922	fix_post	2		12	48.0	2.5	blank	1.0	246.47245073318481	0.10003399848937988
51	228.7509331703186	fix_pre	0		120	49.0	2.5	/experiments/knapen_AOT/AOT_stimuli/rescaled_final/1414_fw.mp4	0.0	246.5724847316742	1.0249743461608887
51	229.33441615104675	pulse	0	t		49.0	2.5	/experiments/knapen_AOT/AOT_stimuli/rescaled_final/1414_fw.mp4	0.0	247.15596771240234	
51	229.7759075164795	movie	1		272	49.0	2.5	/experiments/knapen_AOT/AOT_stimuli/rescaled_final/1414_fw.mp4	0.0	247.59745907783508	2.475632667541504
51	230.93468976020813	pulse	1	t		49.0	2.5	/experiments/knapen_AOT/AOT_stimuli/rescaled_final/1414_fw.mp4	0.0	248.75624132156372	
51	232.251540184021	fix_post	2		12	49.0	2.5	/experiments/knapen_AOT/AOT_stimuli/rescaled_final/1414_fw.mp4	0.0	250.0730917453766	0.09970736503601074
52	232.351247549057	fix_pre	0		120	50.0	2.5	/experiments/knapen_AOT/AOT_stimuli/rescaled_final/0846_rv.mp4	0.0	250.1727991104126	1.0251991748809814
52	232.53483152389526	pulse	0	t		50.0	2.5	/experiments/knapen_AOT/AOT_stimuli/rescaled_final/0846_rv.mp4	0.0	250.35638308525085	
52	233.376446723938	movie	1		280	50.0	2.5	/experiments/knapen_AOT/AOT_stimuli/rescaled_final/0846_rv.mp4	0.0	251.19799828529358	2.4754300117492676
52	234.13302969932556	pulse	1	t		50.0	2.5	/experiments/knapen_AOT/AOT_stimuli/rescaled_final/0846_rv.mp4	0.0	251.95458126068115	
52	235.7333471775055	pulse	1	t		50.0	2.5	/experiments/knapen_AOT/AOT_stimuli/rescaled_final/0846_rv.mp4	0.0	253.55489873886108	
52	235.85187673568726	fix_post	2		12	50.0	2.5	/experiments/knapen_AOT/AOT_stimuli/rescaled_final/0846_rv.mp4	0.0	253.67342829704285	0.1000819206237793
53	235.95195865631104	fix_pre	0		120	51.0	2.5	/experiments/knapen_AOT/AOT_stimuli/rescaled_final/0865_fw.mp4	0.0	253.77351021766663	1.0250468254089355
53	236.97700548171997	movie	1		263	51.0	2.5	/experiments/knapen_AOT/AOT_stimuli/rescaled_final/0865_fw.mp4	0.0	254.79855704307556	2.475698232650757
53	237.33574962615967	pulse	1	t		51.0	2.5	/experiments/knapen_AOT/AOT_stimuli/rescaled_final/0865_fw.mp4	0.0	255.15730118751526	
53	238.9336018562317	pulse	1	t		51.0	2.5	/experiments/knapen_AOT/AOT_stimuli/rescaled_final/0865_fw.mp4	0.0	256.7551534175873	
53	239.45270371437073	fix_post	2		12	51.0	2.5	/experiments/knapen_AOT/AOT_stimuli/rescaled_final/0865_fw.mp4	0.0	257.2742552757263	0.09962797164916992
54	239.5523316860199	fix_pre	0		119	52.0	2.5	/experiments/knapen_AOT/AOT_stimuli/rescaled_final/0311_fw.mp4	0.0	257.3738832473755	1.0171856880187988
54	240.53607439994812	pulse	0	t		52.0	2.5	/experiments/knapen_AOT/AOT_stimuli/rescaled_final/0311_fw.mp4	0.0	258.3576259613037	
54	240.5695173740387	movie	1		292	52.0	2.5	/experiments/knapen_AOT/AOT_stimuli/rescaled_final/0311_fw.mp4	0.0	258.3910689353943	2.491910219192505
54	242.13466453552246	pulse	1	t		52.0	2.5	/experiments/knapen_AOT/AOT_stimuli/rescaled_final/0311_fw.mp4	0.0	259.95621609687805	
54	243.0614275932312	fix_post	2		11	52.0	2.5	/experiments/knapen_AOT/AOT_stimuli/rescaled_final/0311_fw.mp4	0.0	260.8829791545868	0.09151077270507812
55	243.15293836593628	fix_pre	0		120	53.0	2.5	/experiments/knapen_AOT/AOT_stimuli/rescaled_final/1274_fw.mp4	0.0	260.97448992729187	1.0167558193206787
55	243.73648166656494	pulse	0	t		53.0	2.5	/experiments/knapen_AOT/AOT_stimuli/rescaled_final/1274_fw.mp4	0.0	261.55803322792053	
55	244.16969418525696	movie	1		281	53.0	2.5	/experiments/knapen_AOT/AOT_stimuli/rescaled_final/1274_fw.mp4	0.0	261.99124574661255	2.483812093734741
55	245.33526992797852	pulse	1	t		53.0	2.5	/experiments/knapen_AOT/AOT_stimuli/rescaled_final/1274_fw.mp4	0.0	263.1568214893341	
55	246.6535062789917	fix_post	2		12	53.0	2.5	/experiments/knapen_AOT/AOT_stimuli/rescaled_final/1274_fw.mp4	0.0	264.4750578403473	0.09995794296264648
56	246.75346422195435	fix_pre	0		120	54.0	2.5	/experiments/knapen_AOT/AOT_stimuli/rescaled_final/0963_rv.mp4	0.0	264.57501578330994	1.0168142318725586
56	246.9370059967041	pulse	0	t		54.0	2.5	/experiments/knapen_AOT/AOT_stimuli/rescaled_final/0963_rv.mp4	0.0	264.7585575580597	
56	247.7702784538269	movie	1		276	54.0	2.5	/experiments/knapen_AOT/AOT_stimuli/rescaled_final/0963_rv.mp4	0.0	265.5918300151825	2.4837443828582764
56	248.53517079353333	pulse	1	t		54.0	2.5	/experiments/knapen_AOT/AOT_stimuli/rescaled_final/0963_rv.mp4	0.0	266.3567223548889	
56	250.13625478744507	pulse	1	t		54.0	2.5	/experiments/knapen_AOT/AOT_stimuli/rescaled_final/0963_rv.mp4	0.0	267.95780634880066	
56	250.25402283668518	fix_post	2		12	54.0	2.5	/experiments/knapen_AOT/AOT_stimuli/rescaled_final/0963_rv.mp4	0.0	268.07557439804077	0.09999442100524902
57	250.35401725769043	fix_pre	0		120	55.0	2.5	blank	1.0	268.175568819046	1.000199556350708
57	251.35421681404114	movie	1		300	55.0	2.5	blank	1.0	269.17576837539673	2.500286817550659
57	251.737708568573	pulse	1	t		55.0	2.5	blank	1.0	269.5592601299286	
57	253.33801436424255	pulse	1	t		55.0	2.5	blank	1.0	271.15956592559814	
57	253.8545036315918	fix_post	2		12	55.0	2.5	blank	1.0	271.6760551929474	0.10004329681396484
58	253.95454692840576	fix_pre	0		119	56.0	2.5	/experiments/knapen_AOT/AOT_stimuli/rescaled_final/1732_rv.mp4	0.0	271.77609848976135	1.016845941543579
58	254.93823719024658	pulse	0	t		56.0	2.5	/experiments/knapen_AOT/AOT_stimuli/rescaled_final/1732_rv.mp4	0.0	272.7597887516022	
58	254.97139286994934	movie	1		273	56.0	2.5	/experiments/knapen_AOT/AOT_stimuli/rescaled_final/1732_rv.mp4	0.0	272.79294443130493	2.4838919639587402
58	256.53780221939087	pulse	1	t		56.0	2.5	/experiments/knapen_AOT/AOT_stimuli/rescaled_final/1732_rv.mp4	0.0	274.35935378074646	
58	257.4552848339081	fix_post	2		12	56.0	2.5	/experiments/knapen_AOT/AOT_stimuli/rescaled_final/1732_rv.mp4	0.0	275.2768363952637	0.09975576400756836
59	257.55504059791565	fix_pre	0		120	57.0	2.5	/experiments/knapen_AOT/AOT_stimuli/rescaled_final/0296_rv.mp4	0.0	275.37659215927124	1.016970157623291
59	258.13870644569397	pulse	0	t		57.0	2.5	/experiments/knapen_AOT/AOT_stimuli/rescaled_final/0296_rv.mp4	0.0	275.96025800704956	
59	258.57201075553894	movie	1		282	57.0	2.5	/experiments/knapen_AOT/AOT_stimuli/rescaled_final/0296_rv.mp4	0.0	276.39356231689453	2.4836504459381104
59	259.7371470928192	pulse	1	t		57.0	2.5	/experiments/knapen_AOT/AOT_stimuli/rescaled_final/0296_rv.mp4	0.0	277.5586986541748	
59	261.05566120147705	fix_post	2		12	57.0	2.5	/experiments/knapen_AOT/AOT_stimuli/rescaled_final/0296_rv.mp4	0.0	278.87721276283264	0.09996891021728516
60	261.15563011169434	fix_pre	0		120	58.0	2.5	/experiments/knapen_AOT/AOT_stimuli/rescaled_final/1557_fw.mp4	0.0	278.9771816730499	1.0251538753509521
60	261.33914041519165	pulse	0	t		58.0	2.5	/experiments/knapen_AOT/AOT_stimuli/rescaled_final/1557_fw.mp4	0.0	279.16069197654724	
60	262.1807839870453	movie	1		276	58.0	2.5	/experiments/knapen_AOT/AOT_stimuli/rescaled_final/1557_fw.mp4	0.0	280.0023355484009	2.4755859375
60	262.9371724128723	pulse	1	t		58.0	2.5	/experiments/knapen_AOT/AOT_stimuli/rescaled_final/1557_fw.mp4	0.0	280.7587239742279	
60	264.53756737709045	pulse	1	t		58.0	2.5	/experiments/knapen_AOT/AOT_stimuli/rescaled_final/1557_fw.mp4	0.0	282.35911893844604	
60	264.6563699245453	fix_post	2		12	58.0	2.5	/experiments/knapen_AOT/AOT_stimuli/rescaled_final/1557_fw.mp4	0.0	282.4779214859009	0.09979915618896484
61	264.75616908073425	fix_pre	0		120	59.0	2.5	/experiments/knapen_AOT/AOT_stimuli/rescaled_final/0066_fw.mp4	0.0	282.57772064208984	1.0169332027435303
61	265.7731022834778	movie	1		264	59.0	2.5	/experiments/knapen_AOT/AOT_stimuli/rescaled_final/0066_fw.mp4	0.0	283.5946538448334	2.4840056896209717
61	266.13860416412354	pulse	1	t		59.0	2.5	/experiments/knapen_AOT/AOT_stimuli/rescaled_final/0066_fw.mp4	0.0	283.9601557254791	
61	267.7387399673462	pulse	1	t		59.0	2.5	/experiments/knapen_AOT/AOT_stimuli/rescaled_final/0066_fw.mp4	0.0	285.5602915287018	
61	268.25710797309875	fix_post	2		12	59.0	2.5	/experiments/knapen_AOT/AOT_stimuli/rescaled_final/0066_fw.mp4	0.0	286.07865953445435	0.09961438179016113
62	268.3567223548889	fix_pre	0		119	60.0	2.5	/experiments/knapen_AOT/AOT_stimuli/rescaled_final/2065_rv.mp4	0.0	286.1782739162445	1.0169503688812256
62	269.333731174469	pulse	0	t		60.0	2.5	/experiments/knapen_AOT/AOT_stimuli/rescaled_final/2065_rv.mp4	0.0	287.1552827358246	
62	269.37367272377014	movie	1		280	60.0	2.5	/experiments/knapen_AOT/AOT_stimuli/rescaled_final/2065_rv.mp4	0.0	287.19522428512573	2.4835708141326904
62	270.94042801856995	pulse	1	t		60.0	2.5	/experiments/knapen_AOT/AOT_stimuli/rescaled_final/2065_rv.mp4	0.0	288.76197957992554	
62	271.85724353790283	fix_post	2		12	60.0	2.5	/experiments/knapen_AOT/AOT_stimuli/rescaled_final/2065_rv.mp4	0.0	289.6787950992584	0.10003948211669922
63	271.95728302001953	fix_pre	0		120	61.0	2.5	blank	1.0	289.7788345813751	1.0000896453857422
63	272.53296995162964	pulse	0	t		61.0	2.5	blank	1.0	290.35452151298523	
63	272.9573726654053	movie	1		300	61.0	2.5	blank	1.0	290.77892422676086	2.50042986869812
63	274.1329848766327	pulse	1	t		61.0	2.5	blank	1.0	291.9545364379883	
63	275.4578025341034	fix_post	2		12	61.0	2.5	blank	1.0	293.279354095459	0.10001134872436523
64	275.55781388282776	fix_pre	0		120	62.0	2.5	/experiments/knapen_AOT/AOT_stimuli/rescaled_final/1770_fw.mp4	0.0	293.37936544418335	1.025238037109375
64	275.7332172393799	pulse	0	t		62.0	2.5	/experiments/knapen_AOT/AOT_stimuli/rescaled_final/1770_fw.mp4	0.0	293.5547688007355	
64	276.58305191993713	movie	1		270	62.0	2.5	/experiments/knapen_AOT/AOT_stimuli/rescaled_final/1770_fw.mp4	0.0	294.4046034812927	2.4752445220947266
64	277.33324575424194	pulse	1	t		62.0	2.5	/experiments/knapen_AOT/AOT_stimuli/rescaled_final/1770_fw.mp4	0.0	295.15479731559753	
64	278.93345046043396	pulse	1	t		62.0	2.5	/experiments/knapen_AOT/AOT_stimuli/rescaled_final/1770_fw.mp4	0.0	296.75500202178955	
64	279.05829644203186	fix_post	2		12	62.0	2.5	/experiments/knapen_AOT/AOT_stimuli/rescaled_final/1770_fw.mp4	0.0	296.87984800338745	0.10001063346862793
65	279.1583070755005	fix_pre	0		120	63.0	2.5	/experiments/knapen_AOT/AOT_stimuli/rescaled_final/1648_fw.mp4	0.0	296.9798586368561	1.02518892288208
65	280.18349599838257	movie	1		263	63.0	2.5	/experiments/knapen_AOT/AOT_stimuli/rescaled_final/1648_fw.mp4	0.0	298.00504755973816	2.475498676300049
65	280.53355264663696	pulse	1	t		63.0	2.5	/experiments/knapen_AOT/AOT_stimuli/rescaled_final/1648_fw.mp4	0.0	298.35510420799255	
65	282.13391494750977	pulse	1	t		63.0	2.5	/experiments/knapen_AOT/AOT_stimuli/rescaled_final/1648_fw.mp4	0.0	299.95546650886536	
65	282.6589946746826	fix_post	2		12	63.0	2.5	/experiments/knapen_AOT/AOT_stimuli/rescaled_final/1648_fw.mp4	0.0	300.4805462360382	0.09989166259765625
66	282.7588863372803	fix_pre	0		118	64.0	2.5	/experiments/knapen_AOT/AOT_stimuli/rescaled_final/1337_fw.mp4	0.0	300.58043789863586	1.0001208782196045
66	283.7342710494995	pulse	0	t		64.0	2.5	/experiments/knapen_AOT/AOT_stimuli/rescaled_final/1337_fw.mp4	0.0	301.5558226108551	
66	283.7590072154999	movie	1		276	64.0	2.5	/experiments/knapen_AOT/AOT_stimuli/rescaled_final/1337_fw.mp4	0.0	301.58055877685547	2.4922409057617188
66	285.3336842060089	pulse	1	t		64.0	2.5	/experiments/knapen_AOT/AOT_stimuli/rescaled_final/1337_fw.mp4	0.0	303.1552357673645	
66	286.2512481212616	fix_post	2		12	64.0	2.5	/experiments/knapen_AOT/AOT_stimuli/rescaled_final/1337_fw.mp4	0.0	304.0727996826172	0.09981441497802734
67	286.3510625362396	fix_pre	0		120	65.0	2.5	/experiments/knapen_AOT/AOT_stimuli/rescaled_final/1756_rv.mp4	0.0	304.1726140975952	1.0084874629974365
67	286.93473649024963	pulse	0	t		65.0	2.5	/experiments/knapen_AOT/AOT_stimuli/rescaled_final/1756_rv.mp4	0.0	304.7562880516052	
67	287.35954999923706	movie	1		281	65.0	2.5	/experiments/knapen_AOT/AOT_stimuli/rescaled_final/1756_rv.mp4	0.0	305.18110156059265	2.4921717643737793
67	288.53306889533997	pulse	1	t		65.0	2.5	/experiments/knapen_AOT/AOT_stimuli/rescaled_final/1756_rv.mp4	0.0	306.35462045669556	
67	289.85172176361084	fix_post	2		12	65.0	2.5	/experiments/knapen_AOT/AOT_stimuli/rescaled_final/1756_rv.mp4	0.0	307.67327332496643	0.09994077682495117
68	289.9516625404358	fix_pre	0		120	66.0	2.5	/experiments/knapen_AOT/AOT_stimuli/rescaled_final/0092_rv.mp4	0.0	307.7732141017914	1.016941785812378
68	290.135213136673	pulse	0	t		66.0	2.5	/experiments/knapen_AOT/AOT_stimuli/rescaled_final/0092_rv.mp4	0.0	307.95676469802856	
68	290.96860432624817	movie	1		274	66.0	2.5	/experiments/knapen_AOT/AOT_stimuli/rescaled_final/0092_rv.mp4	0.0	308.79015588760376	2.483947277069092
68	291.73362922668457	pulse	1	t		66.0	2.5	/experiments/knapen_AOT/AOT_stimuli/rescaled_final/0092_rv.mp4	0.0	309.55518078804016	
68	293.3333971500397	pulse	1	t		66.0	2.5	/experiments/knapen_AOT/AOT_stimuli/rescaled_final/0092_rv.mp4	0.0	311.15494871139526	
68	293.45255160331726	fix_post	2		12	66.0	2.5	/experiments/knapen_AOT/AOT_stimuli/rescaled_final/0092_rv.mp4	0.0	311.27410316467285	0.09980249404907227
69	293.55235409736633	fix_pre	0		120	67.0	2.5	/experiments/knapen_AOT/AOT_stimuli/rescaled_final/0452_fw.mp4	0.0	311.3739056587219	1.0250043869018555
69	294.5773584842682	movie	1		271	67.0	2.5	/experiments/knapen_AOT/AOT_stimuli/rescaled_final/0452_fw.mp4	0.0	312.3989100456238	2.4753518104553223
69	294.9343137741089	pulse	1	t		67.0	2.5	/experiments/knapen_AOT/AOT_stimuli/rescaled_final/0452_fw.mp4	0.0	312.7558653354645	
69	296.5340118408203	pulse	1	t		67.0	2.5	/experiments/knapen_AOT/AOT_stimuli/rescaled_final/0452_fw.mp4	0.0	314.3555634021759	
69	297.0527102947235	fix_post	2		12	67.0	2.5	/experiments/knapen_AOT/AOT_stimuli/rescaled_final/0452_fw.mp4	0.0	314.8742618560791	0.10001850128173828
70	297.15272879600525	fix_pre	0		119	68.0	2.5	/experiments/knapen_AOT/AOT_stimuli/rescaled_final/1173_rv.mp4	0.0	314.97428035736084	1.016932487487793
70	298.1364367008209	pulse	0	t		68.0	2.5	/experiments/knapen_AOT/AOT_stimuli/rescaled_final/1173_rv.mp4	0.0	315.9579882621765	
70	298.16966128349304	movie	1		275	68.0	2.5	/experiments/knapen_AOT/AOT_stimuli/rescaled_final/1173_rv.mp4	0.0	315.99121284484863	2.4835474491119385
70	299.73570370674133	pulse	1	t		68.0	2.5	/experiments/knapen_AOT/AOT_stimuli/rescaled_final/1173_rv.mp4	0.0	317.5572552680969	
70	300.653208732605	fix_post	2		12	68.0	2.5	/experiments/knapen_AOT/AOT_stimuli/rescaled_final/1173_rv.mp4	0.0	318.47476029396057	0.10003161430358887
71	300.75324034690857	fix_pre	0		120	69.0	2.5	blank	1.0	318.57479190826416	1.0001330375671387
71	301.3369402885437	pulse	0	t		69.0	2.5	blank	1.0	319.1584918498993	
71	301.7533733844757	movie	1		300	69.0	2.5	blank	1.0	319.5749249458313	2.5003740787506104
71	302.937114238739	pulse	1	t		69.0	2.5	blank	1.0	320.7586658000946	
71	304.2537474632263	fix_post	2		12	69.0	2.5	blank	1.0	322.0752990245819	0.10010743141174316
72	304.35385489463806	fix_pre	0		120	70.0	2.5	/experiments/knapen_AOT/AOT_stimuli/rescaled_final/0929_rv.mp4	0.0	322.17540645599365	1.0167829990386963
72	304.5374073982239	pulse	0	t		70.0	2.5	/experiments/knapen_AOT/AOT_stimuli/rescaled_final/0929_rv.mp4	0.0	322.35895895957947	
72	305.37063789367676	movie	1		285	70.0	2.5	/experiments/knapen_AOT/AOT_stimuli/rescaled_final/0929_rv.mp4	0.0	323.19218945503235	2.4837541580200195
72	306.13568019866943	pulse	1	t		70.0	2.5	/experiments/knapen_AOT/AOT_stimuli/rescaled_final/0929_rv.mp4	0.0	323.957231760025	
72	307.73574662208557	pulse	1	t		70.0	2.5	/experiments/knapen_AOT/AOT_stimuli/rescaled_final/0929_rv.mp4	0.0	325.55729818344116	
72	307.8543920516968	fix_post	2		12	70.0	2.5	/experiments/knapen_AOT/AOT_stimuli/rescaled_final/0929_rv.mp4	0.0	325.67594361305237	0.10015273094177246
73	307.95454478263855	fix_pre	0		120	71.0	2.5	/experiments/knapen_AOT/AOT_stimuli/rescaled_final/2170_rv.mp4	0.0	325.77609634399414	1.0083799362182617
73	308.9629247188568	movie	1		280	71.0	2.5	/experiments/knapen_AOT/AOT_stimuli/rescaled_final/2170_rv.mp4	0.0	326.7844762802124	2.492124557495117
73	309.3366708755493	pulse	1	t		71.0	2.5	/experiments/knapen_AOT/AOT_stimuli/rescaled_final/2170_rv.mp4	0.0	327.1582224369049	
73	310.9362187385559	pulse	1	t		71.0	2.5	/experiments/knapen_AOT/AOT_stimuli/rescaled_final/2170_rv.mp4	0.0	328.7577702999115	
73	311.45504927635193	fix_post	2		12	71.0	2.5	/experiments/knapen_AOT/AOT_stimuli/rescaled_final/2170_rv.mp4	0.0	329.2766008377075	0.09995889663696289
74	311.5550081729889	fix_pre	0		119	72.0	2.5	/experiments/knapen_AOT/AOT_stimuli/rescaled_final/1274_fw.mp4	0.0	329.3765597343445	1.000044584274292
74	312.5387980937958	pulse	0	t		72.0	2.5	/experiments/knapen_AOT/AOT_stimuli/rescaled_final/1274_fw.mp4	0.0	330.36034965515137	
74	312.5550527572632	movie	1		268	72.0	2.5	/experiments/knapen_AOT/AOT_stimuli/rescaled_final/1274_fw.mp4	0.0	330.3766043186188	2.5003597736358643
74	314.1390058994293	pulse	1	t		72.0	2.5	/experiments/knapen_AOT/AOT_stimuli/rescaled_final/1274_fw.mp4	0.0	331.9605574607849	
74	315.05541253089905	fix_post	2		12	72.0	2.5	/experiments/knapen_AOT/AOT_stimuli/rescaled_final/1274_fw.mp4	0.0	332.87696409225464	0.10000133514404297
75	315.1554138660431	fix_pre	0		120	73.0	2.5	/experiments/knapen_AOT/AOT_stimuli/rescaled_final/1053_rv.mp4	0.0	332.9769654273987	1.0084929466247559
75	315.7391006946564	pulse	0	t		73.0	2.5	/experiments/knapen_AOT/AOT_stimuli/rescaled_final/1053_rv.mp4	0.0	333.56065225601196	
75	316.16390681266785	movie	1		280	73.0	2.5	/experiments/knapen_AOT/AOT_stimuli/rescaled_final/1053_rv.mp4	0.0	333.98545837402344	2.4924492835998535
75	317.33761286735535	pulse	1	t		73.0	2.5	/experiments/knapen_AOT/AOT_stimuli/rescaled_final/1053_rv.mp4	0.0	335.15916442871094	
75	318.6563560962677	fix_post	2		12	73.0	2.5	/experiments/knapen_AOT/AOT_stimuli/rescaled_final/1053_rv.mp4	0.0	336.4779076576233	0.09959864616394043
76	318.75595474243164	fix_pre	0		120	74.0	2.5	/experiments/knapen_AOT/AOT_stimuli/rescaled_final/0078_rv.mp4	0.0	336.57750630378723	1.008500576019287
76	318.9400007724762	pulse	0	t		74.0	2.5	/experiments/knapen_AOT/AOT_stimuli/rescaled_final/0078_rv.mp4	0.0	336.7615523338318	
76	319.7644553184509	movie	1		278	74.0	2.5	/experiments/knapen_AOT/AOT_stimuli/rescaled_final/0078_rv.mp4	0.0	337.5860068798065	2.4920430183410645
76	320.53764128685	pulse	1	t		74.0	2.5	/experiments/knapen_AOT/AOT_stimuli/rescaled_final/0078_rv.mp4	0.0	338.35919284820557	
76	322.13774013519287	pulse	1	t		74.0	2.5	/experiments/knapen_AOT/AOT_stimuli/rescaled_final/0078_rv.mp4	0.0	339.95929169654846	
76	322.256498336792	fix_post	2		12	74.0	2.5	/experiments/knapen_AOT/AOT_stimuli/rescaled_final/0078_rv.mp4	0.0	340.0780498981476	0.10007548332214355
77	322.35657382011414	fix_pre	0		120	75.0	2.5	blank	1.0	340.1781253814697	1.000075340270996
77	323.35664916038513	movie	1		300	75.0	2.5	blank	1.0	341.1782007217407	2.500364065170288
77	323.7403254508972	pulse	1	t		75.0	2.5	blank	1.0	341.5618770122528	
77	325.3323407173157	pulse	1	t		75.0	2.5	blank	1.0	343.15389227867126	
77	325.8570132255554	fix_post	2		12	75.0	2.5	blank	1.0	343.678564786911	0.1000216007232666
78	325.9570348262787	fix_pre	0		118	76.0	2.5	/experiments/knapen_AOT/AOT_stimuli/rescaled_final/0449_rv.mp4	0.0	343.7785863876343	1.0002613067626953
78	326.93243885040283	pulse	0	t		76.0	2.5	/experiments/knapen_AOT/AOT_stimuli/rescaled_final/0449_rv.mp4	0.0	344.7539904117584	
78	326.9572961330414	movie	1		282	76.0	2.5	/experiments/knapen_AOT/AOT_stimuli/rescaled_final/0449_rv.mp4	0.0	344.778847694397	2.4921624660491943
78	328.5327351093292	pulse	1	t		76.0	2.5	/experiments/knapen_AOT/AOT_stimuli/rescaled_final/0449_rv.mp4	0.0	346.3542866706848	
78	329.4494585990906	fix_post	2		12	76.0	2.5	/experiments/knapen_AOT/AOT_stimuli/rescaled_final/0449_rv.mp4	0.0	347.27101016044617	0.09984278678894043
79	329.5493013858795	fix_pre	0		120	77.0	2.5	/experiments/knapen_AOT/AOT_stimuli/rescaled_final/0134_fw.mp4	0.0	347.3708529472351	1.0084099769592285
79	330.13288283348083	pulse	0	t		77.0	2.5	/experiments/knapen_AOT/AOT_stimuli/rescaled_final/0134_fw.mp4	0.0	347.9544343948364	
79	330.55771136283875	movie	1		268	77.0	2.5	/experiments/knapen_AOT/AOT_stimuli/rescaled_final/0134_fw.mp4	0.0	348.37926292419434	2.49216890335083
79	331.73324513435364	pulse	1	t		77.0	2.5	/experiments/knapen_AOT/AOT_stimuli/rescaled_final/0134_fw.mp4	0.0	349.55479669570923	
79	333.0498802661896	fix_post	2		12	77.0	2.5	/experiments/knapen_AOT/AOT_stimuli/rescaled_final/0134_fw.mp4	0.0	350.87143182754517	0.09998011589050293
80	333.1498603820801	fix_pre	0		120	78.0	2.5	/experiments/knapen_AOT/AOT_stimuli/rescaled_final/0484_fw.mp4	0.0	350.97141194343567	1.0086183547973633
80	333.3335108757019	pulse	0	t		78.0	2.5	/experiments/knapen_AOT/AOT_stimuli/rescaled_final/0484_fw.mp4	0.0	351.1550624370575	
80	334.15847873687744	movie	1		274	78.0	2.5	/experiments/knapen_AOT/AOT_stimuli/rescaled_final/0484_fw.mp4	0.0	351.98003029823303	2.491858959197998
80	334.93362307548523	pulse	1	t		78.0	2.5	/experiments/knapen_AOT/AOT_stimuli/rescaled_final/0484_fw.mp4	0.0	352.7551746368408	
80	336.5339934825897	pulse	1	t		78.0	2.5	/experiments/knapen_AOT/AOT_stimuli/rescaled_final/0484_fw.mp4	0.0	354.3555450439453	
80	336.65033769607544	fix_post	2		12	78.0	2.5	/experiments/knapen_AOT/AOT_stimuli/rescaled_final/0484_fw.mp4	0.0	354.47188925743103	0.10004925727844238
81	336.7503869533539	fix_pre	0		120	79.0	2.5	/experiments/knapen_AOT/AOT_stimuli/rescaled_final/0777_rv.mp4	0.0	354.5719385147095	1.0084617137908936
81	337.7588486671448	movie	1		263	79.0	2.5	/experiments/knapen_AOT/AOT_stimuli/rescaled_final/0777_rv.mp4	0.0	355.58040022850037	2.492300271987915
81	338.13453364372253	pulse	1	t		79.0	2.5	/experiments/knapen_AOT/AOT_stimuli/rescaled_final/0777_rv.mp4	0.0	355.9560852050781	
81	339.73453998565674	pulse	1	t		79.0	2.5	/experiments/knapen_AOT/AOT_stimuli/rescaled_final/0777_rv.mp4	0.0	357.55609154701233	
81	340.2511489391327	fix_post	2		12	79.0	2.5	/experiments/knapen_AOT/AOT_stimuli/rescaled_final/0777_rv.mp4	0.0	358.0727005004883	0.09975004196166992
82	340.35089898109436	fix_pre	0		119	80.0	2.5	/experiments/knapen_AOT/AOT_stimuli/rescaled_final/0859_fw.mp4	0.0	358.17245054244995	1.0003228187561035
82	341.3349618911743	pulse	0	t		80.0	2.5	/experiments/knapen_AOT/AOT_stimuli/rescaled_final/0859_fw.mp4	0.0	359.1565134525299	
82	341.35122179985046	movie	1		278	80.0	2.5	/experiments/knapen_AOT/AOT_stimuli/rescaled_final/0859_fw.mp4	0.0	359.17277336120605	2.500459909439087
82	342.9345066547394	pulse	1	t		80.0	2.5	/experiments/knapen_AOT/AOT_stimuli/rescaled_final/0859_fw.mp4	0.0	360.75605821609497	
82	343.85168170928955	fix_post	2		12	80.0	2.5	/experiments/knapen_AOT/AOT_stimuli/rescaled_final/0859_fw.mp4	0.0	361.67323327064514	0.09990954399108887
83	343.95159125328064	fix_pre	0		120	81.0	2.5	/experiments/knapen_AOT/AOT_stimuli/rescaled_final/0096_rv.mp4	0.0	361.77314281463623	1.0083391666412354
83	344.53515100479126	pulse	0	t		81.0	2.5	/experiments/knapen_AOT/AOT_stimuli/rescaled_final/0096_rv.mp4	0.0	362.35670256614685	
83	344.9599304199219	movie	1		270	81.0	2.5	/experiments/knapen_AOT/AOT_stimuli/rescaled_final/0096_rv.mp4	0.0	362.78148198127747	2.4921092987060547
83	346.1335964202881	pulse	1	t		81.0	2.5	/experiments/knapen_AOT/AOT_stimuli/rescaled_final/0096_rv.mp4	0.0	363.9551479816437	
83	347.45203971862793	fix_post	2		12	81.0	2.5	/experiments/knapen_AOT/AOT_stimuli/rescaled_final/0096_rv.mp4	0.0	365.2735912799835	0.09992361068725586
84	347.5519633293152	fix_pre	0		120	82.0	2.5	blank	1.0	365.3735148906708	1.0001649856567383
84	347.7355706691742	pulse	0	t		82.0	2.5	blank	1.0	365.5571222305298	
84	348.5521283149719	movie	1		300	82.0	2.5	blank	1.0	366.3736798763275	2.5003821849823
84	349.33581352233887	pulse	1	t		82.0	2.5	blank	1.0	367.15736508369446	
84	350.93601655960083	pulse	1	t		82.0	2.5	blank	1.0	368.7575681209564	
84	351.0525104999542	fix_post	2		12	82.0	2.5	blank	1.0	368.8740620613098	0.10002875328063965
85	351.15253925323486	fix_pre	0		120	83.0	2.5	/experiments/knapen_AOT/AOT_stimuli/rescaled_final/1855_fw.mp4	0.0	368.97409081459045	1.0085923671722412
85	352.1611316204071	movie	1		280	83.0	2.5	/experiments/knapen_AOT/AOT_stimuli/rescaled_final/1855_fw.mp4	0.0	369.9826831817627	2.4920592308044434
85	352.534677028656	pulse	1	t		83.0	2.5	/experiments/knapen_AOT/AOT_stimuli/rescaled_final/1855_fw.mp4	0.0	370.3562285900116	
85	354.1349136829376	pulse	1	t		83.0	2.5	/experiments/knapen_AOT/AOT_stimuli/rescaled_final/1855_fw.mp4	0.0	371.9564652442932	
85	354.65319085121155	fix_post	2		12	83.0	2.5	/experiments/knapen_AOT/AOT_stimuli/rescaled_final/1855_fw.mp4	0.0	372.47474241256714	0.10822248458862305
87	354.76141333580017	stim	0		1715					372.58296489715576	14.293807029724121
87	355.7367343902588	pulse	0	t						373.5582859516144	
87	357.3370351791382	pulse	0	t						375.1585867404938	
87	358.93720388412476	pulse	0	t						376.75875544548035	
87	360.5374710559845	pulse	0	t						378.3590226173401	
87	362.1377143859863	pulse	0	t						379.9592659473419	
87	363.73796939849854	pulse	0	t						381.5595209598541	
87	365.33820033073425	pulse	0	t						383.15975189208984	
87	366.93845105171204	pulse	0	t						384.7600026130676	
87	368.53895258903503	pulse	0	t						386.3605041503906	
