trial_nr	onset	event_type	phase	response	nr_frames	movie_index	movie_duration	movie_file	blank	onset_abs	duration
0	0.15822815895080566	stim	0		71					23.897255182266235	0.5915498733520508
0	0.7415940761566162	response	0	space						24.480621099472046	
1	0.7497780323028564	stim	0		2202					24.488805055618286	18.349882125854492
1	19.09347701072693	pulse	0	t						42.83250403404236	
1	19.09966015815735	stim	1		1717					42.83868718147278	14.308292865753174
1	20.691632986068726	pulse	1	t						44.430660009384155	
1	22.291561126708984	pulse	1	t						46.030588150024414	
1	23.89148497581482	pulse	1	t						47.63051199913025	
1	25.491503953933716	pulse	1	t						49.230530977249146	
1	27.09136700630188	pulse	1	t						50.83039402961731	
1	28.691486120224	pulse	1	t						52.43051314353943	
1	30.291490077972412	pulse	1	t						54.03051710128784	
1	31.89143395423889	pulse	1	t						55.63046097755432	
2	33.40795302391052	fix_pre	0		11	0.0	2.5	/experiments/aot/R_S_yt-zSSnQYeO_DE_338.mp4	0.0	57.14698004722595	0.09160709381103516
2	33.491480112075806	pulse	0	t		0.0	2.5	/experiments/aot/R_S_yt-zSSnQYeO_DE_338.mp4	0.0	57.230507135391235	
2	33.49956011772156	movie	1		300	0.0	2.5	/experiments/aot/R_S_yt-zSSnQYeO_DE_338.mp4	0.0	57.23858714103699	2.5083529949188232
2	35.09150815010071	pulse	1	t		0.0	2.5	/experiments/aot/R_S_yt-zSSnQYeO_DE_338.mp4	0.0	58.83053517341614	
2	36.00791311264038	fix_post	2		12	0.0	2.5	/experiments/aot/R_S_yt-zSSnQYeO_DE_338.mp4	0.0	59.74694013595581	0.10008883476257324
3	36.108001947402954	fix_pre	0		120	1.0	2.5	/experiments/aot/R_S_yt-B8Sy53C6Pxw_8.mp4	0.0	59.847028970718384	1.0000650882720947
3	36.691457986831665	pulse	0	t		1.0	2.5	/experiments/aot/R_S_yt-B8Sy53C6Pxw_8.mp4	0.0	60.430485010147095	
3	37.10806703567505	movie	1		300	1.0	2.5	/experiments/aot/R_S_yt-B8Sy53C6Pxw_8.mp4	0.0	60.84709405899048	2.4997949600219727
3	38.29141116142273	pulse	1	t		1.0	2.5	/experiments/aot/R_S_yt-B8Sy53C6Pxw_8.mp4	0.0	62.03043818473816	
3	39.60786199569702	fix_post	2		12	1.0	2.5	/experiments/aot/R_S_yt-B8Sy53C6Pxw_8.mp4	0.0	63.34688901901245	0.09999299049377441
4	39.707854986190796	fix_pre	0		120	2.0	2.5	/experiments/aot/S_yt-ni4JaYu7PhU_6.mp4	0.0	63.446882009506226	1.0001130104064941
4	39.8914430141449	pulse	0	t		2.0	2.5	/experiments/aot/S_yt-ni4JaYu7PhU_6.mp4	0.0	63.63047003746033	
4	40.70796799659729	movie	1		299	2.0	2.5	/experiments/aot/S_yt-ni4JaYu7PhU_6.mp4	0.0	64.44699501991272	2.499988079071045
4	41.49138593673706	pulse	1	t		2.0	2.5	/experiments/aot/S_yt-ni4JaYu7PhU_6.mp4	0.0	65.23041296005249	
4	43.091490030288696	pulse	1	t		2.0	2.5	/experiments/aot/S_yt-ni4JaYu7PhU_6.mp4	0.0	66.83051705360413	
4	43.207956075668335	fix_post	2		12	2.0	2.5	/experiments/aot/S_yt-ni4JaYu7PhU_6.mp4	0.0	66.94698309898376	0.09995007514953613
5	43.30790615081787	fix_pre	0		120	3.0	2.5	/experiments/aot/R_S_yt-zSSnQYeO_DE_338.mp4	0.0	67.0469331741333	1.000011920928955
5	44.307918071746826	movie	1		300	3.0	2.5	/experiments/aot/R_S_yt-zSSnQYeO_DE_338.mp4	0.0	68.04694509506226	2.499945878982544
5	44.69150710105896	pulse	1	t		3.0	2.5	/experiments/aot/R_S_yt-zSSnQYeO_DE_338.mp4	0.0	68.43053412437439	
5	46.29144597053528	pulse	1	t		3.0	2.5	/experiments/aot/R_S_yt-zSSnQYeO_DE_338.mp4	0.0	70.03047299385071	
5	46.80786395072937	fix_post	2		12	3.0	2.5	/experiments/aot/R_S_yt-zSSnQYeO_DE_338.mp4	0.0	70.5468909740448	0.1001441478729248
6	46.908008098602295	fix_pre	0		119	4.0	2.5	/experiments/aot/R_S_BO_A018_C029_SDR_20190812_SDR_2K_AVC.mp4	0.0	70.64703512191772	0.9911270141601562
6	47.89146614074707	pulse	0	t		4.0	2.5	/experiments/aot/R_S_BO_A018_C029_SDR_20190812_SDR_2K_AVC.mp4	0.0	71.6304931640625	
6	47.89913511276245	movie	1		167	4.0	2.5	/experiments/aot/R_S_BO_A018_C029_SDR_20190812_SDR_2K_AVC.mp4	0.0	71.63816213607788	2.509025812149048
6	49.49129295349121	pulse	1	t		4.0	2.5	/experiments/aot/R_S_BO_A018_C029_SDR_20190812_SDR_2K_AVC.mp4	0.0	73.23031997680664	
6	50.4081609249115	fix_post	2		12	4.0	2.5	/experiments/aot/R_S_BO_A018_C029_SDR_20190812_SDR_2K_AVC.mp4	0.0	74.14718794822693	0.0999610424041748
7	50.508121967315674	fix_pre	0		120	5.0	2.5	/experiments/aot/S_yt-0qfEA1ZFWjA_123.mp4	0.0	74.2471489906311	0.9997410774230957
7	51.091344118118286	pulse	0	t		5.0	2.5	/experiments/aot/S_yt-0qfEA1ZFWjA_123.mp4	0.0	74.83037114143372	
7	51.50786304473877	movie	1		300	5.0	2.5	/experiments/aot/S_yt-0qfEA1ZFWjA_123.mp4	0.0	75.2468900680542	2.5000340938568115
7	52.691328048706055	pulse	1	t		5.0	2.5	/experiments/aot/S_yt-0qfEA1ZFWjA_123.mp4	0.0	76.43035507202148	
7	54.00789713859558	fix_post	2		12	5.0	2.5	/experiments/aot/S_yt-0qfEA1ZFWjA_123.mp4	0.0	77.74692416191101	0.09997701644897461
8	54.107874155044556	fix_pre	0		120	6.0	2.5	blank	1.0	77.84690117835999	0.9999639987945557
8	54.291412115097046	pulse	0	t		6.0	2.5	blank	1.0	78.03043913841248	
8	55.10783815383911	movie	1		300	6.0	2.5	blank	1.0	78.84686517715454	2.5000338554382324
8	55.8912570476532	pulse	1	t		6.0	2.5	blank	1.0	79.63028407096863	
8	57.49131202697754	pulse	1	t		6.0	2.5	blank	1.0	81.23033905029297	
8	57.607872009277344	fix_post	2		12	6.0	2.5	blank	1.0	81.34689903259277	0.09995698928833008
9	57.707828998565674	fix_pre	0		120	7.0	2.5	/experiments/aot/R_S_video_inspire_florida_miami_brickell_sunset_00036.1080-h264.mp4	0.0	81.4468560218811	0.9999189376831055
9	58.70774793624878	movie	1		165	7.0	2.5	/experiments/aot/R_S_video_inspire_florida_miami_brickell_sunset_00036.1080-h264.mp4	0.0	82.44677495956421	2.5000901222229004
9	59.09217405319214	pulse	1	t		7.0	2.5	/experiments/aot/R_S_video_inspire_florida_miami_brickell_sunset_00036.1080-h264.mp4	0.0	82.83120107650757	
9	60.69117999076843	pulse	1	t		7.0	2.5	/experiments/aot/R_S_video_inspire_florida_miami_brickell_sunset_00036.1080-h264.mp4	0.0	84.43020701408386	
9	61.20783805847168	fix_post	2		12	7.0	2.5	/experiments/aot/R_S_video_inspire_florida_miami_brickell_sunset_00036.1080-h264.mp4	0.0	84.94686508178711	0.10000491142272949
10	61.30784296989441	fix_pre	0		119	8.0	2.5	/experiments/aot/S_yt-KpOAdMtPGFs_17.mp4	0.0	85.04686999320984	0.991610050201416
10	62.291293144226074	pulse	0	t		8.0	2.5	/experiments/aot/S_yt-KpOAdMtPGFs_17.mp4	0.0	86.0303201675415	
10	62.299453020095825	movie	1		301	8.0	2.5	/experiments/aot/S_yt-KpOAdMtPGFs_17.mp4	0.0	86.03848004341125	2.5083250999450684
10	63.89135408401489	pulse	1	t		8.0	2.5	/experiments/aot/S_yt-KpOAdMtPGFs_17.mp4	0.0	87.63038110733032	
10	64.8077781200409	fix_post	2		12	8.0	2.5	/experiments/aot/S_yt-KpOAdMtPGFs_17.mp4	0.0	88.54680514335632	0.10005784034729004
11	64.90783596038818	fix_pre	0		120	9.0	2.5	/experiments/aot/R_S_Oo8otu7cQ20_112.mp4	0.0	88.64686298370361	0.9998750686645508
11	65.49126100540161	pulse	0	t		9.0	2.5	/experiments/aot/R_S_Oo8otu7cQ20_112.mp4	0.0	89.23028802871704	
11	65.90771102905273	movie	1		300	9.0	2.5	/experiments/aot/R_S_Oo8otu7cQ20_112.mp4	0.0	89.64673805236816	2.500162124633789
11	67.09130692481995	pulse	1	t		9.0	2.5	/experiments/aot/R_S_Oo8otu7cQ20_112.mp4	0.0	90.83033394813538	
11	68.40787315368652	fix_post	2		12	9.0	2.5	/experiments/aot/R_S_Oo8otu7cQ20_112.mp4	0.0	92.14690017700195	0.0999000072479248
12	68.50777316093445	fix_pre	0		120	10.0	2.5	/experiments/aot/R_S_yt-mI9voWol7cE_104.mp4	0.0	92.24680018424988	0.9999849796295166
12	68.69125294685364	pulse	0	t		10.0	2.5	/experiments/aot/R_S_yt-mI9voWol7cE_104.mp4	0.0	92.43027997016907	
12	69.50775814056396	movie	1		300	10.0	2.5	/experiments/aot/R_S_yt-mI9voWol7cE_104.mp4	0.0	93.2467851638794	2.499985933303833
12	70.29133701324463	pulse	1	t		10.0	2.5	/experiments/aot/R_S_yt-mI9voWol7cE_104.mp4	0.0	94.03036403656006	
12	71.89126801490784	pulse	1	t		10.0	2.5	/experiments/aot/R_S_yt-mI9voWol7cE_104.mp4	0.0	95.63029503822327	
12	72.0077440738678	fix_post	2		12	10.0	2.5	/experiments/aot/R_S_yt-mI9voWol7cE_104.mp4	0.0	95.74677109718323	0.10003900527954102
13	72.10778307914734	fix_pre	0		120	11.0	2.5	/experiments/aot/R_S_yt-TNtO8RPd3iE_25.mp4	0.0	95.84681010246277	0.9999279975891113
13	73.10771107673645	movie	1		300	11.0	2.5	/experiments/aot/R_S_yt-TNtO8RPd3iE_25.mp4	0.0	96.84673810005188	2.500072956085205
13	73.49117803573608	pulse	1	t		11.0	2.5	/experiments/aot/R_S_yt-TNtO8RPd3iE_25.mp4	0.0	97.23020505905151	
13	75.09124398231506	pulse	1	t		11.0	2.5	/experiments/aot/R_S_yt-TNtO8RPd3iE_25.mp4	0.0	98.8302710056305	
13	75.60778403282166	fix_post	2		12	11.0	2.5	/experiments/aot/R_S_yt-TNtO8RPd3iE_25.mp4	0.0	99.34681105613708	0.100006103515625
14	75.70779013633728	fix_pre	0		119	12.0	2.5	/experiments/aot/R_S_ILSVRC2015_train_00457000.mp4	0.0	99.44681715965271	0.9915969371795654
14	76.69122695922852	pulse	0	t		12.0	2.5	/experiments/aot/R_S_ILSVRC2015_train_00457000.mp4	0.0	100.43025398254395	
14	76.69938707351685	movie	1		301	12.0	2.5	/experiments/aot/R_S_ILSVRC2015_train_00457000.mp4	0.0	100.43841409683228	2.5083670616149902
14	78.29122614860535	pulse	1	t		12.0	2.5	/experiments/aot/R_S_ILSVRC2015_train_00457000.mp4	0.0	102.03025317192078	
14	79.20775413513184	fix_post	2		12	12.0	2.5	/experiments/aot/R_S_ILSVRC2015_train_00457000.mp4	0.0	102.94678115844727	0.1000528335571289
15	79.30780696868896	fix_pre	0		120	13.0	2.5	blank	1.0	103.0468339920044	1.0000040531158447
15	79.89130401611328	pulse	0	t		13.0	2.5	blank	1.0	103.63033103942871	
15	80.30781102180481	movie	1		300	13.0	2.5	blank	1.0	104.04683804512024	2.499886989593506
15	81.49125814437866	pulse	1	t		13.0	2.5	blank	1.0	105.23028516769409	
15	82.80769801139832	fix_post	2		12	13.0	2.5	blank	1.0	106.54672503471375	0.10002803802490234
16	82.90772604942322	fix_pre	0		120	14.0	2.5	/experiments/aot/S_yt-yPl8LcgSMjo_32.mp4	0.0	106.64675307273865	1.000006914138794
16	83.09119915962219	pulse	0	t		14.0	2.5	/experiments/aot/S_yt-yPl8LcgSMjo_32.mp4	0.0	106.83022618293762	
16	83.90773296356201	movie	1		299	14.0	2.5	/experiments/aot/S_yt-yPl8LcgSMjo_32.mp4	0.0	107.64675998687744	2.500023126602173
16	84.69123792648315	pulse	1	t		14.0	2.5	/experiments/aot/S_yt-yPl8LcgSMjo_32.mp4	0.0	108.43026494979858	
16	86.2912220954895	pulse	1	t		14.0	2.5	/experiments/aot/S_yt-yPl8LcgSMjo_32.mp4	0.0	110.03024911880493	
16	86.40775609016418	fix_post	2		12	14.0	2.5	/experiments/aot/S_yt-yPl8LcgSMjo_32.mp4	0.0	110.14678311347961	0.0999460220336914
17	86.50770211219788	fix_pre	0		120	15.0	2.5	/experiments/aot/R_S_yt-5fZZrdwkFx0_28.mp4	0.0	110.2467291355133	0.999953031539917
17	87.5076551437378	movie	1		298	15.0	2.5	/experiments/aot/R_S_yt-5fZZrdwkFx0_28.mp4	0.0	111.24668216705322	2.500046968460083
17	87.89117693901062	pulse	1	t		15.0	2.5	/experiments/aot/R_S_yt-5fZZrdwkFx0_28.mp4	0.0	111.63020396232605	
17	89.49104809761047	pulse	1	t		15.0	2.5	/experiments/aot/R_S_yt-5fZZrdwkFx0_28.mp4	0.0	113.2300751209259	
17	90.00770211219788	fix_post	2		12	15.0	2.5	/experiments/aot/R_S_yt-5fZZrdwkFx0_28.mp4	0.0	113.7467291355133	0.09996604919433594
18	90.10766816139221	fix_pre	0		119	16.0	2.5	/experiments/aot/R_S_comp_A103_C002_0205DG_v12_SDR_FINAL_20180706_SDR_2K_AVC.mp4	0.0	113.84669518470764	0.9917299747467041
18	91.09118294715881	pulse	0	t		16.0	2.5	/experiments/aot/R_S_comp_A103_C002_0205DG_v12_SDR_FINAL_20180706_SDR_2K_AVC.mp4	0.0	114.83020997047424	
18	91.09939813613892	movie	1		166	16.0	2.5	/experiments/aot/R_S_comp_A103_C002_0205DG_v12_SDR_FINAL_20180706_SDR_2K_AVC.mp4	0.0	114.83842515945435	2.508288860321045
18	92.69088697433472	pulse	1	t		16.0	2.5	/experiments/aot/R_S_comp_A103_C002_0205DG_v12_SDR_FINAL_20180706_SDR_2K_AVC.mp4	0.0	116.42991399765015	
18	93.60768699645996	fix_post	2		12	16.0	2.5	/experiments/aot/R_S_comp_A103_C002_0205DG_v12_SDR_FINAL_20180706_SDR_2K_AVC.mp4	0.0	117.34671401977539	0.09996795654296875
19	93.70765495300293	fix_pre	0		120	17.0	2.5	/experiments/aot/S_ILSVRC2015_train_00743005.mp4	0.0	117.44668197631836	1.000063180923462
19	94.2911901473999	pulse	0	t		17.0	2.5	/experiments/aot/S_ILSVRC2015_train_00743005.mp4	0.0	118.03021717071533	
19	94.70771813392639	movie	1		299	17.0	2.5	/experiments/aot/S_ILSVRC2015_train_00743005.mp4	0.0	118.44674515724182	2.4999489784240723
19	95.89120507240295	pulse	1	t		17.0	2.5	/experiments/aot/S_ILSVRC2015_train_00743005.mp4	0.0	119.63023209571838	
19	97.20766711235046	fix_post	2		12	17.0	2.5	/experiments/aot/S_ILSVRC2015_train_00743005.mp4	0.0	120.9466941356659	0.09998488426208496
20	97.30765199661255	fix_pre	0		120	18.0	2.5	/experiments/aot/S_yt-vQGD-rJyMw4_166.mp4	0.0	121.04667901992798	0.9999470710754395
20	97.49116015434265	pulse	0	t		18.0	2.5	/experiments/aot/S_yt-vQGD-rJyMw4_166.mp4	0.0	121.23018717765808	
20	98.30759906768799	movie	1		300	18.0	2.5	/experiments/aot/S_yt-vQGD-rJyMw4_166.mp4	0.0	122.04662609100342	2.500051975250244
20	99.09115099906921	pulse	1	t		18.0	2.5	/experiments/aot/S_yt-vQGD-rJyMw4_166.mp4	0.0	122.83017802238464	
20	100.69109010696411	pulse	1	t		18.0	2.5	/experiments/aot/S_yt-vQGD-rJyMw4_166.mp4	0.0	124.43011713027954	
20	100.80765104293823	fix_post	2		12	18.0	2.5	/experiments/aot/S_yt-vQGD-rJyMw4_166.mp4	0.0	124.54667806625366	0.09996604919433594
21	100.90761709213257	fix_pre	0		120	19.0	2.5	/experiments/aot/S_yt-rB3YVZvA78w_20.mp4	0.0	124.646644115448	1.0000078678131104
21	101.90762495994568	movie	1		300	19.0	2.5	/experiments/aot/S_yt-rB3YVZvA78w_20.mp4	0.0	125.64665198326111	2.5000030994415283
21	102.291188955307	pulse	1	t		19.0	2.5	/experiments/aot/S_yt-rB3YVZvA78w_20.mp4	0.0	126.03021597862244	
21	103.89104509353638	pulse	1	t		19.0	2.5	/experiments/aot/S_yt-rB3YVZvA78w_20.mp4	0.0	127.6300721168518	
21	104.4076280593872	fix_post	2		12	19.0	2.5	/experiments/aot/S_yt-rB3YVZvA78w_20.mp4	0.0	128.14665508270264	0.10006999969482422
22	104.50769805908203	fix_pre	0		119	20.0	2.5	blank	1.0	128.24672508239746	0.9912979602813721
22	105.4908390045166	pulse	0	t		20.0	2.5	blank	1.0	129.22986602783203	
22	105.4989960193634	movie	1		301	20.0	2.5	blank	1.0	129.23802304267883	2.5086419582366943
22	107.09114694595337	pulse	1	t		20.0	2.5	blank	1.0	130.8301739692688	
22	108.0076379776001	fix_post	2		12	20.0	2.5	blank	1.0	131.74666500091553	0.09991717338562012
23	108.10755515098572	fix_pre	0		120	21.0	2.5	/experiments/aot/S_yt-zam74qlzGtQ_122.mp4	0.0	131.84658217430115	1.0000779628753662
23	108.69102692604065	pulse	0	t		21.0	2.5	/experiments/aot/S_yt-zam74qlzGtQ_122.mp4	0.0	132.43005394935608	
23	109.10763311386108	movie	1		300	21.0	2.5	/experiments/aot/S_yt-zam74qlzGtQ_122.mp4	0.0	132.8466601371765	2.4998810291290283
23	110.29103398323059	pulse	1	t		21.0	2.5	/experiments/aot/S_yt-zam74qlzGtQ_122.mp4	0.0	134.03006100654602	
23	111.60751414299011	fix_post	2		12	21.0	2.5	/experiments/aot/S_yt-zam74qlzGtQ_122.mp4	0.0	135.34654116630554	0.09999799728393555
24	111.70751214027405	fix_pre	0		120	22.0	2.5	/experiments/aot/S_bing-www_yahoo_com_entertainment_anastasia-karanikolaou-chantel-jeffries-discuss-182400502_html_9.mp4	0.0	135.44653916358948	0.9996218681335449
24	111.89117813110352	pulse	0	t		22.0	2.5	/experiments/aot/S_bing-www_yahoo_com_entertainment_anastasia-karanikolaou-chantel-jeffries-discuss-182400502_html_9.mp4	0.0	135.63020515441895	
24	112.70713400840759	movie	1		163	22.0	2.5	/experiments/aot/S_bing-www_yahoo_com_entertainment_anastasia-karanikolaou-chantel-jeffries-discuss-182400502_html_9.mp4	0.0	136.44616103172302	2.5004119873046875
24	113.49108910560608	pulse	1	t		22.0	2.5	/experiments/aot/S_bing-www_yahoo_com_entertainment_anastasia-karanikolaou-chantel-jeffries-discuss-182400502_html_9.mp4	0.0	137.2301161289215	
24	115.09114193916321	pulse	1	t		22.0	2.5	/experiments/aot/S_bing-www_yahoo_com_entertainment_anastasia-karanikolaou-chantel-jeffries-discuss-182400502_html_9.mp4	0.0	138.83016896247864	
24	115.20754599571228	fix_post	2		12	22.0	2.5	/experiments/aot/S_bing-www_yahoo_com_entertainment_anastasia-karanikolaou-chantel-jeffries-discuss-182400502_html_9.mp4	0.0	138.9465730190277	0.09995102882385254
25	115.30749702453613	fix_pre	0		120	23.0	2.5	/experiments/aot/R_S_yt-yPl8LcgSMjo_32.mp4	0.0	139.04652404785156	1.0001420974731445
25	116.30763912200928	movie	1		300	23.0	2.5	/experiments/aot/R_S_yt-yPl8LcgSMjo_32.mp4	0.0	140.0466661453247	2.499971866607666
25	116.69113206863403	pulse	1	t		23.0	2.5	/experiments/aot/R_S_yt-yPl8LcgSMjo_32.mp4	0.0	140.43015909194946	
25	118.29092907905579	pulse	1	t		23.0	2.5	/experiments/aot/R_S_yt-yPl8LcgSMjo_32.mp4	0.0	142.02995610237122	
25	118.80761098861694	fix_post	2		12	23.0	2.5	/experiments/aot/R_S_yt-yPl8LcgSMjo_32.mp4	0.0	142.54663801193237	0.0998990535736084
26	118.90751004219055	fix_pre	0		119	24.0	2.5	/experiments/aot/S_yt-tOOaOzYvtKE_79.mp4	0.0	142.64653706550598	0.9917230606079102
26	119.89103293418884	pulse	0	t		24.0	2.5	/experiments/aot/S_yt-tOOaOzYvtKE_79.mp4	0.0	143.63005995750427	
26	119.89923310279846	movie	1		301	24.0	2.5	/experiments/aot/S_yt-tOOaOzYvtKE_79.mp4	0.0	143.6382601261139	2.508342981338501
26	121.49107813835144	pulse	1	t		24.0	2.5	/experiments/aot/S_yt-tOOaOzYvtKE_79.mp4	0.0	145.23010516166687	
26	122.40757608413696	fix_post	2		12	24.0	2.5	/experiments/aot/S_yt-tOOaOzYvtKE_79.mp4	0.0	146.1466031074524	0.09990501403808594
27	122.50748109817505	fix_pre	0		120	25.0	2.5	/experiments/aot/S_yt-B8Sy53C6Pxw_8.mp4	0.0	146.24650812149048	1.0001258850097656
27	123.09092593193054	pulse	0	t		25.0	2.5	/experiments/aot/S_yt-B8Sy53C6Pxw_8.mp4	0.0	146.82995295524597	
27	123.50760698318481	movie	1		300	25.0	2.5	/experiments/aot/S_yt-B8Sy53C6Pxw_8.mp4	0.0	147.24663400650024	2.49993896484375
27	124.69095706939697	pulse	1	t		25.0	2.5	/experiments/aot/S_yt-B8Sy53C6Pxw_8.mp4	0.0	148.4299840927124	
27	126.00754594802856	fix_post	2		12	25.0	2.5	/experiments/aot/S_yt-B8Sy53C6Pxw_8.mp4	0.0	149.746572971344	0.09996914863586426
28	126.10751509666443	fix_pre	0		120	26.0	2.5	/experiments/aot/R_S_yt-mHLTJkMrkZI_143.mp4	0.0	149.84654211997986	1.0000319480895996
28	126.29118514060974	pulse	0	t		26.0	2.5	/experiments/aot/R_S_yt-mHLTJkMrkZI_143.mp4	0.0	150.03021216392517	
28	127.10754704475403	movie	1		300	26.0	2.5	/experiments/aot/R_S_yt-mHLTJkMrkZI_143.mp4	0.0	150.84657406806946	2.499955892562866
28	127.89098000526428	pulse	1	t		26.0	2.5	/experiments/aot/R_S_yt-mHLTJkMrkZI_143.mp4	0.0	151.6300070285797	
28	129.4915690422058	pulse	1	t		26.0	2.5	/experiments/aot/R_S_yt-mHLTJkMrkZI_143.mp4	0.0	153.23059606552124	
28	129.6075029373169	fix_post	2		12	26.0	2.5	/experiments/aot/R_S_yt-mHLTJkMrkZI_143.mp4	0.0	153.34652996063232	0.10005998611450195
29	129.7075629234314	fix_pre	0		120	27.0	2.5	/experiments/aot/S_comp_DB_D002_C003_PSNK_v04_SDR_PS_20180914_SDR_2K_AVC.mp4	0.0	153.44658994674683	0.9999310970306396
29	130.70749402046204	movie	1		166	27.0	2.5	/experiments/aot/S_comp_DB_D002_C003_PSNK_v04_SDR_PS_20180914_SDR_2K_AVC.mp4	0.0	154.44652104377747	2.5000860691070557
29	131.09104108810425	pulse	1	t		27.0	2.5	/experiments/aot/S_comp_DB_D002_C003_PSNK_v04_SDR_PS_20180914_SDR_2K_AVC.mp4	0.0	154.83006811141968	
29	132.69097304344177	pulse	1	t		27.0	2.5	/experiments/aot/S_comp_DB_D002_C003_PSNK_v04_SDR_PS_20180914_SDR_2K_AVC.mp4	0.0	156.4300000667572	
29	133.2075800895691	fix_post	2		12	27.0	2.5	/experiments/aot/S_comp_DB_D002_C003_PSNK_v04_SDR_PS_20180914_SDR_2K_AVC.mp4	0.0	156.94660711288452	0.09984898567199707
30	133.3074290752411	fix_pre	0		119	28.0	2.5	blank	1.0	157.04645609855652	0.991689920425415
30	134.29090404510498	pulse	0	t		28.0	2.5	blank	1.0	158.0299310684204	
30	134.2991189956665	movie	1		301	28.0	2.5	blank	1.0	158.03814601898193	2.5085041522979736
30	135.89107203483582	pulse	1	t		28.0	2.5	blank	1.0	159.63009905815125	
30	136.80762314796448	fix_post	2		12	28.0	2.5	blank	1.0	160.5466501712799	0.09986996650695801
31	136.90749311447144	fix_pre	0		120	29.0	2.5	/experiments/aot/S_Pexels_Videos_2795736.mp4	0.0	160.64652013778687	0.9999589920043945
31	137.49089002609253	pulse	0	t		29.0	2.5	/experiments/aot/S_Pexels_Videos_2795736.mp4	0.0	161.22991704940796	
31	137.90745210647583	movie	1		163	29.0	2.5	/experiments/aot/S_Pexels_Videos_2795736.mp4	0.0	161.64647912979126	2.5000460147857666
31	139.09097003936768	pulse	1	t		29.0	2.5	/experiments/aot/S_Pexels_Videos_2795736.mp4	0.0	162.8299970626831	
31	140.4074981212616	fix_post	2		12	29.0	2.5	/experiments/aot/S_Pexels_Videos_2795736.mp4	0.0	164.14652514457703	0.0999608039855957
32	140.5074589252472	fix_pre	0		120	30.0	2.5	/experiments/aot/R_S_pexels-c-technical-6491262.mp4	0.0	164.24648594856262	0.9999542236328125
32	140.6910059452057	pulse	0	t		30.0	2.5	/experiments/aot/R_S_pexels-c-technical-6491262.mp4	0.0	164.43003296852112	
32	141.50741314888	movie	1		166	30.0	2.5	/experiments/aot/R_S_pexels-c-technical-6491262.mp4	0.0	165.24644017219543	2.5000038146972656
32	142.29095911979675	pulse	1	t		30.0	2.5	/experiments/aot/R_S_pexels-c-technical-6491262.mp4	0.0	166.02998614311218	
32	143.890958070755	pulse	1	t		30.0	2.5	/experiments/aot/R_S_pexels-c-technical-6491262.mp4	0.0	167.62998509407043	
32	144.00741696357727	fix_post	2		12	30.0	2.5	/experiments/aot/R_S_pexels-c-technical-6491262.mp4	0.0	167.7464439868927	0.10005807876586914
33	144.10747504234314	fix_pre	0		120	31.0	2.5	/experiments/aot/R_S_ioSkDvwpEaU_35.mp4	0.0	167.84650206565857	0.9999740123748779
33	145.10744905471802	movie	1		300	31.0	2.5	/experiments/aot/R_S_ioSkDvwpEaU_35.mp4	0.0	168.84647607803345	2.499983072280884
33	145.49085307121277	pulse	1	t		31.0	2.5	/experiments/aot/R_S_ioSkDvwpEaU_35.mp4	0.0	169.2298800945282	
33	147.09086513519287	pulse	1	t		31.0	2.5	/experiments/aot/R_S_ioSkDvwpEaU_35.mp4	0.0	170.8298921585083	
33	147.6074321269989	fix_post	2		12	31.0	2.5	/experiments/aot/R_S_ioSkDvwpEaU_35.mp4	0.0	171.34645915031433	0.09996294975280762
34	147.7073950767517	fix_pre	0		119	32.0	2.5	/experiments/aot/S_ILSVRC2015_train_00457000.mp4	0.0	171.44642210006714	0.9916079044342041
34	148.69088411331177	pulse	0	t		32.0	2.5	/experiments/aot/S_ILSVRC2015_train_00457000.mp4	0.0	172.4299111366272	
34	148.6990029811859	movie	1		301	32.0	2.5	/experiments/aot/S_ILSVRC2015_train_00457000.mp4	0.0	172.43803000450134	2.508315086364746
34	150.29088401794434	pulse	1	t		32.0	2.5	/experiments/aot/S_ILSVRC2015_train_00457000.mp4	0.0	174.02991104125977	
34	151.20731806755066	fix_post	2		12	32.0	2.5	/experiments/aot/S_ILSVRC2015_train_00457000.mp4	0.0	174.9463450908661	0.10006189346313477
35	151.3073799610138	fix_pre	0		120	33.0	2.5	blank	1.0	175.04640698432922	0.9999251365661621
35	151.89080595970154	pulse	0	t		33.0	2.5	blank	1.0	175.62983298301697	
35	152.30730509757996	movie	1		300	33.0	2.5	blank	1.0	176.04633212089539	2.5000548362731934
35	153.4908790588379	pulse	1	t		33.0	2.5	blank	1.0	177.22990608215332	
35	154.80735993385315	fix_post	2		12	33.0	2.5	blank	1.0	178.54638695716858	0.09990906715393066
36	154.90726900100708	fix_pre	0		120	34.0	2.5	/experiments/aot/R_S_yt-lEPoNlKWibA_1.mp4	0.0	178.6462960243225	1.0001349449157715
36	155.09082913398743	pulse	0	t		34.0	2.5	/experiments/aot/R_S_yt-lEPoNlKWibA_1.mp4	0.0	178.82985615730286	
36	155.90740394592285	movie	1		300	34.0	2.5	/experiments/aot/R_S_yt-lEPoNlKWibA_1.mp4	0.0	179.64643096923828	2.5000240802764893
36	156.69080305099487	pulse	1	t		34.0	2.5	/experiments/aot/R_S_yt-lEPoNlKWibA_1.mp4	0.0	180.4298300743103	
36	158.29042792320251	pulse	1	t		34.0	2.5	/experiments/aot/R_S_yt-lEPoNlKWibA_1.mp4	0.0	182.02945494651794	
36	158.40742802619934	fix_post	2		12	34.0	2.5	/experiments/aot/R_S_yt-lEPoNlKWibA_1.mp4	0.0	182.14645504951477	0.0999460220336914
37	158.50737404823303	fix_pre	0		120	35.0	2.5	/experiments/aot/R_S_production_ID_5049072.mp4	0.0	182.24640107154846	1.000014066696167
37	159.5073881149292	movie	1		166	35.0	2.5	/experiments/aot/R_S_production_ID_5049072.mp4	0.0	183.24641513824463	2.5002458095550537
37	159.8908360004425	pulse	1	t		35.0	2.5	/experiments/aot/R_S_production_ID_5049072.mp4	0.0	183.62986302375793	
37	161.49062705039978	pulse	1	t		35.0	2.5	/experiments/aot/R_S_production_ID_5049072.mp4	0.0	185.2296540737152	
37	162.00763392448425	fix_post	2		12	35.0	2.5	/experiments/aot/R_S_production_ID_5049072.mp4	0.0	185.74666094779968	0.10006523132324219
38	162.1076991558075	fix_pre	0		119	36.0	2.5	/experiments/aot/S_59eT4XDXNno_25.mp4	0.0	185.84672617912292	0.9914188385009766
38	163.09082913398743	pulse	0	t		36.0	2.5	/experiments/aot/S_59eT4XDXNno_25.mp4	0.0	186.82985615730286	
38	163.09911799430847	movie	1		301	36.0	2.5	/experiments/aot/S_59eT4XDXNno_25.mp4	0.0	186.8381450176239	2.508213996887207
38	164.69077610969543	pulse	1	t		36.0	2.5	/experiments/aot/S_59eT4XDXNno_25.mp4	0.0	188.42980313301086	
38	165.60733199119568	fix_post	2		12	36.0	2.5	/experiments/aot/S_59eT4XDXNno_25.mp4	0.0	189.3463590145111	0.10002303123474121
39	165.70735502243042	fix_pre	0		120	37.0	2.5	/experiments/aot/S_production_ID_3944248.mp4	0.0	189.44638204574585	1.0000200271606445
39	166.2908639907837	pulse	0	t		37.0	2.5	/experiments/aot/S_production_ID_3944248.mp4	0.0	190.02989101409912	
39	166.70737504959106	movie	1		164	37.0	2.5	/experiments/aot/S_production_ID_3944248.mp4	0.0	190.4464020729065	2.4999520778656006
39	167.89087414741516	pulse	1	t		37.0	2.5	/experiments/aot/S_production_ID_3944248.mp4	0.0	191.6299011707306	
39	169.20732712745667	fix_post	2		12	37.0	2.5	/experiments/aot/S_production_ID_3944248.mp4	0.0	192.9463541507721	0.09996700286865234
40	169.30729413032532	fix_pre	0		120	38.0	2.5	/experiments/aot/S_yt-roThCERxVCs_133.mp4	0.0	193.04632115364075	1.0
40	169.49071598052979	pulse	0	t		38.0	2.5	/experiments/aot/S_yt-roThCERxVCs_133.mp4	0.0	193.22974300384521	
40	170.30729413032532	movie	1		300	38.0	2.5	/experiments/aot/S_yt-roThCERxVCs_133.mp4	0.0	194.04632115364075	2.4999818801879883
40	171.09076714515686	pulse	1	t		38.0	2.5	/experiments/aot/S_yt-roThCERxVCs_133.mp4	0.0	194.8297941684723	
40	172.69050192832947	pulse	1	t		38.0	2.5	/experiments/aot/S_yt-roThCERxVCs_133.mp4	0.0	196.4295289516449	
40	172.8072760105133	fix_post	2		12	38.0	2.5	/experiments/aot/S_yt-roThCERxVCs_133.mp4	0.0	196.54630303382874	0.09997701644897461
41	172.90725302696228	fix_pre	0		120	39.0	2.5	/experiments/aot/R_S_comp_A007_C017_01156B_v02_SDR_PS_20180925_SDR_2K_AVC.mp4	0.0	196.6462800502777	0.9999620914459229
41	173.9072151184082	movie	1		164	39.0	2.5	/experiments/aot/R_S_comp_A007_C017_01156B_v02_SDR_PS_20180925_SDR_2K_AVC.mp4	0.0	197.64624214172363	2.500058889389038
41	174.2908489704132	pulse	1	t		39.0	2.5	/experiments/aot/R_S_comp_A007_C017_01156B_v02_SDR_PS_20180925_SDR_2K_AVC.mp4	0.0	198.02987599372864	
41	175.8908920288086	pulse	1	t		39.0	2.5	/experiments/aot/R_S_comp_A007_C017_01156B_v02_SDR_PS_20180925_SDR_2K_AVC.mp4	0.0	199.62991905212402	
41	176.40727400779724	fix_post	2		12	39.0	2.5	/experiments/aot/R_S_comp_A007_C017_01156B_v02_SDR_PS_20180925_SDR_2K_AVC.mp4	0.0	200.14630103111267	0.0999901294708252
42	176.50726413726807	fix_pre	0		119	40.0	2.5	blank	1.0	200.2462911605835	0.9916579723358154
42	177.4907741546631	pulse	0	t		40.0	2.5	blank	1.0	201.22980117797852	
42	177.49892210960388	movie	1		301	40.0	2.5	blank	1.0	201.2379491329193	2.5083558559417725
42	179.0907919406891	pulse	1	t		40.0	2.5	blank	1.0	202.82981896400452	
42	180.00727796554565	fix_post	2		12	40.0	2.5	blank	1.0	203.74630498886108	0.0999441146850586
43	180.1072220802307	fix_pre	0		120	41.0	2.5	/experiments/aot/S_yt-3NMDWrZr1Z4_255.mp4	0.0	203.84624910354614	1.0000829696655273
43	180.69070506095886	pulse	0	t		41.0	2.5	/experiments/aot/S_yt-3NMDWrZr1Z4_255.mp4	0.0	204.4297320842743	
43	181.10730504989624	movie	1		300	41.0	2.5	/experiments/aot/S_yt-3NMDWrZr1Z4_255.mp4	0.0	204.84633207321167	2.499964952468872
43	182.2907121181488	pulse	1	t		41.0	2.5	/experiments/aot/S_yt-3NMDWrZr1Z4_255.mp4	0.0	206.02973914146423	
43	183.6072700023651	fix_post	2		12	41.0	2.5	/experiments/aot/S_yt-3NMDWrZr1Z4_255.mp4	0.0	207.34629702568054	0.0999600887298584
44	183.70723009109497	fix_pre	0		120	42.0	2.5	/experiments/aot/S_ILSVRC2015_train_00524006.mp4	0.0	207.4462571144104	0.9999608993530273
44	183.89076900482178	pulse	0	t		42.0	2.5	/experiments/aot/S_ILSVRC2015_train_00524006.mp4	0.0	207.6297960281372	
44	184.707190990448	movie	1		299	42.0	2.5	/experiments/aot/S_ILSVRC2015_train_00524006.mp4	0.0	208.44621801376343	2.5000081062316895
44	185.49073004722595	pulse	1	t		42.0	2.5	/experiments/aot/S_ILSVRC2015_train_00524006.mp4	0.0	209.22975707054138	
44	187.09019303321838	pulse	1	t		42.0	2.5	/experiments/aot/S_ILSVRC2015_train_00524006.mp4	0.0	210.8292200565338	
44	187.2071990966797	fix_post	2		12	42.0	2.5	/experiments/aot/S_ILSVRC2015_train_00524006.mp4	0.0	210.94622611999512	0.10001492500305176
45	187.30721402168274	fix_pre	0		120	43.0	2.5	/experiments/aot/R_S_b1-3.mp4	0.0	211.04624104499817	1.0000300407409668
45	188.3072440624237	movie	1		168	43.0	2.5	/experiments/aot/R_S_b1-3.mp4	0.0	212.04627108573914	2.500025987625122
45	188.69083905220032	pulse	1	t		43.0	2.5	/experiments/aot/R_S_b1-3.mp4	0.0	212.42986607551575	
45	190.29066014289856	pulse	1	t		43.0	2.5	/experiments/aot/R_S_b1-3.mp4	0.0	214.029687166214	
45	190.80727005004883	fix_post	2		12	43.0	2.5	/experiments/aot/R_S_b1-3.mp4	0.0	214.54629707336426	0.09996700286865234
46	190.90723705291748	fix_pre	0		119	44.0	2.5	/experiments/aot/R_S_yt-w_e3sxIzepA_115.mp4	0.0	214.6462640762329	0.9915919303894043
46	191.8907151222229	pulse	0	t		44.0	2.5	/experiments/aot/R_S_yt-w_e3sxIzepA_115.mp4	0.0	215.62974214553833	
46	191.89882898330688	movie	1		301	44.0	2.5	/experiments/aot/R_S_yt-w_e3sxIzepA_115.mp4	0.0	215.63785600662231	2.5083351135253906
46	193.49067902565002	pulse	1	t		44.0	2.5	/experiments/aot/R_S_yt-w_e3sxIzepA_115.mp4	0.0	217.22970604896545	
46	194.40716409683228	fix_post	2		12	44.0	2.5	/experiments/aot/R_S_yt-w_e3sxIzepA_115.mp4	0.0	218.1461911201477	0.1000218391418457
47	194.50718593597412	fix_pre	0		120	45.0	2.5	/experiments/aot/R_S_production_ID_3944248.mp4	0.0	218.24621295928955	0.9999542236328125
47	195.09067392349243	pulse	0	t		45.0	2.5	/experiments/aot/R_S_production_ID_3944248.mp4	0.0	218.82970094680786	
47	195.50714015960693	movie	1		165	45.0	2.5	/experiments/aot/R_S_production_ID_3944248.mp4	0.0	219.24616718292236	2.500102996826172
47	196.69066309928894	pulse	1	t		45.0	2.5	/experiments/aot/R_S_production_ID_3944248.mp4	0.0	220.42969012260437	
47	198.0072431564331	fix_post	2		12	45.0	2.5	/experiments/aot/R_S_production_ID_3944248.mp4	0.0	221.74627017974854	0.10007596015930176
48	198.1073191165924	fix_pre	0		120	46.0	2.5	/experiments/aot/S_yt-c-H45QS0CF4_147.mp4	0.0	221.84634613990784	0.9999179840087891
48	198.29072213172913	pulse	0	t		46.0	2.5	/experiments/aot/S_yt-c-H45QS0CF4_147.mp4	0.0	222.02974915504456	
48	199.1072371006012	movie	1		300	46.0	2.5	/experiments/aot/S_yt-c-H45QS0CF4_147.mp4	0.0	222.84626412391663	2.5000150203704834
48	199.89060497283936	pulse	1	t		46.0	2.5	/experiments/aot/S_yt-c-H45QS0CF4_147.mp4	0.0	223.62963199615479	
48	201.4907419681549	pulse	1	t		46.0	2.5	/experiments/aot/S_yt-c-H45QS0CF4_147.mp4	0.0	225.22976899147034	
48	201.60725212097168	fix_post	2		12	46.0	2.5	/experiments/aot/S_yt-c-H45QS0CF4_147.mp4	0.0	225.3462791442871	0.09993600845336914
49	201.70718812942505	fix_pre	0		120	47.0	2.5	/experiments/aot/R_S_yt-fnE8kgUHUMI_64.mp4	0.0	225.44621515274048	1.000018835067749
49	202.7072069644928	movie	1		300	47.0	2.5	/experiments/aot/R_S_yt-fnE8kgUHUMI_64.mp4	0.0	226.44623398780823	2.4999451637268066
49	203.09063911437988	pulse	1	t		47.0	2.5	/experiments/aot/R_S_yt-fnE8kgUHUMI_64.mp4	0.0	226.8296661376953	
49	204.69060802459717	pulse	1	t		47.0	2.5	/experiments/aot/R_S_yt-fnE8kgUHUMI_64.mp4	0.0	228.4296350479126	
49	205.2071521282196	fix_post	2		12	47.0	2.5	/experiments/aot/R_S_yt-fnE8kgUHUMI_64.mp4	0.0	228.94617915153503	0.10002589225769043
50	205.3071780204773	fix_pre	0		119	48.0	2.5	/experiments/aot/S_yt-D6fhzH21T_E_26.mp4	0.0	229.04620504379272	0.9916589260101318
50	206.29064798355103	pulse	0	t		48.0	2.5	/experiments/aot/S_yt-D6fhzH21T_E_26.mp4	0.0	230.02967500686646	
50	206.29883694648743	movie	1		301	48.0	2.5	/experiments/aot/S_yt-D6fhzH21T_E_26.mp4	0.0	230.03786396980286	2.50832200050354
50	207.89072608947754	pulse	1	t		48.0	2.5	/experiments/aot/S_yt-D6fhzH21T_E_26.mp4	0.0	231.62975311279297	
50	208.80715894699097	fix_post	2		12	48.0	2.5	/experiments/aot/S_yt-D6fhzH21T_E_26.mp4	0.0	232.5461859703064	0.09992504119873047
51	208.9070839881897	fix_pre	0		120	49.0	2.5	blank	1.0	232.64611101150513	1.0000519752502441
51	209.49050211906433	pulse	0	t		49.0	2.5	blank	1.0	233.22952914237976	
51	209.90713596343994	movie	1		300	49.0	2.5	blank	1.0	233.64616298675537	2.4999990463256836
51	211.09060096740723	pulse	1	t		49.0	2.5	blank	1.0	234.82962799072266	
51	212.40713500976562	fix_post	2		12	49.0	2.5	blank	1.0	236.14616203308105	0.09999799728393555
52	212.50713300704956	fix_pre	0		120	50.0	2.5	/experiments/aot/R_S_yt-yJmHtBFyhH4_15.mp4	0.0	236.246160030365	1.0000109672546387
52	212.69065809249878	pulse	0	t		50.0	2.5	/experiments/aot/R_S_yt-yJmHtBFyhH4_15.mp4	0.0	236.4296851158142	
52	213.5071439743042	movie	1		300	50.0	2.5	/experiments/aot/R_S_yt-yJmHtBFyhH4_15.mp4	0.0	237.24617099761963	2.499572992324829
52	214.29003405570984	pulse	1	t		50.0	2.5	/experiments/aot/R_S_yt-yJmHtBFyhH4_15.mp4	0.0	238.02906107902527	
52	215.89022612571716	pulse	1	t		50.0	2.5	/experiments/aot/R_S_yt-yJmHtBFyhH4_15.mp4	0.0	239.6292531490326	
52	216.00671696662903	fix_post	2		12	50.0	2.5	/experiments/aot/R_S_yt-yJmHtBFyhH4_15.mp4	0.0	239.74574398994446	0.09994006156921387
53	216.10665702819824	fix_pre	0		120	51.0	2.5	/experiments/aot/R_S_comp_GMT060_117NC_363D_1034_AUSTRALIA_v35_SDR_PS_FINAL_20180731_SDR_2K_AVC.mp4	0.0	239.84568405151367	1.0001320838928223
53	217.10678911209106	movie	1		165	51.0	2.5	/experiments/aot/R_S_comp_GMT060_117NC_363D_1034_AUSTRALIA_v35_SDR_PS_FINAL_20180731_SDR_2K_AVC.mp4	0.0	240.8458161354065	2.5003209114074707
53	217.4903130531311	pulse	1	t		51.0	2.5	/experiments/aot/R_S_comp_GMT060_117NC_363D_1034_AUSTRALIA_v35_SDR_PS_FINAL_20180731_SDR_2K_AVC.mp4	0.0	241.22934007644653	
53	219.09061098098755	pulse	1	t		51.0	2.5	/experiments/aot/R_S_comp_GMT060_117NC_363D_1034_AUSTRALIA_v35_SDR_PS_FINAL_20180731_SDR_2K_AVC.mp4	0.0	242.82963800430298	
53	219.60711002349854	fix_post	2		12	51.0	2.5	/experiments/aot/R_S_comp_GMT060_117NC_363D_1034_AUSTRALIA_v35_SDR_PS_FINAL_20180731_SDR_2K_AVC.mp4	0.0	243.34613704681396	0.10004210472106934
54	219.7071521282196	fix_pre	0		119	52.0	2.5	/experiments/aot/R_S_yt-eF5J5Kjt6oY_23.mp4	0.0	243.44617915153503	0.9915478229522705
54	220.69055700302124	pulse	0	t		52.0	2.5	/experiments/aot/R_S_yt-eF5J5Kjt6oY_23.mp4	0.0	244.42958402633667	
54	220.69869995117188	movie	1		301	52.0	2.5	/experiments/aot/R_S_yt-eF5J5Kjt6oY_23.mp4	0.0	244.4377269744873	2.5082480907440186
54	222.29060101509094	pulse	1	t		52.0	2.5	/experiments/aot/R_S_yt-eF5J5Kjt6oY_23.mp4	0.0	246.02962803840637	
54	223.2069480419159	fix_post	2		12	52.0	2.5	/experiments/aot/R_S_yt-eF5J5Kjt6oY_23.mp4	0.0	246.94597506523132	0.10018301010131836
55	223.3071310520172	fix_pre	0		120	53.0	2.5	/experiments/aot/R_S_yt-ni4JaYu7PhU_6.mp4	0.0	247.04615807533264	0.9998629093170166
55	223.89045810699463	pulse	0	t		53.0	2.5	/experiments/aot/R_S_yt-ni4JaYu7PhU_6.mp4	0.0	247.62948513031006	
55	224.30699396133423	movie	1		300	53.0	2.5	/experiments/aot/R_S_yt-ni4JaYu7PhU_6.mp4	0.0	248.04602098464966	2.5000791549682617
55	225.49052000045776	pulse	1	t		53.0	2.5	/experiments/aot/R_S_yt-ni4JaYu7PhU_6.mp4	0.0	249.2295470237732	
55	226.8070731163025	fix_post	2		12	53.0	2.5	/experiments/aot/R_S_yt-ni4JaYu7PhU_6.mp4	0.0	250.54610013961792	0.09991288185119629
56	226.9069859981537	fix_pre	0		120	54.0	2.5	/experiments/aot/S_yt-YlA-FPDylDE_100.mp4	0.0	250.64601302146912	1.000035047531128
56	227.0905101299286	pulse	0	t		54.0	2.5	/experiments/aot/S_yt-YlA-FPDylDE_100.mp4	0.0	250.82953715324402	
56	227.90702104568481	movie	1		299	54.0	2.5	/experiments/aot/S_yt-YlA-FPDylDE_100.mp4	0.0	251.64604806900024	2.499943971633911
56	228.69050002098083	pulse	1	t		54.0	2.5	/experiments/aot/S_yt-YlA-FPDylDE_100.mp4	0.0	252.42952704429626	
56	230.28996109962463	pulse	1	t		54.0	2.5	/experiments/aot/S_yt-YlA-FPDylDE_100.mp4	0.0	254.02898812294006	
56	230.40696501731873	fix_post	2		12	54.0	2.5	/experiments/aot/S_yt-YlA-FPDylDE_100.mp4	0.0	254.14599204063416	0.09996294975280762
57	230.50692796707153	fix_pre	0		120	55.0	2.5	/experiments/aot/R_S_yt-WRBmpC-RxIc_678.mp4	0.0	254.24595499038696	1.000115156173706
57	231.50704312324524	movie	1		298	55.0	2.5	/experiments/aot/R_S_yt-WRBmpC-RxIc_678.mp4	0.0	255.24607014656067	2.4999868869781494
57	231.89040613174438	pulse	1	t		55.0	2.5	/experiments/aot/R_S_yt-WRBmpC-RxIc_678.mp4	0.0	255.62943315505981	
57	233.49048113822937	pulse	1	t		55.0	2.5	/experiments/aot/R_S_yt-WRBmpC-RxIc_678.mp4	0.0	257.2295081615448	
57	234.0070300102234	fix_post	2		12	55.0	2.5	/experiments/aot/R_S_yt-WRBmpC-RxIc_678.mp4	0.0	257.7460570335388	0.10005903244018555
58	234.10708904266357	fix_pre	0		119	56.0	2.5	blank	1.0	257.846116065979	0.9915859699249268
58	235.0904860496521	pulse	0	t		56.0	2.5	blank	1.0	258.82951307296753	
58	235.0986750125885	movie	1		301	56.0	2.5	blank	1.0	258.83770203590393	2.5085060596466064
58	236.69045209884644	pulse	1	t		56.0	2.5	blank	1.0	260.42947912216187	
58	237.6071810722351	fix_post	2		12	56.0	2.5	blank	1.0	261.34620809555054	0.09974908828735352
59	237.70693016052246	fix_pre	0		120	57.0	2.5	/experiments/aot/R_S_yt-qycUhA3Isjg_76.mp4	0.0	261.4459571838379	1.0000429153442383
59	238.29047012329102	pulse	0	t		57.0	2.5	/experiments/aot/R_S_yt-qycUhA3Isjg_76.mp4	0.0	262.02949714660645	
59	238.7069730758667	movie	1		300	57.0	2.5	/experiments/aot/R_S_yt-qycUhA3Isjg_76.mp4	0.0	262.44600009918213	2.499966859817505
59	239.89051294326782	pulse	1	t		57.0	2.5	/experiments/aot/R_S_yt-qycUhA3Isjg_76.mp4	0.0	263.62953996658325	
59	241.2069399356842	fix_post	2		12	57.0	2.5	/experiments/aot/R_S_yt-qycUhA3Isjg_76.mp4	0.0	264.94596695899963	0.10001707077026367
60	241.30695700645447	fix_pre	0		120	58.0	2.5	/experiments/aot/R_S_yt-zhQ32_OayBQ_39.mp4	0.0	265.0459840297699	0.9999699592590332
60	241.49045705795288	pulse	0	t		58.0	2.5	/experiments/aot/R_S_yt-zhQ32_OayBQ_39.mp4	0.0	265.2294840812683	
60	242.3069269657135	movie	1		300	58.0	2.5	/experiments/aot/R_S_yt-zhQ32_OayBQ_39.mp4	0.0	266.04595398902893	2.5001230239868164
60	243.09048104286194	pulse	1	t		58.0	2.5	/experiments/aot/R_S_yt-zhQ32_OayBQ_39.mp4	0.0	266.82950806617737	
60	244.69043397903442	pulse	1	t		58.0	2.5	/experiments/aot/R_S_yt-zhQ32_OayBQ_39.mp4	0.0	268.42946100234985	
60	244.80704998970032	fix_post	2		12	58.0	2.5	/experiments/aot/R_S_yt-zhQ32_OayBQ_39.mp4	0.0	268.54607701301575	0.09984397888183594
61	244.90689396858215	fix_pre	0		120	59.0	2.5	/experiments/aot/R_S_yt-WTxvvlP8xnw_113.mp4	0.0	268.6459209918976	1.0000600814819336
61	245.9069540500641	movie	1		300	59.0	2.5	/experiments/aot/R_S_yt-WTxvvlP8xnw_113.mp4	0.0	269.6459810733795	2.499882936477661
61	246.29039216041565	pulse	1	t		59.0	2.5	/experiments/aot/R_S_yt-WTxvvlP8xnw_113.mp4	0.0	270.0294191837311	
61	247.8903570175171	pulse	1	t		59.0	2.5	/experiments/aot/R_S_yt-WTxvvlP8xnw_113.mp4	0.0	271.6293840408325	
61	248.40683698654175	fix_post	2		12	59.0	2.5	/experiments/aot/R_S_yt-WTxvvlP8xnw_113.mp4	0.0	272.1458640098572	0.10009002685546875
62	248.50692701339722	fix_pre	0		119	60.0	2.5	/experiments/aot/S_pexels-cottonbro-10640532.mp4	0.0	272.24595403671265	0.991692066192627
62	249.4902651309967	pulse	0	t		60.0	2.5	/experiments/aot/S_pexels-cottonbro-10640532.mp4	0.0	273.22929215431213	
62	249.49861907958984	movie	1		167	60.0	2.5	/experiments/aot/S_pexels-cottonbro-10640532.mp4	0.0	273.2376461029053	2.5082340240478516
62	251.09051299095154	pulse	1	t		60.0	2.5	/experiments/aot/S_pexels-cottonbro-10640532.mp4	0.0	274.82954001426697	
62	252.0068531036377	fix_post	2		12	60.0	2.5	/experiments/aot/S_pexels-cottonbro-10640532.mp4	0.0	275.7458801269531	0.09999203681945801
63	252.10684514045715	fix_pre	0		120	61.0	2.5	blank	1.0	275.8458721637726	1.0000529289245605
63	252.690416097641	pulse	0	t		61.0	2.5	blank	1.0	276.4294431209564	
63	253.1068980693817	movie	1		300	61.0	2.5	blank	1.0	276.84592509269714	2.4999639987945557
63	254.29042410850525	pulse	1	t		61.0	2.5	blank	1.0	278.0294511318207	
63	255.60686206817627	fix_post	2		12	61.0	2.5	blank	1.0	279.3458890914917	0.1000208854675293
64	255.7068829536438	fix_pre	0		120	62.0	2.5	/experiments/aot/R_S_yt-SGTgMItFkxY_172.mp4	0.0	279.44590997695923	0.9999721050262451
64	255.890300989151	pulse	0	t		62.0	2.5	/experiments/aot/R_S_yt-SGTgMItFkxY_172.mp4	0.0	279.62932801246643	
64	256.70685505867004	movie	1		300	62.0	2.5	/experiments/aot/R_S_yt-SGTgMItFkxY_172.mp4	0.0	280.4458820819855	2.5000410079956055
64	257.4903700351715	pulse	1	t		62.0	2.5	/experiments/aot/R_S_yt-SGTgMItFkxY_172.mp4	0.0	281.22939705848694	
64	259.09049797058105	pulse	1	t		62.0	2.5	/experiments/aot/R_S_yt-SGTgMItFkxY_172.mp4	0.0	282.8295249938965	
64	259.20689606666565	fix_post	2		12	62.0	2.5	/experiments/aot/R_S_yt-SGTgMItFkxY_172.mp4	0.0	282.9459230899811	0.09999299049377441
65	259.3068890571594	fix_pre	0		120	63.0	2.5	/experiments/aot/S_yt-ph1AkIToO4E_46.mp4	0.0	283.04591608047485	1.0000391006469727
65	260.3069281578064	movie	1		300	63.0	2.5	/experiments/aot/S_yt-ph1AkIToO4E_46.mp4	0.0	284.0459551811218	2.4999709129333496
65	260.6903660297394	pulse	1	t		63.0	2.5	/experiments/aot/S_yt-ph1AkIToO4E_46.mp4	0.0	284.4293930530548	
65	262.29029393196106	pulse	1	t		63.0	2.5	/experiments/aot/S_yt-ph1AkIToO4E_46.mp4	0.0	286.0293209552765	
65	262.80689907073975	fix_post	2		12	63.0	2.5	/experiments/aot/S_yt-ph1AkIToO4E_46.mp4	0.0	286.5459260940552	0.09998488426208496
66	262.90688395500183	fix_pre	0		119	64.0	2.5	/experiments/aot/R_S_yt-tQ-hgwTcMqU_43.mp4	0.0	286.64591097831726	0.9915730953216553
66	263.89028000831604	pulse	0	t		64.0	2.5	/experiments/aot/R_S_yt-tQ-hgwTcMqU_43.mp4	0.0	287.62930703163147	
66	263.8984570503235	movie	1		301	64.0	2.5	/experiments/aot/R_S_yt-tQ-hgwTcMqU_43.mp4	0.0	287.6374840736389	2.5083200931549072
66	265.49032402038574	pulse	1	t		64.0	2.5	/experiments/aot/R_S_yt-tQ-hgwTcMqU_43.mp4	0.0	289.2293510437012	
66	266.4067771434784	fix_post	2		12	64.0	2.5	/experiments/aot/R_S_yt-tQ-hgwTcMqU_43.mp4	0.0	290.1458041667938	0.10008382797241211
67	266.5068609714508	fix_pre	0		120	65.0	2.5	/experiments/aot/S_comp_HK_H004_C001_PSNK_DENOISE_v14_SDR_PS_FINAL_20180731_SDR_2K_AVC.mp4	0.0	290.24588799476624	0.9998881816864014
67	267.09034609794617	pulse	0	t		65.0	2.5	/experiments/aot/S_comp_HK_H004_C001_PSNK_DENOISE_v14_SDR_PS_FINAL_20180731_SDR_2K_AVC.mp4	0.0	290.8293731212616	
67	267.5067491531372	movie	1		164	65.0	2.5	/experiments/aot/S_comp_HK_H004_C001_PSNK_DENOISE_v14_SDR_PS_FINAL_20180731_SDR_2K_AVC.mp4	0.0	291.24577617645264	2.5000967979431152
67	268.6903359889984	pulse	1	t		65.0	2.5	/experiments/aot/S_comp_HK_H004_C001_PSNK_DENOISE_v14_SDR_PS_FINAL_20180731_SDR_2K_AVC.mp4	0.0	292.42936301231384	
67	270.0068459510803	fix_post	2		12	65.0	2.5	/experiments/aot/S_comp_HK_H004_C001_PSNK_DENOISE_v14_SDR_PS_FINAL_20180731_SDR_2K_AVC.mp4	0.0	293.74587297439575	0.09992218017578125
68	270.1067681312561	fix_pre	0		120	66.0	2.5	/experiments/aot/R_S_pexels-cottonbro-10640532.mp4	0.0	293.84579515457153	1.0000088214874268
68	270.2903470993042	pulse	0	t		66.0	2.5	/experiments/aot/R_S_pexels-cottonbro-10640532.mp4	0.0	294.02937412261963	
68	271.10677695274353	movie	1		165	66.0	2.5	/experiments/aot/R_S_pexels-cottonbro-10640532.mp4	0.0	294.84580397605896	2.500261068344116
68	271.88995599746704	pulse	1	t		66.0	2.5	/experiments/aot/R_S_pexels-cottonbro-10640532.mp4	0.0	295.62898302078247	
68	273.49055910110474	pulse	1	t		66.0	2.5	/experiments/aot/R_S_pexels-cottonbro-10640532.mp4	0.0	297.22958612442017	
68	273.60703802108765	fix_post	2		12	66.0	2.5	/experiments/aot/R_S_pexels-cottonbro-10640532.mp4	0.0	297.3460650444031	0.09999513626098633
69	273.70703315734863	fix_pre	0		120	67.0	2.5	/experiments/aot/R_S_yt-KpOAdMtPGFs_17.mp4	0.0	297.44606018066406	0.9997098445892334
69	274.70674300193787	movie	1		300	67.0	2.5	/experiments/aot/R_S_yt-KpOAdMtPGFs_17.mp4	0.0	298.4457700252533	2.5000970363616943
69	275.09027314186096	pulse	1	t		67.0	2.5	/experiments/aot/R_S_yt-KpOAdMtPGFs_17.mp4	0.0	298.8293001651764	
69	276.6902129650116	pulse	1	t		67.0	2.5	/experiments/aot/R_S_yt-KpOAdMtPGFs_17.mp4	0.0	300.429239988327	
69	277.20684003829956	fix_post	2		12	67.0	2.5	/experiments/aot/R_S_yt-KpOAdMtPGFs_17.mp4	0.0	300.945867061615	0.09988808631896973
70	277.30672812461853	fix_pre	0		119	68.0	2.5	/experiments/aot/S_wc-NVeGRb_y_y_5_36.mp4	0.0	301.04575514793396	0.9916529655456543
70	278.29024600982666	pulse	0	t		68.0	2.5	/experiments/aot/S_wc-NVeGRb_y_y_5_36.mp4	0.0	302.0292730331421	
70	278.2983810901642	movie	1		165	68.0	2.5	/experiments/aot/S_wc-NVeGRb_y_y_5_36.mp4	0.0	302.0374081134796	2.5083839893341064
70	279.89015197753906	pulse	1	t		68.0	2.5	/experiments/aot/S_wc-NVeGRb_y_y_5_36.mp4	0.0	303.6291790008545	
70	280.8067650794983	fix_post	2		12	68.0	2.5	/experiments/aot/S_wc-NVeGRb_y_y_5_36.mp4	0.0	304.5457921028137	0.09995603561401367
71	280.9067211151123	fix_pre	0		120	69.0	2.5	/experiments/aot/S_yt-x7TqP8l4lCA_39.mp4	0.0	304.64574813842773	0.9999969005584717
71	281.4901649951935	pulse	0	t		69.0	2.5	/experiments/aot/S_yt-x7TqP8l4lCA_39.mp4	0.0	305.2291920185089	
71	281.9067180156708	movie	1		300	69.0	2.5	/experiments/aot/S_yt-x7TqP8l4lCA_39.mp4	0.0	305.6457450389862	2.5000040531158447
71	283.0902099609375	pulse	1	t		69.0	2.5	/experiments/aot/S_yt-x7TqP8l4lCA_39.mp4	0.0	306.82923698425293	
71	284.4067220687866	fix_post	2		12	69.0	2.5	/experiments/aot/S_yt-x7TqP8l4lCA_39.mp4	0.0	308.14574909210205	0.10000491142272949
72	284.50672698020935	fix_pre	0		120	70.0	2.5	blank	1.0	308.2457540035248	0.9999980926513672
72	284.69013810157776	pulse	0	t		70.0	2.5	blank	1.0	308.4291651248932	
72	285.5067250728607	movie	1		300	70.0	2.5	blank	1.0	309.24575209617615	2.499971866607666
72	286.2901921272278	pulse	1	t		70.0	2.5	blank	1.0	310.0292191505432	
72	287.8901650905609	pulse	1	t		70.0	2.5	blank	1.0	311.62919211387634	
72	288.0066969394684	fix_post	2		12	70.0	2.5	blank	1.0	311.7457239627838	0.09999608993530273
73	288.1066930294037	fix_pre	0		120	71.0	2.5	/experiments/aot/S_yt-HFiRYTnMZxE_338.mp4	0.0	311.8457200527191	1.0000131130218506
73	289.10670614242554	movie	1		299	71.0	2.5	/experiments/aot/S_yt-HFiRYTnMZxE_338.mp4	0.0	312.84573316574097	2.4998748302459717
73	289.49012994766235	pulse	1	t		71.0	2.5	/experiments/aot/S_yt-HFiRYTnMZxE_338.mp4	0.0	313.2291569709778	
73	291.0902180671692	pulse	1	t		71.0	2.5	/experiments/aot/S_yt-HFiRYTnMZxE_338.mp4	0.0	314.8292450904846	
73	291.6065809726715	fix_post	2		12	71.0	2.5	/experiments/aot/S_yt-HFiRYTnMZxE_338.mp4	0.0	315.34560799598694	0.10005903244018555
74	291.7066400051117	fix_pre	0		119	72.0	2.5	/experiments/aot/R_S_yt-H45g6700wbc_159.mp4	0.0	315.4456670284271	0.9916830062866211
74	292.6901409626007	pulse	0	t		72.0	2.5	/experiments/aot/R_S_yt-H45g6700wbc_159.mp4	0.0	316.42916798591614	
74	292.6983230113983	movie	1		300	72.0	2.5	/experiments/aot/R_S_yt-H45g6700wbc_159.mp4	0.0	316.43735003471375	2.5083770751953125
74	294.29024600982666	pulse	1	t		72.0	2.5	/experiments/aot/R_S_yt-H45g6700wbc_159.mp4	0.0	318.0292730331421	
74	295.2067000865936	fix_post	2		12	72.0	2.5	/experiments/aot/R_S_yt-H45g6700wbc_159.mp4	0.0	318.94572710990906	0.09989595413208008
75	295.3065960407257	fix_pre	0		120	73.0	2.5	/experiments/aot/R_S_yt-x7TqP8l4lCA_39.mp4	0.0	319.04562306404114	1.0000700950622559
75	295.89007210731506	pulse	0	t		73.0	2.5	/experiments/aot/R_S_yt-x7TqP8l4lCA_39.mp4	0.0	319.6290991306305	
75	296.30666613578796	movie	1		300	73.0	2.5	/experiments/aot/R_S_yt-x7TqP8l4lCA_39.mp4	0.0	320.0456931591034	2.5000219345092773
75	297.49010396003723	pulse	1	t		73.0	2.5	/experiments/aot/R_S_yt-x7TqP8l4lCA_39.mp4	0.0	321.22913098335266	
75	298.80668807029724	fix_post	2		12	73.0	2.5	/experiments/aot/R_S_yt-x7TqP8l4lCA_39.mp4	0.0	322.54571509361267	0.09995508193969727
76	298.90664315223694	fix_pre	0		120	74.0	2.5	/experiments/aot/S_yt-AbJBxqEYoMg_105.mp4	0.0	322.64567017555237	1.000011920928955
76	299.0900900363922	pulse	0	t		74.0	2.5	/experiments/aot/S_yt-AbJBxqEYoMg_105.mp4	0.0	322.82911705970764	
76	299.9066550731659	movie	1		300	74.0	2.5	/experiments/aot/S_yt-AbJBxqEYoMg_105.mp4	0.0	323.6456820964813	2.5000600814819336
76	300.69012212753296	pulse	1	t		74.0	2.5	/experiments/aot/S_yt-AbJBxqEYoMg_105.mp4	0.0	324.4291491508484	
76	302.2901120185852	pulse	1	t		74.0	2.5	/experiments/aot/S_yt-AbJBxqEYoMg_105.mp4	0.0	326.02913904190063	
76	302.4067151546478	fix_post	2		12	74.0	2.5	/experiments/aot/S_yt-AbJBxqEYoMg_105.mp4	0.0	326.14574217796326	0.09992098808288574
77	302.5066361427307	fix_pre	0		120	75.0	2.5	blank	1.0	326.24566316604614	1.0000669956207275
77	303.50670313835144	movie	1		300	75.0	2.5	blank	1.0	327.24573016166687	2.4998908042907715
77	303.8900480270386	pulse	1	t		75.0	2.5	blank	1.0	327.629075050354	
77	305.49026703834534	pulse	1	t		75.0	2.5	blank	1.0	329.22929406166077	
77	306.0065939426422	fix_post	2		12	75.0	2.5	blank	1.0	329.74562096595764	0.09995698928833008
78	306.10655093193054	fix_pre	0		119	76.0	2.5	/experiments/aot/R_S_yt-ebajhZwlVJM_32.mp4	0.0	329.845577955246	0.9916841983795166
78	307.0901081562042	pulse	0	t		76.0	2.5	/experiments/aot/R_S_yt-ebajhZwlVJM_32.mp4	0.0	330.82913517951965	
78	307.09823513031006	movie	1		301	76.0	2.5	/experiments/aot/R_S_yt-ebajhZwlVJM_32.mp4	0.0	330.8372621536255	2.508389949798584
78	308.69025206565857	pulse	1	t		76.0	2.5	/experiments/aot/R_S_yt-ebajhZwlVJM_32.mp4	0.0	332.429279088974	
78	309.60662508010864	fix_post	2		12	76.0	2.5	/experiments/aot/R_S_yt-ebajhZwlVJM_32.mp4	0.0	333.3456521034241	0.10008907318115234
79	309.7067141532898	fix_pre	0		120	77.0	2.5	/experiments/aot/R_S_ILSVRC2015_train_00599000.mp4	0.0	333.4457411766052	0.9999117851257324
79	310.2903380393982	pulse	0	t		77.0	2.5	/experiments/aot/R_S_ILSVRC2015_train_00599000.mp4	0.0	334.0293650627136	
79	310.7066259384155	movie	1		300	77.0	2.5	/experiments/aot/R_S_ILSVRC2015_train_00599000.mp4	0.0	334.44565296173096	2.4998490810394287
79	311.89003801345825	pulse	1	t		77.0	2.5	/experiments/aot/R_S_ILSVRC2015_train_00599000.mp4	0.0	335.6290650367737	
79	313.20647501945496	fix_post	2		12	77.0	2.5	/experiments/aot/R_S_ILSVRC2015_train_00599000.mp4	0.0	336.9455020427704	0.10004997253417969
80	313.30652499198914	fix_pre	0		120	78.0	2.5	/experiments/aot/S_yt-Ub5Xx5BqIOk_74.mp4	0.0	337.04555201530457	0.9999821186065674
80	313.49000906944275	pulse	0	t		78.0	2.5	/experiments/aot/S_yt-Ub5Xx5BqIOk_74.mp4	0.0	337.2290360927582	
80	314.3065071105957	movie	1		300	78.0	2.5	/experiments/aot/S_yt-Ub5Xx5BqIOk_74.mp4	0.0	338.04553413391113	2.500011920928955
80	315.0900411605835	pulse	1	t		78.0	2.5	/experiments/aot/S_yt-Ub5Xx5BqIOk_74.mp4	0.0	338.8290681838989	
80	316.6906111240387	pulse	1	t		78.0	2.5	/experiments/aot/S_yt-Ub5Xx5BqIOk_74.mp4	0.0	340.4296381473541	
80	316.80651903152466	fix_post	2		12	78.0	2.5	/experiments/aot/S_yt-Ub5Xx5BqIOk_74.mp4	0.0	340.5455460548401	0.10002708435058594
81	316.90654611587524	fix_pre	0		120	79.0	2.5	/experiments/aot/S_comp_GMT060_117NC_363D_1034_AUSTRALIA_v35_SDR_PS_FINAL_20180731_SDR_2K_AVC.mp4	0.0	340.6455731391907	1.0000150203704834
81	317.9065611362457	movie	1		163	79.0	2.5	/experiments/aot/S_comp_GMT060_117NC_363D_1034_AUSTRALIA_v35_SDR_PS_FINAL_20180731_SDR_2K_AVC.mp4	0.0	341.64558815956116	2.5000669956207275
81	318.2902319431305	pulse	1	t		79.0	2.5	/experiments/aot/S_comp_GMT060_117NC_363D_1034_AUSTRALIA_v35_SDR_PS_FINAL_20180731_SDR_2K_AVC.mp4	0.0	342.0292589664459	
81	319.8912661075592	pulse	1	t		79.0	2.5	/experiments/aot/S_comp_GMT060_117NC_363D_1034_AUSTRALIA_v35_SDR_PS_FINAL_20180731_SDR_2K_AVC.mp4	0.0	343.63029313087463	
81	320.40662813186646	fix_post	2		12	79.0	2.5	/experiments/aot/S_comp_GMT060_117NC_363D_1034_AUSTRALIA_v35_SDR_PS_FINAL_20180731_SDR_2K_AVC.mp4	0.0	344.1456551551819	0.09993100166320801
82	320.50655913352966	fix_pre	0		119	80.0	2.5	/experiments/aot/S_Oo8otu7cQ20_112.mp4	0.0	344.2455861568451	0.9915978908538818
82	321.4899671077728	pulse	0	t		80.0	2.5	/experiments/aot/S_Oo8otu7cQ20_112.mp4	0.0	345.22899413108826	
82	321.49815702438354	movie	1		301	80.0	2.5	/experiments/aot/S_Oo8otu7cQ20_112.mp4	0.0	345.237184047699	2.508389949798584
82	323.09018111228943	pulse	1	t		80.0	2.5	/experiments/aot/S_Oo8otu7cQ20_112.mp4	0.0	346.82920813560486	
82	324.00654697418213	fix_post	2		12	80.0	2.5	/experiments/aot/S_Oo8otu7cQ20_112.mp4	0.0	347.74557399749756	0.09994101524353027
83	324.10648798942566	fix_pre	0		120	81.0	2.5	/experiments/aot/R_S_yt-XtzmBXKYEWk_60.mp4	0.0	347.8455150127411	1.0000860691070557
83	324.69003105163574	pulse	0	t		81.0	2.5	/experiments/aot/R_S_yt-XtzmBXKYEWk_60.mp4	0.0	348.4290580749512	
83	325.1065740585327	movie	1		300	81.0	2.5	/experiments/aot/R_S_yt-XtzmBXKYEWk_60.mp4	0.0	348.84560108184814	2.4995429515838623
83	326.2899799346924	pulse	1	t		81.0	2.5	/experiments/aot/R_S_yt-XtzmBXKYEWk_60.mp4	0.0	350.0290069580078	
83	327.6061170101166	fix_post	2		12	81.0	2.5	/experiments/aot/R_S_yt-XtzmBXKYEWk_60.mp4	0.0	351.345144033432	0.10042500495910645
84	327.7065420150757	fix_pre	0		120	82.0	2.5	/experiments/aot/S_yt-tfHCqgH1guY_235.mp4	0.0	351.4455690383911	0.9997000694274902
84	327.88961005210876	pulse	0	t		82.0	2.5	/experiments/aot/S_yt-tfHCqgH1guY_235.mp4	0.0	351.6286370754242	
84	328.7062420845032	movie	1		300	82.0	2.5	/experiments/aot/S_yt-tfHCqgH1guY_235.mp4	0.0	352.4452691078186	2.500356912612915
84	329.48970198631287	pulse	1	t		82.0	2.5	/experiments/aot/S_yt-tfHCqgH1guY_235.mp4	0.0	353.2287290096283	
84	331.09005403518677	pulse	1	t		82.0	2.5	/experiments/aot/S_yt-tfHCqgH1guY_235.mp4	0.0	354.8290810585022	
84	331.2065989971161	fix_post	2		12	82.0	2.5	/experiments/aot/S_yt-tfHCqgH1guY_235.mp4	0.0	354.9456260204315	0.09993100166320801
85	331.3065299987793	fix_pre	0		120	83.0	2.5	blank	1.0	355.0455570220947	1.0000269412994385
85	332.30655694007874	movie	1		300	83.0	2.5	blank	1.0	356.04558396339417	2.4999420642852783
85	332.6900610923767	pulse	1	t		83.0	2.5	blank	1.0	356.42908811569214	
85	334.28983902931213	pulse	1	t		83.0	2.5	blank	1.0	358.02886605262756	
85	334.806499004364	fix_post	2		12	83.0	2.5	blank	1.0	358.54552602767944	0.09990596771240234
87	334.9064049720764	stim	0		1716					358.64543199539185	14.30003809928894
87	335.88994812965393	pulse	0	t						359.62897515296936	
87	337.48996114730835	pulse	0	t						361.2289881706238	
87	339.08988094329834	pulse	0	t						362.82890796661377	
87	340.6899471282959	pulse	0	t						364.4289741516113	
87	342.2898941040039	pulse	0	t						366.02892112731934	
87	343.8898470401764	pulse	0	t						367.6288740634918	
87	345.48995900154114	pulse	0	t						369.22898602485657	
87	347.08985900878906	pulse	0	t						370.8288860321045	
87	348.6898651123047	pulse	0	t						372.4288921356201	
