trial_nr	onset	event_type	phase	response	nr_frames	movie_index	movie_duration	movie_file	blank	onset_abs	duration
0	0.16649937629699707	stim	0		5					34.711453914642334	0.04176783561706543
0	0.20009517669677734	response	0	space						34.745049715042114	
1	0.2082672119140625	stim	0		4832					34.7532217502594	40.28149151802063
1	40.48021841049194	pulse	0	t						75.02517294883728	
1	40.48975872993469	stim	1		1715					75.03471326828003	14.301534414291382
1	42.073164224624634	pulse	1	t						76.61811876296997	
1	43.67312550544739	pulse	1	t						78.21808004379272	
1	45.27351236343384	pulse	1	t						79.81846690177917	
1	46.873799085617065	pulse	1	t						81.4187536239624	
1	48.47387456893921	pulse	1	t						83.01882910728455	
1	50.07412099838257	pulse	1	t						84.6190755367279	
1	51.67446541786194	pulse	1	t						86.21941995620728	
1	53.274593353271484	pulse	1	t						87.81954789161682	
2	54.791293144226074	fix_pre	0		11	0.0	2.5	/experiments/Knapen_AOT/AOT_stimuli/rescaled_final/1127_fw.mp4	0.0	89.33624768257141	0.12509632110595703
2	54.874963998794556	pulse	0	t		0.0	2.5	/experiments/Knapen_AOT/AOT_stimuli/rescaled_final/1127_fw.mp4	0.0	89.41991853713989	
2	54.91638946533203	movie	1		262	0.0	2.5	/experiments/Knapen_AOT/AOT_stimuli/rescaled_final/1127_fw.mp4	0.0	89.46134400367737	2.4753165245056152
2	56.47417211532593	pulse	1	t		0.0	2.5	/experiments/Knapen_AOT/AOT_stimuli/rescaled_final/1127_fw.mp4	0.0	91.01912665367126	
2	57.39170598983765	fix_post	2		12	0.0	2.5	/experiments/Knapen_AOT/AOT_stimuli/rescaled_final/1127_fw.mp4	0.0	91.93666052818298	0.1000063419342041
3	57.49171233177185	fix_pre	0		120	1.0	2.5	/experiments/Knapen_AOT/AOT_stimuli/rescaled_final/2160_fw.mp4	0.0	92.03666687011719	1.0085325241088867
3	58.07531666755676	pulse	0	t		1.0	2.5	/experiments/Knapen_AOT/AOT_stimuli/rescaled_final/2160_fw.mp4	0.0	92.6202712059021	
3	58.50024485588074	movie	1		284	1.0	2.5	/experiments/Knapen_AOT/AOT_stimuli/rescaled_final/2160_fw.mp4	0.0	93.04519939422607	2.492009162902832
3	59.67377257347107	pulse	1	t		1.0	2.5	/experiments/Knapen_AOT/AOT_stimuli/rescaled_final/2160_fw.mp4	0.0	94.2187271118164	
3	60.99225401878357	fix_post	2		12	1.0	2.5	/experiments/Knapen_AOT/AOT_stimuli/rescaled_final/2160_fw.mp4	0.0	95.5372085571289	0.09999799728393555
4	61.092252016067505	fix_pre	0		120	2.0	2.5	/experiments/Knapen_AOT/AOT_stimuli/rescaled_final/1724_rv.mp4	0.0	95.63720655441284	1.008484125137329
4	61.27601885795593	pulse	0	t		2.0	2.5	/experiments/Knapen_AOT/AOT_stimuli/rescaled_final/1724_rv.mp4	0.0	95.82097339630127	
4	62.100736141204834	movie	1		283	2.0	2.5	/experiments/Knapen_AOT/AOT_stimuli/rescaled_final/1724_rv.mp4	0.0	96.64569067955017	2.4920711517333984
4	62.87402129173279	pulse	1	t		2.0	2.5	/experiments/Knapen_AOT/AOT_stimuli/rescaled_final/1724_rv.mp4	0.0	97.41897583007812	
4	64.47454118728638	pulse	1	t		2.0	2.5	/experiments/Knapen_AOT/AOT_stimuli/rescaled_final/1724_rv.mp4	0.0	99.01949572563171	
4	64.59280729293823	fix_post	2		12	2.0	2.5	/experiments/Knapen_AOT/AOT_stimuli/rescaled_final/1724_rv.mp4	0.0	99.13776183128357	0.09999704360961914
5	64.69280433654785	fix_pre	0		120	3.0	2.5	/experiments/Knapen_AOT/AOT_stimuli/rescaled_final/0684_rv.mp4	0.0	99.23775887489319	1.008486032485962
5	65.70129036903381	movie	1		285	3.0	2.5	/experiments/Knapen_AOT/AOT_stimuli/rescaled_final/0684_rv.mp4	0.0	100.24624490737915	2.4920225143432617
5	66.07502031326294	pulse	1	t		3.0	2.5	/experiments/Knapen_AOT/AOT_stimuli/rescaled_final/0684_rv.mp4	0.0	100.61997485160828	
5	67.67470169067383	pulse	1	t		3.0	2.5	/experiments/Knapen_AOT/AOT_stimuli/rescaled_final/0684_rv.mp4	0.0	102.21965622901917	
5	68.19331288337708	fix_post	2		12	3.0	2.5	/experiments/Knapen_AOT/AOT_stimuli/rescaled_final/0684_rv.mp4	0.0	102.73826742172241	0.10004568099975586
6	68.29335856437683	fix_pre	0		119	4.0	2.5	/experiments/Knapen_AOT/AOT_stimuli/rescaled_final/1773_fw.mp4	0.0	102.83831310272217	1.000138282775879
6	69.26988792419434	pulse	0	t		4.0	2.5	/experiments/Knapen_AOT/AOT_stimuli/rescaled_final/1773_fw.mp4	0.0	103.81484246253967	
6	69.29349684715271	movie	1		284	4.0	2.5	/experiments/Knapen_AOT/AOT_stimuli/rescaled_final/1773_fw.mp4	0.0	103.83845138549805	2.500378131866455
6	70.87676739692688	pulse	1	t		4.0	2.5	/experiments/Knapen_AOT/AOT_stimuli/rescaled_final/1773_fw.mp4	0.0	105.42172193527222	
6	71.79387497901917	fix_post	2		12	4.0	2.5	/experiments/Knapen_AOT/AOT_stimuli/rescaled_final/1773_fw.mp4	0.0	106.3388295173645	0.09999895095825195
7	71.89387392997742	fix_pre	0		120	5.0	2.5	/experiments/Knapen_AOT/AOT_stimuli/rescaled_final/2097_rv.mp4	0.0	106.43882846832275	1.008514642715454
7	72.46956443786621	pulse	0	t		5.0	2.5	/experiments/Knapen_AOT/AOT_stimuli/rescaled_final/2097_rv.mp4	0.0	107.01451897621155	
7	72.90238857269287	movie	1		290	5.0	2.5	/experiments/Knapen_AOT/AOT_stimuli/rescaled_final/2097_rv.mp4	0.0	107.44734311103821	2.4919896125793457
7	74.06983947753906	pulse	1	t		5.0	2.5	/experiments/Knapen_AOT/AOT_stimuli/rescaled_final/2097_rv.mp4	0.0	108.6147940158844	
7	75.39437818527222	fix_post	2		12	5.0	2.5	/experiments/Knapen_AOT/AOT_stimuli/rescaled_final/2097_rv.mp4	0.0	109.93933272361755	0.10004329681396484
8	75.49442148208618	fix_pre	0		120	6.0	2.5	/experiments/Knapen_AOT/AOT_stimuli/rescaled_final/0777_rv.mp4	0.0	110.03937602043152	1.0086579322814941
8	75.66972994804382	pulse	0	t		6.0	2.5	/experiments/Knapen_AOT/AOT_stimuli/rescaled_final/0777_rv.mp4	0.0	110.21468448638916	
8	76.50307941436768	movie	1		286	6.0	2.5	/experiments/Knapen_AOT/AOT_stimuli/rescaled_final/0777_rv.mp4	0.0	111.04803395271301	2.491880416870117
8	77.2700572013855	pulse	1	t		6.0	2.5	/experiments/Knapen_AOT/AOT_stimuli/rescaled_final/0777_rv.mp4	0.0	111.81501173973083	
8	78.87008261680603	pulse	1	t		6.0	2.5	/experiments/Knapen_AOT/AOT_stimuli/rescaled_final/0777_rv.mp4	0.0	113.41503715515137	
8	78.9949598312378	fix_post	2		12	6.0	2.5	/experiments/Knapen_AOT/AOT_stimuli/rescaled_final/0777_rv.mp4	0.0	113.53991436958313	0.10001087188720703
9	79.094970703125	fix_pre	0		120	7.0	2.5	blank	1.0	113.63992524147034	1.0001134872436523
9	80.09508419036865	movie	1		300	7.0	2.5	blank	1.0	114.64003872871399	2.500401735305786
9	80.47037887573242	pulse	1	t		7.0	2.5	blank	1.0	115.01533341407776	
9	82.07062935829163	pulse	1	t		7.0	2.5	blank	1.0	116.61558389663696	
9	82.59548592567444	fix_post	2		12	7.0	2.5	blank	1.0	117.14044046401978	0.10003185272216797
10	82.6955177783966	fix_pre	0		118	8.0	2.5	/experiments/Knapen_AOT/AOT_stimuli/rescaled_final/1111_fw.mp4	0.0	117.24047231674194	0.9917709827423096
10	83.6708288192749	pulse	0	t		8.0	2.5	/experiments/Knapen_AOT/AOT_stimuli/rescaled_final/1111_fw.mp4	0.0	118.21578335762024	
10	83.68728876113892	movie	1		286	8.0	2.5	/experiments/Knapen_AOT/AOT_stimuli/rescaled_final/1111_fw.mp4	0.0	118.23224329948425	2.5003902912139893
10	85.26970410346985	pulse	1	t		8.0	2.5	/experiments/Knapen_AOT/AOT_stimuli/rescaled_final/1111_fw.mp4	0.0	119.81465864181519	
10	86.1876790523529	fix_post	2		12	8.0	2.5	/experiments/Knapen_AOT/AOT_stimuli/rescaled_final/1111_fw.mp4	0.0	120.73263359069824	0.10001564025878906
11	86.2876946926117	fix_pre	0		120	9.0	2.5	/experiments/Knapen_AOT/AOT_stimuli/rescaled_final/1773_rv.mp4	0.0	120.83264923095703	1.008650302886963
11	86.87134599685669	pulse	0	t		9.0	2.5	/experiments/Knapen_AOT/AOT_stimuli/rescaled_final/1773_rv.mp4	0.0	121.41630053520203	
11	87.29634499549866	movie	1		282	9.0	2.5	/experiments/Knapen_AOT/AOT_stimuli/rescaled_final/1773_rv.mp4	0.0	121.841299533844	2.4918692111968994
11	88.46970462799072	pulse	1	t		9.0	2.5	/experiments/Knapen_AOT/AOT_stimuli/rescaled_final/1773_rv.mp4	0.0	123.01465916633606	
11	89.78821420669556	fix_post	2		12	9.0	2.5	/experiments/Knapen_AOT/AOT_stimuli/rescaled_final/1773_rv.mp4	0.0	124.3331687450409	0.10003113746643066
12	89.88824534416199	fix_pre	0		120	10.0	2.5	/experiments/Knapen_AOT/AOT_stimuli/rescaled_final/1215_rv.mp4	0.0	124.43319988250732	1.0085022449493408
12	90.07177877426147	pulse	0	t		10.0	2.5	/experiments/Knapen_AOT/AOT_stimuli/rescaled_final/1215_rv.mp4	0.0	124.61673331260681	
12	90.89674758911133	movie	1		277	10.0	2.5	/experiments/Knapen_AOT/AOT_stimuli/rescaled_final/1215_rv.mp4	0.0	125.44170212745667	2.492002487182617
12	91.67079448699951	pulse	1	t		10.0	2.5	/experiments/Knapen_AOT/AOT_stimuli/rescaled_final/1215_rv.mp4	0.0	126.21574902534485	
12	93.2702214717865	pulse	1	t		10.0	2.5	/experiments/Knapen_AOT/AOT_stimuli/rescaled_final/1215_rv.mp4	0.0	127.81517601013184	
12	93.38875007629395	fix_post	2		12	10.0	2.5	/experiments/Knapen_AOT/AOT_stimuli/rescaled_final/1215_rv.mp4	0.0	127.93370461463928	0.10003662109375
13	93.4887866973877	fix_pre	0		120	11.0	2.5	/experiments/Knapen_AOT/AOT_stimuli/rescaled_final/1890_rv.mp4	0.0	128.03374123573303	1.0084824562072754
13	94.49726915359497	movie	1		263	11.0	2.5	/experiments/Knapen_AOT/AOT_stimuli/rescaled_final/1890_rv.mp4	0.0	129.0422236919403	2.4920244216918945
13	94.8709146976471	pulse	1	t		11.0	2.5	/experiments/Knapen_AOT/AOT_stimuli/rescaled_final/1890_rv.mp4	0.0	129.41586923599243	
13	96.4719078540802	pulse	1	t		11.0	2.5	/experiments/Knapen_AOT/AOT_stimuli/rescaled_final/1890_rv.mp4	0.0	131.01686239242554	
13	96.98929357528687	fix_post	2		12	11.0	2.5	/experiments/Knapen_AOT/AOT_stimuli/rescaled_final/1890_rv.mp4	0.0	131.5342481136322	0.10008692741394043
14	97.0893805027008	fix_pre	0		119	12.0	2.5	blank	1.0	131.63433504104614	0.9917445182800293
14	98.07301902770996	pulse	0	t		12.0	2.5	blank	1.0	132.6179735660553	
14	98.08112502098083	movie	1		301	12.0	2.5	blank	1.0	132.62607955932617	2.5087151527404785
14	99.67329287528992	pulse	1	t		12.0	2.5	blank	1.0	134.21824741363525	
14	100.58984017372131	fix_post	2		12	12.0	2.5	blank	1.0	135.13479471206665	0.10004425048828125
15	100.6898844242096	fix_pre	0		120	13.0	2.5	/experiments/Knapen_AOT/AOT_stimuli/rescaled_final/1819_rv.mp4	0.0	135.23483896255493	1.0084614753723145
15	101.27350759506226	pulse	0	t		13.0	2.5	/experiments/Knapen_AOT/AOT_stimuli/rescaled_final/1819_rv.mp4	0.0	135.8184621334076	
15	101.69834589958191	movie	1		286	13.0	2.5	/experiments/Knapen_AOT/AOT_stimuli/rescaled_final/1819_rv.mp4	0.0	136.24330043792725	2.492032289505005
15	102.87168717384338	pulse	1	t		13.0	2.5	/experiments/Knapen_AOT/AOT_stimuli/rescaled_final/1819_rv.mp4	0.0	137.41664171218872	
15	104.19037818908691	fix_post	2		12	13.0	2.5	/experiments/Knapen_AOT/AOT_stimuli/rescaled_final/1819_rv.mp4	0.0	138.73533272743225	0.10013842582702637
16	104.29051661491394	fix_pre	0		120	14.0	2.5	/experiments/Knapen_AOT/AOT_stimuli/rescaled_final/0325_rv.mp4	0.0	138.83547115325928	1.008409023284912
16	104.47396779060364	pulse	0	t		14.0	2.5	/experiments/Knapen_AOT/AOT_stimuli/rescaled_final/0325_rv.mp4	0.0	139.01892232894897	
16	105.29892563819885	movie	1		286	14.0	2.5	/experiments/Knapen_AOT/AOT_stimuli/rescaled_final/0325_rv.mp4	0.0	139.8438801765442	2.4919848442077637
16	106.07242012023926	pulse	1	t		14.0	2.5	/experiments/Knapen_AOT/AOT_stimuli/rescaled_final/0325_rv.mp4	0.0	140.6173746585846	
16	107.67265272140503	pulse	1	t		14.0	2.5	/experiments/Knapen_AOT/AOT_stimuli/rescaled_final/0325_rv.mp4	0.0	142.21760725975037	
16	107.79091048240662	fix_post	2		12	14.0	2.5	/experiments/Knapen_AOT/AOT_stimuli/rescaled_final/0325_rv.mp4	0.0	142.33586502075195	0.10019135475158691
17	107.8911018371582	fix_pre	0		120	15.0	2.5	/experiments/Knapen_AOT/AOT_stimuli/rescaled_final/2160_fw.mp4	0.0	142.43605637550354	1.008340835571289
17	108.89944267272949	movie	1		284	15.0	2.5	/experiments/Knapen_AOT/AOT_stimuli/rescaled_final/2160_fw.mp4	0.0	143.44439721107483	2.492255687713623
17	109.27484273910522	pulse	1	t		15.0	2.5	/experiments/Knapen_AOT/AOT_stimuli/rescaled_final/2160_fw.mp4	0.0	143.81979727745056	
17	110.87302780151367	pulse	1	t		15.0	2.5	/experiments/Knapen_AOT/AOT_stimuli/rescaled_final/2160_fw.mp4	0.0	145.417982339859	
17	111.39169836044312	fix_post	2		12	15.0	2.5	/experiments/Knapen_AOT/AOT_stimuli/rescaled_final/2160_fw.mp4	0.0	145.93665289878845	0.09986519813537598
18	111.49156355857849	fix_pre	0		119	16.0	2.5	/experiments/Knapen_AOT/AOT_stimuli/rescaled_final/1701_rv.mp4	0.0	146.03651809692383	1.0000793933868408
18	112.47519421577454	pulse	0	t		16.0	2.5	/experiments/Knapen_AOT/AOT_stimuli/rescaled_final/1701_rv.mp4	0.0	147.02014875411987	
18	112.49164295196533	movie	1		282	16.0	2.5	/experiments/Knapen_AOT/AOT_stimuli/rescaled_final/1701_rv.mp4	0.0	147.03659749031067	2.5004096031188965
18	114.07413101196289	pulse	1	t		16.0	2.5	/experiments/Knapen_AOT/AOT_stimuli/rescaled_final/1701_rv.mp4	0.0	148.61908555030823	
18	114.99205255508423	fix_post	2		12	16.0	2.5	/experiments/Knapen_AOT/AOT_stimuli/rescaled_final/1701_rv.mp4	0.0	149.53700709342957	0.10000109672546387
19	115.09205365180969	fix_pre	0		120	17.0	2.5	/experiments/Knapen_AOT/AOT_stimuli/rescaled_final/1645_fw.mp4	0.0	149.63700819015503	1.0084927082061768
19	115.67565202713013	pulse	0	t		17.0	2.5	/experiments/Knapen_AOT/AOT_stimuli/rescaled_final/1645_fw.mp4	0.0	150.22060656547546	
19	116.10054636001587	movie	1		279	17.0	2.5	/experiments/Knapen_AOT/AOT_stimuli/rescaled_final/1645_fw.mp4	0.0	150.6455008983612	2.49202561378479
19	117.27661776542664	pulse	1	t		17.0	2.5	/experiments/Knapen_AOT/AOT_stimuli/rescaled_final/1645_fw.mp4	0.0	151.82157230377197	
19	118.59257197380066	fix_post	2		12	17.0	2.5	/experiments/Knapen_AOT/AOT_stimuli/rescaled_final/1645_fw.mp4	0.0	153.137526512146	0.09997987747192383
20	118.69255185127258	fix_pre	0		120	18.0	2.5	/experiments/Knapen_AOT/AOT_stimuli/rescaled_final/0796_fw.mp4	0.0	153.23750638961792	1.0085296630859375
20	118.87615132331848	pulse	0	t		18.0	2.5	/experiments/Knapen_AOT/AOT_stimuli/rescaled_final/0796_fw.mp4	0.0	153.42110586166382	
20	119.70108151435852	movie	1		275	18.0	2.5	/experiments/Knapen_AOT/AOT_stimuli/rescaled_final/0796_fw.mp4	0.0	154.24603605270386	2.492042064666748
20	120.47436809539795	pulse	1	t		18.0	2.5	/experiments/Knapen_AOT/AOT_stimuli/rescaled_final/0796_fw.mp4	0.0	155.0193226337433	
20	122.07483196258545	pulse	1	t		18.0	2.5	/experiments/Knapen_AOT/AOT_stimuli/rescaled_final/0796_fw.mp4	0.0	156.6197865009308	
20	122.19312357902527	fix_post	2		12	18.0	2.5	/experiments/Knapen_AOT/AOT_stimuli/rescaled_final/0796_fw.mp4	0.0	156.7380781173706	0.09997320175170898
21	122.29309678077698	fix_pre	0		120	19.0	2.5	/experiments/Knapen_AOT/AOT_stimuli/rescaled_final/1764_fw.mp4	0.0	156.83805131912231	1.0084943771362305
21	123.30159115791321	movie	1		283	19.0	2.5	/experiments/Knapen_AOT/AOT_stimuli/rescaled_final/1764_fw.mp4	0.0	157.84654569625854	2.4920458793640137
21	123.6750922203064	pulse	1	t		19.0	2.5	/experiments/Knapen_AOT/AOT_stimuli/rescaled_final/1764_fw.mp4	0.0	158.22004675865173	
21	125.27535009384155	pulse	1	t		19.0	2.5	/experiments/Knapen_AOT/AOT_stimuli/rescaled_final/1764_fw.mp4	0.0	159.8203046321869	
21	125.79363703727722	fix_post	2		12	19.0	2.5	/experiments/Knapen_AOT/AOT_stimuli/rescaled_final/1764_fw.mp4	0.0	160.33859157562256	0.10002684593200684
22	125.89366388320923	fix_pre	0		118	20.0	2.5	/experiments/Knapen_AOT/AOT_stimuli/rescaled_final/2097_rv.mp4	0.0	160.43861842155457	0.9918191432952881
22	126.86903214454651	pulse	0	t		20.0	2.5	/experiments/Knapen_AOT/AOT_stimuli/rescaled_final/2097_rv.mp4	0.0	161.41398668289185	
22	126.88548302650452	movie	1		283	20.0	2.5	/experiments/Knapen_AOT/AOT_stimuli/rescaled_final/2097_rv.mp4	0.0	161.43043756484985	2.5003647804260254
22	128.47751212120056	pulse	1	t		20.0	2.5	/experiments/Knapen_AOT/AOT_stimuli/rescaled_final/2097_rv.mp4	0.0	163.0224666595459	
22	129.38584780693054	fix_post	2		12	20.0	2.5	/experiments/Knapen_AOT/AOT_stimuli/rescaled_final/2097_rv.mp4	0.0	163.93080234527588	0.10000300407409668
23	129.48585081100464	fix_pre	0		120	21.0	2.5	blank	1.0	164.03080534934998	1.00018310546875
23	130.06948590278625	pulse	0	t		21.0	2.5	blank	1.0	164.6144404411316	
23	130.4860339164734	movie	1		300	21.0	2.5	blank	1.0	165.03098845481873	2.500335216522217
23	131.669748544693	pulse	1	t		21.0	2.5	blank	1.0	166.21470308303833	
23	132.9863691329956	fix_post	2		12	21.0	2.5	blank	1.0	167.53132367134094	0.10003662109375
24	133.08640575408936	fix_pre	0		120	22.0	2.5	/experiments/Knapen_AOT/AOT_stimuli/rescaled_final/1998_rv.mp4	0.0	167.6313602924347	1.008500337600708
24	133.26997256278992	pulse	0	t		22.0	2.5	/experiments/Knapen_AOT/AOT_stimuli/rescaled_final/1998_rv.mp4	0.0	167.81492710113525	
24	134.09490609169006	movie	1		278	22.0	2.5	/experiments/Knapen_AOT/AOT_stimuli/rescaled_final/1998_rv.mp4	0.0	168.6398606300354	2.492015838623047
24	134.87039232254028	pulse	1	t		22.0	2.5	/experiments/Knapen_AOT/AOT_stimuli/rescaled_final/1998_rv.mp4	0.0	169.41534686088562	
24	136.47069644927979	pulse	1	t		22.0	2.5	/experiments/Knapen_AOT/AOT_stimuli/rescaled_final/1998_rv.mp4	0.0	171.01565098762512	
24	136.5869219303131	fix_post	2		12	22.0	2.5	/experiments/Knapen_AOT/AOT_stimuli/rescaled_final/1998_rv.mp4	0.0	171.13187646865845	0.10001206398010254
25	136.6869339942932	fix_pre	0		120	23.0	2.5	/experiments/Knapen_AOT/AOT_stimuli/rescaled_final/1250_rv.mp4	0.0	171.23188853263855	1.008561372756958
25	137.69549536705017	movie	1		286	23.0	2.5	/experiments/Knapen_AOT/AOT_stimuli/rescaled_final/1250_rv.mp4	0.0	172.2404499053955	2.491976261138916
25	138.06934094429016	pulse	1	t		23.0	2.5	/experiments/Knapen_AOT/AOT_stimuli/rescaled_final/1250_rv.mp4	0.0	172.6142954826355	
25	139.66912865638733	pulse	1	t		23.0	2.5	/experiments/Knapen_AOT/AOT_stimuli/rescaled_final/1250_rv.mp4	0.0	174.21408319473267	
25	140.1874716281891	fix_post	2		12	23.0	2.5	/experiments/Knapen_AOT/AOT_stimuli/rescaled_final/1250_rv.mp4	0.0	174.73242616653442	0.10014700889587402
26	140.28761863708496	fix_pre	0		119	24.0	2.5	/experiments/Knapen_AOT/AOT_stimuli/rescaled_final/0098_fw.mp4	0.0	174.8325731754303	0.9999885559082031
26	141.2712435722351	pulse	0	t		24.0	2.5	/experiments/Knapen_AOT/AOT_stimuli/rescaled_final/0098_fw.mp4	0.0	175.81619811058044	
26	141.28760719299316	movie	1		283	24.0	2.5	/experiments/Knapen_AOT/AOT_stimuli/rescaled_final/0098_fw.mp4	0.0	175.8325617313385	2.500474691390991
26	142.87131476402283	pulse	1	t		24.0	2.5	/experiments/Knapen_AOT/AOT_stimuli/rescaled_final/0098_fw.mp4	0.0	177.41626930236816	
26	143.78808188438416	fix_post	2		12	24.0	2.5	/experiments/Knapen_AOT/AOT_stimuli/rescaled_final/0098_fw.mp4	0.0	178.3330364227295	0.09995269775390625
27	143.88803458213806	fix_pre	0		120	25.0	2.5	/experiments/Knapen_AOT/AOT_stimuli/rescaled_final/1794_rv.mp4	0.0	178.4329891204834	1.0084874629974365
27	144.4716854095459	pulse	0	t		25.0	2.5	/experiments/Knapen_AOT/AOT_stimuli/rescaled_final/1794_rv.mp4	0.0	179.01663994789124	
27	144.8965220451355	movie	1		280	25.0	2.5	/experiments/Knapen_AOT/AOT_stimuli/rescaled_final/1794_rv.mp4	0.0	179.44147658348083	2.492027997970581
27	146.07042026519775	pulse	1	t		25.0	2.5	/experiments/Knapen_AOT/AOT_stimuli/rescaled_final/1794_rv.mp4	0.0	180.6153748035431	
27	147.38855004310608	fix_post	2		12	25.0	2.5	/experiments/Knapen_AOT/AOT_stimuli/rescaled_final/1794_rv.mp4	0.0	181.93350458145142	0.10007929801940918
28	147.4886293411255	fix_pre	0		120	26.0	2.5	/experiments/Knapen_AOT/AOT_stimuli/rescaled_final/0521_fw.mp4	0.0	182.03358387947083	1.0084707736968994
28	147.67211604118347	pulse	0	t		26.0	2.5	/experiments/Knapen_AOT/AOT_stimuli/rescaled_final/0521_fw.mp4	0.0	182.2170705795288	
28	148.4971001148224	movie	1		273	26.0	2.5	/experiments/Knapen_AOT/AOT_stimuli/rescaled_final/0521_fw.mp4	0.0	183.04205465316772	2.49206805229187
28	149.2702944278717	pulse	1	t		26.0	2.5	/experiments/Knapen_AOT/AOT_stimuli/rescaled_final/0521_fw.mp4	0.0	183.81524896621704	
28	150.8706932067871	pulse	1	t		26.0	2.5	/experiments/Knapen_AOT/AOT_stimuli/rescaled_final/0521_fw.mp4	0.0	185.41564774513245	
28	150.98916816711426	fix_post	2		12	26.0	2.5	/experiments/Knapen_AOT/AOT_stimuli/rescaled_final/0521_fw.mp4	0.0	185.5341227054596	0.0999307632446289
29	151.0890989303589	fix_pre	0		120	27.0	2.5	/experiments/Knapen_AOT/AOT_stimuli/rescaled_final/1292_rv.mp4	0.0	185.63405346870422	1.0085651874542236
29	152.0976641178131	movie	1		280	27.0	2.5	/experiments/Knapen_AOT/AOT_stimuli/rescaled_final/1292_rv.mp4	0.0	186.64261865615845	2.4919586181640625
29	152.4712975025177	pulse	1	t		27.0	2.5	/experiments/Knapen_AOT/AOT_stimuli/rescaled_final/1292_rv.mp4	0.0	187.01625204086304	
29	154.07142281532288	pulse	1	t		27.0	2.5	/experiments/Knapen_AOT/AOT_stimuli/rescaled_final/1292_rv.mp4	0.0	188.6163773536682	
29	154.58962273597717	fix_post	2		12	27.0	2.5	/experiments/Knapen_AOT/AOT_stimuli/rescaled_final/1292_rv.mp4	0.0	189.1345772743225	0.10011649131774902
30	154.68973922729492	fix_pre	0		119	28.0	2.5	blank	1.0	189.23469376564026	0.9917657375335693
30	155.67338180541992	pulse	0	t		28.0	2.5	blank	1.0	190.21833634376526	
30	155.6815049648285	movie	1		301	28.0	2.5	blank	1.0	190.22645950317383	2.5086545944213867
30	157.27364492416382	pulse	1	t		28.0	2.5	blank	1.0	191.81859946250916	
30	158.19015955924988	fix_post	2		12	28.0	2.5	blank	1.0	192.73511409759521	0.10005974769592285
31	158.2902193069458	fix_pre	0		120	29.0	2.5	/experiments/Knapen_AOT/AOT_stimuli/rescaled_final/1128_rv.mp4	0.0	192.83517384529114	1.0084600448608398
31	158.8740849494934	pulse	0	t		29.0	2.5	/experiments/Knapen_AOT/AOT_stimuli/rescaled_final/1128_rv.mp4	0.0	193.41903948783875	
31	159.29867935180664	movie	1		283	29.0	2.5	/experiments/Knapen_AOT/AOT_stimuli/rescaled_final/1128_rv.mp4	0.0	193.84363389015198	2.4920051097869873
31	160.47234964370728	pulse	1	t		29.0	2.5	/experiments/Knapen_AOT/AOT_stimuli/rescaled_final/1128_rv.mp4	0.0	195.0173041820526	
31	161.79068446159363	fix_post	2		12	29.0	2.5	/experiments/Knapen_AOT/AOT_stimuli/rescaled_final/1128_rv.mp4	0.0	196.33563899993896	0.10004997253417969
32	161.8907344341278	fix_pre	0		120	30.0	2.5	/experiments/Knapen_AOT/AOT_stimuli/rescaled_final/0225_fw.mp4	0.0	196.43568897247314	1.0084996223449707
32	162.07431387901306	pulse	0	t		30.0	2.5	/experiments/Knapen_AOT/AOT_stimuli/rescaled_final/0225_fw.mp4	0.0	196.6192684173584	
32	162.89923405647278	movie	1		280	30.0	2.5	/experiments/Knapen_AOT/AOT_stimuli/rescaled_final/0225_fw.mp4	0.0	197.44418859481812	2.492143392562866
32	163.67309045791626	pulse	1	t		30.0	2.5	/experiments/Knapen_AOT/AOT_stimuli/rescaled_final/0225_fw.mp4	0.0	198.2180449962616	
32	165.27297639846802	pulse	1	t		30.0	2.5	/experiments/Knapen_AOT/AOT_stimuli/rescaled_final/0225_fw.mp4	0.0	199.81793093681335	
32	165.39137744903564	fix_post	2		12	30.0	2.5	/experiments/Knapen_AOT/AOT_stimuli/rescaled_final/0225_fw.mp4	0.0	199.93633198738098	0.0998849868774414
33	165.4912624359131	fix_pre	0		120	31.0	2.5	/experiments/Knapen_AOT/AOT_stimuli/rescaled_final/0407_fw.mp4	0.0	200.03621697425842	1.0085184574127197
33	166.4997808933258	movie	1		281	31.0	2.5	/experiments/Knapen_AOT/AOT_stimuli/rescaled_final/0407_fw.mp4	0.0	201.04473543167114	2.4920058250427246
33	166.87345170974731	pulse	1	t		31.0	2.5	/experiments/Knapen_AOT/AOT_stimuli/rescaled_final/0407_fw.mp4	0.0	201.41840624809265	
33	168.47349858283997	pulse	1	t		31.0	2.5	/experiments/Knapen_AOT/AOT_stimuli/rescaled_final/0407_fw.mp4	0.0	203.0184531211853	
33	168.99178671836853	fix_post	2		12	31.0	2.5	/experiments/Knapen_AOT/AOT_stimuli/rescaled_final/0407_fw.mp4	0.0	203.53674125671387	0.10002708435058594
34	169.09181380271912	fix_pre	0		119	32.0	2.5	/experiments/Knapen_AOT/AOT_stimuli/rescaled_final/1764_rv.mp4	0.0	203.63676834106445	1.0001771450042725
34	170.07577228546143	pulse	0	t		32.0	2.5	/experiments/Knapen_AOT/AOT_stimuli/rescaled_final/1764_rv.mp4	0.0	204.62072682380676	
34	170.0919909477234	movie	1		288	32.0	2.5	/experiments/Knapen_AOT/AOT_stimuli/rescaled_final/1764_rv.mp4	0.0	204.63694548606873	2.500335693359375
34	171.67413210868835	pulse	1	t		32.0	2.5	/experiments/Knapen_AOT/AOT_stimuli/rescaled_final/1764_rv.mp4	0.0	206.2190866470337	
34	172.59232664108276	fix_post	2		12	32.0	2.5	/experiments/Knapen_AOT/AOT_stimuli/rescaled_final/1764_rv.mp4	0.0	207.1372811794281	0.10002493858337402
35	172.69235157966614	fix_pre	0		120	33.0	2.5	/experiments/Knapen_AOT/AOT_stimuli/rescaled_final/1675_rv.mp4	0.0	207.23730611801147	1.0085697174072266
35	173.27633666992188	pulse	0	t		33.0	2.5	/experiments/Knapen_AOT/AOT_stimuli/rescaled_final/1675_rv.mp4	0.0	207.8212912082672	
35	173.70092129707336	movie	1		280	33.0	2.5	/experiments/Knapen_AOT/AOT_stimuli/rescaled_final/1675_rv.mp4	0.0	208.2458758354187	2.4919466972351074
35	174.87547993659973	pulse	1	t		33.0	2.5	/experiments/Knapen_AOT/AOT_stimuli/rescaled_final/1675_rv.mp4	0.0	209.42043447494507	
35	176.19286799430847	fix_post	2		12	33.0	2.5	/experiments/Knapen_AOT/AOT_stimuli/rescaled_final/1675_rv.mp4	0.0	210.7378225326538	0.10004758834838867
36	176.29291558265686	fix_pre	0		120	34.0	2.5	blank	1.0	210.8378701210022	1.0001285076141357
36	176.46973967552185	pulse	0	t		34.0	2.5	blank	1.0	211.0146942138672	
36	177.293044090271	movie	1		300	34.0	2.5	blank	1.0	211.83799862861633	2.5003662109375
36	178.07691931724548	pulse	1	t		34.0	2.5	blank	1.0	212.62187385559082	
36	179.67704963684082	pulse	1	t		34.0	2.5	blank	1.0	214.22200417518616	
36	179.7934103012085	fix_post	2		12	34.0	2.5	blank	1.0	214.33836483955383	0.10001158714294434
37	179.89342188835144	fix_pre	0		120	35.0	2.5	/experiments/Knapen_AOT/AOT_stimuli/rescaled_final/1772_rv.mp4	0.0	214.43837642669678	1.0085017681121826
37	180.90192365646362	movie	1		264	35.0	2.5	/experiments/Knapen_AOT/AOT_stimuli/rescaled_final/1772_rv.mp4	0.0	215.44687819480896	2.492053985595703
37	181.27581429481506	pulse	1	t		35.0	2.5	/experiments/Knapen_AOT/AOT_stimuli/rescaled_final/1772_rv.mp4	0.0	215.8207688331604	
37	182.8695170879364	pulse	1	t		35.0	2.5	/experiments/Knapen_AOT/AOT_stimuli/rescaled_final/1772_rv.mp4	0.0	217.41447162628174	
37	183.39397764205933	fix_post	2		12	35.0	2.5	/experiments/Knapen_AOT/AOT_stimuli/rescaled_final/1772_rv.mp4	0.0	217.93893218040466	0.10002684593200684
38	183.49400448799133	fix_pre	0		118	36.0	2.5	/experiments/Knapen_AOT/AOT_stimuli/rescaled_final/1246_fw.mp4	0.0	218.03895902633667	0.9917643070220947
38	184.46950793266296	pulse	0	t		36.0	2.5	/experiments/Knapen_AOT/AOT_stimuli/rescaled_final/1246_fw.mp4	0.0	219.0144624710083	
38	184.48576879501343	movie	1		273	36.0	2.5	/experiments/Knapen_AOT/AOT_stimuli/rescaled_final/1246_fw.mp4	0.0	219.03072333335876	2.5003979206085205
38	186.0697202682495	pulse	1	t		36.0	2.5	/experiments/Knapen_AOT/AOT_stimuli/rescaled_final/1246_fw.mp4	0.0	220.61467480659485	
38	186.98616671562195	fix_post	2		12	36.0	2.5	/experiments/Knapen_AOT/AOT_stimuli/rescaled_final/1246_fw.mp4	0.0	221.53112125396729	0.10002303123474121
39	187.0861897468567	fix_pre	0		120	37.0	2.5	/experiments/Knapen_AOT/AOT_stimuli/rescaled_final/0297_rv.mp4	0.0	221.63114428520203	1.0084693431854248
39	187.6698820590973	pulse	0	t		37.0	2.5	/experiments/Knapen_AOT/AOT_stimuli/rescaled_final/0297_rv.mp4	0.0	222.21483659744263	
39	188.09465909004211	movie	1		282	37.0	2.5	/experiments/Knapen_AOT/AOT_stimuli/rescaled_final/0297_rv.mp4	0.0	222.63961362838745	2.492041826248169
39	189.27009558677673	pulse	1	t		37.0	2.5	/experiments/Knapen_AOT/AOT_stimuli/rescaled_final/0297_rv.mp4	0.0	223.81505012512207	
39	190.58670091629028	fix_post	2		12	37.0	2.5	/experiments/Knapen_AOT/AOT_stimuli/rescaled_final/0297_rv.mp4	0.0	225.13165545463562	0.10003066062927246
40	190.68673157691956	fix_pre	0		120	38.0	2.5	/experiments/Knapen_AOT/AOT_stimuli/rescaled_final/1817_rv.mp4	0.0	225.2316861152649	1.008537769317627
40	190.87036800384521	pulse	0	t		38.0	2.5	/experiments/Knapen_AOT/AOT_stimuli/rescaled_final/1817_rv.mp4	0.0	225.41532254219055	
40	191.69526934623718	movie	1		280	38.0	2.5	/experiments/Knapen_AOT/AOT_stimuli/rescaled_final/1817_rv.mp4	0.0	226.24022388458252	2.4919769763946533
40	192.4705512523651	pulse	1	t		38.0	2.5	/experiments/Knapen_AOT/AOT_stimuli/rescaled_final/1817_rv.mp4	0.0	227.01550579071045	
40	194.07091307640076	pulse	1	t		38.0	2.5	/experiments/Knapen_AOT/AOT_stimuli/rescaled_final/1817_rv.mp4	0.0	228.6158676147461	
40	194.18724632263184	fix_post	2		12	38.0	2.5	/experiments/Knapen_AOT/AOT_stimuli/rescaled_final/1817_rv.mp4	0.0	228.73220086097717	0.10009479522705078
41	194.2873411178589	fix_pre	0		120	39.0	2.5	/experiments/Knapen_AOT/AOT_stimuli/rescaled_final/1946_fw.mp4	0.0	228.83229565620422	1.008420705795288
41	195.29576182365417	movie	1		282	39.0	2.5	/experiments/Knapen_AOT/AOT_stimuli/rescaled_final/1946_fw.mp4	0.0	229.8407163619995	2.4920406341552734
41	195.67125058174133	pulse	1	t		39.0	2.5	/experiments/Knapen_AOT/AOT_stimuli/rescaled_final/1946_fw.mp4	0.0	230.21620512008667	
41	197.27317309379578	pulse	1	t		39.0	2.5	/experiments/Knapen_AOT/AOT_stimuli/rescaled_final/1946_fw.mp4	0.0	231.8181276321411	
41	197.78780245780945	fix_post	2		12	39.0	2.5	/experiments/Knapen_AOT/AOT_stimuli/rescaled_final/1946_fw.mp4	0.0	232.33275699615479	0.10003447532653809
42	197.887836933136	fix_pre	0		119	40.0	2.5	/experiments/Knapen_AOT/AOT_stimuli/rescaled_final/0272_fw.mp4	0.0	232.43279147148132	1.0001602172851562
42	198.87224888801575	pulse	0	t		40.0	2.5	/experiments/Knapen_AOT/AOT_stimuli/rescaled_final/0272_fw.mp4	0.0	233.41720342636108	
42	198.88799715042114	movie	1		277	40.0	2.5	/experiments/Knapen_AOT/AOT_stimuli/rescaled_final/0272_fw.mp4	0.0	233.43295168876648	2.500331163406372
42	200.47200393676758	pulse	1	t		40.0	2.5	/experiments/Knapen_AOT/AOT_stimuli/rescaled_final/0272_fw.mp4	0.0	235.01695847511292	
42	201.38832831382751	fix_post	2		12	40.0	2.5	/experiments/Knapen_AOT/AOT_stimuli/rescaled_final/0272_fw.mp4	0.0	235.93328285217285	0.10001468658447266
43	201.488343000412	fix_pre	0		120	41.0	2.5	blank	1.0	236.03329753875732	1.0001797676086426
43	202.07199239730835	pulse	0	t		41.0	2.5	blank	1.0	236.6169469356537	
43	202.48852276802063	movie	1		300	41.0	2.5	blank	1.0	237.03347730636597	2.50034761428833
43	203.6722550392151	pulse	1	t		41.0	2.5	blank	1.0	238.21720957756042	
43	204.98887038230896	fix_post	2		12	41.0	2.5	blank	1.0	239.5338249206543	0.10006523132324219
44	205.0889356136322	fix_pre	0		120	42.0	2.5	/experiments/Knapen_AOT/AOT_stimuli/rescaled_final/1203_rv.mp4	0.0	239.63389015197754	1.008467435836792
44	205.27240705490112	pulse	0	t		42.0	2.5	/experiments/Knapen_AOT/AOT_stimuli/rescaled_final/1203_rv.mp4	0.0	239.81736159324646	
44	206.097403049469	movie	1		284	42.0	2.5	/experiments/Knapen_AOT/AOT_stimuli/rescaled_final/1203_rv.mp4	0.0	240.64235758781433	2.4920289516448975
44	206.8708131313324	pulse	1	t		42.0	2.5	/experiments/Knapen_AOT/AOT_stimuli/rescaled_final/1203_rv.mp4	0.0	241.41576766967773	
44	208.4708333015442	pulse	1	t		42.0	2.5	/experiments/Knapen_AOT/AOT_stimuli/rescaled_final/1203_rv.mp4	0.0	243.01578783988953	
44	208.5894320011139	fix_post	2		12	42.0	2.5	/experiments/Knapen_AOT/AOT_stimuli/rescaled_final/1203_rv.mp4	0.0	243.13438653945923	0.10000252723693848
45	208.68943452835083	fix_pre	0		120	43.0	2.5	/experiments/Knapen_AOT/AOT_stimuli/rescaled_final/1946_rv.mp4	0.0	243.23438906669617	1.008470058441162
45	209.697904586792	movie	1		286	43.0	2.5	/experiments/Knapen_AOT/AOT_stimuli/rescaled_final/1946_rv.mp4	0.0	244.24285912513733	2.492058515548706
45	210.0716347694397	pulse	1	t		43.0	2.5	/experiments/Knapen_AOT/AOT_stimuli/rescaled_final/1946_rv.mp4	0.0	244.61658930778503	
45	211.6716251373291	pulse	1	t		43.0	2.5	/experiments/Knapen_AOT/AOT_stimuli/rescaled_final/1946_rv.mp4	0.0	246.21657967567444	
45	212.1899631023407	fix_post	2		12	43.0	2.5	/experiments/Knapen_AOT/AOT_stimuli/rescaled_final/1946_rv.mp4	0.0	246.73491764068604	0.10001182556152344
46	212.28997492790222	fix_pre	0		119	44.0	2.5	/experiments/Knapen_AOT/AOT_stimuli/rescaled_final/2007_rv.mp4	0.0	246.83492946624756	1.0001811981201172
46	213.27367782592773	pulse	0	t		44.0	2.5	/experiments/Knapen_AOT/AOT_stimuli/rescaled_final/2007_rv.mp4	0.0	247.81863236427307	
46	213.29015612602234	movie	1		270	44.0	2.5	/experiments/Knapen_AOT/AOT_stimuli/rescaled_final/2007_rv.mp4	0.0	247.83511066436768	2.500335693359375
46	214.87243175506592	pulse	1	t		44.0	2.5	/experiments/Knapen_AOT/AOT_stimuli/rescaled_final/2007_rv.mp4	0.0	249.41738629341125	
46	215.7904918193817	fix_post	2		12	44.0	2.5	/experiments/Knapen_AOT/AOT_stimuli/rescaled_final/2007_rv.mp4	0.0	250.33544635772705	0.10003399848937988
47	215.8905258178711	fix_pre	0		120	45.0	2.5	/experiments/Knapen_AOT/AOT_stimuli/rescaled_final/0907_fw.mp4	0.0	250.43548035621643	1.0085134506225586
47	216.47416043281555	pulse	0	t		45.0	2.5	/experiments/Knapen_AOT/AOT_stimuli/rescaled_final/0907_fw.mp4	0.0	251.0191149711609	
47	216.89903926849365	movie	1		249	45.0	2.5	/experiments/Knapen_AOT/AOT_stimuli/rescaled_final/0907_fw.mp4	0.0	251.443993806839	2.4920427799224854
47	218.07251119613647	pulse	1	t		45.0	2.5	/experiments/Knapen_AOT/AOT_stimuli/rescaled_final/0907_fw.mp4	0.0	252.6174657344818	
47	219.39108204841614	fix_post	2		12	45.0	2.5	/experiments/Knapen_AOT/AOT_stimuli/rescaled_final/0907_fw.mp4	0.0	253.93603658676147	0.10003304481506348
48	219.4911150932312	fix_pre	0		120	46.0	2.5	/experiments/Knapen_AOT/AOT_stimuli/rescaled_final/1554_rv.mp4	0.0	254.03606963157654	1.0084209442138672
48	219.67483019828796	pulse	0	t		46.0	2.5	/experiments/Knapen_AOT/AOT_stimuli/rescaled_final/1554_rv.mp4	0.0	254.2197847366333	
48	220.49953603744507	movie	1		267	46.0	2.5	/experiments/Knapen_AOT/AOT_stimuli/rescaled_final/1554_rv.mp4	0.0	255.0444905757904	2.492088794708252
48	221.2733030319214	pulse	1	t		46.0	2.5	/experiments/Knapen_AOT/AOT_stimuli/rescaled_final/1554_rv.mp4	0.0	255.81825757026672	
48	222.87358951568604	pulse	1	t		46.0	2.5	/experiments/Knapen_AOT/AOT_stimuli/rescaled_final/1554_rv.mp4	0.0	257.4185440540314	
48	222.99162483215332	fix_post	2		12	46.0	2.5	/experiments/Knapen_AOT/AOT_stimuli/rescaled_final/1554_rv.mp4	0.0	257.53657937049866	0.10001111030578613
49	223.0916359424591	fix_pre	0		120	47.0	2.5	/experiments/Knapen_AOT/AOT_stimuli/rescaled_final/0080_rv.mp4	0.0	257.63659048080444	1.0085117816925049
49	224.1001477241516	movie	1		281	47.0	2.5	/experiments/Knapen_AOT/AOT_stimuli/rescaled_final/0080_rv.mp4	0.0	258.64510226249695	2.4920132160186768
49	224.47383522987366	pulse	1	t		47.0	2.5	/experiments/Knapen_AOT/AOT_stimuli/rescaled_final/0080_rv.mp4	0.0	259.018789768219	
49	226.07419514656067	pulse	1	t		47.0	2.5	/experiments/Knapen_AOT/AOT_stimuli/rescaled_final/0080_rv.mp4	0.0	260.619149684906	
49	226.5921609401703	fix_post	2		12	47.0	2.5	/experiments/Knapen_AOT/AOT_stimuli/rescaled_final/0080_rv.mp4	0.0	261.1371154785156	0.0999758243560791
50	226.69213676452637	fix_pre	0		119	48.0	2.5	/experiments/Knapen_AOT/AOT_stimuli/rescaled_final/0540_rv.mp4	0.0	261.2370913028717	1.000185251235962
50	227.67597436904907	pulse	0	t		48.0	2.5	/experiments/Knapen_AOT/AOT_stimuli/rescaled_final/0540_rv.mp4	0.0	262.2209289073944	
50	227.69232201576233	movie	1		283	48.0	2.5	/experiments/Knapen_AOT/AOT_stimuli/rescaled_final/0540_rv.mp4	0.0	262.23727655410767	2.500351905822754
50	229.27462434768677	pulse	1	t		48.0	2.5	/experiments/Knapen_AOT/AOT_stimuli/rescaled_final/0540_rv.mp4	0.0	263.8195788860321	
50	230.19267392158508	fix_post	2		12	48.0	2.5	/experiments/Knapen_AOT/AOT_stimuli/rescaled_final/0540_rv.mp4	0.0	264.7376284599304	0.10007905960083008
51	230.2927529811859	fix_pre	0		120	49.0	2.5	blank	1.0	264.83770751953125	1.0000638961791992
51	230.87633395195007	pulse	0	t		49.0	2.5	blank	1.0	265.4212884902954	
51	231.2928168773651	movie	1		300	49.0	2.5	blank	1.0	265.83777141571045	2.500401258468628
51	232.4766025543213	pulse	1	t		49.0	2.5	blank	1.0	267.0215570926666	
51	233.79321813583374	fix_post	2		12	49.0	2.5	blank	1.0	268.3381726741791	0.10002517700195312
52	233.8932433128357	fix_pre	0		120	50.0	2.5	/experiments/Knapen_AOT/AOT_stimuli/rescaled_final/1276_fw.mp4	0.0	268.43819785118103	1.0084588527679443
52	234.07679533958435	pulse	0	t		50.0	2.5	/experiments/Knapen_AOT/AOT_stimuli/rescaled_final/1276_fw.mp4	0.0	268.6217498779297	
52	234.90170216560364	movie	1		277	50.0	2.5	/experiments/Knapen_AOT/AOT_stimuli/rescaled_final/1276_fw.mp4	0.0	269.446656703949	2.492039680480957
52	235.67512488365173	pulse	1	t		50.0	2.5	/experiments/Knapen_AOT/AOT_stimuli/rescaled_final/1276_fw.mp4	0.0	270.22007942199707	
52	237.27529764175415	pulse	1	t		50.0	2.5	/experiments/Knapen_AOT/AOT_stimuli/rescaled_final/1276_fw.mp4	0.0	271.8202521800995	
52	237.3937418460846	fix_post	2		12	50.0	2.5	/experiments/Knapen_AOT/AOT_stimuli/rescaled_final/1276_fw.mp4	0.0	271.93869638442993	0.10001683235168457
53	237.49375867843628	fix_pre	0		120	51.0	2.5	/experiments/Knapen_AOT/AOT_stimuli/rescaled_final/2097_fw.mp4	0.0	272.0387132167816	1.008500576019287
53	238.50225925445557	movie	1		269	51.0	2.5	/experiments/Knapen_AOT/AOT_stimuli/rescaled_final/2097_fw.mp4	0.0	273.0472137928009	2.4920153617858887
53	238.87614607810974	pulse	1	t		51.0	2.5	/experiments/Knapen_AOT/AOT_stimuli/rescaled_final/2097_fw.mp4	0.0	273.4211006164551	
53	240.47813367843628	pulse	1	t		51.0	2.5	/experiments/Knapen_AOT/AOT_stimuli/rescaled_final/2097_fw.mp4	0.0	275.0230882167816	
53	240.99427461624146	fix_post	2		12	51.0	2.5	/experiments/Knapen_AOT/AOT_stimuli/rescaled_final/2097_fw.mp4	0.0	275.5392291545868	0.10005569458007812
54	241.09433031082153	fix_pre	0		118	52.0	2.5	/experiments/Knapen_AOT/AOT_stimuli/rescaled_final/0936_fw.mp4	0.0	275.63928484916687	0.991802453994751
54	242.06996822357178	pulse	0	t		52.0	2.5	/experiments/Knapen_AOT/AOT_stimuli/rescaled_final/0936_fw.mp4	0.0	276.6149227619171	
54	242.08613276481628	movie	1		286	52.0	2.5	/experiments/Knapen_AOT/AOT_stimuli/rescaled_final/0936_fw.mp4	0.0	276.6310873031616	2.5003530979156494
54	243.6701774597168	pulse	1	t		52.0	2.5	/experiments/Knapen_AOT/AOT_stimuli/rescaled_final/0936_fw.mp4	0.0	278.21513199806213	
54	244.58648586273193	fix_post	2		12	52.0	2.5	/experiments/Knapen_AOT/AOT_stimuli/rescaled_final/0936_fw.mp4	0.0	279.13144040107727	0.10001325607299805
55	244.68649911880493	fix_pre	0		120	53.0	2.5	/experiments/Knapen_AOT/AOT_stimuli/rescaled_final/2134_fw.mp4	0.0	279.23145365715027	1.0085232257843018
55	245.27015709877014	pulse	0	t		53.0	2.5	/experiments/Knapen_AOT/AOT_stimuli/rescaled_final/2134_fw.mp4	0.0	279.8151116371155	
55	245.69502234458923	movie	1		278	53.0	2.5	/experiments/Knapen_AOT/AOT_stimuli/rescaled_final/2134_fw.mp4	0.0	280.23997688293457	2.4920754432678223
55	246.8706123828888	pulse	1	t		53.0	2.5	/experiments/Knapen_AOT/AOT_stimuli/rescaled_final/2134_fw.mp4	0.0	281.41556692123413	
55	248.18709778785706	fix_post	2		12	53.0	2.5	/experiments/Knapen_AOT/AOT_stimuli/rescaled_final/2134_fw.mp4	0.0	282.7320523262024	0.09998726844787598
56	248.28708505630493	fix_pre	0		120	54.0	2.5	/experiments/Knapen_AOT/AOT_stimuli/rescaled_final/1128_fw.mp4	0.0	282.83203959465027	1.0084402561187744
56	248.47063493728638	pulse	0	t		54.0	2.5	/experiments/Knapen_AOT/AOT_stimuli/rescaled_final/1128_fw.mp4	0.0	283.0155894756317	
56	249.2955253124237	movie	1		271	54.0	2.5	/experiments/Knapen_AOT/AOT_stimuli/rescaled_final/1128_fw.mp4	0.0	283.84047985076904	2.492046594619751
56	250.07083821296692	pulse	1	t		54.0	2.5	/experiments/Knapen_AOT/AOT_stimuli/rescaled_final/1128_fw.mp4	0.0	284.61579275131226	
56	251.67113852500916	pulse	1	t		54.0	2.5	/experiments/Knapen_AOT/AOT_stimuli/rescaled_final/1128_fw.mp4	0.0	286.2160930633545	
56	251.78757190704346	fix_post	2		12	54.0	2.5	/experiments/Knapen_AOT/AOT_stimuli/rescaled_final/1128_fw.mp4	0.0	286.3325264453888	0.1000514030456543
57	251.8876233100891	fix_pre	0		120	55.0	2.5	/experiments/Knapen_AOT/AOT_stimuli/rescaled_final/0247_rv.mp4	0.0	286.43257784843445	1.0084834098815918
57	252.8961067199707	movie	1		277	55.0	2.5	/experiments/Knapen_AOT/AOT_stimuli/rescaled_final/0247_rv.mp4	0.0	287.44106125831604	2.4920053482055664
57	253.27149438858032	pulse	1	t		55.0	2.5	/experiments/Knapen_AOT/AOT_stimuli/rescaled_final/0247_rv.mp4	0.0	287.81644892692566	
57	254.8715603351593	pulse	1	t		55.0	2.5	/experiments/Knapen_AOT/AOT_stimuli/rescaled_final/0247_rv.mp4	0.0	289.41651487350464	
57	255.38811206817627	fix_post	2		12	55.0	2.5	/experiments/Knapen_AOT/AOT_stimuli/rescaled_final/0247_rv.mp4	0.0	289.9330666065216	0.10001754760742188
58	255.4881296157837	fix_pre	0		119	56.0	2.5	blank	1.0	290.033084154129	0.9918041229248047
58	256.47183895111084	pulse	0	t		56.0	2.5	blank	1.0	291.0167934894562	
58	256.4799337387085	movie	1		301	56.0	2.5	blank	1.0	291.02488827705383	2.508728265762329
58	258.0720727443695	pulse	1	t		56.0	2.5	blank	1.0	292.61702728271484	
58	258.9886620044708	fix_post	2		12	56.0	2.5	blank	1.0	293.53361654281616	0.1000068187713623
59	259.0886688232422	fix_pre	0		120	57.0	2.5	/experiments/Knapen_AOT/AOT_stimuli/rescaled_final/2007_rv.mp4	0.0	293.6336233615875	1.0085384845733643
59	259.67228055000305	pulse	0	t		57.0	2.5	/experiments/Knapen_AOT/AOT_stimuli/rescaled_final/2007_rv.mp4	0.0	294.2172350883484	
59	260.09720730781555	movie	1		275	57.0	2.5	/experiments/Knapen_AOT/AOT_stimuli/rescaled_final/2007_rv.mp4	0.0	294.6421618461609	2.4919979572296143
59	261.2706530094147	pulse	1	t		57.0	2.5	/experiments/Knapen_AOT/AOT_stimuli/rescaled_final/2007_rv.mp4	0.0	295.81560754776	
59	262.58920526504517	fix_post	2		12	57.0	2.5	/experiments/Knapen_AOT/AOT_stimuli/rescaled_final/2007_rv.mp4	0.0	297.1341598033905	0.10000133514404297
60	262.6892066001892	fix_pre	0		120	58.0	2.5	/experiments/Knapen_AOT/AOT_stimuli/rescaled_final/1596_rv.mp4	0.0	297.23416113853455	1.0085129737854004
60	262.8729257583618	pulse	0	t		58.0	2.5	/experiments/Knapen_AOT/AOT_stimuli/rescaled_final/1596_rv.mp4	0.0	297.41788029670715	
60	263.6977195739746	movie	1		280	58.0	2.5	/experiments/Knapen_AOT/AOT_stimuli/rescaled_final/1596_rv.mp4	0.0	298.24267411231995	2.4920310974121094
60	264.471421957016	pulse	1	t		58.0	2.5	/experiments/Knapen_AOT/AOT_stimuli/rescaled_final/1596_rv.mp4	0.0	299.0163764953613	
60	266.071720123291	pulse	1	t		58.0	2.5	/experiments/Knapen_AOT/AOT_stimuli/rescaled_final/1596_rv.mp4	0.0	300.61667466163635	
60	266.1897506713867	fix_post	2		12	58.0	2.5	/experiments/Knapen_AOT/AOT_stimuli/rescaled_final/1596_rv.mp4	0.0	300.73470520973206	0.1000068187713623
61	266.2897574901581	fix_pre	0		120	59.0	2.5	/experiments/Knapen_AOT/AOT_stimuli/rescaled_final/0267_fw.mp4	0.0	300.8347120285034	1.0085022449493408
61	267.2982597351074	movie	1		271	59.0	2.5	/experiments/Knapen_AOT/AOT_stimuli/rescaled_final/0267_fw.mp4	0.0	301.84321427345276	2.492058038711548
61	267.6719844341278	pulse	1	t		59.0	2.5	/experiments/Knapen_AOT/AOT_stimuli/rescaled_final/0267_fw.mp4	0.0	302.21693897247314	
61	269.27193427085876	pulse	1	t		59.0	2.5	/experiments/Knapen_AOT/AOT_stimuli/rescaled_final/0267_fw.mp4	0.0	303.8168888092041	
61	269.79031777381897	fix_post	2		12	59.0	2.5	/experiments/Knapen_AOT/AOT_stimuli/rescaled_final/0267_fw.mp4	0.0	304.3352723121643	0.0999758243560791
62	269.89029359817505	fix_pre	0		119	60.0	2.5	/experiments/Knapen_AOT/AOT_stimuli/rescaled_final/1312_fw.mp4	0.0	304.4352481365204	1.00868821144104
62	270.874085187912	pulse	0	t		60.0	2.5	/experiments/Knapen_AOT/AOT_stimuli/rescaled_final/1312_fw.mp4	0.0	305.4190397262573	
62	270.8989818096161	movie	1		281	60.0	2.5	/experiments/Knapen_AOT/AOT_stimuli/rescaled_final/1312_fw.mp4	0.0	305.4439363479614	2.4918317794799805
62	272.47320079803467	pulse	1	t		60.0	2.5	/experiments/Knapen_AOT/AOT_stimuli/rescaled_final/1312_fw.mp4	0.0	307.01815533638	
62	273.39081358909607	fix_post	2		12	60.0	2.5	/experiments/Knapen_AOT/AOT_stimuli/rescaled_final/1312_fw.mp4	0.0	307.9357681274414	0.10001516342163086
63	273.4908287525177	fix_pre	0		120	61.0	2.5	blank	1.0	308.03578329086304	1.0001592636108398
63	274.07452178001404	pulse	0	t		61.0	2.5	blank	1.0	308.6194763183594	
63	274.49098801612854	movie	1		300	61.0	2.5	blank	1.0	309.0359425544739	2.5004303455352783
63	275.67471647262573	pulse	1	t		61.0	2.5	blank	1.0	310.21967101097107	
63	276.9914183616638	fix_post	2		12	61.0	2.5	blank	1.0	311.53637290000916	0.09995579719543457
64	277.09137415885925	fix_pre	0		120	62.0	2.5	/experiments/Knapen_AOT/AOT_stimuli/rescaled_final/0069_fw.mp4	0.0	311.6363286972046	1.0085194110870361
64	277.2749140262604	pulse	0	t		62.0	2.5	/experiments/Knapen_AOT/AOT_stimuli/rescaled_final/0069_fw.mp4	0.0	311.8198685646057	
64	278.0998935699463	movie	1		284	62.0	2.5	/experiments/Knapen_AOT/AOT_stimuli/rescaled_final/0069_fw.mp4	0.0	312.6448481082916	2.49208927154541
64	278.87337255477905	pulse	1	t		62.0	2.5	/experiments/Knapen_AOT/AOT_stimuli/rescaled_final/0069_fw.mp4	0.0	313.4183270931244	
64	280.47391963005066	pulse	1	t		62.0	2.5	/experiments/Knapen_AOT/AOT_stimuli/rescaled_final/0069_fw.mp4	0.0	315.018874168396	
64	280.5919828414917	fix_post	2		12	62.0	2.5	/experiments/Knapen_AOT/AOT_stimuli/rescaled_final/0069_fw.mp4	0.0	315.13693737983704	0.09992790222167969
65	280.6919107437134	fix_pre	0		120	63.0	2.5	/experiments/Knapen_AOT/AOT_stimuli/rescaled_final/1781_rv.mp4	0.0	315.2368652820587	1.0084857940673828
65	281.70039653778076	movie	1		274	63.0	2.5	/experiments/Knapen_AOT/AOT_stimuli/rescaled_final/1781_rv.mp4	0.0	316.2453510761261	2.4920711517333984
65	282.0746772289276	pulse	1	t		63.0	2.5	/experiments/Knapen_AOT/AOT_stimuli/rescaled_final/1781_rv.mp4	0.0	316.61963176727295	
65	283.67385721206665	pulse	1	t		63.0	2.5	/experiments/Knapen_AOT/AOT_stimuli/rescaled_final/1781_rv.mp4	0.0	318.218811750412	
65	284.19246768951416	fix_post	2		12	63.0	2.5	/experiments/Knapen_AOT/AOT_stimuli/rescaled_final/1781_rv.mp4	0.0	318.7374222278595	0.09999728202819824
66	284.29246497154236	fix_pre	0		119	64.0	2.5	/experiments/Knapen_AOT/AOT_stimuli/rescaled_final/0708_fw.mp4	0.0	318.8374195098877	1.0002682209014893
66	285.27622842788696	pulse	0	t		64.0	2.5	/experiments/Knapen_AOT/AOT_stimuli/rescaled_final/0708_fw.mp4	0.0	319.8211829662323	
66	285.29273319244385	movie	1		277	64.0	2.5	/experiments/Knapen_AOT/AOT_stimuli/rescaled_final/0708_fw.mp4	0.0	319.8376877307892	2.500241994857788
66	286.8756060600281	pulse	1	t		64.0	2.5	/experiments/Knapen_AOT/AOT_stimuli/rescaled_final/0708_fw.mp4	0.0	321.4205605983734	
66	287.79297518730164	fix_post	2		12	64.0	2.5	/experiments/Knapen_AOT/AOT_stimuli/rescaled_final/0708_fw.mp4	0.0	322.337929725647	0.1000359058380127
67	287.89301109313965	fix_pre	0		120	65.0	2.5	/experiments/Knapen_AOT/AOT_stimuli/rescaled_final/1097_rv.mp4	0.0	322.437965631485	1.008479118347168
67	288.4767210483551	pulse	0	t		65.0	2.5	/experiments/Knapen_AOT/AOT_stimuli/rescaled_final/1097_rv.mp4	0.0	323.02167558670044	
67	288.9014902114868	movie	1		276	65.0	2.5	/experiments/Knapen_AOT/AOT_stimuli/rescaled_final/1097_rv.mp4	0.0	323.44644474983215	2.4920356273651123
67	290.07497334480286	pulse	1	t		65.0	2.5	/experiments/Knapen_AOT/AOT_stimuli/rescaled_final/1097_rv.mp4	0.0	324.6199278831482	
67	291.39352583885193	fix_post	2		12	65.0	2.5	/experiments/Knapen_AOT/AOT_stimuli/rescaled_final/1097_rv.mp4	0.0	325.93848037719727	0.10001373291015625
68	291.4935395717621	fix_pre	0		120	66.0	2.5	/experiments/Knapen_AOT/AOT_stimuli/rescaled_final/2040_rv.mp4	0.0	326.0384941101074	1.0085058212280273
68	291.67739486694336	pulse	0	t		66.0	2.5	/experiments/Knapen_AOT/AOT_stimuli/rescaled_final/2040_rv.mp4	0.0	326.2223494052887	
68	292.5020453929901	movie	1		280	66.0	2.5	/experiments/Knapen_AOT/AOT_stimuli/rescaled_final/2040_rv.mp4	0.0	327.04699993133545	2.4920172691345215
68	293.2755193710327	pulse	1	t		66.0	2.5	/experiments/Knapen_AOT/AOT_stimuli/rescaled_final/2040_rv.mp4	0.0	327.82047390937805	
68	294.8760025501251	pulse	1	t		66.0	2.5	/experiments/Knapen_AOT/AOT_stimuli/rescaled_final/2040_rv.mp4	0.0	329.42095708847046	
68	294.99406266212463	fix_post	2		12	66.0	2.5	/experiments/Knapen_AOT/AOT_stimuli/rescaled_final/2040_rv.mp4	0.0	329.53901720046997	0.10003471374511719
69	295.09409737586975	fix_pre	0		120	67.0	2.5	/experiments/Knapen_AOT/AOT_stimuli/rescaled_final/0605_rv.mp4	0.0	329.6390519142151	1.008500576019287
69	296.10259795188904	movie	1		283	67.0	2.5	/experiments/Knapen_AOT/AOT_stimuli/rescaled_final/0605_rv.mp4	0.0	330.6475524902344	2.492007255554199
69	296.4765393733978	pulse	1	t		67.0	2.5	/experiments/Knapen_AOT/AOT_stimuli/rescaled_final/0605_rv.mp4	0.0	331.02149391174316	
69	298.076176404953	pulse	1	t		67.0	2.5	/experiments/Knapen_AOT/AOT_stimuli/rescaled_final/0605_rv.mp4	0.0	332.62113094329834	
69	298.59460520744324	fix_post	2		12	67.0	2.5	/experiments/Knapen_AOT/AOT_stimuli/rescaled_final/0605_rv.mp4	0.0	333.1395597457886	0.10001230239868164
70	298.6946175098419	fix_pre	0		118	68.0	2.5	blank	1.0	333.23957204818726	0.9834542274475098
70	299.67032408714294	pulse	0	t		68.0	2.5	blank	1.0	334.2152786254883	
70	299.67807173728943	movie	1		301	68.0	2.5	blank	1.0	334.22302627563477	2.5087363719940186
70	301.2703194618225	pulse	1	t		68.0	2.5	blank	1.0	335.81527400016785	
70	302.18680810928345	fix_post	2		12	68.0	2.5	blank	1.0	336.7317626476288	0.10002803802490234
71	302.28683614730835	fix_pre	0		120	69.0	2.5	/experiments/Knapen_AOT/AOT_stimuli/rescaled_final/1210_fw.mp4	0.0	336.8317906856537	1.0086076259613037
71	302.870486497879	pulse	0	t		69.0	2.5	/experiments/Knapen_AOT/AOT_stimuli/rescaled_final/1210_fw.mp4	0.0	337.41544103622437	
71	303.29544377326965	movie	1		273	69.0	2.5	/experiments/Knapen_AOT/AOT_stimuli/rescaled_final/1210_fw.mp4	0.0	337.840398311615	2.491917371749878
71	304.46960830688477	pulse	1	t		69.0	2.5	/experiments/Knapen_AOT/AOT_stimuli/rescaled_final/1210_fw.mp4	0.0	339.0145628452301	
71	305.78736114501953	fix_post	2		12	69.0	2.5	/experiments/Knapen_AOT/AOT_stimuli/rescaled_final/1210_fw.mp4	0.0	340.33231568336487	0.10003662109375
72	305.8873977661133	fix_pre	0		120	70.0	2.5	/experiments/Knapen_AOT/AOT_stimuli/rescaled_final/1991_fw.mp4	0.0	340.4323523044586	1.0084302425384521
72	306.0710871219635	pulse	0	t		70.0	2.5	/experiments/Knapen_AOT/AOT_stimuli/rescaled_final/1991_fw.mp4	0.0	340.61604166030884	
72	306.89582800865173	movie	1		279	70.0	2.5	/experiments/Knapen_AOT/AOT_stimuli/rescaled_final/1991_fw.mp4	0.0	341.44078254699707	2.4920668601989746
72	307.6703853607178	pulse	1	t		70.0	2.5	/experiments/Knapen_AOT/AOT_stimuli/rescaled_final/1991_fw.mp4	0.0	342.2153398990631	
72	309.2697639465332	pulse	1	t		70.0	2.5	/experiments/Knapen_AOT/AOT_stimuli/rescaled_final/1991_fw.mp4	0.0	343.81471848487854	
72	309.3878948688507	fix_post	2		12	70.0	2.5	/experiments/Knapen_AOT/AOT_stimuli/rescaled_final/1991_fw.mp4	0.0	343.93284940719604	0.10002541542053223
73	309.48792028427124	fix_pre	0		120	71.0	2.5	/experiments/Knapen_AOT/AOT_stimuli/rescaled_final/0699_fw.mp4	0.0	344.0328748226166	1.008540391921997
73	310.49646067619324	movie	1		256	71.0	2.5	/experiments/Knapen_AOT/AOT_stimuli/rescaled_final/0699_fw.mp4	0.0	345.0414152145386	2.4919769763946533
73	310.872123003006	pulse	1	t		71.0	2.5	/experiments/Knapen_AOT/AOT_stimuli/rescaled_final/0699_fw.mp4	0.0	345.4170775413513	
73	312.46991634368896	pulse	1	t		71.0	2.5	/experiments/Knapen_AOT/AOT_stimuli/rescaled_final/0699_fw.mp4	0.0	347.0148708820343	
73	312.9884376525879	fix_post	2		12	71.0	2.5	/experiments/Knapen_AOT/AOT_stimuli/rescaled_final/0699_fw.mp4	0.0	347.5333921909332	0.09997129440307617
74	313.08840894699097	fix_pre	0		119	72.0	2.5	/experiments/Knapen_AOT/AOT_stimuli/rescaled_final/1772_fw.mp4	0.0	347.6333634853363	1.0001752376556396
74	314.0721654891968	pulse	0	t		72.0	2.5	/experiments/Knapen_AOT/AOT_stimuli/rescaled_final/1772_fw.mp4	0.0	348.6171200275421	
74	314.0885841846466	movie	1		270	72.0	2.5	/experiments/Knapen_AOT/AOT_stimuli/rescaled_final/1772_fw.mp4	0.0	348.63353872299194	2.5004069805145264
74	315.67127895355225	pulse	1	t		72.0	2.5	/experiments/Knapen_AOT/AOT_stimuli/rescaled_final/1772_fw.mp4	0.0	350.2162334918976	
74	316.58899116516113	fix_post	2		12	72.0	2.5	/experiments/Knapen_AOT/AOT_stimuli/rescaled_final/1772_fw.mp4	0.0	351.13394570350647	0.1000375747680664
75	316.6890287399292	fix_pre	0		120	73.0	2.5	/experiments/Knapen_AOT/AOT_stimuli/rescaled_final/0684_fw.mp4	0.0	351.23398327827454	1.0085220336914062
75	317.27270793914795	pulse	0	t		73.0	2.5	/experiments/Knapen_AOT/AOT_stimuli/rescaled_final/0684_fw.mp4	0.0	351.8176624774933	
75	317.6975507736206	movie	1		269	73.0	2.5	/experiments/Knapen_AOT/AOT_stimuli/rescaled_final/0684_fw.mp4	0.0	352.24250531196594	2.491964101791382
75	318.8711063861847	pulse	1	t		73.0	2.5	/experiments/Knapen_AOT/AOT_stimuli/rescaled_final/0684_fw.mp4	0.0	353.41606092453003	
75	320.189514875412	fix_post	2		12	73.0	2.5	/experiments/Knapen_AOT/AOT_stimuli/rescaled_final/0684_fw.mp4	0.0	354.7344694137573	0.10002374649047852
76	320.28953862190247	fix_pre	0		119	74.0	2.5	/experiments/Knapen_AOT/AOT_stimuli/rescaled_final/0052_rv.mp4	0.0	354.8344931602478	1.0085184574127197
76	320.47352504730225	pulse	0	t		74.0	2.5	/experiments/Knapen_AOT/AOT_stimuli/rescaled_final/0052_rv.mp4	0.0	355.0184795856476	
76	321.2980570793152	movie	1		271	74.0	2.5	/experiments/Knapen_AOT/AOT_stimuli/rescaled_final/0052_rv.mp4	0.0	355.8430116176605	2.492016315460205
76	322.0715353488922	pulse	1	t		74.0	2.5	/experiments/Knapen_AOT/AOT_stimuli/rescaled_final/0052_rv.mp4	0.0	356.61648988723755	
76	323.67260479927063	pulse	1	t		74.0	2.5	/experiments/Knapen_AOT/AOT_stimuli/rescaled_final/0052_rv.mp4	0.0	358.21755933761597	
76	323.7900733947754	fix_post	2		12	74.0	2.5	/experiments/Knapen_AOT/AOT_stimuli/rescaled_final/0052_rv.mp4	0.0	358.3350279331207	0.10002350807189941
77	323.8900969028473	fix_pre	0		120	75.0	2.5	/experiments/Knapen_AOT/AOT_stimuli/rescaled_final/1097_rv.mp4	0.0	358.4350514411926	1.0084781646728516
77	324.89857506752014	movie	1		262	75.0	2.5	/experiments/Knapen_AOT/AOT_stimuli/rescaled_final/1097_rv.mp4	0.0	359.4435296058655	2.4921085834503174
77	325.2724304199219	pulse	1	t		75.0	2.5	/experiments/Knapen_AOT/AOT_stimuli/rescaled_final/1097_rv.mp4	0.0	359.8173849582672	
77	326.87249207496643	pulse	1	t		75.0	2.5	/experiments/Knapen_AOT/AOT_stimuli/rescaled_final/1097_rv.mp4	0.0	361.41744661331177	
77	327.39068365097046	fix_post	2		12	75.0	2.5	/experiments/Knapen_AOT/AOT_stimuli/rescaled_final/1097_rv.mp4	0.0	361.9356381893158	0.09994053840637207
78	327.49062418937683	fix_pre	0		119	76.0	2.5	/experiments/Knapen_AOT/AOT_stimuli/rescaled_final/2122_fw.mp4	0.0	362.03557872772217	1.0001485347747803
78	328.4745008945465	pulse	0	t		76.0	2.5	/experiments/Knapen_AOT/AOT_stimuli/rescaled_final/2122_fw.mp4	0.0	363.01945543289185	
78	328.4907727241516	movie	1		274	76.0	2.5	/experiments/Knapen_AOT/AOT_stimuli/rescaled_final/2122_fw.mp4	0.0	363.03572726249695	2.500384569168091
78	330.07398891448975	pulse	1	t		76.0	2.5	/experiments/Knapen_AOT/AOT_stimuli/rescaled_final/2122_fw.mp4	0.0	364.6189434528351	
78	330.9911572933197	fix_post	2		12	76.0	2.5	/experiments/Knapen_AOT/AOT_stimuli/rescaled_final/2122_fw.mp4	0.0	365.53611183166504	0.10001444816589355
79	331.0911717414856	fix_pre	0		120	77.0	2.5	blank	1.0	365.63612627983093	1.0001535415649414
79	331.67480063438416	pulse	0	t		77.0	2.5	blank	1.0	366.2197551727295	
79	332.09132528305054	movie	1		300	77.0	2.5	blank	1.0	366.6362798213959	2.5003578662872314
79	333.2750709056854	pulse	1	t		77.0	2.5	blank	1.0	367.82002544403076	
79	334.59168314933777	fix_post	2		12	77.0	2.5	blank	1.0	369.1366376876831	0.10015010833740234
80	334.69183325767517	fix_pre	0		120	78.0	2.5	/experiments/Knapen_AOT/AOT_stimuli/rescaled_final/0924_rv.mp4	0.0	369.2367877960205	1.0083673000335693
80	334.87525725364685	pulse	0	t		78.0	2.5	/experiments/Knapen_AOT/AOT_stimuli/rescaled_final/0924_rv.mp4	0.0	369.4202117919922	
80	335.70020055770874	movie	1		274	78.0	2.5	/experiments/Knapen_AOT/AOT_stimuli/rescaled_final/0924_rv.mp4	0.0	370.2451550960541	2.4920263290405273
80	336.47626852989197	pulse	1	t		78.0	2.5	/experiments/Knapen_AOT/AOT_stimuli/rescaled_final/0924_rv.mp4	0.0	371.0212230682373	
80	338.07420682907104	pulse	1	t		78.0	2.5	/experiments/Knapen_AOT/AOT_stimuli/rescaled_final/0924_rv.mp4	0.0	372.6191613674164	
80	338.19222688674927	fix_post	2		12	78.0	2.5	/experiments/Knapen_AOT/AOT_stimuli/rescaled_final/0924_rv.mp4	0.0	372.7371814250946	0.1000211238861084
81	338.2922480106354	fix_pre	0		120	79.0	2.5	/experiments/Knapen_AOT/AOT_stimuli/rescaled_final/2032_rv.mp4	0.0	372.8372025489807	1.0084819793701172
81	339.3007299900055	movie	1		271	79.0	2.5	/experiments/Knapen_AOT/AOT_stimuli/rescaled_final/2032_rv.mp4	0.0	373.84568452835083	2.4920830726623535
81	339.67438316345215	pulse	1	t		79.0	2.5	/experiments/Knapen_AOT/AOT_stimuli/rescaled_final/2032_rv.mp4	0.0	374.2193377017975	
81	341.2761514186859	pulse	1	t		79.0	2.5	/experiments/Knapen_AOT/AOT_stimuli/rescaled_final/2032_rv.mp4	0.0	375.82110595703125	
81	341.79281306266785	fix_post	2		12	79.0	2.5	/experiments/Knapen_AOT/AOT_stimuli/rescaled_final/2032_rv.mp4	0.0	376.3377676010132	0.09997725486755371
82	341.8927903175354	fix_pre	0		119	80.0	2.5	/experiments/Knapen_AOT/AOT_stimuli/rescaled_final/0849_rv.mp4	0.0	376.43774485588074	1.0001726150512695
82	342.87643599510193	pulse	0	t		80.0	2.5	/experiments/Knapen_AOT/AOT_stimuli/rescaled_final/0849_rv.mp4	0.0	377.42139053344727	
82	342.89296293258667	movie	1		285	80.0	2.5	/experiments/Knapen_AOT/AOT_stimuli/rescaled_final/0849_rv.mp4	0.0	377.437917470932	2.5003392696380615
82	344.47551798820496	pulse	1	t		80.0	2.5	/experiments/Knapen_AOT/AOT_stimuli/rescaled_final/0849_rv.mp4	0.0	379.0204725265503	
82	345.39330220222473	fix_post	2		12	80.0	2.5	/experiments/Knapen_AOT/AOT_stimuli/rescaled_final/0849_rv.mp4	0.0	379.93825674057007	0.10010147094726562
83	345.493403673172	fix_pre	0		120	81.0	2.5	/experiments/Knapen_AOT/AOT_stimuli/rescaled_final/0699_rv.mp4	0.0	380.03835821151733	1.008410930633545
83	346.07708287239075	pulse	0	t		81.0	2.5	/experiments/Knapen_AOT/AOT_stimuli/rescaled_final/0699_rv.mp4	0.0	380.6220374107361	
83	346.50181460380554	movie	1		256	81.0	2.5	/experiments/Knapen_AOT/AOT_stimuli/rescaled_final/0699_rv.mp4	0.0	381.0467691421509	2.4920461177825928
83	347.6754174232483	pulse	1	t		81.0	2.5	/experiments/Knapen_AOT/AOT_stimuli/rescaled_final/0699_rv.mp4	0.0	382.2203719615936	
83	348.99386072158813	fix_post	2		12	81.0	2.5	/experiments/Knapen_AOT/AOT_stimuli/rescaled_final/0699_rv.mp4	0.0	383.5388152599335	0.10000729560852051
84	349.09386801719666	fix_pre	0		120	82.0	2.5	/experiments/Knapen_AOT/AOT_stimuli/rescaled_final/1314_fw.mp4	0.0	383.638822555542	1.0085296630859375
84	349.2705645561218	pulse	0	t		82.0	2.5	/experiments/Knapen_AOT/AOT_stimuli/rescaled_final/1314_fw.mp4	0.0	383.81551909446716	
84	350.1023976802826	movie	1		271	82.0	2.5	/experiments/Knapen_AOT/AOT_stimuli/rescaled_final/1314_fw.mp4	0.0	384.64735221862793	2.4919991493225098
84	350.8696491718292	pulse	1	t		82.0	2.5	/experiments/Knapen_AOT/AOT_stimuli/rescaled_final/1314_fw.mp4	0.0	385.41460371017456	
84	352.4697413444519	pulse	1	t		82.0	2.5	/experiments/Knapen_AOT/AOT_stimuli/rescaled_final/1314_fw.mp4	0.0	387.01469588279724	
84	352.5943968296051	fix_post	2		12	82.0	2.5	/experiments/Knapen_AOT/AOT_stimuli/rescaled_final/1314_fw.mp4	0.0	387.13935136795044	0.10005068778991699
85	352.694447517395	fix_pre	0		120	83.0	2.5	blank	1.0	387.23940205574036	1.0001254081726074
85	353.6945729255676	movie	1		300	83.0	2.5	blank	1.0	388.23952746391296	2.500364303588867
85	354.0698719024658	pulse	1	t		83.0	2.5	blank	1.0	388.61482644081116	
85	355.670184135437	pulse	1	t		83.0	2.5	blank	1.0	390.21513867378235	
85	356.1949372291565	fix_post	2		12	83.0	2.5	blank	1.0	390.73989176750183	0.09998774528503418
87	356.2949249744415	stim	0		1715					390.83987951278687	14.293832063674927
87	357.27042269706726	pulse	0	t						391.8153772354126	
87	358.87119126319885	pulse	0	t						393.4161458015442	
87	360.47118067741394	pulse	0	t						395.0161352157593	
87	362.07132053375244	pulse	0	t						396.6162750720978	
87	363.67188143730164	pulse	0	t						398.216835975647	
87	365.2717926502228	pulse	0	t						399.8167471885681	
87	366.87173199653625	pulse	0	t						401.4166865348816	
87	368.47226333618164	pulse	0	t						403.017217874527	
87	370.0723829269409	pulse	0	t						404.61733746528625	
