trial_nr	onset	event_type	phase	response	nr_frames	movie_index	movie_duration	movie_file	blank	onset_abs	duration
0	0.17482566833496094	stim	0		1					16.89651846885681	0.016650676727294922
0	0.18609142303466797	response	0	space						16.90778422355652	
1	0.19147634506225586	stim	0		4815					16.913169145584106	40.143200397491455
1	40.319451332092285	pulse	0	t						57.041144132614136	
1	40.33467674255371	stim	1		1714					57.05636954307556	14.298290491104126
1	41.91460204124451	pulse	1	t						58.63629484176636	
1	43.5148138999939	pulse	1	t						60.23650670051575	
1	45.11517834663391	pulse	1	t						61.83687114715576	
1	46.715298891067505	pulse	1	t						63.436991691589355	
1	48.307912826538086	pulse	1	t						65.02960562705994	
1	49.9079167842865	pulse	1	t						66.62960958480835	
1	51.508341789245605	pulse	1	t						68.23003458976746	
1	53.108267307281494	pulse	1	t						69.82996010780334	
2	54.63296723365784	fix_pre	0		10	0.0	2.5	/experiments/knapen_AOT/AOT_stimuli/rescaled_final/0616_fw.mp4	0.0	71.35466003417969	0.12517833709716797
2	54.70821738243103	pulse	0	t		0.0	2.5	/experiments/knapen_AOT/AOT_stimuli/rescaled_final/0616_fw.mp4	0.0	71.42991018295288	
2	54.758145570755005	movie	1		266	0.0	2.5	/experiments/knapen_AOT/AOT_stimuli/rescaled_final/0616_fw.mp4	0.0	71.47983837127686	2.466923236846924
2	56.30862545967102	pulse	1	t		0.0	2.5	/experiments/knapen_AOT/AOT_stimuli/rescaled_final/0616_fw.mp4	0.0	73.03031826019287	
2	57.22506880760193	fix_post	2		12	0.0	2.5	/experiments/knapen_AOT/AOT_stimuli/rescaled_final/0616_fw.mp4	0.0	73.94676160812378	0.10000228881835938
3	57.32507109642029	fix_pre	0		120	1.0	2.5	/experiments/knapen_AOT/AOT_stimuli/rescaled_final/1526_rv.mp4	0.0	74.04676389694214	1.0087106227874756
3	57.90891623497009	pulse	0	t		1.0	2.5	/experiments/knapen_AOT/AOT_stimuli/rescaled_final/1526_rv.mp4	0.0	74.63060903549194	
3	58.333781719207764	movie	1		265	1.0	2.5	/experiments/knapen_AOT/AOT_stimuli/rescaled_final/1526_rv.mp4	0.0	75.05547451972961	2.491847515106201
3	59.50923180580139	pulse	1	t		1.0	2.5	/experiments/knapen_AOT/AOT_stimuli/rescaled_final/1526_rv.mp4	0.0	76.23092460632324	
3	60.825629234313965	fix_post	2		12	1.0	2.5	/experiments/knapen_AOT/AOT_stimuli/rescaled_final/1526_rv.mp4	0.0	77.54732203483582	0.09997057914733887
4	60.925599813461304	fix_pre	0		120	2.0	2.5	/experiments/knapen_AOT/AOT_stimuli/rescaled_final/1269_fw.mp4	0.0	77.64729261398315	1.0084848403930664
4	61.10917377471924	pulse	0	t		2.0	2.5	/experiments/knapen_AOT/AOT_stimuli/rescaled_final/1269_fw.mp4	0.0	77.83086657524109	
4	61.93408465385437	movie	1		254	2.0	2.5	/experiments/knapen_AOT/AOT_stimuli/rescaled_final/1269_fw.mp4	0.0	78.65577745437622	2.492009162902832
4	62.709147691726685	pulse	1	t		2.0	2.5	/experiments/knapen_AOT/AOT_stimuli/rescaled_final/1269_fw.mp4	0.0	79.43084049224854	
4	64.3098087310791	pulse	1	t		2.0	2.5	/experiments/knapen_AOT/AOT_stimuli/rescaled_final/1269_fw.mp4	0.0	81.03150153160095	
4	64.4260938167572	fix_post	2		12	2.0	2.5	/experiments/knapen_AOT/AOT_stimuli/rescaled_final/1269_fw.mp4	0.0	81.14778661727905	0.1000511646270752
5	64.52614498138428	fix_pre	0		120	3.0	2.5	/experiments/knapen_AOT/AOT_stimuli/rescaled_final/2120_rv.mp4	0.0	81.24783778190613	1.0084834098815918
5	65.53462839126587	movie	1		271	3.0	2.5	/experiments/knapen_AOT/AOT_stimuli/rescaled_final/2120_rv.mp4	0.0	82.25632119178772	2.4920201301574707
5	65.91018605232239	pulse	1	t		3.0	2.5	/experiments/knapen_AOT/AOT_stimuli/rescaled_final/2120_rv.mp4	0.0	82.63187885284424	
5	67.5101306438446	pulse	1	t		3.0	2.5	/experiments/knapen_AOT/AOT_stimuli/rescaled_final/2120_rv.mp4	0.0	84.23182344436646	
5	68.02664852142334	fix_post	2		12	3.0	2.5	/experiments/knapen_AOT/AOT_stimuli/rescaled_final/2120_rv.mp4	0.0	84.74834132194519	0.10002017021179199
6	68.12666869163513	fix_pre	0		119	4.0	2.5	/experiments/knapen_AOT/AOT_stimuli/rescaled_final/0826_fw.mp4	0.0	84.84836149215698	1.0001559257507324
6	69.11039710044861	pulse	0	t		4.0	2.5	/experiments/knapen_AOT/AOT_stimuli/rescaled_final/0826_fw.mp4	0.0	85.83208990097046	
6	69.12682461738586	movie	1		291	4.0	2.5	/experiments/knapen_AOT/AOT_stimuli/rescaled_final/0826_fw.mp4	0.0	85.84851741790771	2.5003886222839355
6	70.7086992263794	pulse	1	t		4.0	2.5	/experiments/knapen_AOT/AOT_stimuli/rescaled_final/0826_fw.mp4	0.0	87.43039202690125	
6	71.6272132396698	fix_post	2		12	4.0	2.5	/experiments/knapen_AOT/AOT_stimuli/rescaled_final/0826_fw.mp4	0.0	88.34890604019165	0.10006356239318848
7	71.72727680206299	fix_pre	0		120	5.0	2.5	/experiments/knapen_AOT/AOT_stimuli/rescaled_final/1059_rv.mp4	0.0	88.44896960258484	1.0084254741668701
7	72.31094598770142	pulse	0	t		5.0	2.5	/experiments/knapen_AOT/AOT_stimuli/rescaled_final/1059_rv.mp4	0.0	89.03263878822327	
7	72.73570227622986	movie	1		276	5.0	2.5	/experiments/knapen_AOT/AOT_stimuli/rescaled_final/1059_rv.mp4	0.0	89.45739507675171	2.4920220375061035
7	73.91008400917053	pulse	1	t		5.0	2.5	/experiments/knapen_AOT/AOT_stimuli/rescaled_final/1059_rv.mp4	0.0	90.63177680969238	
7	75.22772431373596	fix_post	2		12	5.0	2.5	/experiments/knapen_AOT/AOT_stimuli/rescaled_final/1059_rv.mp4	0.0	91.94941711425781	0.10004401206970215
8	75.32776832580566	fix_pre	0		120	6.0	2.5	blank	1.0	92.04946112632751	1.0001327991485596
8	75.51134848594666	pulse	0	t		6.0	2.5	blank	1.0	92.2330412864685	
8	76.32790112495422	movie	1		300	6.0	2.5	blank	1.0	93.04959392547607	2.5003504753112793
8	77.11155867576599	pulse	1	t		6.0	2.5	blank	1.0	93.83325147628784	
8	78.7117760181427	pulse	1	t		6.0	2.5	blank	1.0	95.43346881866455	
8	78.8282516002655	fix_post	2		12	6.0	2.5	blank	1.0	95.54994440078735	0.10005497932434082
9	78.92830657958984	fix_pre	0		120	7.0	2.5	/experiments/knapen_AOT/AOT_stimuli/rescaled_final/1242_fw.mp4	0.0	95.6499993801117	1.0084929466247559
9	79.9367995262146	movie	1		271	7.0	2.5	/experiments/knapen_AOT/AOT_stimuli/rescaled_final/1242_fw.mp4	0.0	96.65849232673645	2.492058515548706
9	80.31088852882385	pulse	1	t		7.0	2.5	/experiments/knapen_AOT/AOT_stimuli/rescaled_final/1242_fw.mp4	0.0	97.0325813293457	
9	81.91004061698914	pulse	1	t		7.0	2.5	/experiments/knapen_AOT/AOT_stimuli/rescaled_final/1242_fw.mp4	0.0	98.63173341751099	
9	82.4288580417633	fix_post	2		12	7.0	2.5	/experiments/knapen_AOT/AOT_stimuli/rescaled_final/1242_fw.mp4	0.0	99.15055084228516	0.09997677803039551
10	82.5288348197937	fix_pre	0		119	8.0	2.5	/experiments/knapen_AOT/AOT_stimuli/rescaled_final/0591_fw.mp4	0.0	99.25052762031555	1.0001471042633057
10	83.51251578330994	pulse	0	t		8.0	2.5	/experiments/knapen_AOT/AOT_stimuli/rescaled_final/0591_fw.mp4	0.0	100.23420858383179	
10	83.528981924057	movie	1		268	8.0	2.5	/experiments/knapen_AOT/AOT_stimuli/rescaled_final/0591_fw.mp4	0.0	100.25067472457886	2.5003819465637207
10	85.11132621765137	pulse	1	t		8.0	2.5	/experiments/knapen_AOT/AOT_stimuli/rescaled_final/0591_fw.mp4	0.0	101.83301901817322	
10	86.02936387062073	fix_post	2		12	8.0	2.5	/experiments/knapen_AOT/AOT_stimuli/rescaled_final/0591_fw.mp4	0.0	102.75105667114258	0.1000053882598877
11	86.12936925888062	fix_pre	0		120	9.0	2.5	/experiments/knapen_AOT/AOT_stimuli/rescaled_final/0030_rv.mp4	0.0	102.85106205940247	1.008448839187622
11	86.71301913261414	pulse	0	t		9.0	2.5	/experiments/knapen_AOT/AOT_stimuli/rescaled_final/0030_rv.mp4	0.0	103.43471193313599	
11	87.13781809806824	movie	1		270	9.0	2.5	/experiments/knapen_AOT/AOT_stimuli/rescaled_final/0030_rv.mp4	0.0	103.85951089859009	2.4921066761016846
11	88.31342053413391	pulse	1	t		9.0	2.5	/experiments/knapen_AOT/AOT_stimuli/rescaled_final/0030_rv.mp4	0.0	105.03511333465576	
11	89.62992477416992	fix_post	2		12	9.0	2.5	/experiments/knapen_AOT/AOT_stimuli/rescaled_final/0030_rv.mp4	0.0	106.35161757469177	0.09998011589050293
12	89.72990489006042	fix_pre	0		120	10.0	2.5	/experiments/knapen_AOT/AOT_stimuli/rescaled_final/2174_rv.mp4	0.0	106.45159769058228	1.0085232257843018
12	89.91356134414673	pulse	0	t		10.0	2.5	/experiments/knapen_AOT/AOT_stimuli/rescaled_final/2174_rv.mp4	0.0	106.63525414466858	
12	90.73842811584473	movie	1		270	10.0	2.5	/experiments/knapen_AOT/AOT_stimuli/rescaled_final/2174_rv.mp4	0.0	107.46012091636658	2.492015838623047
12	91.51159119606018	pulse	1	t		10.0	2.5	/experiments/knapen_AOT/AOT_stimuli/rescaled_final/2174_rv.mp4	0.0	108.23328399658203	
12	93.11173582077026	pulse	1	t		10.0	2.5	/experiments/knapen_AOT/AOT_stimuli/rescaled_final/2174_rv.mp4	0.0	109.83342862129211	
12	93.23044395446777	fix_post	2		12	10.0	2.5	/experiments/knapen_AOT/AOT_stimuli/rescaled_final/2174_rv.mp4	0.0	109.95213675498962	0.10002303123474121
13	93.33046698570251	fix_pre	0		120	11.0	2.5	/experiments/knapen_AOT/AOT_stimuli/rescaled_final/0816_fw.mp4	0.0	110.05215978622437	1.0084896087646484
13	94.33895659446716	movie	1		277	11.0	2.5	/experiments/knapen_AOT/AOT_stimuli/rescaled_final/0816_fw.mp4	0.0	111.06064939498901	2.4920356273651123
13	94.71242594718933	pulse	1	t		11.0	2.5	/experiments/knapen_AOT/AOT_stimuli/rescaled_final/0816_fw.mp4	0.0	111.43411874771118	
13	96.31235766410828	pulse	1	t		11.0	2.5	/experiments/knapen_AOT/AOT_stimuli/rescaled_final/0816_fw.mp4	0.0	113.03405046463013	
13	96.83099222183228	fix_post	2		12	11.0	2.5	/experiments/knapen_AOT/AOT_stimuli/rescaled_final/0816_fw.mp4	0.0	113.55268502235413	0.10007834434509277
14	96.93107056617737	fix_pre	0		119	12.0	2.5	/experiments/knapen_AOT/AOT_stimuli/rescaled_final/2044_fw.mp4	0.0	113.65276336669922	1.0001327991485596
14	97.91468000411987	pulse	0	t		12.0	2.5	/experiments/knapen_AOT/AOT_stimuli/rescaled_final/2044_fw.mp4	0.0	114.63637280464172	
14	97.93120336532593	movie	1		282	12.0	2.5	/experiments/knapen_AOT/AOT_stimuli/rescaled_final/2044_fw.mp4	0.0	114.65289616584778	2.500347375869751
14	99.51333928108215	pulse	1	t		12.0	2.5	/experiments/knapen_AOT/AOT_stimuli/rescaled_final/2044_fw.mp4	0.0	116.235032081604	
14	100.43155074119568	fix_post	2		12	12.0	2.5	/experiments/knapen_AOT/AOT_stimuli/rescaled_final/2044_fw.mp4	0.0	117.15324354171753	0.09999585151672363
15	100.5315465927124	fix_pre	0		120	13.0	2.5	/experiments/knapen_AOT/AOT_stimuli/rescaled_final/0121_fw.mp4	0.0	117.25323939323425	1.0084753036499023
15	101.10779213905334	pulse	0	t		13.0	2.5	/experiments/knapen_AOT/AOT_stimuli/rescaled_final/0121_fw.mp4	0.0	117.8294849395752	
15	101.5400218963623	movie	1		275	13.0	2.5	/experiments/knapen_AOT/AOT_stimuli/rescaled_final/0121_fw.mp4	0.0	118.26171469688416	2.4920830726623535
15	102.70733976364136	pulse	1	t		13.0	2.5	/experiments/knapen_AOT/AOT_stimuli/rescaled_final/0121_fw.mp4	0.0	119.42903256416321	
15	104.03210496902466	fix_post	2		12	13.0	2.5	/experiments/knapen_AOT/AOT_stimuli/rescaled_final/0121_fw.mp4	0.0	120.75379776954651	0.10001492500305176
16	104.13211989402771	fix_pre	0		120	14.0	2.5	blank	1.0	120.85381269454956	1.0000996589660645
16	104.3077392578125	pulse	0	t		14.0	2.5	blank	1.0	121.02943205833435	
16	105.13221955299377	movie	1		300	14.0	2.5	blank	1.0	121.85391235351562	2.5003809928894043
16	105.90756750106812	pulse	1	t		14.0	2.5	blank	1.0	122.62926030158997	
16	107.50781226158142	pulse	1	t		14.0	2.5	blank	1.0	124.22950506210327	
16	107.63260054588318	fix_post	2		12	14.0	2.5	blank	1.0	124.35429334640503	0.10010623931884766
17	107.73270678520203	fix_pre	0		120	15.0	2.5	/experiments/knapen_AOT/AOT_stimuli/rescaled_final/1281_rv.mp4	0.0	124.45439958572388	1.0084228515625
17	108.74112963676453	movie	1		272	15.0	2.5	/experiments/knapen_AOT/AOT_stimuli/rescaled_final/1281_rv.mp4	0.0	125.46282243728638	2.492037773132324
17	109.10803961753845	pulse	1	t		15.0	2.5	/experiments/knapen_AOT/AOT_stimuli/rescaled_final/1281_rv.mp4	0.0	125.8297324180603	
17	110.70843887329102	pulse	1	t		15.0	2.5	/experiments/knapen_AOT/AOT_stimuli/rescaled_final/1281_rv.mp4	0.0	127.43013167381287	
17	111.23316740989685	fix_post	2		12	15.0	2.5	/experiments/knapen_AOT/AOT_stimuli/rescaled_final/1281_rv.mp4	0.0	127.9548602104187	0.09999513626098633
18	111.33316254615784	fix_pre	0		118	16.0	2.5	/experiments/knapen_AOT/AOT_stimuli/rescaled_final/0527_rv.mp4	0.0	128.0548553466797	0.9918577671051025
18	112.30851316452026	pulse	0	t		16.0	2.5	/experiments/knapen_AOT/AOT_stimuli/rescaled_final/0527_rv.mp4	0.0	129.03020596504211	
18	112.32502031326294	movie	1		280	16.0	2.5	/experiments/knapen_AOT/AOT_stimuli/rescaled_final/0527_rv.mp4	0.0	129.0467131137848	2.5003480911254883
18	113.90751218795776	pulse	1	t		16.0	2.5	/experiments/knapen_AOT/AOT_stimuli/rescaled_final/0527_rv.mp4	0.0	130.62920498847961	
18	114.82536840438843	fix_post	2		12	16.0	2.5	/experiments/knapen_AOT/AOT_stimuli/rescaled_final/0527_rv.mp4	0.0	131.54706120491028	0.10002374649047852
19	114.9253921508789	fix_pre	0		120	17.0	2.5	/experiments/knapen_AOT/AOT_stimuli/rescaled_final/1214_rv.mp4	0.0	131.64708495140076	1.0084891319274902
19	115.50912141799927	pulse	0	t		17.0	2.5	/experiments/knapen_AOT/AOT_stimuli/rescaled_final/1214_rv.mp4	0.0	132.23081421852112	
19	115.9338812828064	movie	1		274	17.0	2.5	/experiments/knapen_AOT/AOT_stimuli/rescaled_final/1214_rv.mp4	0.0	132.65557408332825	2.4920177459716797
19	117.10803723335266	pulse	1	t		17.0	2.5	/experiments/knapen_AOT/AOT_stimuli/rescaled_final/1214_rv.mp4	0.0	133.8297300338745	
19	118.42589902877808	fix_post	2		12	17.0	2.5	/experiments/knapen_AOT/AOT_stimuli/rescaled_final/1214_rv.mp4	0.0	135.14759182929993	0.10000872611999512
20	118.52590775489807	fix_pre	0		120	18.0	2.5	/experiments/knapen_AOT/AOT_stimuli/rescaled_final/1336_rv.mp4	0.0	135.24760055541992	1.0085117816925049
20	118.70950055122375	pulse	0	t		18.0	2.5	/experiments/knapen_AOT/AOT_stimuli/rescaled_final/1336_rv.mp4	0.0	135.4311933517456	
20	119.53441953659058	movie	1		270	18.0	2.5	/experiments/knapen_AOT/AOT_stimuli/rescaled_final/1336_rv.mp4	0.0	136.25611233711243	2.492018222808838
20	120.3091208934784	pulse	1	t		18.0	2.5	/experiments/knapen_AOT/AOT_stimuli/rescaled_final/1336_rv.mp4	0.0	137.03081369400024	
20	121.91014838218689	pulse	1	t		18.0	2.5	/experiments/knapen_AOT/AOT_stimuli/rescaled_final/1336_rv.mp4	0.0	138.63184118270874	
20	122.02643775939941	fix_post	2		12	18.0	2.5	/experiments/knapen_AOT/AOT_stimuli/rescaled_final/1336_rv.mp4	0.0	138.74813055992126	0.10000300407409668
21	122.12644076347351	fix_pre	0		120	19.0	2.5	/experiments/knapen_AOT/AOT_stimuli/rescaled_final/1788_rv.mp4	0.0	138.84813356399536	1.0085506439208984
21	123.13499140739441	movie	1		282	19.0	2.5	/experiments/knapen_AOT/AOT_stimuli/rescaled_final/1788_rv.mp4	0.0	139.85668420791626	2.500323534011841
21	123.51034307479858	pulse	1	t		19.0	2.5	/experiments/knapen_AOT/AOT_stimuli/rescaled_final/1788_rv.mp4	0.0	140.23203587532043	
21	125.1085250377655	pulse	1	t		19.0	2.5	/experiments/knapen_AOT/AOT_stimuli/rescaled_final/1788_rv.mp4	0.0	141.83021783828735	
21	125.63531494140625	fix_post	2		11	19.0	2.5	/experiments/knapen_AOT/AOT_stimuli/rescaled_final/1788_rv.mp4	0.0	142.3570077419281	0.09167838096618652
22	125.72699332237244	fix_pre	0		119	20.0	2.5	/experiments/knapen_AOT/AOT_stimuli/rescaled_final/0892_fw.mp4	0.0	142.4486861228943	1.0001614093780518
22	126.71098589897156	pulse	0	t		20.0	2.5	/experiments/knapen_AOT/AOT_stimuli/rescaled_final/0892_fw.mp4	0.0	143.4326786994934	
22	126.72715473175049	movie	1		275	20.0	2.5	/experiments/knapen_AOT/AOT_stimuli/rescaled_final/0892_fw.mp4	0.0	143.44884753227234	2.500365972518921
22	128.3109529018402	pulse	1	t		20.0	2.5	/experiments/knapen_AOT/AOT_stimuli/rescaled_final/0892_fw.mp4	0.0	145.03264570236206	
22	129.2275207042694	fix_post	2		12	20.0	2.5	/experiments/knapen_AOT/AOT_stimuli/rescaled_final/0892_fw.mp4	0.0	145.94921350479126	0.10001945495605469
23	129.32754015922546	fix_pre	0		120	21.0	2.5	blank	1.0	146.04923295974731	1.0001537799835205
23	129.91129684448242	pulse	0	t		21.0	2.5	blank	1.0	146.63298964500427	
23	130.32769393920898	movie	1		300	21.0	2.5	blank	1.0	147.04938673973083	2.500370740890503
23	131.51145768165588	pulse	1	t		21.0	2.5	blank	1.0	148.23315048217773	
23	132.8280646800995	fix_post	2		12	21.0	2.5	blank	1.0	149.54975748062134	0.10002946853637695
24	132.92809414863586	fix_pre	0		120	22.0	2.5	/experiments/knapen_AOT/AOT_stimuli/rescaled_final/0229_fw.mp4	0.0	149.64978694915771	1.008502721786499
24	133.11163306236267	pulse	0	t		22.0	2.5	/experiments/knapen_AOT/AOT_stimuli/rescaled_final/0229_fw.mp4	0.0	149.83332586288452	
24	133.93659687042236	movie	1		270	22.0	2.5	/experiments/knapen_AOT/AOT_stimuli/rescaled_final/0229_fw.mp4	0.0	150.6582896709442	2.492006540298462
24	134.71210432052612	pulse	1	t		22.0	2.5	/experiments/knapen_AOT/AOT_stimuli/rescaled_final/0229_fw.mp4	0.0	151.43379712104797	
24	136.31032037734985	pulse	1	t		22.0	2.5	/experiments/knapen_AOT/AOT_stimuli/rescaled_final/0229_fw.mp4	0.0	153.0320131778717	
24	136.42860341072083	fix_post	2		12	22.0	2.5	/experiments/knapen_AOT/AOT_stimuli/rescaled_final/0229_fw.mp4	0.0	153.15029621124268	0.10001683235168457
25	136.5286202430725	fix_pre	0		120	23.0	2.5	/experiments/knapen_AOT/AOT_stimuli/rescaled_final/0515_rv.mp4	0.0	153.25031304359436	1.0085928440093994
25	137.5372130870819	movie	1		271	23.0	2.5	/experiments/knapen_AOT/AOT_stimuli/rescaled_final/0515_rv.mp4	0.0	154.25890588760376	2.4919400215148926
25	137.91188097000122	pulse	1	t		23.0	2.5	/experiments/knapen_AOT/AOT_stimuli/rescaled_final/0515_rv.mp4	0.0	154.63357377052307	
25	139.51277947425842	pulse	1	t		23.0	2.5	/experiments/knapen_AOT/AOT_stimuli/rescaled_final/0515_rv.mp4	0.0	156.23447227478027	
25	140.0291531085968	fix_post	2		12	23.0	2.5	/experiments/knapen_AOT/AOT_stimuli/rescaled_final/0515_rv.mp4	0.0	156.75084590911865	0.10002899169921875
26	140.12918210029602	fix_pre	0		119	24.0	2.5	/experiments/knapen_AOT/AOT_stimuli/rescaled_final/1798_rv.mp4	0.0	156.85087490081787	1.0001299381256104
26	141.11283946037292	pulse	0	t		24.0	2.5	/experiments/knapen_AOT/AOT_stimuli/rescaled_final/1798_rv.mp4	0.0	157.83453226089478	
26	141.12931203842163	movie	1		273	24.0	2.5	/experiments/knapen_AOT/AOT_stimuli/rescaled_final/1798_rv.mp4	0.0	157.85100483894348	2.500365972518921
26	142.71365523338318	pulse	1	t		24.0	2.5	/experiments/knapen_AOT/AOT_stimuli/rescaled_final/1798_rv.mp4	0.0	159.43534803390503	
26	143.62967801094055	fix_post	2		12	24.0	2.5	/experiments/knapen_AOT/AOT_stimuli/rescaled_final/1798_rv.mp4	0.0	160.3513708114624	0.10002255439758301
27	143.72970056533813	fix_pre	0		120	25.0	2.5	/experiments/knapen_AOT/AOT_stimuli/rescaled_final/2138_rv.mp4	0.0	160.45139336585999	1.0084998607635498
27	144.31340670585632	pulse	0	t		25.0	2.5	/experiments/knapen_AOT/AOT_stimuli/rescaled_final/2138_rv.mp4	0.0	161.03509950637817	
27	144.73820042610168	movie	1		281	25.0	2.5	/experiments/knapen_AOT/AOT_stimuli/rescaled_final/2138_rv.mp4	0.0	161.45989322662354	2.5004074573516846
27	145.91196751594543	pulse	1	t		25.0	2.5	/experiments/knapen_AOT/AOT_stimuli/rescaled_final/2138_rv.mp4	0.0	162.63366031646729	
27	147.23860788345337	fix_post	2		11	25.0	2.5	/experiments/knapen_AOT/AOT_stimuli/rescaled_final/2138_rv.mp4	0.0	163.96030068397522	0.0916140079498291
28	147.3302218914032	fix_pre	0		120	26.0	2.5	/experiments/knapen_AOT/AOT_stimuli/rescaled_final/1475_fw.mp4	0.0	164.05191469192505	1.0085294246673584
28	147.51384472846985	pulse	0	t		26.0	2.5	/experiments/knapen_AOT/AOT_stimuli/rescaled_final/1475_fw.mp4	0.0	164.2355375289917	
28	148.33875131607056	movie	1		276	26.0	2.5	/experiments/knapen_AOT/AOT_stimuli/rescaled_final/1475_fw.mp4	0.0	165.0604441165924	2.4920620918273926
28	149.11202239990234	pulse	1	t		26.0	2.5	/experiments/knapen_AOT/AOT_stimuli/rescaled_final/1475_fw.mp4	0.0	165.8337152004242	
28	150.71233320236206	pulse	1	t		26.0	2.5	/experiments/knapen_AOT/AOT_stimuli/rescaled_final/1475_fw.mp4	0.0	167.4340260028839	
28	150.83081340789795	fix_post	2		12	26.0	2.5	/experiments/knapen_AOT/AOT_stimuli/rescaled_final/1475_fw.mp4	0.0	167.5525062084198	0.09995245933532715
29	150.93076586723328	fix_pre	0		120	27.0	2.5	/experiments/knapen_AOT/AOT_stimuli/rescaled_final/0880_fw.mp4	0.0	167.65245866775513	1.0085749626159668
29	151.93934082984924	movie	1		284	27.0	2.5	/experiments/knapen_AOT/AOT_stimuli/rescaled_final/0880_fw.mp4	0.0	168.6610336303711	2.492035388946533
29	152.3129141330719	pulse	1	t		27.0	2.5	/experiments/knapen_AOT/AOT_stimuli/rescaled_final/0880_fw.mp4	0.0	169.03460693359375	
29	153.91278839111328	pulse	1	t		27.0	2.5	/experiments/knapen_AOT/AOT_stimuli/rescaled_final/0880_fw.mp4	0.0	170.63448119163513	
29	154.43137621879578	fix_post	2		12	27.0	2.5	/experiments/knapen_AOT/AOT_stimuli/rescaled_final/0880_fw.mp4	0.0	171.15306901931763	0.09994816780090332
30	154.53132438659668	fix_pre	0		119	28.0	2.5	blank	1.0	171.25301718711853	0.9917933940887451
30	155.5150592327118	pulse	0	t		28.0	2.5	blank	1.0	172.23675203323364	
30	155.52311778068542	movie	1		301	28.0	2.5	blank	1.0	172.24481058120728	2.508725166320801
30	157.11523008346558	pulse	1	t		28.0	2.5	blank	1.0	173.83692288398743	
30	158.03184294700623	fix_post	2		12	28.0	2.5	blank	1.0	174.75353574752808	0.10008597373962402
31	158.13192892074585	fix_pre	0		120	29.0	2.5	/experiments/knapen_AOT/AOT_stimuli/rescaled_final/1765_fw.mp4	0.0	174.8536217212677	1.0084257125854492
31	158.7155246734619	pulse	0	t		29.0	2.5	/experiments/knapen_AOT/AOT_stimuli/rescaled_final/1765_fw.mp4	0.0	175.43721747398376	
31	159.1403546333313	movie	1		290	29.0	2.5	/experiments/knapen_AOT/AOT_stimuli/rescaled_final/1765_fw.mp4	0.0	175.86204743385315	2.4920496940612793
31	160.31378269195557	pulse	1	t		29.0	2.5	/experiments/knapen_AOT/AOT_stimuli/rescaled_final/1765_fw.mp4	0.0	177.03547549247742	
31	161.63240432739258	fix_post	2		12	29.0	2.5	/experiments/knapen_AOT/AOT_stimuli/rescaled_final/1765_fw.mp4	0.0	178.35409712791443	0.09999799728393555
32	161.7324023246765	fix_pre	0		120	30.0	2.5	/experiments/knapen_AOT/AOT_stimuli/rescaled_final/1612_rv.mp4	0.0	178.45409512519836	1.0085208415985107
32	161.907856464386	pulse	0	t		30.0	2.5	/experiments/knapen_AOT/AOT_stimuli/rescaled_final/1612_rv.mp4	0.0	178.62954926490784	
32	162.74092316627502	movie	1		276	30.0	2.5	/experiments/knapen_AOT/AOT_stimuli/rescaled_final/1612_rv.mp4	0.0	179.46261596679688	2.4920156002044678
32	163.5078568458557	pulse	1	t		30.0	2.5	/experiments/knapen_AOT/AOT_stimuli/rescaled_final/1612_rv.mp4	0.0	180.22954964637756	
32	165.10820651054382	pulse	1	t		30.0	2.5	/experiments/knapen_AOT/AOT_stimuli/rescaled_final/1612_rv.mp4	0.0	181.82989931106567	
32	165.2329387664795	fix_post	2		12	30.0	2.5	/experiments/knapen_AOT/AOT_stimuli/rescaled_final/1612_rv.mp4	0.0	181.95463156700134	0.1000220775604248
33	165.33296084403992	fix_pre	0		120	31.0	2.5	/experiments/knapen_AOT/AOT_stimuli/rescaled_final/2120_rv.mp4	0.0	182.05465364456177	1.008479118347168
33	166.34143996238708	movie	1		288	31.0	2.5	/experiments/knapen_AOT/AOT_stimuli/rescaled_final/2120_rv.mp4	0.0	183.06313276290894	2.4920432567596436
33	166.7087287902832	pulse	1	t		31.0	2.5	/experiments/knapen_AOT/AOT_stimuli/rescaled_final/2120_rv.mp4	0.0	183.43042159080505	
33	168.3086075782776	pulse	1	t		31.0	2.5	/experiments/knapen_AOT/AOT_stimuli/rescaled_final/2120_rv.mp4	0.0	185.03030037879944	
33	168.83348321914673	fix_post	2		12	31.0	2.5	/experiments/knapen_AOT/AOT_stimuli/rescaled_final/2120_rv.mp4	0.0	185.55517601966858	0.10002279281616211
34	168.9335060119629	fix_pre	0		118	32.0	2.5	/experiments/knapen_AOT/AOT_stimuli/rescaled_final/0189_rv.mp4	0.0	185.65519881248474	0.9918322563171387
34	169.90887141227722	pulse	0	t		32.0	2.5	/experiments/knapen_AOT/AOT_stimuli/rescaled_final/0189_rv.mp4	0.0	186.63056421279907	
34	169.92533826828003	movie	1		272	32.0	2.5	/experiments/knapen_AOT/AOT_stimuli/rescaled_final/0189_rv.mp4	0.0	186.64703106880188	2.500338077545166
34	171.5078649520874	pulse	1	t		32.0	2.5	/experiments/knapen_AOT/AOT_stimuli/rescaled_final/0189_rv.mp4	0.0	188.22955775260925	
34	172.4256763458252	fix_post	2		12	32.0	2.5	/experiments/knapen_AOT/AOT_stimuli/rescaled_final/0189_rv.mp4	0.0	189.14736914634705	0.10002279281616211
35	172.52569913864136	fix_pre	0		120	33.0	2.5	/experiments/knapen_AOT/AOT_stimuli/rescaled_final/1160_rv.mp4	0.0	189.2473919391632	1.0084960460662842
35	173.1093933582306	pulse	0	t		33.0	2.5	/experiments/knapen_AOT/AOT_stimuli/rescaled_final/1160_rv.mp4	0.0	189.83108615875244	
35	173.53419518470764	movie	1		276	33.0	2.5	/experiments/knapen_AOT/AOT_stimuli/rescaled_final/1160_rv.mp4	0.0	190.2558879852295	2.492027997970581
35	174.70960021018982	pulse	1	t		33.0	2.5	/experiments/knapen_AOT/AOT_stimuli/rescaled_final/1160_rv.mp4	0.0	191.43129301071167	
35	176.02622318267822	fix_post	2		12	33.0	2.5	/experiments/knapen_AOT/AOT_stimuli/rescaled_final/1160_rv.mp4	0.0	192.74791598320007	0.10001778602600098
36	176.12624096870422	fix_pre	0		120	34.0	2.5	blank	1.0	192.84793376922607	1.0001440048217773
36	176.3097972869873	pulse	0	t		34.0	2.5	blank	1.0	193.03149008750916	
36	177.126384973526	movie	1		300	34.0	2.5	blank	1.0	193.84807777404785	2.5003678798675537
36	177.910058259964	pulse	1	t		34.0	2.5	blank	1.0	194.63175106048584	
36	179.5102834701538	pulse	1	t		34.0	2.5	blank	1.0	196.23197627067566	
36	179.62675285339355	fix_post	2		12	34.0	2.5	blank	1.0	196.3484456539154	0.10002589225769043
37	179.72677874565125	fix_pre	0		120	35.0	2.5	/experiments/knapen_AOT/AOT_stimuli/rescaled_final/0369_rv.mp4	0.0	196.4484715461731	1.0084993839263916
37	180.73527812957764	movie	1		276	35.0	2.5	/experiments/knapen_AOT/AOT_stimuli/rescaled_final/0369_rv.mp4	0.0	197.4569709300995	2.492021322250366
37	181.10887575149536	pulse	1	t		35.0	2.5	/experiments/knapen_AOT/AOT_stimuli/rescaled_final/0369_rv.mp4	0.0	197.8305685520172	
37	182.70864510536194	pulse	1	t		35.0	2.5	/experiments/knapen_AOT/AOT_stimuli/rescaled_final/0369_rv.mp4	0.0	199.4303379058838	
37	183.227299451828	fix_post	2		12	35.0	2.5	/experiments/knapen_AOT/AOT_stimuli/rescaled_final/0369_rv.mp4	0.0	199.94899225234985	0.10003423690795898
38	183.32733368873596	fix_pre	0		119	36.0	2.5	/experiments/knapen_AOT/AOT_stimuli/rescaled_final/1713_fw.mp4	0.0	200.0490264892578	1.0001466274261475
38	184.31107187271118	pulse	0	t		36.0	2.5	/experiments/knapen_AOT/AOT_stimuli/rescaled_final/1713_fw.mp4	0.0	201.03276467323303	
38	184.3274803161621	movie	1		277	36.0	2.5	/experiments/knapen_AOT/AOT_stimuli/rescaled_final/1713_fw.mp4	0.0	201.04917311668396	2.500399112701416
38	185.90967082977295	pulse	1	t		36.0	2.5	/experiments/knapen_AOT/AOT_stimuli/rescaled_final/1713_fw.mp4	0.0	202.6313636302948	
38	186.82787942886353	fix_post	2		12	36.0	2.5	/experiments/knapen_AOT/AOT_stimuli/rescaled_final/1713_fw.mp4	0.0	203.54957222938538	0.10003304481506348
39	186.9279124736786	fix_pre	0		120	37.0	2.5	/experiments/knapen_AOT/AOT_stimuli/rescaled_final/1214_fw.mp4	0.0	203.64960527420044	1.008453369140625
39	187.5115430355072	pulse	0	t		37.0	2.5	/experiments/knapen_AOT/AOT_stimuli/rescaled_final/1214_fw.mp4	0.0	204.23323583602905	
39	187.9363658428192	movie	1		283	37.0	2.5	/experiments/knapen_AOT/AOT_stimuli/rescaled_final/1214_fw.mp4	0.0	204.65805864334106	2.492018222808838
39	189.1112892627716	pulse	1	t		37.0	2.5	/experiments/knapen_AOT/AOT_stimuli/rescaled_final/1214_fw.mp4	0.0	205.83298206329346	
39	190.42838406562805	fix_post	2		12	37.0	2.5	/experiments/knapen_AOT/AOT_stimuli/rescaled_final/1214_fw.mp4	0.0	207.1500768661499	0.10000014305114746
40	190.5283842086792	fix_pre	0		120	38.0	2.5	/experiments/knapen_AOT/AOT_stimuli/rescaled_final/2145_rv.mp4	0.0	207.25007700920105	1.0084989070892334
40	190.71214890480042	pulse	0	t		38.0	2.5	/experiments/knapen_AOT/AOT_stimuli/rescaled_final/2145_rv.mp4	0.0	207.43384170532227	
40	191.53688311576843	movie	1		276	38.0	2.5	/experiments/knapen_AOT/AOT_stimuli/rescaled_final/2145_rv.mp4	0.0	208.25857591629028	2.4922049045562744
40	192.31228876113892	pulse	1	t		38.0	2.5	/experiments/knapen_AOT/AOT_stimuli/rescaled_final/2145_rv.mp4	0.0	209.03398156166077	
40	193.91030597686768	pulse	1	t		38.0	2.5	/experiments/knapen_AOT/AOT_stimuli/rescaled_final/2145_rv.mp4	0.0	210.63199877738953	
40	194.0290880203247	fix_post	2		12	38.0	2.5	/experiments/knapen_AOT/AOT_stimuli/rescaled_final/2145_rv.mp4	0.0	210.75078082084656	0.09985065460205078
41	194.12893867492676	fix_pre	0		120	39.0	2.5	/experiments/knapen_AOT/AOT_stimuli/rescaled_final/2096_fw.mp4	0.0	210.8506314754486	1.008664608001709
41	195.13760328292847	movie	1		282	39.0	2.5	/experiments/knapen_AOT/AOT_stimuli/rescaled_final/2096_fw.mp4	0.0	211.85929608345032	2.4920153617858887
41	195.51077795028687	pulse	1	t		39.0	2.5	/experiments/knapen_AOT/AOT_stimuli/rescaled_final/2096_fw.mp4	0.0	212.23247075080872	
41	197.11083555221558	pulse	1	t		39.0	2.5	/experiments/knapen_AOT/AOT_stimuli/rescaled_final/2096_fw.mp4	0.0	213.83252835273743	
41	197.62961864471436	fix_post	2		12	39.0	2.5	/experiments/knapen_AOT/AOT_stimuli/rescaled_final/2096_fw.mp4	0.0	214.3513114452362	0.09988284111022949
42	197.72950148582458	fix_pre	0		119	40.0	2.5	blank	1.0	214.45119428634644	0.991795539855957
42	198.71321773529053	pulse	0	t		40.0	2.5	blank	1.0	215.43491053581238	
42	198.72129702568054	movie	1		301	40.0	2.5	blank	1.0	215.4429898262024	2.50874924659729
42	200.3135154247284	pulse	1	t		40.0	2.5	blank	1.0	217.03520822525024	
42	201.23004627227783	fix_post	2		12	40.0	2.5	blank	1.0	217.95173907279968	0.09997963905334473
43	201.33002591133118	fix_pre	0		120	41.0	2.5	/experiments/knapen_AOT/AOT_stimuli/rescaled_final/0591_rv.mp4	0.0	218.05171871185303	1.0085060596466064
43	201.91372418403625	pulse	0	t		41.0	2.5	/experiments/knapen_AOT/AOT_stimuli/rescaled_final/0591_rv.mp4	0.0	218.6354169845581	
43	202.33853197097778	movie	1		274	41.0	2.5	/experiments/knapen_AOT/AOT_stimuli/rescaled_final/0591_rv.mp4	0.0	219.06022477149963	2.4920432567596436
43	203.51210141181946	pulse	1	t		41.0	2.5	/experiments/knapen_AOT/AOT_stimuli/rescaled_final/0591_rv.mp4	0.0	220.2337942123413	
43	204.83057522773743	fix_post	2		12	41.0	2.5	/experiments/knapen_AOT/AOT_stimuli/rescaled_final/0591_rv.mp4	0.0	221.55226802825928	0.10000181198120117
44	204.93057703971863	fix_pre	0		120	42.0	2.5	/experiments/knapen_AOT/AOT_stimuli/rescaled_final/1381_fw.mp4	0.0	221.65226984024048	1.0085320472717285
44	205.11420321464539	pulse	0	t		42.0	2.5	/experiments/knapen_AOT/AOT_stimuli/rescaled_final/1381_fw.mp4	0.0	221.83589601516724	
44	205.93910908699036	movie	1		278	42.0	2.5	/experiments/knapen_AOT/AOT_stimuli/rescaled_final/1381_fw.mp4	0.0	222.6608018875122	2.49198579788208
44	206.71251225471497	pulse	1	t		42.0	2.5	/experiments/knapen_AOT/AOT_stimuli/rescaled_final/1381_fw.mp4	0.0	223.43420505523682	
44	208.3127477169037	pulse	1	t		42.0	2.5	/experiments/knapen_AOT/AOT_stimuli/rescaled_final/1381_fw.mp4	0.0	225.03444051742554	
44	208.43109488487244	fix_post	2		12	42.0	2.5	/experiments/knapen_AOT/AOT_stimuli/rescaled_final/1381_fw.mp4	0.0	225.1527876853943	0.10003304481506348
45	208.5311279296875	fix_pre	0		120	43.0	2.5	/experiments/knapen_AOT/AOT_stimuli/rescaled_final/0510_rv.mp4	0.0	225.25282073020935	1.008453607559204
45	209.5395815372467	movie	1		279	43.0	2.5	/experiments/knapen_AOT/AOT_stimuli/rescaled_final/0510_rv.mp4	0.0	226.26127433776855	2.492048978805542
45	209.91304540634155	pulse	1	t		43.0	2.5	/experiments/knapen_AOT/AOT_stimuli/rescaled_final/0510_rv.mp4	0.0	226.6347382068634	
45	211.5131013393402	pulse	1	t		43.0	2.5	/experiments/knapen_AOT/AOT_stimuli/rescaled_final/0510_rv.mp4	0.0	228.23479413986206	
45	212.03163051605225	fix_post	2		12	43.0	2.5	/experiments/knapen_AOT/AOT_stimuli/rescaled_final/0510_rv.mp4	0.0	228.7533233165741	0.1000218391418457
46	212.1316523551941	fix_pre	0		119	44.0	2.5	/experiments/knapen_AOT/AOT_stimuli/rescaled_final/0083_rv.mp4	0.0	228.85334515571594	1.0001144409179688
46	213.11536383628845	pulse	0	t		44.0	2.5	/experiments/knapen_AOT/AOT_stimuli/rescaled_final/0083_rv.mp4	0.0	229.8370566368103	
46	213.13176679611206	movie	1		283	44.0	2.5	/experiments/knapen_AOT/AOT_stimuli/rescaled_final/0083_rv.mp4	0.0	229.8534595966339	2.5004281997680664
46	214.7139184474945	pulse	1	t		44.0	2.5	/experiments/knapen_AOT/AOT_stimuli/rescaled_final/0083_rv.mp4	0.0	231.43561124801636	
46	215.63219499588013	fix_post	2		12	44.0	2.5	/experiments/knapen_AOT/AOT_stimuli/rescaled_final/0083_rv.mp4	0.0	232.35388779640198	0.09999871253967285
47	215.7321937084198	fix_pre	0		120	45.0	2.5	/experiments/knapen_AOT/AOT_stimuli/rescaled_final/1035_rv.mp4	0.0	232.45388650894165	1.008497714996338
47	216.31601572036743	pulse	0	t		45.0	2.5	/experiments/knapen_AOT/AOT_stimuli/rescaled_final/1035_rv.mp4	0.0	233.03770852088928	
47	216.74069142341614	movie	1		287	45.0	2.5	/experiments/knapen_AOT/AOT_stimuli/rescaled_final/1035_rv.mp4	0.0	233.462384223938	2.492025136947632
47	217.91428518295288	pulse	1	t		45.0	2.5	/experiments/knapen_AOT/AOT_stimuli/rescaled_final/1035_rv.mp4	0.0	234.63597798347473	
47	219.23271656036377	fix_post	2		12	45.0	2.5	/experiments/knapen_AOT/AOT_stimuli/rescaled_final/1035_rv.mp4	0.0	235.95440936088562	0.10002565383911133
48	219.33274221420288	fix_pre	0		104	46.0	2.5	/experiments/knapen_AOT/AOT_stimuli/rescaled_final/0584_fw.mp4	0.0	236.05443501472473	1.0085415840148926
48	219.50827431678772	pulse	0	t		46.0	2.5	/experiments/knapen_AOT/AOT_stimuli/rescaled_final/0584_fw.mp4	0.0	236.22996711730957	
48	220.34128379821777	movie	1		283	46.0	2.5	/experiments/knapen_AOT/AOT_stimuli/rescaled_final/0584_fw.mp4	0.0	237.06297659873962	2.4919633865356445
48	221.10833191871643	pulse	1	t		46.0	2.5	/experiments/knapen_AOT/AOT_stimuli/rescaled_final/0584_fw.mp4	0.0	237.83002471923828	
48	222.70868468284607	pulse	1	t		46.0	2.5	/experiments/knapen_AOT/AOT_stimuli/rescaled_final/0584_fw.mp4	0.0	239.43037748336792	
48	222.83324718475342	fix_post	2		12	46.0	2.5	/experiments/knapen_AOT/AOT_stimuli/rescaled_final/0584_fw.mp4	0.0	239.55493998527527	0.10002779960632324
49	222.93327498435974	fix_pre	0		120	47.0	2.5	/experiments/knapen_AOT/AOT_stimuli/rescaled_final/1528_rv.mp4	0.0	239.6549677848816	1.008575677871704
49	223.94185066223145	movie	1		269	47.0	2.5	/experiments/knapen_AOT/AOT_stimuli/rescaled_final/1528_rv.mp4	0.0	240.6635434627533	2.4920003414154053
49	224.3087706565857	pulse	1	t		47.0	2.5	/experiments/knapen_AOT/AOT_stimuli/rescaled_final/1528_rv.mp4	0.0	241.03046345710754	
49	225.91008758544922	pulse	1	t		47.0	2.5	/experiments/knapen_AOT/AOT_stimuli/rescaled_final/1528_rv.mp4	0.0	242.63178038597107	
49	226.43385100364685	fix_post	2		12	47.0	2.5	/experiments/knapen_AOT/AOT_stimuli/rescaled_final/1528_rv.mp4	0.0	243.1555438041687	0.10001087188720703
50	226.53386187553406	fix_pre	0		118	48.0	2.5	blank	1.0	243.2555546760559	0.983412504196167
50	227.50922656059265	pulse	0	t		48.0	2.5	blank	1.0	244.2309193611145	
50	227.51727437973022	movie	1		301	48.0	2.5	blank	1.0	244.23896718025208	2.5087265968322754
50	229.10940718650818	pulse	1	t		48.0	2.5	blank	1.0	245.83109998703003	
50	230.0260009765625	fix_post	2		12	48.0	2.5	blank	1.0	246.74769377708435	0.10002708435058594
51	230.1260280609131	fix_pre	0		120	49.0	2.5	/experiments/knapen_AOT/AOT_stimuli/rescaled_final/0316_fw.mp4	0.0	246.84772086143494	1.0085394382476807
51	230.70971870422363	pulse	0	t		49.0	2.5	/experiments/knapen_AOT/AOT_stimuli/rescaled_final/0316_fw.mp4	0.0	247.43141150474548	
51	231.13456749916077	movie	1		261	49.0	2.5	/experiments/knapen_AOT/AOT_stimuli/rescaled_final/0316_fw.mp4	0.0	247.85626029968262	2.49204158782959
51	232.30985116958618	pulse	1	t		49.0	2.5	/experiments/knapen_AOT/AOT_stimuli/rescaled_final/0316_fw.mp4	0.0	249.03154397010803	
51	233.62660908699036	fix_post	2		12	49.0	2.5	/experiments/knapen_AOT/AOT_stimuli/rescaled_final/0316_fw.mp4	0.0	250.3483018875122	0.10007667541503906
52	233.7266857624054	fix_pre	0		120	50.0	2.5	/experiments/knapen_AOT/AOT_stimuli/rescaled_final/0510_fw.mp4	0.0	250.44837856292725	1.0084178447723389
52	233.91012477874756	pulse	0	t		50.0	2.5	/experiments/knapen_AOT/AOT_stimuli/rescaled_final/0510_fw.mp4	0.0	250.6318175792694	
52	234.73510360717773	movie	1		282	50.0	2.5	/experiments/knapen_AOT/AOT_stimuli/rescaled_final/0510_fw.mp4	0.0	251.45679640769958	2.4919826984405518
52	235.51035451889038	pulse	1	t		50.0	2.5	/experiments/knapen_AOT/AOT_stimuli/rescaled_final/0510_fw.mp4	0.0	252.23204731941223	
52	237.10860109329224	pulse	1	t		50.0	2.5	/experiments/knapen_AOT/AOT_stimuli/rescaled_final/0510_fw.mp4	0.0	253.8302938938141	
52	237.2270863056183	fix_post	2		12	50.0	2.5	/experiments/knapen_AOT/AOT_stimuli/rescaled_final/0510_fw.mp4	0.0	253.94877910614014	0.1000058650970459
53	237.32709217071533	fix_pre	0		120	51.0	2.5	/experiments/knapen_AOT/AOT_stimuli/rescaled_final/1695_rv.mp4	0.0	254.04878497123718	1.0085406303405762
53	238.3356328010559	movie	1		282	51.0	2.5	/experiments/knapen_AOT/AOT_stimuli/rescaled_final/1695_rv.mp4	0.0	255.05732560157776	2.492041826248169
53	238.70968770980835	pulse	1	t		51.0	2.5	/experiments/knapen_AOT/AOT_stimuli/rescaled_final/1695_rv.mp4	0.0	255.4313805103302	
53	240.3090763092041	pulse	1	t		51.0	2.5	/experiments/knapen_AOT/AOT_stimuli/rescaled_final/1695_rv.mp4	0.0	257.03076910972595	
53	240.82767462730408	fix_post	2		12	51.0	2.5	/experiments/knapen_AOT/AOT_stimuli/rescaled_final/1695_rv.mp4	0.0	257.5493674278259	0.09997081756591797
54	240.92764544487	fix_pre	0		119	52.0	2.5	/experiments/knapen_AOT/AOT_stimuli/rescaled_final/0591_fw.mp4	0.0	257.64933824539185	1.008636713027954
54	241.91166472434998	pulse	0	t		52.0	2.5	/experiments/knapen_AOT/AOT_stimuli/rescaled_final/0591_fw.mp4	0.0	258.6333575248718	
54	241.93628215789795	movie	1		282	52.0	2.5	/experiments/knapen_AOT/AOT_stimuli/rescaled_final/0591_fw.mp4	0.0	258.6579749584198	2.491891622543335
54	243.51014804840088	pulse	1	t		52.0	2.5	/experiments/knapen_AOT/AOT_stimuli/rescaled_final/0591_fw.mp4	0.0	260.23184084892273	
54	244.42817378044128	fix_post	2		12	52.0	2.5	/experiments/knapen_AOT/AOT_stimuli/rescaled_final/0591_fw.mp4	0.0	261.14986658096313	0.10004258155822754
55	244.5282163619995	fix_pre	0		120	53.0	2.5	/experiments/knapen_AOT/AOT_stimuli/rescaled_final/1336_fw.mp4	0.0	261.24990916252136	1.0084681510925293
55	245.1118197441101	pulse	0	t		53.0	2.5	/experiments/knapen_AOT/AOT_stimuli/rescaled_final/1336_fw.mp4	0.0	261.83351254463196	
55	245.53668451309204	movie	1		279	53.0	2.5	/experiments/knapen_AOT/AOT_stimuli/rescaled_final/1336_fw.mp4	0.0	262.2583773136139	2.492025136947632
55	246.71056580543518	pulse	1	t		53.0	2.5	/experiments/knapen_AOT/AOT_stimuli/rescaled_final/1336_fw.mp4	0.0	263.43225860595703	
55	248.02870965003967	fix_post	2		12	53.0	2.5	/experiments/knapen_AOT/AOT_stimuli/rescaled_final/1336_fw.mp4	0.0	264.7504024505615	0.10001444816589355
56	248.12872409820557	fix_pre	0		120	54.0	2.5	/experiments/knapen_AOT/AOT_stimuli/rescaled_final/0189_rv.mp4	0.0	264.8504168987274	1.0085182189941406
56	248.3123140335083	pulse	0	t		54.0	2.5	/experiments/knapen_AOT/AOT_stimuli/rescaled_final/0189_rv.mp4	0.0	265.03400683403015	
56	249.1372423171997	movie	1		277	54.0	2.5	/experiments/knapen_AOT/AOT_stimuli/rescaled_final/0189_rv.mp4	0.0	265.85893511772156	2.491985321044922
56	249.91124963760376	pulse	1	t		54.0	2.5	/experiments/knapen_AOT/AOT_stimuli/rescaled_final/0189_rv.mp4	0.0	266.6329424381256	
56	251.51085686683655	pulse	1	t		54.0	2.5	/experiments/knapen_AOT/AOT_stimuli/rescaled_final/0189_rv.mp4	0.0	268.2325496673584	
56	251.62922763824463	fix_post	2		12	54.0	2.5	/experiments/knapen_AOT/AOT_stimuli/rescaled_final/0189_rv.mp4	0.0	268.3509204387665	0.10005378723144531
57	251.72928142547607	fix_pre	0		120	55.0	2.5	/experiments/knapen_AOT/AOT_stimuli/rescaled_final/0084_fw.mp4	0.0	268.4509742259979	1.0084929466247559
57	252.73777437210083	movie	1		284	55.0	2.5	/experiments/knapen_AOT/AOT_stimuli/rescaled_final/0084_fw.mp4	0.0	269.4594671726227	2.492014169692993
57	253.11278295516968	pulse	1	t		55.0	2.5	/experiments/knapen_AOT/AOT_stimuli/rescaled_final/0084_fw.mp4	0.0	269.8344757556915	
57	254.71125268936157	pulse	1	t		55.0	2.5	/experiments/knapen_AOT/AOT_stimuli/rescaled_final/0084_fw.mp4	0.0	271.4329454898834	
57	255.22978854179382	fix_post	2		12	55.0	2.5	/experiments/knapen_AOT/AOT_stimuli/rescaled_final/0084_fw.mp4	0.0	271.9514813423157	0.10002923011779785
58	255.32981777191162	fix_pre	0		119	56.0	2.5	blank	1.0	272.0515105724335	0.991863489151001
58	256.3136751651764	pulse	0	t		56.0	2.5	blank	1.0	273.03536796569824	
58	256.3216812610626	movie	1		301	56.0	2.5	blank	1.0	273.0433740615845	2.5086400508880615
58	257.9137177467346	pulse	1	t		56.0	2.5	blank	1.0	274.63541054725647	
58	258.8303213119507	fix_post	2		12	56.0	2.5	blank	1.0	275.55201411247253	0.10002970695495605
59	258.93035101890564	fix_pre	0		120	57.0	2.5	/experiments/knapen_AOT/AOT_stimuli/rescaled_final/1682_fw.mp4	0.0	275.6520438194275	1.0084755420684814
59	259.51397037506104	pulse	0	t		57.0	2.5	/experiments/knapen_AOT/AOT_stimuli/rescaled_final/1682_fw.mp4	0.0	276.2356631755829	
59	259.9388265609741	movie	1		286	57.0	2.5	/experiments/knapen_AOT/AOT_stimuli/rescaled_final/1682_fw.mp4	0.0	276.660519361496	2.4920475482940674
59	261.11205649375916	pulse	1	t		57.0	2.5	/experiments/knapen_AOT/AOT_stimuli/rescaled_final/1682_fw.mp4	0.0	277.833749294281	
59	262.4308741092682	fix_post	2		12	57.0	2.5	/experiments/knapen_AOT/AOT_stimuli/rescaled_final/1682_fw.mp4	0.0	279.15256690979004	0.10010910034179688
60	262.53098320961	fix_pre	0		120	58.0	2.5	/experiments/knapen_AOT/AOT_stimuli/rescaled_final/0083_rv.mp4	0.0	279.25267601013184	1.0084147453308105
60	262.7144510746002	pulse	0	t		58.0	2.5	/experiments/knapen_AOT/AOT_stimuli/rescaled_final/0083_rv.mp4	0.0	279.43614387512207	
60	263.5393979549408	movie	1		271	58.0	2.5	/experiments/knapen_AOT/AOT_stimuli/rescaled_final/0083_rv.mp4	0.0	280.26109075546265	2.4920291900634766
60	264.31246876716614	pulse	1	t		58.0	2.5	/experiments/knapen_AOT/AOT_stimuli/rescaled_final/0083_rv.mp4	0.0	281.034161567688	
60	265.9130554199219	pulse	1	t		58.0	2.5	/experiments/knapen_AOT/AOT_stimuli/rescaled_final/0083_rv.mp4	0.0	282.6347482204437	
60	266.0314271450043	fix_post	2		12	58.0	2.5	/experiments/knapen_AOT/AOT_stimuli/rescaled_final/0083_rv.mp4	0.0	282.7531199455261	0.10000467300415039
61	266.1314318180084	fix_pre	0		120	59.0	2.5	/experiments/knapen_AOT/AOT_stimuli/rescaled_final/2102_rv.mp4	0.0	282.8531246185303	1.0085046291351318
61	267.13993644714355	movie	1		273	59.0	2.5	/experiments/knapen_AOT/AOT_stimuli/rescaled_final/2102_rv.mp4	0.0	283.8616292476654	2.500396728515625
61	267.5148649215698	pulse	1	t		59.0	2.5	/experiments/knapen_AOT/AOT_stimuli/rescaled_final/2102_rv.mp4	0.0	284.2365577220917	
61	269.11337518692017	pulse	1	t		59.0	2.5	/experiments/knapen_AOT/AOT_stimuli/rescaled_final/2102_rv.mp4	0.0	285.835067987442	
61	269.6403331756592	fix_post	2		11	59.0	2.5	/experiments/knapen_AOT/AOT_stimuli/rescaled_final/2102_rv.mp4	0.0	286.36202597618103	0.09167122840881348
62	269.732004404068	fix_pre	0		118	60.0	2.5	/experiments/knapen_AOT/AOT_stimuli/rescaled_final/1257_fw.mp4	0.0	286.45369720458984	0.9918017387390137
62	270.7076690196991	pulse	0	t		60.0	2.5	/experiments/knapen_AOT/AOT_stimuli/rescaled_final/1257_fw.mp4	0.0	287.42936182022095	
62	270.723806142807	movie	1		295	60.0	2.5	/experiments/knapen_AOT/AOT_stimuli/rescaled_final/1257_fw.mp4	0.0	287.44549894332886	2.5003693103790283
62	272.3077108860016	pulse	1	t		60.0	2.5	/experiments/knapen_AOT/AOT_stimuli/rescaled_final/1257_fw.mp4	0.0	289.02940368652344	
62	273.22417545318604	fix_post	2		12	60.0	2.5	/experiments/knapen_AOT/AOT_stimuli/rescaled_final/1257_fw.mp4	0.0	289.9458682537079	0.10000419616699219
63	273.324179649353	fix_pre	0		120	61.0	2.5	/experiments/knapen_AOT/AOT_stimuli/rescaled_final/1232_fw.mp4	0.0	290.0458724498749	1.008516788482666
63	273.9078528881073	pulse	0	t		61.0	2.5	/experiments/knapen_AOT/AOT_stimuli/rescaled_final/1232_fw.mp4	0.0	290.62954568862915	
63	274.3326964378357	movie	1		290	61.0	2.5	/experiments/knapen_AOT/AOT_stimuli/rescaled_final/1232_fw.mp4	0.0	291.05438923835754	2.492018461227417
63	275.5080246925354	pulse	1	t		61.0	2.5	/experiments/knapen_AOT/AOT_stimuli/rescaled_final/1232_fw.mp4	0.0	292.22971749305725	
63	276.8247148990631	fix_post	2		12	61.0	2.5	/experiments/knapen_AOT/AOT_stimuli/rescaled_final/1232_fw.mp4	0.0	293.54640769958496	0.10001635551452637
64	276.92473125457764	fix_pre	0		120	62.0	2.5	blank	1.0	293.6464240550995	1.0001401901245117
64	277.10839581489563	pulse	0	t		62.0	2.5	blank	1.0	293.8300886154175	
64	277.92487144470215	movie	1		300	62.0	2.5	blank	1.0	294.646564245224	2.500394344329834
64	278.7086341381073	pulse	1	t		62.0	2.5	blank	1.0	295.43032693862915	
64	280.3088119029999	pulse	1	t		62.0	2.5	blank	1.0	297.03050470352173	
64	280.425265789032	fix_post	2		12	62.0	2.5	blank	1.0	297.14695858955383	0.10003542900085449
65	280.52530121803284	fix_pre	0		120	63.0	2.5	/experiments/knapen_AOT/AOT_stimuli/rescaled_final/0698_rv.mp4	0.0	297.2469940185547	1.008455753326416
65	281.53375697135925	movie	1		289	63.0	2.5	/experiments/knapen_AOT/AOT_stimuli/rescaled_final/0698_rv.mp4	0.0	298.2554497718811	2.4920387268066406
65	281.9090700149536	pulse	1	t		63.0	2.5	/experiments/knapen_AOT/AOT_stimuli/rescaled_final/0698_rv.mp4	0.0	298.63076281547546	
65	283.5083394050598	pulse	1	t		63.0	2.5	/experiments/knapen_AOT/AOT_stimuli/rescaled_final/0698_rv.mp4	0.0	300.23003220558167	
65	284.0257956981659	fix_post	2		12	63.0	2.5	/experiments/knapen_AOT/AOT_stimuli/rescaled_final/0698_rv.mp4	0.0	300.74748849868774	0.10005903244018555
66	284.1258547306061	fix_pre	0		119	64.0	2.5	/experiments/knapen_AOT/AOT_stimuli/rescaled_final/1622_fw.mp4	0.0	300.84754753112793	1.0001165866851807
66	285.1095130443573	pulse	0	t		64.0	2.5	/experiments/knapen_AOT/AOT_stimuli/rescaled_final/1622_fw.mp4	0.0	301.83120584487915	
66	285.12597131729126	movie	1		277	64.0	2.5	/experiments/knapen_AOT/AOT_stimuli/rescaled_final/1622_fw.mp4	0.0	301.8476641178131	2.500363349914551
66	286.7087199687958	pulse	1	t		64.0	2.5	/experiments/knapen_AOT/AOT_stimuli/rescaled_final/1622_fw.mp4	0.0	303.4304127693176	
66	287.6263346672058	fix_post	2		12	64.0	2.5	/experiments/knapen_AOT/AOT_stimuli/rescaled_final/1622_fw.mp4	0.0	304.34802746772766	0.10000991821289062
67	287.7263445854187	fix_pre	0		120	65.0	2.5	/experiments/knapen_AOT/AOT_stimuli/rescaled_final/0530_rv.mp4	0.0	304.44803738594055	1.0084996223449707
67	288.30998039245605	pulse	0	t		65.0	2.5	/experiments/knapen_AOT/AOT_stimuli/rescaled_final/0530_rv.mp4	0.0	305.0316731929779	
67	288.7348442077637	movie	1		277	65.0	2.5	/experiments/knapen_AOT/AOT_stimuli/rescaled_final/0530_rv.mp4	0.0	305.4565370082855	2.4920570850372314
67	289.9085054397583	pulse	1	t		65.0	2.5	/experiments/knapen_AOT/AOT_stimuli/rescaled_final/0530_rv.mp4	0.0	306.63019824028015	
67	291.2269012928009	fix_post	2		12	65.0	2.5	/experiments/knapen_AOT/AOT_stimuli/rescaled_final/0530_rv.mp4	0.0	307.94859409332275	0.10003924369812012
68	291.326940536499	fix_pre	0		120	66.0	2.5	/experiments/knapen_AOT/AOT_stimuli/rescaled_final/0618_rv.mp4	0.0	308.0486333370209	1.0084517002105713
68	291.51053500175476	pulse	0	t		66.0	2.5	/experiments/knapen_AOT/AOT_stimuli/rescaled_final/0618_rv.mp4	0.0	308.2322278022766	
68	292.3353922367096	movie	1		276	66.0	2.5	/experiments/knapen_AOT/AOT_stimuli/rescaled_final/0618_rv.mp4	0.0	309.05708503723145	2.4920215606689453
68	293.1089401245117	pulse	1	t		66.0	2.5	/experiments/knapen_AOT/AOT_stimuli/rescaled_final/0618_rv.mp4	0.0	309.83063292503357	
68	294.70892000198364	pulse	1	t		66.0	2.5	/experiments/knapen_AOT/AOT_stimuli/rescaled_final/0618_rv.mp4	0.0	311.4306128025055	
68	294.82741379737854	fix_post	2		12	66.0	2.5	/experiments/knapen_AOT/AOT_stimuli/rescaled_final/0618_rv.mp4	0.0	311.5491065979004	0.10001254081726074
69	294.9274263381958	fix_pre	0		120	67.0	2.5	/experiments/knapen_AOT/AOT_stimuli/rescaled_final/0413_rv.mp4	0.0	311.64911913871765	1.0085318088531494
69	295.93595814704895	movie	1		285	67.0	2.5	/experiments/knapen_AOT/AOT_stimuli/rescaled_final/0413_rv.mp4	0.0	312.6576509475708	2.4920310974121094
69	296.309698343277	pulse	1	t		67.0	2.5	/experiments/knapen_AOT/AOT_stimuli/rescaled_final/0413_rv.mp4	0.0	313.0313911437988	
69	297.9096975326538	pulse	1	t		67.0	2.5	/experiments/knapen_AOT/AOT_stimuli/rescaled_final/0413_rv.mp4	0.0	314.63139033317566	
69	298.42798924446106	fix_post	2		12	67.0	2.5	/experiments/knapen_AOT/AOT_stimuli/rescaled_final/0413_rv.mp4	0.0	315.1496820449829	0.09998846054077148
70	298.52797770500183	fix_pre	0		119	68.0	2.5	/experiments/knapen_AOT/AOT_stimuli/rescaled_final/0423_fw.mp4	0.0	315.2496705055237	1.0001513957977295
70	299.51171946525574	pulse	0	t		68.0	2.5	/experiments/knapen_AOT/AOT_stimuli/rescaled_final/0423_fw.mp4	0.0	316.2334122657776	
70	299.52812910079956	movie	1		284	68.0	2.5	/experiments/knapen_AOT/AOT_stimuli/rescaled_final/0423_fw.mp4	0.0	316.2498219013214	2.500399589538574
70	301.11037373542786	pulse	1	t		68.0	2.5	/experiments/knapen_AOT/AOT_stimuli/rescaled_final/0423_fw.mp4	0.0	317.8320665359497	
70	302.02852869033813	fix_post	2		12	68.0	2.5	/experiments/knapen_AOT/AOT_stimuli/rescaled_final/0423_fw.mp4	0.0	318.75022149086	0.10004949569702148
71	302.12857818603516	fix_pre	0		120	69.0	2.5	/experiments/knapen_AOT/AOT_stimuli/rescaled_final/1629_rv.mp4	0.0	318.850270986557	1.0084705352783203
71	302.71221923828125	pulse	0	t		69.0	2.5	/experiments/knapen_AOT/AOT_stimuli/rescaled_final/1629_rv.mp4	0.0	319.4339120388031	
71	303.1370487213135	movie	1		276	69.0	2.5	/experiments/knapen_AOT/AOT_stimuli/rescaled_final/1629_rv.mp4	0.0	319.8587415218353	2.4920084476470947
71	304.31034874916077	pulse	1	t		69.0	2.5	/experiments/knapen_AOT/AOT_stimuli/rescaled_final/1629_rv.mp4	0.0	321.0320415496826	
71	305.62905716896057	fix_post	2		12	69.0	2.5	/experiments/knapen_AOT/AOT_stimuli/rescaled_final/1629_rv.mp4	0.0	322.3507499694824	0.10000967979431152
72	305.7290668487549	fix_pre	0		120	70.0	2.5	blank	1.0	322.45075964927673	1.0002436637878418
72	305.9127459526062	pulse	0	t		70.0	2.5	blank	1.0	322.63443875312805	
72	306.7293105125427	movie	1		300	70.0	2.5	blank	1.0	323.4510033130646	2.500272274017334
72	307.51283383369446	pulse	1	t		70.0	2.5	blank	1.0	324.2345266342163	
72	309.11339259147644	pulse	1	t		70.0	2.5	blank	1.0	325.8350853919983	
72	309.22958278656006	fix_post	2		12	70.0	2.5	blank	1.0	325.9512755870819	0.10004496574401855
73	309.3296277523041	fix_pre	0		120	71.0	2.5	/experiments/knapen_AOT/AOT_stimuli/rescaled_final/1356_fw.mp4	0.0	326.0513205528259	1.008462905883789
73	310.33809065818787	movie	1		272	71.0	2.5	/experiments/knapen_AOT/AOT_stimuli/rescaled_final/1356_fw.mp4	0.0	327.0597834587097	2.4920315742492676
73	310.7121624946594	pulse	1	t		71.0	2.5	/experiments/knapen_AOT/AOT_stimuli/rescaled_final/1356_fw.mp4	0.0	327.4338552951813	
73	312.311514377594	pulse	1	t		71.0	2.5	/experiments/knapen_AOT/AOT_stimuli/rescaled_final/1356_fw.mp4	0.0	329.03320717811584	
73	312.83012223243713	fix_post	2		12	71.0	2.5	/experiments/knapen_AOT/AOT_stimuli/rescaled_final/1356_fw.mp4	0.0	329.551815032959	0.10001730918884277
74	312.930139541626	fix_pre	0		119	72.0	2.5	/experiments/knapen_AOT/AOT_stimuli/rescaled_final/0113_fw.mp4	0.0	329.6518323421478	1.0002226829528809
74	313.9138243198395	pulse	0	t		72.0	2.5	/experiments/knapen_AOT/AOT_stimuli/rescaled_final/0113_fw.mp4	0.0	330.6355171203613	
74	313.93036222457886	movie	1		274	72.0	2.5	/experiments/knapen_AOT/AOT_stimuli/rescaled_final/0113_fw.mp4	0.0	330.6520550251007	2.5002942085266113
74	315.5124228000641	pulse	1	t		72.0	2.5	/experiments/knapen_AOT/AOT_stimuli/rescaled_final/0113_fw.mp4	0.0	332.23411560058594	
74	316.43065643310547	fix_post	2		12	72.0	2.5	/experiments/knapen_AOT/AOT_stimuli/rescaled_final/0113_fw.mp4	0.0	333.1523492336273	0.10002446174621582
75	316.5306808948517	fix_pre	0		120	73.0	2.5	/experiments/knapen_AOT/AOT_stimuli/rescaled_final/0263_rv.mp4	0.0	333.25237369537354	1.008491039276123
75	317.114280462265	pulse	0	t		73.0	2.5	/experiments/knapen_AOT/AOT_stimuli/rescaled_final/0263_rv.mp4	0.0	333.83597326278687	
75	317.5391719341278	movie	1		283	73.0	2.5	/experiments/knapen_AOT/AOT_stimuli/rescaled_final/0263_rv.mp4	0.0	334.26086473464966	2.492083787918091
75	318.71284556388855	pulse	1	t		73.0	2.5	/experiments/knapen_AOT/AOT_stimuli/rescaled_final/0263_rv.mp4	0.0	335.4345383644104	
75	320.0312557220459	fix_post	2		12	73.0	2.5	/experiments/knapen_AOT/AOT_stimuli/rescaled_final/0263_rv.mp4	0.0	336.75294852256775	0.0999751091003418
76	320.13123083114624	fix_pre	0		120	74.0	2.5	/experiments/knapen_AOT/AOT_stimuli/rescaled_final/0316_fw.mp4	0.0	336.8529236316681	1.008497714996338
76	320.3148846626282	pulse	0	t		74.0	2.5	/experiments/knapen_AOT/AOT_stimuli/rescaled_final/0316_fw.mp4	0.0	337.03657746315	
76	321.1397285461426	movie	1		288	74.0	2.5	/experiments/knapen_AOT/AOT_stimuli/rescaled_final/0316_fw.mp4	0.0	337.86142134666443	2.4920084476470947
76	321.912743806839	pulse	1	t		74.0	2.5	/experiments/knapen_AOT/AOT_stimuli/rescaled_final/0316_fw.mp4	0.0	338.63443660736084	
76	323.51353883743286	pulse	1	t		74.0	2.5	/experiments/knapen_AOT/AOT_stimuli/rescaled_final/0316_fw.mp4	0.0	340.2352316379547	
76	323.6317369937897	fix_post	2		12	74.0	2.5	/experiments/knapen_AOT/AOT_stimuli/rescaled_final/0316_fw.mp4	0.0	340.3534297943115	0.10003232955932617
77	323.731769323349	fix_pre	0		120	75.0	2.5	blank	1.0	340.45346212387085	1.000243902206421
77	324.7320132255554	movie	1		300	75.0	2.5	blank	1.0	341.45370602607727	2.500267267227173
77	325.1158540248871	pulse	1	t		75.0	2.5	blank	1.0	341.83754682540894	
77	326.70829796791077	pulse	1	t		75.0	2.5	blank	1.0	343.4299907684326	
77	327.2322804927826	fix_post	2		12	75.0	2.5	blank	1.0	343.95397329330444	0.10003781318664551
78	327.33231830596924	fix_pre	0		118	76.0	2.5	/experiments/knapen_AOT/AOT_stimuli/rescaled_final/1171_rv.mp4	0.0	344.0540111064911	1.0002093315124512
78	328.3083248138428	pulse	0	t		76.0	2.5	/experiments/knapen_AOT/AOT_stimuli/rescaled_final/1171_rv.mp4	0.0	345.0300176143646	
78	328.3325276374817	movie	1		279	76.0	2.5	/experiments/knapen_AOT/AOT_stimuli/rescaled_final/1171_rv.mp4	0.0	345.05422043800354	2.4919753074645996
78	329.9081857204437	pulse	1	t		76.0	2.5	/experiments/knapen_AOT/AOT_stimuli/rescaled_final/1171_rv.mp4	0.0	346.6298785209656	
78	330.8245029449463	fix_post	2		12	76.0	2.5	/experiments/knapen_AOT/AOT_stimuli/rescaled_final/1171_rv.mp4	0.0	347.54619574546814	0.10002541542053223
79	330.9245283603668	fix_pre	0		120	77.0	2.5	/experiments/knapen_AOT/AOT_stimuli/rescaled_final/0121_rv.mp4	0.0	347.6462211608887	1.008486032485962
79	331.50850009918213	pulse	0	t		77.0	2.5	/experiments/knapen_AOT/AOT_stimuli/rescaled_final/0121_rv.mp4	0.0	348.230192899704	
79	331.9330143928528	movie	1		284	77.0	2.5	/experiments/knapen_AOT/AOT_stimuli/rescaled_final/0121_rv.mp4	0.0	348.65470719337463	2.492210626602173
79	333.108430147171	pulse	1	t		77.0	2.5	/experiments/knapen_AOT/AOT_stimuli/rescaled_final/0121_rv.mp4	0.0	349.83012294769287	
79	334.42522501945496	fix_post	2		12	77.0	2.5	/experiments/knapen_AOT/AOT_stimuli/rescaled_final/0121_rv.mp4	0.0	351.1469178199768	0.09983968734741211
80	334.52506470680237	fix_pre	0		120	78.0	2.5	/experiments/knapen_AOT/AOT_stimuli/rescaled_final/1006_rv.mp4	0.0	351.2467575073242	1.0085258483886719
80	334.7086362838745	pulse	0	t		78.0	2.5	/experiments/knapen_AOT/AOT_stimuli/rescaled_final/1006_rv.mp4	0.0	351.43032908439636	
80	335.53359055519104	movie	1		278	78.0	2.5	/experiments/knapen_AOT/AOT_stimuli/rescaled_final/1006_rv.mp4	0.0	352.2552833557129	2.492048978805542
80	336.30886244773865	pulse	1	t		78.0	2.5	/experiments/knapen_AOT/AOT_stimuli/rescaled_final/1006_rv.mp4	0.0	353.0305552482605	
80	337.9091055393219	pulse	1	t		78.0	2.5	/experiments/knapen_AOT/AOT_stimuli/rescaled_final/1006_rv.mp4	0.0	354.63079833984375	
80	338.0256395339966	fix_post	2		12	78.0	2.5	/experiments/knapen_AOT/AOT_stimuli/rescaled_final/1006_rv.mp4	0.0	354.74733233451843	0.09996223449707031
81	338.12560176849365	fix_pre	0		120	79.0	2.5	/experiments/knapen_AOT/AOT_stimuli/rescaled_final/0826_fw.mp4	0.0	354.8472945690155	1.0084822177886963
81	339.13408398628235	movie	1		279	79.0	2.5	/experiments/knapen_AOT/AOT_stimuli/rescaled_final/0826_fw.mp4	0.0	355.8557767868042	2.492023468017578
81	339.5091247558594	pulse	1	t		79.0	2.5	/experiments/knapen_AOT/AOT_stimuli/rescaled_final/0826_fw.mp4	0.0	356.2308175563812	
81	341.1079683303833	pulse	1	t		79.0	2.5	/experiments/knapen_AOT/AOT_stimuli/rescaled_final/0826_fw.mp4	0.0	357.82966113090515	
81	341.6261074542999	fix_post	2		12	79.0	2.5	/experiments/knapen_AOT/AOT_stimuli/rescaled_final/0826_fw.mp4	0.0	358.3478002548218	0.10003137588500977
82	341.72613883018494	fix_pre	0		119	80.0	2.5	/experiments/knapen_AOT/AOT_stimuli/rescaled_final/0548_rv.mp4	0.0	358.4478316307068	1.0001533031463623
82	342.70994210243225	pulse	0	t		80.0	2.5	/experiments/knapen_AOT/AOT_stimuli/rescaled_final/0548_rv.mp4	0.0	359.4316349029541	
82	342.7262921333313	movie	1		281	80.0	2.5	/experiments/knapen_AOT/AOT_stimuli/rescaled_final/0548_rv.mp4	0.0	359.44798493385315	2.5003740787506104
82	344.30852937698364	pulse	1	t		80.0	2.5	/experiments/knapen_AOT/AOT_stimuli/rescaled_final/0548_rv.mp4	0.0	361.0302221775055	
82	345.2266662120819	fix_post	2		12	80.0	2.5	/experiments/knapen_AOT/AOT_stimuli/rescaled_final/0548_rv.mp4	0.0	361.94835901260376	0.1000220775604248
83	345.32668828964233	fix_pre	0		120	81.0	2.5	/experiments/knapen_AOT/AOT_stimuli/rescaled_final/1121_rv.mp4	0.0	362.0483810901642	1.0085172653198242
83	345.91029930114746	pulse	0	t		81.0	2.5	/experiments/knapen_AOT/AOT_stimuli/rescaled_final/1121_rv.mp4	0.0	362.6319921016693	
83	346.33520555496216	movie	1		278	81.0	2.5	/experiments/knapen_AOT/AOT_stimuli/rescaled_final/1121_rv.mp4	0.0	363.056898355484	2.4919867515563965
83	347.50846886634827	pulse	1	t		81.0	2.5	/experiments/knapen_AOT/AOT_stimuli/rescaled_final/1121_rv.mp4	0.0	364.2301616668701	
83	348.82719230651855	fix_post	2		12	81.0	2.5	/experiments/knapen_AOT/AOT_stimuli/rescaled_final/1121_rv.mp4	0.0	365.5488851070404	0.10001969337463379
84	348.9272119998932	fix_pre	0		120	82.0	2.5	blank	1.0	365.64890480041504	1.0001535415649414
84	349.1107850074768	pulse	0	t		82.0	2.5	blank	1.0	365.83247780799866	
84	349.92736554145813	movie	1		300	82.0	2.5	blank	1.0	366.64905834198	2.500401258468628
84	350.71103143692017	pulse	1	t		82.0	2.5	blank	1.0	367.432724237442	
84	352.3112623691559	pulse	1	t		82.0	2.5	blank	1.0	369.03295516967773	
84	352.42776679992676	fix_post	2		12	82.0	2.5	blank	1.0	369.1494596004486	0.10000061988830566
85	352.52776741981506	fix_pre	0		120	83.0	2.5	/experiments/knapen_AOT/AOT_stimuli/rescaled_final/1191_rv.mp4	0.0	369.2494602203369	1.0084888935089111
85	353.536256313324	movie	1		276	83.0	2.5	/experiments/knapen_AOT/AOT_stimuli/rescaled_final/1191_rv.mp4	0.0	370.2579491138458	2.4920308589935303
85	353.9099910259247	pulse	1	t		83.0	2.5	/experiments/knapen_AOT/AOT_stimuli/rescaled_final/1191_rv.mp4	0.0	370.63168382644653	
85	355.50978565216064	pulse	1	t		83.0	2.5	/experiments/knapen_AOT/AOT_stimuli/rescaled_final/1191_rv.mp4	0.0	372.2314784526825	
85	356.0282871723175	fix_post	2		12	83.0	2.5	/experiments/knapen_AOT/AOT_stimuli/rescaled_final/1191_rv.mp4	0.0	372.74997997283936	0.10009336471557617
87	356.1283805370331	stim	0		1716					372.85007333755493	14.302100896835327
87	357.1123802661896	pulse	0	t						373.8340730667114	
87	358.7124893665314	pulse	0	t						375.4341821670532	
87	360.3126292228699	pulse	0	t						377.0343220233917	
87	361.9127082824707	pulse	0	t						378.63440108299255	
87	363.5129234790802	pulse	0	t						380.23461627960205	
87	365.11315989494324	pulse	0	t						381.8348526954651	
87	366.7134726047516	pulse	0	t						383.43516540527344	
87	368.3136873245239	pulse	0	t						385.0353801250458	
87	369.9141023159027	pulse	0	t						386.63579511642456	
