trial_nr	onset	event_type	phase	response	nr_frames	movie_index	movie_duration	movie_file	blank	onset_abs	duration
0	0.15837812423706055	stim	0		2					15.681523323059082	0.01647663116455078
0	0.16686630249023438	response	0	space						15.690011501312256	
1	0.17485475540161133	stim	0		4604					15.697999954223633	38.38233399391174
1	38.547659397125244	pulse	0	t						54.070804595947266	
1	38.557188749313354	stim	1		1715					54.080333948135376	14.300557851791382
1	40.139384031295776	pulse	1	t						55.6625292301178	
1	41.73965573310852	pulse	1	t						57.26280093193054	
1	43.33983087539673	pulse	1	t						58.86297607421875	
1	44.94010591506958	pulse	1	t						60.4632511138916	
1	46.540489196777344	pulse	1	t						62.063634395599365	
1	48.140586376190186	pulse	1	t						63.66373157501221	
1	49.74100041389465	pulse	1	t						65.26414561271667	
1	51.34114384651184	pulse	1	t						66.86428904533386	
2	52.857746601104736	fix_pre	0		11	0.0	2.5	/experiments/Knapen_AOT/AOT_stimuli/rescaled_final/0504_fw.mp4	0.0	68.38089179992676	0.12506818771362305
2	52.94131684303284	pulse	0	t		0.0	2.5	/experiments/Knapen_AOT/AOT_stimuli/rescaled_final/0504_fw.mp4	0.0	68.46446204185486	
2	52.98281478881836	movie	1		284	0.0	2.5	/experiments/Knapen_AOT/AOT_stimuli/rescaled_final/0504_fw.mp4	0.0	68.50595998764038	2.475358247756958
2	54.53972792625427	pulse	1	t		0.0	2.5	/experiments/Knapen_AOT/AOT_stimuli/rescaled_final/0504_fw.mp4	0.0	70.0628731250763	
2	55.45817303657532	fix_post	2		12	0.0	2.5	/experiments/Knapen_AOT/AOT_stimuli/rescaled_final/0504_fw.mp4	0.0	70.98131823539734	0.1000213623046875
3	55.558194398880005	fix_pre	0		120	1.0	2.5	/experiments/Knapen_AOT/AOT_stimuli/rescaled_final/0171_fw.mp4	0.0	71.08133959770203	1.008469581604004
3	56.141870737075806	pulse	0	t		1.0	2.5	/experiments/Knapen_AOT/AOT_stimuli/rescaled_final/0171_fw.mp4	0.0	71.66501593589783	
3	56.56666398048401	movie	1		288	1.0	2.5	/experiments/Knapen_AOT/AOT_stimuli/rescaled_final/0171_fw.mp4	0.0	72.08980917930603	2.4920966625213623
3	57.74013805389404	pulse	1	t		1.0	2.5	/experiments/Knapen_AOT/AOT_stimuli/rescaled_final/0171_fw.mp4	0.0	73.26328325271606	
3	59.05876064300537	fix_post	2		12	1.0	2.5	/experiments/Knapen_AOT/AOT_stimuli/rescaled_final/0171_fw.mp4	0.0	74.58190584182739	0.10000205039978027
4	59.15876269340515	fix_pre	0		120	2.0	2.5	/experiments/Knapen_AOT/AOT_stimuli/rescaled_final/1691_fw.mp4	0.0	74.68190789222717	1.0084295272827148
4	59.34226703643799	pulse	0	t		2.0	2.5	/experiments/Knapen_AOT/AOT_stimuli/rescaled_final/1691_fw.mp4	0.0	74.86541223526001	
4	60.167192220687866	movie	1		281	2.0	2.5	/experiments/Knapen_AOT/AOT_stimuli/rescaled_final/1691_fw.mp4	0.0	75.69033741950989	2.49206805229187
4	60.94042897224426	pulse	1	t		2.0	2.5	/experiments/Knapen_AOT/AOT_stimuli/rescaled_final/1691_fw.mp4	0.0	76.46357417106628	
4	62.54078483581543	pulse	1	t		2.0	2.5	/experiments/Knapen_AOT/AOT_stimuli/rescaled_final/1691_fw.mp4	0.0	78.06393003463745	
4	62.659260272979736	fix_post	2		12	2.0	2.5	/experiments/Knapen_AOT/AOT_stimuli/rescaled_final/1691_fw.mp4	0.0	78.18240547180176	0.10006976127624512
5	62.75933003425598	fix_pre	0		120	3.0	2.5	/experiments/Knapen_AOT/AOT_stimuli/rescaled_final/0729_rv.mp4	0.0	78.282475233078	1.0085232257843018
5	63.76785326004028	movie	1		278	3.0	2.5	/experiments/Knapen_AOT/AOT_stimuli/rescaled_final/0729_rv.mp4	0.0	79.2909984588623	2.4919650554656982
5	64.14224171638489	pulse	1	t		3.0	2.5	/experiments/Knapen_AOT/AOT_stimuli/rescaled_final/0729_rv.mp4	0.0	79.66538691520691	
5	65.74116468429565	pulse	1	t		3.0	2.5	/experiments/Knapen_AOT/AOT_stimuli/rescaled_final/0729_rv.mp4	0.0	81.26430988311768	
5	66.25981831550598	fix_post	2		12	3.0	2.5	/experiments/Knapen_AOT/AOT_stimuli/rescaled_final/0729_rv.mp4	0.0	81.782963514328	0.10006117820739746
6	66.35987949371338	fix_pre	0		119	4.0	2.5	/experiments/Knapen_AOT/AOT_stimuli/rescaled_final/0729_fw.mp4	0.0	81.8830246925354	1.0001530647277832
6	67.34349608421326	pulse	0	t		4.0	2.5	/experiments/Knapen_AOT/AOT_stimuli/rescaled_final/0729_fw.mp4	0.0	82.86664128303528	
6	67.36003255844116	movie	1		275	4.0	2.5	/experiments/Knapen_AOT/AOT_stimuli/rescaled_final/0729_fw.mp4	0.0	82.88317775726318	2.5002810955047607
6	68.94216465950012	pulse	1	t		4.0	2.5	/experiments/Knapen_AOT/AOT_stimuli/rescaled_final/0729_fw.mp4	0.0	84.46530985832214	
6	69.86031365394592	fix_post	2		12	4.0	2.5	/experiments/Knapen_AOT/AOT_stimuli/rescaled_final/0729_fw.mp4	0.0	85.38345885276794	0.10001301765441895
7	69.96032667160034	fix_pre	0		120	5.0	2.5	/experiments/Knapen_AOT/AOT_stimuli/rescaled_final/1354_rv.mp4	0.0	85.48347187042236	1.0084824562072754
7	70.54423522949219	pulse	0	t		5.0	2.5	/experiments/Knapen_AOT/AOT_stimuli/rescaled_final/1354_rv.mp4	0.0	86.06738042831421	
7	70.96880912780762	movie	1		277	5.0	2.5	/experiments/Knapen_AOT/AOT_stimuli/rescaled_final/1354_rv.mp4	0.0	86.49195432662964	2.4920494556427
7	72.14204096794128	pulse	1	t		5.0	2.5	/experiments/Knapen_AOT/AOT_stimuli/rescaled_final/1354_rv.mp4	0.0	87.6651861667633	
7	73.46085858345032	fix_post	2		12	5.0	2.5	/experiments/Knapen_AOT/AOT_stimuli/rescaled_final/1354_rv.mp4	0.0	88.98400378227234	0.10007572174072266
8	73.56093430519104	fix_pre	0		120	6.0	2.5	/experiments/Knapen_AOT/AOT_stimuli/rescaled_final/1314_fw.mp4	0.0	89.08407950401306	1.0084376335144043
8	73.73666191101074	pulse	0	t		6.0	2.5	/experiments/Knapen_AOT/AOT_stimuli/rescaled_final/1314_fw.mp4	0.0	89.25980710983276	
8	74.56937193870544	movie	1		289	6.0	2.5	/experiments/Knapen_AOT/AOT_stimuli/rescaled_final/1314_fw.mp4	0.0	90.09251713752747	2.49202299118042
8	75.34265518188477	pulse	1	t		6.0	2.5	/experiments/Knapen_AOT/AOT_stimuli/rescaled_final/1314_fw.mp4	0.0	90.86580038070679	
8	76.93694829940796	pulse	1	t		6.0	2.5	/experiments/Knapen_AOT/AOT_stimuli/rescaled_final/1314_fw.mp4	0.0	92.46009349822998	
8	77.06139492988586	fix_post	2		12	6.0	2.5	/experiments/Knapen_AOT/AOT_stimuli/rescaled_final/1314_fw.mp4	0.0	92.58454012870789	0.10004019737243652
9	77.1614351272583	fix_pre	0		120	7.0	2.5	blank	1.0	92.68458032608032	1.0001389980316162
9	78.16157412528992	movie	1		300	7.0	2.5	blank	1.0	93.68471932411194	2.5003600120544434
9	78.53696751594543	pulse	1	t		7.0	2.5	blank	1.0	94.06011271476746	
9	80.13718485832214	pulse	1	t		7.0	2.5	blank	1.0	95.66033005714417	
9	80.66193413734436	fix_post	2		12	7.0	2.5	blank	1.0	96.18507933616638	0.10008001327514648
10	80.7620141506195	fix_pre	0		118	8.0	2.5	/experiments/Knapen_AOT/AOT_stimuli/rescaled_final/2030_rv.mp4	0.0	96.28515934944153	0.9917528629302979
10	81.73748326301575	pulse	0	t		8.0	2.5	/experiments/Knapen_AOT/AOT_stimuli/rescaled_final/2030_rv.mp4	0.0	97.26062846183777	
10	81.7537670135498	movie	1		287	8.0	2.5	/experiments/Knapen_AOT/AOT_stimuli/rescaled_final/2030_rv.mp4	0.0	97.27691221237183	2.5004234313964844
10	83.33759546279907	pulse	1	t		8.0	2.5	/experiments/Knapen_AOT/AOT_stimuli/rescaled_final/2030_rv.mp4	0.0	98.8607406616211	
10	84.25419044494629	fix_post	2		12	8.0	2.5	/experiments/Knapen_AOT/AOT_stimuli/rescaled_final/2030_rv.mp4	0.0	99.77733564376831	0.09997820854187012
11	84.35416865348816	fix_pre	0		120	9.0	2.5	/experiments/Knapen_AOT/AOT_stimuli/rescaled_final/1377_rv.mp4	0.0	99.87731385231018	1.008497714996338
11	84.93780827522278	pulse	0	t		9.0	2.5	/experiments/Knapen_AOT/AOT_stimuli/rescaled_final/1377_rv.mp4	0.0	100.4609534740448	
11	85.3626663684845	movie	1		286	9.0	2.5	/experiments/Knapen_AOT/AOT_stimuli/rescaled_final/1377_rv.mp4	0.0	100.88581156730652	2.492044448852539
11	86.53801774978638	pulse	1	t		9.0	2.5	/experiments/Knapen_AOT/AOT_stimuli/rescaled_final/1377_rv.mp4	0.0	102.0611629486084	
11	87.85471081733704	fix_post	2		12	9.0	2.5	/experiments/Knapen_AOT/AOT_stimuli/rescaled_final/1377_rv.mp4	0.0	103.37785601615906	0.09999251365661621
12	87.95470333099365	fix_pre	0		120	10.0	2.5	/experiments/Knapen_AOT/AOT_stimuli/rescaled_final/0252_fw.mp4	0.0	103.47784852981567	1.0086700916290283
12	88.13830995559692	pulse	0	t		10.0	2.5	/experiments/Knapen_AOT/AOT_stimuli/rescaled_final/0252_fw.mp4	0.0	103.66145515441895	
12	88.96337342262268	movie	1		278	10.0	2.5	/experiments/Knapen_AOT/AOT_stimuli/rescaled_final/0252_fw.mp4	0.0	104.4865186214447	2.491863965988159
12	89.73867559432983	pulse	1	t		10.0	2.5	/experiments/Knapen_AOT/AOT_stimuli/rescaled_final/0252_fw.mp4	0.0	105.26182079315186	
12	91.33687782287598	pulse	1	t		10.0	2.5	/experiments/Knapen_AOT/AOT_stimuli/rescaled_final/0252_fw.mp4	0.0	106.860023021698	
12	91.45523738861084	fix_post	2		12	10.0	2.5	/experiments/Knapen_AOT/AOT_stimuli/rescaled_final/0252_fw.mp4	0.0	106.97838258743286	0.10011696815490723
13	91.55535435676575	fix_pre	0		120	11.0	2.5	/experiments/Knapen_AOT/AOT_stimuli/rescaled_final/1756_fw.mp4	0.0	107.07849955558777	1.0083858966827393
13	92.56374025344849	movie	1		283	11.0	2.5	/experiments/Knapen_AOT/AOT_stimuli/rescaled_final/1756_fw.mp4	0.0	108.08688545227051	2.4921865463256836
13	92.93741941452026	pulse	1	t		11.0	2.5	/experiments/Knapen_AOT/AOT_stimuli/rescaled_final/1756_fw.mp4	0.0	108.46056461334229	
13	94.53693175315857	pulse	1	t		11.0	2.5	/experiments/Knapen_AOT/AOT_stimuli/rescaled_final/1756_fw.mp4	0.0	110.06007695198059	
13	95.05592679977417	fix_post	2		12	11.0	2.5	/experiments/Knapen_AOT/AOT_stimuli/rescaled_final/1756_fw.mp4	0.0	110.57907199859619	0.09986472129821777
14	95.15579152107239	fix_pre	0		119	12.0	2.5	blank	1.0	110.67893671989441	0.9917919635772705
14	96.13953137397766	pulse	0	t		12.0	2.5	blank	1.0	111.66267657279968	
14	96.14758348464966	movie	1		301	12.0	2.5	blank	1.0	111.67072868347168	2.508726119995117
14	97.73973846435547	pulse	1	t		12.0	2.5	blank	1.0	113.26288366317749	
14	98.65630960464478	fix_post	2		12	12.0	2.5	blank	1.0	114.1794548034668	0.10008025169372559
15	98.7563898563385	fix_pre	0		120	13.0	2.5	/experiments/Knapen_AOT/AOT_stimuli/rescaled_final/2000_rv.mp4	0.0	114.27953505516052	1.0084376335144043
15	99.33998894691467	pulse	0	t		13.0	2.5	/experiments/Knapen_AOT/AOT_stimuli/rescaled_final/2000_rv.mp4	0.0	114.8631341457367	
15	99.7648274898529	movie	1		275	13.0	2.5	/experiments/Knapen_AOT/AOT_stimuli/rescaled_final/2000_rv.mp4	0.0	115.28797268867493	2.4921698570251465
15	100.93843793869019	pulse	1	t		13.0	2.5	/experiments/Knapen_AOT/AOT_stimuli/rescaled_final/2000_rv.mp4	0.0	116.4615831375122	
15	102.25699734687805	fix_post	2		12	13.0	2.5	/experiments/Knapen_AOT/AOT_stimuli/rescaled_final/2000_rv.mp4	0.0	117.78014254570007	0.09989237785339355
16	102.35688972473145	fix_pre	0		120	14.0	2.5	/experiments/Knapen_AOT/AOT_stimuli/rescaled_final/1427_rv.mp4	0.0	117.88003492355347	1.0084893703460693
16	102.54050493240356	pulse	0	t		14.0	2.5	/experiments/Knapen_AOT/AOT_stimuli/rescaled_final/1427_rv.mp4	0.0	118.06365013122559	
16	103.36537909507751	movie	1		292	14.0	2.5	/experiments/Knapen_AOT/AOT_stimuli/rescaled_final/1427_rv.mp4	0.0	118.88852429389954	2.4920380115509033
16	104.1394202709198	pulse	1	t		14.0	2.5	/experiments/Knapen_AOT/AOT_stimuli/rescaled_final/1427_rv.mp4	0.0	119.66256546974182	
16	105.73894882202148	pulse	1	t		14.0	2.5	/experiments/Knapen_AOT/AOT_stimuli/rescaled_final/1427_rv.mp4	0.0	121.2620940208435	
16	105.85741710662842	fix_post	2		12	14.0	2.5	/experiments/Knapen_AOT/AOT_stimuli/rescaled_final/1427_rv.mp4	0.0	121.38056230545044	0.1000370979309082
17	105.95745420455933	fix_pre	0		120	15.0	2.5	/experiments/Knapen_AOT/AOT_stimuli/rescaled_final/1596_fw.mp4	0.0	121.48059940338135	1.0084869861602783
17	106.9659411907196	movie	1		279	15.0	2.5	/experiments/Knapen_AOT/AOT_stimuli/rescaled_final/1596_fw.mp4	0.0	122.48908638954163	2.4920079708099365
17	107.33972573280334	pulse	1	t		15.0	2.5	/experiments/Knapen_AOT/AOT_stimuli/rescaled_final/1596_fw.mp4	0.0	122.86287093162537	
17	108.93907761573792	pulse	1	t		15.0	2.5	/experiments/Knapen_AOT/AOT_stimuli/rescaled_final/1596_fw.mp4	0.0	124.46222281455994	
17	109.45794916152954	fix_post	2		12	15.0	2.5	/experiments/Knapen_AOT/AOT_stimuli/rescaled_final/1596_fw.mp4	0.0	124.98109436035156	0.10009932518005371
18	109.5580484867096	fix_pre	0		119	16.0	2.5	/experiments/Knapen_AOT/AOT_stimuli/rescaled_final/1310_rv.mp4	0.0	125.08119368553162	1.0000684261322021
18	110.5418062210083	pulse	0	t		16.0	2.5	/experiments/Knapen_AOT/AOT_stimuli/rescaled_final/1310_rv.mp4	0.0	126.06495141983032	
18	110.5581169128418	movie	1		288	16.0	2.5	/experiments/Knapen_AOT/AOT_stimuli/rescaled_final/1310_rv.mp4	0.0	126.08126211166382	2.500396490097046
18	112.1401629447937	pulse	1	t		16.0	2.5	/experiments/Knapen_AOT/AOT_stimuli/rescaled_final/1310_rv.mp4	0.0	127.66330814361572	
18	113.05851340293884	fix_post	2		12	16.0	2.5	/experiments/Knapen_AOT/AOT_stimuli/rescaled_final/1310_rv.mp4	0.0	128.58165860176086	0.10001754760742188
19	113.15853095054626	fix_pre	0		120	17.0	2.5	/experiments/Knapen_AOT/AOT_stimuli/rescaled_final/0751_fw.mp4	0.0	128.6816761493683	1.0084705352783203
19	113.74241995811462	pulse	0	t		17.0	2.5	/experiments/Knapen_AOT/AOT_stimuli/rescaled_final/0751_fw.mp4	0.0	129.26556515693665	
19	114.16700148582458	movie	1		287	17.0	2.5	/experiments/Knapen_AOT/AOT_stimuli/rescaled_final/0751_fw.mp4	0.0	129.6901466846466	2.4920644760131836
19	115.34052634239197	pulse	1	t		17.0	2.5	/experiments/Knapen_AOT/AOT_stimuli/rescaled_final/0751_fw.mp4	0.0	130.863671541214	
19	116.65906596183777	fix_post	2		12	17.0	2.5	/experiments/Knapen_AOT/AOT_stimuli/rescaled_final/0751_fw.mp4	0.0	132.1822111606598	0.10000228881835938
20	116.75906825065613	fix_pre	0		120	18.0	2.5	/experiments/Knapen_AOT/AOT_stimuli/rescaled_final/0178_fw.mp4	0.0	132.28221344947815	1.008493423461914
20	116.94263935089111	pulse	0	t		18.0	2.5	/experiments/Knapen_AOT/AOT_stimuli/rescaled_final/0178_fw.mp4	0.0	132.46578454971313	
20	117.76756167411804	movie	1		295	18.0	2.5	/experiments/Knapen_AOT/AOT_stimuli/rescaled_final/0178_fw.mp4	0.0	133.29070687294006	2.49198842048645
20	118.5407247543335	pulse	1	t		18.0	2.5	/experiments/Knapen_AOT/AOT_stimuli/rescaled_final/0178_fw.mp4	0.0	134.06386995315552	
20	120.13901209831238	pulse	1	t		18.0	2.5	/experiments/Knapen_AOT/AOT_stimuli/rescaled_final/0178_fw.mp4	0.0	135.6621572971344	
20	120.25955009460449	fix_post	2		12	18.0	2.5	/experiments/Knapen_AOT/AOT_stimuli/rescaled_final/0178_fw.mp4	0.0	135.7826952934265	0.09999585151672363
21	120.35954594612122	fix_pre	0		120	19.0	2.5	/experiments/Knapen_AOT/AOT_stimuli/rescaled_final/1910_rv.mp4	0.0	135.88269114494324	1.000558853149414
21	121.36010479927063	movie	1		294	19.0	2.5	/experiments/Knapen_AOT/AOT_stimuli/rescaled_final/1910_rv.mp4	0.0	136.88324999809265	2.499972343444824
21	121.74096465110779	pulse	1	t		19.0	2.5	/experiments/Knapen_AOT/AOT_stimuli/rescaled_final/1910_rv.mp4	0.0	137.2641098499298	
21	123.34087872505188	pulse	1	t		19.0	2.5	/experiments/Knapen_AOT/AOT_stimuli/rescaled_final/1910_rv.mp4	0.0	138.8640239238739	
21	123.86007714271545	fix_post	2		12	19.0	2.5	/experiments/Knapen_AOT/AOT_stimuli/rescaled_final/1910_rv.mp4	0.0	139.38322234153748	0.09999847412109375
22	123.96007561683655	fix_pre	0		119	20.0	2.5	/experiments/Knapen_AOT/AOT_stimuli/rescaled_final/0555_rv.mp4	0.0	139.48322081565857	1.0003173351287842
22	124.94373536109924	pulse	0	t		20.0	2.5	/experiments/Knapen_AOT/AOT_stimuli/rescaled_final/0555_rv.mp4	0.0	140.46688055992126	
22	124.96039295196533	movie	1		294	20.0	2.5	/experiments/Knapen_AOT/AOT_stimuli/rescaled_final/0555_rv.mp4	0.0	140.48353815078735	2.500246047973633
22	126.54171323776245	pulse	1	t		20.0	2.5	/experiments/Knapen_AOT/AOT_stimuli/rescaled_final/0555_rv.mp4	0.0	142.06485843658447	
22	127.46063899993896	fix_post	2		12	20.0	2.5	/experiments/Knapen_AOT/AOT_stimuli/rescaled_final/0555_rv.mp4	0.0	142.983784198761	0.10000991821289062
23	127.56064891815186	fix_pre	0		120	21.0	2.5	blank	1.0	143.08379411697388	1.00014328956604
23	128.1442415714264	pulse	0	t		21.0	2.5	blank	1.0	143.6673867702484	
23	128.5607922077179	movie	1		300	21.0	2.5	blank	1.0	144.08393740653992	2.5003879070281982
23	129.74447560310364	pulse	1	t		21.0	2.5	blank	1.0	145.26762080192566	
23	131.0611801147461	fix_post	2		12	21.0	2.5	blank	1.0	146.58432531356812	0.10023736953735352
24	131.16141748428345	fix_pre	0		120	22.0	2.5	/experiments/Knapen_AOT/AOT_stimuli/rescaled_final/1901_fw.mp4	0.0	146.68456268310547	1.008300542831421
24	131.33732318878174	pulse	0	t		22.0	2.5	/experiments/Knapen_AOT/AOT_stimuli/rescaled_final/1901_fw.mp4	0.0	146.86046838760376	
24	132.16971802711487	movie	1		278	22.0	2.5	/experiments/Knapen_AOT/AOT_stimuli/rescaled_final/1901_fw.mp4	0.0	147.6928632259369	2.492013692855835
24	132.94278240203857	pulse	1	t		22.0	2.5	/experiments/Knapen_AOT/AOT_stimuli/rescaled_final/1901_fw.mp4	0.0	148.4659276008606	
24	134.54361128807068	pulse	1	t		22.0	2.5	/experiments/Knapen_AOT/AOT_stimuli/rescaled_final/1901_fw.mp4	0.0	150.0667564868927	
24	134.6617317199707	fix_post	2		12	22.0	2.5	/experiments/Knapen_AOT/AOT_stimuli/rescaled_final/1901_fw.mp4	0.0	150.18487691879272	0.10008597373962402
25	134.76181769371033	fix_pre	0		120	23.0	2.5	/experiments/Knapen_AOT/AOT_stimuli/rescaled_final/2131_rv.mp4	0.0	150.28496289253235	1.008446455001831
25	135.77026414871216	movie	1		281	23.0	2.5	/experiments/Knapen_AOT/AOT_stimuli/rescaled_final/2131_rv.mp4	0.0	151.29340934753418	2.4836835861206055
25	136.13744473457336	pulse	1	t		23.0	2.5	/experiments/Knapen_AOT/AOT_stimuli/rescaled_final/2131_rv.mp4	0.0	151.66058993339539	
25	137.73746848106384	pulse	1	t		23.0	2.5	/experiments/Knapen_AOT/AOT_stimuli/rescaled_final/2131_rv.mp4	0.0	153.26061367988586	
25	138.25394773483276	fix_post	2		13	23.0	2.5	/experiments/Knapen_AOT/AOT_stimuli/rescaled_final/2131_rv.mp4	0.0	153.77709293365479	0.10834956169128418
26	138.36229729652405	fix_pre	0		118	24.0	2.5	/experiments/Knapen_AOT/AOT_stimuli/rescaled_final/1645_fw.mp4	0.0	153.88544249534607	0.9918251037597656
26	139.3376760482788	pulse	0	t		24.0	2.5	/experiments/Knapen_AOT/AOT_stimuli/rescaled_final/1645_fw.mp4	0.0	154.86082124710083	
26	139.3541224002838	movie	1		286	24.0	2.5	/experiments/Knapen_AOT/AOT_stimuli/rescaled_final/1645_fw.mp4	0.0	154.87726759910583	2.500364065170288
26	140.93794345855713	pulse	1	t		24.0	2.5	/experiments/Knapen_AOT/AOT_stimuli/rescaled_final/1645_fw.mp4	0.0	156.46108865737915	
26	141.8544864654541	fix_post	2		12	24.0	2.5	/experiments/Knapen_AOT/AOT_stimuli/rescaled_final/1645_fw.mp4	0.0	157.37763166427612	0.10002756118774414
27	141.95451402664185	fix_pre	0		120	25.0	2.5	/experiments/Knapen_AOT/AOT_stimuli/rescaled_final/2000_rv.mp4	0.0	157.47765922546387	1.0085070133209229
27	142.5381474494934	pulse	0	t		25.0	2.5	/experiments/Knapen_AOT/AOT_stimuli/rescaled_final/2000_rv.mp4	0.0	158.06129264831543	
27	142.96302103996277	movie	1		292	25.0	2.5	/experiments/Knapen_AOT/AOT_stimuli/rescaled_final/2000_rv.mp4	0.0	158.4861662387848	2.49214768409729
27	144.13845992088318	pulse	1	t		25.0	2.5	/experiments/Knapen_AOT/AOT_stimuli/rescaled_final/2000_rv.mp4	0.0	159.6616051197052	
27	145.45516872406006	fix_post	2		12	25.0	2.5	/experiments/Knapen_AOT/AOT_stimuli/rescaled_final/2000_rv.mp4	0.0	160.97831392288208	0.09994006156921387
28	145.55510878562927	fix_pre	0		120	26.0	2.5	blank	1.0	161.0782539844513	1.000072717666626
28	145.73862838745117	pulse	0	t		26.0	2.5	blank	1.0	161.2617735862732	
28	146.5551815032959	movie	1		300	26.0	2.5	blank	1.0	162.07832670211792	2.5005478858947754
28	147.33886337280273	pulse	1	t		26.0	2.5	blank	1.0	162.86200857162476	
28	148.93927311897278	pulse	1	t		26.0	2.5	blank	1.0	164.4624183177948	
28	149.05572938919067	fix_post	2		12	26.0	2.5	blank	1.0	164.5788745880127	0.09986186027526855
29	149.15559124946594	fix_pre	0		120	27.0	2.5	/experiments/Knapen_AOT/AOT_stimuli/rescaled_final/0396_rv.mp4	0.0	164.67873644828796	1.0085084438323975
29	150.16409969329834	movie	1		270	27.0	2.5	/experiments/Knapen_AOT/AOT_stimuli/rescaled_final/0396_rv.mp4	0.0	165.68724489212036	2.4920108318328857
29	150.5377631187439	pulse	1	t		27.0	2.5	/experiments/Knapen_AOT/AOT_stimuli/rescaled_final/0396_rv.mp4	0.0	166.06090831756592	
29	152.1376039981842	pulse	1	t		27.0	2.5	/experiments/Knapen_AOT/AOT_stimuli/rescaled_final/0396_rv.mp4	0.0	167.66074919700623	
29	152.65611052513123	fix_post	2		12	27.0	2.5	/experiments/Knapen_AOT/AOT_stimuli/rescaled_final/0396_rv.mp4	0.0	168.17925572395325	0.10002517700195312
30	152.75613570213318	fix_pre	0		119	28.0	2.5	/experiments/Knapen_AOT/AOT_stimuli/rescaled_final/0751_fw.mp4	0.0	168.2792809009552	1.000199794769287
30	153.7399501800537	pulse	0	t		28.0	2.5	/experiments/Knapen_AOT/AOT_stimuli/rescaled_final/0751_fw.mp4	0.0	169.26309537887573	
30	153.75633549690247	movie	1		280	28.0	2.5	/experiments/Knapen_AOT/AOT_stimuli/rescaled_final/0751_fw.mp4	0.0	169.2794806957245	2.500340461730957
30	155.3385865688324	pulse	1	t		28.0	2.5	/experiments/Knapen_AOT/AOT_stimuli/rescaled_final/0751_fw.mp4	0.0	170.86173176765442	
30	156.25667595863342	fix_post	2		12	28.0	2.5	/experiments/Knapen_AOT/AOT_stimuli/rescaled_final/0751_fw.mp4	0.0	171.77982115745544	0.10000157356262207
31	156.35667753219604	fix_pre	0		120	29.0	2.5	/experiments/Knapen_AOT/AOT_stimuli/rescaled_final/1893_fw.mp4	0.0	171.87982273101807	1.0084686279296875
31	156.94030117988586	pulse	0	t		29.0	2.5	/experiments/Knapen_AOT/AOT_stimuli/rescaled_final/1893_fw.mp4	0.0	172.46344637870789	
31	157.36514616012573	movie	1		284	29.0	2.5	/experiments/Knapen_AOT/AOT_stimuli/rescaled_final/1893_fw.mp4	0.0	172.88829135894775	2.4920177459716797
31	158.53890705108643	pulse	1	t		29.0	2.5	/experiments/Knapen_AOT/AOT_stimuli/rescaled_final/1893_fw.mp4	0.0	174.06205224990845	
31	159.8571639060974	fix_post	2		12	29.0	2.5	/experiments/Knapen_AOT/AOT_stimuli/rescaled_final/1893_fw.mp4	0.0	175.38030910491943	0.10004687309265137
32	159.95721077919006	fix_pre	0		120	30.0	2.5	/experiments/Knapen_AOT/AOT_stimuli/rescaled_final/1507_rv.mp4	0.0	175.48035597801208	1.0085105895996094
32	160.14085340499878	pulse	0	t		30.0	2.5	/experiments/Knapen_AOT/AOT_stimuli/rescaled_final/1507_rv.mp4	0.0	175.6639986038208	
32	160.96572136878967	movie	1		276	30.0	2.5	/experiments/Knapen_AOT/AOT_stimuli/rescaled_final/1507_rv.mp4	0.0	176.4888665676117	2.492025136947632
32	161.739408493042	pulse	1	t		30.0	2.5	/experiments/Knapen_AOT/AOT_stimuli/rescaled_final/1507_rv.mp4	0.0	177.262553691864	
32	163.3391878604889	pulse	1	t		30.0	2.5	/experiments/Knapen_AOT/AOT_stimuli/rescaled_final/1507_rv.mp4	0.0	178.8623330593109	
32	163.4577465057373	fix_post	2		12	30.0	2.5	/experiments/Knapen_AOT/AOT_stimuli/rescaled_final/1507_rv.mp4	0.0	178.98089170455933	0.1000373363494873
33	163.5577838420868	fix_pre	0		120	31.0	2.5	/experiments/Knapen_AOT/AOT_stimuli/rescaled_final/1397_fw.mp4	0.0	179.0809290409088	1.0085132122039795
33	164.56629705429077	movie	1		284	31.0	2.5	/experiments/Knapen_AOT/AOT_stimuli/rescaled_final/1397_fw.mp4	0.0	180.0894422531128	2.4919912815093994
33	164.940101146698	pulse	1	t		31.0	2.5	/experiments/Knapen_AOT/AOT_stimuli/rescaled_final/1397_fw.mp4	0.0	180.46324634552002	
33	166.53980612754822	pulse	1	t		31.0	2.5	/experiments/Knapen_AOT/AOT_stimuli/rescaled_final/1397_fw.mp4	0.0	182.06295132637024	
33	167.05828833580017	fix_post	2		12	31.0	2.5	/experiments/Knapen_AOT/AOT_stimuli/rescaled_final/1397_fw.mp4	0.0	182.5814335346222	0.09999632835388184
34	167.15828466415405	fix_pre	0		119	32.0	2.5	/experiments/Knapen_AOT/AOT_stimuli/rescaled_final/0730_rv.mp4	0.0	182.68142986297607	1.0001435279846191
34	168.14210319519043	pulse	0	t		32.0	2.5	/experiments/Knapen_AOT/AOT_stimuli/rescaled_final/0730_rv.mp4	0.0	183.66524839401245	
34	168.15842819213867	movie	1		291	32.0	2.5	/experiments/Knapen_AOT/AOT_stimuli/rescaled_final/0730_rv.mp4	0.0	183.6815733909607	2.5004141330718994
34	169.74073100090027	pulse	1	t		32.0	2.5	/experiments/Knapen_AOT/AOT_stimuli/rescaled_final/0730_rv.mp4	0.0	185.2638761997223	
34	170.65884232521057	fix_post	2		12	32.0	2.5	/experiments/Knapen_AOT/AOT_stimuli/rescaled_final/0730_rv.mp4	0.0	186.1819875240326	0.10001087188720703
35	170.75885319709778	fix_pre	0		120	33.0	2.5	blank	1.0	186.2819983959198	1.0001392364501953
35	171.34249925613403	pulse	0	t		33.0	2.5	blank	1.0	186.86564445495605	
35	171.75899243354797	movie	1		300	33.0	2.5	blank	1.0	187.28213763237	2.5003621578216553
35	172.9429271221161	pulse	1	t		33.0	2.5	blank	1.0	188.4660723209381	
35	174.25935459136963	fix_post	2		12	33.0	2.5	blank	1.0	189.78249979019165	0.10004019737243652
36	174.35939478874207	fix_pre	0		120	34.0	2.5	/experiments/Knapen_AOT/AOT_stimuli/rescaled_final/0122_rv.mp4	0.0	189.8825399875641	1.0084843635559082
36	174.5429425239563	pulse	0	t		34.0	2.5	/experiments/Knapen_AOT/AOT_stimuli/rescaled_final/0122_rv.mp4	0.0	190.06608772277832	
36	175.36787915229797	movie	1		276	34.0	2.5	/experiments/Knapen_AOT/AOT_stimuli/rescaled_final/0122_rv.mp4	0.0	190.89102435112	2.492050886154175
36	176.14118361473083	pulse	1	t		34.0	2.5	/experiments/Knapen_AOT/AOT_stimuli/rescaled_final/0122_rv.mp4	0.0	191.66432881355286	
36	177.7413649559021	pulse	1	t		34.0	2.5	/experiments/Knapen_AOT/AOT_stimuli/rescaled_final/0122_rv.mp4	0.0	193.26451015472412	
36	177.85993003845215	fix_post	2		12	34.0	2.5	/experiments/Knapen_AOT/AOT_stimuli/rescaled_final/0122_rv.mp4	0.0	193.38307523727417	0.10000014305114746
37	177.9599301815033	fix_pre	0		120	35.0	2.5	/experiments/Knapen_AOT/AOT_stimuli/rescaled_final/1335_rv.mp4	0.0	193.48307538032532	1.0084869861602783
37	178.96841716766357	movie	1		283	35.0	2.5	/experiments/Knapen_AOT/AOT_stimuli/rescaled_final/1335_rv.mp4	0.0	194.4915623664856	2.500366449356079
37	179.34190797805786	pulse	1	t		35.0	2.5	/experiments/Knapen_AOT/AOT_stimuli/rescaled_final/1335_rv.mp4	0.0	194.86505317687988	
37	180.9417040348053	pulse	1	t		35.0	2.5	/experiments/Knapen_AOT/AOT_stimuli/rescaled_final/1335_rv.mp4	0.0	196.46484923362732	
37	181.46878361701965	fix_post	2		11	35.0	2.5	/experiments/Knapen_AOT/AOT_stimuli/rescaled_final/1335_rv.mp4	0.0	196.99192881584167	0.09169387817382812
38	181.56047749519348	fix_pre	0		119	36.0	2.5	/experiments/Knapen_AOT/AOT_stimuli/rescaled_final/0844_rv.mp4	0.0	197.0836226940155	1.0001862049102783
38	182.54419660568237	pulse	0	t		36.0	2.5	/experiments/Knapen_AOT/AOT_stimuli/rescaled_final/0844_rv.mp4	0.0	198.0673418045044	
38	182.56066370010376	movie	1		289	36.0	2.5	/experiments/Knapen_AOT/AOT_stimuli/rescaled_final/0844_rv.mp4	0.0	198.08380889892578	2.500415802001953
38	184.1430058479309	pulse	1	t		36.0	2.5	/experiments/Knapen_AOT/AOT_stimuli/rescaled_final/0844_rv.mp4	0.0	199.66615104675293	
38	185.0610795021057	fix_post	2		12	36.0	2.5	/experiments/Knapen_AOT/AOT_stimuli/rescaled_final/0844_rv.mp4	0.0	200.58422470092773	0.09995174407958984
39	185.1610312461853	fix_pre	0		120	37.0	2.5	/experiments/Knapen_AOT/AOT_stimuli/rescaled_final/1495_rv.mp4	0.0	200.68417644500732	1.008504867553711
39	185.74482417106628	pulse	0	t		37.0	2.5	/experiments/Knapen_AOT/AOT_stimuli/rescaled_final/1495_rv.mp4	0.0	201.2679693698883	
39	186.169536113739	movie	1		292	37.0	2.5	/experiments/Knapen_AOT/AOT_stimuli/rescaled_final/1495_rv.mp4	0.0	201.69268131256104	2.491990327835083
39	187.3433759212494	pulse	1	t		37.0	2.5	/experiments/Knapen_AOT/AOT_stimuli/rescaled_final/1495_rv.mp4	0.0	202.8665211200714	
39	188.6615264415741	fix_post	2		12	37.0	2.5	/experiments/Knapen_AOT/AOT_stimuli/rescaled_final/1495_rv.mp4	0.0	204.18467164039612	0.10003495216369629
40	188.7615613937378	fix_pre	0		120	38.0	2.5	/experiments/Knapen_AOT/AOT_stimuli/rescaled_final/0744_fw.mp4	0.0	204.28470659255981	1.008507251739502
40	188.93679904937744	pulse	0	t		38.0	2.5	/experiments/Knapen_AOT/AOT_stimuli/rescaled_final/0744_fw.mp4	0.0	204.45994424819946	
40	189.7700686454773	movie	1		287	38.0	2.5	/experiments/Knapen_AOT/AOT_stimuli/rescaled_final/0744_fw.mp4	0.0	205.29321384429932	2.4920642375946045
40	190.53710842132568	pulse	1	t		38.0	2.5	/experiments/Knapen_AOT/AOT_stimuli/rescaled_final/0744_fw.mp4	0.0	206.0602536201477	
40	192.13754987716675	pulse	1	t		38.0	2.5	/experiments/Knapen_AOT/AOT_stimuli/rescaled_final/0744_fw.mp4	0.0	207.66069507598877	
40	192.2621328830719	fix_post	2		12	38.0	2.5	/experiments/Knapen_AOT/AOT_stimuli/rescaled_final/0744_fw.mp4	0.0	207.78527808189392	0.1000065803527832
41	192.36213946342468	fix_pre	0		120	39.0	2.5	/experiments/Knapen_AOT/AOT_stimuli/rescaled_final/0764_fw.mp4	0.0	207.8852846622467	1.00846529006958
41	193.37060475349426	movie	1		278	39.0	2.5	/experiments/Knapen_AOT/AOT_stimuli/rescaled_final/0764_fw.mp4	0.0	208.89374995231628	2.492025136947632
41	193.7370126247406	pulse	1	t		39.0	2.5	/experiments/Knapen_AOT/AOT_stimuli/rescaled_final/0764_fw.mp4	0.0	209.26015782356262	
41	195.33775448799133	pulse	1	t		39.0	2.5	/experiments/Knapen_AOT/AOT_stimuli/rescaled_final/0764_fw.mp4	0.0	210.86089968681335	
41	195.8626298904419	fix_post	2		12	39.0	2.5	/experiments/Knapen_AOT/AOT_stimuli/rescaled_final/0764_fw.mp4	0.0	211.38577508926392	0.10000443458557129
42	195.96263432502747	fix_pre	0		118	40.0	2.5	/experiments/Knapen_AOT/AOT_stimuli/rescaled_final/1496_rv.mp4	0.0	211.4857795238495	0.992011547088623
42	196.9380910396576	pulse	0	t		40.0	2.5	/experiments/Knapen_AOT/AOT_stimuli/rescaled_final/1496_rv.mp4	0.0	212.46123623847961	
42	196.9546458721161	movie	1		280	40.0	2.5	/experiments/Knapen_AOT/AOT_stimuli/rescaled_final/1496_rv.mp4	0.0	212.4777910709381	2.500166893005371
42	198.5369324684143	pulse	1	t		40.0	2.5	/experiments/Knapen_AOT/AOT_stimuli/rescaled_final/1496_rv.mp4	0.0	214.06007766723633	
42	199.45481276512146	fix_post	2		12	40.0	2.5	/experiments/Knapen_AOT/AOT_stimuli/rescaled_final/1496_rv.mp4	0.0	214.97795796394348	0.10002803802490234
43	199.55484080314636	fix_pre	0		119	41.0	2.5	/experiments/Knapen_AOT/AOT_stimuli/rescaled_final/1319_rv.mp4	0.0	215.07798600196838	1.0085084438323975
43	200.138503074646	pulse	0	t		41.0	2.5	/experiments/Knapen_AOT/AOT_stimuli/rescaled_final/1319_rv.mp4	0.0	215.66164827346802	
43	200.56334924697876	movie	1		275	41.0	2.5	/experiments/Knapen_AOT/AOT_stimuli/rescaled_final/1319_rv.mp4	0.0	216.08649444580078	2.4920156002044678
43	201.73682928085327	pulse	1	t		41.0	2.5	/experiments/Knapen_AOT/AOT_stimuli/rescaled_final/1319_rv.mp4	0.0	217.2599744796753	
43	203.05536484718323	fix_post	2		12	41.0	2.5	/experiments/Knapen_AOT/AOT_stimuli/rescaled_final/1319_rv.mp4	0.0	218.57851004600525	0.1000208854675293
44	203.15538573265076	fix_pre	0		120	42.0	2.5	blank	1.0	218.67853093147278	1.0001425743103027
44	203.3390085697174	pulse	0	t		42.0	2.5	blank	1.0	218.86215376853943	
44	204.15552830696106	movie	1		299	42.0	2.5	blank	1.0	219.67867350578308	2.5004189014434814
44	204.93923044204712	pulse	1	t		42.0	2.5	blank	1.0	220.46237564086914	
44	206.53952741622925	pulse	1	t		42.0	2.5	blank	1.0	222.06267261505127	
44	206.65594720840454	fix_post	2		12	42.0	2.5	blank	1.0	222.17909240722656	0.09997773170471191
45	206.75592494010925	fix_pre	0		120	43.0	2.5	/experiments/Knapen_AOT/AOT_stimuli/rescaled_final/0144_rv.mp4	0.0	222.27907013893127	1.008495569229126
45	207.76442050933838	movie	1		271	43.0	2.5	/experiments/Knapen_AOT/AOT_stimuli/rescaled_final/0144_rv.mp4	0.0	223.2875657081604	2.4920670986175537
45	208.13782858848572	pulse	1	t		43.0	2.5	/experiments/Knapen_AOT/AOT_stimuli/rescaled_final/0144_rv.mp4	0.0	223.66097378730774	
45	209.7385036945343	pulse	1	t		43.0	2.5	/experiments/Knapen_AOT/AOT_stimuli/rescaled_final/0144_rv.mp4	0.0	225.26164889335632	
45	210.25648760795593	fix_post	2		12	43.0	2.5	/experiments/Knapen_AOT/AOT_stimuli/rescaled_final/0144_rv.mp4	0.0	225.77963280677795	0.10002326965332031
46	210.35651087760925	fix_pre	0		119	44.0	2.5	/experiments/Knapen_AOT/AOT_stimuli/rescaled_final/1817_rv.mp4	0.0	225.87965607643127	1.0001780986785889
46	211.34018898010254	pulse	0	t		44.0	2.5	/experiments/Knapen_AOT/AOT_stimuli/rescaled_final/1817_rv.mp4	0.0	226.86333417892456	
46	211.35668897628784	movie	1		280	44.0	2.5	/experiments/Knapen_AOT/AOT_stimuli/rescaled_final/1817_rv.mp4	0.0	226.87983417510986	2.5003275871276855
46	212.93889451026917	pulse	1	t		44.0	2.5	/experiments/Knapen_AOT/AOT_stimuli/rescaled_final/1817_rv.mp4	0.0	228.4620397090912	
46	213.85701656341553	fix_post	2		12	44.0	2.5	/experiments/Knapen_AOT/AOT_stimuli/rescaled_final/1817_rv.mp4	0.0	229.38016176223755	0.10001707077026367
47	213.9570336341858	fix_pre	0		120	45.0	2.5	/experiments/Knapen_AOT/AOT_stimuli/rescaled_final/0212_rv.mp4	0.0	229.4801788330078	1.0084896087646484
47	214.5406186580658	pulse	0	t		45.0	2.5	/experiments/Knapen_AOT/AOT_stimuli/rescaled_final/0212_rv.mp4	0.0	230.06376385688782	
47	214.96552324295044	movie	1		270	45.0	2.5	/experiments/Knapen_AOT/AOT_stimuli/rescaled_final/0212_rv.mp4	0.0	230.48866844177246	2.4920852184295654
47	216.13944673538208	pulse	1	t		45.0	2.5	/experiments/Knapen_AOT/AOT_stimuli/rescaled_final/0212_rv.mp4	0.0	231.6625919342041	
47	217.45760846138	fix_post	2		12	45.0	2.5	/experiments/Knapen_AOT/AOT_stimuli/rescaled_final/0212_rv.mp4	0.0	232.98075366020203	0.09993696212768555
48	217.5575454235077	fix_pre	0		103	46.0	2.5	/experiments/Knapen_AOT/AOT_stimuli/rescaled_final/1085_rv.mp4	0.0	233.0806906223297	1.008500337600708
48	217.7412371635437	pulse	0	t		46.0	2.5	/experiments/Knapen_AOT/AOT_stimuli/rescaled_final/1085_rv.mp4	0.0	233.26438236236572	
48	218.5660457611084	movie	1		273	46.0	2.5	/experiments/Knapen_AOT/AOT_stimuli/rescaled_final/1085_rv.mp4	0.0	234.08919095993042	2.4920315742492676
48	219.3416290283203	pulse	1	t		46.0	2.5	/experiments/Knapen_AOT/AOT_stimuli/rescaled_final/1085_rv.mp4	0.0	234.86477422714233	
48	220.93957781791687	pulse	1	t		46.0	2.5	/experiments/Knapen_AOT/AOT_stimuli/rescaled_final/1085_rv.mp4	0.0	236.4627230167389	
48	221.05807733535767	fix_post	2		12	46.0	2.5	/experiments/Knapen_AOT/AOT_stimuli/rescaled_final/1085_rv.mp4	0.0	236.5812225341797	0.10001802444458008
49	221.15809535980225	fix_pre	0		120	47.0	2.5	blank	1.0	236.68124055862427	1.000138521194458
49	222.1582338809967	movie	1		300	47.0	2.5	blank	1.0	237.68137907981873	2.500377655029297
49	222.54209399223328	pulse	1	t		47.0	2.5	blank	1.0	238.0652391910553	
49	224.1421205997467	pulse	1	t		47.0	2.5	blank	1.0	239.66526579856873	
49	224.658611536026	fix_post	2		12	47.0	2.5	blank	1.0	240.18175673484802	0.10001587867736816
50	224.75862741470337	fix_pre	0		119	48.0	2.5	/experiments/Knapen_AOT/AOT_stimuli/rescaled_final/0195_fw.mp4	0.0	240.2817726135254	1.000190019607544
50	225.7422957420349	pulse	0	t		48.0	2.5	/experiments/Knapen_AOT/AOT_stimuli/rescaled_final/0195_fw.mp4	0.0	241.26544094085693	
50	225.7588174343109	movie	1		269	48.0	2.5	/experiments/Knapen_AOT/AOT_stimuli/rescaled_final/0195_fw.mp4	0.0	241.28196263313293	2.5003321170806885
50	227.3427062034607	pulse	1	t		48.0	2.5	/experiments/Knapen_AOT/AOT_stimuli/rescaled_final/0195_fw.mp4	0.0	242.86585140228271	
50	228.2591495513916	fix_post	2		12	48.0	2.5	/experiments/Knapen_AOT/AOT_stimuli/rescaled_final/0195_fw.mp4	0.0	243.78229475021362	0.10005784034729004
51	228.3592073917389	fix_pre	0		120	49.0	2.5	/experiments/Knapen_AOT/AOT_stimuli/rescaled_final/2126_fw.mp4	0.0	243.8823525905609	1.0084569454193115
51	228.94279623031616	pulse	0	t		49.0	2.5	/experiments/Knapen_AOT/AOT_stimuli/rescaled_final/2126_fw.mp4	0.0	244.46594142913818	
51	229.3676643371582	movie	1		283	49.0	2.5	/experiments/Knapen_AOT/AOT_stimuli/rescaled_final/2126_fw.mp4	0.0	244.89080953598022	2.4920427799224854
51	230.54105687141418	pulse	1	t		49.0	2.5	/experiments/Knapen_AOT/AOT_stimuli/rescaled_final/2126_fw.mp4	0.0	246.0642020702362	
51	231.8597071170807	fix_post	2		12	49.0	2.5	/experiments/Knapen_AOT/AOT_stimuli/rescaled_final/2126_fw.mp4	0.0	247.3828523159027	0.100006103515625
52	231.9597132205963	fix_pre	0		120	50.0	2.5	/experiments/Knapen_AOT/AOT_stimuli/rescaled_final/1314_rv.mp4	0.0	247.48285841941833	1.0084922313690186
52	232.14326167106628	pulse	0	t		50.0	2.5	/experiments/Knapen_AOT/AOT_stimuli/rescaled_final/1314_rv.mp4	0.0	247.6664068698883	
52	232.96820545196533	movie	1		281	50.0	2.5	/experiments/Knapen_AOT/AOT_stimuli/rescaled_final/1314_rv.mp4	0.0	248.49135065078735	2.492030382156372
52	233.74130773544312	pulse	1	t		50.0	2.5	/experiments/Knapen_AOT/AOT_stimuli/rescaled_final/1314_rv.mp4	0.0	249.26445293426514	
52	235.34196591377258	pulse	1	t		50.0	2.5	/experiments/Knapen_AOT/AOT_stimuli/rescaled_final/1314_rv.mp4	0.0	250.8651111125946	
52	235.4602358341217	fix_post	2		12	50.0	2.5	/experiments/Knapen_AOT/AOT_stimuli/rescaled_final/1314_rv.mp4	0.0	250.98338103294373	0.10001492500305176
53	235.56025075912476	fix_pre	0		120	51.0	2.5	/experiments/Knapen_AOT/AOT_stimuli/rescaled_final/0301_rv.mp4	0.0	251.08339595794678	1.0086383819580078
53	236.56888914108276	movie	1		270	51.0	2.5	/experiments/Knapen_AOT/AOT_stimuli/rescaled_final/0301_rv.mp4	0.0	252.09203433990479	2.4919393062591553
53	236.94275331497192	pulse	1	t		51.0	2.5	/experiments/Knapen_AOT/AOT_stimuli/rescaled_final/0301_rv.mp4	0.0	252.46589851379395	
53	238.542542219162	pulse	1	t		51.0	2.5	/experiments/Knapen_AOT/AOT_stimuli/rescaled_final/0301_rv.mp4	0.0	254.065687417984	
53	239.06082844734192	fix_post	2		12	51.0	2.5	/experiments/Knapen_AOT/AOT_stimuli/rescaled_final/0301_rv.mp4	0.0	254.58397364616394	0.0999746322631836
54	239.1608030796051	fix_pre	0		119	52.0	2.5	/experiments/Knapen_AOT/AOT_stimuli/rescaled_final/0949_fw.mp4	0.0	254.68394827842712	1.0002832412719727
54	240.14453434944153	pulse	0	t		52.0	2.5	/experiments/Knapen_AOT/AOT_stimuli/rescaled_final/0949_fw.mp4	0.0	255.66767954826355	
54	240.16108632087708	movie	1		281	52.0	2.5	/experiments/Knapen_AOT/AOT_stimuli/rescaled_final/0949_fw.mp4	0.0	255.6842315196991	2.5002353191375732
54	241.74353885650635	pulse	1	t		52.0	2.5	/experiments/Knapen_AOT/AOT_stimuli/rescaled_final/0949_fw.mp4	0.0	257.26668405532837	
54	242.66132164001465	fix_post	2		12	52.0	2.5	/experiments/Knapen_AOT/AOT_stimuli/rescaled_final/0949_fw.mp4	0.0	258.18446683883667	0.10015153884887695
55	242.76147317886353	fix_pre	0		120	53.0	2.5	/experiments/Knapen_AOT/AOT_stimuli/rescaled_final/1571_rv.mp4	0.0	258.28461837768555	1.0083978176116943
55	243.3373429775238	pulse	0	t		53.0	2.5	/experiments/Knapen_AOT/AOT_stimuli/rescaled_final/1571_rv.mp4	0.0	258.8604881763458	
55	243.76987099647522	movie	1		281	53.0	2.5	/experiments/Knapen_AOT/AOT_stimuli/rescaled_final/1571_rv.mp4	0.0	259.29301619529724	2.4920146465301514
55	244.93728137016296	pulse	1	t		53.0	2.5	/experiments/Knapen_AOT/AOT_stimuli/rescaled_final/1571_rv.mp4	0.0	260.460426568985	
55	246.26188564300537	fix_post	2		12	53.0	2.5	/experiments/Knapen_AOT/AOT_stimuli/rescaled_final/1571_rv.mp4	0.0	261.7850308418274	0.10000801086425781
56	246.36189365386963	fix_pre	0		120	54.0	2.5	blank	1.0	261.88503885269165	1.000199794769287
56	246.53726077079773	pulse	0	t		54.0	2.5	blank	1.0	262.06040596961975	
56	247.36209344863892	movie	1		300	54.0	2.5	blank	1.0	262.88523864746094	2.5003182888031006
56	248.13751554489136	pulse	1	t		54.0	2.5	blank	1.0	263.6606607437134	
56	249.73771500587463	pulse	1	t		54.0	2.5	blank	1.0	265.26086020469666	
56	249.86241173744202	fix_post	2		12	54.0	2.5	blank	1.0	265.38555693626404	0.10001301765441895
57	249.96242475509644	fix_pre	0		120	55.0	2.5	/experiments/Knapen_AOT/AOT_stimuli/rescaled_final/0415_rv.mp4	0.0	265.48556995391846	1.0085244178771973
57	250.97094917297363	movie	1		264	55.0	2.5	/experiments/Knapen_AOT/AOT_stimuli/rescaled_final/0415_rv.mp4	0.0	266.49409437179565	2.492259979248047
57	251.3374149799347	pulse	1	t		55.0	2.5	/experiments/Knapen_AOT/AOT_stimuli/rescaled_final/0415_rv.mp4	0.0	266.8605601787567	
57	252.9381513595581	pulse	1	t		55.0	2.5	/experiments/Knapen_AOT/AOT_stimuli/rescaled_final/0415_rv.mp4	0.0	268.4612965583801	
57	253.46320915222168	fix_post	2		12	55.0	2.5	/experiments/Knapen_AOT/AOT_stimuli/rescaled_final/0415_rv.mp4	0.0	268.9863543510437	0.09978389739990234
58	253.56299304962158	fix_pre	0		118	56.0	2.5	/experiments/Knapen_AOT/AOT_stimuli/rescaled_final/1596_rv.mp4	0.0	269.0861382484436	0.9918599128723145
58	254.53836917877197	pulse	0	t		56.0	2.5	/experiments/Knapen_AOT/AOT_stimuli/rescaled_final/1596_rv.mp4	0.0	270.061514377594	
58	254.5548529624939	movie	1		284	56.0	2.5	/experiments/Knapen_AOT/AOT_stimuli/rescaled_final/1596_rv.mp4	0.0	270.0779981613159	2.5003373622894287
58	256.1371388435364	pulse	1	t		56.0	2.5	/experiments/Knapen_AOT/AOT_stimuli/rescaled_final/1596_rv.mp4	0.0	271.6602840423584	
58	257.0551903247833	fix_post	2		12	56.0	2.5	/experiments/Knapen_AOT/AOT_stimuli/rescaled_final/1596_rv.mp4	0.0	272.57833552360535	0.1000213623046875
59	257.155211687088	fix_pre	0		120	57.0	2.5	/experiments/Knapen_AOT/AOT_stimuli/rescaled_final/0706_fw.mp4	0.0	272.67835688591003	1.0084598064422607
59	257.73882579803467	pulse	0	t		57.0	2.5	/experiments/Knapen_AOT/AOT_stimuli/rescaled_final/0706_fw.mp4	0.0	273.2619709968567	
59	258.1636714935303	movie	1		270	57.0	2.5	/experiments/Knapen_AOT/AOT_stimuli/rescaled_final/0706_fw.mp4	0.0	273.6868166923523	2.492068290710449
59	259.3390758037567	pulse	1	t		57.0	2.5	/experiments/Knapen_AOT/AOT_stimuli/rescaled_final/0706_fw.mp4	0.0	274.86222100257874	
59	260.6557397842407	fix_post	2		12	57.0	2.5	/experiments/Knapen_AOT/AOT_stimuli/rescaled_final/0706_fw.mp4	0.0	276.17888498306274	0.09993624687194824
60	260.75567603111267	fix_pre	0		120	58.0	2.5	/experiments/Knapen_AOT/AOT_stimuli/rescaled_final/0302_fw.mp4	0.0	276.2788212299347	1.00856351852417
60	260.93949127197266	pulse	0	t		58.0	2.5	/experiments/Knapen_AOT/AOT_stimuli/rescaled_final/0302_fw.mp4	0.0	276.4626364707947	
60	261.76423954963684	movie	1		280	58.0	2.5	/experiments/Knapen_AOT/AOT_stimuli/rescaled_final/0302_fw.mp4	0.0	277.28738474845886	2.491990804672241
60	262.53804779052734	pulse	1	t		58.0	2.5	/experiments/Knapen_AOT/AOT_stimuli/rescaled_final/0302_fw.mp4	0.0	278.06119298934937	
60	264.1399173736572	pulse	1	t		58.0	2.5	/experiments/Knapen_AOT/AOT_stimuli/rescaled_final/0302_fw.mp4	0.0	279.66306257247925	
60	264.2562303543091	fix_post	2		12	58.0	2.5	/experiments/Knapen_AOT/AOT_stimuli/rescaled_final/0302_fw.mp4	0.0	279.7793755531311	0.10003089904785156
61	264.35626125335693	fix_pre	0		120	59.0	2.5	/experiments/Knapen_AOT/AOT_stimuli/rescaled_final/1336_rv.mp4	0.0	279.87940645217896	1.0084924697875977
61	265.36475372314453	movie	1		274	59.0	2.5	/experiments/Knapen_AOT/AOT_stimuli/rescaled_final/1336_rv.mp4	0.0	280.88789892196655	2.4920132160186768
61	265.7388117313385	pulse	1	t		59.0	2.5	/experiments/Knapen_AOT/AOT_stimuli/rescaled_final/1336_rv.mp4	0.0	281.2619569301605	
61	267.3381915092468	pulse	1	t		59.0	2.5	/experiments/Knapen_AOT/AOT_stimuli/rescaled_final/1336_rv.mp4	0.0	282.86133670806885	
61	267.8567669391632	fix_post	2		12	59.0	2.5	/experiments/Knapen_AOT/AOT_stimuli/rescaled_final/1336_rv.mp4	0.0	283.37991213798523	0.10002279281616211
62	267.95678973197937	fix_pre	0		119	60.0	2.5	/experiments/Knapen_AOT/AOT_stimuli/rescaled_final/1801_fw.mp4	0.0	283.4799349308014	1.0002079010009766
62	268.9408314228058	pulse	0	t		60.0	2.5	/experiments/Knapen_AOT/AOT_stimuli/rescaled_final/1801_fw.mp4	0.0	284.4639766216278	
62	268.95699763298035	movie	1		283	60.0	2.5	/experiments/Knapen_AOT/AOT_stimuli/rescaled_final/1801_fw.mp4	0.0	284.48014283180237	2.5003199577331543
62	270.53938031196594	pulse	1	t		60.0	2.5	/experiments/Knapen_AOT/AOT_stimuli/rescaled_final/1801_fw.mp4	0.0	286.06252551078796	
62	271.4573175907135	fix_post	2		12	60.0	2.5	/experiments/Knapen_AOT/AOT_stimuli/rescaled_final/1801_fw.mp4	0.0	286.9804627895355	0.10013675689697266
63	271.5574543476105	fix_pre	0		120	61.0	2.5	/experiments/Knapen_AOT/AOT_stimuli/rescaled_final/0169_fw.mp4	0.0	287.0805995464325	1.0084335803985596
63	272.1409595012665	pulse	0	t		61.0	2.5	/experiments/Knapen_AOT/AOT_stimuli/rescaled_final/0169_fw.mp4	0.0	287.6641047000885	
63	272.56588792800903	movie	1		269	61.0	2.5	/experiments/Knapen_AOT/AOT_stimuli/rescaled_final/0169_fw.mp4	0.0	288.08903312683105	2.492194414138794
63	273.7393434047699	pulse	1	t		61.0	2.5	/experiments/Knapen_AOT/AOT_stimuli/rescaled_final/0169_fw.mp4	0.0	289.2624886035919	
63	275.0580823421478	fix_post	2		12	61.0	2.5	/experiments/Knapen_AOT/AOT_stimuli/rescaled_final/0169_fw.mp4	0.0	290.58122754096985	0.09982943534851074
64	275.15791177749634	fix_pre	0		120	62.0	2.5	/experiments/Knapen_AOT/AOT_stimuli/rescaled_final/1310_fw.mp4	0.0	290.68105697631836	1.0084774494171143
64	275.3415675163269	pulse	0	t		62.0	2.5	/experiments/Knapen_AOT/AOT_stimuli/rescaled_final/1310_fw.mp4	0.0	290.8647127151489	
64	276.16638922691345	movie	1		281	62.0	2.5	/experiments/Knapen_AOT/AOT_stimuli/rescaled_final/1310_fw.mp4	0.0	291.6895344257355	2.4920196533203125
64	276.93953824043274	pulse	1	t		62.0	2.5	/experiments/Knapen_AOT/AOT_stimuli/rescaled_final/1310_fw.mp4	0.0	292.46268343925476	
64	278.5396840572357	pulse	1	t		62.0	2.5	/experiments/Knapen_AOT/AOT_stimuli/rescaled_final/1310_fw.mp4	0.0	294.06282925605774	
64	278.65840888023376	fix_post	2		12	62.0	2.5	/experiments/Knapen_AOT/AOT_stimuli/rescaled_final/1310_fw.mp4	0.0	294.1815540790558	0.10001230239868164
65	278.75842118263245	fix_pre	0		120	63.0	2.5	blank	1.0	294.28156638145447	1.0001583099365234
65	279.75857949256897	movie	1		300	63.0	2.5	blank	1.0	295.281724691391	2.5003662109375
65	280.14215207099915	pulse	1	t		63.0	2.5	blank	1.0	295.66529726982117	
65	281.7424886226654	pulse	1	t		63.0	2.5	blank	1.0	297.2656338214874	
65	282.25894570350647	fix_post	2		12	63.0	2.5	blank	1.0	297.7820909023285	0.10003471374511719
66	282.3589804172516	fix_pre	0		119	64.0	2.5	/experiments/Knapen_AOT/AOT_stimuli/rescaled_final/0207_fw.mp4	0.0	297.8821256160736	1.0001349449157715
66	283.3427975177765	pulse	0	t		64.0	2.5	/experiments/Knapen_AOT/AOT_stimuli/rescaled_final/0207_fw.mp4	0.0	298.8659427165985	
66	283.35911536216736	movie	1		283	64.0	2.5	/experiments/Knapen_AOT/AOT_stimuli/rescaled_final/0207_fw.mp4	0.0	298.8822605609894	2.5004148483276367
66	284.94149827957153	pulse	1	t		64.0	2.5	/experiments/Knapen_AOT/AOT_stimuli/rescaled_final/0207_fw.mp4	0.0	300.46464347839355	
66	285.859530210495	fix_post	2		12	64.0	2.5	/experiments/Knapen_AOT/AOT_stimuli/rescaled_final/0207_fw.mp4	0.0	301.382675409317	0.10004448890686035
67	285.95957469940186	fix_pre	0		120	65.0	2.5	/experiments/Knapen_AOT/AOT_stimuli/rescaled_final/0114_fw.mp4	0.0	301.4827198982239	1.008427619934082
67	286.54317474365234	pulse	0	t		65.0	2.5	/experiments/Knapen_AOT/AOT_stimuli/rescaled_final/0114_fw.mp4	0.0	302.06631994247437	
67	286.96800231933594	movie	1		287	65.0	2.5	/experiments/Knapen_AOT/AOT_stimuli/rescaled_final/0114_fw.mp4	0.0	302.49114751815796	2.492035150527954
67	288.14157009124756	pulse	1	t		65.0	2.5	/experiments/Knapen_AOT/AOT_stimuli/rescaled_final/0114_fw.mp4	0.0	303.6647152900696	
67	289.4600374698639	fix_post	2		12	65.0	2.5	/experiments/Knapen_AOT/AOT_stimuli/rescaled_final/0114_fw.mp4	0.0	304.9831826686859	0.10003399848937988
68	289.56007146835327	fix_pre	0		120	66.0	2.5	/experiments/Knapen_AOT/AOT_stimuli/rescaled_final/1671_rv.mp4	0.0	305.0832166671753	1.008530616760254
68	289.7437138557434	pulse	0	t		66.0	2.5	/experiments/Knapen_AOT/AOT_stimuli/rescaled_final/1671_rv.mp4	0.0	305.26685905456543	
68	290.5686020851135	movie	1		261	66.0	2.5	/experiments/Knapen_AOT/AOT_stimuli/rescaled_final/1671_rv.mp4	0.0	306.09174728393555	2.4919750690460205
68	291.3425693511963	pulse	1	t		66.0	2.5	/experiments/Knapen_AOT/AOT_stimuli/rescaled_final/1671_rv.mp4	0.0	306.8657145500183	
68	292.9419629573822	pulse	1	t		66.0	2.5	/experiments/Knapen_AOT/AOT_stimuli/rescaled_final/1671_rv.mp4	0.0	308.4651081562042	
68	293.06057715415955	fix_post	2		12	66.0	2.5	/experiments/Knapen_AOT/AOT_stimuli/rescaled_final/1671_rv.mp4	0.0	308.58372235298157	0.09999585151672363
69	293.16057300567627	fix_pre	0		120	67.0	2.5	/experiments/Knapen_AOT/AOT_stimuli/rescaled_final/1453_rv.mp4	0.0	308.6837182044983	1.0085182189941406
69	294.1690912246704	movie	1		269	67.0	2.5	/experiments/Knapen_AOT/AOT_stimuli/rescaled_final/1453_rv.mp4	0.0	309.69223642349243	2.4920270442962646
69	294.5440993309021	pulse	1	t		67.0	2.5	/experiments/Knapen_AOT/AOT_stimuli/rescaled_final/1453_rv.mp4	0.0	310.0672445297241	
69	296.14272832870483	pulse	1	t		67.0	2.5	/experiments/Knapen_AOT/AOT_stimuli/rescaled_final/1453_rv.mp4	0.0	311.66587352752686	
69	296.6611182689667	fix_post	2		12	67.0	2.5	/experiments/Knapen_AOT/AOT_stimuli/rescaled_final/1453_rv.mp4	0.0	312.1842634677887	0.10001802444458008
70	296.76113629341125	fix_pre	0		119	68.0	2.5	/experiments/Knapen_AOT/AOT_stimuli/rescaled_final/1901_rv.mp4	0.0	312.2842814922333	1.0002245903015137
70	297.7377772331238	pulse	0	t		68.0	2.5	/experiments/Knapen_AOT/AOT_stimuli/rescaled_final/1901_rv.mp4	0.0	313.2609224319458	
70	297.76136088371277	movie	1		275	68.0	2.5	/experiments/Knapen_AOT/AOT_stimuli/rescaled_final/1901_rv.mp4	0.0	313.2845060825348	2.5003020763397217
70	299.3434000015259	pulse	1	t		68.0	2.5	/experiments/Knapen_AOT/AOT_stimuli/rescaled_final/1901_rv.mp4	0.0	314.8665452003479	
70	300.2616629600525	fix_post	2		12	68.0	2.5	/experiments/Knapen_AOT/AOT_stimuli/rescaled_final/1901_rv.mp4	0.0	315.7848081588745	0.10004973411560059
71	300.3617126941681	fix_pre	0		120	69.0	2.5	blank	1.0	315.8848578929901	1.0001025199890137
71	300.93765115737915	pulse	0	t		69.0	2.5	blank	1.0	316.4607963562012	
71	301.3618152141571	movie	1		300	69.0	2.5	blank	1.0	316.8849604129791	2.500480890274048
71	302.537636756897	pulse	1	t		69.0	2.5	blank	1.0	318.060781955719	
71	303.86229610443115	fix_post	2		12	69.0	2.5	blank	1.0	319.3854413032532	0.09999656677246094
72	303.9622926712036	fix_pre	0		120	70.0	2.5	/experiments/Knapen_AOT/AOT_stimuli/rescaled_final/1507_fw.mp4	0.0	319.48543787002563	1.008488416671753
72	304.1375434398651	pulse	0	t		70.0	2.5	/experiments/Knapen_AOT/AOT_stimuli/rescaled_final/1507_fw.mp4	0.0	319.66068863868713	
72	304.97078108787537	movie	1		285	70.0	2.5	/experiments/Knapen_AOT/AOT_stimuli/rescaled_final/1507_fw.mp4	0.0	320.4939262866974	2.4919450283050537
72	305.7377860546112	pulse	1	t		70.0	2.5	/experiments/Knapen_AOT/AOT_stimuli/rescaled_final/1507_fw.mp4	0.0	321.2609312534332	
72	307.3386318683624	pulse	1	t		70.0	2.5	/experiments/Knapen_AOT/AOT_stimuli/rescaled_final/1507_fw.mp4	0.0	322.86177706718445	
72	307.4627261161804	fix_post	2		12	70.0	2.5	/experiments/Knapen_AOT/AOT_stimuli/rescaled_final/1507_fw.mp4	0.0	322.98587131500244	0.10001063346862793
73	307.56273674964905	fix_pre	0		120	71.0	2.5	/experiments/Knapen_AOT/AOT_stimuli/rescaled_final/2174_fw.mp4	0.0	323.08588194847107	1.0085268020629883
73	308.57126355171204	movie	1		277	71.0	2.5	/experiments/Knapen_AOT/AOT_stimuli/rescaled_final/2174_fw.mp4	0.0	324.09440875053406	2.4920120239257812
73	308.9381721019745	pulse	1	t		71.0	2.5	/experiments/Knapen_AOT/AOT_stimuli/rescaled_final/2174_fw.mp4	0.0	324.4613173007965	
73	310.53883147239685	pulse	1	t		71.0	2.5	/experiments/Knapen_AOT/AOT_stimuli/rescaled_final/2174_fw.mp4	0.0	326.0619766712189	
73	311.0632755756378	fix_post	2		12	71.0	2.5	/experiments/Knapen_AOT/AOT_stimuli/rescaled_final/2174_fw.mp4	0.0	326.58642077445984	0.10012578964233398
74	311.16340136528015	fix_pre	0		118	72.0	2.5	/experiments/Knapen_AOT/AOT_stimuli/rescaled_final/1785_fw.mp4	0.0	326.6865465641022	0.9917206764221191
74	312.13870549201965	pulse	0	t		72.0	2.5	/experiments/Knapen_AOT/AOT_stimuli/rescaled_final/1785_fw.mp4	0.0	327.6618506908417	
74	312.15512204170227	movie	1		266	72.0	2.5	/experiments/Knapen_AOT/AOT_stimuli/rescaled_final/1785_fw.mp4	0.0	327.6782672405243	2.500358819961548
74	313.73894929885864	pulse	1	t		72.0	2.5	/experiments/Knapen_AOT/AOT_stimuli/rescaled_final/1785_fw.mp4	0.0	329.26209449768066	
74	314.6554808616638	fix_post	2		12	72.0	2.5	/experiments/Knapen_AOT/AOT_stimuli/rescaled_final/1785_fw.mp4	0.0	330.17862606048584	0.10003423690795898
75	314.7555150985718	fix_pre	0		120	73.0	2.5	/experiments/Knapen_AOT/AOT_stimuli/rescaled_final/0891_fw.mp4	0.0	330.2786602973938	1.0084893703460693
75	315.33917355537415	pulse	0	t		73.0	2.5	/experiments/Knapen_AOT/AOT_stimuli/rescaled_final/0891_fw.mp4	0.0	330.86231875419617	
75	315.76400446891785	movie	1		268	73.0	2.5	/experiments/Knapen_AOT/AOT_stimuli/rescaled_final/0891_fw.mp4	0.0	331.28714966773987	2.4922165870666504
75	316.9378192424774	pulse	1	t		73.0	2.5	/experiments/Knapen_AOT/AOT_stimuli/rescaled_final/0891_fw.mp4	0.0	332.46096444129944	
75	318.2562210559845	fix_post	2		12	73.0	2.5	/experiments/Knapen_AOT/AOT_stimuli/rescaled_final/0891_fw.mp4	0.0	333.7793662548065	0.09985136985778809
76	318.3560724258423	fix_pre	0		120	74.0	2.5	/experiments/Knapen_AOT/AOT_stimuli/rescaled_final/1785_rv.mp4	0.0	333.8792176246643	1.0085089206695557
76	318.5396592617035	pulse	0	t		74.0	2.5	/experiments/Knapen_AOT/AOT_stimuli/rescaled_final/1785_rv.mp4	0.0	334.0628044605255	
76	319.36458134651184	movie	1		286	74.0	2.5	/experiments/Knapen_AOT/AOT_stimuli/rescaled_final/1785_rv.mp4	0.0	334.88772654533386	2.4919989109039307
76	320.13815212249756	pulse	1	t		74.0	2.5	/experiments/Knapen_AOT/AOT_stimuli/rescaled_final/1785_rv.mp4	0.0	335.6612973213196	
76	321.7382936477661	pulse	1	t		74.0	2.5	/experiments/Knapen_AOT/AOT_stimuli/rescaled_final/1785_rv.mp4	0.0	337.26143884658813	
76	321.85658025741577	fix_post	2		12	74.0	2.5	/experiments/Knapen_AOT/AOT_stimuli/rescaled_final/1785_rv.mp4	0.0	337.3797254562378	0.10000014305114746
77	321.9565804004669	fix_pre	0		120	75.0	2.5	blank	1.0	337.47972559928894	1.000178575515747
77	322.95675897598267	movie	1		300	75.0	2.5	blank	1.0	338.4799041748047	2.500351667404175
77	323.3403477668762	pulse	1	t		75.0	2.5	blank	1.0	338.86349296569824	
77	324.9405927658081	pulse	1	t		75.0	2.5	blank	1.0	340.4637379646301	
77	325.45711064338684	fix_post	2		11	75.0	2.5	blank	1.0	340.98025584220886	0.10004448890686035
78	325.5571551322937	fix_pre	0		119	76.0	2.5	/experiments/Knapen_AOT/AOT_stimuli/rescaled_final/1993_fw.mp4	0.0	341.0803003311157	1.0085437297821045
78	326.54080080986023	pulse	0	t		76.0	2.5	/experiments/Knapen_AOT/AOT_stimuli/rescaled_final/1993_fw.mp4	0.0	342.06394600868225	
78	326.5656988620758	movie	1		275	76.0	2.5	/experiments/Knapen_AOT/AOT_stimuli/rescaled_final/1993_fw.mp4	0.0	342.0888440608978	2.491953134536743
78	328.13950753211975	pulse	1	t		76.0	2.5	/experiments/Knapen_AOT/AOT_stimuli/rescaled_final/1993_fw.mp4	0.0	343.6626527309418	
78	329.05765199661255	fix_post	2		12	76.0	2.5	/experiments/Knapen_AOT/AOT_stimuli/rescaled_final/1993_fw.mp4	0.0	344.58079719543457	0.10002565383911133
79	329.15767765045166	fix_pre	0		120	77.0	2.5	/experiments/Knapen_AOT/AOT_stimuli/rescaled_final/0551_fw.mp4	0.0	344.6808228492737	1.008533000946045
79	329.74139642715454	pulse	0	t		77.0	2.5	/experiments/Knapen_AOT/AOT_stimuli/rescaled_final/0551_fw.mp4	0.0	345.26454162597656	
79	330.1662106513977	movie	1		267	77.0	2.5	/experiments/Knapen_AOT/AOT_stimuli/rescaled_final/0551_fw.mp4	0.0	345.6893558502197	2.492093801498413
79	331.34014534950256	pulse	1	t		77.0	2.5	/experiments/Knapen_AOT/AOT_stimuli/rescaled_final/0551_fw.mp4	0.0	346.8632905483246	
79	332.6583044528961	fix_post	2		12	77.0	2.5	/experiments/Knapen_AOT/AOT_stimuli/rescaled_final/0551_fw.mp4	0.0	348.18144965171814	0.09993243217468262
80	332.7582368850708	fix_pre	0		120	78.0	2.5	/experiments/Knapen_AOT/AOT_stimuli/rescaled_final/0919_fw.mp4	0.0	348.2813820838928	1.008467674255371
80	332.9417736530304	pulse	0	t		78.0	2.5	/experiments/Knapen_AOT/AOT_stimuli/rescaled_final/0919_fw.mp4	0.0	348.4649188518524	
80	333.7667045593262	movie	1		263	78.0	2.5	/experiments/Knapen_AOT/AOT_stimuli/rescaled_final/0919_fw.mp4	0.0	349.2898497581482	2.4920337200164795
80	334.53980708122253	pulse	1	t		78.0	2.5	/experiments/Knapen_AOT/AOT_stimuli/rescaled_final/0919_fw.mp4	0.0	350.06295228004456	
80	336.14045333862305	pulse	1	t		78.0	2.5	/experiments/Knapen_AOT/AOT_stimuli/rescaled_final/0919_fw.mp4	0.0	351.66359853744507	
80	336.25873827934265	fix_post	2		12	78.0	2.5	/experiments/Knapen_AOT/AOT_stimuli/rescaled_final/0919_fw.mp4	0.0	351.7818834781647	0.10001540184020996
81	336.35875368118286	fix_pre	0		120	79.0	2.5	/experiments/Knapen_AOT/AOT_stimuli/rescaled_final/1411_fw.mp4	0.0	351.8818988800049	1.0084953308105469
81	337.3672490119934	movie	1		265	79.0	2.5	/experiments/Knapen_AOT/AOT_stimuli/rescaled_final/1411_fw.mp4	0.0	352.89039421081543	2.4920272827148438
81	337.7412042617798	pulse	1	t		79.0	2.5	/experiments/Knapen_AOT/AOT_stimuli/rescaled_final/1411_fw.mp4	0.0	353.2643494606018	
81	339.3410315513611	pulse	1	t		79.0	2.5	/experiments/Knapen_AOT/AOT_stimuli/rescaled_final/1411_fw.mp4	0.0	354.8641767501831	
81	339.85927629470825	fix_post	2		12	79.0	2.5	/experiments/Knapen_AOT/AOT_stimuli/rescaled_final/1411_fw.mp4	0.0	355.3824214935303	0.10001325607299805
82	339.95928955078125	fix_pre	0		119	80.0	2.5	/experiments/Knapen_AOT/AOT_stimuli/rescaled_final/1646_rv.mp4	0.0	355.48243474960327	1.0006053447723389
82	340.9429771900177	pulse	0	t		80.0	2.5	/experiments/Knapen_AOT/AOT_stimuli/rescaled_final/1646_rv.mp4	0.0	356.4661223888397	
82	340.9598948955536	movie	1		288	80.0	2.5	/experiments/Knapen_AOT/AOT_stimuli/rescaled_final/1646_rv.mp4	0.0	356.4830400943756	2.4999265670776367
82	342.5419774055481	pulse	1	t		80.0	2.5	/experiments/Knapen_AOT/AOT_stimuli/rescaled_final/1646_rv.mp4	0.0	358.0651226043701	
82	343.4598214626312	fix_post	2		12	80.0	2.5	/experiments/Knapen_AOT/AOT_stimuli/rescaled_final/1646_rv.mp4	0.0	358.98296666145325	0.10002446174621582
83	343.55984592437744	fix_pre	0		120	81.0	2.5	/experiments/Knapen_AOT/AOT_stimuli/rescaled_final/1366_rv.mp4	0.0	359.08299112319946	1.0084953308105469
83	344.14346146583557	pulse	0	t		81.0	2.5	/experiments/Knapen_AOT/AOT_stimuli/rescaled_final/1366_rv.mp4	0.0	359.6666066646576	
83	344.568341255188	movie	1		276	81.0	2.5	/experiments/Knapen_AOT/AOT_stimuli/rescaled_final/1366_rv.mp4	0.0	360.09148645401	2.4920225143432617
83	345.7420926094055	pulse	1	t		81.0	2.5	/experiments/Knapen_AOT/AOT_stimuli/rescaled_final/1366_rv.mp4	0.0	361.26523780822754	
83	347.06036376953125	fix_post	2		12	81.0	2.5	/experiments/Knapen_AOT/AOT_stimuli/rescaled_final/1366_rv.mp4	0.0	362.58350896835327	0.1000375747680664
84	347.1604013442993	fix_pre	0		120	82.0	2.5	/experiments/Knapen_AOT/AOT_stimuli/rescaled_final/2086_rv.mp4	0.0	362.68354654312134	1.0084853172302246
84	347.3441300392151	pulse	0	t		82.0	2.5	/experiments/Knapen_AOT/AOT_stimuli/rescaled_final/2086_rv.mp4	0.0	362.8672752380371	
84	348.16888666152954	movie	1		249	82.0	2.5	/experiments/Knapen_AOT/AOT_stimuli/rescaled_final/2086_rv.mp4	0.0	363.69203186035156	2.4920103549957275
84	348.9422550201416	pulse	1	t		82.0	2.5	/experiments/Knapen_AOT/AOT_stimuli/rescaled_final/2086_rv.mp4	0.0	364.4654002189636	
84	350.5427072048187	pulse	1	t		82.0	2.5	/experiments/Knapen_AOT/AOT_stimuli/rescaled_final/2086_rv.mp4	0.0	366.06585240364075	
84	350.66089701652527	fix_post	2		12	82.0	2.5	/experiments/Knapen_AOT/AOT_stimuli/rescaled_final/2086_rv.mp4	0.0	366.1840422153473	0.10013628005981445
85	350.7610332965851	fix_pre	0		120	83.0	2.5	blank	1.0	366.2841784954071	1.0000486373901367
85	351.7610819339752	movie	1		299	83.0	2.5	blank	1.0	367.28422713279724	2.500366687774658
85	352.1447675228119	pulse	1	t		83.0	2.5	blank	1.0	367.6679127216339	
85	353.7378752231598	pulse	1	t		83.0	2.5	blank	1.0	369.2610204219818	
85	354.2614486217499	fix_post	2		12	83.0	2.5	blank	1.0	369.7845938205719	0.1000223159790039
87	354.3614709377289	stim	0		1715					369.8846161365509	14.293820142745972
87	355.33886647224426	pulse	0	t						370.8620116710663	
87	356.9380075931549	pulse	0	t						372.46115279197693	
87	358.5373077392578	pulse	0	t						374.06045293807983	
87	360.1377754211426	pulse	0	t						375.6609206199646	
87	361.7378969192505	pulse	0	t						377.2610421180725	
87	363.3381419181824	pulse	0	t						378.8612871170044	
87	364.93849873542786	pulse	0	t						380.4616439342499	
87	366.53879404067993	pulse	0	t						382.06193923950195	
87	368.1387212276459	pulse	0	t						383.6618664264679	
