trial_nr	onset	event_type	phase	response	nr_frames	movie_index	movie_duration	movie_file	blank	onset_abs	duration
0	0.14162230491638184	stim	0		29					94.86537027359009	0.24151945114135742
0	0.3756825923919678	response	0	space						95.09943056106567	
1	0.38314175605773926	stim	0		4591					95.10688972473145	38.27301573753357
1	38.646894216537476	pulse	0	t						133.37064218521118	
1	38.65615749359131	stim	1		1715					133.37990546226501	14.301542282104492
1	40.23934984207153	pulse	1	t						134.96309781074524	
1	41.839722871780396	pulse	1	t						136.5634708404541	
1	43.440046072006226	pulse	1	t						138.16379404067993	
1	45.04015493392944	pulse	1	t						139.76390290260315	
1	46.64030146598816	pulse	1	t						141.36404943466187	
1	48.240493059158325	pulse	1	t						142.96424102783203	
1	49.840739250183105	pulse	1	t						144.5644872188568	
1	51.44103813171387	pulse	1	t						146.16478610038757	
2	52.9576997756958	fix_pre	0		11	0.0	2.5	/experiments/Knapen_AOT/AOT_stimuli/rescaled_final/2115_fw.mp4	0.0	147.6814477443695	0.10836529731750488
2	53.041255950927734	pulse	0	t		0.0	2.5	/experiments/Knapen_AOT/AOT_stimuli/rescaled_final/2115_fw.mp4	0.0	147.76500391960144	
2	53.066065073013306	movie	1		274	0.0	2.5	/experiments/Knapen_AOT/AOT_stimuli/rescaled_final/2115_fw.mp4	0.0	147.789813041687	2.4920129776000977
2	54.63992214202881	pulse	1	t		0.0	2.5	/experiments/Knapen_AOT/AOT_stimuli/rescaled_final/2115_fw.mp4	0.0	149.36367011070251	
2	55.5580780506134	fix_post	2		12	0.0	2.5	/experiments/Knapen_AOT/AOT_stimuli/rescaled_final/2115_fw.mp4	0.0	150.2818260192871	0.10001897811889648
3	55.6580970287323	fix_pre	0		120	1.0	2.5	/experiments/Knapen_AOT/AOT_stimuli/rescaled_final/2125_fw.mp4	0.0	150.381844997406	1.008533239364624
3	56.24171853065491	pulse	0	t		1.0	2.5	/experiments/Knapen_AOT/AOT_stimuli/rescaled_final/2125_fw.mp4	0.0	150.9654664993286	
3	56.666630268096924	movie	1		280	1.0	2.5	/experiments/Knapen_AOT/AOT_stimuli/rescaled_final/2125_fw.mp4	0.0	151.39037823677063	2.492020606994629
3	57.8401415348053	pulse	1	t		1.0	2.5	/experiments/Knapen_AOT/AOT_stimuli/rescaled_final/2125_fw.mp4	0.0	152.563889503479	
3	59.15865087509155	fix_post	2		12	1.0	2.5	/experiments/Knapen_AOT/AOT_stimuli/rescaled_final/2125_fw.mp4	0.0	153.88239884376526	0.10006260871887207
4	59.258713483810425	fix_pre	0		120	2.0	2.5	/experiments/Knapen_AOT/AOT_stimuli/rescaled_final/0661_fw.mp4	0.0	153.98246145248413	1.0084307193756104
4	59.44223189353943	pulse	0	t		2.0	2.5	/experiments/Knapen_AOT/AOT_stimuli/rescaled_final/0661_fw.mp4	0.0	154.16597986221313	
4	60.267144203186035	movie	1		283	2.0	2.5	/experiments/Knapen_AOT/AOT_stimuli/rescaled_final/0661_fw.mp4	0.0	154.99089217185974	2.4920332431793213
4	61.04039669036865	pulse	1	t		2.0	2.5	/experiments/Knapen_AOT/AOT_stimuli/rescaled_final/0661_fw.mp4	0.0	155.76414465904236	
4	62.64058709144592	pulse	1	t		2.0	2.5	/experiments/Knapen_AOT/AOT_stimuli/rescaled_final/0661_fw.mp4	0.0	157.36433506011963	
4	62.759177446365356	fix_post	2		12	2.0	2.5	/experiments/Knapen_AOT/AOT_stimuli/rescaled_final/0661_fw.mp4	0.0	157.48292541503906	0.100067138671875
5	62.85924458503723	fix_pre	0		120	3.0	2.5	/experiments/Knapen_AOT/AOT_stimuli/rescaled_final/2152_fw.mp4	0.0	157.58299255371094	1.008446455001831
5	63.86769104003906	movie	1		276	3.0	2.5	/experiments/Knapen_AOT/AOT_stimuli/rescaled_final/2152_fw.mp4	0.0	158.59143900871277	2.492004156112671
5	64.24308514595032	pulse	1	t		3.0	2.5	/experiments/Knapen_AOT/AOT_stimuli/rescaled_final/2152_fw.mp4	0.0	158.96683311462402	
5	65.84132647514343	pulse	1	t		3.0	2.5	/experiments/Knapen_AOT/AOT_stimuli/rescaled_final/2152_fw.mp4	0.0	160.56507444381714	
5	66.35969519615173	fix_post	2		12	3.0	2.5	/experiments/Knapen_AOT/AOT_stimuli/rescaled_final/2152_fw.mp4	0.0	161.08344316482544	0.10006189346313477
6	66.45975708961487	fix_pre	0		119	4.0	2.5	/experiments/Knapen_AOT/AOT_stimuli/rescaled_final/1209_rv.mp4	0.0	161.18350505828857	1.0001270771026611
6	67.4434003829956	pulse	0	t		4.0	2.5	/experiments/Knapen_AOT/AOT_stimuli/rescaled_final/1209_rv.mp4	0.0	162.1671483516693	
6	67.45988416671753	movie	1		281	4.0	2.5	/experiments/Knapen_AOT/AOT_stimuli/rescaled_final/1209_rv.mp4	0.0	162.18363213539124	2.500359296798706
6	69.0418484210968	pulse	1	t		4.0	2.5	/experiments/Knapen_AOT/AOT_stimuli/rescaled_final/1209_rv.mp4	0.0	163.7655963897705	
6	69.96024346351624	fix_post	2		12	4.0	2.5	/experiments/Knapen_AOT/AOT_stimuli/rescaled_final/1209_rv.mp4	0.0	164.68399143218994	0.10002970695495605
7	70.06027317047119	fix_pre	0		120	5.0	2.5	/experiments/Knapen_AOT/AOT_stimuli/rescaled_final/2125_rv.mp4	0.0	164.7840211391449	1.0084805488586426
7	70.64404129981995	pulse	0	t		5.0	2.5	/experiments/Knapen_AOT/AOT_stimuli/rescaled_final/2125_rv.mp4	0.0	165.36778926849365	
7	71.06875371932983	movie	1		283	5.0	2.5	/experiments/Knapen_AOT/AOT_stimuli/rescaled_final/2125_rv.mp4	0.0	165.79250168800354	2.492067575454712
7	72.2424201965332	pulse	1	t		5.0	2.5	/experiments/Knapen_AOT/AOT_stimuli/rescaled_final/2125_rv.mp4	0.0	166.9661681652069	
7	73.56082129478455	fix_post	2		12	5.0	2.5	/experiments/Knapen_AOT/AOT_stimuli/rescaled_final/2125_rv.mp4	0.0	168.28456926345825	0.0999917984008789
8	73.66081309318542	fix_pre	0		120	6.0	2.5	/experiments/Knapen_AOT/AOT_stimuli/rescaled_final/1962_fw.mp4	0.0	168.38456106185913	1.0085487365722656
8	73.83631587028503	pulse	0	t		6.0	2.5	/experiments/Knapen_AOT/AOT_stimuli/rescaled_final/1962_fw.mp4	0.0	168.56006383895874	
8	74.66936182975769	movie	1		290	6.0	2.5	/experiments/Knapen_AOT/AOT_stimuli/rescaled_final/1962_fw.mp4	0.0	169.3931097984314	2.49198055267334
8	75.43661236763	pulse	1	t		6.0	2.5	/experiments/Knapen_AOT/AOT_stimuli/rescaled_final/1962_fw.mp4	0.0	170.1603603363037	
8	77.0364716053009	pulse	1	t		6.0	2.5	/experiments/Knapen_AOT/AOT_stimuli/rescaled_final/1962_fw.mp4	0.0	171.7602195739746	
8	77.16134238243103	fix_post	2		12	6.0	2.5	/experiments/Knapen_AOT/AOT_stimuli/rescaled_final/1962_fw.mp4	0.0	171.88509035110474	0.10006093978881836
9	77.26140332221985	fix_pre	0		120	7.0	2.5	blank	1.0	171.98515129089355	1.000082015991211
9	78.26148533821106	movie	1		300	7.0	2.5	blank	1.0	172.98523330688477	2.5003764629364014
9	78.63683366775513	pulse	1	t		7.0	2.5	blank	1.0	173.36058163642883	
9	80.23725819587708	pulse	1	t		7.0	2.5	blank	1.0	174.96100616455078	
9	80.76186180114746	fix_post	2		12	7.0	2.5	blank	1.0	175.48560976982117	0.10010790824890137
10	80.86196970939636	fix_pre	0		118	8.0	2.5	/experiments/Knapen_AOT/AOT_stimuli/rescaled_final/0366_rv.mp4	0.0	175.58571767807007	0.9918093681335449
10	81.83729791641235	pulse	0	t		8.0	2.5	/experiments/Knapen_AOT/AOT_stimuli/rescaled_final/0366_rv.mp4	0.0	176.56104588508606	
10	81.85377907752991	movie	1		287	8.0	2.5	/experiments/Knapen_AOT/AOT_stimuli/rescaled_final/0366_rv.mp4	0.0	176.5775270462036	2.500293016433716
10	83.43629026412964	pulse	1	t		8.0	2.5	/experiments/Knapen_AOT/AOT_stimuli/rescaled_final/0366_rv.mp4	0.0	178.16003823280334	
10	84.35407209396362	fix_post	2		12	8.0	2.5	/experiments/Knapen_AOT/AOT_stimuli/rescaled_final/0366_rv.mp4	0.0	179.07782006263733	0.10002470016479492
11	84.45409679412842	fix_pre	0		120	9.0	2.5	/experiments/Knapen_AOT/AOT_stimuli/rescaled_final/1199_rv.mp4	0.0	179.17784476280212	1.008563756942749
11	85.0377881526947	pulse	0	t		9.0	2.5	/experiments/Knapen_AOT/AOT_stimuli/rescaled_final/1199_rv.mp4	0.0	179.7615361213684	
11	85.46266055107117	movie	1		279	9.0	2.5	/experiments/Knapen_AOT/AOT_stimuli/rescaled_final/1199_rv.mp4	0.0	180.18640851974487	2.491971492767334
11	86.63717317581177	pulse	1	t		9.0	2.5	/experiments/Knapen_AOT/AOT_stimuli/rescaled_final/1199_rv.mp4	0.0	181.36092114448547	
11	87.9546320438385	fix_post	2		12	9.0	2.5	/experiments/Knapen_AOT/AOT_stimuli/rescaled_final/1199_rv.mp4	0.0	182.6783800125122	0.10000967979431152
12	88.05464172363281	fix_pre	0		120	10.0	2.5	/experiments/Knapen_AOT/AOT_stimuli/rescaled_final/1431_fw.mp4	0.0	182.77838969230652	1.0085639953613281
12	88.23838424682617	pulse	0	t		10.0	2.5	/experiments/Knapen_AOT/AOT_stimuli/rescaled_final/1431_fw.mp4	0.0	182.96213221549988	
12	89.06320571899414	movie	1		284	10.0	2.5	/experiments/Knapen_AOT/AOT_stimuli/rescaled_final/1431_fw.mp4	0.0	183.78695368766785	2.491957426071167
12	89.8369951248169	pulse	1	t		10.0	2.5	/experiments/Knapen_AOT/AOT_stimuli/rescaled_final/1431_fw.mp4	0.0	184.5607430934906	
12	91.43767547607422	pulse	1	t		10.0	2.5	/experiments/Knapen_AOT/AOT_stimuli/rescaled_final/1431_fw.mp4	0.0	186.16142344474792	
12	91.55516314506531	fix_post	2		12	10.0	2.5	/experiments/Knapen_AOT/AOT_stimuli/rescaled_final/1431_fw.mp4	0.0	186.278911113739	0.1000356674194336
13	91.65519881248474	fix_pre	0		120	11.0	2.5	/experiments/Knapen_AOT/AOT_stimuli/rescaled_final/0050_rv.mp4	0.0	186.37894678115845	1.0084819793701172
13	92.66368079185486	movie	1		287	11.0	2.5	/experiments/Knapen_AOT/AOT_stimuli/rescaled_final/0050_rv.mp4	0.0	187.38742876052856	2.492030143737793
13	93.03688836097717	pulse	1	t		11.0	2.5	/experiments/Knapen_AOT/AOT_stimuli/rescaled_final/0050_rv.mp4	0.0	187.76063632965088	
13	94.63906717300415	pulse	1	t		11.0	2.5	/experiments/Knapen_AOT/AOT_stimuli/rescaled_final/0050_rv.mp4	0.0	189.36281514167786	
13	95.15571093559265	fix_post	2		12	11.0	2.5	/experiments/Knapen_AOT/AOT_stimuli/rescaled_final/0050_rv.mp4	0.0	189.87945890426636	0.10001802444458008
14	95.25572896003723	fix_pre	0		119	12.0	2.5	blank	1.0	189.97947692871094	0.991814136505127
14	96.23950171470642	pulse	0	t		12.0	2.5	blank	1.0	190.96324968338013	
14	96.24754309654236	movie	1		301	12.0	2.5	blank	1.0	190.97129106521606	2.5086989402770996
14	97.83997535705566	pulse	1	t		12.0	2.5	blank	1.0	192.56372332572937	
14	98.75624203681946	fix_post	2		12	12.0	2.5	blank	1.0	193.47999000549316	0.10013580322265625
15	98.85637784004211	fix_pre	0		120	13.0	2.5	/experiments/Knapen_AOT/AOT_stimuli/rescaled_final/2053_fw.mp4	0.0	193.58012580871582	1.008399248123169
15	99.43996477127075	pulse	0	t		13.0	2.5	/experiments/Knapen_AOT/AOT_stimuli/rescaled_final/2053_fw.mp4	0.0	194.16371273994446	
15	99.86477708816528	movie	1		285	13.0	2.5	/experiments/Knapen_AOT/AOT_stimuli/rescaled_final/2053_fw.mp4	0.0	194.588525056839	2.4920074939727783
15	101.03793978691101	pulse	1	t		13.0	2.5	/experiments/Knapen_AOT/AOT_stimuli/rescaled_final/2053_fw.mp4	0.0	195.76168775558472	
15	102.35678458213806	fix_post	2		12	13.0	2.5	/experiments/Knapen_AOT/AOT_stimuli/rescaled_final/2053_fw.mp4	0.0	197.08053255081177	0.10002255439758301
16	102.45680713653564	fix_pre	0		120	14.0	2.5	/experiments/Knapen_AOT/AOT_stimuli/rescaled_final/2178_rv.mp4	0.0	197.18055510520935	1.0084912776947021
16	102.64032769203186	pulse	0	t		14.0	2.5	/experiments/Knapen_AOT/AOT_stimuli/rescaled_final/2178_rv.mp4	0.0	197.36407566070557	
16	103.46529841423035	movie	1		268	14.0	2.5	/experiments/Knapen_AOT/AOT_stimuli/rescaled_final/2178_rv.mp4	0.0	198.18904638290405	2.4922146797180176
16	104.23855757713318	pulse	1	t		14.0	2.5	/experiments/Knapen_AOT/AOT_stimuli/rescaled_final/2178_rv.mp4	0.0	198.96230554580688	
16	105.8388090133667	pulse	1	t		14.0	2.5	/experiments/Knapen_AOT/AOT_stimuli/rescaled_final/2178_rv.mp4	0.0	200.5625569820404	
16	105.95751309394836	fix_post	2		12	14.0	2.5	/experiments/Knapen_AOT/AOT_stimuli/rescaled_final/2178_rv.mp4	0.0	200.68126106262207	0.09984397888183594
17	106.0573570728302	fix_pre	0		120	15.0	2.5	/experiments/Knapen_AOT/AOT_stimuli/rescaled_final/1109_rv.mp4	0.0	200.7811050415039	1.0084943771362305
17	107.06585144996643	movie	1		281	15.0	2.5	/experiments/Knapen_AOT/AOT_stimuli/rescaled_final/1109_rv.mp4	0.0	201.78959941864014	2.4920108318328857
17	107.4399003982544	pulse	1	t		15.0	2.5	/experiments/Knapen_AOT/AOT_stimuli/rescaled_final/1109_rv.mp4	0.0	202.1636483669281	
17	109.03906321525574	pulse	1	t		15.0	2.5	/experiments/Knapen_AOT/AOT_stimuli/rescaled_final/1109_rv.mp4	0.0	203.76281118392944	
17	109.55786228179932	fix_post	2		12	15.0	2.5	/experiments/Knapen_AOT/AOT_stimuli/rescaled_final/1109_rv.mp4	0.0	204.28161025047302	0.10001826286315918
18	109.65788054466248	fix_pre	0		119	16.0	2.5	/experiments/Knapen_AOT/AOT_stimuli/rescaled_final/1954_fw.mp4	0.0	204.38162851333618	1.0002002716064453
18	110.64159822463989	pulse	0	t		16.0	2.5	/experiments/Knapen_AOT/AOT_stimuli/rescaled_final/1954_fw.mp4	0.0	205.3653461933136	
18	110.65808081626892	movie	1		290	16.0	2.5	/experiments/Knapen_AOT/AOT_stimuli/rescaled_final/1954_fw.mp4	0.0	205.38182878494263	2.500335216522217
18	112.24049854278564	pulse	1	t		16.0	2.5	/experiments/Knapen_AOT/AOT_stimuli/rescaled_final/1954_fw.mp4	0.0	206.96424651145935	
18	113.15841603279114	fix_post	2		12	16.0	2.5	/experiments/Knapen_AOT/AOT_stimuli/rescaled_final/1954_fw.mp4	0.0	207.88216400146484	0.10001468658447266
19	113.25843071937561	fix_pre	0		120	17.0	2.5	/experiments/Knapen_AOT/AOT_stimuli/rescaled_final/0091_rv.mp4	0.0	207.98217868804932	1.0085010528564453
19	113.8423855304718	pulse	0	t		17.0	2.5	/experiments/Knapen_AOT/AOT_stimuli/rescaled_final/0091_rv.mp4	0.0	208.5661334991455	
19	114.26693177223206	movie	1		285	17.0	2.5	/experiments/Knapen_AOT/AOT_stimuli/rescaled_final/0091_rv.mp4	0.0	208.99067974090576	2.4920156002044678
19	115.4405128955841	pulse	1	t		17.0	2.5	/experiments/Knapen_AOT/AOT_stimuli/rescaled_final/0091_rv.mp4	0.0	210.1642608642578	
19	116.75894737243652	fix_post	2		12	17.0	2.5	/experiments/Knapen_AOT/AOT_stimuli/rescaled_final/0091_rv.mp4	0.0	211.48269534111023	0.10002017021179199
20	116.85896754264832	fix_pre	0		120	18.0	2.5	/experiments/Knapen_AOT/AOT_stimuli/rescaled_final/1715_rv.mp4	0.0	211.58271551132202	1.0085105895996094
20	117.04253911972046	pulse	0	t		18.0	2.5	/experiments/Knapen_AOT/AOT_stimuli/rescaled_final/1715_rv.mp4	0.0	211.76628708839417	
20	117.86747813224792	movie	1		286	18.0	2.5	/experiments/Knapen_AOT/AOT_stimuli/rescaled_final/1715_rv.mp4	0.0	212.59122610092163	2.4920237064361572
20	118.64080023765564	pulse	1	t		18.0	2.5	/experiments/Knapen_AOT/AOT_stimuli/rescaled_final/1715_rv.mp4	0.0	213.36454820632935	
20	120.24241256713867	pulse	1	t		18.0	2.5	/experiments/Knapen_AOT/AOT_stimuli/rescaled_final/1715_rv.mp4	0.0	214.96616053581238	
20	120.35950183868408	fix_post	2		12	18.0	2.5	/experiments/Knapen_AOT/AOT_stimuli/rescaled_final/1715_rv.mp4	0.0	215.0832498073578	0.10000228881835938
21	120.45950412750244	fix_pre	0		120	19.0	2.5	blank	1.0	215.18325209617615	1.0001754760742188
21	121.45967960357666	movie	1		300	19.0	2.5	blank	1.0	216.18342757225037	2.5004115104675293
21	121.83620047569275	pulse	1	t		19.0	2.5	blank	1.0	216.55994844436646	
21	123.43577075004578	pulse	1	t		19.0	2.5	blank	1.0	218.15951871871948	
21	123.96009111404419	fix_post	2		12	19.0	2.5	blank	1.0	218.6838390827179	0.09999585151672363
22	124.06008696556091	fix_pre	0		118	20.0	2.5	/experiments/Knapen_AOT/AOT_stimuli/rescaled_final/0936_fw.mp4	0.0	218.78383493423462	1.0001559257507324
22	125.03599452972412	pulse	0	t		20.0	2.5	/experiments/Knapen_AOT/AOT_stimuli/rescaled_final/0936_fw.mp4	0.0	219.75974249839783	
22	125.06024289131165	movie	1		281	20.0	2.5	/experiments/Knapen_AOT/AOT_stimuli/rescaled_final/0936_fw.mp4	0.0	219.78399085998535	2.491985559463501
22	126.6355299949646	pulse	1	t		20.0	2.5	/experiments/Knapen_AOT/AOT_stimuli/rescaled_final/0936_fw.mp4	0.0	221.3592779636383	
22	127.55222845077515	fix_post	2		12	20.0	2.5	/experiments/Knapen_AOT/AOT_stimuli/rescaled_final/0936_fw.mp4	0.0	222.27597641944885	0.10005331039428711
23	127.65228176116943	fix_pre	0		120	21.0	2.5	/experiments/Knapen_AOT/AOT_stimuli/rescaled_final/1636_fw.mp4	0.0	222.37602972984314	1.0084760189056396
23	128.23594427108765	pulse	0	t		21.0	2.5	/experiments/Knapen_AOT/AOT_stimuli/rescaled_final/1636_fw.mp4	0.0	222.95969223976135	
23	128.66075778007507	movie	1		283	21.0	2.5	/experiments/Knapen_AOT/AOT_stimuli/rescaled_final/1636_fw.mp4	0.0	223.38450574874878	2.4920318126678467
23	129.83613467216492	pulse	1	t		21.0	2.5	/experiments/Knapen_AOT/AOT_stimuli/rescaled_final/1636_fw.mp4	0.0	224.55988264083862	
23	131.15278959274292	fix_post	2		12	21.0	2.5	/experiments/Knapen_AOT/AOT_stimuli/rescaled_final/1636_fw.mp4	0.0	225.87653756141663	0.10001850128173828
24	131.25280809402466	fix_pre	0		120	22.0	2.5	/experiments/Knapen_AOT/AOT_stimuli/rescaled_final/0808_fw.mp4	0.0	225.97655606269836	1.0084922313690186
24	131.43641448020935	pulse	0	t		22.0	2.5	/experiments/Knapen_AOT/AOT_stimuli/rescaled_final/0808_fw.mp4	0.0	226.16016244888306	
24	132.26130032539368	movie	1		288	22.0	2.5	/experiments/Knapen_AOT/AOT_stimuli/rescaled_final/0808_fw.mp4	0.0	226.98504829406738	2.492016553878784
24	133.03661012649536	pulse	1	t		22.0	2.5	/experiments/Knapen_AOT/AOT_stimuli/rescaled_final/0808_fw.mp4	0.0	227.76035809516907	
24	134.6368670463562	pulse	1	t		22.0	2.5	/experiments/Knapen_AOT/AOT_stimuli/rescaled_final/0808_fw.mp4	0.0	229.3606150150299	
24	134.75331687927246	fix_post	2		12	22.0	2.5	/experiments/Knapen_AOT/AOT_stimuli/rescaled_final/0808_fw.mp4	0.0	229.47706484794617	0.10001754760742188
25	134.85333442687988	fix_pre	0		120	23.0	2.5	/experiments/Knapen_AOT/AOT_stimuli/rescaled_final/1905_fw.mp4	0.0	229.5770823955536	1.008531093597412
25	135.8618655204773	movie	1		278	23.0	2.5	/experiments/Knapen_AOT/AOT_stimuli/rescaled_final/1905_fw.mp4	0.0	230.585613489151	2.4919931888580322
25	136.23706698417664	pulse	1	t		23.0	2.5	/experiments/Knapen_AOT/AOT_stimuli/rescaled_final/1905_fw.mp4	0.0	230.96081495285034	
25	137.8372941017151	pulse	1	t		23.0	2.5	/experiments/Knapen_AOT/AOT_stimuli/rescaled_final/1905_fw.mp4	0.0	232.5610420703888	
25	138.35385870933533	fix_post	2		12	23.0	2.5	/experiments/Knapen_AOT/AOT_stimuli/rescaled_final/1905_fw.mp4	0.0	233.07760667800903	0.10002636909484863
26	138.45388507843018	fix_pre	0		119	24.0	2.5	/experiments/Knapen_AOT/AOT_stimuli/rescaled_final/1589_rv.mp4	0.0	233.17763304710388	1.0001494884490967
26	139.43762302398682	pulse	0	t		24.0	2.5	/experiments/Knapen_AOT/AOT_stimuli/rescaled_final/1589_rv.mp4	0.0	234.16137099266052	
26	139.45403456687927	movie	1		278	24.0	2.5	/experiments/Knapen_AOT/AOT_stimuli/rescaled_final/1589_rv.mp4	0.0	234.17778253555298	2.5003721714019775
26	141.03654885292053	pulse	1	t		24.0	2.5	/experiments/Knapen_AOT/AOT_stimuli/rescaled_final/1589_rv.mp4	0.0	235.76029682159424	
26	141.95440673828125	fix_post	2		12	24.0	2.5	/experiments/Knapen_AOT/AOT_stimuli/rescaled_final/1589_rv.mp4	0.0	236.67815470695496	0.10005521774291992
27	142.05446195602417	fix_pre	0		120	25.0	2.5	/experiments/Knapen_AOT/AOT_stimuli/rescaled_final/0701_fw.mp4	0.0	236.77820992469788	1.008446455001831
27	142.63812637329102	pulse	0	t		25.0	2.5	/experiments/Knapen_AOT/AOT_stimuli/rescaled_final/0701_fw.mp4	0.0	237.36187434196472	
27	143.062908411026	movie	1		290	25.0	2.5	/experiments/Knapen_AOT/AOT_stimuli/rescaled_final/0701_fw.mp4	0.0	237.7866563796997	2.4920601844787598
27	144.23682975769043	pulse	1	t		25.0	2.5	/experiments/Knapen_AOT/AOT_stimuli/rescaled_final/0701_fw.mp4	0.0	238.96057772636414	
27	145.55496859550476	fix_post	2		12	25.0	2.5	/experiments/Knapen_AOT/AOT_stimuli/rescaled_final/0701_fw.mp4	0.0	240.27871656417847	0.09999656677246094
28	145.65496516227722	fix_pre	0		120	26.0	2.5	/experiments/Knapen_AOT/AOT_stimuli/rescaled_final/1549_fw.mp4	0.0	240.37871313095093	1.0085110664367676
28	145.83894109725952	pulse	0	t		26.0	2.5	/experiments/Knapen_AOT/AOT_stimuli/rescaled_final/1549_fw.mp4	0.0	240.56268906593323	
28	146.663476228714	movie	1		274	26.0	2.5	/experiments/Knapen_AOT/AOT_stimuli/rescaled_final/1549_fw.mp4	0.0	241.3872241973877	2.492006301879883
28	147.4368052482605	pulse	1	t		26.0	2.5	/experiments/Knapen_AOT/AOT_stimuli/rescaled_final/1549_fw.mp4	0.0	242.1605532169342	
28	149.03747510910034	pulse	1	t		26.0	2.5	/experiments/Knapen_AOT/AOT_stimuli/rescaled_final/1549_fw.mp4	0.0	243.76122307777405	
28	149.15548253059387	fix_post	2		12	26.0	2.5	/experiments/Knapen_AOT/AOT_stimuli/rescaled_final/1549_fw.mp4	0.0	243.87923049926758	0.10001873970031738
29	149.2555012702942	fix_pre	0		120	27.0	2.5	/experiments/Knapen_AOT/AOT_stimuli/rescaled_final/1034_fw.mp4	0.0	243.9792492389679	1.0085773468017578
29	150.26407861709595	movie	1		279	27.0	2.5	/experiments/Knapen_AOT/AOT_stimuli/rescaled_final/1034_fw.mp4	0.0	244.98782658576965	2.491976737976074
29	150.63835430145264	pulse	1	t		27.0	2.5	/experiments/Knapen_AOT/AOT_stimuli/rescaled_final/1034_fw.mp4	0.0	245.36210227012634	
29	152.2373661994934	pulse	1	t		27.0	2.5	/experiments/Knapen_AOT/AOT_stimuli/rescaled_final/1034_fw.mp4	0.0	246.96111416816711	
29	152.75605535507202	fix_post	2		12	27.0	2.5	/experiments/Knapen_AOT/AOT_stimuli/rescaled_final/1034_fw.mp4	0.0	247.47980332374573	0.10005354881286621
30	152.8561089038849	fix_pre	0		119	28.0	2.5	blank	1.0	247.5798568725586	0.9917259216308594
30	153.83979964256287	pulse	0	t		28.0	2.5	blank	1.0	248.56354761123657	
30	153.84783482551575	movie	1		301	28.0	2.5	blank	1.0	248.57158279418945	2.50875186920166
30	155.43994188308716	pulse	1	t		28.0	2.5	blank	1.0	250.16368985176086	
30	156.3565866947174	fix_post	2		12	28.0	2.5	blank	1.0	251.0803346633911	0.10002279281616211
31	156.45660948753357	fix_pre	0		120	29.0	2.5	/experiments/Knapen_AOT/AOT_stimuli/rescaled_final/0005_fw.mp4	0.0	251.18035745620728	1.0084717273712158
31	157.0402810573578	pulse	0	t		29.0	2.5	/experiments/Knapen_AOT/AOT_stimuli/rescaled_final/0005_fw.mp4	0.0	251.7640290260315	
31	157.46508121490479	movie	1		290	29.0	2.5	/experiments/Knapen_AOT/AOT_stimuli/rescaled_final/0005_fw.mp4	0.0	252.1888291835785	2.4920241832733154
31	158.6390838623047	pulse	1	t		29.0	2.5	/experiments/Knapen_AOT/AOT_stimuli/rescaled_final/0005_fw.mp4	0.0	253.3628318309784	
31	159.9571053981781	fix_post	2		12	29.0	2.5	/experiments/Knapen_AOT/AOT_stimuli/rescaled_final/0005_fw.mp4	0.0	254.6808533668518	0.10002803802490234
32	160.057133436203	fix_pre	0		120	30.0	2.5	/experiments/Knapen_AOT/AOT_stimuli/rescaled_final/0979_rv.mp4	0.0	254.7808814048767	1.0085055828094482
32	160.2410318851471	pulse	0	t		30.0	2.5	/experiments/Knapen_AOT/AOT_stimuli/rescaled_final/0979_rv.mp4	0.0	254.9647798538208	
32	161.06563901901245	movie	1		285	30.0	2.5	/experiments/Knapen_AOT/AOT_stimuli/rescaled_final/0979_rv.mp4	0.0	255.78938698768616	2.492025852203369
32	161.83911538124084	pulse	1	t		30.0	2.5	/experiments/Knapen_AOT/AOT_stimuli/rescaled_final/0979_rv.mp4	0.0	256.56286334991455	
32	163.43945336341858	pulse	1	t		30.0	2.5	/experiments/Knapen_AOT/AOT_stimuli/rescaled_final/0979_rv.mp4	0.0	258.1632013320923	
32	163.55766487121582	fix_post	2		12	30.0	2.5	/experiments/Knapen_AOT/AOT_stimuli/rescaled_final/0979_rv.mp4	0.0	258.2814128398895	0.10001206398010254
33	163.65767693519592	fix_pre	0		120	31.0	2.5	/experiments/Knapen_AOT/AOT_stimuli/rescaled_final/1435_rv.mp4	0.0	258.38142490386963	1.0085103511810303
33	164.66618728637695	movie	1		278	31.0	2.5	/experiments/Knapen_AOT/AOT_stimuli/rescaled_final/1435_rv.mp4	0.0	259.38993525505066	2.492021322250366
33	165.04132294654846	pulse	1	t		31.0	2.5	/experiments/Knapen_AOT/AOT_stimuli/rescaled_final/1435_rv.mp4	0.0	259.76507091522217	
33	166.63983392715454	pulse	1	t		31.0	2.5	/experiments/Knapen_AOT/AOT_stimuli/rescaled_final/1435_rv.mp4	0.0	261.36358189582825	
33	167.15820860862732	fix_post	2		12	31.0	2.5	/experiments/Knapen_AOT/AOT_stimuli/rescaled_final/1435_rv.mp4	0.0	261.881956577301	0.10001087188720703
34	167.25821948051453	fix_pre	0		119	32.0	2.5	/experiments/Knapen_AOT/AOT_stimuli/rescaled_final/0432_rv.mp4	0.0	261.98196744918823	1.000126838684082
34	168.24211883544922	pulse	0	t		32.0	2.5	/experiments/Knapen_AOT/AOT_stimuli/rescaled_final/0432_rv.mp4	0.0	262.9658668041229	
34	168.2583463191986	movie	1		273	32.0	2.5	/experiments/Knapen_AOT/AOT_stimuli/rescaled_final/0432_rv.mp4	0.0	262.9820942878723	2.5004358291625977
34	169.84266424179077	pulse	1	t		32.0	2.5	/experiments/Knapen_AOT/AOT_stimuli/rescaled_final/0432_rv.mp4	0.0	264.5664122104645	
34	170.7587821483612	fix_post	2		12	32.0	2.5	/experiments/Knapen_AOT/AOT_stimuli/rescaled_final/0432_rv.mp4	0.0	265.4825301170349	0.09998965263366699
35	170.85877180099487	fix_pre	0		120	33.0	2.5	/experiments/Knapen_AOT/AOT_stimuli/rescaled_final/1886_fw.mp4	0.0	265.5825197696686	1.0085277557373047
35	171.44236993789673	pulse	0	t		33.0	2.5	/experiments/Knapen_AOT/AOT_stimuli/rescaled_final/1886_fw.mp4	0.0	266.16611790657043	
35	171.86729955673218	movie	1		285	33.0	2.5	/experiments/Knapen_AOT/AOT_stimuli/rescaled_final/1886_fw.mp4	0.0	266.5910475254059	2.4920129776000977
35	173.04061198234558	pulse	1	t		33.0	2.5	/experiments/Knapen_AOT/AOT_stimuli/rescaled_final/1886_fw.mp4	0.0	267.7643599510193	
35	174.35931253433228	fix_post	2		12	33.0	2.5	/experiments/Knapen_AOT/AOT_stimuli/rescaled_final/1886_fw.mp4	0.0	269.083060503006	0.10007357597351074
36	174.4593861103058	fix_pre	0		120	34.0	2.5	/experiments/Knapen_AOT/AOT_stimuli/rescaled_final/1373_rv.mp4	0.0	269.1831340789795	1.0083842277526855
36	174.6431303024292	pulse	0	t		34.0	2.5	/experiments/Knapen_AOT/AOT_stimuli/rescaled_final/1373_rv.mp4	0.0	269.3668782711029	
36	175.46777033805847	movie	1		272	34.0	2.5	/experiments/Knapen_AOT/AOT_stimuli/rescaled_final/1373_rv.mp4	0.0	270.1915183067322	2.4921181201934814
36	176.24087977409363	pulse	1	t		34.0	2.5	/experiments/Knapen_AOT/AOT_stimuli/rescaled_final/1373_rv.mp4	0.0	270.96462774276733	
36	177.84229373931885	pulse	1	t		34.0	2.5	/experiments/Knapen_AOT/AOT_stimuli/rescaled_final/1373_rv.mp4	0.0	272.56604170799255	
36	177.95988845825195	fix_post	2		12	34.0	2.5	/experiments/Knapen_AOT/AOT_stimuli/rescaled_final/1373_rv.mp4	0.0	272.68363642692566	0.09994220733642578
37	178.05983066558838	fix_pre	0		120	35.0	2.5	blank	1.0	272.7835786342621	1.000176191329956
37	179.06000685691833	movie	1		300	35.0	2.5	blank	1.0	273.78375482559204	2.5005080699920654
37	179.44356274604797	pulse	1	t		35.0	2.5	blank	1.0	274.1673107147217	
37	181.04380774497986	pulse	1	t		35.0	2.5	blank	1.0	275.76755571365356	
37	181.5605149269104	fix_post	2		12	35.0	2.5	blank	1.0	276.2842628955841	0.0998697280883789
38	181.66038465499878	fix_pre	0		118	36.0	2.5	/experiments/Knapen_AOT/AOT_stimuli/rescaled_final/1275_rv.mp4	0.0	276.3841326236725	0.9918088912963867
38	182.63612842559814	pulse	0	t		36.0	2.5	/experiments/Knapen_AOT/AOT_stimuli/rescaled_final/1275_rv.mp4	0.0	277.35987639427185	
38	182.65219354629517	movie	1		278	36.0	2.5	/experiments/Knapen_AOT/AOT_stimuli/rescaled_final/1275_rv.mp4	0.0	277.3759415149689	2.500380516052246
38	184.23617339134216	pulse	1	t		36.0	2.5	/experiments/Knapen_AOT/AOT_stimuli/rescaled_final/1275_rv.mp4	0.0	278.95992136001587	
38	185.1525740623474	fix_post	2		12	36.0	2.5	/experiments/Knapen_AOT/AOT_stimuli/rescaled_final/1275_rv.mp4	0.0	279.8763220310211	0.10002350807189941
39	185.2525975704193	fix_pre	0		120	37.0	2.5	/experiments/Knapen_AOT/AOT_stimuli/rescaled_final/0504_rv.mp4	0.0	279.976345539093	1.0085110664367676
39	185.83632063865662	pulse	0	t		37.0	2.5	/experiments/Knapen_AOT/AOT_stimuli/rescaled_final/0504_rv.mp4	0.0	280.5600686073303	
39	186.26110863685608	movie	1		281	37.0	2.5	/experiments/Knapen_AOT/AOT_stimuli/rescaled_final/0504_rv.mp4	0.0	280.9848566055298	2.4920105934143066
39	187.4366216659546	pulse	1	t		37.0	2.5	/experiments/Knapen_AOT/AOT_stimuli/rescaled_final/0504_rv.mp4	0.0	282.1603696346283	
39	188.75311923027039	fix_post	2		12	37.0	2.5	/experiments/Knapen_AOT/AOT_stimuli/rescaled_final/0504_rv.mp4	0.0	283.4768671989441	0.09999752044677734
40	188.85311675071716	fix_pre	0		120	38.0	2.5	/experiments/Knapen_AOT/AOT_stimuli/rescaled_final/1443_fw.mp4	0.0	283.57686471939087	1.0085508823394775
40	189.03677988052368	pulse	0	t		38.0	2.5	/experiments/Knapen_AOT/AOT_stimuli/rescaled_final/1443_fw.mp4	0.0	283.7605278491974	
40	189.86166763305664	movie	1		277	38.0	2.5	/experiments/Knapen_AOT/AOT_stimuli/rescaled_final/1443_fw.mp4	0.0	284.58541560173035	2.491976737976074
40	190.63693618774414	pulse	1	t		38.0	2.5	/experiments/Knapen_AOT/AOT_stimuli/rescaled_final/1443_fw.mp4	0.0	285.36068415641785	
40	192.23725032806396	pulse	1	t		38.0	2.5	/experiments/Knapen_AOT/AOT_stimuli/rescaled_final/1443_fw.mp4	0.0	286.96099829673767	
40	192.35364437103271	fix_post	2		12	38.0	2.5	/experiments/Knapen_AOT/AOT_stimuli/rescaled_final/1443_fw.mp4	0.0	287.0773923397064	0.10007715225219727
41	192.4537215232849	fix_pre	0		120	39.0	2.5	/experiments/Knapen_AOT/AOT_stimuli/rescaled_final/2001_fw.mp4	0.0	287.1774694919586	1.0084214210510254
41	193.46214294433594	movie	1		283	39.0	2.5	/experiments/Knapen_AOT/AOT_stimuli/rescaled_final/2001_fw.mp4	0.0	288.18589091300964	2.4920654296875
41	193.83758783340454	pulse	1	t		39.0	2.5	/experiments/Knapen_AOT/AOT_stimuli/rescaled_final/2001_fw.mp4	0.0	288.56133580207825	
41	195.43791913986206	pulse	1	t		39.0	2.5	/experiments/Knapen_AOT/AOT_stimuli/rescaled_final/2001_fw.mp4	0.0	290.16166710853577	
41	195.95420837402344	fix_post	2		12	39.0	2.5	/experiments/Knapen_AOT/AOT_stimuli/rescaled_final/2001_fw.mp4	0.0	290.67795634269714	0.09999799728393555
42	196.05420637130737	fix_pre	0		119	40.0	2.5	blank	1.0	290.7779543399811	0.9918324947357178
42	197.03789448738098	pulse	0	t		40.0	2.5	blank	1.0	291.7616424560547	
42	197.0460388660431	movie	1		301	40.0	2.5	blank	1.0	291.7697868347168	2.5086801052093506
42	198.63826704025269	pulse	1	t		40.0	2.5	blank	1.0	293.3620150089264	
42	199.55471897125244	fix_post	2		12	40.0	2.5	blank	1.0	294.27846693992615	0.10001635551452637
43	199.65473532676697	fix_pre	0		120	41.0	2.5	/experiments/Knapen_AOT/AOT_stimuli/rescaled_final/1197_fw.mp4	0.0	294.3784832954407	1.0084972381591797
43	200.23838877677917	pulse	0	t		41.0	2.5	/experiments/Knapen_AOT/AOT_stimuli/rescaled_final/1197_fw.mp4	0.0	294.9621367454529	
43	200.66323256492615	movie	1		284	41.0	2.5	/experiments/Knapen_AOT/AOT_stimuli/rescaled_final/1197_fw.mp4	0.0	295.38698053359985	2.492039918899536
43	201.83723139762878	pulse	1	t		41.0	2.5	/experiments/Knapen_AOT/AOT_stimuli/rescaled_final/1197_fw.mp4	0.0	296.5609793663025	
43	203.15527248382568	fix_post	2		12	41.0	2.5	/experiments/Knapen_AOT/AOT_stimuli/rescaled_final/1197_fw.mp4	0.0	297.8790204524994	0.1000664234161377
44	203.25533890724182	fix_pre	0		120	42.0	2.5	/experiments/Knapen_AOT/AOT_stimuli/rescaled_final/0903_fw.mp4	0.0	297.9790868759155	1.0084693431854248
44	203.43888902664185	pulse	0	t		42.0	2.5	/experiments/Knapen_AOT/AOT_stimuli/rescaled_final/0903_fw.mp4	0.0	298.16263699531555	
44	204.26380825042725	movie	1		290	42.0	2.5	/experiments/Knapen_AOT/AOT_stimuli/rescaled_final/0903_fw.mp4	0.0	298.98755621910095	2.4922215938568115
44	205.037499666214	pulse	1	t		42.0	2.5	/experiments/Knapen_AOT/AOT_stimuli/rescaled_final/0903_fw.mp4	0.0	299.7612476348877	
44	206.63831782341003	pulse	1	t		42.0	2.5	/experiments/Knapen_AOT/AOT_stimuli/rescaled_final/0903_fw.mp4	0.0	301.36206579208374	
44	206.75602984428406	fix_post	2		12	42.0	2.5	/experiments/Knapen_AOT/AOT_stimuli/rescaled_final/0903_fw.mp4	0.0	301.47977781295776	0.09980106353759766
45	206.85583090782166	fix_pre	0		120	43.0	2.5	/experiments/Knapen_AOT/AOT_stimuli/rescaled_final/0005_fw.mp4	0.0	301.57957887649536	1.0085573196411133
45	207.86438822746277	movie	1		289	43.0	2.5	/experiments/Knapen_AOT/AOT_stimuli/rescaled_final/0005_fw.mp4	0.0	302.5881361961365	2.4919519424438477
45	208.23795676231384	pulse	1	t		43.0	2.5	/experiments/Knapen_AOT/AOT_stimuli/rescaled_final/0005_fw.mp4	0.0	302.96170473098755	
45	209.8377857208252	pulse	1	t		43.0	2.5	/experiments/Knapen_AOT/AOT_stimuli/rescaled_final/0005_fw.mp4	0.0	304.5615336894989	
45	210.35634016990662	fix_post	2		12	43.0	2.5	/experiments/Knapen_AOT/AOT_stimuli/rescaled_final/0005_fw.mp4	0.0	305.0800881385803	0.10003352165222168
46	210.45637369155884	fix_pre	0		119	44.0	2.5	/experiments/Knapen_AOT/AOT_stimuli/rescaled_final/2089_fw.mp4	0.0	305.18012166023254	1.0001790523529053
46	211.44030690193176	pulse	0	t		44.0	2.5	/experiments/Knapen_AOT/AOT_stimuli/rescaled_final/2089_fw.mp4	0.0	306.16405487060547	
46	211.45655274391174	movie	1		276	44.0	2.5	/experiments/Knapen_AOT/AOT_stimuli/rescaled_final/2089_fw.mp4	0.0	306.18030071258545	2.5003395080566406
46	213.0385820865631	pulse	1	t		44.0	2.5	/experiments/Knapen_AOT/AOT_stimuli/rescaled_final/2089_fw.mp4	0.0	307.7623300552368	
46	213.95689225196838	fix_post	2		12	44.0	2.5	/experiments/Knapen_AOT/AOT_stimuli/rescaled_final/2089_fw.mp4	0.0	308.6806402206421	0.10000872611999512
47	214.05690097808838	fix_pre	0		120	45.0	2.5	/experiments/Knapen_AOT/AOT_stimuli/rescaled_final/0693_rv.mp4	0.0	308.7806489467621	1.0085251331329346
47	214.64075422286987	pulse	0	t		45.0	2.5	/experiments/Knapen_AOT/AOT_stimuli/rescaled_final/0693_rv.mp4	0.0	309.3645021915436	
47	215.0654261112213	movie	1		277	45.0	2.5	/experiments/Knapen_AOT/AOT_stimuli/rescaled_final/0693_rv.mp4	0.0	309.789174079895	2.4920718669891357
47	216.2387135028839	pulse	1	t		45.0	2.5	/experiments/Knapen_AOT/AOT_stimuli/rescaled_final/0693_rv.mp4	0.0	310.9624614715576	
47	217.55749797821045	fix_post	2		11	45.0	2.5	/experiments/Knapen_AOT/AOT_stimuli/rescaled_final/0693_rv.mp4	0.0	312.28124594688416	0.09998750686645508
48	217.6574854850769	fix_pre	0		105	46.0	2.5	/experiments/Knapen_AOT/AOT_stimuli/rescaled_final/1805_fw.mp4	0.0	312.3812334537506	1.0084540843963623
48	217.84106612205505	pulse	0	t		46.0	2.5	/experiments/Knapen_AOT/AOT_stimuli/rescaled_final/1805_fw.mp4	0.0	312.56481409072876	
48	218.66593956947327	movie	1		278	46.0	2.5	/experiments/Knapen_AOT/AOT_stimuli/rescaled_final/1805_fw.mp4	0.0	313.389687538147	2.49204158782959
48	219.43936467170715	pulse	1	t		46.0	2.5	/experiments/Knapen_AOT/AOT_stimuli/rescaled_final/1805_fw.mp4	0.0	314.16311264038086	
48	221.03977513313293	pulse	1	t		46.0	2.5	/experiments/Knapen_AOT/AOT_stimuli/rescaled_final/1805_fw.mp4	0.0	315.76352310180664	
48	221.15798115730286	fix_post	2		12	46.0	2.5	/experiments/Knapen_AOT/AOT_stimuli/rescaled_final/1805_fw.mp4	0.0	315.88172912597656	0.10002422332763672
49	221.2580053806305	fix_pre	0		120	47.0	2.5	blank	1.0	315.9817533493042	1.0001308917999268
49	222.25813627243042	movie	1		300	47.0	2.5	blank	1.0	316.9818842411041	2.50041127204895
49	222.64174246788025	pulse	1	t		47.0	2.5	blank	1.0	317.36549043655396	
49	224.24212384223938	pulse	1	t		47.0	2.5	blank	1.0	318.9658718109131	
49	224.75854754447937	fix_post	2		12	47.0	2.5	blank	1.0	319.4822955131531	0.09999704360961914
50	224.858544588089	fix_pre	0		119	48.0	2.5	/experiments/Knapen_AOT/AOT_stimuli/rescaled_final/0688_rv.mp4	0.0	319.5822925567627	1.000178337097168
50	225.84246850013733	pulse	0	t		48.0	2.5	/experiments/Knapen_AOT/AOT_stimuli/rescaled_final/0688_rv.mp4	0.0	320.56621646881104	
50	225.85872292518616	movie	1		278	48.0	2.5	/experiments/Knapen_AOT/AOT_stimuli/rescaled_final/0688_rv.mp4	0.0	320.58247089385986	2.508701801300049
50	227.44101786613464	pulse	1	t		48.0	2.5	/experiments/Knapen_AOT/AOT_stimuli/rescaled_final/0688_rv.mp4	0.0	322.16476583480835	
50	228.3674247264862	fix_post	2		11	48.0	2.5	/experiments/Knapen_AOT/AOT_stimuli/rescaled_final/0688_rv.mp4	0.0	323.0911726951599	0.09167098999023438
51	228.45909571647644	fix_pre	0		120	49.0	2.5	/experiments/Knapen_AOT/AOT_stimuli/rescaled_final/0309_rv.mp4	0.0	323.18284368515015	1.0085928440093994
51	229.04272961616516	pulse	0	t		49.0	2.5	/experiments/Knapen_AOT/AOT_stimuli/rescaled_final/0309_rv.mp4	0.0	323.76647758483887	
51	229.46768856048584	movie	1		271	49.0	2.5	/experiments/Knapen_AOT/AOT_stimuli/rescaled_final/0309_rv.mp4	0.0	324.19143652915955	2.4919371604919434
51	230.64140391349792	pulse	1	t		49.0	2.5	/experiments/Knapen_AOT/AOT_stimuli/rescaled_final/0309_rv.mp4	0.0	325.36515188217163	
51	231.95962572097778	fix_post	2		12	49.0	2.5	/experiments/Knapen_AOT/AOT_stimuli/rescaled_final/0309_rv.mp4	0.0	326.6833736896515	0.10000109672546387
52	232.05962681770325	fix_pre	0		120	50.0	2.5	/experiments/Knapen_AOT/AOT_stimuli/rescaled_final/1361_fw.mp4	0.0	326.78337478637695	1.00846529006958
52	232.24320340156555	pulse	0	t		50.0	2.5	/experiments/Knapen_AOT/AOT_stimuli/rescaled_final/1361_fw.mp4	0.0	326.96695137023926	
52	233.06809210777283	movie	1		276	50.0	2.5	/experiments/Knapen_AOT/AOT_stimuli/rescaled_final/1361_fw.mp4	0.0	327.79184007644653	2.4920578002929688
52	233.84120416641235	pulse	1	t		50.0	2.5	/experiments/Knapen_AOT/AOT_stimuli/rescaled_final/1361_fw.mp4	0.0	328.56495213508606	
52	235.44196581840515	pulse	1	t		50.0	2.5	/experiments/Knapen_AOT/AOT_stimuli/rescaled_final/1361_fw.mp4	0.0	330.16571378707886	
52	235.5601499080658	fix_post	2		12	50.0	2.5	/experiments/Knapen_AOT/AOT_stimuli/rescaled_final/1361_fw.mp4	0.0	330.2838978767395	0.10011887550354004
53	235.66026878356934	fix_pre	0		120	51.0	2.5	/experiments/Knapen_AOT/AOT_stimuli/rescaled_final/1067_fw.mp4	0.0	330.38401675224304	1.0084197521209717
53	236.6686885356903	movie	1		279	51.0	2.5	/experiments/Knapen_AOT/AOT_stimuli/rescaled_final/1067_fw.mp4	0.0	331.392436504364	2.4921743869781494
53	237.04198026657104	pulse	1	t		51.0	2.5	/experiments/Knapen_AOT/AOT_stimuli/rescaled_final/1067_fw.mp4	0.0	331.76572823524475	
53	238.64194679260254	pulse	1	t		51.0	2.5	/experiments/Knapen_AOT/AOT_stimuli/rescaled_final/1067_fw.mp4	0.0	333.36569476127625	
53	239.16086292266846	fix_post	2		12	51.0	2.5	/experiments/Knapen_AOT/AOT_stimuli/rescaled_final/1067_fw.mp4	0.0	333.88461089134216	0.09989619255065918
54	239.26075911521912	fix_pre	0		119	52.0	2.5	/experiments/Knapen_AOT/AOT_stimuli/rescaled_final/2138_fw.mp4	0.0	333.9845070838928	1.0000953674316406
54	240.23670315742493	pulse	0	t		52.0	2.5	/experiments/Knapen_AOT/AOT_stimuli/rescaled_final/2138_fw.mp4	0.0	334.96045112609863	
54	240.26085448265076	movie	1		284	52.0	2.5	/experiments/Knapen_AOT/AOT_stimuli/rescaled_final/2138_fw.mp4	0.0	334.98460245132446	2.500354766845703
54	241.83658242225647	pulse	1	t		52.0	2.5	/experiments/Knapen_AOT/AOT_stimuli/rescaled_final/2138_fw.mp4	0.0	336.5603303909302	
54	242.76120924949646	fix_post	2		12	52.0	2.5	/experiments/Knapen_AOT/AOT_stimuli/rescaled_final/2138_fw.mp4	0.0	337.48495721817017	0.10002875328063965
55	242.8612380027771	fix_pre	0		120	53.0	2.5	/experiments/Knapen_AOT/AOT_stimuli/rescaled_final/0842_rv.mp4	0.0	337.5849859714508	1.0084736347198486
55	243.43664622306824	pulse	0	t		53.0	2.5	/experiments/Knapen_AOT/AOT_stimuli/rescaled_final/0842_rv.mp4	0.0	338.16039419174194	
55	243.86971163749695	movie	1		271	53.0	2.5	/experiments/Knapen_AOT/AOT_stimuli/rescaled_final/0842_rv.mp4	0.0	338.59345960617065	2.4920828342437744
55	245.03701210021973	pulse	1	t		53.0	2.5	/experiments/Knapen_AOT/AOT_stimuli/rescaled_final/0842_rv.mp4	0.0	339.76076006889343	
55	246.36179447174072	fix_post	2		12	53.0	2.5	/experiments/Knapen_AOT/AOT_stimuli/rescaled_final/0842_rv.mp4	0.0	341.08554244041443	0.09997820854187012
56	246.4617726802826	fix_pre	0		120	54.0	2.5	blank	1.0	341.1855206489563	1.0001473426818848
56	246.63699388504028	pulse	0	t		54.0	2.5	blank	1.0	341.360741853714	
56	247.46192002296448	movie	1		300	54.0	2.5	blank	1.0	342.1856679916382	2.500389337539673
56	248.23728370666504	pulse	1	t		54.0	2.5	blank	1.0	342.96103167533875	
56	249.83753657341003	pulse	1	t		54.0	2.5	blank	1.0	344.56128454208374	
56	249.96230936050415	fix_post	2		12	54.0	2.5	blank	1.0	344.68605732917786	0.10001826286315918
57	250.0623276233673	fix_pre	0		120	55.0	2.5	/experiments/Knapen_AOT/AOT_stimuli/rescaled_final/1645_fw.mp4	0.0	344.786075592041	1.0084936618804932
57	251.0708212852478	movie	1		274	55.0	2.5	/experiments/Knapen_AOT/AOT_stimuli/rescaled_final/1645_fw.mp4	0.0	345.7945692539215	2.4920380115509033
57	251.43788385391235	pulse	1	t		55.0	2.5	/experiments/Knapen_AOT/AOT_stimuli/rescaled_final/1645_fw.mp4	0.0	346.16163182258606	
57	253.03794264793396	pulse	1	t		55.0	2.5	/experiments/Knapen_AOT/AOT_stimuli/rescaled_final/1645_fw.mp4	0.0	347.76169061660767	
57	253.5628592967987	fix_post	2		12	55.0	2.5	/experiments/Knapen_AOT/AOT_stimuli/rescaled_final/1645_fw.mp4	0.0	348.2866072654724	0.10012269020080566
58	253.6629819869995	fix_pre	0		118	56.0	2.5	/experiments/Knapen_AOT/AOT_stimuli/rescaled_final/0956_fw.mp4	0.0	348.3867299556732	0.9917140007019043
58	254.6382749080658	pulse	0	t		56.0	2.5	/experiments/Knapen_AOT/AOT_stimuli/rescaled_final/0956_fw.mp4	0.0	349.3620228767395	
58	254.65469598770142	movie	1		278	56.0	2.5	/experiments/Knapen_AOT/AOT_stimuli/rescaled_final/0956_fw.mp4	0.0	349.3784439563751	2.5003502368927
58	256.2367057800293	pulse	1	t		56.0	2.5	/experiments/Knapen_AOT/AOT_stimuli/rescaled_final/0956_fw.mp4	0.0	350.960453748703	
58	257.1550462245941	fix_post	2		12	56.0	2.5	/experiments/Knapen_AOT/AOT_stimuli/rescaled_final/0956_fw.mp4	0.0	351.8787941932678	0.10001897811889648
59	257.255065202713	fix_pre	0		120	57.0	2.5	/experiments/Knapen_AOT/AOT_stimuli/rescaled_final/0676_fw.mp4	0.0	351.9788131713867	1.008476972579956
59	257.8387072086334	pulse	0	t		57.0	2.5	/experiments/Knapen_AOT/AOT_stimuli/rescaled_final/0676_fw.mp4	0.0	352.56245517730713	
59	258.26354217529297	movie	1		277	57.0	2.5	/experiments/Knapen_AOT/AOT_stimuli/rescaled_final/0676_fw.mp4	0.0	352.9872901439667	2.4920763969421387
59	259.43822145462036	pulse	1	t		57.0	2.5	/experiments/Knapen_AOT/AOT_stimuli/rescaled_final/0676_fw.mp4	0.0	354.16196942329407	
59	260.7556185722351	fix_post	2		12	57.0	2.5	/experiments/Knapen_AOT/AOT_stimuli/rescaled_final/0676_fw.mp4	0.0	355.4793665409088	0.10002899169921875
60	260.8556475639343	fix_pre	0		120	58.0	2.5	/experiments/Knapen_AOT/AOT_stimuli/rescaled_final/0530_fw.mp4	0.0	355.57939553260803	1.0084562301635742
60	261.03920125961304	pulse	0	t		58.0	2.5	/experiments/Knapen_AOT/AOT_stimuli/rescaled_final/0530_fw.mp4	0.0	355.76294922828674	
60	261.8641037940979	movie	1		285	58.0	2.5	/experiments/Knapen_AOT/AOT_stimuli/rescaled_final/0530_fw.mp4	0.0	356.5878517627716	2.4920756816864014
60	262.63806414604187	pulse	1	t		58.0	2.5	/experiments/Knapen_AOT/AOT_stimuli/rescaled_final/0530_fw.mp4	0.0	357.3618121147156	
60	264.2383015155792	pulse	1	t		58.0	2.5	/experiments/Knapen_AOT/AOT_stimuli/rescaled_final/0530_fw.mp4	0.0	358.96204948425293	
60	264.3561794757843	fix_post	2		12	58.0	2.5	/experiments/Knapen_AOT/AOT_stimuli/rescaled_final/0530_fw.mp4	0.0	359.079927444458	0.09996461868286133
61	264.45614409446716	fix_pre	0		120	59.0	2.5	/experiments/Knapen_AOT/AOT_stimuli/rescaled_final/1901_rv.mp4	0.0	359.17989206314087	1.008516788482666
61	265.46466088294983	movie	1		277	59.0	2.5	/experiments/Knapen_AOT/AOT_stimuli/rescaled_final/1901_rv.mp4	0.0	360.18840885162354	2.4920308589935303
61	265.83940386772156	pulse	1	t		59.0	2.5	/experiments/Knapen_AOT/AOT_stimuli/rescaled_final/1901_rv.mp4	0.0	360.56315183639526	
61	267.43846917152405	pulse	1	t		59.0	2.5	/experiments/Knapen_AOT/AOT_stimuli/rescaled_final/1901_rv.mp4	0.0	362.16221714019775	
61	267.95669174194336	fix_post	2		12	59.0	2.5	/experiments/Knapen_AOT/AOT_stimuli/rescaled_final/1901_rv.mp4	0.0	362.68043971061707	0.1000068187713623
62	268.0566985607147	fix_pre	0		119	60.0	2.5	/experiments/Knapen_AOT/AOT_stimuli/rescaled_final/1291_fw.mp4	0.0	362.7804465293884	1.000195026397705
62	269.04057693481445	pulse	0	t		60.0	2.5	/experiments/Knapen_AOT/AOT_stimuli/rescaled_final/1291_fw.mp4	0.0	363.76432490348816	
62	269.0568935871124	movie	1		272	60.0	2.5	/experiments/Knapen_AOT/AOT_stimuli/rescaled_final/1291_fw.mp4	0.0	363.78064155578613	2.5003514289855957
62	270.63930082321167	pulse	1	t		60.0	2.5	/experiments/Knapen_AOT/AOT_stimuli/rescaled_final/1291_fw.mp4	0.0	365.3630487918854	
62	271.557245016098	fix_post	2		12	60.0	2.5	/experiments/Knapen_AOT/AOT_stimuli/rescaled_final/1291_fw.mp4	0.0	366.28099298477173	0.09998154640197754
63	271.6572265625	fix_pre	0		120	61.0	2.5	/experiments/Knapen_AOT/AOT_stimuli/rescaled_final/0504_fw.mp4	0.0	366.3809745311737	1.0085303783416748
63	272.24093675613403	pulse	0	t		61.0	2.5	/experiments/Knapen_AOT/AOT_stimuli/rescaled_final/0504_fw.mp4	0.0	366.96468472480774	
63	272.6657569408417	movie	1		278	61.0	2.5	/experiments/Knapen_AOT/AOT_stimuli/rescaled_final/0504_fw.mp4	0.0	367.3895049095154	2.4919989109039307
63	273.83949756622314	pulse	1	t		61.0	2.5	/experiments/Knapen_AOT/AOT_stimuli/rescaled_final/0504_fw.mp4	0.0	368.56324553489685	
63	275.1577558517456	fix_post	2		12	61.0	2.5	/experiments/Knapen_AOT/AOT_stimuli/rescaled_final/0504_fw.mp4	0.0	369.8815038204193	0.10009169578552246
64	275.2578475475311	fix_pre	0		120	62.0	2.5	blank	1.0	369.98159551620483	1.0000736713409424
64	275.4413459300995	pulse	0	t		62.0	2.5	blank	1.0	370.1650938987732	
64	276.25792121887207	movie	1		300	62.0	2.5	blank	1.0	370.9816691875458	2.5003697872161865
64	277.0416462421417	pulse	1	t		62.0	2.5	blank	1.0	371.76539421081543	
64	278.6420760154724	pulse	1	t		62.0	2.5	blank	1.0	373.3658239841461	
64	278.75829100608826	fix_post	2		12	62.0	2.5	blank	1.0	373.48203897476196	0.1000363826751709
65	278.8583273887634	fix_pre	0		120	63.0	2.5	/experiments/Knapen_AOT/AOT_stimuli/rescaled_final/0197_rv.mp4	0.0	373.58207535743713	1.008471965789795
65	279.8667993545532	movie	1		282	63.0	2.5	/experiments/Knapen_AOT/AOT_stimuli/rescaled_final/0197_rv.mp4	0.0	374.59054732322693	2.4920597076416016
65	280.2412459850311	pulse	1	t		63.0	2.5	/experiments/Knapen_AOT/AOT_stimuli/rescaled_final/0197_rv.mp4	0.0	374.96499395370483	
65	281.8404152393341	pulse	1	t		63.0	2.5	/experiments/Knapen_AOT/AOT_stimuli/rescaled_final/0197_rv.mp4	0.0	376.5641632080078	
65	282.3588590621948	fix_post	2		12	63.0	2.5	/experiments/Knapen_AOT/AOT_stimuli/rescaled_final/0197_rv.mp4	0.0	377.08260703086853	0.10001397132873535
66	282.45887303352356	fix_pre	0		119	64.0	2.5	/experiments/Knapen_AOT/AOT_stimuli/rescaled_final/0781_rv.mp4	0.0	377.18262100219727	1.0085186958312988
66	283.44260144233704	pulse	0	t		64.0	2.5	/experiments/Knapen_AOT/AOT_stimuli/rescaled_final/0781_rv.mp4	0.0	378.16634941101074	
66	283.46739172935486	movie	1		272	64.0	2.5	/experiments/Knapen_AOT/AOT_stimuli/rescaled_final/0781_rv.mp4	0.0	378.19113969802856	2.4919824600219727
66	285.04164814949036	pulse	1	t		64.0	2.5	/experiments/Knapen_AOT/AOT_stimuli/rescaled_final/0781_rv.mp4	0.0	379.76539611816406	
66	285.95937418937683	fix_post	2		12	64.0	2.5	/experiments/Knapen_AOT/AOT_stimuli/rescaled_final/0781_rv.mp4	0.0	380.68312215805054	0.1001136302947998
67	286.05948781967163	fix_pre	0		120	65.0	2.5	/experiments/Knapen_AOT/AOT_stimuli/rescaled_final/1404_fw.mp4	0.0	380.78323578834534	1.0085036754608154
67	286.6430170536041	pulse	0	t		65.0	2.5	/experiments/Knapen_AOT/AOT_stimuli/rescaled_final/1404_fw.mp4	0.0	381.36676502227783	
67	287.06799149513245	movie	1		270	65.0	2.5	/experiments/Knapen_AOT/AOT_stimuli/rescaled_final/1404_fw.mp4	0.0	381.79173946380615	2.4919373989105225
67	288.2418706417084	pulse	1	t		65.0	2.5	/experiments/Knapen_AOT/AOT_stimuli/rescaled_final/1404_fw.mp4	0.0	382.9656186103821	
67	289.55992889404297	fix_post	2		12	65.0	2.5	/experiments/Knapen_AOT/AOT_stimuli/rescaled_final/1404_fw.mp4	0.0	384.2836768627167	0.10001325607299805
68	289.65994215011597	fix_pre	0		119	66.0	2.5	/experiments/Knapen_AOT/AOT_stimuli/rescaled_final/0842_fw.mp4	0.0	384.3836901187897	1.0085041522979736
68	289.8437144756317	pulse	0	t		66.0	2.5	/experiments/Knapen_AOT/AOT_stimuli/rescaled_final/0842_fw.mp4	0.0	384.5674624443054	
68	290.66844630241394	movie	1		274	66.0	2.5	/experiments/Knapen_AOT/AOT_stimuli/rescaled_final/0842_fw.mp4	0.0	385.39219427108765	2.4920313358306885
68	291.4438226222992	pulse	1	t		66.0	2.5	/experiments/Knapen_AOT/AOT_stimuli/rescaled_final/0842_fw.mp4	0.0	386.1675705909729	
68	293.0360906124115	pulse	1	t		66.0	2.5	/experiments/Knapen_AOT/AOT_stimuli/rescaled_final/0842_fw.mp4	0.0	387.7598385810852	
68	293.16047763824463	fix_post	2		12	66.0	2.5	/experiments/Knapen_AOT/AOT_stimuli/rescaled_final/0842_fw.mp4	0.0	387.88422560691833	0.10000896453857422
69	293.2604866027832	fix_pre	0		120	67.0	2.5	/experiments/Knapen_AOT/AOT_stimuli/rescaled_final/1465_fw.mp4	0.0	387.9842345714569	1.0085124969482422
69	294.26899909973145	movie	1		264	67.0	2.5	/experiments/Knapen_AOT/AOT_stimuli/rescaled_final/1465_fw.mp4	0.0	388.99274706840515	2.491981267929077
69	294.6366674900055	pulse	1	t		67.0	2.5	/experiments/Knapen_AOT/AOT_stimuli/rescaled_final/1465_fw.mp4	0.0	389.3604154586792	
69	296.236221075058	pulse	1	t		67.0	2.5	/experiments/Knapen_AOT/AOT_stimuli/rescaled_final/1465_fw.mp4	0.0	390.9599690437317	
69	296.7609803676605	fix_post	2		12	67.0	2.5	/experiments/Knapen_AOT/AOT_stimuli/rescaled_final/1465_fw.mp4	0.0	391.48472833633423	0.1000828742980957
70	296.8610632419586	fix_pre	0		118	68.0	2.5	blank	1.0	391.5848112106323	0.9834249019622803
70	297.83642053604126	pulse	0	t		68.0	2.5	blank	1.0	392.56016850471497	
70	297.8444881439209	movie	1		301	68.0	2.5	blank	1.0	392.5682361125946	2.5088460445404053
70	299.4367024898529	pulse	1	t		68.0	2.5	blank	1.0	394.1604504585266	
70	300.3533341884613	fix_post	2		12	68.0	2.5	blank	1.0	395.077082157135	0.09990668296813965
71	300.45324087142944	fix_pre	0		120	69.0	2.5	/experiments/Knapen_AOT/AOT_stimuli/rescaled_final/0458_rv.mp4	0.0	395.17698884010315	1.0084779262542725
71	301.0369324684143	pulse	0	t		69.0	2.5	/experiments/Knapen_AOT/AOT_stimuli/rescaled_final/0458_rv.mp4	0.0	395.760680437088	
71	301.4617187976837	movie	1		273	69.0	2.5	/experiments/Knapen_AOT/AOT_stimuli/rescaled_final/0458_rv.mp4	0.0	396.1854667663574	2.492067575454712
71	302.6371691226959	pulse	1	t		69.0	2.5	/experiments/Knapen_AOT/AOT_stimuli/rescaled_final/0458_rv.mp4	0.0	397.36091709136963	
71	303.9537863731384	fix_post	2		12	69.0	2.5	/experiments/Knapen_AOT/AOT_stimuli/rescaled_final/0458_rv.mp4	0.0	398.67753434181213	0.09999895095825195
72	304.0537853240967	fix_pre	0		120	70.0	2.5	/experiments/Knapen_AOT/AOT_stimuli/rescaled_final/0781_fw.mp4	0.0	398.7775332927704	1.0084755420684814
72	304.2373504638672	pulse	0	t		70.0	2.5	/experiments/Knapen_AOT/AOT_stimuli/rescaled_final/0781_fw.mp4	0.0	398.9610984325409	
72	305.06226086616516	movie	1		281	70.0	2.5	/experiments/Knapen_AOT/AOT_stimuli/rescaled_final/0781_fw.mp4	0.0	399.78600883483887	2.492154121398926
72	305.83775639533997	pulse	1	t		70.0	2.5	/experiments/Knapen_AOT/AOT_stimuli/rescaled_final/0781_fw.mp4	0.0	400.5615043640137	
72	307.43651723861694	pulse	1	t		70.0	2.5	/experiments/Knapen_AOT/AOT_stimuli/rescaled_final/0781_fw.mp4	0.0	402.16026520729065	
72	307.5544149875641	fix_post	2		12	70.0	2.5	/experiments/Knapen_AOT/AOT_stimuli/rescaled_final/0781_fw.mp4	0.0	402.2781629562378	0.09995722770690918
73	307.654372215271	fix_pre	0		120	71.0	2.5	/experiments/Knapen_AOT/AOT_stimuli/rescaled_final/0504_rv.mp4	0.0	402.3781201839447	1.0084567070007324
73	308.66282892227173	movie	1		282	71.0	2.5	/experiments/Knapen_AOT/AOT_stimuli/rescaled_final/0504_rv.mp4	0.0	403.38657689094543	2.49204421043396
73	309.03701186180115	pulse	1	t		71.0	2.5	/experiments/Knapen_AOT/AOT_stimuli/rescaled_final/0504_rv.mp4	0.0	403.76075983047485	
73	310.6369230747223	pulse	1	t		71.0	2.5	/experiments/Knapen_AOT/AOT_stimuli/rescaled_final/0504_rv.mp4	0.0	405.360671043396	
73	311.1548731327057	fix_post	2		12	71.0	2.5	/experiments/Knapen_AOT/AOT_stimuli/rescaled_final/0504_rv.mp4	0.0	405.8786211013794	0.10001063346862793
74	311.2548837661743	fix_pre	0		119	72.0	2.5	/experiments/Knapen_AOT/AOT_stimuli/rescaled_final/2028_rv.mp4	0.0	405.978631734848	1.0001938343048096
74	312.23855328559875	pulse	0	t		72.0	2.5	/experiments/Knapen_AOT/AOT_stimuli/rescaled_final/2028_rv.mp4	0.0	406.96230125427246	
74	312.2550776004791	movie	1		272	72.0	2.5	/experiments/Knapen_AOT/AOT_stimuli/rescaled_final/2028_rv.mp4	0.0	406.97882556915283	2.5003013610839844
74	313.8379898071289	pulse	1	t		72.0	2.5	/experiments/Knapen_AOT/AOT_stimuli/rescaled_final/2028_rv.mp4	0.0	408.5617377758026	
74	314.7553789615631	fix_post	2		12	72.0	2.5	/experiments/Knapen_AOT/AOT_stimuli/rescaled_final/2028_rv.mp4	0.0	409.4791269302368	0.10004830360412598
75	314.85542726516724	fix_pre	0		120	73.0	2.5	/experiments/Knapen_AOT/AOT_stimuli/rescaled_final/0333_rv.mp4	0.0	409.57917523384094	1.0084786415100098
75	315.43899488449097	pulse	0	t		73.0	2.5	/experiments/Knapen_AOT/AOT_stimuli/rescaled_final/0333_rv.mp4	0.0	410.1627428531647	
75	315.86390590667725	movie	1		268	73.0	2.5	/experiments/Knapen_AOT/AOT_stimuli/rescaled_final/0333_rv.mp4	0.0	410.58765387535095	2.4920077323913574
75	317.0376949310303	pulse	1	t		73.0	2.5	/experiments/Knapen_AOT/AOT_stimuli/rescaled_final/0333_rv.mp4	0.0	411.761442899704	
75	318.3559136390686	fix_post	2		12	73.0	2.5	/experiments/Knapen_AOT/AOT_stimuli/rescaled_final/0333_rv.mp4	0.0	413.0796616077423	0.10004639625549316
76	318.4559600353241	fix_pre	0		120	74.0	2.5	/experiments/Knapen_AOT/AOT_stimuli/rescaled_final/1333_fw.mp4	0.0	413.1797080039978	1.008460283279419
76	318.63954281806946	pulse	0	t		74.0	2.5	/experiments/Knapen_AOT/AOT_stimuli/rescaled_final/1333_fw.mp4	0.0	413.36329078674316	
76	319.4644203186035	movie	1		258	74.0	2.5	/experiments/Knapen_AOT/AOT_stimuli/rescaled_final/1333_fw.mp4	0.0	414.1881682872772	2.4920499324798584
76	320.239159822464	pulse	1	t		74.0	2.5	/experiments/Knapen_AOT/AOT_stimuli/rescaled_final/1333_fw.mp4	0.0	414.9629077911377	
76	321.841677904129	pulse	1	t		74.0	2.5	/experiments/Knapen_AOT/AOT_stimuli/rescaled_final/1333_fw.mp4	0.0	416.56542587280273	
76	321.9564702510834	fix_post	2		12	74.0	2.5	/experiments/Knapen_AOT/AOT_stimuli/rescaled_final/1333_fw.mp4	0.0	416.6802182197571	0.09999990463256836
77	322.05647015571594	fix_pre	0		120	75.0	2.5	/experiments/Knapen_AOT/AOT_stimuli/rescaled_final/0861_fw.mp4	0.0	416.78021812438965	1.0085411071777344
77	323.0650112628937	movie	1		275	75.0	2.5	/experiments/Knapen_AOT/AOT_stimuli/rescaled_final/0861_fw.mp4	0.0	417.7887592315674	2.492018222808838
77	323.44027185440063	pulse	1	t		75.0	2.5	/experiments/Knapen_AOT/AOT_stimuli/rescaled_final/0861_fw.mp4	0.0	418.16401982307434	
77	325.0389542579651	pulse	1	t		75.0	2.5	/experiments/Knapen_AOT/AOT_stimuli/rescaled_final/0861_fw.mp4	0.0	419.7627022266388	
77	325.5570294857025	fix_post	2		12	75.0	2.5	/experiments/Knapen_AOT/AOT_stimuli/rescaled_final/0861_fw.mp4	0.0	420.2807774543762	0.09999728202819824
78	325.6570267677307	fix_pre	0		119	76.0	2.5	/experiments/Knapen_AOT/AOT_stimuli/rescaled_final/1713_rv.mp4	0.0	420.3807747364044	1.0001392364501953
78	326.64067673683167	pulse	0	t		76.0	2.5	/experiments/Knapen_AOT/AOT_stimuli/rescaled_final/1713_rv.mp4	0.0	421.36442470550537	
78	326.6571660041809	movie	1		271	76.0	2.5	/experiments/Knapen_AOT/AOT_stimuli/rescaled_final/1713_rv.mp4	0.0	421.3809139728546	2.5004000663757324
78	328.24118185043335	pulse	1	t		76.0	2.5	/experiments/Knapen_AOT/AOT_stimuli/rescaled_final/1713_rv.mp4	0.0	422.96492981910706	
78	329.15756607055664	fix_post	2		12	76.0	2.5	/experiments/Knapen_AOT/AOT_stimuli/rescaled_final/1713_rv.mp4	0.0	423.88131403923035	0.10001111030578613
79	329.2575771808624	fix_pre	0		120	77.0	2.5	blank	1.0	423.98132514953613	1.0001254081726074
79	329.8411853313446	pulse	0	t		77.0	2.5	blank	1.0	424.5649333000183	
79	330.25770258903503	movie	1		300	77.0	2.5	blank	1.0	424.98145055770874	2.500422954559326
79	331.44170904159546	pulse	1	t		77.0	2.5	blank	1.0	426.16545701026917	
79	332.75812554359436	fix_post	2		12	77.0	2.5	blank	1.0	427.48187351226807	0.09998774528503418
80	332.8581132888794	fix_pre	0		120	78.0	2.5	/experiments/Knapen_AOT/AOT_stimuli/rescaled_final/1197_rv.mp4	0.0	427.5818612575531	1.008568525314331
80	333.0418293476105	pulse	0	t		78.0	2.5	/experiments/Knapen_AOT/AOT_stimuli/rescaled_final/1197_rv.mp4	0.0	427.7655773162842	
80	333.8666818141937	movie	1		271	78.0	2.5	/experiments/Knapen_AOT/AOT_stimuli/rescaled_final/1197_rv.mp4	0.0	428.59042978286743	2.4919862747192383
80	334.639564037323	pulse	1	t		78.0	2.5	/experiments/Knapen_AOT/AOT_stimuli/rescaled_final/1197_rv.mp4	0.0	429.3633120059967	
80	336.24055075645447	pulse	1	t		78.0	2.5	/experiments/Knapen_AOT/AOT_stimuli/rescaled_final/1197_rv.mp4	0.0	430.9642987251282	
80	336.35866808891296	fix_post	2		12	78.0	2.5	/experiments/Knapen_AOT/AOT_stimuli/rescaled_final/1197_rv.mp4	0.0	431.08241605758667	0.09997844696044922
81	336.4586465358734	fix_pre	0		120	79.0	2.5	/experiments/Knapen_AOT/AOT_stimuli/rescaled_final/1508_fw.mp4	0.0	431.1823945045471	1.0085227489471436
81	337.46716928482056	movie	1		269	79.0	2.5	/experiments/Knapen_AOT/AOT_stimuli/rescaled_final/1508_fw.mp4	0.0	432.19091725349426	2.49202036857605
81	337.84265518188477	pulse	1	t		79.0	2.5	/experiments/Knapen_AOT/AOT_stimuli/rescaled_final/1508_fw.mp4	0.0	432.5664031505585	
81	339.4410049915314	pulse	1	t		79.0	2.5	/experiments/Knapen_AOT/AOT_stimuli/rescaled_final/1508_fw.mp4	0.0	434.1647529602051	
81	339.9591896533966	fix_post	2		12	79.0	2.5	/experiments/Knapen_AOT/AOT_stimuli/rescaled_final/1508_fw.mp4	0.0	434.6829376220703	0.09999728202819824
82	340.0591869354248	fix_pre	0		119	80.0	2.5	/experiments/Knapen_AOT/AOT_stimuli/rescaled_final/0176_fw.mp4	0.0	434.7829349040985	1.0001673698425293
82	341.03650641441345	pulse	0	t		80.0	2.5	/experiments/Knapen_AOT/AOT_stimuli/rescaled_final/0176_fw.mp4	0.0	435.76025438308716	
82	341.05935430526733	movie	1		281	80.0	2.5	/experiments/Knapen_AOT/AOT_stimuli/rescaled_final/0176_fw.mp4	0.0	435.78310227394104	2.5003931522369385
82	342.64200615882874	pulse	1	t		80.0	2.5	/experiments/Knapen_AOT/AOT_stimuli/rescaled_final/0176_fw.mp4	0.0	437.36575412750244	
82	343.5597474575043	fix_post	2		12	80.0	2.5	/experiments/Knapen_AOT/AOT_stimuli/rescaled_final/0176_fw.mp4	0.0	438.283495426178	0.09998416900634766
83	343.6597316265106	fix_pre	0		120	81.0	2.5	/experiments/Knapen_AOT/AOT_stimuli/rescaled_final/0284_fw.mp4	0.0	438.3834795951843	1.0085046291351318
83	344.2433834075928	pulse	0	t		81.0	2.5	/experiments/Knapen_AOT/AOT_stimuli/rescaled_final/0284_fw.mp4	0.0	438.9671313762665	
83	344.66823625564575	movie	1		285	81.0	2.5	/experiments/Knapen_AOT/AOT_stimuli/rescaled_final/0284_fw.mp4	0.0	439.39198422431946	2.492032289505005
83	345.8415973186493	pulse	1	t		81.0	2.5	/experiments/Knapen_AOT/AOT_stimuli/rescaled_final/0284_fw.mp4	0.0	440.565345287323	
83	347.16026854515076	fix_post	2		11	81.0	2.5	/experiments/Knapen_AOT/AOT_stimuli/rescaled_final/0284_fw.mp4	0.0	441.88401651382446	0.10002541542053223
84	347.2602939605713	fix_pre	0		120	82.0	2.5	/experiments/Knapen_AOT/AOT_stimuli/rescaled_final/1300_rv.mp4	0.0	441.984041929245	1.0084755420684814
84	347.436799287796	pulse	0	t		82.0	2.5	/experiments/Knapen_AOT/AOT_stimuli/rescaled_final/1300_rv.mp4	0.0	442.1605472564697	
84	348.26876950263977	movie	1		277	82.0	2.5	/experiments/Knapen_AOT/AOT_stimuli/rescaled_final/1300_rv.mp4	0.0	442.9925174713135	2.5003907680511475
84	349.04277777671814	pulse	1	t		82.0	2.5	/experiments/Knapen_AOT/AOT_stimuli/rescaled_final/1300_rv.mp4	0.0	443.76652574539185	
84	350.6365885734558	pulse	1	t		82.0	2.5	/experiments/Knapen_AOT/AOT_stimuli/rescaled_final/1300_rv.mp4	0.0	445.3603365421295	
84	350.7691602706909	fix_post	2		11	82.0	2.5	/experiments/Knapen_AOT/AOT_stimuli/rescaled_final/1300_rv.mp4	0.0	445.4929082393646	0.09160351753234863
85	350.86076378822327	fix_pre	0		120	83.0	2.5	blank	1.0	445.584511756897	1.0001988410949707
85	351.86096262931824	movie	1		300	83.0	2.5	blank	1.0	446.58471059799194	2.5004239082336426
85	352.23639941215515	pulse	1	t		83.0	2.5	blank	1.0	446.96014738082886	
85	353.83664202690125	pulse	1	t		83.0	2.5	blank	1.0	448.56038999557495	
85	354.3613865375519	fix_post	2		12	83.0	2.5	blank	1.0	449.0851345062256	0.09992814064025879
87	354.46131467819214	stim	0		1715					449.18506264686584	14.29384994506836
87	355.4369206428528	pulse	0	t						450.1606686115265	
87	357.0370247364044	pulse	0	t						451.7607727050781	
87	358.6372652053833	pulse	0	t						453.361013174057	
87	360.2374930381775	pulse	0	t						454.9612410068512	
87	361.83768701553345	pulse	0	t						456.56143498420715	
87	363.4378650188446	pulse	0	t						458.1616129875183	
87	365.0381865501404	pulse	0	t						459.7619345188141	
87	366.63838720321655	pulse	0	t						461.36213517189026	
87	368.2387783527374	pulse	0	t						462.96252632141113	
