trial_nr	onset	event_type	phase	response	nr_frames	movie_index	movie_duration	movie_file	blank	onset_abs	duration
0	0.1666116714477539	stim	0		5					21.13556718826294	0.04155921936035156
0	0.20021343231201172	response	0	space						21.169168949127197	
1	0.20817089080810547	stim	0		4787					21.17712640762329	39.90060329437256
1	40.098002195358276	pulse	0	t						61.06695771217346	
1	40.108774185180664	stim	1		1714					61.07772970199585	14.299274682998657
1	41.69796800613403	pulse	1	t						62.66692352294922	
1	43.29851937294006	pulse	1	t						64.26747488975525	
1	44.89842081069946	pulse	1	t						65.86737632751465	
1	46.4989275932312	pulse	1	t						67.46788311004639	
1	48.09890842437744	pulse	1	t						69.06786394119263	
1	49.69913363456726	pulse	1	t						70.66808915138245	
1	51.291584730148315	pulse	1	t						72.2605402469635	
1	52.8916654586792	pulse	1	t						73.86062097549438	
2	54.40804886817932	fix_pre	0		11	0.0	2.5	/experiments/knapen_AOT/AOT_stimuli/rescaled_final/1925_fw.mp4	0.0	75.3770043849945	0.11672019958496094
2	54.491859436035156	pulse	0	t		0.0	2.5	/experiments/knapen_AOT/AOT_stimuli/rescaled_final/1925_fw.mp4	0.0	75.46081495285034	
2	54.52476906776428	movie	1		289	0.0	2.5	/experiments/knapen_AOT/AOT_stimuli/rescaled_final/1925_fw.mp4	0.0	75.49372458457947	2.4836537837982178
2	56.09189462661743	pulse	1	t		0.0	2.5	/experiments/knapen_AOT/AOT_stimuli/rescaled_final/1925_fw.mp4	0.0	77.06085014343262	
2	57.0084228515625	fix_post	2		12	0.0	2.5	/experiments/knapen_AOT/AOT_stimuli/rescaled_final/1925_fw.mp4	0.0	77.97737836837769	0.10002398490905762
3	57.10844683647156	fix_pre	0		120	1.0	2.5	/experiments/knapen_AOT/AOT_stimuli/rescaled_final/2092_fw.mp4	0.0	78.07740235328674	1.0084939002990723
3	57.692068338394165	pulse	0	t		1.0	2.5	/experiments/knapen_AOT/AOT_stimuli/rescaled_final/2092_fw.mp4	0.0	78.66102385520935	
3	58.11694073677063	movie	1		285	1.0	2.5	/experiments/knapen_AOT/AOT_stimuli/rescaled_final/2092_fw.mp4	0.0	79.08589625358582	2.4920156002044678
3	59.29243016242981	pulse	1	t		1.0	2.5	/experiments/knapen_AOT/AOT_stimuli/rescaled_final/2092_fw.mp4	0.0	80.261385679245	
3	60.6089563369751	fix_post	2		12	1.0	2.5	/experiments/knapen_AOT/AOT_stimuli/rescaled_final/2092_fw.mp4	0.0	81.57791185379028	0.10003256797790527
4	60.708988904953	fix_pre	0		120	2.0	2.5	/experiments/knapen_AOT/AOT_stimuli/rescaled_final/0901_rv.mp4	0.0	81.67794442176819	1.0085082054138184
4	60.89273977279663	pulse	0	t		2.0	2.5	/experiments/knapen_AOT/AOT_stimuli/rescaled_final/0901_rv.mp4	0.0	81.86169528961182	
4	61.71749711036682	movie	1		286	2.0	2.5	/experiments/knapen_AOT/AOT_stimuli/rescaled_final/0901_rv.mp4	0.0	82.686452627182	2.4920144081115723
4	62.49282455444336	pulse	1	t		2.0	2.5	/experiments/knapen_AOT/AOT_stimuli/rescaled_final/0901_rv.mp4	0.0	83.46178007125854	
4	64.09314680099487	pulse	1	t		2.0	2.5	/experiments/knapen_AOT/AOT_stimuli/rescaled_final/0901_rv.mp4	0.0	85.06210231781006	
4	64.2095115184784	fix_post	2		12	2.0	2.5	/experiments/knapen_AOT/AOT_stimuli/rescaled_final/0901_rv.mp4	0.0	85.17846703529358	0.10001420974731445
5	64.30952572822571	fix_pre	0		120	3.0	2.5	/experiments/knapen_AOT/AOT_stimuli/rescaled_final/1696_rv.mp4	0.0	85.2784812450409	1.0085334777832031
5	65.31805920600891	movie	1		290	3.0	2.5	/experiments/knapen_AOT/AOT_stimuli/rescaled_final/1696_rv.mp4	0.0	86.2870147228241	2.491994857788086
5	65.6933240890503	pulse	1	t		3.0	2.5	/experiments/knapen_AOT/AOT_stimuli/rescaled_final/1696_rv.mp4	0.0	86.66227960586548	
5	67.29349613189697	pulse	1	t		3.0	2.5	/experiments/knapen_AOT/AOT_stimuli/rescaled_final/1696_rv.mp4	0.0	88.26245164871216	
5	67.810054063797	fix_post	2		12	3.0	2.5	/experiments/knapen_AOT/AOT_stimuli/rescaled_final/1696_rv.mp4	0.0	88.77900958061218	0.10001921653747559
6	67.91007328033447	fix_pre	0		119	4.0	2.5	/experiments/knapen_AOT/AOT_stimuli/rescaled_final/1042_rv.mp4	0.0	88.87902879714966	1.000182867050171
6	68.89380550384521	pulse	0	t		4.0	2.5	/experiments/knapen_AOT/AOT_stimuli/rescaled_final/1042_rv.mp4	0.0	89.8627610206604	
6	68.91025614738464	movie	1		289	4.0	2.5	/experiments/knapen_AOT/AOT_stimuli/rescaled_final/1042_rv.mp4	0.0	89.87921166419983	2.5003347396850586
6	70.49239540100098	pulse	1	t		4.0	2.5	/experiments/knapen_AOT/AOT_stimuli/rescaled_final/1042_rv.mp4	0.0	91.46135091781616	
6	71.4105908870697	fix_post	2		12	4.0	2.5	/experiments/knapen_AOT/AOT_stimuli/rescaled_final/1042_rv.mp4	0.0	92.37954640388489	0.10002994537353516
7	71.51062083244324	fix_pre	0		120	5.0	2.5	blank	1.0	92.47957634925842	1.0001564025878906
7	72.09429860115051	pulse	0	t		5.0	2.5	blank	1.0	93.0632541179657	
7	72.51077723503113	movie	1		300	5.0	2.5	blank	1.0	93.47973275184631	2.500357151031494
7	73.69449853897095	pulse	1	t		5.0	2.5	blank	1.0	94.66345405578613	
7	75.01113438606262	fix_post	2		12	5.0	2.5	blank	1.0	95.98008990287781	0.10003066062927246
8	75.1111650466919	fix_pre	0		120	6.0	2.5	/experiments/knapen_AOT/AOT_stimuli/rescaled_final/2084_rv.mp4	0.0	96.08012056350708	1.008516550064087
8	75.29478693008423	pulse	0	t		6.0	2.5	/experiments/knapen_AOT/AOT_stimuli/rescaled_final/2084_rv.mp4	0.0	96.26374244689941	
8	76.11968159675598	movie	1		288	6.0	2.5	/experiments/knapen_AOT/AOT_stimuli/rescaled_final/2084_rv.mp4	0.0	97.08863711357117	2.492016315460205
8	76.89268398284912	pulse	1	t		6.0	2.5	/experiments/knapen_AOT/AOT_stimuli/rescaled_final/2084_rv.mp4	0.0	97.8616394996643	
8	78.49325323104858	pulse	1	t		6.0	2.5	/experiments/knapen_AOT/AOT_stimuli/rescaled_final/2084_rv.mp4	0.0	99.46220874786377	
8	78.61169791221619	fix_post	2		12	6.0	2.5	/experiments/knapen_AOT/AOT_stimuli/rescaled_final/2084_rv.mp4	0.0	99.58065342903137	0.10000896453857422
9	78.71170687675476	fix_pre	0		120	7.0	2.5	/experiments/knapen_AOT/AOT_stimuli/rescaled_final/1629_fw.mp4	0.0	99.68066239356995	1.008476734161377
9	79.72018361091614	movie	1		290	7.0	2.5	/experiments/knapen_AOT/AOT_stimuli/rescaled_final/1629_fw.mp4	0.0	100.68913912773132	2.492077112197876
9	80.09399008750916	pulse	1	t		7.0	2.5	/experiments/knapen_AOT/AOT_stimuli/rescaled_final/1629_fw.mp4	0.0	101.06294560432434	
9	81.69336223602295	pulse	1	t		7.0	2.5	/experiments/knapen_AOT/AOT_stimuli/rescaled_final/1629_fw.mp4	0.0	102.66231775283813	
9	82.21226072311401	fix_post	2		12	7.0	2.5	/experiments/knapen_AOT/AOT_stimuli/rescaled_final/1629_fw.mp4	0.0	103.1812162399292	0.09997773170471191
10	82.31223845481873	fix_pre	0		119	8.0	2.5	/experiments/knapen_AOT/AOT_stimuli/rescaled_final/1781_rv.mp4	0.0	103.28119397163391	1.0001802444458008
10	83.2961494922638	pulse	0	t		8.0	2.5	/experiments/knapen_AOT/AOT_stimuli/rescaled_final/1781_rv.mp4	0.0	104.26510500907898	
10	83.31241869926453	movie	1		293	8.0	2.5	/experiments/knapen_AOT/AOT_stimuli/rescaled_final/1781_rv.mp4	0.0	104.28137421607971	2.5003702640533447
10	84.8952145576477	pulse	1	t		8.0	2.5	/experiments/knapen_AOT/AOT_stimuli/rescaled_final/1781_rv.mp4	0.0	105.86417007446289	
10	85.81278896331787	fix_post	2		12	8.0	2.5	/experiments/knapen_AOT/AOT_stimuli/rescaled_final/1781_rv.mp4	0.0	106.78174448013306	0.10009098052978516
11	85.91287994384766	fix_pre	0		120	9.0	2.5	/experiments/knapen_AOT/AOT_stimuli/rescaled_final/1244_fw.mp4	0.0	106.88183546066284	1.0084176063537598
11	86.49642205238342	pulse	0	t		9.0	2.5	/experiments/knapen_AOT/AOT_stimuli/rescaled_final/1244_fw.mp4	0.0	107.46537756919861	
11	86.92129755020142	movie	1		288	9.0	2.5	/experiments/knapen_AOT/AOT_stimuli/rescaled_final/1244_fw.mp4	0.0	107.8902530670166	2.4920146465301514
11	88.09508967399597	pulse	1	t		9.0	2.5	/experiments/knapen_AOT/AOT_stimuli/rescaled_final/1244_fw.mp4	0.0	109.06404519081116	
11	89.41331219673157	fix_post	2		12	9.0	2.5	/experiments/knapen_AOT/AOT_stimuli/rescaled_final/1244_fw.mp4	0.0	110.38226771354675	0.10000991821289062
12	89.51332211494446	fix_pre	0		120	10.0	2.5	/experiments/knapen_AOT/AOT_stimuli/rescaled_final/1617_fw.mp4	0.0	110.48227763175964	1.0085666179656982
12	89.6969838142395	pulse	0	t		10.0	2.5	/experiments/knapen_AOT/AOT_stimuli/rescaled_final/1617_fw.mp4	0.0	110.66593933105469	
12	90.52188873291016	movie	1		291	10.0	2.5	/experiments/knapen_AOT/AOT_stimuli/rescaled_final/1617_fw.mp4	0.0	111.49084424972534	2.4919605255126953
12	91.29505920410156	pulse	1	t		10.0	2.5	/experiments/knapen_AOT/AOT_stimuli/rescaled_final/1617_fw.mp4	0.0	112.26401472091675	
12	92.89534497261047	pulse	1	t		10.0	2.5	/experiments/knapen_AOT/AOT_stimuli/rescaled_final/1617_fw.mp4	0.0	113.86430048942566	
12	93.01384925842285	fix_post	2		12	10.0	2.5	/experiments/knapen_AOT/AOT_stimuli/rescaled_final/1617_fw.mp4	0.0	113.98280477523804	0.1000216007232666
13	93.11387085914612	fix_pre	0		120	11.0	2.5	/experiments/knapen_AOT/AOT_stimuli/rescaled_final/0295_rv.mp4	0.0	114.0828263759613	1.0085060596466064
13	94.12237691879272	movie	1		289	11.0	2.5	/experiments/knapen_AOT/AOT_stimuli/rescaled_final/0295_rv.mp4	0.0	115.09133243560791	2.4920530319213867
13	94.49766135215759	pulse	1	t		11.0	2.5	/experiments/knapen_AOT/AOT_stimuli/rescaled_final/0295_rv.mp4	0.0	115.46661686897278	
13	96.09610271453857	pulse	1	t		11.0	2.5	/experiments/knapen_AOT/AOT_stimuli/rescaled_final/0295_rv.mp4	0.0	117.06505823135376	
13	96.61442995071411	fix_post	2		12	11.0	2.5	/experiments/knapen_AOT/AOT_stimuli/rescaled_final/0295_rv.mp4	0.0	117.5833854675293	0.1000521183013916
14	96.7144820690155	fix_pre	0		119	12.0	2.5	/experiments/knapen_AOT/AOT_stimuli/rescaled_final/1350_rv.mp4	0.0	117.68343758583069	1.0000805854797363
14	97.69831085205078	pulse	0	t		12.0	2.5	/experiments/knapen_AOT/AOT_stimuli/rescaled_final/1350_rv.mp4	0.0	118.66726636886597	
14	97.71456265449524	movie	1		281	12.0	2.5	/experiments/knapen_AOT/AOT_stimuli/rescaled_final/1350_rv.mp4	0.0	118.68351817131042	2.5003905296325684
14	99.29695510864258	pulse	1	t		12.0	2.5	/experiments/knapen_AOT/AOT_stimuli/rescaled_final/1350_rv.mp4	0.0	120.26591062545776	
14	100.21495318412781	fix_post	2		12	12.0	2.5	/experiments/knapen_AOT/AOT_stimuli/rescaled_final/1350_rv.mp4	0.0	121.183908700943	0.10011696815490723
15	100.31507015228271	fix_pre	0		120	13.0	2.5	blank	1.0	121.2840256690979	1.0000438690185547
15	100.89857149124146	pulse	0	t		13.0	2.5	blank	1.0	121.86752700805664	
15	101.31511402130127	movie	1		300	13.0	2.5	blank	1.0	122.28406953811646	2.500361680984497
15	102.49887776374817	pulse	1	t		13.0	2.5	blank	1.0	123.46783328056335	
15	103.81547570228577	fix_post	2		12	13.0	2.5	blank	1.0	124.78443121910095	0.10003829002380371
16	103.91551399230957	fix_pre	0		120	14.0	2.5	/experiments/knapen_AOT/AOT_stimuli/rescaled_final/0755_fw.mp4	0.0	124.88446950912476	1.008516788482666
16	104.09902930259705	pulse	0	t		14.0	2.5	/experiments/knapen_AOT/AOT_stimuli/rescaled_final/0755_fw.mp4	0.0	125.06798481941223	
16	104.92403078079224	movie	1		285	14.0	2.5	/experiments/knapen_AOT/AOT_stimuli/rescaled_final/0755_fw.mp4	0.0	125.89298629760742	2.4920406341552734
16	105.6970624923706	pulse	1	t		14.0	2.5	/experiments/knapen_AOT/AOT_stimuli/rescaled_final/0755_fw.mp4	0.0	126.66601800918579	
16	107.29751968383789	pulse	1	t		14.0	2.5	/experiments/knapen_AOT/AOT_stimuli/rescaled_final/0755_fw.mp4	0.0	128.26647520065308	
16	107.41607141494751	fix_post	2		12	14.0	2.5	/experiments/knapen_AOT/AOT_stimuli/rescaled_final/0755_fw.mp4	0.0	128.3850269317627	0.09997057914733887
17	107.51604199409485	fix_pre	0		120	15.0	2.5	/experiments/knapen_AOT/AOT_stimuli/rescaled_final/1002_fw.mp4	0.0	128.48499751091003	1.0085506439208984
17	108.52459263801575	movie	1		280	15.0	2.5	/experiments/knapen_AOT/AOT_stimuli/rescaled_final/1002_fw.mp4	0.0	129.49354815483093	2.4919910430908203
17	108.89817643165588	pulse	1	t		15.0	2.5	/experiments/knapen_AOT/AOT_stimuli/rescaled_final/1002_fw.mp4	0.0	129.86713194847107	
17	110.4979350566864	pulse	1	t		15.0	2.5	/experiments/knapen_AOT/AOT_stimuli/rescaled_final/1002_fw.mp4	0.0	131.4668905735016	
17	111.01658368110657	fix_post	2		12	15.0	2.5	/experiments/knapen_AOT/AOT_stimuli/rescaled_final/1002_fw.mp4	0.0	131.98553919792175	0.10003471374511719
18	111.11661839485168	fix_pre	0		118	16.0	2.5	/experiments/knapen_AOT/AOT_stimuli/rescaled_final/0755_rv.mp4	0.0	132.08557391166687	0.9918060302734375
18	112.09230852127075	pulse	0	t		16.0	2.5	/experiments/knapen_AOT/AOT_stimuli/rescaled_final/0755_rv.mp4	0.0	133.06126403808594	
18	112.10842442512512	movie	1		292	16.0	2.5	/experiments/knapen_AOT/AOT_stimuli/rescaled_final/0755_rv.mp4	0.0	133.0773799419403	2.5003788471221924
18	113.6922516822815	pulse	1	t		16.0	2.5	/experiments/knapen_AOT/AOT_stimuli/rescaled_final/0755_rv.mp4	0.0	134.66120719909668	
18	114.60880327224731	fix_post	2		12	16.0	2.5	/experiments/knapen_AOT/AOT_stimuli/rescaled_final/0755_rv.mp4	0.0	135.5777587890625	0.10002708435058594
19	114.7088303565979	fix_pre	0		120	17.0	2.5	/experiments/knapen_AOT/AOT_stimuli/rescaled_final/0953_fw.mp4	0.0	135.6777858734131	1.0084621906280518
19	115.29272079467773	pulse	0	t		17.0	2.5	/experiments/knapen_AOT/AOT_stimuli/rescaled_final/0953_fw.mp4	0.0	136.26167631149292	
19	115.71729254722595	movie	1		282	17.0	2.5	/experiments/knapen_AOT/AOT_stimuli/rescaled_final/0953_fw.mp4	0.0	136.68624806404114	2.4920265674591064
19	116.89266109466553	pulse	1	t		17.0	2.5	/experiments/knapen_AOT/AOT_stimuli/rescaled_final/0953_fw.mp4	0.0	137.8616166114807	
19	118.20931911468506	fix_post	2		12	17.0	2.5	/experiments/knapen_AOT/AOT_stimuli/rescaled_final/0953_fw.mp4	0.0	139.17827463150024	0.10003542900085449
20	118.30935454368591	fix_pre	0		120	18.0	2.5	/experiments/knapen_AOT/AOT_stimuli/rescaled_final/1067_fw.mp4	0.0	139.2783100605011	1.0085203647613525
20	118.49290704727173	pulse	0	t		18.0	2.5	/experiments/knapen_AOT/AOT_stimuli/rescaled_final/1067_fw.mp4	0.0	139.4618625640869	
20	119.31787490844727	movie	1		286	18.0	2.5	/experiments/knapen_AOT/AOT_stimuli/rescaled_final/1067_fw.mp4	0.0	140.28683042526245	2.491973876953125
20	120.0931224822998	pulse	1	t		18.0	2.5	/experiments/knapen_AOT/AOT_stimuli/rescaled_final/1067_fw.mp4	0.0	141.062077999115	
20	121.69281244277954	pulse	1	t		18.0	2.5	/experiments/knapen_AOT/AOT_stimuli/rescaled_final/1067_fw.mp4	0.0	142.66176795959473	
20	121.80984878540039	fix_post	2		12	18.0	2.5	/experiments/knapen_AOT/AOT_stimuli/rescaled_final/1067_fw.mp4	0.0	142.77880430221558	0.10003829002380371
21	121.9098870754242	fix_pre	0		120	19.0	2.5	/experiments/knapen_AOT/AOT_stimuli/rescaled_final/1452_rv.mp4	0.0	142.87884259223938	1.0084974765777588
21	122.91838455200195	movie	1		282	19.0	2.5	/experiments/knapen_AOT/AOT_stimuli/rescaled_final/1452_rv.mp4	0.0	143.88734006881714	2.4920051097869873
21	123.29385685920715	pulse	1	t		19.0	2.5	/experiments/knapen_AOT/AOT_stimuli/rescaled_final/1452_rv.mp4	0.0	144.26281237602234	
21	124.8918251991272	pulse	1	t		19.0	2.5	/experiments/knapen_AOT/AOT_stimuli/rescaled_final/1452_rv.mp4	0.0	145.86078071594238	
21	125.41038966178894	fix_post	2		12	19.0	2.5	/experiments/knapen_AOT/AOT_stimuli/rescaled_final/1452_rv.mp4	0.0	146.37934517860413	0.10003137588500977
22	125.51042103767395	fix_pre	0		119	20.0	2.5	/experiments/knapen_AOT/AOT_stimuli/rescaled_final/1134_rv.mp4	0.0	146.47937655448914	1.0001788139343262
22	126.4941086769104	pulse	0	t		20.0	2.5	/experiments/knapen_AOT/AOT_stimuli/rescaled_final/1134_rv.mp4	0.0	147.4630641937256	
22	126.51059985160828	movie	1		285	20.0	2.5	/experiments/knapen_AOT/AOT_stimuli/rescaled_final/1134_rv.mp4	0.0	147.47955536842346	2.500352144241333
22	128.09301376342773	pulse	1	t		20.0	2.5	/experiments/knapen_AOT/AOT_stimuli/rescaled_final/1134_rv.mp4	0.0	149.06196928024292	
22	129.0109519958496	fix_post	2		12	20.0	2.5	/experiments/knapen_AOT/AOT_stimuli/rescaled_final/1134_rv.mp4	0.0	149.9799075126648	0.09998774528503418
23	129.11093974113464	fix_pre	0		120	21.0	2.5	blank	1.0	150.07989525794983	1.0001626014709473
23	129.694561958313	pulse	0	t		21.0	2.5	blank	1.0	150.66351747512817	
23	130.1111023426056	movie	1		300	21.0	2.5	blank	1.0	151.08005785942078	2.5003724098205566
23	131.29492807388306	pulse	1	t		21.0	2.5	blank	1.0	152.26388359069824	
23	132.61147475242615	fix_post	2		12	21.0	2.5	blank	1.0	153.58043026924133	0.10004329681396484
24	132.7115180492401	fix_pre	0		120	22.0	2.5	/experiments/knapen_AOT/AOT_stimuli/rescaled_final/1708_rv.mp4	0.0	153.6804735660553	1.0084714889526367
24	132.89520907402039	pulse	0	t		22.0	2.5	/experiments/knapen_AOT/AOT_stimuli/rescaled_final/1708_rv.mp4	0.0	153.86416459083557	
24	133.71998953819275	movie	1		289	22.0	2.5	/experiments/knapen_AOT/AOT_stimuli/rescaled_final/1708_rv.mp4	0.0	154.68894505500793	2.4920473098754883
24	134.4937093257904	pulse	1	t		22.0	2.5	/experiments/knapen_AOT/AOT_stimuli/rescaled_final/1708_rv.mp4	0.0	155.4626648426056	
24	136.09428787231445	pulse	1	t		22.0	2.5	/experiments/knapen_AOT/AOT_stimuli/rescaled_final/1708_rv.mp4	0.0	157.06324338912964	
24	136.21203684806824	fix_post	2		12	22.0	2.5	/experiments/knapen_AOT/AOT_stimuli/rescaled_final/1708_rv.mp4	0.0	157.18099236488342	0.1000213623046875
25	136.31205821037292	fix_pre	0		120	23.0	2.5	/experiments/knapen_AOT/AOT_stimuli/rescaled_final/0237_rv.mp4	0.0	157.2810137271881	1.0084905624389648
25	137.3205487728119	movie	1		288	23.0	2.5	/experiments/knapen_AOT/AOT_stimuli/rescaled_final/0237_rv.mp4	0.0	158.28950428962708	2.49202561378479
25	137.69497418403625	pulse	1	t		23.0	2.5	/experiments/knapen_AOT/AOT_stimuli/rescaled_final/0237_rv.mp4	0.0	158.66392970085144	
25	139.29613780975342	pulse	1	t		23.0	2.5	/experiments/knapen_AOT/AOT_stimuli/rescaled_final/0237_rv.mp4	0.0	160.2650933265686	
25	139.81257438659668	fix_post	2		12	23.0	2.5	/experiments/knapen_AOT/AOT_stimuli/rescaled_final/0237_rv.mp4	0.0	160.78152990341187	0.10001206398010254
26	139.91258645057678	fix_pre	0		119	24.0	2.5	/experiments/knapen_AOT/AOT_stimuli/rescaled_final/0381_fw.mp4	0.0	160.88154196739197	1.0001766681671143
26	140.89618635177612	pulse	0	t		24.0	2.5	/experiments/knapen_AOT/AOT_stimuli/rescaled_final/0381_fw.mp4	0.0	161.8651418685913	
26	140.9127631187439	movie	1		292	24.0	2.5	/experiments/knapen_AOT/AOT_stimuli/rescaled_final/0381_fw.mp4	0.0	161.88171863555908	2.5003433227539062
26	142.49458074569702	pulse	1	t		24.0	2.5	/experiments/knapen_AOT/AOT_stimuli/rescaled_final/0381_fw.mp4	0.0	163.4635362625122	
26	143.4131064414978	fix_post	2		12	24.0	2.5	/experiments/knapen_AOT/AOT_stimuli/rescaled_final/0381_fw.mp4	0.0	164.382061958313	0.10012078285217285
27	143.51322722434998	fix_pre	0		120	25.0	2.5	/experiments/knapen_AOT/AOT_stimuli/rescaled_final/0675_fw.mp4	0.0	164.48218274116516	1.0084624290466309
27	144.09674906730652	pulse	0	t		25.0	2.5	/experiments/knapen_AOT/AOT_stimuli/rescaled_final/0675_fw.mp4	0.0	165.0657045841217	
27	144.5216896533966	movie	1		278	25.0	2.5	/experiments/knapen_AOT/AOT_stimuli/rescaled_final/0675_fw.mp4	0.0	165.4906451702118	2.4919638633728027
27	145.69506192207336	pulse	1	t		25.0	2.5	/experiments/knapen_AOT/AOT_stimuli/rescaled_final/0675_fw.mp4	0.0	166.66401743888855	
27	147.0136535167694	fix_post	2		12	25.0	2.5	/experiments/knapen_AOT/AOT_stimuli/rescaled_final/0675_fw.mp4	0.0	167.9826090335846	0.10001826286315918
28	147.11367177963257	fix_pre	0		120	26.0	2.5	blank	1.0	168.08262729644775	1.0001509189605713
28	147.29725694656372	pulse	0	t		26.0	2.5	blank	1.0	168.2662124633789	
28	148.11382269859314	movie	1		300	26.0	2.5	blank	1.0	169.08277821540833	2.5003645420074463
28	148.89746117591858	pulse	1	t		26.0	2.5	blank	1.0	169.86641669273376	
28	150.49782609939575	pulse	1	t		26.0	2.5	blank	1.0	171.46678161621094	
28	150.6141872406006	fix_post	2		12	26.0	2.5	blank	1.0	171.58314275741577	0.10003805160522461
29	150.7142252922058	fix_pre	0		120	27.0	2.5	/experiments/knapen_AOT/AOT_stimuli/rescaled_final/1016_fw.mp4	0.0	171.683180809021	1.0084915161132812
29	151.7227168083191	movie	1		280	27.0	2.5	/experiments/knapen_AOT/AOT_stimuli/rescaled_final/1016_fw.mp4	0.0	172.69167232513428	2.492138147354126
29	152.09680342674255	pulse	1	t		27.0	2.5	/experiments/knapen_AOT/AOT_stimuli/rescaled_final/1016_fw.mp4	0.0	173.06575894355774	
29	153.69586896896362	pulse	1	t		27.0	2.5	/experiments/knapen_AOT/AOT_stimuli/rescaled_final/1016_fw.mp4	0.0	174.6648244857788	
29	154.21485495567322	fix_post	2		12	27.0	2.5	/experiments/knapen_AOT/AOT_stimuli/rescaled_final/1016_fw.mp4	0.0	175.1838104724884	0.09990787506103516
30	154.31476283073425	fix_pre	0		119	28.0	2.5	/experiments/knapen_AOT/AOT_stimuli/rescaled_final/1887_fw.mp4	0.0	175.28371834754944	1.0002186298370361
30	155.29842352867126	pulse	0	t		28.0	2.5	/experiments/knapen_AOT/AOT_stimuli/rescaled_final/1887_fw.mp4	0.0	176.26737904548645	
30	155.3149814605713	movie	1		291	28.0	2.5	/experiments/knapen_AOT/AOT_stimuli/rescaled_final/1887_fw.mp4	0.0	176.28393697738647	2.5003273487091064
30	156.89782333374023	pulse	1	t		28.0	2.5	/experiments/knapen_AOT/AOT_stimuli/rescaled_final/1887_fw.mp4	0.0	177.86677885055542	
30	157.8153088092804	fix_post	2		12	28.0	2.5	/experiments/knapen_AOT/AOT_stimuli/rescaled_final/1887_fw.mp4	0.0	178.78426432609558	0.10002851486206055
31	157.91533732414246	fix_pre	0		120	29.0	2.5	/experiments/knapen_AOT/AOT_stimuli/rescaled_final/1950_fw.mp4	0.0	178.88429284095764	1.0086264610290527
31	158.49902820587158	pulse	0	t		29.0	2.5	/experiments/knapen_AOT/AOT_stimuli/rescaled_final/1950_fw.mp4	0.0	179.46798372268677	
31	158.9239637851715	movie	1		284	29.0	2.5	/experiments/knapen_AOT/AOT_stimuli/rescaled_final/1950_fw.mp4	0.0	179.8929193019867	2.4918861389160156
31	160.09840035438538	pulse	1	t		29.0	2.5	/experiments/knapen_AOT/AOT_stimuli/rescaled_final/1950_fw.mp4	0.0	181.06735587120056	
31	161.41584992408752	fix_post	2		12	29.0	2.5	/experiments/knapen_AOT/AOT_stimuli/rescaled_final/1950_fw.mp4	0.0	182.3848054409027	0.10007381439208984
32	161.51592373847961	fix_pre	0		120	30.0	2.5	/experiments/knapen_AOT/AOT_stimuli/rescaled_final/0578_fw.mp4	0.0	182.4848792552948	1.0084421634674072
32	161.69145607948303	pulse	0	t		30.0	2.5	/experiments/knapen_AOT/AOT_stimuli/rescaled_final/0578_fw.mp4	0.0	182.66041159629822	
32	162.52436590194702	movie	1		288	30.0	2.5	/experiments/knapen_AOT/AOT_stimuli/rescaled_final/0578_fw.mp4	0.0	183.4933214187622	2.4920060634613037
32	163.29162049293518	pulse	1	t		30.0	2.5	/experiments/knapen_AOT/AOT_stimuli/rescaled_final/0578_fw.mp4	0.0	184.26057600975037	
32	164.8915593624115	pulse	1	t		30.0	2.5	/experiments/knapen_AOT/AOT_stimuli/rescaled_final/0578_fw.mp4	0.0	185.86051487922668	
32	165.01637196540833	fix_post	2		12	30.0	2.5	/experiments/knapen_AOT/AOT_stimuli/rescaled_final/0578_fw.mp4	0.0	185.9853274822235	0.10001087188720703
33	165.11638283729553	fix_pre	0		120	31.0	2.5	/experiments/knapen_AOT/AOT_stimuli/rescaled_final/1106_rv.mp4	0.0	186.08533835411072	1.0085129737854004
33	166.12489581108093	movie	1		280	31.0	2.5	/experiments/knapen_AOT/AOT_stimuli/rescaled_final/1106_rv.mp4	0.0	187.09385132789612	2.4920153617858887
33	166.4918749332428	pulse	1	t		31.0	2.5	/experiments/knapen_AOT/AOT_stimuli/rescaled_final/1106_rv.mp4	0.0	187.46083045005798	
33	168.092205286026	pulse	1	t		31.0	2.5	/experiments/knapen_AOT/AOT_stimuli/rescaled_final/1106_rv.mp4	0.0	189.0611608028412	
33	168.61691117286682	fix_post	2		12	31.0	2.5	/experiments/knapen_AOT/AOT_stimuli/rescaled_final/1106_rv.mp4	0.0	189.585866689682	0.10004711151123047
34	168.71695828437805	fix_pre	0		118	32.0	2.5	/experiments/knapen_AOT/AOT_stimuli/rescaled_final/0315_fw.mp4	0.0	189.68591380119324	0.9919116497039795
34	169.69230365753174	pulse	0	t		32.0	2.5	/experiments/knapen_AOT/AOT_stimuli/rescaled_final/0315_fw.mp4	0.0	190.66125917434692	
34	169.70886993408203	movie	1		288	32.0	2.5	/experiments/knapen_AOT/AOT_stimuli/rescaled_final/0315_fw.mp4	0.0	190.67782545089722	2.500239372253418
34	171.29266715049744	pulse	1	t		32.0	2.5	/experiments/knapen_AOT/AOT_stimuli/rescaled_final/0315_fw.mp4	0.0	192.26162266731262	
34	172.20910930633545	fix_post	2		12	32.0	2.5	/experiments/knapen_AOT/AOT_stimuli/rescaled_final/0315_fw.mp4	0.0	193.17806482315063	0.10010457038879395
35	172.30921387672424	fix_pre	0		120	33.0	2.5	blank	1.0	193.27816939353943	1.000054121017456
35	172.89288878440857	pulse	0	t		33.0	2.5	blank	1.0	193.86184430122375	
35	173.3092679977417	movie	1		300	33.0	2.5	blank	1.0	194.27822351455688	2.500378370285034
35	174.49312043190002	pulse	1	t		33.0	2.5	blank	1.0	195.4620759487152	
35	175.80964636802673	fix_post	2		12	33.0	2.5	blank	1.0	196.77860188484192	0.10001993179321289
36	175.90966629981995	fix_pre	0		120	34.0	2.5	/experiments/knapen_AOT/AOT_stimuli/rescaled_final/1547_fw.mp4	0.0	196.87862181663513	1.0085229873657227
36	176.09324193000793	pulse	0	t		34.0	2.5	/experiments/knapen_AOT/AOT_stimuli/rescaled_final/1547_fw.mp4	0.0	197.06219744682312	
36	176.91818928718567	movie	1		274	34.0	2.5	/experiments/knapen_AOT/AOT_stimuli/rescaled_final/1547_fw.mp4	0.0	197.88714480400085	2.4920058250427246
36	177.69344758987427	pulse	1	t		34.0	2.5	/experiments/knapen_AOT/AOT_stimuli/rescaled_final/1547_fw.mp4	0.0	198.66240310668945	
36	179.29297041893005	pulse	1	t		34.0	2.5	/experiments/knapen_AOT/AOT_stimuli/rescaled_final/1547_fw.mp4	0.0	200.26192593574524	
36	179.4101951122284	fix_post	2		12	34.0	2.5	/experiments/knapen_AOT/AOT_stimuli/rescaled_final/1547_fw.mp4	0.0	200.37915062904358	0.1000213623046875
37	179.51021647453308	fix_pre	0		120	35.0	2.5	/experiments/knapen_AOT/AOT_stimuli/rescaled_final/1315_fw.mp4	0.0	200.47917199134827	1.008483648300171
37	180.51870012283325	movie	1		277	35.0	2.5	/experiments/knapen_AOT/AOT_stimuli/rescaled_final/1315_fw.mp4	0.0	201.48765563964844	2.492058753967285
37	180.89335322380066	pulse	1	t		35.0	2.5	/experiments/knapen_AOT/AOT_stimuli/rescaled_final/1315_fw.mp4	0.0	201.86230874061584	
37	182.492290019989	pulse	1	t		35.0	2.5	/experiments/knapen_AOT/AOT_stimuli/rescaled_final/1315_fw.mp4	0.0	203.4612455368042	
37	183.01075887680054	fix_post	2		12	35.0	2.5	/experiments/knapen_AOT/AOT_stimuli/rescaled_final/1315_fw.mp4	0.0	203.97971439361572	0.10006928443908691
38	183.11082816123962	fix_pre	0		119	36.0	2.5	/experiments/knapen_AOT/AOT_stimuli/rescaled_final/1533_fw.mp4	0.0	204.0797836780548	1.0000953674316406
38	184.0944607257843	pulse	0	t		36.0	2.5	/experiments/knapen_AOT/AOT_stimuli/rescaled_final/1533_fw.mp4	0.0	205.0634162425995	
38	184.11092352867126	movie	1		280	36.0	2.5	/experiments/knapen_AOT/AOT_stimuli/rescaled_final/1533_fw.mp4	0.0	205.07987904548645	2.5004079341888428
38	185.69334244728088	pulse	1	t		36.0	2.5	/experiments/knapen_AOT/AOT_stimuli/rescaled_final/1533_fw.mp4	0.0	206.66229796409607	
38	186.6113314628601	fix_post	2		12	36.0	2.5	/experiments/knapen_AOT/AOT_stimuli/rescaled_final/1533_fw.mp4	0.0	207.5802869796753	0.09996724128723145
39	186.71129870414734	fix_pre	0		120	37.0	2.5	/experiments/knapen_AOT/AOT_stimuli/rescaled_final/1976_rv.mp4	0.0	207.68025422096252	1.008540153503418
39	187.29496932029724	pulse	0	t		37.0	2.5	/experiments/knapen_AOT/AOT_stimuli/rescaled_final/1976_rv.mp4	0.0	208.26392483711243	
39	187.71983885765076	movie	1		276	37.0	2.5	/experiments/knapen_AOT/AOT_stimuli/rescaled_final/1976_rv.mp4	0.0	208.68879437446594	2.492004632949829
39	188.89385628700256	pulse	1	t		37.0	2.5	/experiments/knapen_AOT/AOT_stimuli/rescaled_final/1976_rv.mp4	0.0	209.86281180381775	
39	190.2118434906006	fix_post	2		12	37.0	2.5	/experiments/knapen_AOT/AOT_stimuli/rescaled_final/1976_rv.mp4	0.0	211.18079900741577	0.09999680519104004
40	190.31184029579163	fix_pre	0		120	38.0	2.5	/experiments/knapen_AOT/AOT_stimuli/rescaled_final/0084_fw.mp4	0.0	211.2807958126068	1.0084996223449707
40	190.49544262886047	pulse	0	t		38.0	2.5	/experiments/knapen_AOT/AOT_stimuli/rescaled_final/0084_fw.mp4	0.0	211.46439814567566	
40	191.3203399181366	movie	1		282	38.0	2.5	/experiments/knapen_AOT/AOT_stimuli/rescaled_final/0084_fw.mp4	0.0	212.28929543495178	2.492048501968384
40	192.09327673912048	pulse	1	t		38.0	2.5	/experiments/knapen_AOT/AOT_stimuli/rescaled_final/0084_fw.mp4	0.0	213.06223225593567	
40	193.69364213943481	pulse	1	t		38.0	2.5	/experiments/knapen_AOT/AOT_stimuli/rescaled_final/0084_fw.mp4	0.0	214.66259765625	
40	193.81238842010498	fix_post	2		12	38.0	2.5	/experiments/knapen_AOT/AOT_stimuli/rescaled_final/0084_fw.mp4	0.0	214.78134393692017	0.10001039505004883
41	193.91239881515503	fix_pre	0		120	39.0	2.5	/experiments/knapen_AOT/AOT_stimuli/rescaled_final/1705_rv.mp4	0.0	214.88135433197021	1.0084590911865234
41	194.92085790634155	movie	1		289	39.0	2.5	/experiments/knapen_AOT/AOT_stimuli/rescaled_final/1705_rv.mp4	0.0	215.88981342315674	2.4920589923858643
41	195.29455018043518	pulse	1	t		39.0	2.5	/experiments/knapen_AOT/AOT_stimuli/rescaled_final/1705_rv.mp4	0.0	216.26350569725037	
41	196.89425253868103	pulse	1	t		39.0	2.5	/experiments/knapen_AOT/AOT_stimuli/rescaled_final/1705_rv.mp4	0.0	217.86320805549622	
41	197.41291689872742	fix_post	2		12	39.0	2.5	/experiments/knapen_AOT/AOT_stimuli/rescaled_final/1705_rv.mp4	0.0	218.3818724155426	0.10000872611999512
42	197.5129256248474	fix_pre	0		119	40.0	2.5	/experiments/knapen_AOT/AOT_stimuli/rescaled_final/0112_rv.mp4	0.0	218.4818811416626	1.0001535415649414
42	198.49659037590027	pulse	0	t		40.0	2.5	/experiments/knapen_AOT/AOT_stimuli/rescaled_final/0112_rv.mp4	0.0	219.46554589271545	
42	198.51307916641235	movie	1		292	40.0	2.5	/experiments/knapen_AOT/AOT_stimuli/rescaled_final/0112_rv.mp4	0.0	219.48203468322754	2.5003602504730225
42	200.09510445594788	pulse	1	t		40.0	2.5	/experiments/knapen_AOT/AOT_stimuli/rescaled_final/0112_rv.mp4	0.0	221.06405997276306	
42	201.01343941688538	fix_post	2		12	40.0	2.5	/experiments/knapen_AOT/AOT_stimuli/rescaled_final/0112_rv.mp4	0.0	221.98239493370056	0.10001325607299805
43	201.11345267295837	fix_pre	0		120	41.0	2.5	/experiments/knapen_AOT/AOT_stimuli/rescaled_final/2055_rv.mp4	0.0	222.08240818977356	1.0085604190826416
43	201.69710516929626	pulse	0	t		41.0	2.5	/experiments/knapen_AOT/AOT_stimuli/rescaled_final/2055_rv.mp4	0.0	222.66606068611145	
43	202.12201309204102	movie	1		287	41.0	2.5	/experiments/knapen_AOT/AOT_stimuli/rescaled_final/2055_rv.mp4	0.0	223.0909686088562	2.4920597076416016
43	203.29563450813293	pulse	1	t		41.0	2.5	/experiments/knapen_AOT/AOT_stimuli/rescaled_final/2055_rv.mp4	0.0	224.26459002494812	
43	204.61407279968262	fix_post	2		12	41.0	2.5	/experiments/knapen_AOT/AOT_stimuli/rescaled_final/2055_rv.mp4	0.0	225.5830283164978	0.09993505477905273
44	204.71400785446167	fix_pre	0		120	42.0	2.5	blank	1.0	225.68296337127686	1.000197410583496
44	204.89777660369873	pulse	0	t		42.0	2.5	blank	1.0	225.86673212051392	
44	205.71420526504517	movie	1		300	42.0	2.5	blank	1.0	226.68316078186035	2.500308036804199
44	206.49785685539246	pulse	1	t		42.0	2.5	blank	1.0	227.46681237220764	
44	208.09798574447632	pulse	1	t		42.0	2.5	blank	1.0	229.0669412612915	
44	208.21451330184937	fix_post	2		12	42.0	2.5	blank	1.0	229.18346881866455	0.10005784034729004
45	208.31457114219666	fix_pre	0		120	43.0	2.5	/experiments/knapen_AOT/AOT_stimuli/rescaled_final/0164_rv.mp4	0.0	229.28352665901184	1.0084621906280518
45	209.3230333328247	movie	1		286	43.0	2.5	/experiments/knapen_AOT/AOT_stimuli/rescaled_final/0164_rv.mp4	0.0	230.2919888496399	2.4920403957366943
45	209.69706630706787	pulse	1	t		43.0	2.5	/experiments/knapen_AOT/AOT_stimuli/rescaled_final/0164_rv.mp4	0.0	230.66602182388306	
45	211.29641222953796	pulse	1	t		43.0	2.5	/experiments/knapen_AOT/AOT_stimuli/rescaled_final/0164_rv.mp4	0.0	232.26536774635315	
45	211.8150737285614	fix_post	2		12	43.0	2.5	/experiments/knapen_AOT/AOT_stimuli/rescaled_final/0164_rv.mp4	0.0	232.7840292453766	0.10002279281616211
46	211.91509652137756	fix_pre	0		119	44.0	2.5	/experiments/knapen_AOT/AOT_stimuli/rescaled_final/0891_fw.mp4	0.0	232.88405203819275	1.0001683235168457
46	212.898699760437	pulse	0	t		44.0	2.5	/experiments/knapen_AOT/AOT_stimuli/rescaled_final/0891_fw.mp4	0.0	233.8676552772522	
46	212.9152648448944	movie	1		272	44.0	2.5	/experiments/knapen_AOT/AOT_stimuli/rescaled_final/0891_fw.mp4	0.0	233.8842203617096	2.500398874282837
46	214.49918341636658	pulse	1	t		44.0	2.5	/experiments/knapen_AOT/AOT_stimuli/rescaled_final/0891_fw.mp4	0.0	235.46813893318176	
46	215.41566371917725	fix_post	2		12	44.0	2.5	/experiments/knapen_AOT/AOT_stimuli/rescaled_final/0891_fw.mp4	0.0	236.38461923599243	0.10005402565002441
47	215.51571774482727	fix_pre	0		120	45.0	2.5	/experiments/knapen_AOT/AOT_stimuli/rescaled_final/1180_fw.mp4	0.0	236.48467326164246	1.008458137512207
47	216.09926748275757	pulse	0	t		45.0	2.5	/experiments/knapen_AOT/AOT_stimuli/rescaled_final/1180_fw.mp4	0.0	237.06822299957275	
47	216.52417588233948	movie	1		259	45.0	2.5	/experiments/knapen_AOT/AOT_stimuli/rescaled_final/1180_fw.mp4	0.0	237.49313139915466	2.492011785507202
47	217.69759249687195	pulse	1	t		45.0	2.5	/experiments/knapen_AOT/AOT_stimuli/rescaled_final/1180_fw.mp4	0.0	238.66654801368713	
47	219.01618766784668	fix_post	2		12	45.0	2.5	/experiments/knapen_AOT/AOT_stimuli/rescaled_final/1180_fw.mp4	0.0	239.98514318466187	0.09998059272766113
48	219.11616826057434	fix_pre	0		120	46.0	2.5	/experiments/knapen_AOT/AOT_stimuli/rescaled_final/0184_fw.mp4	0.0	240.08512377738953	1.0084986686706543
48	219.29190182685852	pulse	0	t		46.0	2.5	/experiments/knapen_AOT/AOT_stimuli/rescaled_final/0184_fw.mp4	0.0	240.2608573436737	
48	220.124666929245	movie	1		287	46.0	2.5	/experiments/knapen_AOT/AOT_stimuli/rescaled_final/0184_fw.mp4	0.0	241.09362244606018	2.492030620574951
48	220.89206171035767	pulse	1	t		46.0	2.5	/experiments/knapen_AOT/AOT_stimuli/rescaled_final/0184_fw.mp4	0.0	241.86101722717285	
48	222.49201107025146	pulse	1	t		46.0	2.5	/experiments/knapen_AOT/AOT_stimuli/rescaled_final/0184_fw.mp4	0.0	243.46096658706665	
48	222.61669754981995	fix_post	2		12	46.0	2.5	/experiments/knapen_AOT/AOT_stimuli/rescaled_final/0184_fw.mp4	0.0	243.58565306663513	0.10003161430358887
49	222.71672916412354	fix_pre	0		120	47.0	2.5	blank	1.0	243.68568468093872	1.0001263618469238
49	223.71685552597046	movie	1		300	47.0	2.5	blank	1.0	244.68581104278564	2.5003950595855713
49	224.09211540222168	pulse	1	t		47.0	2.5	blank	1.0	245.06107091903687	
49	225.69238686561584	pulse	1	t		47.0	2.5	blank	1.0	246.66134238243103	
49	226.21725058555603	fix_post	2		12	47.0	2.5	blank	1.0	247.18620610237122	0.09999823570251465
50	226.31724882125854	fix_pre	0		118	48.0	2.5	/experiments/knapen_AOT/AOT_stimuli/rescaled_final/1009_fw.mp4	0.0	247.28620433807373	0.9918642044067383
50	227.29286170005798	pulse	0	t		48.0	2.5	/experiments/knapen_AOT/AOT_stimuli/rescaled_final/1009_fw.mp4	0.0	248.26181721687317	
50	227.30911302566528	movie	1		284	48.0	2.5	/experiments/knapen_AOT/AOT_stimuli/rescaled_final/1009_fw.mp4	0.0	248.27806854248047	2.500343084335327
50	228.8922402858734	pulse	1	t		48.0	2.5	/experiments/knapen_AOT/AOT_stimuli/rescaled_final/1009_fw.mp4	0.0	249.8611958026886	
50	229.8094561100006	fix_post	2		12	48.0	2.5	/experiments/knapen_AOT/AOT_stimuli/rescaled_final/1009_fw.mp4	0.0	250.7784116268158	0.1000056266784668
51	229.90946173667908	fix_pre	0		120	49.0	2.5	/experiments/knapen_AOT/AOT_stimuli/rescaled_final/0867_fw.mp4	0.0	250.87841725349426	1.0085089206695557
51	230.49301648139954	pulse	0	t		49.0	2.5	/experiments/knapen_AOT/AOT_stimuli/rescaled_final/0867_fw.mp4	0.0	251.46197199821472	
51	230.91797065734863	movie	1		284	49.0	2.5	/experiments/knapen_AOT/AOT_stimuli/rescaled_final/0867_fw.mp4	0.0	251.88692617416382	2.4920077323913574
51	232.09337043762207	pulse	1	t		49.0	2.5	/experiments/knapen_AOT/AOT_stimuli/rescaled_final/0867_fw.mp4	0.0	253.06232595443726	
51	233.40997838974	fix_post	2		12	49.0	2.5	/experiments/knapen_AOT/AOT_stimuli/rescaled_final/0867_fw.mp4	0.0	254.37893390655518	0.10005640983581543
52	233.5100347995758	fix_pre	0		120	50.0	2.5	/experiments/knapen_AOT/AOT_stimuli/rescaled_final/1793_rv.mp4	0.0	254.478990316391	1.008476972579956
52	233.6935636997223	pulse	0	t		50.0	2.5	/experiments/knapen_AOT/AOT_stimuli/rescaled_final/1793_rv.mp4	0.0	254.66251921653748	
52	234.51851177215576	movie	1		279	50.0	2.5	/experiments/knapen_AOT/AOT_stimuli/rescaled_final/1793_rv.mp4	0.0	255.48746728897095	2.492046594619751
52	235.29374718666077	pulse	1	t		50.0	2.5	/experiments/knapen_AOT/AOT_stimuli/rescaled_final/1793_rv.mp4	0.0	256.26270270347595	
52	236.8940510749817	pulse	1	t		50.0	2.5	/experiments/knapen_AOT/AOT_stimuli/rescaled_final/1793_rv.mp4	0.0	257.8630065917969	
52	237.0105583667755	fix_post	2		12	50.0	2.5	/experiments/knapen_AOT/AOT_stimuli/rescaled_final/1793_rv.mp4	0.0	257.9795138835907	0.09998464584350586
53	237.11054301261902	fix_pre	0		120	51.0	2.5	/experiments/knapen_AOT/AOT_stimuli/rescaled_final/0861_fw.mp4	0.0	258.0794985294342	1.0085020065307617
53	238.11904501914978	movie	1		275	51.0	2.5	/experiments/knapen_AOT/AOT_stimuli/rescaled_final/0861_fw.mp4	0.0	259.08800053596497	2.492190361022949
53	238.49317455291748	pulse	1	t		51.0	2.5	/experiments/knapen_AOT/AOT_stimuli/rescaled_final/0861_fw.mp4	0.0	259.46213006973267	
53	240.09251809120178	pulse	1	t		51.0	2.5	/experiments/knapen_AOT/AOT_stimuli/rescaled_final/0861_fw.mp4	0.0	261.06147360801697	
53	240.61123538017273	fix_post	2		12	51.0	2.5	/experiments/knapen_AOT/AOT_stimuli/rescaled_final/0861_fw.mp4	0.0	261.5801908969879	0.09985566139221191
54	240.71109104156494	fix_pre	0		119	52.0	2.5	/experiments/knapen_AOT/AOT_stimuli/rescaled_final/1350_rv.mp4	0.0	261.6800465583801	1.0001327991485596
54	241.69484567642212	pulse	0	t		52.0	2.5	/experiments/knapen_AOT/AOT_stimuli/rescaled_final/1350_rv.mp4	0.0	262.6638011932373	
54	241.7112238407135	movie	1		290	52.0	2.5	/experiments/knapen_AOT/AOT_stimuli/rescaled_final/1350_rv.mp4	0.0	262.6801793575287	2.500408411026001
54	243.29333209991455	pulse	1	t		52.0	2.5	/experiments/knapen_AOT/AOT_stimuli/rescaled_final/1350_rv.mp4	0.0	264.26228761672974	
54	244.2116322517395	fix_post	2		12	52.0	2.5	/experiments/knapen_AOT/AOT_stimuli/rescaled_final/1350_rv.mp4	0.0	265.1805877685547	0.0999906063079834
55	244.31162285804749	fix_pre	0		120	53.0	2.5	/experiments/knapen_AOT/AOT_stimuli/rescaled_final/1334_fw.mp4	0.0	265.28057837486267	1.0085320472717285
55	244.89524817466736	pulse	0	t		53.0	2.5	/experiments/knapen_AOT/AOT_stimuli/rescaled_final/1334_fw.mp4	0.0	265.86420369148254	
55	245.3201549053192	movie	1		282	53.0	2.5	/experiments/knapen_AOT/AOT_stimuli/rescaled_final/1334_fw.mp4	0.0	266.2891104221344	2.4919960498809814
55	246.49563717842102	pulse	1	t		53.0	2.5	/experiments/knapen_AOT/AOT_stimuli/rescaled_final/1334_fw.mp4	0.0	267.4645926952362	
55	247.8121509552002	fix_post	2		12	53.0	2.5	/experiments/knapen_AOT/AOT_stimuli/rescaled_final/1334_fw.mp4	0.0	268.7811064720154	0.10002923011779785
56	247.912180185318	fix_pre	0		120	54.0	2.5	/experiments/knapen_AOT/AOT_stimuli/rescaled_final/0861_rv.mp4	0.0	268.8811357021332	1.0084762573242188
56	248.09576177597046	pulse	0	t		54.0	2.5	/experiments/knapen_AOT/AOT_stimuli/rescaled_final/0861_rv.mp4	0.0	269.06471729278564	
56	248.9206564426422	movie	1		288	54.0	2.5	/experiments/knapen_AOT/AOT_stimuli/rescaled_final/0861_rv.mp4	0.0	269.8896119594574	2.4920451641082764
56	249.69368815422058	pulse	1	t		54.0	2.5	/experiments/knapen_AOT/AOT_stimuli/rescaled_final/0861_rv.mp4	0.0	270.66264367103577	
56	251.29415917396545	pulse	1	t		54.0	2.5	/experiments/knapen_AOT/AOT_stimuli/rescaled_final/0861_rv.mp4	0.0	272.26311469078064	
56	251.4127016067505	fix_post	2		12	54.0	2.5	/experiments/knapen_AOT/AOT_stimuli/rescaled_final/0861_rv.mp4	0.0	272.3816571235657	0.10004663467407227
57	251.51274824142456	fix_pre	0		120	55.0	2.5	/experiments/knapen_AOT/AOT_stimuli/rescaled_final/2055_rv.mp4	0.0	272.48170375823975	1.0084831714630127
57	252.52123141288757	movie	1		283	55.0	2.5	/experiments/knapen_AOT/AOT_stimuli/rescaled_final/2055_rv.mp4	0.0	273.49018692970276	2.491997003555298
57	252.8947732448578	pulse	1	t		55.0	2.5	/experiments/knapen_AOT/AOT_stimuli/rescaled_final/2055_rv.mp4	0.0	273.863728761673	
57	254.4947807788849	pulse	1	t		55.0	2.5	/experiments/knapen_AOT/AOT_stimuli/rescaled_final/2055_rv.mp4	0.0	275.4637362957001	
57	255.01322841644287	fix_post	2		12	55.0	2.5	/experiments/knapen_AOT/AOT_stimuli/rescaled_final/2055_rv.mp4	0.0	275.98218393325806	0.10015726089477539
58	255.11338567733765	fix_pre	0		119	56.0	2.5	blank	1.0	276.08234119415283	0.9916791915893555
58	256.0969731807709	pulse	0	t		56.0	2.5	blank	1.0	277.06592869758606	
58	256.105064868927	movie	1		301	56.0	2.5	blank	1.0	277.0740203857422	2.5087242126464844
58	257.6972601413727	pulse	1	t		56.0	2.5	blank	1.0	278.66621565818787	
58	258.6137890815735	fix_post	2		12	56.0	2.5	blank	1.0	279.5827445983887	0.10004806518554688
59	258.71383714675903	fix_pre	0		120	57.0	2.5	/experiments/knapen_AOT/AOT_stimuli/rescaled_final/0987_rv.mp4	0.0	279.6827926635742	1.0084662437438965
59	259.2974388599396	pulse	0	t		57.0	2.5	/experiments/knapen_AOT/AOT_stimuli/rescaled_final/0987_rv.mp4	0.0	280.26639437675476	
59	259.72230339050293	movie	1		283	57.0	2.5	/experiments/knapen_AOT/AOT_stimuli/rescaled_final/0987_rv.mp4	0.0	280.6912589073181	2.4920151233673096
59	260.8967704772949	pulse	1	t		57.0	2.5	/experiments/knapen_AOT/AOT_stimuli/rescaled_final/0987_rv.mp4	0.0	281.8657259941101	
59	262.21431851387024	fix_post	2		12	57.0	2.5	/experiments/knapen_AOT/AOT_stimuli/rescaled_final/0987_rv.mp4	0.0	283.1832740306854	0.1000223159790039
60	262.31434082984924	fix_pre	0		120	58.0	2.5	/experiments/knapen_AOT/AOT_stimuli/rescaled_final/1452_fw.mp4	0.0	283.28329634666443	1.0085530281066895
60	262.4979085922241	pulse	0	t		58.0	2.5	/experiments/knapen_AOT/AOT_stimuli/rescaled_final/1452_fw.mp4	0.0	283.4668641090393	
60	263.32289385795593	movie	1		277	58.0	2.5	/experiments/knapen_AOT/AOT_stimuli/rescaled_final/1452_fw.mp4	0.0	284.2918493747711	2.492002248764038
60	264.09819436073303	pulse	1	t		58.0	2.5	/experiments/knapen_AOT/AOT_stimuli/rescaled_final/1452_fw.mp4	0.0	285.0671498775482	
60	265.6963355541229	pulse	1	t		58.0	2.5	/experiments/knapen_AOT/AOT_stimuli/rescaled_final/1452_fw.mp4	0.0	286.6652910709381	
60	265.81489610671997	fix_post	2		12	58.0	2.5	/experiments/knapen_AOT/AOT_stimuli/rescaled_final/1452_fw.mp4	0.0	286.78385162353516	0.09998154640197754
61	265.91487765312195	fix_pre	0		120	59.0	2.5	/experiments/knapen_AOT/AOT_stimuli/rescaled_final/1204_fw.mp4	0.0	286.88383316993713	1.0085053443908691
61	266.9233829975128	movie	1		293	59.0	2.5	/experiments/knapen_AOT/AOT_stimuli/rescaled_final/1204_fw.mp4	0.0	287.892338514328	2.4920997619628906
61	267.2970311641693	pulse	1	t		59.0	2.5	/experiments/knapen_AOT/AOT_stimuli/rescaled_final/1204_fw.mp4	0.0	288.2659866809845	
61	268.8971424102783	pulse	1	t		59.0	2.5	/experiments/knapen_AOT/AOT_stimuli/rescaled_final/1204_fw.mp4	0.0	289.8660979270935	
61	269.4154827594757	fix_post	2		12	59.0	2.5	/experiments/knapen_AOT/AOT_stimuli/rescaled_final/1204_fw.mp4	0.0	290.3844382762909	0.09999275207519531
62	269.5154755115509	fix_pre	0		119	60.0	2.5	/experiments/knapen_AOT/AOT_stimuli/rescaled_final/0595_rv.mp4	0.0	290.4844310283661	1.0001418590545654
62	270.4992084503174	pulse	0	t		60.0	2.5	/experiments/knapen_AOT/AOT_stimuli/rescaled_final/0595_rv.mp4	0.0	291.46816396713257	
62	270.51561737060547	movie	1		279	60.0	2.5	/experiments/knapen_AOT/AOT_stimuli/rescaled_final/0595_rv.mp4	0.0	291.48457288742065	2.500335216522217
62	272.09878039360046	pulse	1	t		60.0	2.5	/experiments/knapen_AOT/AOT_stimuli/rescaled_final/0595_rv.mp4	0.0	293.06773591041565	
62	273.0159525871277	fix_post	2		12	60.0	2.5	/experiments/knapen_AOT/AOT_stimuli/rescaled_final/0595_rv.mp4	0.0	293.98490810394287	0.0999915599822998
63	273.11594414711	fix_pre	0		120	61.0	2.5	/experiments/knapen_AOT/AOT_stimuli/rescaled_final/0789_rv.mp4	0.0	294.08489966392517	1.0085086822509766
63	273.6996397972107	pulse	0	t		61.0	2.5	/experiments/knapen_AOT/AOT_stimuli/rescaled_final/0789_rv.mp4	0.0	294.6685953140259	
63	274.12445282936096	movie	1		288	61.0	2.5	/experiments/knapen_AOT/AOT_stimuli/rescaled_final/0789_rv.mp4	0.0	295.09340834617615	2.492049217224121
63	275.2977728843689	pulse	1	t		61.0	2.5	/experiments/knapen_AOT/AOT_stimuli/rescaled_final/0789_rv.mp4	0.0	296.2667284011841	
63	276.6165020465851	fix_post	2		12	61.0	2.5	/experiments/knapen_AOT/AOT_stimuli/rescaled_final/0789_rv.mp4	0.0	297.58545756340027	0.09999513626098633
64	276.71649718284607	fix_pre	0		120	62.0	2.5	/experiments/knapen_AOT/AOT_stimuli/rescaled_final/1705_fw.mp4	0.0	297.68545269966125	1.0085265636444092
64	276.9000418186188	pulse	0	t		62.0	2.5	/experiments/knapen_AOT/AOT_stimuli/rescaled_final/1705_fw.mp4	0.0	297.86899733543396	
64	277.7250237464905	movie	1		284	62.0	2.5	/experiments/knapen_AOT/AOT_stimuli/rescaled_final/1705_fw.mp4	0.0	298.69397926330566	2.4919893741607666
64	278.5000386238098	pulse	1	t		62.0	2.5	/experiments/knapen_AOT/AOT_stimuli/rescaled_final/1705_fw.mp4	0.0	299.468994140625	
64	280.09260082244873	pulse	1	t		62.0	2.5	/experiments/knapen_AOT/AOT_stimuli/rescaled_final/1705_fw.mp4	0.0	301.0615563392639	
64	280.21701312065125	fix_post	2		12	62.0	2.5	/experiments/knapen_AOT/AOT_stimuli/rescaled_final/1705_fw.mp4	0.0	301.18596863746643	0.10001778602600098
65	280.31703090667725	fix_pre	0		120	63.0	2.5	blank	1.0	301.28598642349243	1.0001626014709473
65	281.3171935081482	movie	1		300	63.0	2.5	blank	1.0	302.2861490249634	2.5003581047058105
65	281.6928195953369	pulse	1	t		63.0	2.5	blank	1.0	302.6617751121521	
65	283.2927038669586	pulse	1	t		63.0	2.5	blank	1.0	304.2616593837738	
65	283.817551612854	fix_post	2		12	63.0	2.5	blank	1.0	304.7865071296692	0.10006952285766602
66	283.91762113571167	fix_pre	0		118	64.0	2.5	/experiments/knapen_AOT/AOT_stimuli/rescaled_final/1006_fw.mp4	0.0	304.88657665252686	0.9918162822723389
66	284.89294028282166	pulse	0	t		64.0	2.5	/experiments/knapen_AOT/AOT_stimuli/rescaled_final/1006_fw.mp4	0.0	305.86189579963684	
66	284.909437417984	movie	1		291	64.0	2.5	/experiments/knapen_AOT/AOT_stimuli/rescaled_final/1006_fw.mp4	0.0	305.8783929347992	2.500336170196533
66	286.4933018684387	pulse	1	t		64.0	2.5	/experiments/knapen_AOT/AOT_stimuli/rescaled_final/1006_fw.mp4	0.0	307.4622573852539	
66	287.40977358818054	fix_post	2		12	64.0	2.5	/experiments/knapen_AOT/AOT_stimuli/rescaled_final/1006_fw.mp4	0.0	308.3787291049957	0.10001945495605469
67	287.5097930431366	fix_pre	0		120	65.0	2.5	/experiments/knapen_AOT/AOT_stimuli/rescaled_final/1463_fw.mp4	0.0	308.4787485599518	1.0084853172302246
67	288.0934159755707	pulse	0	t		65.0	2.5	/experiments/knapen_AOT/AOT_stimuli/rescaled_final/1463_fw.mp4	0.0	309.06237149238586	
67	288.5182783603668	movie	1		285	65.0	2.5	/experiments/knapen_AOT/AOT_stimuli/rescaled_final/1463_fw.mp4	0.0	309.487233877182	2.4920530319213867
67	289.69362616539	pulse	1	t		65.0	2.5	/experiments/knapen_AOT/AOT_stimuli/rescaled_final/1463_fw.mp4	0.0	310.6625816822052	
67	291.0103313922882	fix_post	2		12	65.0	2.5	/experiments/knapen_AOT/AOT_stimuli/rescaled_final/1463_fw.mp4	0.0	311.9792869091034	0.10011005401611328
68	291.1104414463043	fix_pre	0		120	66.0	2.5	/experiments/knapen_AOT/AOT_stimuli/rescaled_final/1714_rv.mp4	0.0	312.0793969631195	1.0084264278411865
68	291.2938885688782	pulse	0	t		66.0	2.5	/experiments/knapen_AOT/AOT_stimuli/rescaled_final/1714_rv.mp4	0.0	312.26284408569336	
68	292.1188678741455	movie	1		287	66.0	2.5	/experiments/knapen_AOT/AOT_stimuli/rescaled_final/1714_rv.mp4	0.0	313.0878233909607	2.4919824600219727
68	292.8941059112549	pulse	1	t		66.0	2.5	/experiments/knapen_AOT/AOT_stimuli/rescaled_final/1714_rv.mp4	0.0	313.86306142807007	
68	294.4926972389221	pulse	1	t		66.0	2.5	/experiments/knapen_AOT/AOT_stimuli/rescaled_final/1714_rv.mp4	0.0	315.4616527557373	
68	294.6108503341675	fix_post	2		12	66.0	2.5	/experiments/knapen_AOT/AOT_stimuli/rescaled_final/1714_rv.mp4	0.0	315.57980585098267	0.09999346733093262
69	294.7108438014984	fix_pre	0		120	67.0	2.5	/experiments/knapen_AOT/AOT_stimuli/rescaled_final/1268_rv.mp4	0.0	315.6797993183136	1.0085136890411377
69	295.71935749053955	movie	1		286	67.0	2.5	/experiments/knapen_AOT/AOT_stimuli/rescaled_final/1268_rv.mp4	0.0	316.68831300735474	2.4921865463256836
69	296.0929231643677	pulse	1	t		67.0	2.5	/experiments/knapen_AOT/AOT_stimuli/rescaled_final/1268_rv.mp4	0.0	317.06187868118286	
69	297.6928336620331	pulse	1	t		67.0	2.5	/experiments/knapen_AOT/AOT_stimuli/rescaled_final/1268_rv.mp4	0.0	318.66178917884827	
69	298.21154403686523	fix_post	2		12	67.0	2.5	/experiments/knapen_AOT/AOT_stimuli/rescaled_final/1268_rv.mp4	0.0	319.1804995536804	0.09984588623046875
70	298.3113899230957	fix_pre	0		119	68.0	2.5	/experiments/knapen_AOT/AOT_stimuli/rescaled_final/0164_fw.mp4	0.0	319.2803454399109	1.000208854675293
70	299.29508543014526	pulse	0	t		68.0	2.5	/experiments/knapen_AOT/AOT_stimuli/rescaled_final/0164_fw.mp4	0.0	320.26404094696045	
70	299.311598777771	movie	1		284	68.0	2.5	/experiments/knapen_AOT/AOT_stimuli/rescaled_final/0164_fw.mp4	0.0	320.2805542945862	2.5003104209899902
70	300.8937635421753	pulse	1	t		68.0	2.5	/experiments/knapen_AOT/AOT_stimuli/rescaled_final/0164_fw.mp4	0.0	321.8627190589905	
70	301.811909198761	fix_post	2		12	68.0	2.5	/experiments/knapen_AOT/AOT_stimuli/rescaled_final/0164_fw.mp4	0.0	322.7808647155762	0.10002279281616211
71	301.91193199157715	fix_pre	0		120	69.0	2.5	blank	1.0	322.88088750839233	1.0001695156097412
71	302.4955394268036	pulse	0	t		69.0	2.5	blank	1.0	323.4644949436188	
71	302.9121015071869	movie	1		300	69.0	2.5	blank	1.0	323.8810570240021	2.500342845916748
71	304.0958333015442	pulse	1	t		69.0	2.5	blank	1.0	325.0647888183594	
71	305.41244435310364	fix_post	2		12	69.0	2.5	blank	1.0	326.3813998699188	0.10017824172973633
72	305.5126225948334	fix_pre	0		120	70.0	2.5	/experiments/knapen_AOT/AOT_stimuli/rescaled_final/0468_fw.mp4	0.0	326.48157811164856	1.00834321975708
72	305.69600796699524	pulse	0	t		70.0	2.5	/experiments/knapen_AOT/AOT_stimuli/rescaled_final/0468_fw.mp4	0.0	326.6649634838104	
72	306.52096581459045	movie	1		283	70.0	2.5	/experiments/knapen_AOT/AOT_stimuli/rescaled_final/0468_fw.mp4	0.0	327.48992133140564	2.492032051086426
72	307.29402899742126	pulse	1	t		70.0	2.5	/experiments/knapen_AOT/AOT_stimuli/rescaled_final/0468_fw.mp4	0.0	328.26298451423645	
72	308.89431166648865	pulse	1	t		70.0	2.5	/experiments/knapen_AOT/AOT_stimuli/rescaled_final/0468_fw.mp4	0.0	329.86326718330383	
72	309.0129978656769	fix_post	2		12	70.0	2.5	/experiments/knapen_AOT/AOT_stimuli/rescaled_final/0468_fw.mp4	0.0	329.98195338249207	0.10000276565551758
73	309.1130006313324	fix_pre	0		120	71.0	2.5	/experiments/knapen_AOT/AOT_stimuli/rescaled_final/1781_rv.mp4	0.0	330.0819561481476	1.0085220336914062
73	310.1215226650238	movie	1		282	71.0	2.5	/experiments/knapen_AOT/AOT_stimuli/rescaled_final/1781_rv.mp4	0.0	331.090478181839	2.492037296295166
73	310.49496722221375	pulse	1	t		71.0	2.5	/experiments/knapen_AOT/AOT_stimuli/rescaled_final/1781_rv.mp4	0.0	331.46392273902893	
73	312.09497332572937	pulse	1	t		71.0	2.5	/experiments/knapen_AOT/AOT_stimuli/rescaled_final/1781_rv.mp4	0.0	333.06392884254456	
73	312.61355996131897	fix_post	2		12	71.0	2.5	/experiments/knapen_AOT/AOT_stimuli/rescaled_final/1781_rv.mp4	0.0	333.58251547813416	0.10000419616699219
74	312.71356415748596	fix_pre	0		119	72.0	2.5	/experiments/knapen_AOT/AOT_stimuli/rescaled_final/0286_rv.mp4	0.0	333.68251967430115	1.0001435279846191
74	313.6973145008087	pulse	0	t		72.0	2.5	/experiments/knapen_AOT/AOT_stimuli/rescaled_final/0286_rv.mp4	0.0	334.6662700176239	
74	313.7137076854706	movie	1		287	72.0	2.5	/experiments/knapen_AOT/AOT_stimuli/rescaled_final/0286_rv.mp4	0.0	334.68266320228577	2.5003554821014404
74	315.2959270477295	pulse	1	t		72.0	2.5	/experiments/knapen_AOT/AOT_stimuli/rescaled_final/0286_rv.mp4	0.0	336.2648825645447	
74	316.214063167572	fix_post	2		12	72.0	2.5	/experiments/knapen_AOT/AOT_stimuli/rescaled_final/0286_rv.mp4	0.0	337.1830186843872	0.10002446174621582
75	316.31408762931824	fix_pre	0		120	73.0	2.5	/experiments/knapen_AOT/AOT_stimuli/rescaled_final/1214_fw.mp4	0.0	337.2830431461334	1.0085053443908691
75	316.8976979255676	pulse	0	t		73.0	2.5	/experiments/knapen_AOT/AOT_stimuli/rescaled_final/1214_fw.mp4	0.0	337.8666534423828	
75	317.3225929737091	movie	1		289	73.0	2.5	/experiments/knapen_AOT/AOT_stimuli/rescaled_final/1214_fw.mp4	0.0	338.2915484905243	2.4920096397399902
75	318.4960787296295	pulse	1	t		73.0	2.5	/experiments/knapen_AOT/AOT_stimuli/rescaled_final/1214_fw.mp4	0.0	339.4650342464447	
75	319.8146026134491	fix_post	2		12	73.0	2.5	/experiments/knapen_AOT/AOT_stimuli/rescaled_final/1214_fw.mp4	0.0	340.7835581302643	0.10002970695495605
76	319.91463232040405	fix_pre	0		120	74.0	2.5	/experiments/knapen_AOT/AOT_stimuli/rescaled_final/1619_rv.mp4	0.0	340.88358783721924	1.008509635925293
76	320.0981674194336	pulse	0	t		74.0	2.5	/experiments/knapen_AOT/AOT_stimuli/rescaled_final/1619_rv.mp4	0.0	341.0671229362488	
76	320.92314195632935	movie	1		284	74.0	2.5	/experiments/knapen_AOT/AOT_stimuli/rescaled_final/1619_rv.mp4	0.0	341.89209747314453	2.491999387741089
76	321.6978061199188	pulse	1	t		74.0	2.5	/experiments/knapen_AOT/AOT_stimuli/rescaled_final/1619_rv.mp4	0.0	342.666761636734	
76	323.29686403274536	pulse	1	t		74.0	2.5	/experiments/knapen_AOT/AOT_stimuli/rescaled_final/1619_rv.mp4	0.0	344.26581954956055	
76	323.41514134407043	fix_post	2		12	74.0	2.5	/experiments/knapen_AOT/AOT_stimuli/rescaled_final/1619_rv.mp4	0.0	344.3840968608856	0.10006976127624512
77	323.5152111053467	fix_pre	0		120	75.0	2.5	blank	1.0	344.48416662216187	1.000089406967163
77	324.51530051231384	movie	1		300	75.0	2.5	blank	1.0	345.484256029129	2.5003769397735596
77	324.8988974094391	pulse	1	t		75.0	2.5	blank	1.0	345.8678529262543	
77	326.4991195201874	pulse	1	t		75.0	2.5	blank	1.0	347.46807503700256	
77	327.0156774520874	fix_post	2		12	75.0	2.5	blank	1.0	347.9846329689026	0.10007786750793457
78	327.11575531959534	fix_pre	0		119	76.0	2.5	/experiments/knapen_AOT/AOT_stimuli/rescaled_final/2109_fw.mp4	0.0	348.0847108364105	1.0000898838043213
78	328.0994155406952	pulse	0	t		76.0	2.5	/experiments/knapen_AOT/AOT_stimuli/rescaled_final/2109_fw.mp4	0.0	349.0683710575104	
78	328.11584520339966	movie	1		283	76.0	2.5	/experiments/knapen_AOT/AOT_stimuli/rescaled_final/2109_fw.mp4	0.0	349.08480072021484	2.5005295276641846
78	329.69893050193787	pulse	1	t		76.0	2.5	/experiments/knapen_AOT/AOT_stimuli/rescaled_final/2109_fw.mp4	0.0	350.66788601875305	
78	330.61637473106384	fix_post	2		12	76.0	2.5	/experiments/knapen_AOT/AOT_stimuli/rescaled_final/2109_fw.mp4	0.0	351.585330247879	0.09984874725341797
79	330.71622347831726	fix_pre	0		120	77.0	2.5	/experiments/knapen_AOT/AOT_stimuli/rescaled_final/1790_rv.mp4	0.0	351.68517899513245	1.0085206031799316
79	331.29176449775696	pulse	0	t		77.0	2.5	/experiments/knapen_AOT/AOT_stimuli/rescaled_final/1790_rv.mp4	0.0	352.26072001457214	
79	331.7247440814972	movie	1		281	77.0	2.5	/experiments/knapen_AOT/AOT_stimuli/rescaled_final/1790_rv.mp4	0.0	352.6936995983124	2.49208402633667
79	332.9003369808197	pulse	1	t		77.0	2.5	/experiments/knapen_AOT/AOT_stimuli/rescaled_final/1790_rv.mp4	0.0	353.8692924976349	
79	334.21682810783386	fix_post	2		12	77.0	2.5	/experiments/knapen_AOT/AOT_stimuli/rescaled_final/1790_rv.mp4	0.0	355.18578362464905	0.09999608993530273
80	334.31682419776917	fix_pre	0		120	78.0	2.5	/experiments/knapen_AOT/AOT_stimuli/rescaled_final/0087_rv.mp4	0.0	355.28577971458435	1.0085349082946777
80	334.4920358657837	pulse	0	t		78.0	2.5	/experiments/knapen_AOT/AOT_stimuli/rescaled_final/0087_rv.mp4	0.0	355.4609913825989	
80	335.32535910606384	movie	1		285	78.0	2.5	/experiments/knapen_AOT/AOT_stimuli/rescaled_final/0087_rv.mp4	0.0	356.294314622879	2.4920711517333984
80	336.09236693382263	pulse	1	t		78.0	2.5	/experiments/knapen_AOT/AOT_stimuli/rescaled_final/0087_rv.mp4	0.0	357.0613224506378	
80	337.69260358810425	pulse	1	t		78.0	2.5	/experiments/knapen_AOT/AOT_stimuli/rescaled_final/0087_rv.mp4	0.0	358.66155910491943	
80	337.81743025779724	fix_post	2		12	78.0	2.5	/experiments/knapen_AOT/AOT_stimuli/rescaled_final/0087_rv.mp4	0.0	358.7863857746124	0.0998692512512207
81	337.91729950904846	fix_pre	0		120	79.0	2.5	/experiments/knapen_AOT/AOT_stimuli/rescaled_final/2062_rv.mp4	0.0	358.88625502586365	1.0085358619689941
81	338.92583537101746	movie	1		284	79.0	2.5	/experiments/knapen_AOT/AOT_stimuli/rescaled_final/2062_rv.mp4	0.0	359.89479088783264	2.4920148849487305
81	339.29273200035095	pulse	1	t		79.0	2.5	/experiments/knapen_AOT/AOT_stimuli/rescaled_final/2062_rv.mp4	0.0	360.26168751716614	
81	340.89295959472656	pulse	1	t		79.0	2.5	/experiments/knapen_AOT/AOT_stimuli/rescaled_final/2062_rv.mp4	0.0	361.86191511154175	
81	341.4178502559662	fix_post	2		12	79.0	2.5	/experiments/knapen_AOT/AOT_stimuli/rescaled_final/2062_rv.mp4	0.0	362.3868057727814	0.10000085830688477
82	341.51785111427307	fix_pre	0		118	80.0	2.5	/experiments/knapen_AOT/AOT_stimuli/rescaled_final/1836_rv.mp4	0.0	362.48680663108826	0.9918153285980225
82	342.4931879043579	pulse	0	t		80.0	2.5	/experiments/knapen_AOT/AOT_stimuli/rescaled_final/1836_rv.mp4	0.0	363.4621434211731	
82	342.5096664428711	movie	1		292	80.0	2.5	/experiments/knapen_AOT/AOT_stimuli/rescaled_final/1836_rv.mp4	0.0	363.4786219596863	2.500368118286133
82	344.09191632270813	pulse	1	t		80.0	2.5	/experiments/knapen_AOT/AOT_stimuli/rescaled_final/1836_rv.mp4	0.0	365.0608718395233	
82	345.0100345611572	fix_post	2		12	80.0	2.5	/experiments/knapen_AOT/AOT_stimuli/rescaled_final/1836_rv.mp4	0.0	365.9789900779724	0.10001230239868164
83	345.1100468635559	fix_pre	0		120	81.0	2.5	/experiments/knapen_AOT/AOT_stimuli/rescaled_final/1016_rv.mp4	0.0	366.0790023803711	1.008589267730713
83	345.69372820854187	pulse	0	t		81.0	2.5	/experiments/knapen_AOT/AOT_stimuli/rescaled_final/1016_rv.mp4	0.0	366.66268372535706	
83	346.1186361312866	movie	1		286	81.0	2.5	/experiments/knapen_AOT/AOT_stimuli/rescaled_final/1016_rv.mp4	0.0	367.0875916481018	2.4921224117279053
83	347.292555809021	pulse	1	t		81.0	2.5	/experiments/knapen_AOT/AOT_stimuli/rescaled_final/1016_rv.mp4	0.0	368.2615113258362	
83	348.6107585430145	fix_post	2		12	81.0	2.5	/experiments/knapen_AOT/AOT_stimuli/rescaled_final/1016_rv.mp4	0.0	369.5797140598297	0.09982681274414062
84	348.71058535575867	fix_pre	0		120	82.0	2.5	/experiments/knapen_AOT/AOT_stimuli/rescaled_final/0930_rv.mp4	0.0	369.67954087257385	1.0084810256958008
84	348.89444231987	pulse	0	t		82.0	2.5	/experiments/knapen_AOT/AOT_stimuli/rescaled_final/0930_rv.mp4	0.0	369.8633978366852	
84	349.71906638145447	movie	1		281	82.0	2.5	/experiments/knapen_AOT/AOT_stimuli/rescaled_final/0930_rv.mp4	0.0	370.68802189826965	2.492126226425171
84	350.49238109588623	pulse	1	t		82.0	2.5	/experiments/knapen_AOT/AOT_stimuli/rescaled_final/0930_rv.mp4	0.0	371.4613366127014	
84	352.0925612449646	pulse	1	t		82.0	2.5	/experiments/knapen_AOT/AOT_stimuli/rescaled_final/0930_rv.mp4	0.0	373.0615167617798	
84	352.21119260787964	fix_post	2		12	82.0	2.5	/experiments/knapen_AOT/AOT_stimuli/rescaled_final/0930_rv.mp4	0.0	373.1801481246948	0.09998703002929688
85	352.31117963790894	fix_pre	0		120	83.0	2.5	blank	1.0	373.2801351547241	1.0000979900360107
85	353.31127762794495	movie	1		300	83.0	2.5	blank	1.0	374.28023314476013	2.5004494190216064
85	353.69489645957947	pulse	1	t		83.0	2.5	blank	1.0	374.66385197639465	
85	355.295113325119	pulse	1	t		83.0	2.5	blank	1.0	376.2640688419342	
85	355.81172704696655	fix_post	2		12	83.0	2.5	blank	1.0	376.78068256378174	0.12495923042297363
87	355.9366862773895	stim	0		1712					376.9056417942047	14.268917322158813
87	356.8953413963318	pulse	0	t						377.864296913147	
87	358.49592113494873	pulse	0	t						379.4648766517639	
87	360.0960466861725	pulse	0	t						381.06500220298767	
87	361.69657135009766	pulse	0	t						382.66552686691284	
87	363.29664850234985	pulse	0	t						384.26560401916504	
87	364.8966064453125	pulse	0	t						385.8655619621277	
87	366.49682569503784	pulse	0	t						387.465781211853	
87	368.09707832336426	pulse	0	t						389.06603384017944	
87	369.6973032951355	pulse	0	t						390.6662588119507	
