trial_nr	onset	event_type	phase	response	nr_frames	movie_index	movie_duration	movie_file	blank	onset_abs	duration
0	0.13312101364135742	stim	0		91					42.30813503265381	0.7584729194641113
0	0.8836510181427002	response	0	space						43.05866503715515	
1	0.8915939331054688	stim	0		4432					43.06660795211792	36.93315410614014
1	37.81790804862976	pulse	0	t						79.99292206764221	
1	37.824748039245605	stim	1		1717					79.99976205825806	14.308358907699585
1	39.416555881500244	pulse	1	t						81.5915699005127	
1	41.01664686203003	pulse	1	t						83.19166088104248	
1	42.61654996871948	pulse	1	t						84.79156398773193	
1	44.216572999954224	pulse	1	t						86.39158701896667	
1	45.81654191017151	pulse	1	t						87.99155592918396	
1	47.416523933410645	pulse	1	t						89.5915379524231	
1	49.01652383804321	pulse	1	t						91.19153785705566	
1	50.616482973098755	pulse	1	t						92.7914969921112	
2	52.13310694694519	fix_pre	0		11	0.0	2.5	/experiments/AOT/AOT_stimuli/rescaled_final/0873_fw.mp4	0.0	94.30812096595764	0.0916140079498291
2	52.216500997543335	pulse	0	t		0.0	2.5	/experiments/AOT/AOT_stimuli/rescaled_final/0873_fw.mp4	0.0	94.39151501655579	
2	52.22472095489502	movie	1		244	0.0	2.5	/experiments/AOT/AOT_stimuli/rescaled_final/0873_fw.mp4	0.0	94.39973497390747	2.5078649520874023
2	53.81647992134094	pulse	1	t		0.0	2.5	/experiments/AOT/AOT_stimuli/rescaled_final/0873_fw.mp4	0.0	95.9914939403534	
2	54.73258590698242	fix_post	2		12	0.0	2.5	/experiments/AOT/AOT_stimuli/rescaled_final/0873_fw.mp4	0.0	96.90759992599487	0.10041403770446777
3	54.83299994468689	fix_pre	0		120	1.0	2.5	/experiments/AOT/AOT_stimuli/rescaled_final/0897_rv.mp4	0.0	97.00801396369934	1.0000100135803223
3	55.41652584075928	pulse	0	t		1.0	2.5	/experiments/AOT/AOT_stimuli/rescaled_final/0897_rv.mp4	0.0	97.59153985977173	
3	55.83300995826721	movie	1		247	1.0	2.5	/experiments/AOT/AOT_stimuli/rescaled_final/0897_rv.mp4	0.0	98.00802397727966	2.499547004699707
3	57.016682863235474	pulse	1	t		1.0	2.5	/experiments/AOT/AOT_stimuli/rescaled_final/0897_rv.mp4	0.0	99.19169688224792	
3	58.33255696296692	fix_post	2		12	1.0	2.5	/experiments/AOT/AOT_stimuli/rescaled_final/0897_rv.mp4	0.0	100.50757098197937	0.10039091110229492
4	58.432947874069214	fix_pre	0		120	2.0	2.5	/experiments/AOT/AOT_stimuli/rescaled_final/1526_fw.mp4	0.0	100.60796189308167	1.000082015991211
4	58.616466999053955	pulse	0	t		2.0	2.5	/experiments/AOT/AOT_stimuli/rescaled_final/1526_fw.mp4	0.0	100.7914810180664	
4	59.433029890060425	movie	1		245	2.0	2.5	/experiments/AOT/AOT_stimuli/rescaled_final/1526_fw.mp4	0.0	101.60804390907288	2.499941110610962
4	60.21649885177612	pulse	1	t		2.0	2.5	/experiments/AOT/AOT_stimuli/rescaled_final/1526_fw.mp4	0.0	102.39151287078857	
4	61.81515097618103	pulse	1	t		2.0	2.5	/experiments/AOT/AOT_stimuli/rescaled_final/1526_fw.mp4	0.0	103.99016499519348	
4	61.93297100067139	fix_post	2		12	2.0	2.5	/experiments/AOT/AOT_stimuli/rescaled_final/1526_fw.mp4	0.0	104.10798501968384	0.10000491142272949
5	62.032975912094116	fix_pre	0		120	3.0	2.5	/experiments/AOT/AOT_stimuli/rescaled_final/1512_fw.mp4	0.0	104.20798993110657	0.9999809265136719
5	63.03295683860779	movie	1		244	3.0	2.5	/experiments/AOT/AOT_stimuli/rescaled_final/1512_fw.mp4	0.0	105.20797085762024	2.4999570846557617
5	63.41746783256531	pulse	1	t		3.0	2.5	/experiments/AOT/AOT_stimuli/rescaled_final/1512_fw.mp4	0.0	105.59248185157776	
5	65.01648902893066	pulse	1	t		3.0	2.5	/experiments/AOT/AOT_stimuli/rescaled_final/1512_fw.mp4	0.0	107.19150304794312	
5	65.53291392326355	fix_post	2		12	3.0	2.5	/experiments/AOT/AOT_stimuli/rescaled_final/1512_fw.mp4	0.0	107.707927942276	0.1000211238861084
6	65.63293504714966	fix_pre	0		119	4.0	2.5	/experiments/AOT/AOT_stimuli/rescaled_final/0563_rv.mp4	0.0	107.80794906616211	0.9917349815368652
6	66.61646485328674	pulse	0	t		4.0	2.5	/experiments/AOT/AOT_stimuli/rescaled_final/0563_rv.mp4	0.0	108.7914788722992	
6	66.62467002868652	movie	1		244	4.0	2.5	/experiments/AOT/AOT_stimuli/rescaled_final/0563_rv.mp4	0.0	108.79968404769897	2.507884979248047
6	68.21738791465759	pulse	1	t		4.0	2.5	/experiments/AOT/AOT_stimuli/rescaled_final/0563_rv.mp4	0.0	110.39240193367004	
6	69.13255500793457	fix_post	2		12	4.0	2.5	/experiments/AOT/AOT_stimuli/rescaled_final/0563_rv.mp4	0.0	111.30756902694702	0.10044193267822266
7	69.2329969406128	fix_pre	0		120	5.0	2.5	blank	1.0	111.40801095962524	0.9999780654907227
7	69.81644201278687	pulse	0	t		5.0	2.5	blank	1.0	111.99145603179932	
7	70.23297500610352	movie	1		300	5.0	2.5	blank	1.0	112.40798902511597	2.499544858932495
7	71.41644287109375	pulse	1	t		5.0	2.5	blank	1.0	113.5914568901062	
7	72.73251986503601	fix_post	2		12	5.0	2.5	blank	1.0	114.90753388404846	0.10044217109680176
8	72.83296203613281	fix_pre	0		120	6.0	2.5	/experiments/AOT/AOT_stimuli/rescaled_final/1194_rv.mp4	0.0	115.00797605514526	0.9998948574066162
8	73.01646685600281	pulse	0	t		6.0	2.5	/experiments/AOT/AOT_stimuli/rescaled_final/1194_rv.mp4	0.0	115.19148087501526	
8	73.83285689353943	movie	1		246	6.0	2.5	/experiments/AOT/AOT_stimuli/rescaled_final/1194_rv.mp4	0.0	116.00787091255188	2.4996161460876465
8	74.61652183532715	pulse	1	t		6.0	2.5	/experiments/AOT/AOT_stimuli/rescaled_final/1194_rv.mp4	0.0	116.7915358543396	
8	76.21593999862671	pulse	1	t		6.0	2.5	/experiments/AOT/AOT_stimuli/rescaled_final/1194_rv.mp4	0.0	118.39095401763916	
8	76.33247303962708	fix_post	2		12	6.0	2.5	/experiments/AOT/AOT_stimuli/rescaled_final/1194_rv.mp4	0.0	118.50748705863953	0.10040688514709473
9	76.43287992477417	fix_pre	0		120	7.0	2.5	/experiments/AOT/AOT_stimuli/rescaled_final/0689_rv.mp4	0.0	118.60789394378662	0.9999940395355225
9	77.43287396430969	movie	1		243	7.0	2.5	/experiments/AOT/AOT_stimuli/rescaled_final/0689_rv.mp4	0.0	119.60788798332214	2.499708890914917
9	77.81586194038391	pulse	1	t		7.0	2.5	/experiments/AOT/AOT_stimuli/rescaled_final/0689_rv.mp4	0.0	119.99087595939636	
9	79.41647696495056	pulse	1	t		7.0	2.5	/experiments/AOT/AOT_stimuli/rescaled_final/0689_rv.mp4	0.0	121.59149098396301	
9	79.93258285522461	fix_post	2		12	7.0	2.5	/experiments/AOT/AOT_stimuli/rescaled_final/0689_rv.mp4	0.0	122.10759687423706	0.10028219223022461
10	80.03286504745483	fix_pre	0		119	8.0	2.5	/experiments/AOT/AOT_stimuli/rescaled_final/1025_rv.mp4	0.0	122.20787906646729	0.9917538166046143
10	81.01658296585083	pulse	0	t		8.0	2.5	/experiments/AOT/AOT_stimuli/rescaled_final/1025_rv.mp4	0.0	123.19159698486328	
10	81.02461886405945	movie	1		244	8.0	2.5	/experiments/AOT/AOT_stimuli/rescaled_final/1025_rv.mp4	0.0	123.1996328830719	2.5078470706939697
10	82.61630702018738	pulse	1	t		8.0	2.5	/experiments/AOT/AOT_stimuli/rescaled_final/1025_rv.mp4	0.0	124.79132103919983	
10	83.53246593475342	fix_post	2		12	8.0	2.5	/experiments/AOT/AOT_stimuli/rescaled_final/1025_rv.mp4	0.0	125.70747995376587	0.1005549430847168
11	83.63302087783813	fix_pre	0		120	9.0	2.5	/experiments/AOT/AOT_stimuli/rescaled_final/0377_rv.mp4	0.0	125.80803489685059	0.9999649524688721
11	84.21638298034668	pulse	0	t		9.0	2.5	/experiments/AOT/AOT_stimuli/rescaled_final/0377_rv.mp4	0.0	126.39139699935913	
11	84.632985830307	movie	1		244	9.0	2.5	/experiments/AOT/AOT_stimuli/rescaled_final/0377_rv.mp4	0.0	126.80799984931946	2.499699115753174
11	85.81600785255432	pulse	1	t		9.0	2.5	/experiments/AOT/AOT_stimuli/rescaled_final/0377_rv.mp4	0.0	127.99102187156677	
11	87.13268494606018	fix_post	2		12	9.0	2.5	/experiments/AOT/AOT_stimuli/rescaled_final/0377_rv.mp4	0.0	129.30769896507263	0.09996795654296875
12	87.23265290260315	fix_pre	0		120	10.0	2.5	/experiments/AOT/AOT_stimuli/rescaled_final/0716_rv.mp4	0.0	129.4076669216156	1.0001471042633057
12	87.4165370464325	pulse	0	t		10.0	2.5	/experiments/AOT/AOT_stimuli/rescaled_final/0716_rv.mp4	0.0	129.59155106544495	
12	88.23280000686646	movie	1		243	10.0	2.5	/experiments/AOT/AOT_stimuli/rescaled_final/0716_rv.mp4	0.0	130.4078140258789	2.500079870223999
12	89.01641583442688	pulse	1	t		10.0	2.5	/experiments/AOT/AOT_stimuli/rescaled_final/0716_rv.mp4	0.0	131.19142985343933	
12	90.61474990844727	pulse	1	t		10.0	2.5	/experiments/AOT/AOT_stimuli/rescaled_final/0716_rv.mp4	0.0	132.78976392745972	
12	90.73287987709045	fix_post	2		12	10.0	2.5	/experiments/AOT/AOT_stimuli/rescaled_final/0716_rv.mp4	0.0	132.9078938961029	0.09994316101074219
13	90.8328230381012	fix_pre	0		120	11.0	2.5	/experiments/AOT/AOT_stimuli/rescaled_final/0305_fw.mp4	0.0	133.00783705711365	1.0000429153442383
13	91.83286595344543	movie	1		242	11.0	2.5	/experiments/AOT/AOT_stimuli/rescaled_final/0305_fw.mp4	0.0	134.00787997245789	2.5000760555267334
13	92.2159960269928	pulse	1	t		11.0	2.5	/experiments/AOT/AOT_stimuli/rescaled_final/0305_fw.mp4	0.0	134.39101004600525	
13	93.81628394126892	pulse	1	t		11.0	2.5	/experiments/AOT/AOT_stimuli/rescaled_final/0305_fw.mp4	0.0	135.99129796028137	
13	94.33294200897217	fix_post	2		12	11.0	2.5	/experiments/AOT/AOT_stimuli/rescaled_final/0305_fw.mp4	0.0	136.50795602798462	0.09984183311462402
14	94.43278384208679	fix_pre	0		119	12.0	2.5	blank	1.0	136.60779786109924	0.9916961193084717
14	95.41629385948181	pulse	0	t		12.0	2.5	blank	1.0	137.59130787849426	
14	95.42447996139526	movie	1		301	12.0	2.5	blank	1.0	137.59949398040771	2.508298873901367
14	97.01633882522583	pulse	1	t		12.0	2.5	blank	1.0	139.19135284423828	
14	97.93277883529663	fix_post	2		12	12.0	2.5	blank	1.0	140.10779285430908	0.10001015663146973
15	98.0327889919281	fix_pre	0		120	13.0	2.5	/experiments/AOT/AOT_stimuli/rescaled_final/2100_fw.mp4	0.0	140.20780301094055	0.999675989151001
15	98.61629700660706	pulse	0	t		13.0	2.5	/experiments/AOT/AOT_stimuli/rescaled_final/2100_fw.mp4	0.0	140.7913110256195	
15	99.0324649810791	movie	1		247	13.0	2.5	/experiments/AOT/AOT_stimuli/rescaled_final/2100_fw.mp4	0.0	141.20747900009155	2.500354051589966
15	100.21632504463196	pulse	1	t		13.0	2.5	/experiments/AOT/AOT_stimuli/rescaled_final/2100_fw.mp4	0.0	142.3913390636444	
15	101.53281903266907	fix_post	2		12	13.0	2.5	/experiments/AOT/AOT_stimuli/rescaled_final/2100_fw.mp4	0.0	143.70783305168152	0.0999598503112793
16	101.63277888298035	fix_pre	0		120	14.0	2.5	/experiments/AOT/AOT_stimuli/rescaled_final/0174_rv.mp4	0.0	143.8077929019928	0.9995510578155518
16	101.81634187698364	pulse	0	t		14.0	2.5	/experiments/AOT/AOT_stimuli/rescaled_final/0174_rv.mp4	0.0	143.9913558959961	
16	102.6323299407959	movie	1		246	14.0	2.5	/experiments/AOT/AOT_stimuli/rescaled_final/0174_rv.mp4	0.0	144.80734395980835	2.500494956970215
16	103.41640305519104	pulse	1	t		14.0	2.5	/experiments/AOT/AOT_stimuli/rescaled_final/0174_rv.mp4	0.0	145.5914170742035	
16	105.01487684249878	pulse	1	t		14.0	2.5	/experiments/AOT/AOT_stimuli/rescaled_final/0174_rv.mp4	0.0	147.18989086151123	
16	105.13282489776611	fix_post	2		12	14.0	2.5	/experiments/AOT/AOT_stimuli/rescaled_final/0174_rv.mp4	0.0	147.30783891677856	0.09996795654296875
17	105.23279285430908	fix_pre	0		120	15.0	2.5	/experiments/AOT/AOT_stimuli/rescaled_final/0485_rv.mp4	0.0	147.40780687332153	0.9999830722808838
17	106.23277592658997	movie	1		243	15.0	2.5	/experiments/AOT/AOT_stimuli/rescaled_final/0485_rv.mp4	0.0	148.40778994560242	2.500040054321289
17	106.6173448562622	pulse	1	t		15.0	2.5	/experiments/AOT/AOT_stimuli/rescaled_final/0485_rv.mp4	0.0	148.79235887527466	
17	108.2162389755249	pulse	1	t		15.0	2.5	/experiments/AOT/AOT_stimuli/rescaled_final/0485_rv.mp4	0.0	150.39125299453735	
17	108.73281598091125	fix_post	2		12	15.0	2.5	/experiments/AOT/AOT_stimuli/rescaled_final/0485_rv.mp4	0.0	150.9078299999237	0.09989285469055176
18	108.8327088356018	fix_pre	0		119	16.0	2.5	/experiments/AOT/AOT_stimuli/rescaled_final/0707_fw.mp4	0.0	151.00772285461426	0.9917290210723877
18	109.81621599197388	pulse	0	t		16.0	2.5	/experiments/AOT/AOT_stimuli/rescaled_final/0707_fw.mp4	0.0	151.99123001098633	
18	109.8244378566742	movie	1		246	16.0	2.5	/experiments/AOT/AOT_stimuli/rescaled_final/0707_fw.mp4	0.0	151.99945187568665	2.508327007293701
18	111.41572904586792	pulse	1	t		16.0	2.5	/experiments/AOT/AOT_stimuli/rescaled_final/0707_fw.mp4	0.0	153.59074306488037	
18	112.3327648639679	fix_post	2		12	16.0	2.5	/experiments/AOT/AOT_stimuli/rescaled_final/0707_fw.mp4	0.0	154.50777888298035	0.09997296333312988
19	112.43273782730103	fix_pre	0		120	17.0	2.5	/experiments/AOT/AOT_stimuli/rescaled_final/0330_rv.mp4	0.0	154.60775184631348	0.9999370574951172
19	113.01624393463135	pulse	0	t		17.0	2.5	/experiments/AOT/AOT_stimuli/rescaled_final/0330_rv.mp4	0.0	155.1912579536438	
19	113.43267488479614	movie	1		244	17.0	2.5	/experiments/AOT/AOT_stimuli/rescaled_final/0330_rv.mp4	0.0	155.6076889038086	2.5000150203704834
19	114.6162269115448	pulse	1	t		17.0	2.5	/experiments/AOT/AOT_stimuli/rescaled_final/0330_rv.mp4	0.0	156.79124093055725	
19	115.93268990516663	fix_post	2		12	17.0	2.5	/experiments/AOT/AOT_stimuli/rescaled_final/0330_rv.mp4	0.0	158.10770392417908	0.10003805160522461
20	116.03272795677185	fix_pre	0		120	18.0	2.5	/experiments/AOT/AOT_stimuli/rescaled_final/0683_fw.mp4	0.0	158.2077419757843	0.9999709129333496
20	116.21625804901123	pulse	0	t		18.0	2.5	/experiments/AOT/AOT_stimuli/rescaled_final/0683_fw.mp4	0.0	158.39127206802368	
20	117.0326988697052	movie	1		243	18.0	2.5	/experiments/AOT/AOT_stimuli/rescaled_final/0683_fw.mp4	0.0	159.20771288871765	2.5001251697540283
20	117.81615495681763	pulse	1	t		18.0	2.5	/experiments/AOT/AOT_stimuli/rescaled_final/0683_fw.mp4	0.0	159.99116897583008	
20	119.41449093818665	pulse	1	t		18.0	2.5	/experiments/AOT/AOT_stimuli/rescaled_final/0683_fw.mp4	0.0	161.5895049571991	
20	119.53282403945923	fix_post	2		12	18.0	2.5	/experiments/AOT/AOT_stimuli/rescaled_final/0683_fw.mp4	0.0	161.70783805847168	0.09994983673095703
21	119.63277387619019	fix_pre	0		120	19.0	2.5	/experiments/AOT/AOT_stimuli/rescaled_final/1975_rv.mp4	0.0	161.80778789520264	0.9996559619903564
21	120.63242983818054	movie	1		245	19.0	2.5	/experiments/AOT/AOT_stimuli/rescaled_final/1975_rv.mp4	0.0	162.807443857193	2.4998490810394287
21	121.01586103439331	pulse	1	t		19.0	2.5	/experiments/AOT/AOT_stimuli/rescaled_final/1975_rv.mp4	0.0	163.19087505340576	
21	122.61617994308472	pulse	1	t		19.0	2.5	/experiments/AOT/AOT_stimuli/rescaled_final/1975_rv.mp4	0.0	164.79119396209717	
21	123.13227891921997	fix_post	2		12	19.0	2.5	/experiments/AOT/AOT_stimuli/rescaled_final/1975_rv.mp4	0.0	165.30729293823242	0.10048413276672363
22	123.2327630519867	fix_pre	0		119	20.0	2.5	blank	1.0	165.40777707099915	0.9916079044342041
22	124.21622586250305	pulse	0	t		20.0	2.5	blank	1.0	166.3912398815155	
22	124.2243709564209	movie	1		301	20.0	2.5	blank	1.0	166.39938497543335	2.5078868865966797
22	125.81624102592468	pulse	1	t		20.0	2.5	blank	1.0	167.99125504493713	
22	126.73225784301758	fix_post	2		12	20.0	2.5	blank	1.0	168.90727186203003	0.10041213035583496
23	126.83266997337341	fix_pre	0		120	21.0	2.5	/experiments/AOT/AOT_stimuli/rescaled_final/0512_rv.mp4	0.0	169.00768399238586	1.000020980834961
23	127.41633987426758	pulse	0	t		21.0	2.5	/experiments/AOT/AOT_stimuli/rescaled_final/0512_rv.mp4	0.0	169.59135389328003	
23	127.83269095420837	movie	1		244	21.0	2.5	/experiments/AOT/AOT_stimuli/rescaled_final/0512_rv.mp4	0.0	170.00770497322083	2.4994869232177734
23	129.01625800132751	pulse	1	t		21.0	2.5	/experiments/AOT/AOT_stimuli/rescaled_final/0512_rv.mp4	0.0	171.19127202033997	
23	130.33217787742615	fix_post	2		12	21.0	2.5	/experiments/AOT/AOT_stimuli/rescaled_final/0512_rv.mp4	0.0	172.5071918964386	0.10052704811096191
24	130.4327049255371	fix_pre	0		120	22.0	2.5	/experiments/AOT/AOT_stimuli/rescaled_final/0368_fw.mp4	0.0	172.60771894454956	0.9999399185180664
24	130.61619806289673	pulse	0	t		22.0	2.5	/experiments/AOT/AOT_stimuli/rescaled_final/0368_fw.mp4	0.0	172.79121208190918	
24	131.43264484405518	movie	1		244	22.0	2.5	/experiments/AOT/AOT_stimuli/rescaled_final/0368_fw.mp4	0.0	173.60765886306763	2.5000030994415283
24	132.2161500453949	pulse	1	t		22.0	2.5	/experiments/AOT/AOT_stimuli/rescaled_final/0368_fw.mp4	0.0	174.39116406440735	
24	133.8148410320282	pulse	1	t		22.0	2.5	/experiments/AOT/AOT_stimuli/rescaled_final/0368_fw.mp4	0.0	175.98985505104065	
24	133.9326479434967	fix_post	2		12	22.0	2.5	/experiments/AOT/AOT_stimuli/rescaled_final/0368_fw.mp4	0.0	176.10766196250916	0.09993505477905273
25	134.03258299827576	fix_pre	0		120	23.0	2.5	/experiments/AOT/AOT_stimuli/rescaled_final/1938_fw.mp4	0.0	176.2075970172882	1.000053882598877
25	135.03263688087463	movie	1		244	23.0	2.5	/experiments/AOT/AOT_stimuli/rescaled_final/1938_fw.mp4	0.0	177.20765089988708	2.4999401569366455
25	135.416090965271	pulse	1	t		23.0	2.5	/experiments/AOT/AOT_stimuli/rescaled_final/1938_fw.mp4	0.0	177.59110498428345	
25	137.01614999771118	pulse	1	t		23.0	2.5	/experiments/AOT/AOT_stimuli/rescaled_final/1938_fw.mp4	0.0	179.19116401672363	
25	137.53257703781128	fix_post	2		12	23.0	2.5	/experiments/AOT/AOT_stimuli/rescaled_final/1938_fw.mp4	0.0	179.70759105682373	0.10008382797241211
26	137.6326608657837	fix_pre	0		119	24.0	2.5	/experiments/AOT/AOT_stimuli/rescaled_final/1672_fw.mp4	0.0	179.80767488479614	0.9916889667510986
26	138.6161789894104	pulse	0	t		24.0	2.5	/experiments/AOT/AOT_stimuli/rescaled_final/1672_fw.mp4	0.0	180.79119300842285	
26	138.6243498325348	movie	1		245	24.0	2.5	/experiments/AOT/AOT_stimuli/rescaled_final/1672_fw.mp4	0.0	180.79936385154724	2.508280038833618
26	140.21589303016663	pulse	1	t		24.0	2.5	/experiments/AOT/AOT_stimuli/rescaled_final/1672_fw.mp4	0.0	182.39090704917908	
26	141.1326298713684	fix_post	2		12	24.0	2.5	/experiments/AOT/AOT_stimuli/rescaled_final/1672_fw.mp4	0.0	183.30764389038086	0.09960007667541504
27	141.23222994804382	fix_pre	0		120	25.0	2.5	/experiments/AOT/AOT_stimuli/rescaled_final/1671_rv.mp4	0.0	183.40724396705627	1.0001120567321777
27	141.81614589691162	pulse	0	t		25.0	2.5	/experiments/AOT/AOT_stimuli/rescaled_final/1671_rv.mp4	0.0	183.99115991592407	
27	142.232342004776	movie	1		242	25.0	2.5	/experiments/AOT/AOT_stimuli/rescaled_final/1671_rv.mp4	0.0	184.40735602378845	2.500319004058838
27	143.4164309501648	pulse	1	t		25.0	2.5	/experiments/AOT/AOT_stimuli/rescaled_final/1671_rv.mp4	0.0	185.59144496917725	
27	144.73266100883484	fix_post	2		12	25.0	2.5	/experiments/AOT/AOT_stimuli/rescaled_final/1671_rv.mp4	0.0	186.9076750278473	0.09992790222167969
28	144.83258891105652	fix_pre	0		120	26.0	2.5	blank	1.0	187.00760293006897	1.000002145767212
28	145.01614499092102	pulse	0	t		26.0	2.5	blank	1.0	187.19115900993347	
28	145.83259105682373	movie	1		300	26.0	2.5	blank	1.0	188.00760507583618	2.5000479221343994
28	146.61614298820496	pulse	1	t		26.0	2.5	blank	1.0	188.7911570072174	
28	148.21599698066711	pulse	1	t		26.0	2.5	blank	1.0	190.39101099967957	
28	148.33263897895813	fix_post	2		12	26.0	2.5	blank	1.0	190.50765299797058	0.09991192817687988
29	148.432550907135	fix_pre	0		120	27.0	2.5	/experiments/AOT/AOT_stimuli/rescaled_final/0521_rv.mp4	0.0	190.60756492614746	0.9996500015258789
29	149.4322009086609	movie	1		245	27.0	2.5	/experiments/AOT/AOT_stimuli/rescaled_final/0521_rv.mp4	0.0	191.60721492767334	2.5002601146698
29	149.81637382507324	pulse	1	t		27.0	2.5	/experiments/AOT/AOT_stimuli/rescaled_final/0521_rv.mp4	0.0	191.9913878440857	
29	151.41604590415955	pulse	1	t		27.0	2.5	/experiments/AOT/AOT_stimuli/rescaled_final/0521_rv.mp4	0.0	193.591059923172	
29	151.9324610233307	fix_post	2		12	27.0	2.5	/experiments/AOT/AOT_stimuli/rescaled_final/0521_rv.mp4	0.0	194.10747504234314	0.10004401206970215
30	152.0325050354004	fix_pre	0		119	28.0	2.5	/experiments/AOT/AOT_stimuli/rescaled_final/1794_fw.mp4	0.0	194.20751905441284	0.9917628765106201
30	153.01608800888062	pulse	0	t		28.0	2.5	/experiments/AOT/AOT_stimuli/rescaled_final/1794_fw.mp4	0.0	195.19110202789307	
30	153.024267911911	movie	1		248	28.0	2.5	/experiments/AOT/AOT_stimuli/rescaled_final/1794_fw.mp4	0.0	195.19928193092346	2.5082509517669678
30	154.6161868572235	pulse	1	t		28.0	2.5	/experiments/AOT/AOT_stimuli/rescaled_final/1794_fw.mp4	0.0	196.79120087623596	
30	155.53251886367798	fix_post	2		12	28.0	2.5	/experiments/AOT/AOT_stimuli/rescaled_final/1794_fw.mp4	0.0	197.70753288269043	0.0999441146850586
31	155.63246297836304	fix_pre	0		120	29.0	2.5	/experiments/AOT/AOT_stimuli/rescaled_final/1550_fw.mp4	0.0	197.8074769973755	1.0000648498535156
31	156.21731305122375	pulse	0	t		29.0	2.5	/experiments/AOT/AOT_stimuli/rescaled_final/1550_fw.mp4	0.0	198.3923270702362	
31	156.63252782821655	movie	1		245	29.0	2.5	/experiments/AOT/AOT_stimuli/rescaled_final/1550_fw.mp4	0.0	198.807541847229	2.500042200088501
31	157.81604886054993	pulse	1	t		29.0	2.5	/experiments/AOT/AOT_stimuli/rescaled_final/1550_fw.mp4	0.0	199.99106287956238	
31	159.13257002830505	fix_post	2		12	29.0	2.5	/experiments/AOT/AOT_stimuli/rescaled_final/1550_fw.mp4	0.0	201.3075840473175	0.09962582588195801
32	159.232195854187	fix_pre	0		120	30.0	2.5	/experiments/AOT/AOT_stimuli/rescaled_final/2154_rv.mp4	0.0	201.40720987319946	1.0003621578216553
32	159.41605186462402	pulse	0	t		30.0	2.5	/experiments/AOT/AOT_stimuli/rescaled_final/2154_rv.mp4	0.0	201.59106588363647	
32	160.23255801200867	movie	1		244	30.0	2.5	/experiments/AOT/AOT_stimuli/rescaled_final/2154_rv.mp4	0.0	202.40757203102112	2.499537944793701
32	161.0160939693451	pulse	1	t		30.0	2.5	/experiments/AOT/AOT_stimuli/rescaled_final/2154_rv.mp4	0.0	203.19110798835754	
32	162.61460304260254	pulse	1	t		30.0	2.5	/experiments/AOT/AOT_stimuli/rescaled_final/2154_rv.mp4	0.0	204.789617061615	
32	162.73209595680237	fix_post	2		12	30.0	2.5	/experiments/AOT/AOT_stimuli/rescaled_final/2154_rv.mp4	0.0	204.90710997581482	0.10039305686950684
33	162.83248901367188	fix_pre	0		120	31.0	2.5	/experiments/AOT/AOT_stimuli/rescaled_final/0797_fw.mp4	0.0	205.00750303268433	1.0000109672546387
33	163.8324999809265	movie	1		244	31.0	2.5	/experiments/AOT/AOT_stimuli/rescaled_final/0797_fw.mp4	0.0	206.00751399993896	2.4995200634002686
33	164.21554398536682	pulse	1	t		31.0	2.5	/experiments/AOT/AOT_stimuli/rescaled_final/0797_fw.mp4	0.0	206.39055800437927	
33	165.8159830570221	pulse	1	t		31.0	2.5	/experiments/AOT/AOT_stimuli/rescaled_final/0797_fw.mp4	0.0	207.99099707603455	
33	166.33202004432678	fix_post	2		12	31.0	2.5	/experiments/AOT/AOT_stimuli/rescaled_final/0797_fw.mp4	0.0	208.50703406333923	0.10050082206726074
34	166.43252086639404	fix_pre	0		119	32.0	2.5	/experiments/AOT/AOT_stimuli/rescaled_final/1118_rv.mp4	0.0	208.6075348854065	0.9916200637817383
34	167.4158968925476	pulse	0	t		32.0	2.5	/experiments/AOT/AOT_stimuli/rescaled_final/1118_rv.mp4	0.0	209.59091091156006	
34	167.42414093017578	movie	1		246	32.0	2.5	/experiments/AOT/AOT_stimuli/rescaled_final/1118_rv.mp4	0.0	209.59915494918823	2.5079638957977295
34	169.01553392410278	pulse	1	t		32.0	2.5	/experiments/AOT/AOT_stimuli/rescaled_final/1118_rv.mp4	0.0	211.19054794311523	
34	169.9321048259735	fix_post	2		12	32.0	2.5	/experiments/AOT/AOT_stimuli/rescaled_final/1118_rv.mp4	0.0	212.10711884498596	0.1003420352935791
35	170.0324468612671	fix_pre	0		120	33.0	2.5	/experiments/AOT/AOT_stimuli/rescaled_final/0414_rv.mp4	0.0	212.20746088027954	0.9999821186065674
35	170.61593198776245	pulse	0	t		33.0	2.5	/experiments/AOT/AOT_stimuli/rescaled_final/0414_rv.mp4	0.0	212.7909460067749	
35	171.03242897987366	movie	1		245	33.0	2.5	/experiments/AOT/AOT_stimuli/rescaled_final/0414_rv.mp4	0.0	213.2074429988861	2.4996299743652344
35	172.21599984169006	pulse	1	t		33.0	2.5	/experiments/AOT/AOT_stimuli/rescaled_final/0414_rv.mp4	0.0	214.39101386070251	
35	173.5320589542389	fix_post	2		12	33.0	2.5	/experiments/AOT/AOT_stimuli/rescaled_final/0414_rv.mp4	0.0	215.70707297325134	0.10033702850341797
36	173.6323959827423	fix_pre	0		120	34.0	2.5	blank	1.0	215.80741000175476	1.00010085105896
36	173.81600785255432	pulse	0	t		34.0	2.5	blank	1.0	215.99102187156677	
36	174.63249683380127	movie	1		300	34.0	2.5	blank	1.0	216.80751085281372	2.49997615814209
36	175.4160008430481	pulse	1	t		34.0	2.5	blank	1.0	217.59101486206055	
36	177.01595282554626	pulse	1	t		34.0	2.5	blank	1.0	219.19096684455872	
36	177.13247299194336	fix_post	2		12	34.0	2.5	blank	1.0	219.3074870109558	0.10010504722595215
37	177.2325780391693	fix_pre	0		120	35.0	2.5	/experiments/AOT/AOT_stimuli/rescaled_final/1240_rv.mp4	0.0	219.40759205818176	0.9999048709869385
37	178.23248291015625	movie	1		242	35.0	2.5	/experiments/AOT/AOT_stimuli/rescaled_final/1240_rv.mp4	0.0	220.4074969291687	2.4995169639587402
37	178.615385055542	pulse	1	t		35.0	2.5	/experiments/AOT/AOT_stimuli/rescaled_final/1240_rv.mp4	0.0	220.79039907455444	
37	180.215922832489	pulse	1	t		35.0	2.5	/experiments/AOT/AOT_stimuli/rescaled_final/1240_rv.mp4	0.0	222.39093685150146	
37	180.731999874115	fix_post	2		12	35.0	2.5	/experiments/AOT/AOT_stimuli/rescaled_final/1240_rv.mp4	0.0	222.90701389312744	0.10042595863342285
38	180.8324258327484	fix_pre	0		119	36.0	2.5	/experiments/AOT/AOT_stimuli/rescaled_final/2145_rv.mp4	0.0	223.00743985176086	0.9916260242462158
38	181.81589603424072	pulse	0	t		36.0	2.5	/experiments/AOT/AOT_stimuli/rescaled_final/2145_rv.mp4	0.0	223.99091005325317	
38	181.82405185699463	movie	1		243	36.0	2.5	/experiments/AOT/AOT_stimuli/rescaled_final/2145_rv.mp4	0.0	223.99906587600708	2.508336067199707
38	183.41532588005066	pulse	1	t		36.0	2.5	/experiments/AOT/AOT_stimuli/rescaled_final/2145_rv.mp4	0.0	225.5903398990631	
38	184.33238792419434	fix_post	2		12	36.0	2.5	/experiments/AOT/AOT_stimuli/rescaled_final/2145_rv.mp4	0.0	226.5074019432068	0.1000359058380127
39	184.43242383003235	fix_pre	0		120	37.0	2.5	/experiments/AOT/AOT_stimuli/rescaled_final/0032_rv.mp4	0.0	226.6074378490448	0.9995410442352295
39	185.01596903800964	pulse	0	t		37.0	2.5	/experiments/AOT/AOT_stimuli/rescaled_final/0032_rv.mp4	0.0	227.1909830570221	
39	185.43196487426758	movie	1		244	37.0	2.5	/experiments/AOT/AOT_stimuli/rescaled_final/0032_rv.mp4	0.0	227.60697889328003	2.500365972518921
39	186.61602592468262	pulse	1	t		37.0	2.5	/experiments/AOT/AOT_stimuli/rescaled_final/0032_rv.mp4	0.0	228.79103994369507	
39	187.9323308467865	fix_post	2		12	37.0	2.5	/experiments/AOT/AOT_stimuli/rescaled_final/0032_rv.mp4	0.0	230.10734486579895	0.10010218620300293
40	188.0324330329895	fix_pre	0		120	38.0	2.5	/experiments/AOT/AOT_stimuli/rescaled_final/0694_rv.mp4	0.0	230.20744705200195	0.9999589920043945
40	188.21581983566284	pulse	0	t		38.0	2.5	/experiments/AOT/AOT_stimuli/rescaled_final/0694_rv.mp4	0.0	230.3908338546753	
40	189.0323920249939	movie	1		243	38.0	2.5	/experiments/AOT/AOT_stimuli/rescaled_final/0694_rv.mp4	0.0	231.20740604400635	2.499537944793701
40	189.81588101387024	pulse	1	t		38.0	2.5	/experiments/AOT/AOT_stimuli/rescaled_final/0694_rv.mp4	0.0	231.9908950328827	
40	191.41407799720764	pulse	1	t		38.0	2.5	/experiments/AOT/AOT_stimuli/rescaled_final/0694_rv.mp4	0.0	233.5890920162201	
40	191.5319299697876	fix_post	2		12	38.0	2.5	/experiments/AOT/AOT_stimuli/rescaled_final/0694_rv.mp4	0.0	233.70694398880005	0.09997797012329102
41	191.6319079399109	fix_pre	0		120	39.0	2.5	/experiments/AOT/AOT_stimuli/rescaled_final/0036_fw.mp4	0.0	233.80692195892334	1.0004849433898926
41	192.63239288330078	movie	1		244	39.0	2.5	/experiments/AOT/AOT_stimuli/rescaled_final/0036_fw.mp4	0.0	234.80740690231323	2.5001230239868164
41	193.01545405387878	pulse	1	t		39.0	2.5	/experiments/AOT/AOT_stimuli/rescaled_final/0036_fw.mp4	0.0	235.19046807289124	
41	194.61590695381165	pulse	1	t		39.0	2.5	/experiments/AOT/AOT_stimuli/rescaled_final/0036_fw.mp4	0.0	236.7909209728241	
41	195.1325159072876	fix_post	2		12	39.0	2.5	/experiments/AOT/AOT_stimuli/rescaled_final/0036_fw.mp4	0.0	237.30752992630005	0.09993815422058105
42	195.23245406150818	fix_pre	0		119	40.0	2.5	/experiments/AOT/AOT_stimuli/rescaled_final/1240_fw.mp4	0.0	237.40746808052063	0.9915859699249268
42	196.21594285964966	pulse	0	t		40.0	2.5	/experiments/AOT/AOT_stimuli/rescaled_final/1240_fw.mp4	0.0	238.3909568786621	
42	196.2240400314331	movie	1		245	40.0	2.5	/experiments/AOT/AOT_stimuli/rescaled_final/1240_fw.mp4	0.0	238.39905405044556	2.5080699920654297
42	197.81501603126526	pulse	1	t		40.0	2.5	/experiments/AOT/AOT_stimuli/rescaled_final/1240_fw.mp4	0.0	239.9900300502777	
42	198.73211002349854	fix_post	2		12	40.0	2.5	/experiments/AOT/AOT_stimuli/rescaled_final/1240_fw.mp4	0.0	240.907124042511	0.10042500495910645
43	198.83253502845764	fix_pre	0		120	41.0	2.5	/experiments/AOT/AOT_stimuli/rescaled_final/0521_rv.mp4	0.0	241.0075490474701	0.9996819496154785
43	199.41573286056519	pulse	0	t		41.0	2.5	/experiments/AOT/AOT_stimuli/rescaled_final/0521_rv.mp4	0.0	241.59074687957764	
43	199.83221697807312	movie	1		245	41.0	2.5	/experiments/AOT/AOT_stimuli/rescaled_final/0521_rv.mp4	0.0	242.00723099708557	2.500105857849121
43	201.01585698127747	pulse	1	t		41.0	2.5	/experiments/AOT/AOT_stimuli/rescaled_final/0521_rv.mp4	0.0	243.19087100028992	
43	202.33232283592224	fix_post	2		12	41.0	2.5	/experiments/AOT/AOT_stimuli/rescaled_final/0521_rv.mp4	0.0	244.5073368549347	0.09995222091674805
44	202.432275056839	fix_pre	0		120	42.0	2.5	blank	1.0	244.60728907585144	1.000053882598877
44	202.61575198173523	pulse	0	t		42.0	2.5	blank	1.0	244.79076600074768	
44	203.43232893943787	movie	1		300	42.0	2.5	blank	1.0	245.60734295845032	2.499936103820801
44	204.21579098701477	pulse	1	t		42.0	2.5	blank	1.0	246.39080500602722	
44	205.81578087806702	pulse	1	t		42.0	2.5	blank	1.0	247.99079489707947	
44	205.93226504325867	fix_post	2		12	42.0	2.5	blank	1.0	248.10727906227112	0.09998393058776855
45	206.03224897384644	fix_pre	0		120	43.0	2.5	/experiments/AOT/AOT_stimuli/rescaled_final/0873_rv.mp4	0.0	248.2072629928589	1.0000050067901611
45	207.0322539806366	movie	1		243	43.0	2.5	/experiments/AOT/AOT_stimuli/rescaled_final/0873_rv.mp4	0.0	249.20726799964905	2.4999849796295166
45	207.41556191444397	pulse	1	t		43.0	2.5	/experiments/AOT/AOT_stimuli/rescaled_final/0873_rv.mp4	0.0	249.59057593345642	
45	209.01570391654968	pulse	1	t		43.0	2.5	/experiments/AOT/AOT_stimuli/rescaled_final/0873_rv.mp4	0.0	251.19071793556213	
45	209.5322389602661	fix_post	2		12	43.0	2.5	/experiments/AOT/AOT_stimuli/rescaled_final/0873_rv.mp4	0.0	251.70725297927856	0.10025191307067871
46	209.6324908733368	fix_pre	0		119	44.0	2.5	/experiments/AOT/AOT_stimuli/rescaled_final/1975_fw.mp4	0.0	251.80750489234924	0.991400957107544
46	210.61568999290466	pulse	0	t		44.0	2.5	/experiments/AOT/AOT_stimuli/rescaled_final/1975_fw.mp4	0.0	252.79070401191711	
46	210.62389183044434	movie	1		248	44.0	2.5	/experiments/AOT/AOT_stimuli/rescaled_final/1975_fw.mp4	0.0	252.7989058494568	2.5083842277526855
46	212.2154619693756	pulse	1	t		44.0	2.5	/experiments/AOT/AOT_stimuli/rescaled_final/1975_fw.mp4	0.0	254.39047598838806	
46	213.13227605819702	fix_post	2		12	44.0	2.5	/experiments/AOT/AOT_stimuli/rescaled_final/1975_fw.mp4	0.0	255.30729007720947	0.09994888305664062
47	213.23222494125366	fix_pre	0		120	45.0	2.5	/experiments/AOT/AOT_stimuli/rescaled_final/0507_fw.mp4	0.0	255.4072389602661	1.0000131130218506
47	213.81577396392822	pulse	0	t		45.0	2.5	/experiments/AOT/AOT_stimuli/rescaled_final/0507_fw.mp4	0.0	255.99078798294067	
47	214.2322380542755	movie	1		245	45.0	2.5	/experiments/AOT/AOT_stimuli/rescaled_final/0507_fw.mp4	0.0	256.40725207328796	2.499973773956299
47	215.4157998561859	pulse	1	t		45.0	2.5	/experiments/AOT/AOT_stimuli/rescaled_final/0507_fw.mp4	0.0	257.59081387519836	
47	216.7322118282318	fix_post	2		12	45.0	2.5	/experiments/AOT/AOT_stimuli/rescaled_final/0507_fw.mp4	0.0	258.90722584724426	0.09999608993530273
48	216.83220791816711	fix_pre	0		120	46.0	2.5	/experiments/AOT/AOT_stimuli/rescaled_final/0285_fw.mp4	0.0	259.00722193717957	1.0000040531158447
48	217.01570391654968	pulse	0	t		46.0	2.5	/experiments/AOT/AOT_stimuli/rescaled_final/0285_fw.mp4	0.0	259.19071793556213	
48	217.83221197128296	movie	1		245	46.0	2.5	/experiments/AOT/AOT_stimuli/rescaled_final/0285_fw.mp4	0.0	260.0072259902954	2.499985933303833
48	218.61568999290466	pulse	1	t		46.0	2.5	/experiments/AOT/AOT_stimuli/rescaled_final/0285_fw.mp4	0.0	260.7907040119171	
48	220.21377205848694	pulse	1	t		46.0	2.5	/experiments/AOT/AOT_stimuli/rescaled_final/0285_fw.mp4	0.0	262.3887860774994	
48	220.3321979045868	fix_post	2		12	46.0	2.5	/experiments/AOT/AOT_stimuli/rescaled_final/0285_fw.mp4	0.0	262.50721192359924	0.1000070571899414
49	220.43220496177673	fix_pre	0		120	47.0	2.5	/experiments/AOT/AOT_stimuli/rescaled_final/0707_rv.mp4	0.0	262.6072189807892	1.0000450611114502
49	221.43225002288818	movie	1		244	47.0	2.5	/experiments/AOT/AOT_stimuli/rescaled_final/0707_rv.mp4	0.0	263.60726404190063	2.4999618530273438
49	221.815819978714	pulse	1	t		47.0	2.5	/experiments/AOT/AOT_stimuli/rescaled_final/0707_rv.mp4	0.0	263.99083399772644	
49	223.4156768321991	pulse	1	t		47.0	2.5	/experiments/AOT/AOT_stimuli/rescaled_final/0707_rv.mp4	0.0	265.59069085121155	
49	223.93221187591553	fix_post	2		12	47.0	2.5	/experiments/AOT/AOT_stimuli/rescaled_final/0707_rv.mp4	0.0	266.107225894928	0.10005617141723633
50	224.03226804733276	fix_pre	0		119	48.0	2.5	/experiments/AOT/AOT_stimuli/rescaled_final/1597_rv.mp4	0.0	266.2072820663452	0.991541862487793
50	225.01578092575073	pulse	0	t		48.0	2.5	/experiments/AOT/AOT_stimuli/rescaled_final/1597_rv.mp4	0.0	267.1907949447632	
50	225.02380990982056	movie	1		243	48.0	2.5	/experiments/AOT/AOT_stimuli/rescaled_final/1597_rv.mp4	0.0	267.198823928833	2.5082931518554688
50	226.61707091331482	pulse	1	t		48.0	2.5	/experiments/AOT/AOT_stimuli/rescaled_final/1597_rv.mp4	0.0	268.79208493232727	
50	227.53210306167603	fix_post	2		12	48.0	2.5	/experiments/AOT/AOT_stimuli/rescaled_final/1597_rv.mp4	0.0	269.7071170806885	0.1000678539276123
51	227.63217091560364	fix_pre	0		120	49.0	2.5	blank	1.0	269.8071849346161	1.0000789165496826
51	228.21564483642578	pulse	0	t		49.0	2.5	blank	1.0	270.39065885543823	
51	228.63224983215332	movie	1		300	49.0	2.5	blank	1.0	270.80726385116577	2.499908208847046
51	229.81562900543213	pulse	1	t		49.0	2.5	blank	1.0	271.9906430244446	
51	231.13215804100037	fix_post	2		12	49.0	2.5	blank	1.0	273.3071720600128	0.10004091262817383
52	231.23219895362854	fix_pre	0		120	50.0	2.5	/experiments/AOT/AOT_stimuli/rescaled_final/0334_rv.mp4	0.0	273.407212972641	0.9999570846557617
52	231.41562390327454	pulse	0	t		50.0	2.5	/experiments/AOT/AOT_stimuli/rescaled_final/0334_rv.mp4	0.0	273.590637922287	
52	232.2321560382843	movie	1		247	50.0	2.5	/experiments/AOT/AOT_stimuli/rescaled_final/0334_rv.mp4	0.0	274.40717005729675	2.4999659061431885
52	233.01567888259888	pulse	1	t		50.0	2.5	/experiments/AOT/AOT_stimuli/rescaled_final/0334_rv.mp4	0.0	275.1906929016113	
52	234.61563086509705	pulse	1	t		50.0	2.5	/experiments/AOT/AOT_stimuli/rescaled_final/0334_rv.mp4	0.0	276.7906448841095	
52	234.7321219444275	fix_post	2		12	50.0	2.5	/experiments/AOT/AOT_stimuli/rescaled_final/0334_rv.mp4	0.0	276.90713596343994	0.10006594657897949
53	234.83218789100647	fix_pre	0		120	51.0	2.5	/experiments/AOT/AOT_stimuli/rescaled_final/1380_rv.mp4	0.0	277.0072019100189	0.999967098236084
53	235.83215498924255	movie	1		245	51.0	2.5	/experiments/AOT/AOT_stimuli/rescaled_final/1380_rv.mp4	0.0	278.007169008255	2.4999470710754395
53	236.21524906158447	pulse	1	t		51.0	2.5	/experiments/AOT/AOT_stimuli/rescaled_final/1380_rv.mp4	0.0	278.3902630805969	
53	237.81566405296326	pulse	1	t		51.0	2.5	/experiments/AOT/AOT_stimuli/rescaled_final/1380_rv.mp4	0.0	279.9906780719757	
53	238.332102060318	fix_post	2		12	51.0	2.5	/experiments/AOT/AOT_stimuli/rescaled_final/1380_rv.mp4	0.0	280.50711607933044	0.10008382797241211
54	238.4321858882904	fix_pre	0		119	52.0	2.5	/experiments/AOT/AOT_stimuli/rescaled_final/0179_fw.mp4	0.0	280.60719990730286	0.991610050201416
54	239.41561889648438	pulse	0	t		52.0	2.5	/experiments/AOT/AOT_stimuli/rescaled_final/0179_fw.mp4	0.0	281.5906329154968	
54	239.42379593849182	movie	1		245	52.0	2.5	/experiments/AOT/AOT_stimuli/rescaled_final/0179_fw.mp4	0.0	281.5988099575043	2.50827693939209
54	241.01554203033447	pulse	1	t		52.0	2.5	/experiments/AOT/AOT_stimuli/rescaled_final/0179_fw.mp4	0.0	283.1905560493469	
54	241.9320728778839	fix_post	2		12	52.0	2.5	/experiments/AOT/AOT_stimuli/rescaled_final/0179_fw.mp4	0.0	284.10708689689636	0.09998607635498047
55	242.0320589542389	fix_pre	0		120	53.0	2.5	/experiments/AOT/AOT_stimuli/rescaled_final/1305_rv.mp4	0.0	284.20707297325134	1.0000669956207275
55	242.6156439781189	pulse	0	t		53.0	2.5	/experiments/AOT/AOT_stimuli/rescaled_final/1305_rv.mp4	0.0	284.79065799713135	
55	243.03212594985962	movie	1		243	53.0	2.5	/experiments/AOT/AOT_stimuli/rescaled_final/1305_rv.mp4	0.0	285.20713996887207	2.4999420642852783
55	244.2156720161438	pulse	1	t		53.0	2.5	/experiments/AOT/AOT_stimuli/rescaled_final/1305_rv.mp4	0.0	286.39068603515625	
55	245.5320680141449	fix_post	2		12	53.0	2.5	/experiments/AOT/AOT_stimuli/rescaled_final/1305_rv.mp4	0.0	287.70708203315735	0.1000509262084961
56	245.6321189403534	fix_pre	0		120	54.0	2.5	blank	1.0	287.80713295936584	0.9999630451202393
56	245.81562685966492	pulse	0	t		54.0	2.5	blank	1.0	287.99064087867737	
56	246.63208198547363	movie	1		300	54.0	2.5	blank	1.0	288.8070960044861	2.5000648498535156
56	247.41560101509094	pulse	1	t		54.0	2.5	blank	1.0	289.5906150341034	
56	249.01558685302734	pulse	1	t		54.0	2.5	blank	1.0	291.1906008720398	
56	249.13214683532715	fix_post	2		12	54.0	2.5	blank	1.0	291.3071608543396	0.09993720054626465
57	249.2320840358734	fix_pre	0		120	55.0	2.5	/experiments/AOT/AOT_stimuli/rescaled_final/2125_rv.mp4	0.0	291.40709805488586	1.0000758171081543
57	250.23215985298157	movie	1		246	55.0	2.5	/experiments/AOT/AOT_stimuli/rescaled_final/2125_rv.mp4	0.0	292.407173871994	2.49996018409729
57	250.6156940460205	pulse	1	t		55.0	2.5	/experiments/AOT/AOT_stimuli/rescaled_final/2125_rv.mp4	0.0	292.79070806503296	
57	252.21560502052307	pulse	1	t		55.0	2.5	/experiments/AOT/AOT_stimuli/rescaled_final/2125_rv.mp4	0.0	294.3906190395355	
57	252.73212003707886	fix_post	2		12	55.0	2.5	/experiments/AOT/AOT_stimuli/rescaled_final/2125_rv.mp4	0.0	294.9071340560913	0.10003185272216797
58	252.83215188980103	fix_pre	0		119	56.0	2.5	/experiments/AOT/AOT_stimuli/rescaled_final/2121_fw.mp4	0.0	295.0071659088135	0.9916810989379883
58	253.8152198791504	pulse	0	t		56.0	2.5	/experiments/AOT/AOT_stimuli/rescaled_final/2121_fw.mp4	0.0	295.99023389816284	
58	253.823832988739	movie	1		246	56.0	2.5	/experiments/AOT/AOT_stimuli/rescaled_final/2121_fw.mp4	0.0	295.99884700775146	2.5082669258117676
58	255.4150218963623	pulse	1	t		56.0	2.5	/experiments/AOT/AOT_stimuli/rescaled_final/2121_fw.mp4	0.0	297.59003591537476	
58	256.3320999145508	fix_post	2		12	56.0	2.5	/experiments/AOT/AOT_stimuli/rescaled_final/2121_fw.mp4	0.0	298.50711393356323	0.09995007514953613
59	256.4320499897003	fix_pre	0		120	57.0	2.5	/experiments/AOT/AOT_stimuli/rescaled_final/1987_rv.mp4	0.0	298.60706400871277	1.0000269412994385
59	257.0156810283661	pulse	0	t		57.0	2.5	/experiments/AOT/AOT_stimuli/rescaled_final/1987_rv.mp4	0.0	299.19069504737854	
59	257.43207693099976	movie	1		245	57.0	2.5	/experiments/AOT/AOT_stimuli/rescaled_final/1987_rv.mp4	0.0	299.6070909500122	2.499969005584717
59	258.6156108379364	pulse	1	t		57.0	2.5	/experiments/AOT/AOT_stimuli/rescaled_final/1987_rv.mp4	0.0	300.79062485694885	
59	259.9320459365845	fix_post	2		12	57.0	2.5	/experiments/AOT/AOT_stimuli/rescaled_final/1987_rv.mp4	0.0	302.1070599555969	0.09999799728393555
60	260.0320439338684	fix_pre	0		120	58.0	2.5	/experiments/AOT/AOT_stimuli/rescaled_final/2107_rv.mp4	0.0	302.20705795288086	0.9999849796295166
60	260.21557903289795	pulse	0	t		58.0	2.5	/experiments/AOT/AOT_stimuli/rescaled_final/2107_rv.mp4	0.0	302.3905930519104	
60	261.0320289134979	movie	1		248	58.0	2.5	/experiments/AOT/AOT_stimuli/rescaled_final/2107_rv.mp4	0.0	303.2070429325104	2.4999561309814453
60	261.81546688079834	pulse	1	t		58.0	2.5	/experiments/AOT/AOT_stimuli/rescaled_final/2107_rv.mp4	0.0	303.9904808998108	
60	263.4154899120331	pulse	1	t		58.0	2.5	/experiments/AOT/AOT_stimuli/rescaled_final/2107_rv.mp4	0.0	305.59050393104553	
60	263.53198504447937	fix_post	2		12	58.0	2.5	/experiments/AOT/AOT_stimuli/rescaled_final/2107_rv.mp4	0.0	305.7069990634918	0.10002493858337402
61	263.63200998306274	fix_pre	0		120	59.0	2.5	/experiments/AOT/AOT_stimuli/rescaled_final/2001_fw.mp4	0.0	305.8070240020752	0.9995560646057129
61	264.63156604766846	movie	1		246	59.0	2.5	/experiments/AOT/AOT_stimuli/rescaled_final/2001_fw.mp4	0.0	306.8065800666809	2.5004220008850098
61	265.0151069164276	pulse	1	t		59.0	2.5	/experiments/AOT/AOT_stimuli/rescaled_final/2001_fw.mp4	0.0	307.19012093544006	
61	266.61545300483704	pulse	1	t		59.0	2.5	/experiments/AOT/AOT_stimuli/rescaled_final/2001_fw.mp4	0.0	308.7904670238495	
61	267.13198804855347	fix_post	2		12	59.0	2.5	/experiments/AOT/AOT_stimuli/rescaled_final/2001_fw.mp4	0.0	309.3070020675659	0.1000528335571289
62	267.2320408821106	fix_pre	0		119	60.0	2.5	/experiments/AOT/AOT_stimuli/rescaled_final/1766_fw.mp4	0.0	309.40705490112305	0.9915900230407715
62	268.2154529094696	pulse	0	t		60.0	2.5	/experiments/AOT/AOT_stimuli/rescaled_final/1766_fw.mp4	0.0	310.39046692848206	
62	268.22363090515137	movie	1		246	60.0	2.5	/experiments/AOT/AOT_stimuli/rescaled_final/1766_fw.mp4	0.0	310.3986449241638	2.508404016494751
62	269.81539702415466	pulse	1	t		60.0	2.5	/experiments/AOT/AOT_stimuli/rescaled_final/1766_fw.mp4	0.0	311.9904110431671	
62	270.7320349216461	fix_post	2		12	60.0	2.5	/experiments/AOT/AOT_stimuli/rescaled_final/1766_fw.mp4	0.0	312.90704894065857	0.099945068359375
63	270.8319799900055	fix_pre	0		120	61.0	2.5	/experiments/AOT/AOT_stimuli/rescaled_final/1799_rv.mp4	0.0	313.00699400901794	1.0000078678131104
63	271.41552090644836	pulse	0	t		61.0	2.5	/experiments/AOT/AOT_stimuli/rescaled_final/1799_rv.mp4	0.0	313.5905349254608	
63	271.8319878578186	movie	1		243	61.0	2.5	/experiments/AOT/AOT_stimuli/rescaled_final/1799_rv.mp4	0.0	314.00700187683105	2.499994993209839
63	273.01552295684814	pulse	1	t		61.0	2.5	/experiments/AOT/AOT_stimuli/rescaled_final/1799_rv.mp4	0.0	315.1905369758606	
63	274.33198285102844	fix_post	2		12	61.0	2.5	/experiments/AOT/AOT_stimuli/rescaled_final/1799_rv.mp4	0.0	316.5069968700409	0.10000205039978027
64	274.4319849014282	fix_pre	0		120	62.0	2.5	/experiments/AOT/AOT_stimuli/rescaled_final/1760_fw.mp4	0.0	316.6069989204407	0.9999821186065674
64	274.61559200286865	pulse	0	t		62.0	2.5	/experiments/AOT/AOT_stimuli/rescaled_final/1760_fw.mp4	0.0	316.7906060218811	
64	275.4319670200348	movie	1		244	62.0	2.5	/experiments/AOT/AOT_stimuli/rescaled_final/1760_fw.mp4	0.0	317.60698103904724	2.4995579719543457
64	276.21542406082153	pulse	1	t		62.0	2.5	/experiments/AOT/AOT_stimuli/rescaled_final/1760_fw.mp4	0.0	318.390438079834	
64	277.8140399456024	pulse	1	t		62.0	2.5	/experiments/AOT/AOT_stimuli/rescaled_final/1760_fw.mp4	0.0	319.98905396461487	
64	277.93152499198914	fix_post	2		12	62.0	2.5	/experiments/AOT/AOT_stimuli/rescaled_final/1760_fw.mp4	0.0	320.1065390110016	0.10038399696350098
65	278.03190898895264	fix_pre	0		120	63.0	2.5	blank	1.0	320.2069230079651	0.9999978542327881
65	279.0319068431854	movie	1		300	63.0	2.5	blank	1.0	321.2069208621979	2.49996018409729
65	279.4154670238495	pulse	1	t		63.0	2.5	blank	1.0	321.59048104286194	
65	281.0154678821564	pulse	1	t		63.0	2.5	blank	1.0	323.1904819011688	
65	281.5318670272827	fix_post	2		12	63.0	2.5	blank	1.0	323.70688104629517	0.10010480880737305
66	281.6319718360901	fix_pre	0		119	64.0	2.5	/experiments/AOT/AOT_stimuli/rescaled_final/1465_rv.mp4	0.0	323.80698585510254	0.991657018661499
66	282.6155228614807	pulse	0	t		64.0	2.5	/experiments/AOT/AOT_stimuli/rescaled_final/1465_rv.mp4	0.0	324.79053688049316	
66	282.6236288547516	movie	1		248	64.0	2.5	/experiments/AOT/AOT_stimuli/rescaled_final/1465_rv.mp4	0.0	324.79864287376404	2.5078530311584473
66	284.214968919754	pulse	1	t		64.0	2.5	/experiments/AOT/AOT_stimuli/rescaled_final/1465_rv.mp4	0.0	326.3899829387665	
66	285.13148188591003	fix_post	2		12	64.0	2.5	/experiments/AOT/AOT_stimuli/rescaled_final/1465_rv.mp4	0.0	327.3064959049225	0.10041403770446777
67	285.2318959236145	fix_pre	0		120	65.0	2.5	/experiments/AOT/AOT_stimuli/rescaled_final/1034_fw.mp4	0.0	327.40690994262695	0.9999749660491943
67	285.81659293174744	pulse	0	t		65.0	2.5	/experiments/AOT/AOT_stimuli/rescaled_final/1034_fw.mp4	0.0	327.9916069507599	
67	286.2318708896637	movie	1		248	65.0	2.5	/experiments/AOT/AOT_stimuli/rescaled_final/1034_fw.mp4	0.0	328.40688490867615	2.5000741481781006
67	287.415442943573	pulse	1	t		65.0	2.5	/experiments/AOT/AOT_stimuli/rescaled_final/1034_fw.mp4	0.0	329.59045696258545	
67	288.7319450378418	fix_post	2		12	65.0	2.5	/experiments/AOT/AOT_stimuli/rescaled_final/1034_fw.mp4	0.0	330.90695905685425	0.09992384910583496
68	288.83186888694763	fix_pre	0		120	66.0	2.5	/experiments/AOT/AOT_stimuli/rescaled_final/0784_fw.mp4	0.0	331.0068829059601	0.9996180534362793
68	289.01531291007996	pulse	0	t		66.0	2.5	/experiments/AOT/AOT_stimuli/rescaled_final/0784_fw.mp4	0.0	331.1903269290924	
68	289.8314869403839	movie	1		244	66.0	2.5	/experiments/AOT/AOT_stimuli/rescaled_final/0784_fw.mp4	0.0	332.00650095939636	2.5004489421844482
68	290.6153829097748	pulse	1	t		66.0	2.5	/experiments/AOT/AOT_stimuli/rescaled_final/0784_fw.mp4	0.0	332.79039692878723	
68	292.21385288238525	pulse	1	t		66.0	2.5	/experiments/AOT/AOT_stimuli/rescaled_final/0784_fw.mp4	0.0	334.3888669013977	
68	292.33193588256836	fix_post	2		12	66.0	2.5	/experiments/AOT/AOT_stimuli/rescaled_final/0784_fw.mp4	0.0	334.5069499015808	0.0998990535736084
69	292.43183493614197	fix_pre	0		120	67.0	2.5	/experiments/AOT/AOT_stimuli/rescaled_final/1794_rv.mp4	0.0	334.6068489551544	0.9999899864196777
69	293.43182492256165	movie	1		246	67.0	2.5	/experiments/AOT/AOT_stimuli/rescaled_final/1794_rv.mp4	0.0	335.6068389415741	2.500046968460083
69	293.81525588035583	pulse	1	t		67.0	2.5	/experiments/AOT/AOT_stimuli/rescaled_final/1794_rv.mp4	0.0	335.9902698993683	
69	295.41525292396545	pulse	1	t		67.0	2.5	/experiments/AOT/AOT_stimuli/rescaled_final/1794_rv.mp4	0.0	337.5902669429779	
69	295.93187189102173	fix_post	2		12	67.0	2.5	/experiments/AOT/AOT_stimuli/rescaled_final/1794_rv.mp4	0.0	338.1068859100342	0.09993100166320801
70	296.03180289268494	fix_pre	0		119	68.0	2.5	/experiments/AOT/AOT_stimuli/rescaled_final/2058_rv.mp4	0.0	338.2068169116974	0.9917991161346436
70	297.01530385017395	pulse	0	t		68.0	2.5	/experiments/AOT/AOT_stimuli/rescaled_final/2058_rv.mp4	0.0	339.1903178691864	
70	297.0236020088196	movie	1		244	68.0	2.5	/experiments/AOT/AOT_stimuli/rescaled_final/2058_rv.mp4	0.0	339.19861602783203	2.508246898651123
70	298.61478185653687	pulse	1	t		68.0	2.5	/experiments/AOT/AOT_stimuli/rescaled_final/2058_rv.mp4	0.0	340.7897958755493	
70	299.5318489074707	fix_post	2		12	68.0	2.5	/experiments/AOT/AOT_stimuli/rescaled_final/2058_rv.mp4	0.0	341.70686292648315	0.0999300479888916
71	299.6317789554596	fix_pre	0		120	69.0	2.5	/experiments/AOT/AOT_stimuli/rescaled_final/1209_fw.mp4	0.0	341.80679297447205	0.999626874923706
71	300.2153549194336	pulse	0	t		69.0	2.5	/experiments/AOT/AOT_stimuli/rescaled_final/1209_fw.mp4	0.0	342.39036893844604	
71	300.6314058303833	movie	1		243	69.0	2.5	/experiments/AOT/AOT_stimuli/rescaled_final/1209_fw.mp4	0.0	342.80641984939575	2.500469207763672
71	301.815388917923	pulse	1	t		69.0	2.5	/experiments/AOT/AOT_stimuli/rescaled_final/1209_fw.mp4	0.0	343.9904029369354	
71	303.131875038147	fix_post	2		12	69.0	2.5	/experiments/AOT/AOT_stimuli/rescaled_final/1209_fw.mp4	0.0	345.3068890571594	0.10001802444458008
72	303.23189306259155	fix_pre	0		120	70.0	2.5	blank	1.0	345.406907081604	0.9998869895935059
72	303.41529989242554	pulse	0	t		70.0	2.5	blank	1.0	345.590313911438	
72	304.23178005218506	movie	1		300	70.0	2.5	blank	1.0	346.4067940711975	2.4999868869781494
72	305.01538705825806	pulse	1	t		70.0	2.5	blank	1.0	347.1904010772705	
72	306.61533784866333	pulse	1	t		70.0	2.5	blank	1.0	348.7903518676758	
72	306.7317669391632	fix_post	2		12	70.0	2.5	blank	1.0	348.90678095817566	0.10014605522155762
73	306.83191299438477	fix_pre	0		120	71.0	2.5	/experiments/AOT/AOT_stimuli/rescaled_final/0481_rv.mp4	0.0	349.0069270133972	0.9994699954986572
73	307.8313829898834	movie	1		247	71.0	2.5	/experiments/AOT/AOT_stimuli/rescaled_final/0481_rv.mp4	0.0	350.0063970088959	2.500591993331909
73	308.21458292007446	pulse	1	t		71.0	2.5	/experiments/AOT/AOT_stimuli/rescaled_final/0481_rv.mp4	0.0	350.3895969390869	
73	309.8149218559265	pulse	1	t		71.0	2.5	/experiments/AOT/AOT_stimuli/rescaled_final/0481_rv.mp4	0.0	351.98993587493896	
73	310.33197498321533	fix_post	2		12	71.0	2.5	/experiments/AOT/AOT_stimuli/rescaled_final/0481_rv.mp4	0.0	352.5069890022278	0.0996558666229248
74	310.43163084983826	fix_pre	0		119	72.0	2.5	/experiments/AOT/AOT_stimuli/rescaled_final/0585_fw.mp4	0.0	352.6066448688507	0.9917581081390381
74	311.4152159690857	pulse	0	t		72.0	2.5	/experiments/AOT/AOT_stimuli/rescaled_final/0585_fw.mp4	0.0	353.59022998809814	
74	311.4233889579773	movie	1		245	72.0	2.5	/experiments/AOT/AOT_stimuli/rescaled_final/0585_fw.mp4	0.0	353.59840297698975	2.508394956588745
74	313.0154139995575	pulse	1	t		72.0	2.5	/experiments/AOT/AOT_stimuli/rescaled_final/0585_fw.mp4	0.0	355.19042801856995	
74	313.93178391456604	fix_post	2		12	72.0	2.5	/experiments/AOT/AOT_stimuli/rescaled_final/0585_fw.mp4	0.0	356.1067979335785	0.10003304481506348
75	314.0318169593811	fix_pre	0		120	73.0	2.5	/experiments/AOT/AOT_stimuli/rescaled_final/1269_rv.mp4	0.0	356.20683097839355	0.9995858669281006
75	314.615327835083	pulse	0	t		73.0	2.5	/experiments/AOT/AOT_stimuli/rescaled_final/1269_rv.mp4	0.0	356.79034185409546	
75	315.0314028263092	movie	1		244	73.0	2.5	/experiments/AOT/AOT_stimuli/rescaled_final/1269_rv.mp4	0.0	357.20641684532166	2.5003271102905273
75	316.2152500152588	pulse	1	t		73.0	2.5	/experiments/AOT/AOT_stimuli/rescaled_final/1269_rv.mp4	0.0	358.39026403427124	
75	317.53172993659973	fix_post	2		12	73.0	2.5	/experiments/AOT/AOT_stimuli/rescaled_final/1269_rv.mp4	0.0	359.7067439556122	0.09999203681945801
76	317.6317219734192	fix_pre	0		120	74.0	2.5	/experiments/AOT/AOT_stimuli/rescaled_final/0216_rv.mp4	0.0	359.80673599243164	0.9997029304504395
76	317.81527185440063	pulse	0	t		74.0	2.5	/experiments/AOT/AOT_stimuli/rescaled_final/0216_rv.mp4	0.0	359.9902858734131	
76	318.63142490386963	movie	1		246	74.0	2.5	/experiments/AOT/AOT_stimuli/rescaled_final/0216_rv.mp4	0.0	360.8064389228821	2.500133991241455
76	319.4151680469513	pulse	1	t		74.0	2.5	/experiments/AOT/AOT_stimuli/rescaled_final/0216_rv.mp4	0.0	361.59018206596375	
76	321.0139229297638	pulse	1	t		74.0	2.5	/experiments/AOT/AOT_stimuli/rescaled_final/0216_rv.mp4	0.0	363.18893694877625	
76	321.1315588951111	fix_post	2		12	74.0	2.5	/experiments/AOT/AOT_stimuli/rescaled_final/0216_rv.mp4	0.0	363.30657291412354	0.1000969409942627
77	321.23165583610535	fix_pre	0		120	75.0	2.5	blank	1.0	363.4066698551178	1.0000920295715332
77	322.2317478656769	movie	1		300	75.0	2.5	blank	1.0	364.40676188468933	2.499929189682007
77	322.6152310371399	pulse	1	t		75.0	2.5	blank	1.0	364.79024505615234	
77	324.2151849269867	pulse	1	t		75.0	2.5	blank	1.0	366.39019894599915	
77	324.7316770553589	fix_post	2		12	75.0	2.5	blank	1.0	366.90669107437134	0.10000491142272949
78	324.8316819667816	fix_pre	0		119	76.0	2.5	/experiments/AOT/AOT_stimuli/rescaled_final/1597_fw.mp4	0.0	367.00669598579407	0.9917218685150146
78	325.8152370452881	pulse	0	t		76.0	2.5	/experiments/AOT/AOT_stimuli/rescaled_final/1597_fw.mp4	0.0	367.99025106430054	
78	325.82340383529663	movie	1		246	76.0	2.5	/experiments/AOT/AOT_stimuli/rescaled_final/1597_fw.mp4	0.0	367.9984178543091	2.508334159851074
78	327.4153130054474	pulse	1	t		76.0	2.5	/experiments/AOT/AOT_stimuli/rescaled_final/1597_fw.mp4	0.0	369.59032702445984	
78	328.3317379951477	fix_post	2		12	76.0	2.5	/experiments/AOT/AOT_stimuli/rescaled_final/1597_fw.mp4	0.0	370.50675201416016	0.09994983673095703
79	328.43168783187866	fix_pre	0		120	77.0	2.5	/experiments/AOT/AOT_stimuli/rescaled_final/2154_fw.mp4	0.0	370.6067018508911	1.0000860691070557
79	329.0152280330658	pulse	0	t		77.0	2.5	/experiments/AOT/AOT_stimuli/rescaled_final/2154_fw.mp4	0.0	371.19024205207825	
79	329.4317739009857	movie	1		248	77.0	2.5	/experiments/AOT/AOT_stimuli/rescaled_final/2154_fw.mp4	0.0	371.60678791999817	2.4999189376831055
79	330.6153769493103	pulse	1	t		77.0	2.5	/experiments/AOT/AOT_stimuli/rescaled_final/2154_fw.mp4	0.0	372.79039096832275	
79	331.9316928386688	fix_post	2		12	77.0	2.5	/experiments/AOT/AOT_stimuli/rescaled_final/2154_fw.mp4	0.0	374.1067068576813	0.09998703002929688
80	332.0316798686981	fix_pre	0		120	78.0	2.5	/experiments/AOT/AOT_stimuli/rescaled_final/0681_fw.mp4	0.0	374.20669388771057	0.9999690055847168
80	332.2151699066162	pulse	0	t		78.0	2.5	/experiments/AOT/AOT_stimuli/rescaled_final/0681_fw.mp4	0.0	374.39018392562866	
80	333.03164887428284	movie	1		243	78.0	2.5	/experiments/AOT/AOT_stimuli/rescaled_final/0681_fw.mp4	0.0	375.2066628932953	2.4995779991149902
80	333.81514286994934	pulse	1	t		78.0	2.5	/experiments/AOT/AOT_stimuli/rescaled_final/0681_fw.mp4	0.0	375.9901568889618	
80	335.4136028289795	pulse	1	t		78.0	2.5	/experiments/AOT/AOT_stimuli/rescaled_final/0681_fw.mp4	0.0	377.58861684799194	
80	335.5312268733978	fix_post	2		12	78.0	2.5	/experiments/AOT/AOT_stimuli/rescaled_final/0681_fw.mp4	0.0	377.7062408924103	0.10045313835144043
81	335.63168001174927	fix_pre	0		120	79.0	2.5	/experiments/AOT/AOT_stimuli/rescaled_final/0073_rv.mp4	0.0	377.8066940307617	0.9999489784240723
81	336.63162899017334	movie	1		244	79.0	2.5	/experiments/AOT/AOT_stimuli/rescaled_final/0073_rv.mp4	0.0	378.8066430091858	2.4995970726013184
81	337.01460695266724	pulse	1	t		79.0	2.5	/experiments/AOT/AOT_stimuli/rescaled_final/0073_rv.mp4	0.0	379.1896209716797	
81	338.6151850223541	pulse	1	t		79.0	2.5	/experiments/AOT/AOT_stimuli/rescaled_final/0073_rv.mp4	0.0	380.7901990413666	
81	339.13122606277466	fix_post	2		12	79.0	2.5	/experiments/AOT/AOT_stimuli/rescaled_final/0073_rv.mp4	0.0	381.3062400817871	0.10004496574401855
82	339.2312710285187	fix_pre	0		119	80.0	2.5	/experiments/AOT/AOT_stimuli/rescaled_final/1597_fw.mp4	0.0	381.4062850475311	0.9920108318328857
82	340.21514987945557	pulse	0	t		80.0	2.5	/experiments/AOT/AOT_stimuli/rescaled_final/1597_fw.mp4	0.0	382.390163898468	
82	340.22328186035156	movie	1		244	80.0	2.5	/experiments/AOT/AOT_stimuli/rescaled_final/1597_fw.mp4	0.0	382.398295879364	2.5082850456237793
82	341.8148410320282	pulse	1	t		80.0	2.5	/experiments/AOT/AOT_stimuli/rescaled_final/1597_fw.mp4	0.0	383.98985505104065	
82	342.73156690597534	fix_post	2		12	80.0	2.5	/experiments/AOT/AOT_stimuli/rescaled_final/1597_fw.mp4	0.0	384.9065809249878	0.10008406639099121
83	342.83165097236633	fix_pre	0		120	81.0	2.5	/experiments/AOT/AOT_stimuli/rescaled_final/0583_rv.mp4	0.0	385.0066649913788	0.9999899864196777
83	343.4151599407196	pulse	0	t		81.0	2.5	/experiments/AOT/AOT_stimuli/rescaled_final/0583_rv.mp4	0.0	385.59017395973206	
83	343.831640958786	movie	1		242	81.0	2.5	/experiments/AOT/AOT_stimuli/rescaled_final/0583_rv.mp4	0.0	386.00665497779846	2.4999969005584717
83	345.01519298553467	pulse	1	t		81.0	2.5	/experiments/AOT/AOT_stimuli/rescaled_final/0583_rv.mp4	0.0	387.1902070045471	
83	346.3316378593445	fix_post	2		12	81.0	2.5	/experiments/AOT/AOT_stimuli/rescaled_final/0583_rv.mp4	0.0	388.50665187835693	0.10001707077026367
84	346.43165493011475	fix_pre	0		120	82.0	2.5	blank	1.0	388.6066689491272	0.9999921321868896
84	346.6151330471039	pulse	0	t		82.0	2.5	blank	1.0	388.79014706611633	
84	347.43164706230164	movie	1		300	82.0	2.5	blank	1.0	389.6066610813141	2.500027894973755
84	348.21497988700867	pulse	1	t		82.0	2.5	blank	1.0	390.3899939060211	
84	349.8151259422302	pulse	1	t		82.0	2.5	blank	1.0	391.9901399612427	
84	349.9316749572754	fix_post	2		12	82.0	2.5	blank	1.0	392.10668897628784	0.09994292259216309
85	350.03161787986755	fix_pre	0		120	83.0	2.5	/experiments/AOT/AOT_stimuli/rescaled_final/2162_rv.mp4	0.0	392.20663189888	1.000020980834961
85	351.0316388607025	movie	1		246	83.0	2.5	/experiments/AOT/AOT_stimuli/rescaled_final/2162_rv.mp4	0.0	393.20665287971497	2.499549150466919
85	351.41509199142456	pulse	1	t		83.0	2.5	/experiments/AOT/AOT_stimuli/rescaled_final/2162_rv.mp4	0.0	393.590106010437	
85	353.0150558948517	pulse	1	t		83.0	2.5	/experiments/AOT/AOT_stimuli/rescaled_final/2162_rv.mp4	0.0	395.19006991386414	
85	353.53118801116943	fix_post	2		12	83.0	2.5	/experiments/AOT/AOT_stimuli/rescaled_final/2162_rv.mp4	0.0	395.7062020301819	0.1003408432006836
87	353.6315288543701	stim	0		1716					395.80654287338257	14.300037145614624
87	354.6150588989258	pulse	0	t						396.79007291793823	
87	356.21502900123596	pulse	0	t						398.3900430202484	
87	357.81505584716797	pulse	0	t						399.9900698661804	
87	359.4150218963623	pulse	0	t						401.59003591537476	
87	361.0150580406189	pulse	0	t						403.19007205963135	
87	362.6149890422821	pulse	0	t						404.79000306129456	
87	364.2150568962097	pulse	0	t						406.39007091522217	
87	365.8147430419922	pulse	0	t						407.98975706100464	
87	367.41497802734375	pulse	0	t						409.5899920463562	
