trial_nr	onset	event_type	phase	response	nr_frames	movie_index	movie_duration	movie_file	blank	onset_abs	duration
0	0.20830297470092773	stim	0		96					26.05393886566162	0.8000810146331787
0	1.0004281997680664	response	0	space						26.84606409072876	
1	1.0083839893341064	stim	0		4663					26.8540198802948	38.874606132507324
1	39.87301802635193	pulse	0	t						65.71865391731262	
1	39.88299012184143	stim	1		1715					65.72862601280212	14.300019979476929
1	41.4647421836853	pulse	1	t						67.310378074646	
1	43.064903020858765	pulse	1	t						68.91053891181946	
1	44.65766501426697	pulse	1	t						70.50330090522766	
1	46.25776219367981	pulse	1	t						72.1033980846405	
1	47.85803008079529	pulse	1	t						73.70366597175598	
1	49.45827102661133	pulse	1	t						75.30390691757202	
1	51.057697057724	pulse	1	t						76.90333294868469	
1	52.65792417526245	pulse	1	t						78.50356006622314	
2	54.18301010131836	fix_pre	0		10	0.0	2.5	/experiments/knapen_AOT/AOT_stimuli/rescaled_final/0628_fw.mp4	0.0	80.02864599227905	0.09182906150817871
2	54.25823211669922	pulse	0	t		0.0	2.5	/experiments/knapen_AOT/AOT_stimuli/rescaled_final/0628_fw.mp4	0.0	80.10386800765991	
2	54.27483916282654	movie	1		246	0.0	2.5	/experiments/knapen_AOT/AOT_stimuli/rescaled_final/0628_fw.mp4	0.0	80.12047505378723	2.500337839126587
2	55.858867168426514	pulse	1	t		0.0	2.5	/experiments/knapen_AOT/AOT_stimuli/rescaled_final/0628_fw.mp4	0.0	81.7045030593872	
2	56.775177001953125	fix_post	2		12	0.0	2.5	/experiments/knapen_AOT/AOT_stimuli/rescaled_final/0628_fw.mp4	0.0	82.62081289291382	0.09988808631896973
3	56.875065088272095	fix_pre	0		120	1.0	2.5	/experiments/knapen_AOT/AOT_stimuli/rescaled_final/1712_fw.mp4	0.0	82.72070097923279	1.0001370906829834
3	57.45882320404053	pulse	0	t		1.0	2.5	/experiments/knapen_AOT/AOT_stimuli/rescaled_final/1712_fw.mp4	0.0	83.30445909500122	
3	57.87520217895508	movie	1		244	1.0	2.5	/experiments/knapen_AOT/AOT_stimuli/rescaled_final/1712_fw.mp4	0.0	83.72083806991577	2.500443935394287
3	59.059070110321045	pulse	1	t		1.0	2.5	/experiments/knapen_AOT/AOT_stimuli/rescaled_final/1712_fw.mp4	0.0	84.90470600128174	
3	60.375646114349365	fix_post	2		12	1.0	2.5	/experiments/knapen_AOT/AOT_stimuli/rescaled_final/1712_fw.mp4	0.0	86.22128200531006	0.09994387626647949
4	60.475589990615845	fix_pre	0		120	2.0	2.5	/experiments/knapen_AOT/AOT_stimuli/rescaled_final/0107_rv.mp4	0.0	86.32122588157654	1.0001931190490723
4	60.65911412239075	pulse	0	t		2.0	2.5	/experiments/knapen_AOT/AOT_stimuli/rescaled_final/0107_rv.mp4	0.0	86.50475001335144	
4	61.47578310966492	movie	1		245	2.0	2.5	/experiments/knapen_AOT/AOT_stimuli/rescaled_final/0107_rv.mp4	0.0	87.32141900062561	2.500319004058838
4	62.25937008857727	pulse	1	t		2.0	2.5	/experiments/knapen_AOT/AOT_stimuli/rescaled_final/0107_rv.mp4	0.0	88.10500597953796	
4	63.85974097251892	pulse	1	t		2.0	2.5	/experiments/knapen_AOT/AOT_stimuli/rescaled_final/0107_rv.mp4	0.0	89.70537686347961	
4	63.976102113723755	fix_post	2		12	2.0	2.5	/experiments/knapen_AOT/AOT_stimuli/rescaled_final/0107_rv.mp4	0.0	89.82173800468445	0.10003805160522461
5	64.07614016532898	fix_pre	0		120	3.0	2.5	/experiments/knapen_AOT/AOT_stimuli/rescaled_final/0203_fw.mp4	0.0	89.92177605628967	1.0001318454742432
5	65.07627201080322	movie	1		244	3.0	2.5	/experiments/knapen_AOT/AOT_stimuli/rescaled_final/0203_fw.mp4	0.0	90.92190790176392	2.492033004760742
5	65.46033811569214	pulse	1	t		3.0	2.5	/experiments/knapen_AOT/AOT_stimuli/rescaled_final/0203_fw.mp4	0.0	91.30597400665283	
5	67.06016206741333	pulse	1	t		3.0	2.5	/experiments/knapen_AOT/AOT_stimuli/rescaled_final/0203_fw.mp4	0.0	92.90579795837402	
5	67.56830501556396	fix_post	2		12	3.0	2.5	/experiments/knapen_AOT/AOT_stimuli/rescaled_final/0203_fw.mp4	0.0	93.41394090652466	0.10003209114074707
6	67.66833710670471	fix_pre	0		120	4.0	2.5	/experiments/knapen_AOT/AOT_stimuli/rescaled_final/1269_rv.mp4	0.0	93.5139729976654	1.0001800060272217
6	68.66033220291138	pulse	0	t		4.0	2.5	/experiments/knapen_AOT/AOT_stimuli/rescaled_final/1269_rv.mp4	0.0	94.50596809387207	
6	68.66851711273193	movie	1		245	4.0	2.5	/experiments/knapen_AOT/AOT_stimuli/rescaled_final/1269_rv.mp4	0.0	94.51415300369263	2.508643865585327
6	70.26161408424377	pulse	1	t		4.0	2.5	/experiments/knapen_AOT/AOT_stimuli/rescaled_final/1269_rv.mp4	0.0	96.10724997520447	
6	71.17716097831726	fix_post	2		12	4.0	2.5	/experiments/knapen_AOT/AOT_stimuli/rescaled_final/1269_rv.mp4	0.0	97.02279686927795	0.10005521774291992
7	71.27721619606018	fix_pre	0		120	5.0	2.5	/experiments/knapen_AOT/AOT_stimuli/rescaled_final/1275_fw.mp4	0.0	97.12285208702087	1.0001440048217773
7	71.86096501350403	pulse	0	t		5.0	2.5	/experiments/knapen_AOT/AOT_stimuli/rescaled_final/1275_fw.mp4	0.0	97.70660090446472	
7	72.27736020088196	movie	1		245	5.0	2.5	/experiments/knapen_AOT/AOT_stimuli/rescaled_final/1275_fw.mp4	0.0	98.12299609184265	2.5005099773406982
7	73.46127009391785	pulse	1	t		5.0	2.5	/experiments/knapen_AOT/AOT_stimuli/rescaled_final/1275_fw.mp4	0.0	99.30690598487854	
7	74.77787017822266	fix_post	2		12	5.0	2.5	/experiments/knapen_AOT/AOT_stimuli/rescaled_final/1275_fw.mp4	0.0	100.62350606918335	0.09987497329711914
8	74.87774515151978	fix_pre	0		120	6.0	2.5	blank	1.0	100.72338104248047	1.000187873840332
8	75.06126809120178	pulse	0	t		6.0	2.5	blank	1.0	100.90690398216248	
8	75.87793302536011	movie	1		300	6.0	2.5	blank	1.0	101.7235689163208	2.5003631114959717
8	76.66157817840576	pulse	1	t		6.0	2.5	blank	1.0	102.50721406936646	
8	78.26190710067749	pulse	1	t		6.0	2.5	blank	1.0	104.10754299163818	
8	78.37829613685608	fix_post	2		12	6.0	2.5	blank	1.0	104.22393202781677	0.09995889663696289
9	78.47825503349304	fix_pre	0		119	7.0	2.5	/experiments/knapen_AOT/AOT_stimuli/rescaled_final/0688_fw.mp4	0.0	104.32389092445374	0.991832971572876
9	79.47008800506592	movie	1		244	7.0	2.5	/experiments/knapen_AOT/AOT_stimuli/rescaled_final/0688_fw.mp4	0.0	105.31572389602661	2.5005080699920654
9	79.86225700378418	pulse	1	t		7.0	2.5	/experiments/knapen_AOT/AOT_stimuli/rescaled_final/0688_fw.mp4	0.0	105.70789289474487	
9	81.46234703063965	pulse	1	t		7.0	2.5	/experiments/knapen_AOT/AOT_stimuli/rescaled_final/0688_fw.mp4	0.0	107.30798292160034	
9	81.97059607505798	fix_post	2		12	7.0	2.5	/experiments/knapen_AOT/AOT_stimuli/rescaled_final/0688_fw.mp4	0.0	107.81623196601868	0.09987211227416992
10	82.07046818733215	fix_pre	0		120	8.0	2.5	/experiments/knapen_AOT/AOT_stimuli/rescaled_final/1861_rv.mp4	0.0	107.91610407829285	1.0001769065856934
10	83.06248211860657	pulse	0	t		8.0	2.5	/experiments/knapen_AOT/AOT_stimuli/rescaled_final/1861_rv.mp4	0.0	108.90811800956726	
10	83.07064509391785	movie	1		245	8.0	2.5	/experiments/knapen_AOT/AOT_stimuli/rescaled_final/1861_rv.mp4	0.0	108.91628098487854	2.5086779594421387
10	84.6637670993805	pulse	1	t		8.0	2.5	/experiments/knapen_AOT/AOT_stimuli/rescaled_final/1861_rv.mp4	0.0	110.50940299034119	
10	85.57932305335999	fix_post	2		12	8.0	2.5	/experiments/knapen_AOT/AOT_stimuli/rescaled_final/1861_rv.mp4	0.0	111.42495894432068	0.09999895095825195
11	85.67932200431824	fix_pre	0		120	9.0	2.5	/experiments/knapen_AOT/AOT_stimuli/rescaled_final/1727_fw.mp4	0.0	111.52495789527893	1.0002131462097168
11	86.26301217079163	pulse	0	t		9.0	2.5	/experiments/knapen_AOT/AOT_stimuli/rescaled_final/1727_fw.mp4	0.0	112.10864806175232	
11	86.67953515052795	movie	1		245	9.0	2.5	/experiments/knapen_AOT/AOT_stimuli/rescaled_final/1727_fw.mp4	0.0	112.52517104148865	2.5003440380096436
11	87.86327505111694	pulse	1	t		9.0	2.5	/experiments/knapen_AOT/AOT_stimuli/rescaled_final/1727_fw.mp4	0.0	113.70891094207764	
11	89.1798791885376	fix_post	2		12	9.0	2.5	/experiments/knapen_AOT/AOT_stimuli/rescaled_final/1727_fw.mp4	0.0	115.02551507949829	0.10003185272216797
12	89.27991104125977	fix_pre	0		120	10.0	2.5	/experiments/knapen_AOT/AOT_stimuli/rescaled_final/0394_fw.mp4	0.0	115.12554693222046	1.0001709461212158
12	89.46342015266418	pulse	0	t		10.0	2.5	/experiments/knapen_AOT/AOT_stimuli/rescaled_final/0394_fw.mp4	0.0	115.30905604362488	
12	90.28008198738098	movie	1		244	10.0	2.5	/experiments/knapen_AOT/AOT_stimuli/rescaled_final/0394_fw.mp4	0.0	116.12571787834167	2.5004801750183105
12	91.06375408172607	pulse	1	t		10.0	2.5	/experiments/knapen_AOT/AOT_stimuli/rescaled_final/0394_fw.mp4	0.0	116.90938997268677	
12	92.66374397277832	pulse	1	t		10.0	2.5	/experiments/knapen_AOT/AOT_stimuli/rescaled_final/0394_fw.mp4	0.0	118.50937986373901	
12	92.78056216239929	fix_post	2		12	10.0	2.5	/experiments/knapen_AOT/AOT_stimuli/rescaled_final/0394_fw.mp4	0.0	118.62619805335999	0.09986186027526855
13	92.88042402267456	fix_pre	0		119	11.0	2.5	/experiments/knapen_AOT/AOT_stimuli/rescaled_final/0275_rv.mp4	0.0	118.72605991363525	0.9917969703674316
13	93.87222099304199	movie	1		239	11.0	2.5	/experiments/knapen_AOT/AOT_stimuli/rescaled_final/0275_rv.mp4	0.0	119.71785688400269	2.500420093536377
13	94.26440405845642	pulse	1	t		11.0	2.5	/experiments/knapen_AOT/AOT_stimuli/rescaled_final/0275_rv.mp4	0.0	120.11003994941711	
13	95.85710120201111	pulse	1	t		11.0	2.5	/experiments/knapen_AOT/AOT_stimuli/rescaled_final/0275_rv.mp4	0.0	121.7027370929718	
13	96.37264108657837	fix_post	2		12	11.0	2.5	/experiments/knapen_AOT/AOT_stimuli/rescaled_final/0275_rv.mp4	0.0	122.21827697753906	0.10000205039978027
14	96.47264313697815	fix_pre	0		120	12.0	2.5	/experiments/knapen_AOT/AOT_stimuli/rescaled_final/0656_rv.mp4	0.0	122.31827902793884	1.0001559257507324
14	97.45713114738464	pulse	0	t		12.0	2.5	/experiments/knapen_AOT/AOT_stimuli/rescaled_final/0656_rv.mp4	0.0	123.30276703834534	
14	97.47279906272888	movie	1		246	12.0	2.5	/experiments/knapen_AOT/AOT_stimuli/rescaled_final/0656_rv.mp4	0.0	123.31843495368958	2.50881290435791
14	99.06536817550659	pulse	1	t		12.0	2.5	/experiments/knapen_AOT/AOT_stimuli/rescaled_final/0656_rv.mp4	0.0	124.91100406646729	
14	99.98161196708679	fix_post	2		12	12.0	2.5	/experiments/knapen_AOT/AOT_stimuli/rescaled_final/0656_rv.mp4	0.0	125.82724785804749	0.09990215301513672
15	100.08151412010193	fix_pre	0		120	13.0	2.5	blank	1.0	125.92715001106262	1.0002059936523438
15	100.65766596794128	pulse	0	t		13.0	2.5	blank	1.0	126.50330185890198	
15	101.08172011375427	movie	1		300	13.0	2.5	blank	1.0	126.92735600471497	2.5003268718719482
15	102.25792598724365	pulse	1	t		13.0	2.5	blank	1.0	128.10356187820435	
15	103.58204698562622	fix_post	2		12	13.0	2.5	blank	1.0	129.4276828765869	0.10000920295715332
16	103.68205618858337	fix_pre	0		120	14.0	2.5	/experiments/knapen_AOT/AOT_stimuli/rescaled_final/0374_rv.mp4	0.0	129.52769207954407	1.0001299381256104
16	103.85745215415955	pulse	0	t		14.0	2.5	/experiments/knapen_AOT/AOT_stimuli/rescaled_final/0374_rv.mp4	0.0	129.70308804512024	
16	104.68218612670898	movie	1		246	14.0	2.5	/experiments/knapen_AOT/AOT_stimuli/rescaled_final/0374_rv.mp4	0.0	130.52782201766968	2.5005459785461426
16	105.45747303962708	pulse	1	t		14.0	2.5	/experiments/knapen_AOT/AOT_stimuli/rescaled_final/0374_rv.mp4	0.0	131.30310893058777	
16	107.05778813362122	pulse	1	t		14.0	2.5	/experiments/knapen_AOT/AOT_stimuli/rescaled_final/0374_rv.mp4	0.0	132.9034240245819	
16	107.18273210525513	fix_post	2		12	14.0	2.5	/experiments/knapen_AOT/AOT_stimuli/rescaled_final/0374_rv.mp4	0.0	133.02836799621582	0.09983491897583008
17	107.28256702423096	fix_pre	0		119	15.0	2.5	/experiments/knapen_AOT/AOT_stimuli/rescaled_final/0786_rv.mp4	0.0	133.12820291519165	0.9918539524078369
17	108.2744209766388	movie	1		245	15.0	2.5	/experiments/knapen_AOT/AOT_stimuli/rescaled_final/0786_rv.mp4	0.0	134.1200568675995	2.5003321170806885
17	108.65911102294922	pulse	1	t		15.0	2.5	/experiments/knapen_AOT/AOT_stimuli/rescaled_final/0786_rv.mp4	0.0	134.5047469139099	
17	110.25821805000305	pulse	1	t		15.0	2.5	/experiments/knapen_AOT/AOT_stimuli/rescaled_final/0786_rv.mp4	0.0	136.10385394096375	
17	110.77475309371948	fix_post	2		12	15.0	2.5	/experiments/knapen_AOT/AOT_stimuli/rescaled_final/0786_rv.mp4	0.0	136.62038898468018	0.10003209114074707
18	110.87478518486023	fix_pre	0		119	16.0	2.5	/experiments/knapen_AOT/AOT_stimuli/rescaled_final/0967_rv.mp4	0.0	136.72042107582092	0.9918458461761475
18	111.85845708847046	pulse	0	t		16.0	2.5	/experiments/knapen_AOT/AOT_stimuli/rescaled_final/0967_rv.mp4	0.0	137.70409297943115	
18	111.86663103103638	movie	1		247	16.0	2.5	/experiments/knapen_AOT/AOT_stimuli/rescaled_final/0967_rv.mp4	0.0	137.71226692199707	2.508650064468384
18	113.4592661857605	pulse	1	t		16.0	2.5	/experiments/knapen_AOT/AOT_stimuli/rescaled_final/0967_rv.mp4	0.0	139.3049020767212	
18	114.37528109550476	fix_post	2		12	16.0	2.5	/experiments/knapen_AOT/AOT_stimuli/rescaled_final/0967_rv.mp4	0.0	140.22091698646545	0.1000370979309082
19	114.47531819343567	fix_pre	0		120	17.0	2.5	/experiments/knapen_AOT/AOT_stimuli/rescaled_final/0968_rv.mp4	0.0	140.32095408439636	1.0001709461212158
19	115.05894207954407	pulse	0	t		17.0	2.5	/experiments/knapen_AOT/AOT_stimuli/rescaled_final/0968_rv.mp4	0.0	140.90457797050476	
19	115.47548913955688	movie	1		244	17.0	2.5	/experiments/knapen_AOT/AOT_stimuli/rescaled_final/0968_rv.mp4	0.0	141.32112503051758	2.5004289150238037
19	116.65933108329773	pulse	1	t		17.0	2.5	/experiments/knapen_AOT/AOT_stimuli/rescaled_final/0968_rv.mp4	0.0	142.50496697425842	
19	117.97591805458069	fix_post	2		12	17.0	2.5	/experiments/knapen_AOT/AOT_stimuli/rescaled_final/0968_rv.mp4	0.0	143.82155394554138	0.09995508193969727
20	118.07587313652039	fix_pre	0		120	18.0	2.5	/experiments/knapen_AOT/AOT_stimuli/rescaled_final/0374_rv.mp4	0.0	143.92150902748108	1.0001609325408936
20	118.25940012931824	pulse	0	t		18.0	2.5	/experiments/knapen_AOT/AOT_stimuli/rescaled_final/0374_rv.mp4	0.0	144.10503602027893	
20	119.07603406906128	movie	1		245	18.0	2.5	/experiments/knapen_AOT/AOT_stimuli/rescaled_final/0374_rv.mp4	0.0	144.92166996002197	2.5003910064697266
20	119.85977697372437	pulse	1	t		18.0	2.5	/experiments/knapen_AOT/AOT_stimuli/rescaled_final/0374_rv.mp4	0.0	145.70541286468506	
20	121.45743608474731	pulse	1	t		18.0	2.5	/experiments/knapen_AOT/AOT_stimuli/rescaled_final/0374_rv.mp4	0.0	147.303071975708	
20	121.576425075531	fix_post	2		12	18.0	2.5	/experiments/knapen_AOT/AOT_stimuli/rescaled_final/0374_rv.mp4	0.0	147.4220609664917	0.09998297691345215
21	121.67640805244446	fix_pre	0		120	19.0	2.5	/experiments/knapen_AOT/AOT_stimuli/rescaled_final/0147_rv.mp4	0.0	147.52204394340515	1.0001461505889893
21	122.67655420303345	movie	1		244	19.0	2.5	/experiments/knapen_AOT/AOT_stimuli/rescaled_final/0147_rv.mp4	0.0	148.52219009399414	2.4921767711639404
21	123.0607430934906	pulse	1	t		19.0	2.5	/experiments/knapen_AOT/AOT_stimuli/rescaled_final/0147_rv.mp4	0.0	148.9063789844513	
21	124.66035509109497	pulse	1	t		19.0	2.5	/experiments/knapen_AOT/AOT_stimuli/rescaled_final/0147_rv.mp4	0.0	150.50599098205566	
21	125.16873097419739	fix_post	2		12	19.0	2.5	/experiments/knapen_AOT/AOT_stimuli/rescaled_final/0147_rv.mp4	0.0	151.01436686515808	0.09989118576049805
22	125.26862215995789	fix_pre	0		120	20.0	2.5	blank	1.0	151.11425805091858	1.0001578330993652
22	126.2606930732727	pulse	0	t		20.0	2.5	blank	1.0	152.1063289642334	
22	126.26877999305725	movie	1		301	20.0	2.5	blank	1.0	152.11441588401794	2.508740186691284
22	127.86090207099915	pulse	1	t		20.0	2.5	blank	1.0	153.70653796195984	
22	128.77752017974854	fix_post	2		12	20.0	2.5	blank	1.0	154.62315607070923	0.09993886947631836
23	128.87745904922485	fix_pre	0		120	21.0	2.5	/experiments/knapen_AOT/AOT_stimuli/rescaled_final/1269_rv.mp4	0.0	154.72309494018555	1.0002400875091553
23	129.46120500564575	pulse	0	t		21.0	2.5	/experiments/knapen_AOT/AOT_stimuli/rescaled_final/1269_rv.mp4	0.0	155.30684089660645	
23	129.877699136734	movie	1		245	21.0	2.5	/experiments/knapen_AOT/AOT_stimuli/rescaled_final/1269_rv.mp4	0.0	155.7233350276947	2.5003130435943604
23	131.06141209602356	pulse	1	t		21.0	2.5	/experiments/knapen_AOT/AOT_stimuli/rescaled_final/1269_rv.mp4	0.0	156.90704798698425	
23	132.37801218032837	fix_post	2		12	21.0	2.5	/experiments/knapen_AOT/AOT_stimuli/rescaled_final/1269_rv.mp4	0.0	158.22364807128906	0.09998488426208496
24	132.47799706459045	fix_pre	0		120	22.0	2.5	/experiments/knapen_AOT/AOT_stimuli/rescaled_final/0465_rv.mp4	0.0	158.32363295555115	1.000157117843628
24	132.6616141796112	pulse	0	t		22.0	2.5	/experiments/knapen_AOT/AOT_stimuli/rescaled_final/0465_rv.mp4	0.0	158.5072500705719	
24	133.47815418243408	movie	1		245	22.0	2.5	/experiments/knapen_AOT/AOT_stimuli/rescaled_final/0465_rv.mp4	0.0	159.32379007339478	2.500548839569092
24	134.26195812225342	pulse	1	t		22.0	2.5	/experiments/knapen_AOT/AOT_stimuli/rescaled_final/0465_rv.mp4	0.0	160.1075940132141	
24	135.86215901374817	pulse	1	t		22.0	2.5	/experiments/knapen_AOT/AOT_stimuli/rescaled_final/0465_rv.mp4	0.0	161.70779490470886	
24	135.97870302200317	fix_post	2		12	22.0	2.5	/experiments/knapen_AOT/AOT_stimuli/rescaled_final/0465_rv.mp4	0.0	161.82433891296387	0.0998530387878418
25	136.07855606079102	fix_pre	0		120	23.0	2.5	/experiments/knapen_AOT/AOT_stimuli/rescaled_final/1826_fw.mp4	0.0	161.9241919517517	1.0001540184020996
25	137.07871007919312	movie	1		245	23.0	2.5	/experiments/knapen_AOT/AOT_stimuli/rescaled_final/1826_fw.mp4	0.0	162.9243459701538	2.49202299118042
25	137.4637041091919	pulse	1	t		23.0	2.5	/experiments/knapen_AOT/AOT_stimuli/rescaled_final/1826_fw.mp4	0.0	163.3093400001526	
25	139.06261205673218	pulse	1	t		23.0	2.5	/experiments/knapen_AOT/AOT_stimuli/rescaled_final/1826_fw.mp4	0.0	164.90824794769287	
25	139.57073307037354	fix_post	2		12	23.0	2.5	/experiments/knapen_AOT/AOT_stimuli/rescaled_final/1826_fw.mp4	0.0	165.41636896133423	0.10002899169921875
26	139.67076206207275	fix_pre	0		120	24.0	2.5	/experiments/knapen_AOT/AOT_stimuli/rescaled_final/0490_rv.mp4	0.0	165.51639795303345	1.000133991241455
26	140.66289401054382	pulse	0	t		24.0	2.5	/experiments/knapen_AOT/AOT_stimuli/rescaled_final/0490_rv.mp4	0.0	166.50852990150452	
26	140.6708960533142	movie	1		247	24.0	2.5	/experiments/knapen_AOT/AOT_stimuli/rescaled_final/0490_rv.mp4	0.0	166.5165319442749	2.508734941482544
26	142.2636570930481	pulse	1	t		24.0	2.5	/experiments/knapen_AOT/AOT_stimuli/rescaled_final/0490_rv.mp4	0.0	168.1092929840088	
26	143.17963099479675	fix_post	2		12	24.0	2.5	/experiments/knapen_AOT/AOT_stimuli/rescaled_final/0490_rv.mp4	0.0	169.02526688575745	0.10000109672546387
27	143.27963209152222	fix_pre	0		120	25.0	2.5	/experiments/knapen_AOT/AOT_stimuli/rescaled_final/0568_rv.mp4	0.0	169.1252679824829	1.0001258850097656
27	143.8632709980011	pulse	0	t		25.0	2.5	/experiments/knapen_AOT/AOT_stimuli/rescaled_final/0568_rv.mp4	0.0	169.7089068889618	
27	144.27975797653198	movie	1		245	25.0	2.5	/experiments/knapen_AOT/AOT_stimuli/rescaled_final/0568_rv.mp4	0.0	170.12539386749268	2.5003790855407715
27	145.46360516548157	pulse	1	t		25.0	2.5	/experiments/knapen_AOT/AOT_stimuli/rescaled_final/0568_rv.mp4	0.0	171.30924105644226	
27	146.78013706207275	fix_post	2		12	25.0	2.5	/experiments/knapen_AOT/AOT_stimuli/rescaled_final/0568_rv.mp4	0.0	172.62577295303345	0.1000070571899414
28	146.8801441192627	fix_pre	0		120	26.0	2.5	blank	1.0	172.7257800102234	1.0001749992370605
28	147.0638120174408	pulse	0	t		26.0	2.5	blank	1.0	172.9094479084015	
28	147.88031911849976	movie	1		300	26.0	2.5	blank	1.0	173.72595500946045	2.500417947769165
28	148.6640110015869	pulse	1	t		26.0	2.5	blank	1.0	174.5096468925476	
28	150.26417303085327	pulse	1	t		26.0	2.5	blank	1.0	176.10980892181396	
28	150.38073706626892	fix_post	2		12	26.0	2.5	blank	1.0	176.22637295722961	0.09999990463256836
29	150.4807369709015	fix_pre	0		120	27.0	2.5	/experiments/knapen_AOT/AOT_stimuli/rescaled_final/0973_fw.mp4	0.0	176.32637286186218	1.000087022781372
29	151.48082399368286	movie	1		245	27.0	2.5	/experiments/knapen_AOT/AOT_stimuli/rescaled_final/0973_fw.mp4	0.0	177.32645988464355	2.4920501708984375
29	151.86497902870178	pulse	1	t		27.0	2.5	/experiments/knapen_AOT/AOT_stimuli/rescaled_final/0973_fw.mp4	0.0	177.71061491966248	
29	153.46484899520874	pulse	1	t		27.0	2.5	/experiments/knapen_AOT/AOT_stimuli/rescaled_final/0973_fw.mp4	0.0	179.31048488616943	
29	153.9728741645813	fix_post	2		12	27.0	2.5	/experiments/knapen_AOT/AOT_stimuli/rescaled_final/0973_fw.mp4	0.0	179.818510055542	0.10005402565002441
30	154.07292819023132	fix_pre	0		120	28.0	2.5	/experiments/knapen_AOT/AOT_stimuli/rescaled_final/0431_rv.mp4	0.0	179.91856408119202	1.0001368522644043
30	155.06504702568054	pulse	0	t		28.0	2.5	/experiments/knapen_AOT/AOT_stimuli/rescaled_final/0431_rv.mp4	0.0	180.91068291664124	
30	155.07306504249573	movie	1		247	28.0	2.5	/experiments/knapen_AOT/AOT_stimuli/rescaled_final/0431_rv.mp4	0.0	180.91870093345642	2.5087969303131104
30	156.6654031276703	pulse	1	t		28.0	2.5	/experiments/knapen_AOT/AOT_stimuli/rescaled_final/0431_rv.mp4	0.0	182.51103901863098	
30	157.58186197280884	fix_post	2		12	28.0	2.5	/experiments/knapen_AOT/AOT_stimuli/rescaled_final/0431_rv.mp4	0.0	183.42749786376953	0.09992313385009766
31	157.68178510665894	fix_pre	0		120	29.0	2.5	/experiments/knapen_AOT/AOT_stimuli/rescaled_final/1852_fw.mp4	0.0	183.52742099761963	1.0001580715179443
31	158.25789213180542	pulse	0	t		29.0	2.5	/experiments/knapen_AOT/AOT_stimuli/rescaled_final/1852_fw.mp4	0.0	184.1035280227661	
31	158.68194317817688	movie	1		246	29.0	2.5	/experiments/knapen_AOT/AOT_stimuli/rescaled_final/1852_fw.mp4	0.0	184.52757906913757	2.500473976135254
31	159.8584179878235	pulse	1	t		29.0	2.5	/experiments/knapen_AOT/AOT_stimuli/rescaled_final/1852_fw.mp4	0.0	185.70405387878418	
31	161.18241715431213	fix_post	2		12	29.0	2.5	/experiments/knapen_AOT/AOT_stimuli/rescaled_final/1852_fw.mp4	0.0	187.02805304527283	0.10080599784851074
32	161.28322315216064	fix_pre	0		116	30.0	2.5	/experiments/knapen_AOT/AOT_stimuli/rescaled_final/0600_fw.mp4	0.0	187.12885904312134	0.9992678165435791
32	161.45756101608276	pulse	0	t		30.0	2.5	/experiments/knapen_AOT/AOT_stimuli/rescaled_final/0600_fw.mp4	0.0	187.30319690704346	
32	162.28249096870422	movie	1		247	30.0	2.5	/experiments/knapen_AOT/AOT_stimuli/rescaled_final/0600_fw.mp4	0.0	188.12812685966492	2.5003490447998047
32	163.05788111686707	pulse	1	t		30.0	2.5	/experiments/knapen_AOT/AOT_stimuli/rescaled_final/0600_fw.mp4	0.0	188.90351700782776	
32	164.65814805030823	pulse	1	t		30.0	2.5	/experiments/knapen_AOT/AOT_stimuli/rescaled_final/0600_fw.mp4	0.0	190.50378394126892	
32	164.78284001350403	fix_post	2		12	30.0	2.5	/experiments/knapen_AOT/AOT_stimuli/rescaled_final/0600_fw.mp4	0.0	190.62847590446472	0.10003399848937988
33	164.8828740119934	fix_pre	0		120	31.0	2.5	/experiments/knapen_AOT/AOT_stimuli/rescaled_final/0753_rv.mp4	0.0	190.7285099029541	1.0001800060272217
33	165.88305401802063	movie	1		246	31.0	2.5	/experiments/knapen_AOT/AOT_stimuli/rescaled_final/0753_rv.mp4	0.0	191.72868990898132	2.49198317527771
33	166.25825214385986	pulse	1	t		31.0	2.5	/experiments/knapen_AOT/AOT_stimuli/rescaled_final/0753_rv.mp4	0.0	192.10388803482056	
33	167.85856699943542	pulse	1	t		31.0	2.5	/experiments/knapen_AOT/AOT_stimuli/rescaled_final/0753_rv.mp4	0.0	193.70420289039612	
33	168.37503719329834	fix_post	2		12	31.0	2.5	/experiments/knapen_AOT/AOT_stimuli/rescaled_final/0753_rv.mp4	0.0	194.22067308425903	0.10001587867736816
34	168.4750530719757	fix_pre	0		119	32.0	2.5	/experiments/knapen_AOT/AOT_stimuli/rescaled_final/0219_fw.mp4	0.0	194.3206889629364	0.9918439388275146
34	169.45886707305908	pulse	0	t		32.0	2.5	/experiments/knapen_AOT/AOT_stimuli/rescaled_final/0219_fw.mp4	0.0	195.30450296401978	
34	169.46689701080322	movie	1		246	32.0	2.5	/experiments/knapen_AOT/AOT_stimuli/rescaled_final/0219_fw.mp4	0.0	195.31253290176392	2.5086371898651123
34	171.05946707725525	pulse	1	t		32.0	2.5	/experiments/knapen_AOT/AOT_stimuli/rescaled_final/0219_fw.mp4	0.0	196.90510296821594	
34	171.97553420066833	fix_post	2		12	32.0	2.5	/experiments/knapen_AOT/AOT_stimuli/rescaled_final/0219_fw.mp4	0.0	197.82117009162903	0.10006594657897949
35	172.07560014724731	fix_pre	0		120	33.0	2.5	blank	1.0	197.921236038208	1.0001988410949707
35	172.65923810005188	pulse	0	t		33.0	2.5	blank	1.0	198.50487399101257	
35	173.07579898834229	movie	1		300	33.0	2.5	blank	1.0	198.92143487930298	2.5003411769866943
35	174.25945115089417	pulse	1	t		33.0	2.5	blank	1.0	200.10508704185486	
35	175.57614016532898	fix_post	2		12	33.0	2.5	blank	1.0	201.42177605628967	0.09999489784240723
36	175.6761350631714	fix_pre	0		120	34.0	2.5	/experiments/knapen_AOT/AOT_stimuli/rescaled_final/2145_fw.mp4	0.0	201.52177095413208	1.000180959701538
36	175.85980606079102	pulse	0	t		34.0	2.5	/experiments/knapen_AOT/AOT_stimuli/rescaled_final/2145_fw.mp4	0.0	201.7054419517517	
36	176.67631602287292	movie	1		245	34.0	2.5	/experiments/knapen_AOT/AOT_stimuli/rescaled_final/2145_fw.mp4	0.0	202.52195191383362	2.500430107116699
36	177.46006512641907	pulse	1	t		34.0	2.5	/experiments/knapen_AOT/AOT_stimuli/rescaled_final/2145_fw.mp4	0.0	203.30570101737976	
36	179.06028199195862	pulse	1	t		34.0	2.5	/experiments/knapen_AOT/AOT_stimuli/rescaled_final/2145_fw.mp4	0.0	204.9059178829193	
36	179.17674612998962	fix_post	2		12	34.0	2.5	/experiments/knapen_AOT/AOT_stimuli/rescaled_final/2145_fw.mp4	0.0	205.02238202095032	0.09991598129272461
37	179.27666211128235	fix_pre	0		120	35.0	2.5	/experiments/knapen_AOT/AOT_stimuli/rescaled_final/0848_fw.mp4	0.0	205.12229800224304	1.000180959701538
37	180.2768430709839	movie	1		245	35.0	2.5	/experiments/knapen_AOT/AOT_stimuli/rescaled_final/0848_fw.mp4	0.0	206.12247896194458	2.492159128189087
37	180.66085600852966	pulse	1	t		35.0	2.5	/experiments/knapen_AOT/AOT_stimuli/rescaled_final/0848_fw.mp4	0.0	206.50649189949036	
37	182.26074409484863	pulse	1	t		35.0	2.5	/experiments/knapen_AOT/AOT_stimuli/rescaled_final/0848_fw.mp4	0.0	208.10637998580933	
37	182.76900219917297	fix_post	2		12	35.0	2.5	/experiments/knapen_AOT/AOT_stimuli/rescaled_final/0848_fw.mp4	0.0	208.61463809013367	0.0998678207397461
38	182.86887001991272	fix_pre	0		120	36.0	2.5	/experiments/knapen_AOT/AOT_stimuli/rescaled_final/0479_rv.mp4	0.0	208.7145059108734	1.0002341270446777
38	183.86100816726685	pulse	0	t		36.0	2.5	/experiments/knapen_AOT/AOT_stimuli/rescaled_final/0479_rv.mp4	0.0	209.70664405822754	
38	183.8691041469574	movie	1		246	36.0	2.5	/experiments/knapen_AOT/AOT_stimuli/rescaled_final/0479_rv.mp4	0.0	209.7147400379181	2.508657932281494
38	185.4647181034088	pulse	1	t		36.0	2.5	/experiments/knapen_AOT/AOT_stimuli/rescaled_final/0479_rv.mp4	0.0	211.3103539943695	
38	186.3777620792389	fix_post	2		12	36.0	2.5	/experiments/knapen_AOT/AOT_stimuli/rescaled_final/0479_rv.mp4	0.0	212.22339797019958	0.09996604919433594
39	186.47772812843323	fix_pre	0		120	37.0	2.5	/experiments/knapen_AOT/AOT_stimuli/rescaled_final/1806_rv.mp4	0.0	212.32336401939392	1.0002310276031494
39	187.06131505966187	pulse	0	t		37.0	2.5	/experiments/knapen_AOT/AOT_stimuli/rescaled_final/1806_rv.mp4	0.0	212.90695095062256	
39	187.47795915603638	movie	1		245	37.0	2.5	/experiments/knapen_AOT/AOT_stimuli/rescaled_final/1806_rv.mp4	0.0	213.32359504699707	2.5002880096435547
39	188.66171216964722	pulse	1	t		37.0	2.5	/experiments/knapen_AOT/AOT_stimuli/rescaled_final/1806_rv.mp4	0.0	214.5073480606079	
39	189.97824716567993	fix_post	2		12	37.0	2.5	/experiments/knapen_AOT/AOT_stimuli/rescaled_final/1806_rv.mp4	0.0	215.82388305664062	0.10003900527954102
40	190.07828617095947	fix_pre	0		120	38.0	2.5	/experiments/knapen_AOT/AOT_stimuli/rescaled_final/2099_rv.mp4	0.0	215.92392206192017	1.0001749992370605
40	190.26185607910156	pulse	0	t		38.0	2.5	/experiments/knapen_AOT/AOT_stimuli/rescaled_final/2099_rv.mp4	0.0	216.10749197006226	
40	191.07846117019653	movie	1		245	38.0	2.5	/experiments/knapen_AOT/AOT_stimuli/rescaled_final/2099_rv.mp4	0.0	216.92409706115723	2.5003409385681152
40	191.8622841835022	pulse	1	t		38.0	2.5	/experiments/knapen_AOT/AOT_stimuli/rescaled_final/2099_rv.mp4	0.0	217.7079200744629	
40	193.46234107017517	pulse	1	t		38.0	2.5	/experiments/knapen_AOT/AOT_stimuli/rescaled_final/2099_rv.mp4	0.0	219.30797696113586	
40	193.57880210876465	fix_post	2		12	38.0	2.5	/experiments/knapen_AOT/AOT_stimuli/rescaled_final/2099_rv.mp4	0.0	219.42443799972534	0.10003304481506348
41	193.6788351535797	fix_pre	0		120	39.0	2.5	/experiments/knapen_AOT/AOT_stimuli/rescaled_final/1275_rv.mp4	0.0	219.5244710445404	1.0001299381256104
41	194.67896509170532	movie	1		245	39.0	2.5	/experiments/knapen_AOT/AOT_stimuli/rescaled_final/1275_rv.mp4	0.0	220.52460098266602	2.492042064666748
41	195.06307315826416	pulse	1	t		39.0	2.5	/experiments/knapen_AOT/AOT_stimuli/rescaled_final/1275_rv.mp4	0.0	220.90870904922485	
41	196.66292309761047	pulse	1	t		39.0	2.5	/experiments/knapen_AOT/AOT_stimuli/rescaled_final/1275_rv.mp4	0.0	222.50855898857117	
41	197.17100715637207	fix_post	2		12	39.0	2.5	/experiments/knapen_AOT/AOT_stimuli/rescaled_final/1275_rv.mp4	0.0	223.01664304733276	0.10003185272216797
42	197.27103900909424	fix_pre	0		120	40.0	2.5	blank	1.0	223.11667490005493	1.000180959701538
42	198.2631549835205	pulse	0	t		40.0	2.5	blank	1.0	224.1087908744812	
42	198.27121996879578	movie	1		301	40.0	2.5	blank	1.0	224.11685585975647	2.5086781978607178
42	199.86327004432678	pulse	1	t		40.0	2.5	blank	1.0	225.70890593528748	
42	200.7798981666565	fix_post	2		12	40.0	2.5	blank	1.0	226.6255340576172	0.1000359058380127
43	200.8799340724945	fix_pre	0		120	41.0	2.5	/experiments/knapen_AOT/AOT_stimuli/rescaled_final/0406_fw.mp4	0.0	226.7255699634552	1.0001280307769775
43	201.46351408958435	pulse	0	t		41.0	2.5	/experiments/knapen_AOT/AOT_stimuli/rescaled_final/0406_fw.mp4	0.0	227.30914998054504	
43	201.88006210327148	movie	1		245	41.0	2.5	/experiments/knapen_AOT/AOT_stimuli/rescaled_final/0406_fw.mp4	0.0	227.72569799423218	2.5003180503845215
43	203.06381702423096	pulse	1	t		41.0	2.5	/experiments/knapen_AOT/AOT_stimuli/rescaled_final/0406_fw.mp4	0.0	228.90945291519165	
43	204.380380153656	fix_post	2		12	41.0	2.5	/experiments/knapen_AOT/AOT_stimuli/rescaled_final/0406_fw.mp4	0.0	230.2260160446167	0.10005497932434082
44	204.48043513298035	fix_pre	0		120	42.0	2.5	/experiments/knapen_AOT/AOT_stimuli/rescaled_final/0655_rv.mp4	0.0	230.32607102394104	1.0001568794250488
44	204.66412806510925	pulse	0	t		42.0	2.5	/experiments/knapen_AOT/AOT_stimuli/rescaled_final/0655_rv.mp4	0.0	230.50976395606995	
44	205.4805920124054	movie	1		246	42.0	2.5	/experiments/knapen_AOT/AOT_stimuli/rescaled_final/0655_rv.mp4	0.0	231.3262279033661	2.500352144241333
44	206.26432704925537	pulse	1	t		42.0	2.5	/experiments/knapen_AOT/AOT_stimuli/rescaled_final/0655_rv.mp4	0.0	232.10996294021606	
44	207.8644781112671	pulse	1	t		42.0	2.5	/experiments/knapen_AOT/AOT_stimuli/rescaled_final/0655_rv.mp4	0.0	233.71011400222778	
44	207.98094415664673	fix_post	2		12	42.0	2.5	/experiments/knapen_AOT/AOT_stimuli/rescaled_final/0655_rv.mp4	0.0	233.82658004760742	0.10005402565002441
45	208.08099818229675	fix_pre	0		120	43.0	2.5	/experiments/knapen_AOT/AOT_stimuli/rescaled_final/0614_rv.mp4	0.0	233.92663407325745	1.0001258850097656
45	209.08112406730652	movie	1		245	43.0	2.5	/experiments/knapen_AOT/AOT_stimuli/rescaled_final/0614_rv.mp4	0.0	234.9267599582672	2.4920120239257812
45	209.4661340713501	pulse	1	t		43.0	2.5	/experiments/knapen_AOT/AOT_stimuli/rescaled_final/0614_rv.mp4	0.0	235.3117699623108	
45	211.05767703056335	pulse	1	t		43.0	2.5	/experiments/knapen_AOT/AOT_stimuli/rescaled_final/0614_rv.mp4	0.0	236.90331292152405	
45	211.5731360912323	fix_post	2		12	43.0	2.5	/experiments/knapen_AOT/AOT_stimuli/rescaled_final/0614_rv.mp4	0.0	237.418771982193	0.10002803802490234
46	211.6731641292572	fix_pre	0		120	44.0	2.5	/experiments/knapen_AOT/AOT_stimuli/rescaled_final/1442_rv.mp4	0.0	237.5188000202179	1.0001819133758545
46	212.65765500068665	pulse	0	t		44.0	2.5	/experiments/knapen_AOT/AOT_stimuli/rescaled_final/1442_rv.mp4	0.0	238.50329089164734	
46	212.67334604263306	movie	1		246	44.0	2.5	/experiments/knapen_AOT/AOT_stimuli/rescaled_final/1442_rv.mp4	0.0	238.51898193359375	2.508831024169922
46	214.26670503616333	pulse	1	t		44.0	2.5	/experiments/knapen_AOT/AOT_stimuli/rescaled_final/1442_rv.mp4	0.0	240.11234092712402	
46	215.18217706680298	fix_post	2		12	44.0	2.5	/experiments/knapen_AOT/AOT_stimuli/rescaled_final/1442_rv.mp4	0.0	241.02781295776367	0.0998849868774414
47	215.28206205368042	fix_pre	0		120	45.0	2.5	/experiments/knapen_AOT/AOT_stimuli/rescaled_final/0177_rv.mp4	0.0	241.1276979446411	1.0002329349517822
47	215.85824012756348	pulse	0	t		45.0	2.5	/experiments/knapen_AOT/AOT_stimuli/rescaled_final/0177_rv.mp4	0.0	241.70387601852417	
47	216.2822949886322	movie	1		246	45.0	2.5	/experiments/knapen_AOT/AOT_stimuli/rescaled_final/0177_rv.mp4	0.0	242.1279308795929	2.5002381801605225
47	217.46204900741577	pulse	1	t		45.0	2.5	/experiments/knapen_AOT/AOT_stimuli/rescaled_final/0177_rv.mp4	0.0	243.30768489837646	
47	218.78253316879272	fix_post	2		12	45.0	2.5	/experiments/knapen_AOT/AOT_stimuli/rescaled_final/0177_rv.mp4	0.0	244.62816905975342	0.10005402565002441
48	218.88258719444275	fix_pre	0		120	46.0	2.5	/experiments/knapen_AOT/AOT_stimuli/rescaled_final/0245_rv.mp4	0.0	244.72822308540344	1.0001428127288818
48	219.0577449798584	pulse	0	t		46.0	2.5	/experiments/knapen_AOT/AOT_stimuli/rescaled_final/0245_rv.mp4	0.0	244.9033808708191	
48	219.88273000717163	movie	1		246	46.0	2.5	/experiments/knapen_AOT/AOT_stimuli/rescaled_final/0245_rv.mp4	0.0	245.72836589813232	2.500441074371338
48	220.6580011844635	pulse	1	t		46.0	2.5	/experiments/knapen_AOT/AOT_stimuli/rescaled_final/0245_rv.mp4	0.0	246.5036370754242	
48	222.25833201408386	pulse	1	t		46.0	2.5	/experiments/knapen_AOT/AOT_stimuli/rescaled_final/0245_rv.mp4	0.0	248.10396790504456	
48	222.38317108154297	fix_post	2		12	46.0	2.5	/experiments/knapen_AOT/AOT_stimuli/rescaled_final/0245_rv.mp4	0.0	248.22880697250366	0.09993100166320801
49	222.48310208320618	fix_pre	0		119	47.0	2.5	/experiments/knapen_AOT/AOT_stimuli/rescaled_final/0395_fw.mp4	0.0	248.32873797416687	0.9918310642242432
49	223.47493314743042	movie	1		244	47.0	2.5	/experiments/knapen_AOT/AOT_stimuli/rescaled_final/0395_fw.mp4	0.0	249.3205690383911	2.5004169940948486
49	223.859069108963	pulse	1	t		47.0	2.5	/experiments/knapen_AOT/AOT_stimuli/rescaled_final/0395_fw.mp4	0.0	249.7047049999237	
49	225.45905709266663	pulse	1	t		47.0	2.5	/experiments/knapen_AOT/AOT_stimuli/rescaled_final/0395_fw.mp4	0.0	251.30469298362732	
49	225.97535014152527	fix_post	2		12	47.0	2.5	/experiments/knapen_AOT/AOT_stimuli/rescaled_final/0395_fw.mp4	0.0	251.82098603248596	0.09998893737792969
50	226.0753390789032	fix_pre	0		119	48.0	2.5	blank	1.0	251.9209749698639	0.9918210506439209
50	227.0589611530304	pulse	0	t		48.0	2.5	blank	1.0	252.9045970439911	
50	227.06716012954712	movie	1		301	48.0	2.5	blank	1.0	252.9127960205078	2.5086729526519775
50	228.6591820716858	pulse	1	t		48.0	2.5	blank	1.0	254.50481796264648	
50	229.5758330821991	fix_post	2		12	48.0	2.5	blank	1.0	255.4214689731598	0.10007190704345703
51	229.67590498924255	fix_pre	0		120	49.0	2.5	/experiments/knapen_AOT/AOT_stimuli/rescaled_final/0070_rv.mp4	0.0	255.52154088020325	1.0002021789550781
51	230.2594861984253	pulse	0	t		49.0	2.5	/experiments/knapen_AOT/AOT_stimuli/rescaled_final/0070_rv.mp4	0.0	256.105122089386	
51	230.67610716819763	movie	1		247	49.0	2.5	/experiments/knapen_AOT/AOT_stimuli/rescaled_final/0070_rv.mp4	0.0	256.5217430591583	2.5003809928894043
51	231.85991501808167	pulse	1	t		49.0	2.5	/experiments/knapen_AOT/AOT_stimuli/rescaled_final/0070_rv.mp4	0.0	257.70555090904236	
51	233.17648816108704	fix_post	2		12	49.0	2.5	/experiments/knapen_AOT/AOT_stimuli/rescaled_final/0070_rv.mp4	0.0	259.02212405204773	0.09998488426208496
52	233.27647304534912	fix_pre	0		120	50.0	2.5	/experiments/knapen_AOT/AOT_stimuli/rescaled_final/0179_fw.mp4	0.0	259.1221089363098	1.0000801086425781
52	233.46003317832947	pulse	0	t		50.0	2.5	/experiments/knapen_AOT/AOT_stimuli/rescaled_final/0179_fw.mp4	0.0	259.30566906929016	
52	234.2765531539917	movie	1		245	50.0	2.5	/experiments/knapen_AOT/AOT_stimuli/rescaled_final/0179_fw.mp4	0.0	260.1221890449524	2.50034499168396
52	235.06018114089966	pulse	1	t		50.0	2.5	/experiments/knapen_AOT/AOT_stimuli/rescaled_final/0179_fw.mp4	0.0	260.90581703186035	
52	236.66040802001953	pulse	1	t		50.0	2.5	/experiments/knapen_AOT/AOT_stimuli/rescaled_final/0179_fw.mp4	0.0	262.5060439109802	
52	236.77689814567566	fix_post	2		12	50.0	2.5	/experiments/knapen_AOT/AOT_stimuli/rescaled_final/0179_fw.mp4	0.0	262.62253403663635	0.10004496574401855
53	236.87694311141968	fix_pre	0		120	51.0	2.5	/experiments/knapen_AOT/AOT_stimuli/rescaled_final/0320_fw.mp4	0.0	262.72257900238037	1.0001769065856934
53	237.87712001800537	movie	1		244	51.0	2.5	/experiments/knapen_AOT/AOT_stimuli/rescaled_final/0320_fw.mp4	0.0	263.72275590896606	2.4921441078186035
53	238.2611231803894	pulse	1	t		51.0	2.5	/experiments/knapen_AOT/AOT_stimuli/rescaled_final/0320_fw.mp4	0.0	264.1067590713501	
53	239.86117100715637	pulse	1	t		51.0	2.5	/experiments/knapen_AOT/AOT_stimuli/rescaled_final/0320_fw.mp4	0.0	265.70680689811707	
53	240.36926412582397	fix_post	2		12	51.0	2.5	/experiments/knapen_AOT/AOT_stimuli/rescaled_final/0320_fw.mp4	0.0	266.21490001678467	0.09986686706542969
54	240.4691309928894	fix_pre	0		120	52.0	2.5	/experiments/knapen_AOT/AOT_stimuli/rescaled_final/0047_rv.mp4	0.0	266.3147668838501	1.0001981258392334
54	241.46113300323486	pulse	0	t		52.0	2.5	/experiments/knapen_AOT/AOT_stimuli/rescaled_final/0047_rv.mp4	0.0	267.30676889419556	
54	241.46932911872864	movie	1		245	52.0	2.5	/experiments/knapen_AOT/AOT_stimuli/rescaled_final/0047_rv.mp4	0.0	267.31496500968933	2.5087058544158936
54	243.0619080066681	pulse	1	t		52.0	2.5	/experiments/knapen_AOT/AOT_stimuli/rescaled_final/0047_rv.mp4	0.0	268.9075438976288	
54	243.97803497314453	fix_post	2		12	52.0	2.5	/experiments/knapen_AOT/AOT_stimuli/rescaled_final/0047_rv.mp4	0.0	269.8236708641052	0.10000300407409668
55	244.07803797721863	fix_pre	0		120	53.0	2.5	/experiments/knapen_AOT/AOT_stimuli/rescaled_final/0725_rv.mp4	0.0	269.9236738681793	1.0001320838928223
55	244.66178703308105	pulse	0	t		53.0	2.5	/experiments/knapen_AOT/AOT_stimuli/rescaled_final/0725_rv.mp4	0.0	270.50742292404175	
55	245.07817006111145	movie	1		247	53.0	2.5	/experiments/knapen_AOT/AOT_stimuli/rescaled_final/0725_rv.mp4	0.0	270.92380595207214	2.5003581047058105
55	246.26203513145447	pulse	1	t		53.0	2.5	/experiments/knapen_AOT/AOT_stimuli/rescaled_final/0725_rv.mp4	0.0	272.10767102241516	
55	247.57852816581726	fix_post	2		12	53.0	2.5	/experiments/knapen_AOT/AOT_stimuli/rescaled_final/0725_rv.mp4	0.0	273.42416405677795	0.1000068187713623
56	247.67853498458862	fix_pre	0		120	54.0	2.5	/experiments/knapen_AOT/AOT_stimuli/rescaled_final/1538_fw.mp4	0.0	273.5241708755493	1.0001521110534668
56	247.8622031211853	pulse	0	t		54.0	2.5	/experiments/knapen_AOT/AOT_stimuli/rescaled_final/1538_fw.mp4	0.0	273.707839012146	
56	248.6786870956421	movie	1		245	54.0	2.5	/experiments/knapen_AOT/AOT_stimuli/rescaled_final/1538_fw.mp4	0.0	274.5243229866028	2.5004119873046875
56	249.4623601436615	pulse	1	t		54.0	2.5	/experiments/knapen_AOT/AOT_stimuli/rescaled_final/1538_fw.mp4	0.0	275.3079960346222	
56	251.06269001960754	pulse	1	t		54.0	2.5	/experiments/knapen_AOT/AOT_stimuli/rescaled_final/1538_fw.mp4	0.0	276.90832591056824	
56	251.17909908294678	fix_post	2		11	54.0	2.5	/experiments/knapen_AOT/AOT_stimuli/rescaled_final/1538_fw.mp4	0.0	277.02473497390747	0.09170389175415039
57	251.27080297470093	fix_pre	0		120	55.0	2.5	blank	1.0	277.1164388656616	1.0001142024993896
57	252.27091717720032	movie	1		300	55.0	2.5	blank	1.0	278.116553068161	2.500401020050049
57	252.66298508644104	pulse	1	t		55.0	2.5	blank	1.0	278.50862097740173	
57	254.2630660533905	pulse	1	t		55.0	2.5	blank	1.0	280.1087019443512	
57	254.77131819725037	fix_post	2		12	55.0	2.5	blank	1.0	280.61695408821106	0.09999299049377441
58	254.87131118774414	fix_pre	0		120	56.0	2.5	/experiments/knapen_AOT/AOT_stimuli/rescaled_final/0669_rv.mp4	0.0	280.71694707870483	1.0002119541168213
58	255.8632960319519	pulse	0	t		56.0	2.5	/experiments/knapen_AOT/AOT_stimuli/rescaled_final/0669_rv.mp4	0.0	281.7089319229126	
58	255.87152314186096	movie	1		249	56.0	2.5	/experiments/knapen_AOT/AOT_stimuli/rescaled_final/0669_rv.mp4	0.0	281.71715903282166	2.508643865585327
58	257.46409797668457	pulse	1	t		56.0	2.5	/experiments/knapen_AOT/AOT_stimuli/rescaled_final/0669_rv.mp4	0.0	283.30973386764526	
58	258.3801670074463	fix_post	2		12	56.0	2.5	/experiments/knapen_AOT/AOT_stimuli/rescaled_final/0669_rv.mp4	0.0	284.225802898407	0.10003805160522461
59	258.4802050590515	fix_pre	0		120	57.0	2.5	/experiments/knapen_AOT/AOT_stimuli/rescaled_final/0529_rv.mp4	0.0	284.3258409500122	1.0001521110534668
59	259.06393599510193	pulse	0	t		57.0	2.5	/experiments/knapen_AOT/AOT_stimuli/rescaled_final/0529_rv.mp4	0.0	284.9095718860626	
59	259.480357170105	movie	1		246	57.0	2.5	/experiments/knapen_AOT/AOT_stimuli/rescaled_final/0529_rv.mp4	0.0	285.3259930610657	2.5003368854522705
59	260.6642231941223	pulse	1	t		57.0	2.5	/experiments/knapen_AOT/AOT_stimuli/rescaled_final/0529_rv.mp4	0.0	286.509859085083	
59	261.98069405555725	fix_post	2		12	57.0	2.5	/experiments/knapen_AOT/AOT_stimuli/rescaled_final/0529_rv.mp4	0.0	287.82632994651794	0.10011792182922363
60	262.0808119773865	fix_pre	0		120	58.0	2.5	/experiments/knapen_AOT/AOT_stimuli/rescaled_final/1568_fw.mp4	0.0	287.92644786834717	1.0000321865081787
60	262.26440811157227	pulse	0	t		58.0	2.5	/experiments/knapen_AOT/AOT_stimuli/rescaled_final/1568_fw.mp4	0.0	288.11004400253296	
60	263.08084416389465	movie	1		247	58.0	2.5	/experiments/knapen_AOT/AOT_stimuli/rescaled_final/1568_fw.mp4	0.0	288.92648005485535	2.5004048347473145
60	263.85717010498047	pulse	1	t		58.0	2.5	/experiments/knapen_AOT/AOT_stimuli/rescaled_final/1568_fw.mp4	0.0	289.70280599594116	
60	265.45732712745667	pulse	1	t		58.0	2.5	/experiments/knapen_AOT/AOT_stimuli/rescaled_final/1568_fw.mp4	0.0	291.30296301841736	
60	265.58124899864197	fix_post	2		12	58.0	2.5	/experiments/knapen_AOT/AOT_stimuli/rescaled_final/1568_fw.mp4	0.0	291.42688488960266	0.10002017021179199
61	265.68126916885376	fix_pre	0		120	59.0	2.5	/experiments/knapen_AOT/AOT_stimuli/rescaled_final/0753_fw.mp4	0.0	291.52690505981445	1.000119924545288
61	266.68138909339905	movie	1		245	59.0	2.5	/experiments/knapen_AOT/AOT_stimuli/rescaled_final/0753_fw.mp4	0.0	292.52702498435974	2.4921789169311523
61	267.0652949810028	pulse	1	t		59.0	2.5	/experiments/knapen_AOT/AOT_stimuli/rescaled_final/0753_fw.mp4	0.0	292.9109308719635	
61	268.65791606903076	pulse	1	t		59.0	2.5	/experiments/knapen_AOT/AOT_stimuli/rescaled_final/0753_fw.mp4	0.0	294.50355195999146	
61	269.1735680103302	fix_post	2		12	59.0	2.5	/experiments/knapen_AOT/AOT_stimuli/rescaled_final/0753_fw.mp4	0.0	295.0192039012909	0.09988808631896973
62	269.27345609664917	fix_pre	0		120	60.0	2.5	/experiments/knapen_AOT/AOT_stimuli/rescaled_final/1559_fw.mp4	0.0	295.11909198760986	1.0001859664916992
62	270.2578799724579	pulse	0	t		60.0	2.5	/experiments/knapen_AOT/AOT_stimuli/rescaled_final/1559_fw.mp4	0.0	296.1035158634186	
62	270.27364206314087	movie	1		247	60.0	2.5	/experiments/knapen_AOT/AOT_stimuli/rescaled_final/1559_fw.mp4	0.0	296.11927795410156	2.5086700916290283
62	271.8575930595398	pulse	1	t		60.0	2.5	/experiments/knapen_AOT/AOT_stimuli/rescaled_final/1559_fw.mp4	0.0	297.7032289505005	
62	272.7823121547699	fix_post	2		12	60.0	2.5	/experiments/knapen_AOT/AOT_stimuli/rescaled_final/1559_fw.mp4	0.0	298.6279480457306	0.10003304481506348
63	272.88234519958496	fix_pre	0		120	61.0	2.5	/experiments/knapen_AOT/AOT_stimuli/rescaled_final/0237_rv.mp4	0.0	298.72798109054565	1.0001189708709717
63	273.45757699012756	pulse	0	t		61.0	2.5	/experiments/knapen_AOT/AOT_stimuli/rescaled_final/0237_rv.mp4	0.0	299.30321288108826	
63	273.88246417045593	movie	1		245	61.0	2.5	/experiments/knapen_AOT/AOT_stimuli/rescaled_final/0237_rv.mp4	0.0	299.7281000614166	2.5003437995910645
63	275.0580711364746	pulse	1	t		61.0	2.5	/experiments/knapen_AOT/AOT_stimuli/rescaled_final/0237_rv.mp4	0.0	300.9037070274353	
63	276.382807970047	fix_post	2		12	61.0	2.5	/experiments/knapen_AOT/AOT_stimuli/rescaled_final/0237_rv.mp4	0.0	302.2284438610077	0.10006117820739746
64	276.4828691482544	fix_pre	0		120	62.0	2.5	/experiments/knapen_AOT/AOT_stimuli/rescaled_final/0794_fw.mp4	0.0	302.3285050392151	1.0001678466796875
64	276.65819120407104	pulse	0	t		62.0	2.5	/experiments/knapen_AOT/AOT_stimuli/rescaled_final/0794_fw.mp4	0.0	302.50382709503174	
64	277.4830369949341	movie	1		245	62.0	2.5	/experiments/knapen_AOT/AOT_stimuli/rescaled_final/0794_fw.mp4	0.0	303.3286728858948	2.492016077041626
64	278.25831508636475	pulse	1	t		62.0	2.5	/experiments/knapen_AOT/AOT_stimuli/rescaled_final/0794_fw.mp4	0.0	304.10395097732544	
64	279.85860109329224	pulse	1	t		62.0	2.5	/experiments/knapen_AOT/AOT_stimuli/rescaled_final/0794_fw.mp4	0.0	305.70423698425293	
64	279.9750530719757	fix_post	2		12	62.0	2.5	/experiments/knapen_AOT/AOT_stimuli/rescaled_final/0794_fw.mp4	0.0	305.8206889629364	0.10001993179321289
65	280.0750730037689	fix_pre	0		120	63.0	2.5	blank	1.0	305.9207088947296	1.0001499652862549
65	281.0752229690552	movie	1		300	63.0	2.5	blank	1.0	306.92085886001587	2.5004451274871826
65	281.4590001106262	pulse	1	t		63.0	2.5	blank	1.0	307.3046360015869	
65	283.05913519859314	pulse	1	t		63.0	2.5	blank	1.0	308.90477108955383	
65	283.57566809654236	fix_post	2		12	63.0	2.5	blank	1.0	309.42130398750305	0.09992504119873047
66	283.6755931377411	fix_pre	0		119	64.0	2.5	/experiments/knapen_AOT/AOT_stimuli/rescaled_final/0747_fw.mp4	0.0	309.5212290287018	0.991847038269043
66	284.65934109687805	pulse	0	t		64.0	2.5	/experiments/knapen_AOT/AOT_stimuli/rescaled_final/0747_fw.mp4	0.0	310.50497698783875	
66	284.66744017601013	movie	1		246	64.0	2.5	/experiments/knapen_AOT/AOT_stimuli/rescaled_final/0747_fw.mp4	0.0	310.5130760669708	2.509262800216675
66	286.2601041793823	pulse	1	t		64.0	2.5	/experiments/knapen_AOT/AOT_stimuli/rescaled_final/0747_fw.mp4	0.0	312.105740070343	
66	287.1767029762268	fix_post	2		9	64.0	2.5	/experiments/knapen_AOT/AOT_stimuli/rescaled_final/0747_fw.mp4	0.0	313.0223388671875	0.0994570255279541
67	287.27616000175476	fix_pre	0		120	65.0	2.5	/experiments/knapen_AOT/AOT_stimuli/rescaled_final/1841_rv.mp4	0.0	313.12179589271545	1.0001111030578613
67	287.85980796813965	pulse	0	t		65.0	2.5	/experiments/knapen_AOT/AOT_stimuli/rescaled_final/1841_rv.mp4	0.0	313.70544385910034	
67	288.2762711048126	movie	1		246	65.0	2.5	/experiments/knapen_AOT/AOT_stimuli/rescaled_final/1841_rv.mp4	0.0	314.1219069957733	2.500498056411743
67	289.46009612083435	pulse	1	t		65.0	2.5	/experiments/knapen_AOT/AOT_stimuli/rescaled_final/1841_rv.mp4	0.0	315.30573201179504	
67	290.77676916122437	fix_post	2		12	65.0	2.5	/experiments/knapen_AOT/AOT_stimuli/rescaled_final/1841_rv.mp4	0.0	316.62240505218506	0.09990501403808594
68	290.87667417526245	fix_pre	0		120	66.0	2.5	/experiments/knapen_AOT/AOT_stimuli/rescaled_final/0507_rv.mp4	0.0	316.72231006622314	1.000187873840332
68	291.0602240562439	pulse	0	t		66.0	2.5	/experiments/knapen_AOT/AOT_stimuli/rescaled_final/0507_rv.mp4	0.0	316.9058599472046	
68	291.8768620491028	movie	1		245	66.0	2.5	/experiments/knapen_AOT/AOT_stimuli/rescaled_final/0507_rv.mp4	0.0	317.7224979400635	2.500335931777954
68	292.6604759693146	pulse	1	t		66.0	2.5	/experiments/knapen_AOT/AOT_stimuli/rescaled_final/0507_rv.mp4	0.0	318.50611186027527	
68	294.2607409954071	pulse	1	t		66.0	2.5	/experiments/knapen_AOT/AOT_stimuli/rescaled_final/0507_rv.mp4	0.0	320.1063768863678	
68	294.37719798088074	fix_post	2		12	66.0	2.5	/experiments/knapen_AOT/AOT_stimuli/rescaled_final/0507_rv.mp4	0.0	320.22283387184143	0.10004019737243652
69	294.4772381782532	fix_pre	0		120	67.0	2.5	/experiments/knapen_AOT/AOT_stimuli/rescaled_final/0431_rv.mp4	0.0	320.32287406921387	1.0002498626708984
69	295.4774880409241	movie	1		243	67.0	2.5	/experiments/knapen_AOT/AOT_stimuli/rescaled_final/0431_rv.mp4	0.0	321.32312393188477	2.4919519424438477
69	295.86165499687195	pulse	1	t		67.0	2.5	/experiments/knapen_AOT/AOT_stimuli/rescaled_final/0431_rv.mp4	0.0	321.70729088783264	
69	297.4612491130829	pulse	1	t		67.0	2.5	/experiments/knapen_AOT/AOT_stimuli/rescaled_final/0431_rv.mp4	0.0	323.3068850040436	
69	297.9694399833679	fix_post	2		12	67.0	2.5	/experiments/knapen_AOT/AOT_stimuli/rescaled_final/0431_rv.mp4	0.0	323.8150758743286	0.09998703002929688
70	298.0694270133972	fix_pre	0		120	68.0	2.5	/experiments/knapen_AOT/AOT_stimuli/rescaled_final/0913_rv.mp4	0.0	323.9150629043579	1.0001821517944336
70	299.06140398979187	pulse	0	t		68.0	2.5	/experiments/knapen_AOT/AOT_stimuli/rescaled_final/0913_rv.mp4	0.0	324.90703988075256	
70	299.06960916519165	movie	1		245	68.0	2.5	/experiments/knapen_AOT/AOT_stimuli/rescaled_final/0913_rv.mp4	0.0	324.91524505615234	2.508749008178711
70	300.6622591018677	pulse	1	t		68.0	2.5	/experiments/knapen_AOT/AOT_stimuli/rescaled_final/0913_rv.mp4	0.0	326.50789499282837	
70	301.57835817337036	fix_post	2		12	68.0	2.5	/experiments/knapen_AOT/AOT_stimuli/rescaled_final/0913_rv.mp4	0.0	327.42399406433105	0.09991693496704102
71	301.6782751083374	fix_pre	0		120	69.0	2.5	/experiments/knapen_AOT/AOT_stimuli/rescaled_final/1298_fw.mp4	0.0	327.5239109992981	1.00016188621521
71	302.2619390487671	pulse	0	t		69.0	2.5	/experiments/knapen_AOT/AOT_stimuli/rescaled_final/1298_fw.mp4	0.0	328.1075749397278	
71	302.6784369945526	movie	1		244	69.0	2.5	/experiments/knapen_AOT/AOT_stimuli/rescaled_final/1298_fw.mp4	0.0	328.5240728855133	2.5003600120544434
71	303.85808801651	pulse	1	t		69.0	2.5	/experiments/knapen_AOT/AOT_stimuli/rescaled_final/1298_fw.mp4	0.0	329.7037239074707	
71	305.17879700660706	fix_post	2		12	69.0	2.5	/experiments/knapen_AOT/AOT_stimuli/rescaled_final/1298_fw.mp4	0.0	331.02443289756775	0.10004997253417969
72	305.27884697914124	fix_pre	0		120	70.0	2.5	blank	1.0	331.12448287010193	1.0001451969146729
72	305.4623670578003	pulse	0	t		70.0	2.5	blank	1.0	331.308002948761	
72	306.2789921760559	movie	1		300	70.0	2.5	blank	1.0	332.1246280670166	2.5004429817199707
72	307.0627670288086	pulse	1	t		70.0	2.5	blank	1.0	332.9084029197693	
72	308.66285610198975	pulse	1	t		70.0	2.5	blank	1.0	334.50849199295044	
72	308.7794351577759	fix_post	2		12	70.0	2.5	blank	1.0	334.6250710487366	0.09991788864135742
73	308.87935304641724	fix_pre	0		120	71.0	2.5	/experiments/knapen_AOT/AOT_stimuli/rescaled_final/0143_fw.mp4	0.0	334.72498893737793	1.0001261234283447
73	309.8794791698456	movie	1		244	71.0	2.5	/experiments/knapen_AOT/AOT_stimuli/rescaled_final/0143_fw.mp4	0.0	335.7251150608063	2.4920859336853027
73	310.2647180557251	pulse	1	t		71.0	2.5	/experiments/knapen_AOT/AOT_stimuli/rescaled_final/0143_fw.mp4	0.0	336.1103539466858	
73	311.8632981777191	pulse	1	t		71.0	2.5	/experiments/knapen_AOT/AOT_stimuli/rescaled_final/0143_fw.mp4	0.0	337.7089340686798	
73	312.3715651035309	fix_post	2		12	71.0	2.5	/experiments/knapen_AOT/AOT_stimuli/rescaled_final/0143_fw.mp4	0.0	338.2172009944916	0.10001802444458008
74	312.47158312797546	fix_pre	0		120	72.0	2.5	/experiments/knapen_AOT/AOT_stimuli/rescaled_final/1269_fw.mp4	0.0	338.31721901893616	1.0001568794250488
74	313.4636859893799	pulse	0	t		72.0	2.5	/experiments/knapen_AOT/AOT_stimuli/rescaled_final/1269_fw.mp4	0.0	339.3093218803406	
74	313.4717400074005	movie	1		245	72.0	2.5	/experiments/knapen_AOT/AOT_stimuli/rescaled_final/1269_fw.mp4	0.0	339.3173758983612	2.508686065673828
74	315.064462184906	pulse	1	t		72.0	2.5	/experiments/knapen_AOT/AOT_stimuli/rescaled_final/1269_fw.mp4	0.0	340.9100980758667	
74	315.98042607307434	fix_post	2		12	72.0	2.5	/experiments/knapen_AOT/AOT_stimuli/rescaled_final/1269_fw.mp4	0.0	341.82606196403503	0.10001897811889648
75	316.08044505119324	fix_pre	0		120	73.0	2.5	/experiments/knapen_AOT/AOT_stimuli/rescaled_final/0757_fw.mp4	0.0	341.92608094215393	1.0002360343933105
75	316.6641390323639	pulse	0	t		73.0	2.5	/experiments/knapen_AOT/AOT_stimuli/rescaled_final/0757_fw.mp4	0.0	342.5097749233246	
75	317.08068108558655	movie	1		246	73.0	2.5	/experiments/knapen_AOT/AOT_stimuli/rescaled_final/0757_fw.mp4	0.0	342.92631697654724	2.5002429485321045
75	318.2644090652466	pulse	1	t		73.0	2.5	/experiments/knapen_AOT/AOT_stimuli/rescaled_final/0757_fw.mp4	0.0	344.1100449562073	
75	319.58092403411865	fix_post	2		12	73.0	2.5	/experiments/knapen_AOT/AOT_stimuli/rescaled_final/0757_fw.mp4	0.0	345.42655992507935	0.10006308555603027
76	319.6809871196747	fix_pre	0		120	74.0	2.5	/experiments/knapen_AOT/AOT_stimuli/rescaled_final/1606_rv.mp4	0.0	345.5266230106354	1.0001778602600098
76	319.8646020889282	pulse	0	t		74.0	2.5	/experiments/knapen_AOT/AOT_stimuli/rescaled_final/1606_rv.mp4	0.0	345.7102379798889	
76	320.6811649799347	movie	1		245	74.0	2.5	/experiments/knapen_AOT/AOT_stimuli/rescaled_final/1606_rv.mp4	0.0	346.5268008708954	2.50032901763916
76	321.46487498283386	pulse	1	t		74.0	2.5	/experiments/knapen_AOT/AOT_stimuli/rescaled_final/1606_rv.mp4	0.0	347.31051087379456	
76	323.065181016922	pulse	1	t		74.0	2.5	/experiments/knapen_AOT/AOT_stimuli/rescaled_final/1606_rv.mp4	0.0	348.9108169078827	
76	323.18149399757385	fix_post	2		12	74.0	2.5	/experiments/knapen_AOT/AOT_stimuli/rescaled_final/1606_rv.mp4	0.0	349.02712988853455	0.10001301765441895
77	323.28150701522827	fix_pre	0		120	75.0	2.5	/experiments/knapen_AOT/AOT_stimuli/rescaled_final/0296_rv.mp4	0.0	349.12714290618896	1.0001611709594727
77	324.28166818618774	movie	1		244	75.0	2.5	/experiments/knapen_AOT/AOT_stimuli/rescaled_final/0296_rv.mp4	0.0	350.12730407714844	2.4921178817749023
77	324.6658990383148	pulse	1	t		75.0	2.5	/experiments/knapen_AOT/AOT_stimuli/rescaled_final/0296_rv.mp4	0.0	350.5115349292755	
77	326.2581419944763	pulse	1	t		75.0	2.5	/experiments/knapen_AOT/AOT_stimuli/rescaled_final/0296_rv.mp4	0.0	352.103777885437	
77	326.77378606796265	fix_post	2		12	75.0	2.5	/experiments/knapen_AOT/AOT_stimuli/rescaled_final/0296_rv.mp4	0.0	352.61942195892334	0.09993195533752441
78	326.87371802330017	fix_pre	0		120	76.0	2.5	blank	1.0	352.71935391426086	1.0001890659332275
78	327.85827016830444	pulse	0	t		76.0	2.5	blank	1.0	353.70390605926514	
78	327.8739070892334	movie	1		301	76.0	2.5	blank	1.0	353.7195429801941	2.508713960647583
78	329.4584560394287	pulse	1	t		76.0	2.5	blank	1.0	355.3040919303894	
78	330.382621049881	fix_post	2		12	76.0	2.5	blank	1.0	356.2282569408417	0.09999394416809082
79	330.4826149940491	fix_pre	0		120	77.0	2.5	/experiments/knapen_AOT/AOT_stimuli/rescaled_final/0323_fw.mp4	0.0	356.32825088500977	1.000108003616333
79	331.05879497528076	pulse	0	t		77.0	2.5	/experiments/knapen_AOT/AOT_stimuli/rescaled_final/0323_fw.mp4	0.0	356.90443086624146	
79	331.4827229976654	movie	1		245	77.0	2.5	/experiments/knapen_AOT/AOT_stimuli/rescaled_final/0323_fw.mp4	0.0	357.3283588886261	2.500375986099243
79	332.6588170528412	pulse	1	t		77.0	2.5	/experiments/knapen_AOT/AOT_stimuli/rescaled_final/0323_fw.mp4	0.0	358.5044529438019	
79	333.98309898376465	fix_post	2		12	77.0	2.5	/experiments/knapen_AOT/AOT_stimuli/rescaled_final/0323_fw.mp4	0.0	359.82873487472534	0.10004305839538574
80	334.08314204216003	fix_pre	0		120	78.0	2.5	/experiments/knapen_AOT/AOT_stimuli/rescaled_final/0406_fw.mp4	0.0	359.9287779331207	1.000154972076416
80	334.2582550048828	pulse	0	t		78.0	2.5	/experiments/knapen_AOT/AOT_stimuli/rescaled_final/0406_fw.mp4	0.0	360.1038908958435	
80	335.08329701423645	movie	1		245	78.0	2.5	/experiments/knapen_AOT/AOT_stimuli/rescaled_final/0406_fw.mp4	0.0	360.92893290519714	2.5004210472106934
80	335.858540058136	pulse	1	t		78.0	2.5	/experiments/knapen_AOT/AOT_stimuli/rescaled_final/0406_fw.mp4	0.0	361.7041759490967	
80	337.458899974823	pulse	1	t		78.0	2.5	/experiments/knapen_AOT/AOT_stimuli/rescaled_final/0406_fw.mp4	0.0	363.3045358657837	
80	337.58371806144714	fix_post	2		12	78.0	2.5	/experiments/knapen_AOT/AOT_stimuli/rescaled_final/0406_fw.mp4	0.0	363.42935395240784	0.09997797012329102
81	337.68369603157043	fix_pre	0		120	79.0	2.5	/experiments/knapen_AOT/AOT_stimuli/rescaled_final/0763_rv.mp4	0.0	363.5293319225311	1.0001490116119385
81	338.6838450431824	movie	1		245	79.0	2.5	/experiments/knapen_AOT/AOT_stimuli/rescaled_final/0763_rv.mp4	0.0	364.52948093414307	2.4920060634613037
81	339.05912017822266	pulse	1	t		79.0	2.5	/experiments/knapen_AOT/AOT_stimuli/rescaled_final/0763_rv.mp4	0.0	364.90475606918335	
81	340.6593220233917	pulse	1	t		79.0	2.5	/experiments/knapen_AOT/AOT_stimuli/rescaled_final/0763_rv.mp4	0.0	366.5049579143524	
81	341.1758511066437	fix_post	2		12	79.0	2.5	/experiments/knapen_AOT/AOT_stimuli/rescaled_final/0763_rv.mp4	0.0	367.02148699760437	0.10007500648498535
82	341.27592611312866	fix_pre	0		119	80.0	2.5	/experiments/knapen_AOT/AOT_stimuli/rescaled_final/0601_fw.mp4	0.0	367.12156200408936	0.9917888641357422
82	342.2595601081848	pulse	0	t		80.0	2.5	/experiments/knapen_AOT/AOT_stimuli/rescaled_final/0601_fw.mp4	0.0	368.1051959991455	
82	342.2677149772644	movie	1		247	80.0	2.5	/experiments/knapen_AOT/AOT_stimuli/rescaled_final/0601_fw.mp4	0.0	368.1133508682251	2.5086731910705566
82	343.86021518707275	pulse	1	t		80.0	2.5	/experiments/knapen_AOT/AOT_stimuli/rescaled_final/0601_fw.mp4	0.0	369.70585107803345	
82	344.77638816833496	fix_post	2		12	80.0	2.5	/experiments/knapen_AOT/AOT_stimuli/rescaled_final/0601_fw.mp4	0.0	370.62202405929565	0.10002493858337402
83	344.87641310691833	fix_pre	0		120	81.0	2.5	/experiments/knapen_AOT/AOT_stimuli/rescaled_final/1643_rv.mp4	0.0	370.722048997879	1.0001909732818604
83	345.4600930213928	pulse	0	t		81.0	2.5	/experiments/knapen_AOT/AOT_stimuli/rescaled_final/1643_rv.mp4	0.0	371.3057289123535	
83	345.8766040802002	movie	1		243	81.0	2.5	/experiments/knapen_AOT/AOT_stimuli/rescaled_final/1643_rv.mp4	0.0	371.7222399711609	2.500446081161499
83	347.06036019325256	pulse	1	t		81.0	2.5	/experiments/knapen_AOT/AOT_stimuli/rescaled_final/1643_rv.mp4	0.0	372.90599608421326	
83	348.3770501613617	fix_post	2		12	81.0	2.5	/experiments/knapen_AOT/AOT_stimuli/rescaled_final/1643_rv.mp4	0.0	374.2226860523224	0.09992384910583496
84	348.47697401046753	fix_pre	0		120	82.0	2.5	blank	1.0	374.3226099014282	1.0001389980316162
84	348.6605670452118	pulse	0	t		82.0	2.5	blank	1.0	374.5062029361725	
84	349.47711300849915	movie	1		300	82.0	2.5	blank	1.0	375.32274889945984	2.5003721714019775
84	350.2607190608978	pulse	1	t		82.0	2.5	blank	1.0	376.1063549518585	
84	351.8610701560974	pulse	1	t		82.0	2.5	blank	1.0	377.7067060470581	
84	351.9774851799011	fix_post	2		12	82.0	2.5	blank	1.0	377.8231210708618	0.1001129150390625
85	352.0775980949402	fix_pre	0		120	83.0	2.5	/experiments/knapen_AOT/AOT_stimuli/rescaled_final/1735_rv.mp4	0.0	377.9232339859009	1.0002810955047607
85	353.07787919044495	movie	1		241	83.0	2.5	/experiments/knapen_AOT/AOT_stimuli/rescaled_final/1735_rv.mp4	0.0	378.92351508140564	2.4918198585510254
85	353.4622709751129	pulse	1	t		83.0	2.5	/experiments/knapen_AOT/AOT_stimuli/rescaled_final/1735_rv.mp4	0.0	379.3079068660736	
85	355.0613980293274	pulse	1	t		83.0	2.5	/experiments/knapen_AOT/AOT_stimuli/rescaled_final/1735_rv.mp4	0.0	380.9070339202881	
85	355.569699048996	fix_post	2		12	83.0	2.5	/experiments/knapen_AOT/AOT_stimuli/rescaled_final/1735_rv.mp4	0.0	381.41533493995667	0.09998607635498047
87	355.66968512535095	stim	0		1716					381.51532101631165	14.302273035049438
87	356.6617901325226	pulse	0	t						382.5074260234833	
87	358.26201605796814	pulse	0	t						384.10765194892883	
87	359.86218309402466	pulse	0	t						385.70781898498535	
87	361.46234798431396	pulse	0	t						387.30798387527466	
87	363.06274604797363	pulse	0	t						388.9083819389343	
87	364.66293120384216	pulse	0	t						390.50856709480286	
87	366.26323914527893	pulse	0	t						392.1088750362396	
87	367.8633191585541	pulse	0	t						393.70895504951477	
87	369.46357703208923	pulse	0	t						395.3092129230499	
