trial_nr	onset	event_type	phase	response	nr_frames	movie_index	movie_duration	movie_file	blank	onset_abs	duration
0	0.1331310272216797	stim	0		54					34.16558504104614	0.45021915435791016
0	0.5754091739654541	response	0	space						34.60786318778992	
1	0.5833501815795898	stim	0		4984					34.61580419540405	41.53307390213013
1	42.112915992736816	pulse	0	t						76.14537000656128	
1	42.11642408370972	stim	1		1717					76.14887809753418	14.30829906463623
1	43.70840501785278	pulse	1	t						77.74085903167725	
1	45.30837416648865	pulse	1	t						79.34082818031311	
1	46.90821599960327	pulse	1	t						80.94067001342773	
1	48.50824213027954	pulse	1	t						82.540696144104	
1	50.10825705528259	pulse	1	t						84.14071106910706	
1	51.70819401741028	pulse	1	t						85.74064803123474	
1	53.30820322036743	pulse	1	t						87.3406572341919	
1	54.90814399719238	pulse	1	t						88.94059801101685	
2	56.42472314834595	fix_pre	0		11	0.0	2.5	/experiments/AOT/AOT_stimuli/rescaled_final/0271_rv.mp4	0.0	90.45717716217041	0.09174394607543945
2	56.5081741809845	pulse	0	t		0.0	2.5	/experiments/AOT/AOT_stimuli/rescaled_final/0271_rv.mp4	0.0	90.54062819480896	
2	56.51646709442139	movie	1		242	0.0	2.5	/experiments/AOT/AOT_stimuli/rescaled_final/0271_rv.mp4	0.0	90.54892110824585	2.507946014404297
2	58.10765099525452	pulse	1	t		0.0	2.5	/experiments/AOT/AOT_stimuli/rescaled_final/0271_rv.mp4	0.0	92.14010500907898	
2	59.024413108825684	fix_post	2		12	0.0	2.5	/experiments/AOT/AOT_stimuli/rescaled_final/0271_rv.mp4	0.0	93.05686712265015	0.10029792785644531
3	59.12471103668213	fix_pre	0		120	1.0	2.5	/experiments/AOT/AOT_stimuli/rescaled_final/2103_rv.mp4	0.0	93.15716505050659	0.9996509552001953
3	59.70828819274902	pulse	0	t		1.0	2.5	/experiments/AOT/AOT_stimuli/rescaled_final/2103_rv.mp4	0.0	93.74074220657349	
3	60.124361991882324	movie	1		243	1.0	2.5	/experiments/AOT/AOT_stimuli/rescaled_final/2103_rv.mp4	0.0	94.15681600570679	2.4999051094055176
3	61.308202028274536	pulse	1	t		1.0	2.5	/experiments/AOT/AOT_stimuli/rescaled_final/2103_rv.mp4	0.0	95.340656042099	
3	62.62426710128784	fix_post	2		12	1.0	2.5	/experiments/AOT/AOT_stimuli/rescaled_final/2103_rv.mp4	0.0	96.6567211151123	0.1004030704498291
4	62.72467017173767	fix_pre	0		120	2.0	2.5	/experiments/AOT/AOT_stimuli/rescaled_final/1830_rv.mp4	0.0	96.75712418556213	1.0000109672546387
4	62.908141136169434	pulse	0	t		2.0	2.5	/experiments/AOT/AOT_stimuli/rescaled_final/1830_rv.mp4	0.0	96.9405951499939	
4	63.72468113899231	movie	1		245	2.0	2.5	/experiments/AOT/AOT_stimuli/rescaled_final/1830_rv.mp4	0.0	97.75713515281677	2.500067949295044
4	64.50830006599426	pulse	1	t		2.0	2.5	/experiments/AOT/AOT_stimuli/rescaled_final/1830_rv.mp4	0.0	98.54075407981873	
4	66.1077880859375	pulse	1	t		2.0	2.5	/experiments/AOT/AOT_stimuli/rescaled_final/1830_rv.mp4	0.0	100.14024209976196	
4	66.22474908828735	fix_post	2		12	2.0	2.5	/experiments/AOT/AOT_stimuli/rescaled_final/1830_rv.mp4	0.0	100.25720310211182	0.09989404678344727
5	66.3246431350708	fix_pre	0		120	3.0	2.5	/experiments/AOT/AOT_stimuli/rescaled_final/1845_rv.mp4	0.0	100.35709714889526	1.0000290870666504
5	67.32467222213745	movie	1		243	3.0	2.5	/experiments/AOT/AOT_stimuli/rescaled_final/1845_rv.mp4	0.0	101.35712623596191	2.500175952911377
5	67.70770907402039	pulse	1	t		3.0	2.5	/experiments/AOT/AOT_stimuli/rescaled_final/1845_rv.mp4	0.0	101.74016308784485	
5	69.30821418762207	pulse	1	t		3.0	2.5	/experiments/AOT/AOT_stimuli/rescaled_final/1845_rv.mp4	0.0	103.34066820144653	
5	69.82484817504883	fix_post	2		12	3.0	2.5	/experiments/AOT/AOT_stimuli/rescaled_final/1845_rv.mp4	0.0	103.85730218887329	0.09953784942626953
6	69.9243860244751	fix_pre	0		119	4.0	2.5	/experiments/AOT/AOT_stimuli/rescaled_final/1308_fw.mp4	0.0	103.95684003829956	0.9919459819793701
6	70.90812015533447	pulse	0	t		4.0	2.5	/experiments/AOT/AOT_stimuli/rescaled_final/1308_fw.mp4	0.0	104.94057416915894	
6	70.91633200645447	movie	1		247	4.0	2.5	/experiments/AOT/AOT_stimuli/rescaled_final/1308_fw.mp4	0.0	104.94878602027893	2.507869005203247
6	72.50782418251038	pulse	1	t		4.0	2.5	/experiments/AOT/AOT_stimuli/rescaled_final/1308_fw.mp4	0.0	106.54027819633484	
6	73.42420101165771	fix_post	2		12	4.0	2.5	/experiments/AOT/AOT_stimuli/rescaled_final/1308_fw.mp4	0.0	107.45665502548218	0.10053110122680664
7	73.52473211288452	fix_pre	0		120	5.0	2.5	/experiments/AOT/AOT_stimuli/rescaled_final/0368_fw.mp4	0.0	107.55718612670898	0.9999470710754395
7	74.10823321342468	pulse	0	t		5.0	2.5	/experiments/AOT/AOT_stimuli/rescaled_final/0368_fw.mp4	0.0	108.14068722724915	
7	74.52467918395996	movie	1		245	5.0	2.5	/experiments/AOT/AOT_stimuli/rescaled_final/0368_fw.mp4	0.0	108.55713319778442	2.4995670318603516
7	75.70826315879822	pulse	1	t		5.0	2.5	/experiments/AOT/AOT_stimuli/rescaled_final/0368_fw.mp4	0.0	109.74071717262268	
7	77.02424621582031	fix_post	2		12	5.0	2.5	/experiments/AOT/AOT_stimuli/rescaled_final/0368_fw.mp4	0.0	111.05670022964478	0.1004788875579834
8	77.1247251033783	fix_pre	0		120	6.0	2.5	blank	1.0	111.15717911720276	1.0000050067901611
8	77.3081362247467	pulse	0	t		6.0	2.5	blank	1.0	111.34059023857117	
8	78.12473011016846	movie	1		300	6.0	2.5	blank	1.0	112.15718412399292	2.4999868869781494
8	78.90814518928528	pulse	1	t		6.0	2.5	blank	1.0	112.94059920310974	
8	80.50805115699768	pulse	1	t		6.0	2.5	blank	1.0	114.54050517082214	
8	80.6247169971466	fix_post	2		12	6.0	2.5	blank	1.0	114.65717101097107	0.09993219375610352
9	80.72464919090271	fix_pre	0		120	7.0	2.5	/experiments/AOT/AOT_stimuli/rescaled_final/0231_fw.mp4	0.0	114.75710320472717	0.9995508193969727
9	81.72420001029968	movie	1		244	7.0	2.5	/experiments/AOT/AOT_stimuli/rescaled_final/0231_fw.mp4	0.0	115.75665402412415	2.5004560947418213
9	82.1081931591034	pulse	1	t		7.0	2.5	/experiments/AOT/AOT_stimuli/rescaled_final/0231_fw.mp4	0.0	116.14064717292786	
9	83.7076370716095	pulse	1	t		7.0	2.5	/experiments/AOT/AOT_stimuli/rescaled_final/0231_fw.mp4	0.0	117.74009108543396	
9	84.2246561050415	fix_post	2		12	7.0	2.5	/experiments/AOT/AOT_stimuli/rescaled_final/0231_fw.mp4	0.0	118.25711011886597	0.09997010231018066
10	84.32462620735168	fix_pre	0		119	8.0	2.5	/experiments/AOT/AOT_stimuli/rescaled_final/1895_fw.mp4	0.0	118.35708022117615	0.991757869720459
10	85.30776619911194	pulse	0	t		8.0	2.5	/experiments/AOT/AOT_stimuli/rescaled_final/1895_fw.mp4	0.0	119.3402202129364	
10	85.31638407707214	movie	1		246	8.0	2.5	/experiments/AOT/AOT_stimuli/rescaled_final/1895_fw.mp4	0.0	119.3488380908966	2.507791042327881
10	86.90818905830383	pulse	1	t		8.0	2.5	/experiments/AOT/AOT_stimuli/rescaled_final/1895_fw.mp4	0.0	120.9406430721283	
10	87.82417511940002	fix_post	2		12	8.0	2.5	/experiments/AOT/AOT_stimuli/rescaled_final/1895_fw.mp4	0.0	121.85662913322449	0.10043501853942871
11	87.92461013793945	fix_pre	0		120	9.0	2.5	/experiments/AOT/AOT_stimuli/rescaled_final/0018_fw.mp4	0.0	121.95706415176392	1.0000278949737549
11	88.50933718681335	pulse	0	t		9.0	2.5	/experiments/AOT/AOT_stimuli/rescaled_final/0018_fw.mp4	0.0	122.54179120063782	
11	88.92463803291321	movie	1		245	9.0	2.5	/experiments/AOT/AOT_stimuli/rescaled_final/0018_fw.mp4	0.0	122.95709204673767	2.499765157699585
11	90.10808205604553	pulse	1	t		9.0	2.5	/experiments/AOT/AOT_stimuli/rescaled_final/0018_fw.mp4	0.0	124.14053606987	
11	91.4244031906128	fix_post	2		12	9.0	2.5	/experiments/AOT/AOT_stimuli/rescaled_final/0018_fw.mp4	0.0	125.45685720443726	0.10015392303466797
12	91.52455711364746	fix_pre	0		120	10.0	2.5	/experiments/AOT/AOT_stimuli/rescaled_final/0329_fw.mp4	0.0	125.55701112747192	0.9999849796295166
12	91.70801210403442	pulse	0	t		10.0	2.5	/experiments/AOT/AOT_stimuli/rescaled_final/0329_fw.mp4	0.0	125.74046611785889	
12	92.52454209327698	movie	1		245	10.0	2.5	/experiments/AOT/AOT_stimuli/rescaled_final/0329_fw.mp4	0.0	126.55699610710144	2.500027894973755
12	93.30799221992493	pulse	1	t		10.0	2.5	/experiments/AOT/AOT_stimuli/rescaled_final/0329_fw.mp4	0.0	127.34044623374939	
12	94.90623712539673	pulse	1	t		10.0	2.5	/experiments/AOT/AOT_stimuli/rescaled_final/0329_fw.mp4	0.0	128.9386911392212	
12	95.02456998825073	fix_post	2		12	10.0	2.5	/experiments/AOT/AOT_stimuli/rescaled_final/0329_fw.mp4	0.0	129.0570240020752	0.09993720054626465
13	95.124507188797	fix_pre	0		120	11.0	2.5	/experiments/AOT/AOT_stimuli/rescaled_final/0955_rv.mp4	0.0	129.15696120262146	1.0000050067901611
13	96.12451219558716	movie	1		245	11.0	2.5	/experiments/AOT/AOT_stimuli/rescaled_final/0955_rv.mp4	0.0	130.15696620941162	2.5000038146972656
13	96.5075170993805	pulse	1	t		11.0	2.5	/experiments/AOT/AOT_stimuli/rescaled_final/0955_rv.mp4	0.0	130.53997111320496	
13	98.10797619819641	pulse	1	t		11.0	2.5	/experiments/AOT/AOT_stimuli/rescaled_final/0955_rv.mp4	0.0	132.14043021202087	
13	98.62451601028442	fix_post	2		12	11.0	2.5	/experiments/AOT/AOT_stimuli/rescaled_final/0955_rv.mp4	0.0	132.6569700241089	0.09961318969726562
14	98.72412919998169	fix_pre	0		119	12.0	2.5	/experiments/AOT/AOT_stimuli/rescaled_final/0338_rv.mp4	0.0	132.75658321380615	0.9920129776000977
14	99.7080430984497	pulse	0	t		12.0	2.5	/experiments/AOT/AOT_stimuli/rescaled_final/0338_rv.mp4	0.0	133.74049711227417	
14	99.71614217758179	movie	1		245	12.0	2.5	/experiments/AOT/AOT_stimuli/rescaled_final/0338_rv.mp4	0.0	133.74859619140625	2.5083580017089844
14	101.30813312530518	pulse	1	t		12.0	2.5	/experiments/AOT/AOT_stimuli/rescaled_final/0338_rv.mp4	0.0	135.34058713912964	
14	102.22450017929077	fix_post	2		12	12.0	2.5	/experiments/AOT/AOT_stimuli/rescaled_final/0338_rv.mp4	0.0	136.25695419311523	0.10000300407409668
15	102.32450318336487	fix_pre	0		120	13.0	2.5	/experiments/AOT/AOT_stimuli/rescaled_final/0539_fw.mp4	0.0	136.35695719718933	1.0000438690185547
15	102.90797019004822	pulse	0	t		13.0	2.5	/experiments/AOT/AOT_stimuli/rescaled_final/0539_fw.mp4	0.0	136.94042420387268	
15	103.32454705238342	movie	1		246	13.0	2.5	/experiments/AOT/AOT_stimuli/rescaled_final/0539_fw.mp4	0.0	137.35700106620789	2.4995241165161133
15	104.50807309150696	pulse	1	t		13.0	2.5	/experiments/AOT/AOT_stimuli/rescaled_final/0539_fw.mp4	0.0	138.54052710533142	
15	105.82407116889954	fix_post	2		12	13.0	2.5	/experiments/AOT/AOT_stimuli/rescaled_final/0539_fw.mp4	0.0	139.856525182724	0.10053801536560059
16	105.92460918426514	fix_pre	0		120	14.0	2.5	blank	1.0	139.9570631980896	0.9998478889465332
16	106.10800409317017	pulse	0	t		14.0	2.5	blank	1.0	140.14045810699463	
16	106.92445707321167	movie	1		300	14.0	2.5	blank	1.0	140.95691108703613	2.4996049404144287
16	107.70795321464539	pulse	1	t		14.0	2.5	blank	1.0	141.74040722846985	
16	109.30808019638062	pulse	1	t		14.0	2.5	blank	1.0	143.34053421020508	
16	109.4240620136261	fix_post	2		12	14.0	2.5	blank	1.0	143.45651602745056	0.10038113594055176
17	109.52444314956665	fix_pre	0		120	15.0	2.5	/experiments/AOT/AOT_stimuli/rescaled_final/0271_rv.mp4	0.0	143.5568971633911	0.9999899864196777
17	110.52443313598633	movie	1		244	15.0	2.5	/experiments/AOT/AOT_stimuli/rescaled_final/0271_rv.mp4	0.0	144.5568871498108	2.4996750354766846
17	110.90820121765137	pulse	1	t		15.0	2.5	/experiments/AOT/AOT_stimuli/rescaled_final/0271_rv.mp4	0.0	144.94065523147583	
17	112.50806212425232	pulse	1	t		15.0	2.5	/experiments/AOT/AOT_stimuli/rescaled_final/0271_rv.mp4	0.0	146.54051613807678	
17	113.02410817146301	fix_post	2		12	15.0	2.5	/experiments/AOT/AOT_stimuli/rescaled_final/0271_rv.mp4	0.0	147.05656218528748	0.10040903091430664
18	113.12451720237732	fix_pre	0		119	16.0	2.5	/experiments/AOT/AOT_stimuli/rescaled_final/0032_fw.mp4	0.0	147.15697121620178	0.9915668964385986
18	114.10794520378113	pulse	0	t		16.0	2.5	/experiments/AOT/AOT_stimuli/rescaled_final/0032_fw.mp4	0.0	148.1403992176056	
18	114.11608409881592	movie	1		246	16.0	2.5	/experiments/AOT/AOT_stimuli/rescaled_final/0032_fw.mp4	0.0	148.14853811264038	2.508388042449951
18	115.70771312713623	pulse	1	t		16.0	2.5	/experiments/AOT/AOT_stimuli/rescaled_final/0032_fw.mp4	0.0	149.7401671409607	
18	116.62447214126587	fix_post	2		12	16.0	2.5	/experiments/AOT/AOT_stimuli/rescaled_final/0032_fw.mp4	0.0	150.65692615509033	0.10003304481506348
19	116.72450518608093	fix_pre	0		120	17.0	2.5	/experiments/AOT/AOT_stimuli/rescaled_final/0523_rv.mp4	0.0	150.7569591999054	1.000020980834961
19	117.3081111907959	pulse	0	t		17.0	2.5	/experiments/AOT/AOT_stimuli/rescaled_final/0523_rv.mp4	0.0	151.34056520462036	
19	117.7245261669159	movie	1		246	17.0	2.5	/experiments/AOT/AOT_stimuli/rescaled_final/0523_rv.mp4	0.0	151.75698018074036	2.4999208450317383
19	118.9080331325531	pulse	1	t		17.0	2.5	/experiments/AOT/AOT_stimuli/rescaled_final/0523_rv.mp4	0.0	152.94048714637756	
19	120.22444701194763	fix_post	2		12	17.0	2.5	/experiments/AOT/AOT_stimuli/rescaled_final/0523_rv.mp4	0.0	154.2569010257721	0.09997701644897461
20	120.3244240283966	fix_pre	0		120	18.0	2.5	/experiments/AOT/AOT_stimuli/rescaled_final/0828_fw.mp4	0.0	154.35687804222107	1.0000171661376953
20	120.50788307189941	pulse	0	t		18.0	2.5	/experiments/AOT/AOT_stimuli/rescaled_final/0828_fw.mp4	0.0	154.54033708572388	
20	121.3244411945343	movie	1		244	18.0	2.5	/experiments/AOT/AOT_stimuli/rescaled_final/0828_fw.mp4	0.0	155.35689520835876	2.499547004699707
20	122.107901096344	pulse	1	t		18.0	2.5	/experiments/AOT/AOT_stimuli/rescaled_final/0828_fw.mp4	0.0	156.14035511016846	
20	123.70655512809753	pulse	1	t		18.0	2.5	/experiments/AOT/AOT_stimuli/rescaled_final/0828_fw.mp4	0.0	157.739009141922	
20	123.82398819923401	fix_post	2		12	18.0	2.5	/experiments/AOT/AOT_stimuli/rescaled_final/0828_fw.mp4	0.0	157.85644221305847	0.10044598579406738
21	123.92443418502808	fix_pre	0		120	19.0	2.5	blank	1.0	157.95688819885254	0.9995498657226562
21	124.92398405075073	movie	1		300	19.0	2.5	blank	1.0	158.9564380645752	2.500476121902466
21	125.30786108970642	pulse	1	t		19.0	2.5	blank	1.0	159.34031510353088	
21	126.90787601470947	pulse	1	t		19.0	2.5	blank	1.0	160.94033002853394	
21	127.4244601726532	fix_post	2		12	19.0	2.5	blank	1.0	161.45691418647766	0.09994888305664062
22	127.52440905570984	fix_pre	0		119	20.0	2.5	/experiments/AOT/AOT_stimuli/rescaled_final/1027_rv.mp4	0.0	161.5568630695343	0.991569995880127
22	128.50791811943054	pulse	0	t		20.0	2.5	/experiments/AOT/AOT_stimuli/rescaled_final/1027_rv.mp4	0.0	162.540372133255	
22	128.51597905158997	movie	1		246	20.0	2.5	/experiments/AOT/AOT_stimuli/rescaled_final/1027_rv.mp4	0.0	162.54843306541443	2.507935047149658
22	130.10757613182068	pulse	1	t		20.0	2.5	/experiments/AOT/AOT_stimuli/rescaled_final/1027_rv.mp4	0.0	164.14003014564514	
22	131.02391409873962	fix_post	2		12	20.0	2.5	/experiments/AOT/AOT_stimuli/rescaled_final/1027_rv.mp4	0.0	165.0563681125641	0.1004800796508789
23	131.1243941783905	fix_pre	0		120	21.0	2.5	/experiments/AOT/AOT_stimuli/rescaled_final/1020_fw.mp4	0.0	165.15684819221497	1.0000078678131104
23	131.70792317390442	pulse	0	t		21.0	2.5	/experiments/AOT/AOT_stimuli/rescaled_final/1020_fw.mp4	0.0	165.74037718772888	
23	132.1244020462036	movie	1		245	21.0	2.5	/experiments/AOT/AOT_stimuli/rescaled_final/1020_fw.mp4	0.0	166.15685606002808	2.499582052230835
23	133.30789303779602	pulse	1	t		21.0	2.5	/experiments/AOT/AOT_stimuli/rescaled_final/1020_fw.mp4	0.0	167.34034705162048	
23	134.62398409843445	fix_post	2		12	21.0	2.5	/experiments/AOT/AOT_stimuli/rescaled_final/1020_fw.mp4	0.0	168.6564381122589	0.10040402412414551
24	134.7243881225586	fix_pre	0		120	22.0	2.5	/experiments/AOT/AOT_stimuli/rescaled_final/1308_fw.mp4	0.0	168.75684213638306	0.9999210834503174
24	134.90794014930725	pulse	0	t		22.0	2.5	/experiments/AOT/AOT_stimuli/rescaled_final/1308_fw.mp4	0.0	168.9403941631317	
24	135.7243092060089	movie	1		244	22.0	2.5	/experiments/AOT/AOT_stimuli/rescaled_final/1308_fw.mp4	0.0	169.75676321983337	2.500168800354004
24	136.50791907310486	pulse	1	t		22.0	2.5	/experiments/AOT/AOT_stimuli/rescaled_final/1308_fw.mp4	0.0	170.54037308692932	
24	138.11615300178528	pulse	1	t		22.0	2.5	/experiments/AOT/AOT_stimuli/rescaled_final/1308_fw.mp4	0.0	172.14860701560974	
24	138.22447800636292	fix_post	2		12	22.0	2.5	/experiments/AOT/AOT_stimuli/rescaled_final/1308_fw.mp4	0.0	172.25693202018738	0.09995603561401367
25	138.32443404197693	fix_pre	0		120	23.0	2.5	/experiments/AOT/AOT_stimuli/rescaled_final/1644_rv.mp4	0.0	172.3568880558014	0.9994981288909912
25	139.32393217086792	movie	1		248	23.0	2.5	/experiments/AOT/AOT_stimuli/rescaled_final/1644_rv.mp4	0.0	173.35638618469238	2.5005669593811035
25	139.7067220211029	pulse	1	t		23.0	2.5	/experiments/AOT/AOT_stimuli/rescaled_final/1644_rv.mp4	0.0	173.73917603492737	
25	141.30742812156677	pulse	1	t		23.0	2.5	/experiments/AOT/AOT_stimuli/rescaled_final/1644_rv.mp4	0.0	175.33988213539124	
25	141.82449913024902	fix_post	2		12	23.0	2.5	/experiments/AOT/AOT_stimuli/rescaled_final/1644_rv.mp4	0.0	175.8569531440735	0.10007405281066895
26	141.9245731830597	fix_pre	0		119	24.0	2.5	/experiments/AOT/AOT_stimuli/rescaled_final/0730_fw.mp4	0.0	175.95702719688416	0.9917969703674316
26	142.90771913528442	pulse	0	t		24.0	2.5	/experiments/AOT/AOT_stimuli/rescaled_final/0730_fw.mp4	0.0	176.9401731491089	
26	142.91637015342712	movie	1		247	24.0	2.5	/experiments/AOT/AOT_stimuli/rescaled_final/0730_fw.mp4	0.0	176.9488241672516	2.507556915283203
26	144.50735020637512	pulse	1	t		24.0	2.5	/experiments/AOT/AOT_stimuli/rescaled_final/0730_fw.mp4	0.0	178.53980422019958	
26	145.42392706871033	fix_post	2		12	24.0	2.5	/experiments/AOT/AOT_stimuli/rescaled_final/0730_fw.mp4	0.0	179.4563810825348	0.10047006607055664
27	145.52439713478088	fix_pre	0		120	25.0	2.5	/experiments/AOT/AOT_stimuli/rescaled_final/0619_rv.mp4	0.0	179.55685114860535	0.9999260902404785
27	146.10781407356262	pulse	0	t		25.0	2.5	/experiments/AOT/AOT_stimuli/rescaled_final/0619_rv.mp4	0.0	180.14026808738708	
27	146.52432322502136	movie	1		243	25.0	2.5	/experiments/AOT/AOT_stimuli/rescaled_final/0619_rv.mp4	0.0	180.55677723884583	2.499973773956299
27	147.70784616470337	pulse	1	t		25.0	2.5	/experiments/AOT/AOT_stimuli/rescaled_final/0619_rv.mp4	0.0	181.74030017852783	
27	149.02429699897766	fix_post	2		12	25.0	2.5	/experiments/AOT/AOT_stimuli/rescaled_final/0619_rv.mp4	0.0	183.05675101280212	0.10001301765441895
28	149.12431001663208	fix_pre	0		120	26.0	2.5	/experiments/AOT/AOT_stimuli/rescaled_final/1314_fw.mp4	0.0	183.15676403045654	0.9996631145477295
28	149.3077471256256	pulse	0	t		26.0	2.5	/experiments/AOT/AOT_stimuli/rescaled_final/1314_fw.mp4	0.0	183.34020113945007	
28	150.1239731311798	movie	1		244	26.0	2.5	/experiments/AOT/AOT_stimuli/rescaled_final/1314_fw.mp4	0.0	184.15642714500427	2.5003039836883545
28	150.90773105621338	pulse	1	t		26.0	2.5	/experiments/AOT/AOT_stimuli/rescaled_final/1314_fw.mp4	0.0	184.94018507003784	
28	152.5060851573944	pulse	1	t		26.0	2.5	/experiments/AOT/AOT_stimuli/rescaled_final/1314_fw.mp4	0.0	186.53853917121887	
28	152.62427711486816	fix_post	2		12	26.0	2.5	/experiments/AOT/AOT_stimuli/rescaled_final/1314_fw.mp4	0.0	186.65673112869263	0.10002589225769043
29	152.72430300712585	fix_pre	0		120	27.0	2.5	blank	1.0	186.75675702095032	0.9999840259552002
29	153.72428703308105	movie	1		300	27.0	2.5	blank	1.0	187.75674104690552	2.4999890327453613
29	154.10777401924133	pulse	1	t		27.0	2.5	blank	1.0	188.1402280330658	
29	155.70771503448486	pulse	1	t		27.0	2.5	blank	1.0	189.74016904830933	
29	156.22427606582642	fix_post	2		12	27.0	2.5	blank	1.0	190.25673007965088	0.100006103515625
30	156.32428216934204	fix_pre	0		119	28.0	2.5	/experiments/AOT/AOT_stimuli/rescaled_final/1484_fw.mp4	0.0	190.3567361831665	0.9916129112243652
30	157.30768299102783	pulse	0	t		28.0	2.5	/experiments/AOT/AOT_stimuli/rescaled_final/1484_fw.mp4	0.0	191.3401370048523	
30	157.3158950805664	movie	1		245	28.0	2.5	/experiments/AOT/AOT_stimuli/rescaled_final/1484_fw.mp4	0.0	191.34834909439087	2.507978916168213
30	158.90718722343445	pulse	1	t		28.0	2.5	/experiments/AOT/AOT_stimuli/rescaled_final/1484_fw.mp4	0.0	192.9396412372589	
30	159.82387399673462	fix_post	2		12	28.0	2.5	/experiments/AOT/AOT_stimuli/rescaled_final/1484_fw.mp4	0.0	193.85632801055908	0.10032105445861816
31	159.92419505119324	fix_pre	0		120	29.0	2.5	/experiments/AOT/AOT_stimuli/rescaled_final/0512_rv.mp4	0.0	193.9566490650177	0.9996600151062012
31	160.5077941417694	pulse	0	t		29.0	2.5	/experiments/AOT/AOT_stimuli/rescaled_final/0512_rv.mp4	0.0	194.54024815559387	
31	160.92385506629944	movie	1		247	29.0	2.5	/experiments/AOT/AOT_stimuli/rescaled_final/0512_rv.mp4	0.0	194.9563090801239	2.500429153442383
31	162.10781717300415	pulse	1	t		29.0	2.5	/experiments/AOT/AOT_stimuli/rescaled_final/0512_rv.mp4	0.0	196.1402711868286	
31	163.42428421974182	fix_post	2		12	29.0	2.5	/experiments/AOT/AOT_stimuli/rescaled_final/0512_rv.mp4	0.0	197.45673823356628	0.09991693496704102
32	163.52420115470886	fix_pre	0		120	30.0	2.5	/experiments/AOT/AOT_stimuli/rescaled_final/1117_rv.mp4	0.0	197.55665516853333	0.9996030330657959
32	163.7077281475067	pulse	0	t		30.0	2.5	/experiments/AOT/AOT_stimuli/rescaled_final/1117_rv.mp4	0.0	197.74018216133118	
32	164.52380418777466	movie	1		244	30.0	2.5	/experiments/AOT/AOT_stimuli/rescaled_final/1117_rv.mp4	0.0	198.55625820159912	2.5003700256347656
32	165.3077371120453	pulse	1	t		30.0	2.5	/experiments/AOT/AOT_stimuli/rescaled_final/1117_rv.mp4	0.0	199.34019112586975	
32	166.90638899803162	pulse	1	t		30.0	2.5	/experiments/AOT/AOT_stimuli/rescaled_final/1117_rv.mp4	0.0	200.93884301185608	
32	167.02417421340942	fix_post	2		12	30.0	2.5	/experiments/AOT/AOT_stimuli/rescaled_final/1117_rv.mp4	0.0	201.0566282272339	0.10000395774841309
33	167.12417817115784	fix_pre	0		120	31.0	2.5	/experiments/AOT/AOT_stimuli/rescaled_final/0663_rv.mp4	0.0	201.1566321849823	1.0000698566436768
33	168.1242480278015	movie	1		246	31.0	2.5	/experiments/AOT/AOT_stimuli/rescaled_final/0663_rv.mp4	0.0	202.15670204162598	2.4998981952667236
33	168.50732803344727	pulse	1	t		31.0	2.5	/experiments/AOT/AOT_stimuli/rescaled_final/0663_rv.mp4	0.0	202.53978204727173	
33	170.10764718055725	pulse	1	t		31.0	2.5	/experiments/AOT/AOT_stimuli/rescaled_final/0663_rv.mp4	0.0	204.1401011943817	
33	170.62414622306824	fix_post	2		12	31.0	2.5	/experiments/AOT/AOT_stimuli/rescaled_final/0663_rv.mp4	0.0	204.6566002368927	0.10005784034729004
34	170.72420406341553	fix_pre	0		119	32.0	2.5	/experiments/AOT/AOT_stimuli/rescaled_final/1084_fw.mp4	0.0	204.75665807724	0.9917280673980713
34	171.70778512954712	pulse	0	t		32.0	2.5	/experiments/AOT/AOT_stimuli/rescaled_final/1084_fw.mp4	0.0	205.74023914337158	
34	171.7159321308136	movie	1		246	32.0	2.5	/experiments/AOT/AOT_stimuli/rescaled_final/1084_fw.mp4	0.0	205.74838614463806	2.5077710151672363
34	173.30727005004883	pulse	1	t		32.0	2.5	/experiments/AOT/AOT_stimuli/rescaled_final/1084_fw.mp4	0.0	207.3397240638733	
34	174.22370314598083	fix_post	2		12	32.0	2.5	/experiments/AOT/AOT_stimuli/rescaled_final/1084_fw.mp4	0.0	208.2561571598053	0.10042405128479004
35	174.32412719726562	fix_pre	0		120	33.0	2.5	/experiments/AOT/AOT_stimuli/rescaled_final/1097_fw.mp4	0.0	208.3565812110901	1.0000238418579102
35	174.90769004821777	pulse	0	t		33.0	2.5	/experiments/AOT/AOT_stimuli/rescaled_final/1097_fw.mp4	0.0	208.94014406204224	
35	175.32415103912354	movie	1		246	33.0	2.5	/experiments/AOT/AOT_stimuli/rescaled_final/1097_fw.mp4	0.0	209.356605052948	2.4999680519104004
35	176.5077781677246	pulse	1	t		33.0	2.5	/experiments/AOT/AOT_stimuli/rescaled_final/1097_fw.mp4	0.0	210.54023218154907	
35	177.82411909103394	fix_post	2		12	33.0	2.5	/experiments/AOT/AOT_stimuli/rescaled_final/1097_fw.mp4	0.0	211.8565731048584	0.0996088981628418
36	177.92372798919678	fix_pre	0		120	34.0	2.5	blank	1.0	211.95618200302124	1.0004692077636719
36	178.10774612426758	pulse	0	t		34.0	2.5	blank	1.0	212.14020013809204	
36	178.92419719696045	movie	1		300	34.0	2.5	blank	1.0	212.9566512107849	2.49996280670166
36	179.70770001411438	pulse	1	t		34.0	2.5	blank	1.0	213.74015402793884	
36	181.30765414237976	pulse	1	t		34.0	2.5	blank	1.0	215.34010815620422	
36	181.4241600036621	fix_post	2		12	34.0	2.5	blank	1.0	215.45661401748657	0.09997415542602539
37	181.52413415908813	fix_pre	0		120	35.0	2.5	/experiments/AOT/AOT_stimuli/rescaled_final/1822_rv.mp4	0.0	215.5565881729126	0.9999659061431885
37	182.52410006523132	movie	1		246	35.0	2.5	/experiments/AOT/AOT_stimuli/rescaled_final/1822_rv.mp4	0.0	216.5565540790558	2.499603033065796
37	182.90725898742676	pulse	1	t		35.0	2.5	/experiments/AOT/AOT_stimuli/rescaled_final/1822_rv.mp4	0.0	216.93971300125122	
37	184.5076310634613	pulse	1	t		35.0	2.5	/experiments/AOT/AOT_stimuli/rescaled_final/1822_rv.mp4	0.0	218.54008507728577	
37	185.02370309829712	fix_post	2		12	35.0	2.5	/experiments/AOT/AOT_stimuli/rescaled_final/1822_rv.mp4	0.0	219.05615711212158	0.10048389434814453
38	185.12418699264526	fix_pre	0		119	36.0	2.5	/experiments/AOT/AOT_stimuli/rescaled_final/1766_fw.mp4	0.0	219.15664100646973	0.9916200637817383
38	186.10766100883484	pulse	0	t		36.0	2.5	/experiments/AOT/AOT_stimuli/rescaled_final/1766_fw.mp4	0.0	220.1401150226593	
38	186.115807056427	movie	1		245	36.0	2.5	/experiments/AOT/AOT_stimuli/rescaled_final/1766_fw.mp4	0.0	220.14826107025146	2.508312940597534
38	187.70712018013	pulse	1	t		36.0	2.5	/experiments/AOT/AOT_stimuli/rescaled_final/1766_fw.mp4	0.0	221.73957419395447	
38	188.62411999702454	fix_post	2		12	36.0	2.5	/experiments/AOT/AOT_stimuli/rescaled_final/1766_fw.mp4	0.0	222.656574010849	0.09995603561401367
39	188.72407603263855	fix_pre	0		120	37.0	2.5	/experiments/AOT/AOT_stimuli/rescaled_final/0619_fw.mp4	0.0	222.756530046463	0.9999749660491943
39	189.30758619308472	pulse	0	t		37.0	2.5	/experiments/AOT/AOT_stimuli/rescaled_final/0619_fw.mp4	0.0	223.34004020690918	
39	189.72405099868774	movie	1		243	37.0	2.5	/experiments/AOT/AOT_stimuli/rescaled_final/0619_fw.mp4	0.0	223.7565050125122	2.5000991821289062
39	190.90764713287354	pulse	1	t		37.0	2.5	/experiments/AOT/AOT_stimuli/rescaled_final/0619_fw.mp4	0.0	224.940101146698	
39	192.22415018081665	fix_post	2		12	37.0	2.5	/experiments/AOT/AOT_stimuli/rescaled_final/0619_fw.mp4	0.0	226.2566041946411	0.09999895095825195
40	192.3241491317749	fix_pre	0		120	38.0	2.5	/experiments/AOT/AOT_stimuli/rescaled_final/0001_fw.mp4	0.0	226.35660314559937	0.9998559951782227
40	192.50769114494324	pulse	0	t		38.0	2.5	/experiments/AOT/AOT_stimuli/rescaled_final/0001_fw.mp4	0.0	226.5401451587677	
40	193.32400512695312	movie	1		246	38.0	2.5	/experiments/AOT/AOT_stimuli/rescaled_final/0001_fw.mp4	0.0	227.3564591407776	2.5000669956207275
40	194.10774517059326	pulse	1	t		38.0	2.5	/experiments/AOT/AOT_stimuli/rescaled_final/0001_fw.mp4	0.0	228.14019918441772	
40	195.70722603797913	pulse	1	t		38.0	2.5	/experiments/AOT/AOT_stimuli/rescaled_final/0001_fw.mp4	0.0	229.7396800518036	
40	195.82407212257385	fix_post	2		12	38.0	2.5	/experiments/AOT/AOT_stimuli/rescaled_final/0001_fw.mp4	0.0	229.85652613639832	0.09999608993530273
41	195.92406821250916	fix_pre	0		120	39.0	2.5	/experiments/AOT/AOT_stimuli/rescaled_final/1317_fw.mp4	0.0	229.95652222633362	0.9996809959411621
41	196.92374920845032	movie	1		245	39.0	2.5	/experiments/AOT/AOT_stimuli/rescaled_final/1317_fw.mp4	0.0	230.95620322227478	2.5004568099975586
41	197.3087019920349	pulse	1	t		39.0	2.5	/experiments/AOT/AOT_stimuli/rescaled_final/1317_fw.mp4	0.0	231.34115600585938	
41	198.90745520591736	pulse	1	t		39.0	2.5	/experiments/AOT/AOT_stimuli/rescaled_final/1317_fw.mp4	0.0	232.93990921974182	
41	199.42420601844788	fix_post	2		12	39.0	2.5	/experiments/AOT/AOT_stimuli/rescaled_final/1317_fw.mp4	0.0	233.45666003227234	0.0998830795288086
42	199.52408909797668	fix_pre	0		119	40.0	2.5	/experiments/AOT/AOT_stimuli/rescaled_final/1066_rv.mp4	0.0	233.55654311180115	0.9916698932647705
42	200.5075261592865	pulse	0	t		40.0	2.5	/experiments/AOT/AOT_stimuli/rescaled_final/1066_rv.mp4	0.0	234.53998017311096	
42	200.51575899124146	movie	1		246	40.0	2.5	/experiments/AOT/AOT_stimuli/rescaled_final/1066_rv.mp4	0.0	234.54821300506592	2.5083420276641846
42	202.10695719718933	pulse	1	t		40.0	2.5	/experiments/AOT/AOT_stimuli/rescaled_final/1066_rv.mp4	0.0	236.1394112110138	
42	203.02410101890564	fix_post	2		12	40.0	2.5	/experiments/AOT/AOT_stimuli/rescaled_final/1066_rv.mp4	0.0	237.0565550327301	0.09994196891784668
43	203.1240429878235	fix_pre	0		120	41.0	2.5	blank	1.0	237.15649700164795	1.0001091957092285
43	203.707515001297	pulse	0	t		41.0	2.5	blank	1.0	237.73996901512146	
43	204.12415218353271	movie	1		300	41.0	2.5	blank	1.0	238.15660619735718	2.499863862991333
43	205.30751514434814	pulse	1	t		41.0	2.5	blank	1.0	239.3399691581726	
43	206.62401604652405	fix_post	2		12	41.0	2.5	blank	1.0	240.6564700603485	0.10002017021179199
44	206.72403621673584	fix_pre	0		120	42.0	2.5	/experiments/AOT/AOT_stimuli/rescaled_final/1854_rv.mp4	0.0	240.7564902305603	0.9999949932098389
44	206.90751814842224	pulse	0	t		42.0	2.5	/experiments/AOT/AOT_stimuli/rescaled_final/1854_rv.mp4	0.0	240.9399721622467	
44	207.72403120994568	movie	1		245	42.0	2.5	/experiments/AOT/AOT_stimuli/rescaled_final/1854_rv.mp4	0.0	241.75648522377014	2.499635934829712
44	208.50738906860352	pulse	1	t		42.0	2.5	/experiments/AOT/AOT_stimuli/rescaled_final/1854_rv.mp4	0.0	242.53984308242798	
44	210.10750603675842	pulse	1	t		42.0	2.5	/experiments/AOT/AOT_stimuli/rescaled_final/1854_rv.mp4	0.0	244.13996005058289	
44	210.2236671447754	fix_post	2		12	42.0	2.5	/experiments/AOT/AOT_stimuli/rescaled_final/1854_rv.mp4	0.0	244.25612115859985	0.10032796859741211
45	210.3239951133728	fix_pre	0		120	43.0	2.5	/experiments/AOT/AOT_stimuli/rescaled_final/1708_fw.mp4	0.0	244.35644912719727	1.000014066696167
45	211.32400918006897	movie	1		244	43.0	2.5	/experiments/AOT/AOT_stimuli/rescaled_final/1708_fw.mp4	0.0	245.35646319389343	2.4999890327453613
45	211.70759415626526	pulse	1	t		43.0	2.5	/experiments/AOT/AOT_stimuli/rescaled_final/1708_fw.mp4	0.0	245.74004817008972	
45	213.30733704566956	pulse	1	t		43.0	2.5	/experiments/AOT/AOT_stimuli/rescaled_final/1708_fw.mp4	0.0	247.33979105949402	
45	213.82399821281433	fix_post	2		12	43.0	2.5	/experiments/AOT/AOT_stimuli/rescaled_final/1708_fw.mp4	0.0	247.8564522266388	0.09956693649291992
46	213.92356514930725	fix_pre	0		119	44.0	2.5	/experiments/AOT/AOT_stimuli/rescaled_final/0988_rv.mp4	0.0	247.9560191631317	0.992189884185791
46	214.90749406814575	pulse	0	t		44.0	2.5	/experiments/AOT/AOT_stimuli/rescaled_final/0988_rv.mp4	0.0	248.93994808197021	
46	214.91575503349304	movie	1		246	44.0	2.5	/experiments/AOT/AOT_stimuli/rescaled_final/0988_rv.mp4	0.0	248.9482090473175	2.5081939697265625
46	216.50862216949463	pulse	1	t		44.0	2.5	/experiments/AOT/AOT_stimuli/rescaled_final/0988_rv.mp4	0.0	250.5410761833191	
46	217.4239490032196	fix_post	2		12	44.0	2.5	/experiments/AOT/AOT_stimuli/rescaled_final/0988_rv.mp4	0.0	251.45640301704407	0.09996604919433594
47	217.52391505241394	fix_pre	0		120	45.0	2.5	/experiments/AOT/AOT_stimuli/rescaled_final/0199_rv.mp4	0.0	251.5563690662384	0.9996471405029297
47	218.10753107070923	pulse	0	t		45.0	2.5	/experiments/AOT/AOT_stimuli/rescaled_final/0199_rv.mp4	0.0	252.1399850845337	
47	218.52356219291687	movie	1		246	45.0	2.5	/experiments/AOT/AOT_stimuli/rescaled_final/0199_rv.mp4	0.0	252.55601620674133	2.5003700256347656
47	219.70757222175598	pulse	1	t		45.0	2.5	/experiments/AOT/AOT_stimuli/rescaled_final/0199_rv.mp4	0.0	253.74002623558044	
47	221.02393221855164	fix_post	2		12	45.0	2.5	/experiments/AOT/AOT_stimuli/rescaled_final/0199_rv.mp4	0.0	255.0563862323761	0.10001182556152344
48	221.12394404411316	fix_pre	0		120	46.0	2.5	/experiments/AOT/AOT_stimuli/rescaled_final/1830_rv.mp4	0.0	255.15639805793762	0.999981164932251
48	221.3074140548706	pulse	0	t		46.0	2.5	/experiments/AOT/AOT_stimuli/rescaled_final/1830_rv.mp4	0.0	255.33986806869507	
48	222.1239252090454	movie	1		244	46.0	2.5	/experiments/AOT/AOT_stimuli/rescaled_final/1830_rv.mp4	0.0	256.1563792228699	2.4999969005584717
48	222.90765810012817	pulse	1	t		46.0	2.5	/experiments/AOT/AOT_stimuli/rescaled_final/1830_rv.mp4	0.0	256.94011211395264	
48	224.51578211784363	pulse	1	t		46.0	2.5	/experiments/AOT/AOT_stimuli/rescaled_final/1830_rv.mp4	0.0	258.5482361316681	
48	224.62392210960388	fix_post	2		12	46.0	2.5	/experiments/AOT/AOT_stimuli/rescaled_final/1830_rv.mp4	0.0	258.65637612342834	0.09997105598449707
49	224.72389316558838	fix_pre	0		120	47.0	2.5	blank	1.0	258.75634717941284	1.000079870223999
49	225.72397303581238	movie	1		300	47.0	2.5	blank	1.0	259.75642704963684	2.49993896484375
49	226.10735321044922	pulse	1	t		47.0	2.5	blank	1.0	260.1398072242737	
49	227.70747113227844	pulse	1	t		47.0	2.5	blank	1.0	261.7399251461029	
49	228.22391200065613	fix_post	2		12	47.0	2.5	blank	1.0	262.2563660144806	0.10008001327514648
50	228.32399201393127	fix_pre	0		119	48.0	2.5	/experiments/AOT/AOT_stimuli/rescaled_final/1993_fw.mp4	0.0	262.35644602775574	0.9916532039642334
50	229.3074140548706	pulse	0	t		48.0	2.5	/experiments/AOT/AOT_stimuli/rescaled_final/1993_fw.mp4	0.0	263.33986806869507	
50	229.3156452178955	movie	1		246	48.0	2.5	/experiments/AOT/AOT_stimuli/rescaled_final/1993_fw.mp4	0.0	263.34809923171997	2.508187770843506
50	230.90713214874268	pulse	1	t		48.0	2.5	/experiments/AOT/AOT_stimuli/rescaled_final/1993_fw.mp4	0.0	264.93958616256714	
50	231.823832988739	fix_post	2		12	48.0	2.5	/experiments/AOT/AOT_stimuli/rescaled_final/1993_fw.mp4	0.0	265.8562870025635	0.09964799880981445
51	231.92348098754883	fix_pre	0		120	49.0	2.5	/experiments/AOT/AOT_stimuli/rescaled_final/0591_rv.mp4	0.0	265.9559350013733	1.0004611015319824
51	232.50739121437073	pulse	0	t		49.0	2.5	/experiments/AOT/AOT_stimuli/rescaled_final/0591_rv.mp4	0.0	266.5398452281952	
51	232.9239420890808	movie	1		243	49.0	2.5	/experiments/AOT/AOT_stimuli/rescaled_final/0591_rv.mp4	0.0	266.9563961029053	2.500067949295044
51	234.10749006271362	pulse	1	t		49.0	2.5	/experiments/AOT/AOT_stimuli/rescaled_final/0591_rv.mp4	0.0	268.1399440765381	
51	235.42401003837585	fix_post	2		12	49.0	2.5	/experiments/AOT/AOT_stimuli/rescaled_final/0591_rv.mp4	0.0	269.4564640522003	0.099822998046875
52	235.52383303642273	fix_pre	0		120	50.0	2.5	/experiments/AOT/AOT_stimuli/rescaled_final/0329_rv.mp4	0.0	269.5562870502472	1.0000240802764893
52	235.70736408233643	pulse	0	t		50.0	2.5	/experiments/AOT/AOT_stimuli/rescaled_final/0329_rv.mp4	0.0	269.7398180961609	
52	236.52385711669922	movie	1		245	50.0	2.5	/experiments/AOT/AOT_stimuli/rescaled_final/0329_rv.mp4	0.0	270.5563111305237	2.5000669956207275
52	237.30739521980286	pulse	1	t		50.0	2.5	/experiments/AOT/AOT_stimuli/rescaled_final/0329_rv.mp4	0.0	271.3398492336273	
52	238.91577005386353	pulse	1	t		50.0	2.5	/experiments/AOT/AOT_stimuli/rescaled_final/0329_rv.mp4	0.0	272.948224067688	
52	239.02392411231995	fix_post	2		12	50.0	2.5	/experiments/AOT/AOT_stimuli/rescaled_final/0329_rv.mp4	0.0	273.0563781261444	0.09988999366760254
53	239.12381410598755	fix_pre	0		120	51.0	2.5	/experiments/AOT/AOT_stimuli/rescaled_final/1435_rv.mp4	0.0	273.156268119812	1.0000190734863281
53	240.12383317947388	movie	1		243	51.0	2.5	/experiments/AOT/AOT_stimuli/rescaled_final/1435_rv.mp4	0.0	274.15628719329834	2.500016927719116
53	240.50688099861145	pulse	1	t		51.0	2.5	/experiments/AOT/AOT_stimuli/rescaled_final/1435_rv.mp4	0.0	274.5393350124359	
53	242.1073260307312	pulse	1	t		51.0	2.5	/experiments/AOT/AOT_stimuli/rescaled_final/1435_rv.mp4	0.0	276.13978004455566	
53	242.623850107193	fix_post	2		12	51.0	2.5	/experiments/AOT/AOT_stimuli/rescaled_final/1435_rv.mp4	0.0	276.65630412101746	0.10005807876586914
54	242.72390818595886	fix_pre	0		119	52.0	2.5	/experiments/AOT/AOT_stimuli/rescaled_final/1241_rv.mp4	0.0	276.7563621997833	0.9916210174560547
54	243.70739006996155	pulse	0	t		52.0	2.5	/experiments/AOT/AOT_stimuli/rescaled_final/1241_rv.mp4	0.0	277.739844083786	
54	243.71552920341492	movie	1		246	52.0	2.5	/experiments/AOT/AOT_stimuli/rescaled_final/1241_rv.mp4	0.0	277.7479832172394	2.508258819580078
54	245.30753207206726	pulse	1	t		52.0	2.5	/experiments/AOT/AOT_stimuli/rescaled_final/1241_rv.mp4	0.0	279.3399860858917	
54	246.223788022995	fix_post	2		12	52.0	2.5	/experiments/AOT/AOT_stimuli/rescaled_final/1241_rv.mp4	0.0	280.25624203681946	0.09971809387207031
55	246.32350611686707	fix_pre	0		120	53.0	2.5	/experiments/AOT/AOT_stimuli/rescaled_final/2071_rv.mp4	0.0	280.3559601306915	0.9998610019683838
55	246.90732312202454	pulse	0	t		53.0	2.5	/experiments/AOT/AOT_stimuli/rescaled_final/2071_rv.mp4	0.0	280.939777135849	
55	247.32336711883545	movie	1		244	53.0	2.5	/experiments/AOT/AOT_stimuli/rescaled_final/2071_rv.mp4	0.0	281.3558211326599	2.500446081161499
55	248.50739908218384	pulse	1	t		53.0	2.5	/experiments/AOT/AOT_stimuli/rescaled_final/2071_rv.mp4	0.0	282.5398530960083	
55	249.82381319999695	fix_post	2		12	53.0	2.5	/experiments/AOT/AOT_stimuli/rescaled_final/2071_rv.mp4	0.0	283.8562672138214	0.10012388229370117
56	249.92393708229065	fix_pre	0		120	54.0	2.5	/experiments/AOT/AOT_stimuli/rescaled_final/0234_fw.mp4	0.0	283.9563910961151	0.9999051094055176
56	250.1075541973114	pulse	0	t		54.0	2.5	/experiments/AOT/AOT_stimuli/rescaled_final/0234_fw.mp4	0.0	284.14000821113586	
56	250.92384219169617	movie	1		244	54.0	2.5	/experiments/AOT/AOT_stimuli/rescaled_final/0234_fw.mp4	0.0	284.95629620552063	2.5001559257507324
56	251.70689916610718	pulse	1	t		54.0	2.5	/experiments/AOT/AOT_stimuli/rescaled_final/0234_fw.mp4	0.0	285.73935317993164	
56	253.3074550628662	pulse	1	t		54.0	2.5	/experiments/AOT/AOT_stimuli/rescaled_final/0234_fw.mp4	0.0	287.3399090766907	
56	253.4239981174469	fix_post	2		12	54.0	2.5	/experiments/AOT/AOT_stimuli/rescaled_final/0234_fw.mp4	0.0	287.45645213127136	0.0996088981628418
57	253.52360701560974	fix_pre	0		120	55.0	2.5	/experiments/AOT/AOT_stimuli/rescaled_final/2041_fw.mp4	0.0	287.5560610294342	1.0001370906829834
57	254.52374410629272	movie	1		246	55.0	2.5	/experiments/AOT/AOT_stimuli/rescaled_final/2041_fw.mp4	0.0	288.5561981201172	2.5000319480895996
57	254.90682005882263	pulse	1	t		55.0	2.5	/experiments/AOT/AOT_stimuli/rescaled_final/2041_fw.mp4	0.0	288.9392740726471	
57	256.50719714164734	pulse	1	t		55.0	2.5	/experiments/AOT/AOT_stimuli/rescaled_final/2041_fw.mp4	0.0	290.5396511554718	
57	257.0237760543823	fix_post	2		12	55.0	2.5	/experiments/AOT/AOT_stimuli/rescaled_final/2041_fw.mp4	0.0	291.0562300682068	0.10008406639099121
58	257.1238601207733	fix_pre	0		119	56.0	2.5	blank	1.0	291.1563141345978	0.9916400909423828
58	258.10726618766785	pulse	0	t		56.0	2.5	blank	1.0	292.1397202014923	
58	258.1155002117157	movie	1		301	56.0	2.5	blank	1.0	292.14795422554016	2.507863998413086
58	259.7071771621704	pulse	1	t		56.0	2.5	blank	1.0	293.7396311759949	
58	260.6233642101288	fix_post	2		12	56.0	2.5	blank	1.0	294.65581822395325	0.10039401054382324
59	260.7237582206726	fix_pre	0		120	57.0	2.5	/experiments/AOT/AOT_stimuli/rescaled_final/1219_fw.mp4	0.0	294.75621223449707	0.9999938011169434
59	261.3071961402893	pulse	0	t		57.0	2.5	/experiments/AOT/AOT_stimuli/rescaled_final/1219_fw.mp4	0.0	295.33965015411377	
59	261.72375202178955	movie	1		246	57.0	2.5	/experiments/AOT/AOT_stimuli/rescaled_final/1219_fw.mp4	0.0	295.756206035614	2.499603033065796
59	262.907249212265	pulse	1	t		57.0	2.5	/experiments/AOT/AOT_stimuli/rescaled_final/1219_fw.mp4	0.0	296.9397032260895	
59	264.22335505485535	fix_post	2		12	57.0	2.5	/experiments/AOT/AOT_stimuli/rescaled_final/1219_fw.mp4	0.0	298.2558090686798	0.10033202171325684
60	264.3236870765686	fix_pre	0		120	58.0	2.5	/experiments/AOT/AOT_stimuli/rescaled_final/1925_fw.mp4	0.0	298.35614109039307	0.9996259212493896
60	264.5071461200714	pulse	0	t		58.0	2.5	/experiments/AOT/AOT_stimuli/rescaled_final/1925_fw.mp4	0.0	298.5396001338959	
60	265.323312997818	movie	1		244	58.0	2.5	/experiments/AOT/AOT_stimuli/rescaled_final/1925_fw.mp4	0.0	299.35576701164246	2.4999940395355225
60	266.10720205307007	pulse	1	t		58.0	2.5	/experiments/AOT/AOT_stimuli/rescaled_final/1925_fw.mp4	0.0	300.13965606689453	
60	267.7156271934509	pulse	1	t		58.0	2.5	/experiments/AOT/AOT_stimuli/rescaled_final/1925_fw.mp4	0.0	301.7480812072754	
60	267.8233070373535	fix_post	2		12	58.0	2.5	/experiments/AOT/AOT_stimuli/rescaled_final/1925_fw.mp4	0.0	301.855761051178	0.1004331111907959
61	267.9237401485443	fix_pre	0		120	59.0	2.5	/experiments/AOT/AOT_stimuli/rescaled_final/1443_rv.mp4	0.0	301.9561941623688	0.9999680519104004
61	268.9237082004547	movie	1		245	59.0	2.5	/experiments/AOT/AOT_stimuli/rescaled_final/1443_rv.mp4	0.0	302.9561622142792	2.4995839595794678
61	269.30660820007324	pulse	1	t		59.0	2.5	/experiments/AOT/AOT_stimuli/rescaled_final/1443_rv.mp4	0.0	303.3390622138977	
61	270.907133102417	pulse	1	t		59.0	2.5	/experiments/AOT/AOT_stimuli/rescaled_final/1443_rv.mp4	0.0	304.93958711624146	
61	271.4232921600342	fix_post	2		12	59.0	2.5	/experiments/AOT/AOT_stimuli/rescaled_final/1443_rv.mp4	0.0	305.45574617385864	0.10038185119628906
62	271.52367401123047	fix_pre	0		119	60.0	2.5	/experiments/AOT/AOT_stimuli/rescaled_final/1732_fw.mp4	0.0	305.55612802505493	0.9916651248931885
62	272.507187128067	pulse	0	t		60.0	2.5	/experiments/AOT/AOT_stimuli/rescaled_final/1732_fw.mp4	0.0	306.5396411418915	
62	272.51533913612366	movie	1		244	60.0	2.5	/experiments/AOT/AOT_stimuli/rescaled_final/1732_fw.mp4	0.0	306.5477931499481	2.5078959465026855
62	274.1082501411438	pulse	1	t		60.0	2.5	/experiments/AOT/AOT_stimuli/rescaled_final/1732_fw.mp4	0.0	308.14070415496826	
62	275.02323508262634	fix_post	2		12	60.0	2.5	/experiments/AOT/AOT_stimuli/rescaled_final/1732_fw.mp4	0.0	309.0556890964508	0.10045313835144043
63	275.1236882209778	fix_pre	0		120	61.0	2.5	blank	1.0	309.15614223480225	0.9999878406524658
63	275.70714116096497	pulse	0	t		61.0	2.5	blank	1.0	309.73959517478943	
63	276.12367606163025	movie	1		300	61.0	2.5	blank	1.0	310.1561300754547	2.5000641345977783
63	277.30711221694946	pulse	1	t		61.0	2.5	blank	1.0	311.3395662307739	
63	278.623740196228	fix_post	2		12	61.0	2.5	blank	1.0	312.6561942100525	0.09996199607849121
64	278.7237021923065	fix_pre	0		120	62.0	2.5	/experiments/AOT/AOT_stimuli/rescaled_final/0368_rv.mp4	0.0	312.756156206131	0.9995629787445068
64	278.90718817710876	pulse	0	t		62.0	2.5	/experiments/AOT/AOT_stimuli/rescaled_final/0368_rv.mp4	0.0	312.9396421909332	
64	279.723265171051	movie	1		247	62.0	2.5	/experiments/AOT/AOT_stimuli/rescaled_final/0368_rv.mp4	0.0	313.7557191848755	2.5003578662872314
64	280.5071611404419	pulse	1	t		62.0	2.5	/experiments/AOT/AOT_stimuli/rescaled_final/0368_rv.mp4	0.0	314.53961515426636	
64	282.107146024704	pulse	1	t		62.0	2.5	/experiments/AOT/AOT_stimuli/rescaled_final/0368_rv.mp4	0.0	316.13960003852844	
64	282.22362303733826	fix_post	2		12	62.0	2.5	/experiments/AOT/AOT_stimuli/rescaled_final/0368_rv.mp4	0.0	316.2560770511627	0.10008716583251953
65	282.3237102031708	fix_pre	0		120	63.0	2.5	/experiments/AOT/AOT_stimuli/rescaled_final/1179_fw.mp4	0.0	316.35616421699524	0.9999759197235107
65	283.3236861228943	movie	1		245	63.0	2.5	/experiments/AOT/AOT_stimuli/rescaled_final/1179_fw.mp4	0.0	317.35614013671875	2.499885082244873
65	283.70684003829956	pulse	1	t		63.0	2.5	/experiments/AOT/AOT_stimuli/rescaled_final/1179_fw.mp4	0.0	317.739294052124	
65	285.30728006362915	pulse	1	t		63.0	2.5	/experiments/AOT/AOT_stimuli/rescaled_final/1179_fw.mp4	0.0	319.3397340774536	
65	285.82357120513916	fix_post	2		12	63.0	2.5	/experiments/AOT/AOT_stimuli/rescaled_final/1179_fw.mp4	0.0	319.8560252189636	0.10004281997680664
66	285.92361402511597	fix_pre	0		119	64.0	2.5	/experiments/AOT/AOT_stimuli/rescaled_final/1417_fw.mp4	0.0	319.95606803894043	0.9917020797729492
66	286.9071750640869	pulse	0	t		64.0	2.5	/experiments/AOT/AOT_stimuli/rescaled_final/1417_fw.mp4	0.0	320.9396290779114	
66	286.9153161048889	movie	1		246	64.0	2.5	/experiments/AOT/AOT_stimuli/rescaled_final/1417_fw.mp4	0.0	320.9477701187134	2.508373975753784
66	288.50813817977905	pulse	1	t		64.0	2.5	/experiments/AOT/AOT_stimuli/rescaled_final/1417_fw.mp4	0.0	322.5405921936035	
66	289.4236900806427	fix_post	2		12	64.0	2.5	/experiments/AOT/AOT_stimuli/rescaled_final/1417_fw.mp4	0.0	323.45614409446716	0.09997105598449707
67	289.5236611366272	fix_pre	0		120	65.0	2.5	/experiments/AOT/AOT_stimuli/rescaled_final/0523_fw.mp4	0.0	323.55611515045166	1.0000510215759277
67	290.10719108581543	pulse	0	t		65.0	2.5	/experiments/AOT/AOT_stimuli/rescaled_final/0523_fw.mp4	0.0	324.1396450996399	
67	290.5237121582031	movie	1		245	65.0	2.5	/experiments/AOT/AOT_stimuli/rescaled_final/0523_fw.mp4	0.0	324.5561661720276	2.4994819164276123
67	291.70715498924255	pulse	1	t		65.0	2.5	/experiments/AOT/AOT_stimuli/rescaled_final/0523_fw.mp4	0.0	325.739609003067	
67	293.02319407463074	fix_post	2		12	65.0	2.5	/experiments/AOT/AOT_stimuli/rescaled_final/0523_fw.mp4	0.0	327.0556480884552	0.10051298141479492
68	293.12370705604553	fix_pre	0		120	66.0	2.5	/experiments/AOT/AOT_stimuli/rescaled_final/1682_rv.mp4	0.0	327.15616106987	0.9999160766601562
68	293.3071382045746	pulse	0	t		66.0	2.5	/experiments/AOT/AOT_stimuli/rescaled_final/1682_rv.mp4	0.0	327.33959221839905	
68	294.1236231327057	movie	1		245	66.0	2.5	/experiments/AOT/AOT_stimuli/rescaled_final/1682_rv.mp4	0.0	328.15607714653015	2.4995229244232178
68	294.9070930480957	pulse	1	t		66.0	2.5	/experiments/AOT/AOT_stimuli/rescaled_final/1682_rv.mp4	0.0	328.93954706192017	
68	296.50706720352173	pulse	1	t		66.0	2.5	/experiments/AOT/AOT_stimuli/rescaled_final/1682_rv.mp4	0.0	330.5395212173462	
68	296.6231460571289	fix_post	2		12	66.0	2.5	/experiments/AOT/AOT_stimuli/rescaled_final/1682_rv.mp4	0.0	330.65560007095337	0.10039496421813965
69	296.72354102134705	fix_pre	0		120	67.0	2.5	/experiments/AOT/AOT_stimuli/rescaled_final/1443_fw.mp4	0.0	330.7559950351715	1.0
69	297.72354102134705	movie	1		244	67.0	2.5	/experiments/AOT/AOT_stimuli/rescaled_final/1443_fw.mp4	0.0	331.7559950351715	2.4996211528778076
69	298.1065640449524	pulse	1	t		67.0	2.5	/experiments/AOT/AOT_stimuli/rescaled_final/1443_fw.mp4	0.0	332.13901805877686	
69	299.70708203315735	pulse	1	t		67.0	2.5	/experiments/AOT/AOT_stimuli/rescaled_final/1443_fw.mp4	0.0	333.7395360469818	
69	300.22316217422485	fix_post	2		12	67.0	2.5	/experiments/AOT/AOT_stimuli/rescaled_final/1443_fw.mp4	0.0	334.2556161880493	0.10033297538757324
70	300.3234951496124	fix_pre	0		119	68.0	2.5	/experiments/AOT/AOT_stimuli/rescaled_final/1016_fw.mp4	0.0	334.3559491634369	0.9917659759521484
70	301.3070909976959	pulse	0	t		68.0	2.5	/experiments/AOT/AOT_stimuli/rescaled_final/1016_fw.mp4	0.0	335.3395450115204	
70	301.3152611255646	movie	1		246	68.0	2.5	/experiments/AOT/AOT_stimuli/rescaled_final/1016_fw.mp4	0.0	335.34771513938904	2.5078749656677246
70	302.90672421455383	pulse	1	t		68.0	2.5	/experiments/AOT/AOT_stimuli/rescaled_final/1016_fw.mp4	0.0	336.9391782283783	
70	303.8231360912323	fix_post	2		12	68.0	2.5	/experiments/AOT/AOT_stimuli/rescaled_final/1016_fw.mp4	0.0	337.85559010505676	0.10043907165527344
71	303.9235751628876	fix_pre	0		120	69.0	2.5	/experiments/AOT/AOT_stimuli/rescaled_final/0979_fw.mp4	0.0	337.95602917671204	0.9994969367980957
71	304.50710821151733	pulse	0	t		69.0	2.5	/experiments/AOT/AOT_stimuli/rescaled_final/0979_fw.mp4	0.0	338.5395622253418	
71	304.92307209968567	movie	1		246	69.0	2.5	/experiments/AOT/AOT_stimuli/rescaled_final/0979_fw.mp4	0.0	338.95552611351013	2.5001699924468994
71	306.1071150302887	pulse	1	t		69.0	2.5	/experiments/AOT/AOT_stimuli/rescaled_final/0979_fw.mp4	0.0	340.13956904411316	
71	307.42324209213257	fix_post	2		12	69.0	2.5	/experiments/AOT/AOT_stimuli/rescaled_final/0979_fw.mp4	0.0	341.45569610595703	0.09992599487304688
72	307.5231680870056	fix_pre	0		120	70.0	2.5	blank	1.0	341.5556221008301	1.0000920295715332
72	307.7065861225128	pulse	0	t		70.0	2.5	blank	1.0	341.7390401363373	
72	308.52326011657715	movie	1		300	70.0	2.5	blank	1.0	342.5557141304016	2.5003530979156494
72	309.30680418014526	pulse	1	t		70.0	2.5	blank	1.0	343.3392581939697	
72	310.90701603889465	pulse	1	t		70.0	2.5	blank	1.0	344.9394700527191	
72	311.0236132144928	fix_post	2		12	70.0	2.5	blank	1.0	345.05606722831726	0.09989500045776367
73	311.12350821495056	fix_pre	0		120	71.0	2.5	/experiments/AOT/AOT_stimuli/rescaled_final/0772_fw.mp4	0.0	345.155962228775	0.99997878074646
73	312.123486995697	movie	1		245	71.0	2.5	/experiments/AOT/AOT_stimuli/rescaled_final/0772_fw.mp4	0.0	346.1559410095215	2.500012159347534
73	312.5066339969635	pulse	1	t		71.0	2.5	/experiments/AOT/AOT_stimuli/rescaled_final/0772_fw.mp4	0.0	346.53908801078796	
73	314.10703706741333	pulse	1	t		71.0	2.5	/experiments/AOT/AOT_stimuli/rescaled_final/0772_fw.mp4	0.0	348.1394910812378	
73	314.62349915504456	fix_post	2		12	71.0	2.5	/experiments/AOT/AOT_stimuli/rescaled_final/0772_fw.mp4	0.0	348.655953168869	0.09995484352111816
74	314.7234539985657	fix_pre	0		119	72.0	2.5	/experiments/AOT/AOT_stimuli/rescaled_final/0979_rv.mp4	0.0	348.75590801239014	0.9916560649871826
74	315.70695304870605	pulse	0	t		72.0	2.5	/experiments/AOT/AOT_stimuli/rescaled_final/0979_rv.mp4	0.0	349.7394070625305	
74	315.71511006355286	movie	1		246	72.0	2.5	/experiments/AOT/AOT_stimuli/rescaled_final/0979_rv.mp4	0.0	349.7475640773773	2.508355140686035
74	317.30728006362915	pulse	1	t		72.0	2.5	/experiments/AOT/AOT_stimuli/rescaled_final/0979_rv.mp4	0.0	351.3397340774536	
74	318.2234652042389	fix_post	2		12	72.0	2.5	/experiments/AOT/AOT_stimuli/rescaled_final/0979_rv.mp4	0.0	352.25591921806335	0.10001301765441895
75	318.3234782218933	fix_pre	0		120	73.0	2.5	/experiments/AOT/AOT_stimuli/rescaled_final/0032_fw.mp4	0.0	352.3559322357178	0.9995818138122559
75	318.90695810317993	pulse	0	t		73.0	2.5	/experiments/AOT/AOT_stimuli/rescaled_final/0032_fw.mp4	0.0	352.9394121170044	
75	319.32306003570557	movie	1		248	73.0	2.5	/experiments/AOT/AOT_stimuli/rescaled_final/0032_fw.mp4	0.0	353.35551404953003	2.5004470348358154
75	320.5069901943207	pulse	1	t		73.0	2.5	/experiments/AOT/AOT_stimuli/rescaled_final/0032_fw.mp4	0.0	354.53944420814514	
75	321.8235070705414	fix_post	2		12	73.0	2.5	/experiments/AOT/AOT_stimuli/rescaled_final/0032_fw.mp4	0.0	355.85596108436584	0.09996700286865234
76	321.92347407341003	fix_pre	0		120	74.0	2.5	/experiments/AOT/AOT_stimuli/rescaled_final/1822_rv.mp4	0.0	355.9559280872345	0.9999449253082275
76	322.10695004463196	pulse	0	t		74.0	2.5	/experiments/AOT/AOT_stimuli/rescaled_final/1822_rv.mp4	0.0	356.1394040584564	
76	322.92341899871826	movie	1		245	74.0	2.5	/experiments/AOT/AOT_stimuli/rescaled_final/1822_rv.mp4	0.0	356.9558730125427	2.500019073486328
76	323.7068991661072	pulse	1	t		74.0	2.5	/experiments/AOT/AOT_stimuli/rescaled_final/1822_rv.mp4	0.0	357.73935317993164	
76	325.31539511680603	pulse	1	t		74.0	2.5	/experiments/AOT/AOT_stimuli/rescaled_final/1822_rv.mp4	0.0	359.3478491306305	
76	325.4234380722046	fix_post	2		12	74.0	2.5	/experiments/AOT/AOT_stimuli/rescaled_final/1822_rv.mp4	0.0	359.45589208602905	0.10004210472106934
77	325.52348017692566	fix_pre	0		120	75.0	2.5	/experiments/AOT/AOT_stimuli/rescaled_final/0094_fw.mp4	0.0	359.5559341907501	1.0000529289245605
77	326.5235331058502	movie	1		248	75.0	2.5	/experiments/AOT/AOT_stimuli/rescaled_final/0094_fw.mp4	0.0	360.5559871196747	2.499866008758545
77	326.9081461429596	pulse	1	t		75.0	2.5	/experiments/AOT/AOT_stimuli/rescaled_final/0094_fw.mp4	0.0	360.94060015678406	
77	328.50691318511963	pulse	1	t		75.0	2.5	/experiments/AOT/AOT_stimuli/rescaled_final/0094_fw.mp4	0.0	362.5393671989441	
77	329.02339911460876	fix_post	2		12	75.0	2.5	/experiments/AOT/AOT_stimuli/rescaled_final/0094_fw.mp4	0.0	363.0558531284332	0.10007905960083008
78	329.1234781742096	fix_pre	0		119	76.0	2.5	blank	1.0	363.15593218803406	0.9915878772735596
78	330.1069550514221	pulse	0	t		76.0	2.5	blank	1.0	364.1394090652466	
78	330.11506605148315	movie	1		301	76.0	2.5	blank	1.0	364.1475200653076	2.5082950592041016
78	331.7068781852722	pulse	1	t		76.0	2.5	blank	1.0	365.7393321990967	
78	332.62336111068726	fix_post	2		12	76.0	2.5	blank	1.0	366.6558151245117	0.09966588020324707
79	332.7230269908905	fix_pre	0		120	77.0	2.5	/experiments/AOT/AOT_stimuli/rescaled_final/0755_rv.mp4	0.0	366.75548100471497	0.9999730587005615
79	333.3069500923157	pulse	0	t		77.0	2.5	/experiments/AOT/AOT_stimuli/rescaled_final/0755_rv.mp4	0.0	367.33940410614014	
79	333.72300004959106	movie	1		245	77.0	2.5	/experiments/AOT/AOT_stimuli/rescaled_final/0755_rv.mp4	0.0	367.7554540634155	2.4999890327453613
79	334.9069712162018	pulse	1	t		77.0	2.5	/experiments/AOT/AOT_stimuli/rescaled_final/0755_rv.mp4	0.0	368.93942523002625	
79	336.2229890823364	fix_post	2		12	77.0	2.5	/experiments/AOT/AOT_stimuli/rescaled_final/0755_rv.mp4	0.0	370.2554430961609	0.10035204887390137
80	336.3233411312103	fix_pre	0		120	78.0	2.5	/experiments/AOT/AOT_stimuli/rescaled_final/1621_fw.mp4	0.0	370.3557951450348	1.0001299381256104
80	336.50687313079834	pulse	0	t		78.0	2.5	/experiments/AOT/AOT_stimuli/rescaled_final/1621_fw.mp4	0.0	370.5393271446228	
80	337.32347106933594	movie	1		243	78.0	2.5	/experiments/AOT/AOT_stimuli/rescaled_final/1621_fw.mp4	0.0	371.3559250831604	2.4999849796295166
80	338.10686922073364	pulse	1	t		78.0	2.5	/experiments/AOT/AOT_stimuli/rescaled_final/1621_fw.mp4	0.0	372.1393232345581	
80	339.71527314186096	pulse	1	t		78.0	2.5	/experiments/AOT/AOT_stimuli/rescaled_final/1621_fw.mp4	0.0	373.7477271556854	
80	339.82345604896545	fix_post	2		12	78.0	2.5	/experiments/AOT/AOT_stimuli/rescaled_final/1621_fw.mp4	0.0	373.8559100627899	0.09952902793884277
81	339.9229850769043	fix_pre	0		120	79.0	2.5	/experiments/AOT/AOT_stimuli/rescaled_final/1682_fw.mp4	0.0	373.95543909072876	1.0003700256347656
81	340.92335510253906	movie	1		246	79.0	2.5	/experiments/AOT/AOT_stimuli/rescaled_final/1682_fw.mp4	0.0	374.9558091163635	2.4999899864196777
81	341.30706119537354	pulse	1	t		79.0	2.5	/experiments/AOT/AOT_stimuli/rescaled_final/1682_fw.mp4	0.0	375.339515209198	
81	342.906898021698	pulse	1	t		79.0	2.5	/experiments/AOT/AOT_stimuli/rescaled_final/1682_fw.mp4	0.0	376.93935203552246	
81	343.42334508895874	fix_post	2		12	79.0	2.5	/experiments/AOT/AOT_stimuli/rescaled_final/1682_fw.mp4	0.0	377.4557991027832	0.09999513626098633
82	343.5233402252197	fix_pre	0		119	80.0	2.5	/experiments/AOT/AOT_stimuli/rescaled_final/0717_rv.mp4	0.0	377.5557942390442	0.9916319847106934
82	344.5069041252136	pulse	0	t		80.0	2.5	/experiments/AOT/AOT_stimuli/rescaled_final/0717_rv.mp4	0.0	378.5393581390381	
82	344.5149722099304	movie	1		248	80.0	2.5	/experiments/AOT/AOT_stimuli/rescaled_final/0717_rv.mp4	0.0	378.5474262237549	2.508500814437866
82	346.10625100135803	pulse	1	t		80.0	2.5	/experiments/AOT/AOT_stimuli/rescaled_final/0717_rv.mp4	0.0	380.1387050151825	
82	347.0234730243683	fix_post	2		12	80.0	2.5	/experiments/AOT/AOT_stimuli/rescaled_final/0717_rv.mp4	0.0	381.05592703819275	0.09983706474304199
83	347.1233100891113	fix_pre	0		120	81.0	2.5	/experiments/AOT/AOT_stimuli/rescaled_final/0261_fw.mp4	0.0	381.1557641029358	1.0001161098480225
83	347.7069101333618	pulse	0	t		81.0	2.5	/experiments/AOT/AOT_stimuli/rescaled_final/0261_fw.mp4	0.0	381.7393641471863	
83	348.12342619895935	movie	1		248	81.0	2.5	/experiments/AOT/AOT_stimuli/rescaled_final/0261_fw.mp4	0.0	382.1558802127838	2.4995059967041016
83	349.30693006515503	pulse	1	t		81.0	2.5	/experiments/AOT/AOT_stimuli/rescaled_final/0261_fw.mp4	0.0	383.3393840789795	
83	350.62293219566345	fix_post	2		12	81.0	2.5	/experiments/AOT/AOT_stimuli/rescaled_final/0261_fw.mp4	0.0	384.6553862094879	0.10005593299865723
84	350.7229881286621	fix_pre	0		120	82.0	2.5	/experiments/AOT/AOT_stimuli/rescaled_final/1030_rv.mp4	0.0	384.7554421424866	0.9999260902404785
84	350.9069402217865	pulse	0	t		82.0	2.5	/experiments/AOT/AOT_stimuli/rescaled_final/1030_rv.mp4	0.0	384.93939423561096	
84	351.7229142189026	movie	1		246	82.0	2.5	/experiments/AOT/AOT_stimuli/rescaled_final/1030_rv.mp4	0.0	385.75536823272705	2.5000569820404053
84	352.50676918029785	pulse	1	t		82.0	2.5	/experiments/AOT/AOT_stimuli/rescaled_final/1030_rv.mp4	0.0	386.5392231941223	
84	354.10722303390503	pulse	1	t		82.0	2.5	/experiments/AOT/AOT_stimuli/rescaled_final/1030_rv.mp4	0.0	388.1396770477295	
84	354.222971200943	fix_post	2		12	82.0	2.5	/experiments/AOT/AOT_stimuli/rescaled_final/1030_rv.mp4	0.0	388.25542521476746	0.10040783882141113
85	354.3233790397644	fix_pre	0		120	83.0	2.5	blank	1.0	388.35583305358887	0.9999411106109619
85	355.32332015037537	movie	1		300	83.0	2.5	blank	1.0	389.35577416419983	2.5000569820404053
85	355.70681619644165	pulse	1	t		83.0	2.5	blank	1.0	389.7392702102661	
85	357.30674600601196	pulse	1	t		83.0	2.5	blank	1.0	391.3392000198364	
85	357.82337713241577	fix_post	2		12	83.0	2.5	blank	1.0	391.85583114624023	0.09952497482299805
87	357.92290210723877	stim	0		1716					391.95535612106323	14.30037808418274
87	358.9067611694336	pulse	0	t						392.93921518325806	
87	360.50685119628906	pulse	0	t						394.5393052101135	
87	362.1076591014862	pulse	0	t						396.14011311531067	
87	363.7073001861572	pulse	0	t						397.7397541999817	
87	365.3074140548706	pulse	0	t						399.33986806869507	
87	366.90674209594727	pulse	0	t						400.93919610977173	
87	368.5067369937897	pulse	0	t						402.53919100761414	
87	370.1067681312561	pulse	0	t						404.13922214508057	
87	371.70666122436523	pulse	0	t						405.7391152381897	
