trial_nr	onset	event_type	phase	response	nr_frames	movie_index	movie_duration	movie_file	blank	onset_abs	duration
0	0.14990687370300293	stim	0		35					22.438982009887695	0.29161691665649414
0	0.43364596366882324	response	0	space						22.722721099853516	
1	0.44152379035949707	stim	0		4680					22.73059892654419	38.99984407424927
1	39.436691999435425	pulse	0	t						61.72576713562012	
1	39.441367864608765	stim	1		1717					61.73044300079346	14.308372020721436
1	41.03326487541199	pulse	1	t						63.32234001159668	
1	42.63324594497681	pulse	1	t						64.9223210811615	
1	44.22564196586609	pulse	1	t						66.51471710205078	
1	45.82577300071716	pulse	1	t						68.11484813690186	
1	47.43293499946594	pulse	1	t						69.72201013565063	
1	49.025895833969116	pulse	1	t						71.31497097015381	
1	50.62567186355591	pulse	1	t						72.9147469997406	
1	52.225650787353516	pulse	1	t						74.51472592353821	
2	53.7497398853302	fix_pre	0		11	0.0	2.5	/experiments/AOT/AOT_stimuli/rescaled_final/1094_rv.mp4	0.0	76.03881502151489	0.0917050838470459
2	53.83313798904419	pulse	0	t		0.0	2.5	/experiments/AOT/AOT_stimuli/rescaled_final/1094_rv.mp4	0.0	76.12221312522888	
2	53.841444969177246	movie	1		242	0.0	2.5	/experiments/AOT/AOT_stimuli/rescaled_final/1094_rv.mp4	0.0	76.13052010536194	2.508147954940796
2	55.43254780769348	pulse	1	t		0.0	2.5	/experiments/AOT/AOT_stimuli/rescaled_final/1094_rv.mp4	0.0	77.72162294387817	
2	56.34959292411804	fix_post	2		12	0.0	2.5	/experiments/AOT/AOT_stimuli/rescaled_final/1094_rv.mp4	0.0	78.63866806030273	0.10001087188720703
3	56.44960379600525	fix_pre	0		120	1.0	2.5	/experiments/AOT/AOT_stimuli/rescaled_final/1700_rv.mp4	0.0	78.73867893218994	1.0000991821289062
3	57.033068895339966	pulse	0	t		1.0	2.5	/experiments/AOT/AOT_stimuli/rescaled_final/1700_rv.mp4	0.0	79.32214403152466	
3	57.449702978134155	movie	1		244	1.0	2.5	/experiments/AOT/AOT_stimuli/rescaled_final/1700_rv.mp4	0.0	79.73877811431885	2.499845027923584
3	58.63319182395935	pulse	1	t		1.0	2.5	/experiments/AOT/AOT_stimuli/rescaled_final/1700_rv.mp4	0.0	80.92226696014404	
3	59.94954800605774	fix_post	2		12	1.0	2.5	/experiments/AOT/AOT_stimuli/rescaled_final/1700_rv.mp4	0.0	82.23862314224243	0.10018181800842285
4	60.04972982406616	fix_pre	0		120	2.0	2.5	/experiments/AOT/AOT_stimuli/rescaled_final/0777_fw.mp4	0.0	82.33880496025085	0.9998950958251953
4	60.23312187194824	pulse	0	t		2.0	2.5	/experiments/AOT/AOT_stimuli/rescaled_final/0777_fw.mp4	0.0	82.52219700813293	
4	61.04962491989136	movie	1		246	2.0	2.5	/experiments/AOT/AOT_stimuli/rescaled_final/0777_fw.mp4	0.0	83.33870005607605	2.499933958053589
4	61.83304500579834	pulse	1	t		2.0	2.5	/experiments/AOT/AOT_stimuli/rescaled_final/0777_fw.mp4	0.0	84.12212014198303	
4	63.43184995651245	pulse	1	t		2.0	2.5	/experiments/AOT/AOT_stimuli/rescaled_final/0777_fw.mp4	0.0	85.72092509269714	
4	63.549558877944946	fix_post	2		12	2.0	2.5	/experiments/AOT/AOT_stimuli/rescaled_final/0777_fw.mp4	0.0	85.83863401412964	0.10004806518554688
5	63.64960694313049	fix_pre	0		120	3.0	2.5	/experiments/AOT/AOT_stimuli/rescaled_final/1639_fw.mp4	0.0	85.93868207931519	1.0000250339508057
5	64.6496319770813	movie	1		244	3.0	2.5	/experiments/AOT/AOT_stimuli/rescaled_final/1639_fw.mp4	0.0	86.93870711326599	2.4995739459991455
5	65.03306984901428	pulse	1	t		3.0	2.5	/experiments/AOT/AOT_stimuli/rescaled_final/1639_fw.mp4	0.0	87.32214498519897	
5	66.62588596343994	pulse	1	t		3.0	2.5	/experiments/AOT/AOT_stimuli/rescaled_final/1639_fw.mp4	0.0	88.91496109962463	
5	67.14920592308044	fix_post	2		12	3.0	2.5	/experiments/AOT/AOT_stimuli/rescaled_final/1639_fw.mp4	0.0	89.43828105926514	0.10041999816894531
6	67.24962592124939	fix_pre	0		119	4.0	2.5	/experiments/AOT/AOT_stimuli/rescaled_final/0954_rv.mp4	0.0	89.53870105743408	0.991631031036377
6	68.22563290596008	pulse	0	t		4.0	2.5	/experiments/AOT/AOT_stimuli/rescaled_final/0954_rv.mp4	0.0	90.51470804214478	
6	68.24125695228577	movie	1		247	4.0	2.5	/experiments/AOT/AOT_stimuli/rescaled_final/0954_rv.mp4	0.0	90.53033208847046	2.5083179473876953
6	69.8340859413147	pulse	1	t		4.0	2.5	/experiments/AOT/AOT_stimuli/rescaled_final/0954_rv.mp4	0.0	92.12316107749939	
6	70.74957489967346	fix_post	2		12	4.0	2.5	/experiments/AOT/AOT_stimuli/rescaled_final/0954_rv.mp4	0.0	93.03865003585815	0.09997892379760742
7	70.84955382347107	fix_pre	0		120	5.0	2.5	blank	1.0	93.13862895965576	1.000082015991211
7	71.43311500549316	pulse	0	t		5.0	2.5	blank	1.0	93.72219014167786	
7	71.84963583946228	movie	1		300	5.0	2.5	blank	1.0	94.13871097564697	2.4998631477355957
7	73.03308987617493	pulse	1	t		5.0	2.5	blank	1.0	95.32216501235962	
7	74.34949898719788	fix_post	2		12	5.0	2.5	blank	1.0	96.63857412338257	0.10012698173522949
8	74.4496259689331	fix_pre	0		120	6.0	2.5	/experiments/AOT/AOT_stimuli/rescaled_final/1526_fw.mp4	0.0	96.7387011051178	0.9999330043792725
8	74.63309478759766	pulse	0	t		6.0	2.5	/experiments/AOT/AOT_stimuli/rescaled_final/1526_fw.mp4	0.0	96.92216992378235	
8	75.44955897331238	movie	1		245	6.0	2.5	/experiments/AOT/AOT_stimuli/rescaled_final/1526_fw.mp4	0.0	97.73863410949707	2.499992847442627
8	76.23310399055481	pulse	1	t		6.0	2.5	/experiments/AOT/AOT_stimuli/rescaled_final/1526_fw.mp4	0.0	98.5221791267395	
8	77.82912683486938	pulse	1	t		6.0	2.5	/experiments/AOT/AOT_stimuli/rescaled_final/1526_fw.mp4	0.0	100.11820197105408	
8	77.949551820755	fix_post	2		12	6.0	2.5	/experiments/AOT/AOT_stimuli/rescaled_final/1526_fw.mp4	0.0	100.2386269569397	0.10010910034179688
9	78.0496609210968	fix_pre	0		120	7.0	2.5	/experiments/AOT/AOT_stimuli/rescaled_final/1886_rv.mp4	0.0	100.3387360572815	0.9999079704284668
9	79.04956889152527	movie	1		245	7.0	2.5	/experiments/AOT/AOT_stimuli/rescaled_final/1886_rv.mp4	0.0	101.33864402770996	2.499951124191284
9	79.4326000213623	pulse	1	t		7.0	2.5	/experiments/AOT/AOT_stimuli/rescaled_final/1886_rv.mp4	0.0	101.721675157547	
9	81.02571988105774	pulse	1	t		7.0	2.5	/experiments/AOT/AOT_stimuli/rescaled_final/1886_rv.mp4	0.0	103.31479501724243	
9	81.54952001571655	fix_post	2		12	7.0	2.5	/experiments/AOT/AOT_stimuli/rescaled_final/1886_rv.mp4	0.0	103.83859515190125	0.10002994537353516
10	81.64954996109009	fix_pre	0		119	8.0	2.5	/experiments/AOT/AOT_stimuli/rescaled_final/0579_fw.mp4	0.0	103.93862509727478	0.9916198253631592
10	82.6255087852478	pulse	0	t		8.0	2.5	/experiments/AOT/AOT_stimuli/rescaled_final/0579_fw.mp4	0.0	104.9145839214325	
10	82.64116978645325	movie	1		244	8.0	2.5	/experiments/AOT/AOT_stimuli/rescaled_final/0579_fw.mp4	0.0	104.93024492263794	2.5083651542663574
10	84.23263382911682	pulse	1	t		8.0	2.5	/experiments/AOT/AOT_stimuli/rescaled_final/0579_fw.mp4	0.0	106.52170896530151	
10	85.1495349407196	fix_post	2		12	8.0	2.5	/experiments/AOT/AOT_stimuli/rescaled_final/0579_fw.mp4	0.0	107.4386100769043	0.09993886947631836
11	85.24947381019592	fix_pre	0		120	9.0	2.5	/experiments/AOT/AOT_stimuli/rescaled_final/0712_fw.mp4	0.0	107.53854894638062	1.0001220703125
11	85.83302187919617	pulse	0	t		9.0	2.5	/experiments/AOT/AOT_stimuli/rescaled_final/0712_fw.mp4	0.0	108.12209701538086	
11	86.24959588050842	movie	1		247	9.0	2.5	/experiments/AOT/AOT_stimuli/rescaled_final/0712_fw.mp4	0.0	108.53867101669312	2.499866008758545
11	87.43305683135986	pulse	1	t		9.0	2.5	/experiments/AOT/AOT_stimuli/rescaled_final/0712_fw.mp4	0.0	109.72213196754456	
11	88.74946188926697	fix_post	2		12	9.0	2.5	/experiments/AOT/AOT_stimuli/rescaled_final/0712_fw.mp4	0.0	111.03853702545166	0.10000491142272949
12	88.8494668006897	fix_pre	0		120	10.0	2.5	/experiments/AOT/AOT_stimuli/rescaled_final/0615_rv.mp4	0.0	111.13854193687439	1.000028133392334
12	89.03304600715637	pulse	0	t		10.0	2.5	/experiments/AOT/AOT_stimuli/rescaled_final/0615_rv.mp4	0.0	111.32212114334106	
12	89.84949493408203	movie	1		243	10.0	2.5	/experiments/AOT/AOT_stimuli/rescaled_final/0615_rv.mp4	0.0	112.13857007026672	2.500037908554077
12	90.6330738067627	pulse	1	t		10.0	2.5	/experiments/AOT/AOT_stimuli/rescaled_final/0615_rv.mp4	0.0	112.92214894294739	
12	92.2312879562378	pulse	1	t		10.0	2.5	/experiments/AOT/AOT_stimuli/rescaled_final/0615_rv.mp4	0.0	114.52036309242249	
12	92.34953284263611	fix_post	2		12	10.0	2.5	/experiments/AOT/AOT_stimuli/rescaled_final/0615_rv.mp4	0.0	114.6386079788208	0.09954309463500977
13	92.44907593727112	fix_pre	0		120	11.0	2.5	/experiments/AOT/AOT_stimuli/rescaled_final/1061_rv.mp4	0.0	114.73815107345581	1.0004909038543701
13	93.44956684112549	movie	1		244	11.0	2.5	/experiments/AOT/AOT_stimuli/rescaled_final/1061_rv.mp4	0.0	115.73864197731018	2.499516010284424
13	93.832594871521	pulse	1	t		11.0	2.5	/experiments/AOT/AOT_stimuli/rescaled_final/1061_rv.mp4	0.0	116.12167000770569	
13	95.4330039024353	pulse	1	t		11.0	2.5	/experiments/AOT/AOT_stimuli/rescaled_final/1061_rv.mp4	0.0	117.72207903862	
13	95.94908285140991	fix_post	2		12	11.0	2.5	/experiments/AOT/AOT_stimuli/rescaled_final/1061_rv.mp4	0.0	118.2381579875946	0.1003720760345459
14	96.04945492744446	fix_pre	0		119	12.0	2.5	/experiments/AOT/AOT_stimuli/rescaled_final/0975_fw.mp4	0.0	118.33853006362915	0.9917008876800537
14	97.03302001953125	pulse	0	t		12.0	2.5	/experiments/AOT/AOT_stimuli/rescaled_final/0975_fw.mp4	0.0	119.32209515571594	
14	97.04115581512451	movie	1		243	12.0	2.5	/experiments/AOT/AOT_stimuli/rescaled_final/0975_fw.mp4	0.0	119.3302309513092	2.5078330039978027
14	98.63247990608215	pulse	1	t		12.0	2.5	/experiments/AOT/AOT_stimuli/rescaled_final/0975_fw.mp4	0.0	120.92155504226685	
14	99.54898881912231	fix_post	2		12	12.0	2.5	/experiments/AOT/AOT_stimuli/rescaled_final/0975_fw.mp4	0.0	121.838063955307	0.10046911239624023
15	99.64945793151855	fix_pre	0		120	13.0	2.5	blank	1.0	121.93853306770325	1.0000519752502441
15	100.23300385475159	pulse	0	t		13.0	2.5	blank	1.0	122.52207899093628	
15	100.6495099067688	movie	1		300	13.0	2.5	blank	1.0	122.93858504295349	2.499643087387085
15	101.8325560092926	pulse	1	t		13.0	2.5	blank	1.0	124.1216311454773	
15	103.14915299415588	fix_post	2		12	13.0	2.5	blank	1.0	125.43822813034058	0.10037899017333984
16	103.24953198432922	fix_pre	0		120	14.0	2.5	/experiments/AOT/AOT_stimuli/rescaled_final/1716_fw.mp4	0.0	125.53860712051392	0.9998769760131836
16	103.4326229095459	pulse	0	t		14.0	2.5	/experiments/AOT/AOT_stimuli/rescaled_final/1716_fw.mp4	0.0	125.72169804573059	
16	104.24940896034241	movie	1		245	14.0	2.5	/experiments/AOT/AOT_stimuli/rescaled_final/1716_fw.mp4	0.0	126.5384840965271	2.4995999336242676
16	105.03286290168762	pulse	1	t		14.0	2.5	/experiments/AOT/AOT_stimuli/rescaled_final/1716_fw.mp4	0.0	127.32193803787231	
16	106.63128995895386	pulse	1	t		14.0	2.5	/experiments/AOT/AOT_stimuli/rescaled_final/1716_fw.mp4	0.0	128.92036509513855	
16	106.74900889396667	fix_post	2		12	14.0	2.5	/experiments/AOT/AOT_stimuli/rescaled_final/1716_fw.mp4	0.0	129.03808403015137	0.10054802894592285
17	106.8495569229126	fix_pre	0		120	15.0	2.5	/experiments/AOT/AOT_stimuli/rescaled_final/0181_rv.mp4	0.0	129.1386320590973	0.9995059967041016
17	107.8490629196167	movie	1		247	15.0	2.5	/experiments/AOT/AOT_stimuli/rescaled_final/0181_rv.mp4	0.0	130.1381380558014	2.499882936477661
17	108.23246192932129	pulse	1	t		15.0	2.5	/experiments/AOT/AOT_stimuli/rescaled_final/0181_rv.mp4	0.0	130.52153706550598	
17	109.83288884162903	pulse	1	t		15.0	2.5	/experiments/AOT/AOT_stimuli/rescaled_final/0181_rv.mp4	0.0	132.12196397781372	
17	110.34894585609436	fix_post	2		12	15.0	2.5	/experiments/AOT/AOT_stimuli/rescaled_final/0181_rv.mp4	0.0	132.63802099227905	0.10043907165527344
18	110.44938492774963	fix_pre	0		119	16.0	2.5	/experiments/AOT/AOT_stimuli/rescaled_final/2054_fw.mp4	0.0	132.73846006393433	0.9916698932647705
18	111.43291282653809	pulse	0	t		16.0	2.5	/experiments/AOT/AOT_stimuli/rescaled_final/2054_fw.mp4	0.0	133.72198796272278	
18	111.4410548210144	movie	1		247	16.0	2.5	/experiments/AOT/AOT_stimuli/rescaled_final/2054_fw.mp4	0.0	133.7301299571991	2.5083019733428955
18	113.0324158668518	pulse	1	t		16.0	2.5	/experiments/AOT/AOT_stimuli/rescaled_final/2054_fw.mp4	0.0	135.3214910030365	
18	113.9493567943573	fix_post	2		12	16.0	2.5	/experiments/AOT/AOT_stimuli/rescaled_final/2054_fw.mp4	0.0	136.238431930542	0.10005521774291992
19	114.04941201210022	fix_pre	0		120	17.0	2.5	/experiments/AOT/AOT_stimuli/rescaled_final/0665_fw.mp4	0.0	136.3384871482849	0.9999868869781494
19	114.63288378715515	pulse	0	t		17.0	2.5	/experiments/AOT/AOT_stimuli/rescaled_final/0665_fw.mp4	0.0	136.92195892333984	
19	115.04939889907837	movie	1		245	17.0	2.5	/experiments/AOT/AOT_stimuli/rescaled_final/0665_fw.mp4	0.0	137.33847403526306	2.4999799728393555
19	116.23291492462158	pulse	1	t		17.0	2.5	/experiments/AOT/AOT_stimuli/rescaled_final/0665_fw.mp4	0.0	138.52199006080627	
19	117.54937887191772	fix_post	2		12	17.0	2.5	/experiments/AOT/AOT_stimuli/rescaled_final/0665_fw.mp4	0.0	139.83845400810242	0.10003805160522461
20	117.64941692352295	fix_pre	0		120	18.0	2.5	/experiments/AOT/AOT_stimuli/rescaled_final/0391_rv.mp4	0.0	139.93849205970764	0.9999818801879883
20	117.83290696144104	pulse	0	t		18.0	2.5	/experiments/AOT/AOT_stimuli/rescaled_final/0391_rv.mp4	0.0	140.12198209762573	
20	118.64939880371094	movie	1		244	18.0	2.5	/experiments/AOT/AOT_stimuli/rescaled_final/0391_rv.mp4	0.0	140.93847393989563	2.500016212463379
20	119.43279099464417	pulse	1	t		18.0	2.5	/experiments/AOT/AOT_stimuli/rescaled_final/0391_rv.mp4	0.0	141.72186613082886	
20	121.03148984909058	pulse	1	t		18.0	2.5	/experiments/AOT/AOT_stimuli/rescaled_final/0391_rv.mp4	0.0	143.32056498527527	
20	121.14941501617432	fix_post	2		12	18.0	2.5	/experiments/AOT/AOT_stimuli/rescaled_final/0391_rv.mp4	0.0	143.438490152359	0.09951996803283691
21	121.24893498420715	fix_pre	0		120	19.0	2.5	/experiments/AOT/AOT_stimuli/rescaled_final/2054_rv.mp4	0.0	143.53801012039185	1.00038480758667
21	122.24931979179382	movie	1		244	19.0	2.5	/experiments/AOT/AOT_stimuli/rescaled_final/2054_rv.mp4	0.0	144.53839492797852	2.5001702308654785
21	122.63247084617615	pulse	1	t		19.0	2.5	/experiments/AOT/AOT_stimuli/rescaled_final/2054_rv.mp4	0.0	144.92154598236084	
21	124.23284387588501	pulse	1	t		19.0	2.5	/experiments/AOT/AOT_stimuli/rescaled_final/2054_rv.mp4	0.0	146.5219190120697	
21	124.7494900226593	fix_post	2		12	19.0	2.5	/experiments/AOT/AOT_stimuli/rescaled_final/2054_rv.mp4	0.0	147.038565158844	0.09983277320861816
22	124.84932279586792	fix_pre	0		119	20.0	2.5	/experiments/AOT/AOT_stimuli/rescaled_final/0276_rv.mp4	0.0	147.1383979320526	0.9917161464691162
22	125.83280491828918	pulse	0	t		20.0	2.5	/experiments/AOT/AOT_stimuli/rescaled_final/0276_rv.mp4	0.0	148.12188005447388	
22	125.84103894233704	movie	1		244	20.0	2.5	/experiments/AOT/AOT_stimuli/rescaled_final/0276_rv.mp4	0.0	148.13011407852173	2.508298873901367
22	127.43259501457214	pulse	1	t		20.0	2.5	/experiments/AOT/AOT_stimuli/rescaled_final/0276_rv.mp4	0.0	149.72167015075684	
22	128.3493378162384	fix_post	2		12	20.0	2.5	/experiments/AOT/AOT_stimuli/rescaled_final/0276_rv.mp4	0.0	150.6384129524231	0.1000051498413086
23	128.4493429660797	fix_pre	0		120	21.0	2.5	blank	1.0	150.7384181022644	0.9999778270721436
23	129.03288578987122	pulse	0	t		21.0	2.5	blank	1.0	151.3219609260559	
23	129.44932079315186	movie	1		300	21.0	2.5	blank	1.0	151.73839592933655	2.4999141693115234
23	130.63285779953003	pulse	1	t		21.0	2.5	blank	1.0	152.92193293571472	
23	131.94923496246338	fix_post	2		12	21.0	2.5	blank	1.0	154.23831009864807	0.10007786750793457
24	132.0493128299713	fix_pre	0		120	22.0	2.5	/experiments/AOT/AOT_stimuli/rescaled_final/1094_fw.mp4	0.0	154.338387966156	0.9995400905609131
24	132.2328748703003	pulse	0	t		22.0	2.5	/experiments/AOT/AOT_stimuli/rescaled_final/1094_fw.mp4	0.0	154.52195000648499	
24	133.04885292053223	movie	1		244	22.0	2.5	/experiments/AOT/AOT_stimuli/rescaled_final/1094_fw.mp4	0.0	155.33792805671692	2.500443935394287
24	133.8328468799591	pulse	1	t		22.0	2.5	/experiments/AOT/AOT_stimuli/rescaled_final/1094_fw.mp4	0.0	156.1219220161438	
24	135.43111181259155	pulse	1	t		22.0	2.5	/experiments/AOT/AOT_stimuli/rescaled_final/1094_fw.mp4	0.0	157.72018694877625	
24	135.5492968559265	fix_post	2		12	22.0	2.5	/experiments/AOT/AOT_stimuli/rescaled_final/1094_fw.mp4	0.0	157.8383719921112	0.10001111030578613
25	135.6493079662323	fix_pre	0		120	23.0	2.5	/experiments/AOT/AOT_stimuli/rescaled_final/0276_rv.mp4	0.0	157.938383102417	1.0000178813934326
25	136.64932584762573	movie	1		244	23.0	2.5	/experiments/AOT/AOT_stimuli/rescaled_final/0276_rv.mp4	0.0	158.93840098381042	2.49991512298584
25	137.03304481506348	pulse	1	t		23.0	2.5	/experiments/AOT/AOT_stimuli/rescaled_final/0276_rv.mp4	0.0	159.32211995124817	
25	138.63280296325684	pulse	1	t		23.0	2.5	/experiments/AOT/AOT_stimuli/rescaled_final/0276_rv.mp4	0.0	160.92187809944153	
25	139.14924097061157	fix_post	2		12	23.0	2.5	/experiments/AOT/AOT_stimuli/rescaled_final/0276_rv.mp4	0.0	161.43831610679626	0.10001492500305176
26	139.24925589561462	fix_pre	0		119	24.0	2.5	/experiments/AOT/AOT_stimuli/rescaled_final/1360_fw.mp4	0.0	161.53833103179932	0.9916679859161377
26	140.2327618598938	pulse	0	t		24.0	2.5	/experiments/AOT/AOT_stimuli/rescaled_final/1360_fw.mp4	0.0	162.5218369960785	
26	140.24092388153076	movie	1		244	24.0	2.5	/experiments/AOT/AOT_stimuli/rescaled_final/1360_fw.mp4	0.0	162.52999901771545	2.5083799362182617
26	141.83413696289062	pulse	1	t		24.0	2.5	/experiments/AOT/AOT_stimuli/rescaled_final/1360_fw.mp4	0.0	164.12321209907532	
26	142.74930381774902	fix_post	2		12	24.0	2.5	/experiments/AOT/AOT_stimuli/rescaled_final/1360_fw.mp4	0.0	165.03837895393372	0.09992313385009766
27	142.84922695159912	fix_pre	0		120	25.0	2.5	/experiments/AOT/AOT_stimuli/rescaled_final/2014_rv.mp4	0.0	165.1383020877838	0.9996888637542725
27	143.43280386924744	pulse	0	t		25.0	2.5	/experiments/AOT/AOT_stimuli/rescaled_final/2014_rv.mp4	0.0	165.72187900543213	
27	143.8489158153534	movie	1		246	25.0	2.5	/experiments/AOT/AOT_stimuli/rescaled_final/2014_rv.mp4	0.0	166.1379909515381	2.500361204147339
27	145.0328369140625	pulse	1	t		25.0	2.5	/experiments/AOT/AOT_stimuli/rescaled_final/2014_rv.mp4	0.0	167.3219120502472	
27	146.34927701950073	fix_post	2		12	25.0	2.5	/experiments/AOT/AOT_stimuli/rescaled_final/2014_rv.mp4	0.0	168.63835215568542	0.10001087188720703
28	146.44928789138794	fix_pre	0		120	26.0	2.5	/experiments/AOT/AOT_stimuli/rescaled_final/0438_rv.mp4	0.0	168.73836302757263	1.0000340938568115
28	146.63277792930603	pulse	0	t		26.0	2.5	/experiments/AOT/AOT_stimuli/rescaled_final/0438_rv.mp4	0.0	168.92185306549072	
28	147.44932198524475	movie	1		245	26.0	2.5	/experiments/AOT/AOT_stimuli/rescaled_final/0438_rv.mp4	0.0	169.73839712142944	2.49992299079895
28	148.232764005661	pulse	1	t		26.0	2.5	/experiments/AOT/AOT_stimuli/rescaled_final/0438_rv.mp4	0.0	170.5218391418457	
28	149.83091592788696	pulse	1	t		26.0	2.5	/experiments/AOT/AOT_stimuli/rescaled_final/0438_rv.mp4	0.0	172.11999106407166	
28	149.9492449760437	fix_post	2		12	26.0	2.5	/experiments/AOT/AOT_stimuli/rescaled_final/0438_rv.mp4	0.0	172.2383201122284	0.099639892578125
29	150.04888486862183	fix_pre	0		120	27.0	2.5	/experiments/AOT/AOT_stimuli/rescaled_final/1685_fw.mp4	0.0	172.33796000480652	1.0003440380096436
29	151.04922890663147	movie	1		243	27.0	2.5	/experiments/AOT/AOT_stimuli/rescaled_final/1685_fw.mp4	0.0	173.33830404281616	2.5000391006469727
29	151.43395590782166	pulse	1	t		27.0	2.5	/experiments/AOT/AOT_stimuli/rescaled_final/1685_fw.mp4	0.0	173.72303104400635	
29	153.03274583816528	pulse	1	t		27.0	2.5	/experiments/AOT/AOT_stimuli/rescaled_final/1685_fw.mp4	0.0	175.32182097434998	
29	153.54926800727844	fix_post	2		12	27.0	2.5	/experiments/AOT/AOT_stimuli/rescaled_final/1685_fw.mp4	0.0	175.83834314346313	0.09992694854736328
30	153.6491949558258	fix_pre	0		119	28.0	2.5	blank	1.0	175.9382700920105	0.991710901260376
30	154.63287901878357	pulse	0	t		28.0	2.5	blank	1.0	176.92195415496826	
30	154.64090585708618	movie	1		301	28.0	2.5	blank	1.0	176.92998099327087	2.5083260536193848
30	156.23270678520203	pulse	1	t		28.0	2.5	blank	1.0	178.52178192138672	
30	157.14923191070557	fix_post	2		12	28.0	2.5	blank	1.0	179.43830704689026	0.10002708435058594
31	157.24925899505615	fix_pre	0		120	29.0	2.5	/experiments/AOT/AOT_stimuli/rescaled_final/0732_fw.mp4	0.0	179.53833413124084	0.9995548725128174
31	157.8328058719635	pulse	0	t		29.0	2.5	/experiments/AOT/AOT_stimuli/rescaled_final/0732_fw.mp4	0.0	180.1218810081482	
31	158.24881386756897	movie	1		245	29.0	2.5	/experiments/AOT/AOT_stimuli/rescaled_final/0732_fw.mp4	0.0	180.53788900375366	2.500694990158081
31	159.43239378929138	pulse	1	t		29.0	2.5	/experiments/AOT/AOT_stimuli/rescaled_final/0732_fw.mp4	0.0	181.72146892547607	
31	160.74950885772705	fix_post	2		12	29.0	2.5	/experiments/AOT/AOT_stimuli/rescaled_final/0732_fw.mp4	0.0	183.03858399391174	0.09998607635498047
32	160.84949493408203	fix_pre	0		120	30.0	2.5	/experiments/AOT/AOT_stimuli/rescaled_final/1545_fw.mp4	0.0	183.13857007026672	0.9997389316558838
32	161.03265285491943	pulse	0	t		30.0	2.5	/experiments/AOT/AOT_stimuli/rescaled_final/1545_fw.mp4	0.0	183.32172799110413	
32	161.84923386573792	movie	1		243	30.0	2.5	/experiments/AOT/AOT_stimuli/rescaled_final/1545_fw.mp4	0.0	184.1383090019226	2.4994900226593018
32	162.6326868534088	pulse	1	t		30.0	2.5	/experiments/AOT/AOT_stimuli/rescaled_final/1545_fw.mp4	0.0	184.9217619895935	
32	164.23109984397888	pulse	1	t		30.0	2.5	/experiments/AOT/AOT_stimuli/rescaled_final/1545_fw.mp4	0.0	186.52017498016357	
32	164.34872388839722	fix_post	2		12	30.0	2.5	/experiments/AOT/AOT_stimuli/rescaled_final/1545_fw.mp4	0.0	186.6377990245819	0.10044097900390625
33	164.44916486740112	fix_pre	0		120	31.0	2.5	/experiments/AOT/AOT_stimuli/rescaled_final/0706_rv.mp4	0.0	186.73824000358582	1.0000030994415283
33	165.44916796684265	movie	1		247	31.0	2.5	/experiments/AOT/AOT_stimuli/rescaled_final/0706_rv.mp4	0.0	187.73824310302734	2.4996228218078613
33	165.8323209285736	pulse	1	t		31.0	2.5	/experiments/AOT/AOT_stimuli/rescaled_final/0706_rv.mp4	0.0	188.1213960647583	
33	167.43266797065735	pulse	1	t		31.0	2.5	/experiments/AOT/AOT_stimuli/rescaled_final/0706_rv.mp4	0.0	189.72174310684204	
33	167.9487907886505	fix_post	2		12	31.0	2.5	/experiments/AOT/AOT_stimuli/rescaled_final/0706_rv.mp4	0.0	190.2378659248352	0.10033011436462402
34	168.04912090301514	fix_pre	0		119	32.0	2.5	/experiments/AOT/AOT_stimuli/rescaled_final/0270_fw.mp4	0.0	190.33819603919983	0.9916629791259766
34	169.03264999389648	pulse	0	t		32.0	2.5	/experiments/AOT/AOT_stimuli/rescaled_final/0270_fw.mp4	0.0	191.32172513008118	
34	169.0407838821411	movie	1		244	32.0	2.5	/experiments/AOT/AOT_stimuli/rescaled_final/0270_fw.mp4	0.0	191.3298590183258	2.508378028869629
34	170.6324119567871	pulse	1	t		32.0	2.5	/experiments/AOT/AOT_stimuli/rescaled_final/0270_fw.mp4	0.0	192.9214870929718	
34	171.54916191101074	fix_post	2		12	32.0	2.5	/experiments/AOT/AOT_stimuli/rescaled_final/0270_fw.mp4	0.0	193.83823704719543	0.09995508193969727
35	171.64911699295044	fix_pre	0		120	33.0	2.5	/experiments/AOT/AOT_stimuli/rescaled_final/0954_rv.mp4	0.0	193.93819212913513	0.9999790191650391
35	172.23267889022827	pulse	0	t		33.0	2.5	/experiments/AOT/AOT_stimuli/rescaled_final/0954_rv.mp4	0.0	194.52175402641296	
35	172.64909601211548	movie	1		244	33.0	2.5	/experiments/AOT/AOT_stimuli/rescaled_final/0954_rv.mp4	0.0	194.93817114830017	2.500002861022949
35	173.83269095420837	pulse	1	t		33.0	2.5	/experiments/AOT/AOT_stimuli/rescaled_final/0954_rv.mp4	0.0	196.12176609039307	
35	175.14909887313843	fix_post	2		12	33.0	2.5	/experiments/AOT/AOT_stimuli/rescaled_final/0954_rv.mp4	0.0	197.43817400932312	0.09995698928833008
36	175.24905586242676	fix_pre	0		120	34.0	2.5	/experiments/AOT/AOT_stimuli/rescaled_final/1040_rv.mp4	0.0	197.53813099861145	1.0002391338348389
36	175.4326229095459	pulse	0	t		34.0	2.5	/experiments/AOT/AOT_stimuli/rescaled_final/1040_rv.mp4	0.0	197.7216980457306	
36	176.2492949962616	movie	1		244	34.0	2.5	/experiments/AOT/AOT_stimuli/rescaled_final/1040_rv.mp4	0.0	198.5383701324463	2.4997568130493164
36	177.0326509475708	pulse	1	t		34.0	2.5	/experiments/AOT/AOT_stimuli/rescaled_final/1040_rv.mp4	0.0	199.3217260837555	
36	178.63106679916382	pulse	1	t		34.0	2.5	/experiments/AOT/AOT_stimuli/rescaled_final/1040_rv.mp4	0.0	200.9201419353485	
36	178.7490518093109	fix_post	2		12	34.0	2.5	/experiments/AOT/AOT_stimuli/rescaled_final/1040_rv.mp4	0.0	201.0381269454956	0.10008120536804199
37	178.84913301467896	fix_pre	0		120	35.0	2.5	blank	1.0	201.13820815086365	1.0000479221343994
37	179.84918093681335	movie	1		300	35.0	2.5	blank	1.0	202.13825607299805	2.4999499320983887
37	180.23258781433105	pulse	1	t		35.0	2.5	blank	1.0	202.52166295051575	
37	181.83252882957458	pulse	1	t		35.0	2.5	blank	1.0	204.12160396575928	
37	182.34913086891174	fix_post	2		12	35.0	2.5	blank	1.0	204.63820600509644	0.0999901294708252
38	182.44912099838257	fix_pre	0		119	36.0	2.5	/experiments/AOT/AOT_stimuli/rescaled_final/1613_fw.mp4	0.0	204.73819613456726	0.991649866104126
38	183.4325909614563	pulse	0	t		36.0	2.5	/experiments/AOT/AOT_stimuli/rescaled_final/1613_fw.mp4	0.0	205.721666097641	
38	183.4407708644867	movie	1		245	36.0	2.5	/experiments/AOT/AOT_stimuli/rescaled_final/1613_fw.mp4	0.0	205.7298460006714	2.5082831382751465
38	185.0322208404541	pulse	1	t		36.0	2.5	/experiments/AOT/AOT_stimuli/rescaled_final/1613_fw.mp4	0.0	207.3212959766388	
38	185.94905400276184	fix_post	2		12	36.0	2.5	/experiments/AOT/AOT_stimuli/rescaled_final/1613_fw.mp4	0.0	208.23812913894653	0.09962201118469238
39	186.04867601394653	fix_pre	0		120	37.0	2.5	/experiments/AOT/AOT_stimuli/rescaled_final/1781_fw.mp4	0.0	208.33775115013123	1.0005218982696533
39	186.63264989852905	pulse	0	t		37.0	2.5	/experiments/AOT/AOT_stimuli/rescaled_final/1781_fw.mp4	0.0	208.92172503471375	
39	187.0491979122162	movie	1		244	37.0	2.5	/experiments/AOT/AOT_stimuli/rescaled_final/1781_fw.mp4	0.0	209.33827304840088	2.499882936477661
39	188.23280787467957	pulse	1	t		37.0	2.5	/experiments/AOT/AOT_stimuli/rescaled_final/1781_fw.mp4	0.0	210.52188301086426	
39	189.54908084869385	fix_post	2		12	37.0	2.5	/experiments/AOT/AOT_stimuli/rescaled_final/1781_fw.mp4	0.0	211.83815598487854	0.0999140739440918
40	189.64899492263794	fix_pre	0		120	38.0	2.5	/experiments/AOT/AOT_stimuli/rescaled_final/0678_rv.mp4	0.0	211.93807005882263	1.0000948905944824
40	189.83251881599426	pulse	0	t		38.0	2.5	/experiments/AOT/AOT_stimuli/rescaled_final/0678_rv.mp4	0.0	212.12159395217896	
40	190.64908981323242	movie	1		244	38.0	2.5	/experiments/AOT/AOT_stimuli/rescaled_final/0678_rv.mp4	0.0	212.93816494941711	2.4999752044677734
40	191.4325728416443	pulse	1	t		38.0	2.5	/experiments/AOT/AOT_stimuli/rescaled_final/0678_rv.mp4	0.0	213.72164797782898	
40	193.03112983703613	pulse	1	t		38.0	2.5	/experiments/AOT/AOT_stimuli/rescaled_final/0678_rv.mp4	0.0	215.32020497322083	
40	193.1490650177002	fix_post	2		12	38.0	2.5	/experiments/AOT/AOT_stimuli/rescaled_final/0678_rv.mp4	0.0	215.4381401538849	0.09996199607849121
41	193.2490270137787	fix_pre	0		120	39.0	2.5	/experiments/AOT/AOT_stimuli/rescaled_final/0790_fw.mp4	0.0	215.53810214996338	1.0000147819519043
41	194.2490417957306	movie	1		243	39.0	2.5	/experiments/AOT/AOT_stimuli/rescaled_final/0790_fw.mp4	0.0	216.53811693191528	2.5000460147857666
41	194.63222789764404	pulse	1	t		39.0	2.5	/experiments/AOT/AOT_stimuli/rescaled_final/0790_fw.mp4	0.0	216.92130303382874	
41	196.2325508594513	pulse	1	t		39.0	2.5	/experiments/AOT/AOT_stimuli/rescaled_final/0790_fw.mp4	0.0	218.521625995636	
41	196.74908781051636	fix_post	2		12	39.0	2.5	/experiments/AOT/AOT_stimuli/rescaled_final/0790_fw.mp4	0.0	219.03816294670105	0.09996700286865234
42	196.849054813385	fix_pre	0		119	40.0	2.5	/experiments/AOT/AOT_stimuli/rescaled_final/1360_rv.mp4	0.0	219.1381299495697	0.9917252063751221
42	197.83262395858765	pulse	0	t		40.0	2.5	/experiments/AOT/AOT_stimuli/rescaled_final/1360_rv.mp4	0.0	220.12169909477234	
42	197.84078001976013	movie	1		246	40.0	2.5	/experiments/AOT/AOT_stimuli/rescaled_final/1360_rv.mp4	0.0	220.12985515594482	2.508283853530884
42	199.43239498138428	pulse	1	t		40.0	2.5	/experiments/AOT/AOT_stimuli/rescaled_final/1360_rv.mp4	0.0	221.72147011756897	
42	200.34906387329102	fix_post	2		12	40.0	2.5	/experiments/AOT/AOT_stimuli/rescaled_final/1360_rv.mp4	0.0	222.6381390094757	0.09999299049377441
43	200.4490568637848	fix_pre	0		120	41.0	2.5	/experiments/AOT/AOT_stimuli/rescaled_final/1093_rv.mp4	0.0	222.73813199996948	1.0000510215759277
43	201.03253698349	pulse	0	t		41.0	2.5	/experiments/AOT/AOT_stimuli/rescaled_final/1093_rv.mp4	0.0	223.32161211967468	
43	201.44910788536072	movie	1		244	41.0	2.5	/experiments/AOT/AOT_stimuli/rescaled_final/1093_rv.mp4	0.0	223.7381830215454	2.4994969367980957
43	202.63257384300232	pulse	1	t		41.0	2.5	/experiments/AOT/AOT_stimuli/rescaled_final/1093_rv.mp4	0.0	224.921648979187	
43	203.9486048221588	fix_post	2		12	41.0	2.5	/experiments/AOT/AOT_stimuli/rescaled_final/1093_rv.mp4	0.0	226.2376799583435	0.10045719146728516
44	204.0490620136261	fix_pre	0		120	42.0	2.5	blank	1.0	226.3381371498108	0.9999418258666992
44	204.2324938774109	pulse	0	t		42.0	2.5	blank	1.0	226.52156901359558	
44	205.0490038394928	movie	1		300	42.0	2.5	blank	1.0	227.3380789756775	2.500164031982422
44	205.83248686790466	pulse	1	t		42.0	2.5	blank	1.0	228.12156200408936	
44	207.43251180648804	pulse	1	t		42.0	2.5	blank	1.0	229.72158694267273	
44	207.54916787147522	fix_post	2		12	42.0	2.5	blank	1.0	229.8382430076599	0.09985494613647461
45	207.6490228176117	fix_pre	0		120	43.0	2.5	/experiments/AOT/AOT_stimuli/rescaled_final/0836_fw.mp4	0.0	229.9380979537964	0.999636173248291
45	208.64865899085999	movie	1		242	43.0	2.5	/experiments/AOT/AOT_stimuli/rescaled_final/0836_fw.mp4	0.0	230.93773412704468	2.5002899169921875
45	209.03207302093506	pulse	1	t		43.0	2.5	/experiments/AOT/AOT_stimuli/rescaled_final/0836_fw.mp4	0.0	231.32114815711975	
45	210.6325879096985	pulse	1	t		43.0	2.5	/experiments/AOT/AOT_stimuli/rescaled_final/0836_fw.mp4	0.0	232.92166304588318	
45	211.14894890785217	fix_post	2		12	43.0	2.5	/experiments/AOT/AOT_stimuli/rescaled_final/0836_fw.mp4	0.0	233.43802404403687	0.10003900527954102
46	211.2489879131317	fix_pre	0		119	44.0	2.5	/experiments/AOT/AOT_stimuli/rescaled_final/2014_rv.mp4	0.0	233.5380630493164	0.9916598796844482
46	212.23259592056274	pulse	0	t		44.0	2.5	/experiments/AOT/AOT_stimuli/rescaled_final/2014_rv.mp4	0.0	234.52167105674744	
46	212.24064779281616	movie	1		248	44.0	2.5	/experiments/AOT/AOT_stimuli/rescaled_final/2014_rv.mp4	0.0	234.52972292900085	2.5083751678466797
46	213.83154201507568	pulse	1	t		44.0	2.5	/experiments/AOT/AOT_stimuli/rescaled_final/2014_rv.mp4	0.0	236.12061715126038	
46	214.74902296066284	fix_post	2		12	44.0	2.5	/experiments/AOT/AOT_stimuli/rescaled_final/2014_rv.mp4	0.0	237.03809809684753	0.09980392456054688
47	214.8488268852234	fix_pre	0		120	45.0	2.5	/experiments/AOT/AOT_stimuli/rescaled_final/0706_rv.mp4	0.0	237.13790202140808	1.00034499168396
47	215.43261194229126	pulse	0	t		45.0	2.5	/experiments/AOT/AOT_stimuli/rescaled_final/0706_rv.mp4	0.0	237.72168707847595	
47	215.84917187690735	movie	1		245	45.0	2.5	/experiments/AOT/AOT_stimuli/rescaled_final/0706_rv.mp4	0.0	238.13824701309204	2.4997661113739014
47	217.0324637889862	pulse	1	t		45.0	2.5	/experiments/AOT/AOT_stimuli/rescaled_final/0706_rv.mp4	0.0	239.3215389251709	
47	218.34893798828125	fix_post	2		12	45.0	2.5	/experiments/AOT/AOT_stimuli/rescaled_final/0706_rv.mp4	0.0	240.63801312446594	0.10002899169921875
48	218.44896697998047	fix_pre	0		120	46.0	2.5	/experiments/AOT/AOT_stimuli/rescaled_final/2087_fw.mp4	0.0	240.73804211616516	1.0000019073486328
48	218.63248491287231	pulse	0	t		46.0	2.5	/experiments/AOT/AOT_stimuli/rescaled_final/2087_fw.mp4	0.0	240.921560049057	
48	219.4489688873291	movie	1		244	46.0	2.5	/experiments/AOT/AOT_stimuli/rescaled_final/2087_fw.mp4	0.0	241.7380440235138	2.4999639987945557
48	220.2324140071869	pulse	1	t		46.0	2.5	/experiments/AOT/AOT_stimuli/rescaled_final/2087_fw.mp4	0.0	242.52148914337158	
48	221.83091402053833	pulse	1	t		46.0	2.5	/experiments/AOT/AOT_stimuli/rescaled_final/2087_fw.mp4	0.0	244.11998915672302	
48	221.94893288612366	fix_post	2		12	46.0	2.5	/experiments/AOT/AOT_stimuli/rescaled_final/2087_fw.mp4	0.0	244.23800802230835	0.09995794296264648
49	222.0488908290863	fix_pre	0		120	47.0	2.5	blank	1.0	244.337965965271	1.0000309944152832
49	223.0489218235016	movie	1		300	47.0	2.5	blank	1.0	245.33799695968628	2.4999470710754395
49	223.43245697021484	pulse	1	t		47.0	2.5	blank	1.0	245.72153210639954	
49	225.03238892555237	pulse	1	t		47.0	2.5	blank	1.0	247.32146406173706	
49	225.54886889457703	fix_post	2		12	47.0	2.5	blank	1.0	247.83794403076172	0.09999203681945801
50	225.64886093139648	fix_pre	0		119	48.0	2.5	/experiments/AOT/AOT_stimuli/rescaled_final/0853_rv.mp4	0.0	247.93793606758118	0.9917359352111816
50	226.63243794441223	pulse	0	t		48.0	2.5	/experiments/AOT/AOT_stimuli/rescaled_final/0853_rv.mp4	0.0	248.92151308059692	
50	226.64059686660767	movie	1		246	48.0	2.5	/experiments/AOT/AOT_stimuli/rescaled_final/0853_rv.mp4	0.0	248.92967200279236	2.5078859329223633
50	228.23188400268555	pulse	1	t		48.0	2.5	/experiments/AOT/AOT_stimuli/rescaled_final/0853_rv.mp4	0.0	250.52095913887024	
50	229.14848279953003	fix_post	2		12	48.0	2.5	/experiments/AOT/AOT_stimuli/rescaled_final/0853_rv.mp4	0.0	251.43755793571472	0.10038304328918457
51	229.2488658428192	fix_pre	0		120	49.0	2.5	/experiments/AOT/AOT_stimuli/rescaled_final/1327_fw.mp4	0.0	251.5379409790039	1.0000240802764893
51	229.8323268890381	pulse	0	t		49.0	2.5	/experiments/AOT/AOT_stimuli/rescaled_final/1327_fw.mp4	0.0	252.12140202522278	
51	230.2488899230957	movie	1		243	49.0	2.5	/experiments/AOT/AOT_stimuli/rescaled_final/1327_fw.mp4	0.0	252.5379650592804	2.499850034713745
51	231.43243980407715	pulse	1	t		49.0	2.5	/experiments/AOT/AOT_stimuli/rescaled_final/1327_fw.mp4	0.0	253.72151494026184	
51	232.74873995780945	fix_post	2		12	49.0	2.5	/experiments/AOT/AOT_stimuli/rescaled_final/1327_fw.mp4	0.0	255.03781509399414	0.10015392303466797
52	232.84889388084412	fix_pre	0		120	50.0	2.5	/experiments/AOT/AOT_stimuli/rescaled_final/1964_fw.mp4	0.0	255.1379690170288	1.0000560283660889
52	233.03242993354797	pulse	0	t		50.0	2.5	/experiments/AOT/AOT_stimuli/rescaled_final/1964_fw.mp4	0.0	255.32150506973267	
52	233.8489499092102	movie	1		244	50.0	2.5	/experiments/AOT/AOT_stimuli/rescaled_final/1964_fw.mp4	0.0	256.1380250453949	2.499890089035034
52	234.63238096237183	pulse	1	t		50.0	2.5	/experiments/AOT/AOT_stimuli/rescaled_final/1964_fw.mp4	0.0	256.9214560985565	
52	236.22853994369507	pulse	1	t		50.0	2.5	/experiments/AOT/AOT_stimuli/rescaled_final/1964_fw.mp4	0.0	258.51761507987976	
52	236.34883999824524	fix_post	2		12	50.0	2.5	/experiments/AOT/AOT_stimuli/rescaled_final/1964_fw.mp4	0.0	258.63791513442993	0.1000528335571289
53	236.44889283180237	fix_pre	0		120	51.0	2.5	/experiments/AOT/AOT_stimuli/rescaled_final/0478_rv.mp4	0.0	258.73796796798706	1.000020980834961
53	237.44891381263733	movie	1		245	51.0	2.5	/experiments/AOT/AOT_stimuli/rescaled_final/0478_rv.mp4	0.0	259.737988948822	2.499541997909546
53	237.83202481269836	pulse	1	t		51.0	2.5	/experiments/AOT/AOT_stimuli/rescaled_final/0478_rv.mp4	0.0	260.12109994888306	
53	239.43239998817444	pulse	1	t		51.0	2.5	/experiments/AOT/AOT_stimuli/rescaled_final/0478_rv.mp4	0.0	261.72147512435913	
53	239.94845581054688	fix_post	2		12	51.0	2.5	/experiments/AOT/AOT_stimuli/rescaled_final/0478_rv.mp4	0.0	262.23753094673157	0.10033011436462402
54	240.0487859249115	fix_pre	0		119	52.0	2.5	/experiments/AOT/AOT_stimuli/rescaled_final/1327_fw.mp4	0.0	262.3378610610962	0.9917528629302979
54	241.03238797187805	pulse	0	t		52.0	2.5	/experiments/AOT/AOT_stimuli/rescaled_final/1327_fw.mp4	0.0	263.32146310806274	
54	241.0405387878418	movie	1		246	52.0	2.5	/experiments/AOT/AOT_stimuli/rescaled_final/1327_fw.mp4	0.0	263.3296139240265	2.507862091064453
54	242.6318609714508	pulse	1	t		52.0	2.5	/experiments/AOT/AOT_stimuli/rescaled_final/1327_fw.mp4	0.0	264.9209361076355	
54	243.54840087890625	fix_post	2		12	52.0	2.5	/experiments/AOT/AOT_stimuli/rescaled_final/1327_fw.mp4	0.0	265.83747601509094	0.10047006607055664
55	243.6488709449768	fix_pre	0		120	53.0	2.5	/experiments/AOT/AOT_stimuli/rescaled_final/2003_fw.mp4	0.0	265.9379460811615	0.9999659061431885
55	244.23236680030823	pulse	0	t		53.0	2.5	/experiments/AOT/AOT_stimuli/rescaled_final/2003_fw.mp4	0.0	266.5214419364929	
55	244.64883685112	movie	1		246	53.0	2.5	/experiments/AOT/AOT_stimuli/rescaled_final/2003_fw.mp4	0.0	266.9379119873047	2.500025987625122
55	245.83235001564026	pulse	1	t		53.0	2.5	/experiments/AOT/AOT_stimuli/rescaled_final/2003_fw.mp4	0.0	268.12142515182495	
55	247.14886283874512	fix_post	2		12	53.0	2.5	/experiments/AOT/AOT_stimuli/rescaled_final/2003_fw.mp4	0.0	269.4379379749298	0.09995603561401367
56	247.24881887435913	fix_pre	0		120	54.0	2.5	/experiments/AOT/AOT_stimuli/rescaled_final/0013_rv.mp4	0.0	269.5378940105438	0.9999780654907227
56	247.43229293823242	pulse	0	t		54.0	2.5	/experiments/AOT/AOT_stimuli/rescaled_final/0013_rv.mp4	0.0	269.7213680744171	
56	248.24879693984985	movie	1		246	54.0	2.5	/experiments/AOT/AOT_stimuli/rescaled_final/0013_rv.mp4	0.0	270.53787207603455	2.499997854232788
56	249.03230381011963	pulse	1	t		54.0	2.5	/experiments/AOT/AOT_stimuli/rescaled_final/0013_rv.mp4	0.0	271.3213789463043	
56	250.6306459903717	pulse	1	t		54.0	2.5	/experiments/AOT/AOT_stimuli/rescaled_final/0013_rv.mp4	0.0	272.9197211265564	
56	250.74879479408264	fix_post	2		12	54.0	2.5	/experiments/AOT/AOT_stimuli/rescaled_final/0013_rv.mp4	0.0	273.03786993026733	0.1000521183013916
57	250.84884691238403	fix_pre	0		120	55.0	2.5	/experiments/AOT/AOT_stimuli/rescaled_final/0668_rv.mp4	0.0	273.1379220485687	0.9995269775390625
57	251.8483738899231	movie	1		244	55.0	2.5	/experiments/AOT/AOT_stimuli/rescaled_final/0668_rv.mp4	0.0	274.1374490261078	2.499998092651367
57	252.23178887367249	pulse	1	t		55.0	2.5	/experiments/AOT/AOT_stimuli/rescaled_final/0668_rv.mp4	0.0	274.5208640098572	
57	253.83221983909607	pulse	1	t		55.0	2.5	/experiments/AOT/AOT_stimuli/rescaled_final/0668_rv.mp4	0.0	276.12129497528076	
57	254.34837198257446	fix_post	2		12	55.0	2.5	/experiments/AOT/AOT_stimuli/rescaled_final/0668_rv.mp4	0.0	276.63744711875916	0.1004478931427002
58	254.44881987571716	fix_pre	0		119	56.0	2.5	blank	1.0	276.73789501190186	0.9916889667510986
58	255.4323868751526	pulse	0	t		56.0	2.5	blank	1.0	277.7214620113373	
58	255.44050884246826	movie	1		301	56.0	2.5	blank	1.0	277.72958397865295	2.5083529949188232
58	257.0323419570923	pulse	1	t		56.0	2.5	blank	1.0	279.321417093277	
58	257.9488618373871	fix_post	2		12	56.0	2.5	blank	1.0	280.2379369735718	0.09997415542602539
59	258.0488359928131	fix_pre	0		120	57.0	2.5	/experiments/AOT/AOT_stimuli/rescaled_final/1887_rv.mp4	0.0	280.3379111289978	0.9999330043792725
59	258.63227891921997	pulse	0	t		57.0	2.5	/experiments/AOT/AOT_stimuli/rescaled_final/1887_rv.mp4	0.0	280.92135405540466	
59	259.0487689971924	movie	1		244	57.0	2.5	/experiments/AOT/AOT_stimuli/rescaled_final/1887_rv.mp4	0.0	281.3378441333771	2.4995408058166504
59	260.23234581947327	pulse	1	t		57.0	2.5	/experiments/AOT/AOT_stimuli/rescaled_final/1887_rv.mp4	0.0	282.52142095565796	
59	261.54830980300903	fix_post	2		12	57.0	2.5	/experiments/AOT/AOT_stimuli/rescaled_final/1887_rv.mp4	0.0	283.8373849391937	0.10056400299072266
60	261.64887380599976	fix_pre	0		120	58.0	2.5	/experiments/AOT/AOT_stimuli/rescaled_final/0478_fw.mp4	0.0	283.93794894218445	0.9999611377716064
60	261.8322539329529	pulse	0	t		58.0	2.5	/experiments/AOT/AOT_stimuli/rescaled_final/0478_fw.mp4	0.0	284.1213290691376	
60	262.64883494377136	movie	1		244	58.0	2.5	/experiments/AOT/AOT_stimuli/rescaled_final/0478_fw.mp4	0.0	284.93791007995605	2.499501943588257
60	263.4322988986969	pulse	1	t		58.0	2.5	/experiments/AOT/AOT_stimuli/rescaled_final/0478_fw.mp4	0.0	285.7213740348816	
60	265.03084683418274	pulse	1	t		58.0	2.5	/experiments/AOT/AOT_stimuli/rescaled_final/0478_fw.mp4	0.0	287.31992197036743	
60	265.1483368873596	fix_post	2		12	58.0	2.5	/experiments/AOT/AOT_stimuli/rescaled_final/0478_fw.mp4	0.0	287.4374120235443	0.10033297538757324
61	265.2486698627472	fix_pre	0		120	59.0	2.5	/experiments/AOT/AOT_stimuli/rescaled_final/0557_rv.mp4	0.0	287.5377449989319	0.9996609687805176
61	266.2483308315277	movie	1		244	59.0	2.5	/experiments/AOT/AOT_stimuli/rescaled_final/0557_rv.mp4	0.0	288.5374059677124	2.5000200271606445
61	266.6316258907318	pulse	1	t		59.0	2.5	/experiments/AOT/AOT_stimuli/rescaled_final/0557_rv.mp4	0.0	288.9207010269165	
61	268.23217391967773	pulse	1	t		59.0	2.5	/experiments/AOT/AOT_stimuli/rescaled_final/0557_rv.mp4	0.0	290.5212490558624	
61	268.74835085868835	fix_post	2		12	59.0	2.5	/experiments/AOT/AOT_stimuli/rescaled_final/0557_rv.mp4	0.0	291.03742599487305	0.10040903091430664
62	268.84875988960266	fix_pre	0		119	60.0	2.5	/experiments/AOT/AOT_stimuli/rescaled_final/1061_fw.mp4	0.0	291.13783502578735	0.9916729927062988
62	269.83221793174744	pulse	0	t		60.0	2.5	/experiments/AOT/AOT_stimuli/rescaled_final/1061_fw.mp4	0.0	292.12129306793213	
62	269.84043288230896	movie	1		247	60.0	2.5	/experiments/AOT/AOT_stimuli/rescaled_final/1061_fw.mp4	0.0	292.12950801849365	2.5085980892181396
62	271.43193197250366	pulse	1	t		60.0	2.5	/experiments/AOT/AOT_stimuli/rescaled_final/1061_fw.mp4	0.0	293.72100710868835	
62	272.3490309715271	fix_post	2		12	60.0	2.5	/experiments/AOT/AOT_stimuli/rescaled_final/1061_fw.mp4	0.0	294.6381061077118	0.09998083114624023
63	272.44901180267334	fix_pre	0		120	61.0	2.5	blank	1.0	294.73808693885803	0.999744176864624
63	273.0321698188782	pulse	0	t		61.0	2.5	blank	1.0	295.32124495506287	
63	273.44875597953796	movie	1		300	61.0	2.5	blank	1.0	295.73783111572266	2.4999849796295166
63	274.6323390007019	pulse	1	t		61.0	2.5	blank	1.0	296.9214141368866	
63	275.9487409591675	fix_post	2		12	61.0	2.5	blank	1.0	298.2378160953522	0.10003495216369629
64	276.0487759113312	fix_pre	0		120	62.0	2.5	/experiments/AOT/AOT_stimuli/rescaled_final/1518_rv.mp4	0.0	298.33785104751587	0.9999539852142334
64	276.2322688102722	pulse	0	t		62.0	2.5	/experiments/AOT/AOT_stimuli/rescaled_final/1518_rv.mp4	0.0	298.5213439464569	
64	277.0487298965454	movie	1		243	62.0	2.5	/experiments/AOT/AOT_stimuli/rescaled_final/1518_rv.mp4	0.0	299.3378050327301	2.4999170303344727
64	277.83205795288086	pulse	1	t		62.0	2.5	/experiments/AOT/AOT_stimuli/rescaled_final/1518_rv.mp4	0.0	300.12113308906555	
64	279.43081188201904	pulse	1	t		62.0	2.5	/experiments/AOT/AOT_stimuli/rescaled_final/1518_rv.mp4	0.0	301.71988701820374	
64	279.5486469268799	fix_post	2		12	62.0	2.5	/experiments/AOT/AOT_stimuli/rescaled_final/1518_rv.mp4	0.0	301.8377220630646	0.10001492500305176
65	279.64866185188293	fix_pre	0		120	63.0	2.5	/experiments/AOT/AOT_stimuli/rescaled_final/0519_fw.mp4	0.0	301.9377369880676	1.0000109672546387
65	280.6486728191376	movie	1		244	63.0	2.5	/experiments/AOT/AOT_stimuli/rescaled_final/0519_fw.mp4	0.0	302.93774795532227	2.49959397315979
65	281.03182196617126	pulse	1	t		63.0	2.5	/experiments/AOT/AOT_stimuli/rescaled_final/0519_fw.mp4	0.0	303.32089710235596	
65	282.6321339607239	pulse	1	t		63.0	2.5	/experiments/AOT/AOT_stimuli/rescaled_final/0519_fw.mp4	0.0	304.92120909690857	
65	283.14826679229736	fix_post	2		12	63.0	2.5	/experiments/AOT/AOT_stimuli/rescaled_final/0519_fw.mp4	0.0	305.43734192848206	0.10035300254821777
66	283.2486197948456	fix_pre	0		119	64.0	2.5	/experiments/AOT/AOT_stimuli/rescaled_final/0884_fw.mp4	0.0	305.5376949310303	0.9916951656341553
66	284.2322688102722	pulse	0	t		64.0	2.5	/experiments/AOT/AOT_stimuli/rescaled_final/0884_fw.mp4	0.0	306.5213439464569	
66	284.24031496047974	movie	1		246	64.0	2.5	/experiments/AOT/AOT_stimuli/rescaled_final/0884_fw.mp4	0.0	306.52939009666443	2.508319854736328
66	285.8335258960724	pulse	1	t		64.0	2.5	/experiments/AOT/AOT_stimuli/rescaled_final/0884_fw.mp4	0.0	308.1226010322571	
66	286.74863481521606	fix_post	2		12	64.0	2.5	/experiments/AOT/AOT_stimuli/rescaled_final/0884_fw.mp4	0.0	309.03770995140076	0.10004806518554688
67	286.8486828804016	fix_pre	0		120	65.0	2.5	/experiments/AOT/AOT_stimuli/rescaled_final/0467_rv.mp4	0.0	309.1377580165863	0.9999361038208008
67	287.43218183517456	pulse	0	t		65.0	2.5	/experiments/AOT/AOT_stimuli/rescaled_final/0467_rv.mp4	0.0	309.72125697135925	
67	287.8486189842224	movie	1		247	65.0	2.5	/experiments/AOT/AOT_stimuli/rescaled_final/0467_rv.mp4	0.0	310.1376941204071	2.500082015991211
67	289.03224301338196	pulse	1	t		65.0	2.5	/experiments/AOT/AOT_stimuli/rescaled_final/0467_rv.mp4	0.0	311.32131814956665	
67	290.3487010002136	fix_post	2		12	65.0	2.5	/experiments/AOT/AOT_stimuli/rescaled_final/0467_rv.mp4	0.0	312.6377761363983	0.09991598129272461
68	290.44861698150635	fix_pre	0		120	66.0	2.5	/experiments/AOT/AOT_stimuli/rescaled_final/2094_fw.mp4	0.0	312.73769211769104	1.0
68	290.63218688964844	pulse	0	t		66.0	2.5	/experiments/AOT/AOT_stimuli/rescaled_final/2094_fw.mp4	0.0	312.92126202583313	
68	291.44861698150635	movie	1		243	66.0	2.5	/experiments/AOT/AOT_stimuli/rescaled_final/2094_fw.mp4	0.0	313.73769211769104	2.4995739459991455
68	292.23214292526245	pulse	1	t		66.0	2.5	/experiments/AOT/AOT_stimuli/rescaled_final/2094_fw.mp4	0.0	314.52121806144714	
68	293.83049297332764	pulse	1	t		66.0	2.5	/experiments/AOT/AOT_stimuli/rescaled_final/2094_fw.mp4	0.0	316.11956810951233	
68	293.9481909275055	fix_post	2		12	66.0	2.5	/experiments/AOT/AOT_stimuli/rescaled_final/2094_fw.mp4	0.0	316.2372660636902	0.10038399696350098
69	294.048574924469	fix_pre	0		120	67.0	2.5	/experiments/AOT/AOT_stimuli/rescaled_final/1207_rv.mp4	0.0	316.3376500606537	1.0000638961791992
69	295.0486388206482	movie	1		245	67.0	2.5	/experiments/AOT/AOT_stimuli/rescaled_final/1207_rv.mp4	0.0	317.3377139568329	2.4999589920043945
69	295.4319348335266	pulse	1	t		67.0	2.5	/experiments/AOT/AOT_stimuli/rescaled_final/1207_rv.mp4	0.0	317.7210099697113	
69	297.03210186958313	pulse	1	t		67.0	2.5	/experiments/AOT/AOT_stimuli/rescaled_final/1207_rv.mp4	0.0	319.3211770057678	
69	297.5485978126526	fix_post	2		12	67.0	2.5	/experiments/AOT/AOT_stimuli/rescaled_final/1207_rv.mp4	0.0	319.8376729488373	0.1000661849975586
70	297.64866399765015	fix_pre	0		119	68.0	2.5	/experiments/AOT/AOT_stimuli/rescaled_final/0467_rv.mp4	0.0	319.93773913383484	0.9915769100189209
70	298.63214898109436	pulse	0	t		68.0	2.5	/experiments/AOT/AOT_stimuli/rescaled_final/0467_rv.mp4	0.0	320.92122411727905	
70	298.64024090766907	movie	1		247	68.0	2.5	/experiments/AOT/AOT_stimuli/rescaled_final/0467_rv.mp4	0.0	320.92931604385376	2.5079550743103027
70	300.23149490356445	pulse	1	t		68.0	2.5	/experiments/AOT/AOT_stimuli/rescaled_final/0467_rv.mp4	0.0	322.52057003974915	
70	301.14819598197937	fix_post	2		12	68.0	2.5	/experiments/AOT/AOT_stimuli/rescaled_final/0467_rv.mp4	0.0	323.43727111816406	0.10032892227172852
71	301.2485249042511	fix_pre	0		120	69.0	2.5	/experiments/AOT/AOT_stimuli/rescaled_final/0152_fw.mp4	0.0	323.5376000404358	1.0000860691070557
71	301.83217191696167	pulse	0	t		69.0	2.5	/experiments/AOT/AOT_stimuli/rescaled_final/0152_fw.mp4	0.0	324.12124705314636	
71	302.24861097335815	movie	1		244	69.0	2.5	/experiments/AOT/AOT_stimuli/rescaled_final/0152_fw.mp4	0.0	324.53768610954285	2.4999618530273438
71	303.4320778846741	pulse	1	t		69.0	2.5	/experiments/AOT/AOT_stimuli/rescaled_final/0152_fw.mp4	0.0	325.72115302085876	
71	304.7485728263855	fix_post	2		12	69.0	2.5	/experiments/AOT/AOT_stimuli/rescaled_final/0152_fw.mp4	0.0	327.0376479625702	0.10004615783691406
72	304.8486189842224	fix_pre	0		120	70.0	2.5	blank	1.0	327.1376941204071	0.9999480247497559
72	305.03211879730225	pulse	0	t		70.0	2.5	blank	1.0	327.32119393348694	
72	305.84856700897217	movie	1		300	70.0	2.5	blank	1.0	328.13764214515686	2.500006914138794
72	306.6319968700409	pulse	1	t		70.0	2.5	blank	1.0	328.9210720062256	
72	308.2320239543915	pulse	1	t		70.0	2.5	blank	1.0	330.5210990905762	
72	308.34857392311096	fix_post	2		12	70.0	2.5	blank	1.0	330.63764905929565	0.0999140739440918
73	308.44848799705505	fix_pre	0		120	71.0	2.5	/experiments/AOT/AOT_stimuli/rescaled_final/0126_rv.mp4	0.0	330.73756313323975	0.9996938705444336
73	309.4481818675995	movie	1		244	71.0	2.5	/experiments/AOT/AOT_stimuli/rescaled_final/0126_rv.mp4	0.0	331.7372570037842	2.5003180503845215
73	309.83173394203186	pulse	1	t		71.0	2.5	/experiments/AOT/AOT_stimuli/rescaled_final/0126_rv.mp4	0.0	332.12080907821655	
73	311.4321069717407	pulse	1	t		71.0	2.5	/experiments/AOT/AOT_stimuli/rescaled_final/0126_rv.mp4	0.0	333.7211821079254	
73	311.948499917984	fix_post	2		12	71.0	2.5	/experiments/AOT/AOT_stimuli/rescaled_final/0126_rv.mp4	0.0	334.2375750541687	0.10001087188720703
74	312.0485107898712	fix_pre	0		119	72.0	2.5	/experiments/AOT/AOT_stimuli/rescaled_final/0099_fw.mp4	0.0	334.3375859260559	0.9917571544647217
74	313.03204584121704	pulse	0	t		72.0	2.5	/experiments/AOT/AOT_stimuli/rescaled_final/0099_fw.mp4	0.0	335.32112097740173	
74	313.04026794433594	movie	1		245	72.0	2.5	/experiments/AOT/AOT_stimuli/rescaled_final/0099_fw.mp4	0.0	335.32934308052063	2.508336067199707
74	314.633407831192	pulse	1	t		72.0	2.5	/experiments/AOT/AOT_stimuli/rescaled_final/0099_fw.mp4	0.0	336.9224829673767	
74	315.54860401153564	fix_post	2		12	72.0	2.5	/experiments/AOT/AOT_stimuli/rescaled_final/0099_fw.mp4	0.0	337.83767914772034	0.09998297691345215
75	315.6485869884491	fix_pre	0		120	73.0	2.5	/experiments/AOT/AOT_stimuli/rescaled_final/1956_fw.mp4	0.0	337.9376621246338	0.9995248317718506
75	316.2320718765259	pulse	0	t		73.0	2.5	/experiments/AOT/AOT_stimuli/rescaled_final/1956_fw.mp4	0.0	338.52114701271057	
75	316.64811182022095	movie	1		244	73.0	2.5	/experiments/AOT/AOT_stimuli/rescaled_final/1956_fw.mp4	0.0	338.93718695640564	2.49997615814209
75	317.8320779800415	pulse	1	t		73.0	2.5	/experiments/AOT/AOT_stimuli/rescaled_final/1956_fw.mp4	0.0	340.1211531162262	
75	319.14808797836304	fix_post	2		12	73.0	2.5	/experiments/AOT/AOT_stimuli/rescaled_final/1956_fw.mp4	0.0	341.43716311454773	0.10040998458862305
76	319.24849796295166	fix_pre	0		120	74.0	2.5	/experiments/AOT/AOT_stimuli/rescaled_final/0779_rv.mp4	0.0	341.53757309913635	0.9999978542327881
76	319.43208599090576	pulse	0	t		74.0	2.5	/experiments/AOT/AOT_stimuli/rescaled_final/0779_rv.mp4	0.0	341.72116112709045	
76	320.24849581718445	movie	1		245	74.0	2.5	/experiments/AOT/AOT_stimuli/rescaled_final/0779_rv.mp4	0.0	342.53757095336914	2.5000250339508057
76	321.03208899497986	pulse	1	t		74.0	2.5	/experiments/AOT/AOT_stimuli/rescaled_final/0779_rv.mp4	0.0	343.32116413116455	
76	322.62808084487915	pulse	1	t		74.0	2.5	/experiments/AOT/AOT_stimuli/rescaled_final/0779_rv.mp4	0.0	344.91715598106384	
76	322.74852085113525	fix_post	2		12	74.0	2.5	/experiments/AOT/AOT_stimuli/rescaled_final/0779_rv.mp4	0.0	345.03759598731995	0.09954214096069336
77	322.84806299209595	fix_pre	0		120	75.0	2.5	blank	1.0	345.13713812828064	1.000504970550537
77	323.8485679626465	movie	1		300	75.0	2.5	blank	1.0	346.1376430988312	2.499569892883301
77	324.23204278945923	pulse	1	t		75.0	2.5	blank	1.0	346.5211179256439	
77	325.83160495758057	pulse	1	t		75.0	2.5	blank	1.0	348.12068009376526	
77	326.3481378555298	fix_post	2		12	75.0	2.5	blank	1.0	348.6372129917145	0.09995698928833008
78	326.4480948448181	fix_pre	0		119	76.0	2.5	/experiments/AOT/AOT_stimuli/rescaled_final/0670_rv.mp4	0.0	348.7371699810028	0.9922621250152588
78	327.4321928024292	pulse	0	t		76.0	2.5	/experiments/AOT/AOT_stimuli/rescaled_final/0670_rv.mp4	0.0	349.7212679386139	
78	327.4403569698334	movie	1		245	76.0	2.5	/experiments/AOT/AOT_stimuli/rescaled_final/0670_rv.mp4	0.0	349.72943210601807	2.5082290172576904
78	329.0317029953003	pulse	1	t		76.0	2.5	/experiments/AOT/AOT_stimuli/rescaled_final/0670_rv.mp4	0.0	351.320778131485	
78	329.94858598709106	fix_post	2		12	76.0	2.5	/experiments/AOT/AOT_stimuli/rescaled_final/0670_rv.mp4	0.0	352.23766112327576	0.09993195533752441
79	330.0485179424286	fix_pre	0		120	77.0	2.5	/experiments/AOT/AOT_stimuli/rescaled_final/0920_fw.mp4	0.0	352.3375930786133	1.0000429153442383
79	330.6319589614868	pulse	0	t		77.0	2.5	/experiments/AOT/AOT_stimuli/rescaled_final/0920_fw.mp4	0.0	352.9210340976715	
79	331.0485608577728	movie	1		245	77.0	2.5	/experiments/AOT/AOT_stimuli/rescaled_final/0920_fw.mp4	0.0	353.3376359939575	2.499446153640747
79	332.2320828437805	pulse	1	t		77.0	2.5	/experiments/AOT/AOT_stimuli/rescaled_final/0920_fw.mp4	0.0	354.5211579799652	
79	333.5480070114136	fix_post	2		12	77.0	2.5	/experiments/AOT/AOT_stimuli/rescaled_final/0920_fw.mp4	0.0	355.83708214759827	0.1004338264465332
80	333.6484408378601	fix_pre	0		120	78.0	2.5	/experiments/AOT/AOT_stimuli/rescaled_final/0585_fw.mp4	0.0	355.9375159740448	0.9995779991149902
80	333.83208084106445	pulse	0	t		78.0	2.5	/experiments/AOT/AOT_stimuli/rescaled_final/0585_fw.mp4	0.0	356.12115597724915	
80	334.6480188369751	movie	1		246	78.0	2.5	/experiments/AOT/AOT_stimuli/rescaled_final/0585_fw.mp4	0.0	356.9370939731598	2.500378131866455
80	335.43192982673645	pulse	1	t		78.0	2.5	/experiments/AOT/AOT_stimuli/rescaled_final/0585_fw.mp4	0.0	357.72100496292114	
80	337.03049087524414	pulse	1	t		78.0	2.5	/experiments/AOT/AOT_stimuli/rescaled_final/0585_fw.mp4	0.0	359.31956601142883	
80	337.14839696884155	fix_post	2		12	78.0	2.5	/experiments/AOT/AOT_stimuli/rescaled_final/0585_fw.mp4	0.0	359.43747210502625	0.09963297843933105
81	337.2480299472809	fix_pre	0		120	79.0	2.5	/experiments/AOT/AOT_stimuli/rescaled_final/1391_rv.mp4	0.0	359.5371050834656	1.0003979206085205
81	338.2484278678894	movie	1		243	79.0	2.5	/experiments/AOT/AOT_stimuli/rescaled_final/1391_rv.mp4	0.0	360.5375030040741	2.499572992324829
81	338.6315698623657	pulse	1	t		79.0	2.5	/experiments/AOT/AOT_stimuli/rescaled_final/1391_rv.mp4	0.0	360.9206449985504	
81	340.231910943985	pulse	1	t		79.0	2.5	/experiments/AOT/AOT_stimuli/rescaled_final/1391_rv.mp4	0.0	362.5209860801697	
81	340.74800086021423	fix_post	2		12	79.0	2.5	/experiments/AOT/AOT_stimuli/rescaled_final/1391_rv.mp4	0.0	363.0370759963989	0.10039496421813965
82	340.8483958244324	fix_pre	0		119	80.0	2.5	/experiments/AOT/AOT_stimuli/rescaled_final/1422_fw.mp4	0.0	363.13747096061707	0.9916629791259766
82	341.8319778442383	pulse	0	t		80.0	2.5	/experiments/AOT/AOT_stimuli/rescaled_final/1422_fw.mp4	0.0	364.121052980423	
82	341.84005880355835	movie	1		246	80.0	2.5	/experiments/AOT/AOT_stimuli/rescaled_final/1422_fw.mp4	0.0	364.12913393974304	2.5082781314849854
82	343.4317967891693	pulse	1	t		80.0	2.5	/experiments/AOT/AOT_stimuli/rescaled_final/1422_fw.mp4	0.0	365.720871925354	
82	344.34833693504333	fix_post	2		12	80.0	2.5	/experiments/AOT/AOT_stimuli/rescaled_final/1422_fw.mp4	0.0	366.637412071228	0.10003495216369629
83	344.44837188720703	fix_pre	0		120	81.0	2.5	/experiments/AOT/AOT_stimuli/rescaled_final/1095_rv.mp4	0.0	366.7374470233917	1.0000050067901611
83	345.0319769382477	pulse	0	t		81.0	2.5	/experiments/AOT/AOT_stimuli/rescaled_final/1095_rv.mp4	0.0	367.3210520744324	
83	345.4483768939972	movie	1		244	81.0	2.5	/experiments/AOT/AOT_stimuli/rescaled_final/1095_rv.mp4	0.0	367.7374520301819	2.500035047531128
83	346.63202691078186	pulse	1	t		81.0	2.5	/experiments/AOT/AOT_stimuli/rescaled_final/1095_rv.mp4	0.0	368.92110204696655	
83	347.9484119415283	fix_post	2		12	81.0	2.5	/experiments/AOT/AOT_stimuli/rescaled_final/1095_rv.mp4	0.0	370.237487077713	0.0999288558959961
84	348.0483407974243	fix_pre	0		120	82.0	2.5	blank	1.0	370.337415933609	1.0000190734863281
84	348.231910943985	pulse	0	t		82.0	2.5	blank	1.0	370.5209860801697	
84	349.04835987091064	movie	1		300	82.0	2.5	blank	1.0	371.33743500709534	2.5000879764556885
84	349.8318569660187	pulse	1	t		82.0	2.5	blank	1.0	372.12093210220337	
84	351.4319968223572	pulse	1	t		82.0	2.5	blank	1.0	373.72107195854187	
84	351.54844784736633	fix_post	2		12	82.0	2.5	blank	1.0	373.837522983551	0.09994697570800781
85	351.64839482307434	fix_pre	0		120	83.0	2.5	/experiments/AOT/AOT_stimuli/rescaled_final/0737_fw.mp4	0.0	373.93746995925903	0.9999260902404785
85	352.6483209133148	movie	1		247	83.0	2.5	/experiments/AOT/AOT_stimuli/rescaled_final/0737_fw.mp4	0.0	374.9373960494995	2.4995920658111572
85	353.0317130088806	pulse	1	t		83.0	2.5	/experiments/AOT/AOT_stimuli/rescaled_final/0737_fw.mp4	0.0	375.3207881450653	
85	354.6318349838257	pulse	1	t		83.0	2.5	/experiments/AOT/AOT_stimuli/rescaled_final/0737_fw.mp4	0.0	376.9209101200104	
85	355.147912979126	fix_post	2		12	83.0	2.5	/experiments/AOT/AOT_stimuli/rescaled_final/0737_fw.mp4	0.0	377.43698811531067	0.10012388229370117
87	355.2480368614197	stim	0		1716					377.53711199760437	14.300240993499756
87	356.2318859100342	pulse	0	t						378.5209610462189	
87	357.8319208621979	pulse	0	t						380.12099599838257	
87	359.4317708015442	pulse	0	t						381.7208459377289	
87	361.03189492225647	pulse	0	t						383.32097005844116	
87	362.63180899620056	pulse	0	t						384.92088413238525	
87	364.2318048477173	pulse	0	t						386.520879983902	
87	365.8318078517914	pulse	0	t						388.1208829879761	
87	367.43183398246765	pulse	0	t						389.72090911865234	
87	369.03174686431885	pulse	0	t						391.32082200050354	
