trial_nr	onset	event_type	phase	response	nr_frames	movie_index	movie_duration	movie_file	blank	onset_abs	duration
0	0.191605806350708	stim	0		1					18.18516492843628	0.01662468910217285
0	0.1182396411895752	response	0	space						18.111798763275146	
1	0.20823049545288086	stim	0		4980					18.201789617538452	41.533053398132324
1	41.7163450717926	pulse	0	t						59.709904193878174	
1	41.741283893585205	stim	1		1716					59.734843015670776	14.300251245498657
1	43.31477451324463	pulse	1	t						61.3083336353302	
1	44.90672183036804	pulse	1	t						62.90028095245361	
1	46.50703024864197	pulse	1	t						64.50058937072754	
1	48.107179164886475	pulse	1	t						66.10073828697205	
1	49.7074556350708	pulse	1	t						67.70101475715637	
1	51.30765700340271	pulse	1	t						69.30121612548828	
1	52.90788674354553	pulse	1	t						70.9014458656311	
1	54.508161783218384	pulse	1	t						72.50172090530396	
2	56.04153513908386	fix_pre	0		6	0.0	2.5	/experiments/knapen_AOT/AOT_stimuli/rescaled_final/1139_rv.mp4	0.0	74.03509426116943	0.15018701553344727
2	56.10842943191528	pulse	0	t		0.0	2.5	/experiments/knapen_AOT/AOT_stimuli/rescaled_final/1139_rv.mp4	0.0	74.10198855400085	
2	56.19172215461731	movie	1		291	0.0	2.5	/experiments/knapen_AOT/AOT_stimuli/rescaled_final/1139_rv.mp4	0.0	74.18528127670288	2.4419331550598145
2	57.70434880256653	pulse	1	t		0.0	2.5	/experiments/knapen_AOT/AOT_stimuli/rescaled_final/1139_rv.mp4	0.0	75.6979079246521	
2	58.633655309677124	fix_post	2		12	0.0	2.5	/experiments/knapen_AOT/AOT_stimuli/rescaled_final/1139_rv.mp4	0.0	76.6272144317627	0.09998512268066406
3	58.73364043235779	fix_pre	0		120	1.0	2.5	/experiments/knapen_AOT/AOT_stimuli/rescaled_final/0402_fw.mp4	0.0	76.72719955444336	1.0085570812225342
3	59.30906128883362	pulse	0	t		1.0	2.5	/experiments/knapen_AOT/AOT_stimuli/rescaled_final/0402_fw.mp4	0.0	77.30262041091919	
3	59.74219751358032	movie	1		298	1.0	2.5	/experiments/knapen_AOT/AOT_stimuli/rescaled_final/0402_fw.mp4	0.0	77.7357566356659	2.491947889328003
3	60.90525555610657	pulse	1	t		1.0	2.5	/experiments/knapen_AOT/AOT_stimuli/rescaled_final/0402_fw.mp4	0.0	78.89881467819214	
3	62.234145402908325	fix_post	2		12	1.0	2.5	/experiments/knapen_AOT/AOT_stimuli/rescaled_final/0402_fw.mp4	0.0	80.2277045249939	0.10006833076477051
4	62.334213733673096	fix_pre	0		120	2.0	2.5	/experiments/knapen_AOT/AOT_stimuli/rescaled_final/0162_fw.mp4	0.0	80.32777285575867	1.0001115798950195
4	62.50937509536743	pulse	0	t		2.0	2.5	/experiments/knapen_AOT/AOT_stimuli/rescaled_final/0162_fw.mp4	0.0	80.502934217453	
4	63.334325313568115	movie	1		300	2.0	2.5	/experiments/knapen_AOT/AOT_stimuli/rescaled_final/0162_fw.mp4	0.0	81.32788443565369	2.500357151031494
4	64.10548639297485	pulse	1	t		2.0	2.5	/experiments/knapen_AOT/AOT_stimuli/rescaled_final/0162_fw.mp4	0.0	82.09904551506042	
4	65.70559048652649	pulse	1	t		2.0	2.5	/experiments/knapen_AOT/AOT_stimuli/rescaled_final/0162_fw.mp4	0.0	83.69914960861206	
4	65.83468246459961	fix_post	2		12	2.0	2.5	/experiments/knapen_AOT/AOT_stimuli/rescaled_final/0162_fw.mp4	0.0	83.82824158668518	0.10003089904785156
5	65.93471336364746	fix_pre	0		120	3.0	2.5	/experiments/knapen_AOT/AOT_stimuli/rescaled_final/1337_rv.mp4	0.0	83.92827248573303	1.0084545612335205
5	66.94316792488098	movie	1		299	3.0	2.5	/experiments/knapen_AOT/AOT_stimuli/rescaled_final/1337_rv.mp4	0.0	84.93672704696655	2.4921035766601562
5	67.30635666847229	pulse	1	t		3.0	2.5	/experiments/knapen_AOT/AOT_stimuli/rescaled_final/1337_rv.mp4	0.0	85.29991579055786	
5	68.90628957748413	pulse	1	t		3.0	2.5	/experiments/knapen_AOT/AOT_stimuli/rescaled_final/1337_rv.mp4	0.0	86.8998486995697	
5	69.43527150154114	fix_post	2		12	3.0	2.5	/experiments/knapen_AOT/AOT_stimuli/rescaled_final/1337_rv.mp4	0.0	87.42883062362671	0.10003423690795898
6	69.5353057384491	fix_pre	0		118	4.0	2.5	/experiments/knapen_AOT/AOT_stimuli/rescaled_final/2006_fw.mp4	0.0	87.52886486053467	0.9917850494384766
6	70.51058506965637	pulse	0	t		4.0	2.5	/experiments/knapen_AOT/AOT_stimuli/rescaled_final/2006_fw.mp4	0.0	88.50414419174194	
6	70.52709078788757	movie	1		300	4.0	2.5	/experiments/knapen_AOT/AOT_stimuli/rescaled_final/2006_fw.mp4	0.0	88.52064990997314	2.500436544418335
6	72.10902404785156	pulse	1	t		4.0	2.5	/experiments/knapen_AOT/AOT_stimuli/rescaled_final/2006_fw.mp4	0.0	90.10258316993713	
6	73.02752733230591	fix_post	2		12	4.0	2.5	/experiments/knapen_AOT/AOT_stimuli/rescaled_final/2006_fw.mp4	0.0	91.02108645439148	0.09996604919433594
7	73.12749338150024	fix_pre	0		120	5.0	2.5	blank	1.0	91.12105250358582	1.0001072883605957
7	73.71102213859558	pulse	0	t		5.0	2.5	blank	1.0	91.70458126068115	
7	74.12760066986084	movie	1		300	5.0	2.5	blank	1.0	92.12115979194641	2.5003790855407715
7	75.31133079528809	pulse	1	t		5.0	2.5	blank	1.0	93.30488991737366	
7	76.62797975540161	fix_post	2		12	5.0	2.5	blank	1.0	94.62153887748718	0.09999251365661621
8	76.72797226905823	fix_pre	0		120	6.0	2.5	/experiments/knapen_AOT/AOT_stimuli/rescaled_final/0455_rv.mp4	0.0	94.7215313911438	1.0004136562347412
8	76.91154026985168	pulse	0	t		6.0	2.5	/experiments/knapen_AOT/AOT_stimuli/rescaled_final/0455_rv.mp4	0.0	94.90509939193726	
8	77.72838592529297	movie	1		297	6.0	2.5	/experiments/knapen_AOT/AOT_stimuli/rescaled_final/0455_rv.mp4	0.0	95.72194504737854	2.500136137008667
8	78.50727820396423	pulse	1	t		6.0	2.5	/experiments/knapen_AOT/AOT_stimuli/rescaled_final/0455_rv.mp4	0.0	96.5008373260498	
8	80.10854983329773	pulse	1	t		6.0	2.5	/experiments/knapen_AOT/AOT_stimuli/rescaled_final/0455_rv.mp4	0.0	98.1021089553833	
8	80.22852206230164	fix_post	2		12	6.0	2.5	/experiments/knapen_AOT/AOT_stimuli/rescaled_final/0455_rv.mp4	0.0	98.2220811843872	0.10002970695495605
9	80.32855176925659	fix_pre	0		120	7.0	2.5	/experiments/knapen_AOT/AOT_stimuli/rescaled_final/0654_fw.mp4	0.0	98.32211089134216	1.0001294612884521
9	81.32868123054504	movie	1		296	7.0	2.5	/experiments/knapen_AOT/AOT_stimuli/rescaled_final/0654_fw.mp4	0.0	99.32224035263062	2.4920406341552734
9	81.70896863937378	pulse	1	t		7.0	2.5	/experiments/knapen_AOT/AOT_stimuli/rescaled_final/0654_fw.mp4	0.0	99.70252776145935	
9	83.30432915687561	pulse	1	t		7.0	2.5	/experiments/knapen_AOT/AOT_stimuli/rescaled_final/0654_fw.mp4	0.0	101.29788827896118	
9	83.82072186470032	fix_post	2		12	7.0	2.5	/experiments/knapen_AOT/AOT_stimuli/rescaled_final/0654_fw.mp4	0.0	101.81428098678589	0.10007596015930176
10	83.92079782485962	fix_pre	0		119	8.0	2.5	/experiments/knapen_AOT/AOT_stimuli/rescaled_final/0189_rv.mp4	0.0	101.91435694694519	1.0084805488586426
10	84.90471625328064	pulse	0	t		8.0	2.5	/experiments/knapen_AOT/AOT_stimuli/rescaled_final/0189_rv.mp4	0.0	102.89827537536621	
10	84.92927837371826	movie	1		293	8.0	2.5	/experiments/knapen_AOT/AOT_stimuli/rescaled_final/0189_rv.mp4	0.0	102.92283749580383	2.491985559463501
10	86.50465416908264	pulse	1	t		8.0	2.5	/experiments/knapen_AOT/AOT_stimuli/rescaled_final/0189_rv.mp4	0.0	104.49821329116821	
10	87.42126393318176	fix_post	2		12	8.0	2.5	/experiments/knapen_AOT/AOT_stimuli/rescaled_final/0189_rv.mp4	0.0	105.41482305526733	0.10001587867736816
11	87.52127981185913	fix_pre	0		120	9.0	2.5	/experiments/knapen_AOT/AOT_stimuli/rescaled_final/0372_fw.mp4	0.0	105.5148389339447	1.0085034370422363
11	88.10489559173584	pulse	0	t		9.0	2.5	/experiments/knapen_AOT/AOT_stimuli/rescaled_final/0372_fw.mp4	0.0	106.09845471382141	
11	88.52978324890137	movie	1		292	9.0	2.5	/experiments/knapen_AOT/AOT_stimuli/rescaled_final/0372_fw.mp4	0.0	106.52334237098694	2.4920849800109863
11	89.70524168014526	pulse	1	t		9.0	2.5	/experiments/knapen_AOT/AOT_stimuli/rescaled_final/0372_fw.mp4	0.0	107.69880080223083	
11	91.02186822891235	fix_post	2		12	9.0	2.5	/experiments/knapen_AOT/AOT_stimuli/rescaled_final/0372_fw.mp4	0.0	109.01542735099792	0.1000063419342041
12	91.12187457084656	fix_pre	0		120	10.0	2.5	/experiments/knapen_AOT/AOT_stimuli/rescaled_final/0092_rv.mp4	0.0	109.11543369293213	1.008430004119873
12	91.30536031723022	pulse	0	t		10.0	2.5	/experiments/knapen_AOT/AOT_stimuli/rescaled_final/0092_rv.mp4	0.0	109.2989194393158	
12	92.13030457496643	movie	1		292	10.0	2.5	/experiments/knapen_AOT/AOT_stimuli/rescaled_final/0092_rv.mp4	0.0	110.123863697052	2.492006301879883
12	92.90566325187683	pulse	1	t		10.0	2.5	/experiments/knapen_AOT/AOT_stimuli/rescaled_final/0092_rv.mp4	0.0	110.8992223739624	
12	94.50578355789185	pulse	1	t		10.0	2.5	/experiments/knapen_AOT/AOT_stimuli/rescaled_final/0092_rv.mp4	0.0	112.49934267997742	
12	94.62231087684631	fix_post	2		12	10.0	2.5	/experiments/knapen_AOT/AOT_stimuli/rescaled_final/0092_rv.mp4	0.0	112.61586999893188	0.10005474090576172
13	94.72236561775208	fix_pre	0		120	11.0	2.5	/experiments/knapen_AOT/AOT_stimuli/rescaled_final/0890_fw.mp4	0.0	112.71592473983765	1.0001401901245117
13	95.72250580787659	movie	1		292	11.0	2.5	/experiments/knapen_AOT/AOT_stimuli/rescaled_final/0890_fw.mp4	0.0	113.71606492996216	2.5004403591156006
13	96.10510873794556	pulse	1	t		11.0	2.5	/experiments/knapen_AOT/AOT_stimuli/rescaled_final/0890_fw.mp4	0.0	114.09866786003113	
13	97.70628213882446	pulse	1	t		11.0	2.5	/experiments/knapen_AOT/AOT_stimuli/rescaled_final/0890_fw.mp4	0.0	115.69984126091003	
13	98.22294616699219	fix_post	2		12	11.0	2.5	/experiments/knapen_AOT/AOT_stimuli/rescaled_final/0890_fw.mp4	0.0	116.21650528907776	0.10011029243469238
14	98.32305645942688	fix_pre	0		119	12.0	2.5	/experiments/knapen_AOT/AOT_stimuli/rescaled_final/1769_fw.mp4	0.0	116.31661558151245	1.0085337162017822
14	99.30656957626343	pulse	0	t		12.0	2.5	/experiments/knapen_AOT/AOT_stimuli/rescaled_final/1769_fw.mp4	0.0	117.300128698349	
14	99.33159017562866	movie	1		295	12.0	2.5	/experiments/knapen_AOT/AOT_stimuli/rescaled_final/1769_fw.mp4	0.0	117.32514929771423	2.4918487071990967
14	100.90593600273132	pulse	1	t		12.0	2.5	/experiments/knapen_AOT/AOT_stimuli/rescaled_final/1769_fw.mp4	0.0	118.8994951248169	
14	101.82343888282776	fix_post	2		12	12.0	2.5	/experiments/knapen_AOT/AOT_stimuli/rescaled_final/1769_fw.mp4	0.0	119.81699800491333	0.1000206470489502
15	101.92345952987671	fix_pre	0		120	13.0	2.5	blank	1.0	119.91701865196228	1.0001511573791504
15	102.50713729858398	pulse	0	t		13.0	2.5	blank	1.0	120.50069642066956	
15	102.92361068725586	movie	1		300	13.0	2.5	blank	1.0	120.91716980934143	2.5004281997680664
15	104.1076602935791	pulse	1	t		13.0	2.5	blank	1.0	122.10121941566467	
15	105.42403888702393	fix_post	2		12	13.0	2.5	blank	1.0	123.4175980091095	0.10010123252868652
16	105.52414011955261	fix_pre	0		120	14.0	2.5	/experiments/knapen_AOT/AOT_stimuli/rescaled_final/0471_rv.mp4	0.0	123.51769924163818	1.025047779083252
16	105.70772528648376	pulse	0	t		14.0	2.5	/experiments/knapen_AOT/AOT_stimuli/rescaled_final/0471_rv.mp4	0.0	123.70128440856934	
16	106.54918789863586	movie	1		259	14.0	2.5	/experiments/knapen_AOT/AOT_stimuli/rescaled_final/0471_rv.mp4	0.0	124.54274702072144	2.475353240966797
16	107.30601930618286	pulse	1	t		14.0	2.5	/experiments/knapen_AOT/AOT_stimuli/rescaled_final/0471_rv.mp4	0.0	125.29957842826843	
16	108.90631651878357	pulse	1	t		14.0	2.5	/experiments/knapen_AOT/AOT_stimuli/rescaled_final/0471_rv.mp4	0.0	126.89987564086914	
16	109.02454113960266	fix_post	2		12	14.0	2.5	/experiments/knapen_AOT/AOT_stimuli/rescaled_final/0471_rv.mp4	0.0	127.01810026168823	0.10003781318664551
17	109.1245789527893	fix_pre	0		120	15.0	2.5	/experiments/knapen_AOT/AOT_stimuli/rescaled_final/2072_fw.mp4	0.0	127.11813807487488	1.0253331661224365
17	110.14991211891174	movie	1		253	15.0	2.5	/experiments/knapen_AOT/AOT_stimuli/rescaled_final/2072_fw.mp4	0.0	128.14347124099731	2.475189685821533
17	110.507892370224	pulse	1	t		15.0	2.5	/experiments/knapen_AOT/AOT_stimuli/rescaled_final/2072_fw.mp4	0.0	128.50145149230957	
17	112.1075987815857	pulse	1	t		15.0	2.5	/experiments/knapen_AOT/AOT_stimuli/rescaled_final/2072_fw.mp4	0.0	130.10115790367126	
17	112.62510180473328	fix_post	2		12	15.0	2.5	/experiments/knapen_AOT/AOT_stimuli/rescaled_final/2072_fw.mp4	0.0	130.61866092681885	0.0999915599822998
18	112.72509336471558	fix_pre	0		119	16.0	2.5	/experiments/knapen_AOT/AOT_stimuli/rescaled_final/0710_fw.mp4	0.0	130.71865248680115	1.0170714855194092
18	113.70887064933777	pulse	0	t		16.0	2.5	/experiments/knapen_AOT/AOT_stimuli/rescaled_final/0710_fw.mp4	0.0	131.70242977142334	
18	113.74216485023499	movie	1		272	16.0	2.5	/experiments/knapen_AOT/AOT_stimuli/rescaled_final/0710_fw.mp4	0.0	131.73572397232056	2.483457088470459
18	115.30732464790344	pulse	1	t		16.0	2.5	/experiments/knapen_AOT/AOT_stimuli/rescaled_final/0710_fw.mp4	0.0	133.300883769989	
18	116.22562193870544	fix_post	2		12	16.0	2.5	/experiments/knapen_AOT/AOT_stimuli/rescaled_final/0710_fw.mp4	0.0	134.21918106079102	0.10001444816589355
19	116.32563638687134	fix_pre	0		120	17.0	2.5	/experiments/knapen_AOT/AOT_stimuli/rescaled_final/0085_fw.mp4	0.0	134.3191955089569	1.008610486984253
19	116.90930795669556	pulse	0	t		17.0	2.5	/experiments/knapen_AOT/AOT_stimuli/rescaled_final/0085_fw.mp4	0.0	134.90286707878113	
19	117.33424687385559	movie	1		251	17.0	2.5	/experiments/knapen_AOT/AOT_stimuli/rescaled_final/0085_fw.mp4	0.0	135.32780599594116	2.492035150527954
19	118.51197290420532	pulse	1	t		17.0	2.5	/experiments/knapen_AOT/AOT_stimuli/rescaled_final/0085_fw.mp4	0.0	136.5055320262909	
19	119.82628202438354	fix_post	2		12	17.0	2.5	/experiments/knapen_AOT/AOT_stimuli/rescaled_final/0085_fw.mp4	0.0	137.81984114646912	0.09990739822387695
20	119.92618942260742	fix_pre	0		120	18.0	2.5	/experiments/knapen_AOT/AOT_stimuli/rescaled_final/0706_rv.mp4	0.0	137.919748544693	1.0168287754058838
20	120.10976219177246	pulse	0	t		18.0	2.5	/experiments/knapen_AOT/AOT_stimuli/rescaled_final/0706_rv.mp4	0.0	138.10332131385803	
20	120.9430181980133	movie	1		258	18.0	2.5	/experiments/knapen_AOT/AOT_stimuli/rescaled_final/0706_rv.mp4	0.0	138.93657732009888	2.4838991165161133
20	121.70813775062561	pulse	1	t		18.0	2.5	/experiments/knapen_AOT/AOT_stimuli/rescaled_final/0706_rv.mp4	0.0	139.70169687271118	
20	123.30843567848206	pulse	1	t		18.0	2.5	/experiments/knapen_AOT/AOT_stimuli/rescaled_final/0706_rv.mp4	0.0	141.30199480056763	
20	123.42691731452942	fix_post	2		12	18.0	2.5	/experiments/knapen_AOT/AOT_stimuli/rescaled_final/0706_rv.mp4	0.0	141.420476436615	0.09979820251464844
21	123.52671551704407	fix_pre	0		120	19.0	2.5	/experiments/knapen_AOT/AOT_stimuli/rescaled_final/0044_rv.mp4	0.0	141.52027463912964	1.025193452835083
21	124.55190896987915	movie	1		273	19.0	2.5	/experiments/knapen_AOT/AOT_stimuli/rescaled_final/0044_rv.mp4	0.0	142.54546809196472	2.475491523742676
21	124.91104173660278	pulse	1	t		19.0	2.5	/experiments/knapen_AOT/AOT_stimuli/rescaled_final/0044_rv.mp4	0.0	142.90460085868835	
21	126.50873756408691	pulse	1	t		19.0	2.5	/experiments/knapen_AOT/AOT_stimuli/rescaled_final/0044_rv.mp4	0.0	144.50229668617249	
21	127.02740049362183	fix_post	2		12	19.0	2.5	/experiments/knapen_AOT/AOT_stimuli/rescaled_final/0044_rv.mp4	0.0	145.0209596157074	0.10003972053527832
22	127.1274402141571	fix_pre	0		119	20.0	2.5	/experiments/knapen_AOT/AOT_stimuli/rescaled_final/1539_fw.mp4	0.0	145.12099933624268	1.0168044567108154
22	128.1110188961029	pulse	0	t		20.0	2.5	/experiments/knapen_AOT/AOT_stimuli/rescaled_final/1539_fw.mp4	0.0	146.10457801818848	
22	128.14424467086792	movie	1		266	20.0	2.5	/experiments/knapen_AOT/AOT_stimuli/rescaled_final/1539_fw.mp4	0.0	146.1378037929535	2.4836246967315674
22	129.71091651916504	pulse	1	t		20.0	2.5	/experiments/knapen_AOT/AOT_stimuli/rescaled_final/1539_fw.mp4	0.0	147.7044756412506	
22	130.6278693675995	fix_post	2		12	20.0	2.5	/experiments/knapen_AOT/AOT_stimuli/rescaled_final/1539_fw.mp4	0.0	148.62142848968506	0.09996461868286133
23	130.72783398628235	fix_pre	0		120	21.0	2.5	blank	1.0	148.72139310836792	1.0001046657562256
23	131.3114902973175	pulse	0	t		21.0	2.5	blank	1.0	149.30504941940308	
23	131.72793865203857	movie	1		300	21.0	2.5	blank	1.0	149.72149777412415	2.500394344329834
23	132.91169381141663	pulse	1	t		21.0	2.5	blank	1.0	150.9052529335022	
23	134.2283329963684	fix_post	2		12	21.0	2.5	blank	1.0	152.22189211845398	0.10013341903686523
24	134.32846641540527	fix_pre	0		120	22.0	2.5	/experiments/knapen_AOT/AOT_stimuli/rescaled_final/0066_rv.mp4	0.0	152.32202553749084	1.0167179107666016
24	134.51213765144348	pulse	0	t		22.0	2.5	/experiments/knapen_AOT/AOT_stimuli/rescaled_final/0066_rv.mp4	0.0	152.50569677352905	
24	135.34518432617188	movie	1		272	22.0	2.5	/experiments/knapen_AOT/AOT_stimuli/rescaled_final/0066_rv.mp4	0.0	153.33874344825745	2.4837968349456787
24	136.1101052761078	pulse	1	t		22.0	2.5	/experiments/knapen_AOT/AOT_stimuli/rescaled_final/0066_rv.mp4	0.0	154.10366439819336	
24	137.71051049232483	pulse	1	t		22.0	2.5	/experiments/knapen_AOT/AOT_stimuli/rescaled_final/0066_rv.mp4	0.0	155.7040696144104	
24	137.82898116111755	fix_post	2		12	22.0	2.5	/experiments/knapen_AOT/AOT_stimuli/rescaled_final/0066_rv.mp4	0.0	155.82254028320312	0.09990096092224121
25	137.9288821220398	fix_pre	0		120	23.0	2.5	/experiments/knapen_AOT/AOT_stimuli/rescaled_final/1686_rv.mp4	0.0	155.92244124412537	1.0253393650054932
25	138.9542214870453	movie	1		269	23.0	2.5	/experiments/knapen_AOT/AOT_stimuli/rescaled_final/1686_rv.mp4	0.0	156.94778060913086	2.475205421447754
25	139.31148624420166	pulse	1	t		23.0	2.5	/experiments/knapen_AOT/AOT_stimuli/rescaled_final/1686_rv.mp4	0.0	157.30504536628723	
25	140.91059017181396	pulse	1	t		23.0	2.5	/experiments/knapen_AOT/AOT_stimuli/rescaled_final/1686_rv.mp4	0.0	158.90414929389954	
25	141.42942690849304	fix_post	2		12	23.0	2.5	/experiments/knapen_AOT/AOT_stimuli/rescaled_final/1686_rv.mp4	0.0	159.4229860305786	0.10006904602050781
26	141.52949595451355	fix_pre	0		118	24.0	2.5	/experiments/knapen_AOT/AOT_stimuli/rescaled_final/1339_rv.mp4	0.0	159.52305507659912	1.0085070133209229
26	142.50494503974915	pulse	0	t		24.0	2.5	/experiments/knapen_AOT/AOT_stimuli/rescaled_final/1339_rv.mp4	0.0	160.49850416183472	
26	142.53800296783447	movie	1		268	24.0	2.5	/experiments/knapen_AOT/AOT_stimuli/rescaled_final/1339_rv.mp4	0.0	160.53156208992004	2.4836037158966064
26	144.10506439208984	pulse	1	t		24.0	2.5	/experiments/knapen_AOT/AOT_stimuli/rescaled_final/1339_rv.mp4	0.0	162.09862351417542	
26	145.02160668373108	fix_post	2		12	24.0	2.5	/experiments/knapen_AOT/AOT_stimuli/rescaled_final/1339_rv.mp4	0.0	163.01516580581665	0.10005950927734375
27	145.12166619300842	fix_pre	0		120	25.0	2.5	/experiments/knapen_AOT/AOT_stimuli/rescaled_final/1522_rv.mp4	0.0	163.115225315094	1.0169758796691895
27	145.70529985427856	pulse	0	t		25.0	2.5	/experiments/knapen_AOT/AOT_stimuli/rescaled_final/1522_rv.mp4	0.0	163.69885897636414	
27	146.1386420726776	movie	1		271	25.0	2.5	/experiments/knapen_AOT/AOT_stimuli/rescaled_final/1522_rv.mp4	0.0	164.13220119476318	2.483693838119507
27	147.3056070804596	pulse	1	t		25.0	2.5	/experiments/knapen_AOT/AOT_stimuli/rescaled_final/1522_rv.mp4	0.0	165.29916620254517	
27	148.62233591079712	fix_post	2		12	25.0	2.5	/experiments/knapen_AOT/AOT_stimuli/rescaled_final/1522_rv.mp4	0.0	166.6158950328827	0.09984898567199707
28	148.72218489646912	fix_pre	0		120	26.0	2.5	/experiments/knapen_AOT/AOT_stimuli/rescaled_final/2139_rv.mp4	0.0	166.7157440185547	1.0254554748535156
28	148.90590596199036	pulse	0	t		26.0	2.5	/experiments/knapen_AOT/AOT_stimuli/rescaled_final/2139_rv.mp4	0.0	166.89946508407593	
28	149.74764037132263	movie	1		255	26.0	2.5	/experiments/knapen_AOT/AOT_stimuli/rescaled_final/2139_rv.mp4	0.0	167.7411994934082	2.4750571250915527
28	150.50599932670593	pulse	1	t		26.0	2.5	/experiments/knapen_AOT/AOT_stimuli/rescaled_final/2139_rv.mp4	0.0	168.4995584487915	
28	152.10540008544922	pulse	1	t		26.0	2.5	/experiments/knapen_AOT/AOT_stimuli/rescaled_final/2139_rv.mp4	0.0	170.0989592075348	
28	152.22269749641418	fix_post	2		12	26.0	2.5	/experiments/knapen_AOT/AOT_stimuli/rescaled_final/2139_rv.mp4	0.0	170.21625661849976	0.10010385513305664
29	152.32280135154724	fix_pre	0		120	27.0	2.5	/experiments/knapen_AOT/AOT_stimuli/rescaled_final/1985_fw.mp4	0.0	170.3163604736328	1.0167458057403564
29	153.3395471572876	movie	1		265	27.0	2.5	/experiments/knapen_AOT/AOT_stimuli/rescaled_final/1985_fw.mp4	0.0	171.33310627937317	2.4839556217193604
29	153.70672249794006	pulse	1	t		27.0	2.5	/experiments/knapen_AOT/AOT_stimuli/rescaled_final/1985_fw.mp4	0.0	171.70028162002563	
29	155.30688095092773	pulse	1	t		27.0	2.5	/experiments/knapen_AOT/AOT_stimuli/rescaled_final/1985_fw.mp4	0.0	173.3004400730133	
29	155.82350277900696	fix_post	2		12	27.0	2.5	/experiments/knapen_AOT/AOT_stimuli/rescaled_final/1985_fw.mp4	0.0	173.81706190109253	0.09976434707641602
30	155.92326712608337	fix_pre	0		119	28.0	2.5	blank	1.0	173.91682624816895	0.9917998313903809
30	156.90705370903015	pulse	0	t		28.0	2.5	blank	1.0	174.90061283111572	
30	156.91506695747375	movie	1		301	28.0	2.5	blank	1.0	174.90862607955933	2.508708953857422
30	158.5071942806244	pulse	1	t		28.0	2.5	blank	1.0	176.50075340270996	
30	159.42377591133118	fix_post	2		12	28.0	2.5	blank	1.0	177.41733503341675	0.10002636909484863
31	159.52380228042603	fix_pre	0		120	29.0	2.5	/experiments/knapen_AOT/AOT_stimuli/rescaled_final/0455_rv.mp4	0.0	177.5173614025116	1.0168578624725342
31	160.1074481010437	pulse	0	t		29.0	2.5	/experiments/knapen_AOT/AOT_stimuli/rescaled_final/0455_rv.mp4	0.0	178.10100722312927	
31	160.54066014289856	movie	1		281	29.0	2.5	/experiments/knapen_AOT/AOT_stimuli/rescaled_final/0455_rv.mp4	0.0	178.53421926498413	2.483654737472534
31	161.7060341835022	pulse	1	t		29.0	2.5	/experiments/knapen_AOT/AOT_stimuli/rescaled_final/0455_rv.mp4	0.0	179.69959330558777	
31	163.0243148803711	fix_post	2		12	29.0	2.5	/experiments/knapen_AOT/AOT_stimuli/rescaled_final/0455_rv.mp4	0.0	181.01787400245667	0.10002279281616211
32	163.12433767318726	fix_pre	0		120	30.0	2.5	/experiments/knapen_AOT/AOT_stimuli/rescaled_final/0169_rv.mp4	0.0	181.11789679527283	1.0168101787567139
32	163.3079752922058	pulse	0	t		30.0	2.5	/experiments/knapen_AOT/AOT_stimuli/rescaled_final/0169_rv.mp4	0.0	181.30153441429138	
32	164.14114785194397	movie	1		262	30.0	2.5	/experiments/knapen_AOT/AOT_stimuli/rescaled_final/0169_rv.mp4	0.0	182.13470697402954	2.4838075637817383
32	164.90781474113464	pulse	1	t		30.0	2.5	/experiments/knapen_AOT/AOT_stimuli/rescaled_final/0169_rv.mp4	0.0	182.90137386322021	
32	166.50666403770447	pulse	1	t		30.0	2.5	/experiments/knapen_AOT/AOT_stimuli/rescaled_final/0169_rv.mp4	0.0	184.50022315979004	
32	166.6249554157257	fix_post	2		12	30.0	2.5	/experiments/knapen_AOT/AOT_stimuli/rescaled_final/0169_rv.mp4	0.0	184.61851453781128	0.09992170333862305
33	166.72487711906433	fix_pre	0		120	31.0	2.5	/experiments/knapen_AOT/AOT_stimuli/rescaled_final/0697_rv.mp4	0.0	184.7184362411499	1.02522611618042
33	167.75010323524475	movie	1		260	31.0	2.5	/experiments/knapen_AOT/AOT_stimuli/rescaled_final/0697_rv.mp4	0.0	185.74366235733032	2.475313186645508
33	168.1082468032837	pulse	1	t		31.0	2.5	/experiments/knapen_AOT/AOT_stimuli/rescaled_final/0697_rv.mp4	0.0	186.10180592536926	
33	169.70699977874756	pulse	1	t		31.0	2.5	/experiments/knapen_AOT/AOT_stimuli/rescaled_final/0697_rv.mp4	0.0	187.70055890083313	
33	170.22541642189026	fix_post	2		12	31.0	2.5	/experiments/knapen_AOT/AOT_stimuli/rescaled_final/0697_rv.mp4	0.0	188.21897554397583	0.10003256797790527
34	170.32544898986816	fix_pre	0		119	32.0	2.5	/experiments/knapen_AOT/AOT_stimuli/rescaled_final/1264_rv.mp4	0.0	188.31900811195374	1.0168602466583252
34	171.3092646598816	pulse	0	t		32.0	2.5	/experiments/knapen_AOT/AOT_stimuli/rescaled_final/1264_rv.mp4	0.0	189.30282378196716	
34	171.3423092365265	movie	1		264	32.0	2.5	/experiments/knapen_AOT/AOT_stimuli/rescaled_final/1264_rv.mp4	0.0	189.33586835861206	2.4836478233337402
34	172.9076292514801	pulse	1	t		32.0	2.5	/experiments/knapen_AOT/AOT_stimuli/rescaled_final/1264_rv.mp4	0.0	190.90118837356567	
34	173.82595705986023	fix_post	2		12	32.0	2.5	/experiments/knapen_AOT/AOT_stimuli/rescaled_final/1264_rv.mp4	0.0	191.8195161819458	0.10009193420410156
35	173.92604899406433	fix_pre	0		120	33.0	2.5	/experiments/knapen_AOT/AOT_stimuli/rescaled_final/1058_rv.mp4	0.0	191.9196081161499	1.0251169204711914
35	174.5095818042755	pulse	0	t		33.0	2.5	/experiments/knapen_AOT/AOT_stimuli/rescaled_final/1058_rv.mp4	0.0	192.50314092636108	
35	174.95116591453552	movie	1		259	33.0	2.5	/experiments/knapen_AOT/AOT_stimuli/rescaled_final/1058_rv.mp4	0.0	192.9447250366211	2.4753236770629883
35	176.10927510261536	pulse	1	t		33.0	2.5	/experiments/knapen_AOT/AOT_stimuli/rescaled_final/1058_rv.mp4	0.0	194.10283422470093	
35	177.4264895915985	fix_post	2		12	33.0	2.5	/experiments/knapen_AOT/AOT_stimuli/rescaled_final/1058_rv.mp4	0.0	195.42004871368408	0.10000443458557129
36	177.52649402618408	fix_pre	0		120	34.0	2.5	/experiments/knapen_AOT/AOT_stimuli/rescaled_final/1175_fw.mp4	0.0	195.52005314826965	1.0252118110656738
36	177.71018171310425	pulse	0	t		34.0	2.5	/experiments/knapen_AOT/AOT_stimuli/rescaled_final/1175_fw.mp4	0.0	195.70374083518982	
36	178.55170583724976	movie	1		251	34.0	2.5	/experiments/knapen_AOT/AOT_stimuli/rescaled_final/1175_fw.mp4	0.0	196.54526495933533	2.475351572036743
36	179.3099389076233	pulse	1	t		34.0	2.5	/experiments/knapen_AOT/AOT_stimuli/rescaled_final/1175_fw.mp4	0.0	197.30349802970886	
36	180.90853595733643	pulse	1	t		34.0	2.5	/experiments/knapen_AOT/AOT_stimuli/rescaled_final/1175_fw.mp4	0.0	198.902095079422	
36	181.0270574092865	fix_post	2		12	34.0	2.5	/experiments/knapen_AOT/AOT_stimuli/rescaled_final/1175_fw.mp4	0.0	199.02061653137207	0.09998822212219238
37	181.1270456314087	fix_pre	0		120	35.0	2.5	blank	1.0	199.12060475349426	1.000157117843628
37	182.12720274925232	movie	1		300	35.0	2.5	blank	1.0	200.1207618713379	2.500380754470825
37	182.5108094215393	pulse	1	t		35.0	2.5	blank	1.0	200.50436854362488	
37	184.11103200912476	pulse	1	t		35.0	2.5	blank	1.0	202.10459113121033	
37	184.62758350372314	fix_post	2		12	35.0	2.5	blank	1.0	202.62114262580872	0.10000491142272949
38	184.72758841514587	fix_pre	0		119	36.0	2.5	/experiments/knapen_AOT/AOT_stimuli/rescaled_final/0369_fw.mp4	0.0	202.72114753723145	1.0168585777282715
38	185.71137309074402	pulse	0	t		36.0	2.5	/experiments/knapen_AOT/AOT_stimuli/rescaled_final/0369_fw.mp4	0.0	203.7049322128296	
38	185.74444699287415	movie	1		266	36.0	2.5	/experiments/knapen_AOT/AOT_stimuli/rescaled_final/0369_fw.mp4	0.0	203.73800611495972	2.483654022216797
38	187.31016516685486	pulse	1	t		36.0	2.5	/experiments/knapen_AOT/AOT_stimuli/rescaled_final/0369_fw.mp4	0.0	205.30372428894043	
38	188.22810101509094	fix_post	2		12	36.0	2.5	/experiments/knapen_AOT/AOT_stimuli/rescaled_final/0369_fw.mp4	0.0	206.2216601371765	0.10004019737243652
39	188.32814121246338	fix_pre	0		120	37.0	2.5	/experiments/knapen_AOT/AOT_stimuli/rescaled_final/1493_rv.mp4	0.0	206.32170033454895	1.0251901149749756
39	188.91179132461548	pulse	0	t		37.0	2.5	/experiments/knapen_AOT/AOT_stimuli/rescaled_final/1493_rv.mp4	0.0	206.90535044670105	
39	189.35333132743835	movie	1		240	37.0	2.5	/experiments/knapen_AOT/AOT_stimuli/rescaled_final/1493_rv.mp4	0.0	207.34689044952393	2.475332260131836
39	190.51178002357483	pulse	1	t		37.0	2.5	/experiments/knapen_AOT/AOT_stimuli/rescaled_final/1493_rv.mp4	0.0	208.5053391456604	
39	191.8286635875702	fix_post	2		12	37.0	2.5	/experiments/knapen_AOT/AOT_stimuli/rescaled_final/1493_rv.mp4	0.0	209.82222270965576	0.10000014305114746
40	191.92866373062134	fix_pre	0		120	38.0	2.5	/experiments/knapen_AOT/AOT_stimuli/rescaled_final/2127_fw.mp4	0.0	209.9222228527069	1.0168604850769043
40	192.1043939590454	pulse	0	t		38.0	2.5	/experiments/knapen_AOT/AOT_stimuli/rescaled_final/2127_fw.mp4	0.0	210.09795308113098	
40	192.94552421569824	movie	1		264	38.0	2.5	/experiments/knapen_AOT/AOT_stimuli/rescaled_final/2127_fw.mp4	0.0	210.9390833377838	2.4839529991149902
40	193.70464515686035	pulse	1	t		38.0	2.5	/experiments/knapen_AOT/AOT_stimuli/rescaled_final/2127_fw.mp4	0.0	211.69820427894592	
40	195.30452632904053	pulse	1	t		38.0	2.5	/experiments/knapen_AOT/AOT_stimuli/rescaled_final/2127_fw.mp4	0.0	213.2980854511261	
40	195.42947721481323	fix_post	2		12	38.0	2.5	/experiments/knapen_AOT/AOT_stimuli/rescaled_final/2127_fw.mp4	0.0	213.4230363368988	0.09979104995727539
41	195.5292682647705	fix_pre	0		120	39.0	2.5	/experiments/knapen_AOT/AOT_stimuli/rescaled_final/0203_fw.mp4	0.0	213.52282738685608	1.025212049484253
41	196.55448031425476	movie	1		248	39.0	2.5	/experiments/knapen_AOT/AOT_stimuli/rescaled_final/0203_fw.mp4	0.0	214.54803943634033	2.475261926651001
41	196.9048764705658	pulse	1	t		39.0	2.5	/experiments/knapen_AOT/AOT_stimuli/rescaled_final/0203_fw.mp4	0.0	214.89843559265137	
41	198.50495505332947	pulse	1	t		39.0	2.5	/experiments/knapen_AOT/AOT_stimuli/rescaled_final/0203_fw.mp4	0.0	216.49851417541504	
41	199.02974224090576	fix_post	2		12	39.0	2.5	/experiments/knapen_AOT/AOT_stimuli/rescaled_final/0203_fw.mp4	0.0	217.02330136299133	0.10000252723693848
42	199.1297447681427	fix_pre	0		118	40.0	2.5	/experiments/knapen_AOT/AOT_stimuli/rescaled_final/0276_rv.mp4	0.0	217.12330389022827	1.0085453987121582
42	200.1052532196045	pulse	0	t		40.0	2.5	/experiments/knapen_AOT/AOT_stimuli/rescaled_final/0276_rv.mp4	0.0	218.09881234169006	
42	200.13829016685486	movie	1		263	40.0	2.5	/experiments/knapen_AOT/AOT_stimuli/rescaled_final/0276_rv.mp4	0.0	218.13184928894043	2.483699321746826
42	201.70521092414856	pulse	1	t		40.0	2.5	/experiments/knapen_AOT/AOT_stimuli/rescaled_final/0276_rv.mp4	0.0	219.69877004623413	
42	202.62198948860168	fix_post	2		12	40.0	2.5	/experiments/knapen_AOT/AOT_stimuli/rescaled_final/0276_rv.mp4	0.0	220.61554861068726	0.10003280639648438
43	202.72202229499817	fix_pre	0		120	41.0	2.5	blank	1.0	220.71558141708374	1.0000889301300049
43	203.30558943748474	pulse	0	t		41.0	2.5	blank	1.0	221.2991485595703	
43	203.72211122512817	movie	1		300	41.0	2.5	blank	1.0	221.71567034721375	2.500372886657715
43	204.90607213974	pulse	1	t		41.0	2.5	blank	1.0	222.89963126182556	
43	206.2224841117859	fix_post	2		12	41.0	2.5	blank	1.0	224.21604323387146	0.10013675689697266
44	206.32262086868286	fix_pre	0		120	42.0	2.5	/experiments/knapen_AOT/AOT_stimuli/rescaled_final/2006_fw.mp4	0.0	224.31617999076843	1.0251834392547607
44	206.50606966018677	pulse	0	t		42.0	2.5	/experiments/knapen_AOT/AOT_stimuli/rescaled_final/2006_fw.mp4	0.0	224.49962878227234	
44	207.34780430793762	movie	1		257	42.0	2.5	/experiments/knapen_AOT/AOT_stimuli/rescaled_final/2006_fw.mp4	0.0	225.3413634300232	2.4752609729766846
44	208.10668540000916	pulse	1	t		42.0	2.5	/experiments/knapen_AOT/AOT_stimuli/rescaled_final/2006_fw.mp4	0.0	226.10024452209473	
44	209.70444774627686	pulse	1	t		42.0	2.5	/experiments/knapen_AOT/AOT_stimuli/rescaled_final/2006_fw.mp4	0.0	227.69800686836243	
44	209.8230652809143	fix_post	2		12	42.0	2.5	/experiments/knapen_AOT/AOT_stimuli/rescaled_final/2006_fw.mp4	0.0	227.81662440299988	0.09998369216918945
45	209.9230489730835	fix_pre	0		120	43.0	2.5	/experiments/knapen_AOT/AOT_stimuli/rescaled_final/1493_rv.mp4	0.0	227.91660809516907	1.016836166381836
45	210.93988513946533	movie	1		270	43.0	2.5	/experiments/knapen_AOT/AOT_stimuli/rescaled_final/1493_rv.mp4	0.0	228.9334442615509	2.4837000370025635
45	211.3071322441101	pulse	1	t		43.0	2.5	/experiments/knapen_AOT/AOT_stimuli/rescaled_final/1493_rv.mp4	0.0	229.30069136619568	
45	212.90679836273193	pulse	1	t		43.0	2.5	/experiments/knapen_AOT/AOT_stimuli/rescaled_final/1493_rv.mp4	0.0	230.9003574848175	
45	213.4235851764679	fix_post	2		12	43.0	2.5	/experiments/knapen_AOT/AOT_stimuli/rescaled_final/1493_rv.mp4	0.0	231.41714429855347	0.10000085830688477
46	213.52358603477478	fix_pre	0		119	44.0	2.5	/experiments/knapen_AOT/AOT_stimuli/rescaled_final/1438_fw.mp4	0.0	231.51714515686035	1.0085060596466064
46	214.5073437690735	pulse	0	t		44.0	2.5	/experiments/knapen_AOT/AOT_stimuli/rescaled_final/1438_fw.mp4	0.0	232.50090289115906	
46	214.5320920944214	movie	1		258	44.0	2.5	/experiments/knapen_AOT/AOT_stimuli/rescaled_final/1438_fw.mp4	0.0	232.52565121650696	2.492020606994629
46	216.10561847686768	pulse	1	t		44.0	2.5	/experiments/knapen_AOT/AOT_stimuli/rescaled_final/1438_fw.mp4	0.0	234.09917759895325	
46	217.02411270141602	fix_post	2		12	44.0	2.5	/experiments/knapen_AOT/AOT_stimuli/rescaled_final/1438_fw.mp4	0.0	235.0176718235016	0.1002492904663086
47	217.12436199188232	fix_pre	0		120	45.0	2.5	/experiments/knapen_AOT/AOT_stimuli/rescaled_final/0216_rv.mp4	0.0	235.1179211139679	1.0082604885101318
47	217.7077603340149	pulse	0	t		45.0	2.5	/experiments/knapen_AOT/AOT_stimuli/rescaled_final/0216_rv.mp4	0.0	235.70131945610046	
47	218.13262248039246	movie	1		243	45.0	2.5	/experiments/knapen_AOT/AOT_stimuli/rescaled_final/0216_rv.mp4	0.0	236.12618160247803	2.5006039142608643
47	219.3080494403839	pulse	1	t		45.0	2.5	/experiments/knapen_AOT/AOT_stimuli/rescaled_final/0216_rv.mp4	0.0	237.30160856246948	
47	220.63322639465332	fix_post	2		11	45.0	2.5	/experiments/knapen_AOT/AOT_stimuli/rescaled_final/0216_rv.mp4	0.0	238.6267855167389	0.09147024154663086
48	220.72469663619995	fix_pre	0		120	46.0	2.5	/experiments/knapen_AOT/AOT_stimuli/rescaled_final/1030_fw.mp4	0.0	238.71825575828552	1.016866683959961
48	220.90825128555298	pulse	0	t		46.0	2.5	/experiments/knapen_AOT/AOT_stimuli/rescaled_final/1030_fw.mp4	0.0	238.90181040763855	
48	221.7415633201599	movie	1		169	46.0	2.5	/experiments/knapen_AOT/AOT_stimuli/rescaled_final/1030_fw.mp4	0.0	239.73512244224548	2.4838364124298096
48	222.5054178237915	pulse	1	t		46.0	2.5	/experiments/knapen_AOT/AOT_stimuli/rescaled_final/1030_fw.mp4	0.0	240.49897694587708	
48	224.10660767555237	pulse	1	t		46.0	2.5	/experiments/knapen_AOT/AOT_stimuli/rescaled_final/1030_fw.mp4	0.0	242.10016679763794	
48	224.22539973258972	fix_post	2		12	46.0	2.5	/experiments/knapen_AOT/AOT_stimuli/rescaled_final/1030_fw.mp4	0.0	242.2189588546753	0.09982705116271973
49	224.32522678375244	fix_pre	0		120	47.0	2.5	/experiments/knapen_AOT/AOT_stimuli/rescaled_final/1159_rv.mp4	0.0	242.318785905838	1.0167999267578125
49	225.34202671051025	movie	1		263	47.0	2.5	/experiments/knapen_AOT/AOT_stimuli/rescaled_final/1159_rv.mp4	0.0	243.33558583259583	2.4838860034942627
49	225.70955276489258	pulse	1	t		47.0	2.5	/experiments/knapen_AOT/AOT_stimuli/rescaled_final/1159_rv.mp4	0.0	243.70311188697815	
49	227.30696034431458	pulse	1	t		47.0	2.5	/experiments/knapen_AOT/AOT_stimuli/rescaled_final/1159_rv.mp4	0.0	245.30051946640015	
49	227.82591271400452	fix_post	2		12	47.0	2.5	/experiments/knapen_AOT/AOT_stimuli/rescaled_final/1159_rv.mp4	0.0	245.8194718360901	0.09984660148620605
50	227.92575931549072	fix_pre	0		119	48.0	2.5	/experiments/knapen_AOT/AOT_stimuli/rescaled_final/0092_fw.mp4	0.0	245.9193184375763	1.0168731212615967
50	228.90957188606262	pulse	0	t		48.0	2.5	/experiments/knapen_AOT/AOT_stimuli/rescaled_final/0092_fw.mp4	0.0	246.9031310081482	
50	228.94263243675232	movie	1		271	48.0	2.5	/experiments/knapen_AOT/AOT_stimuli/rescaled_final/0092_fw.mp4	0.0	246.9361915588379	2.4839730262756348
50	230.50790309906006	pulse	1	t		48.0	2.5	/experiments/knapen_AOT/AOT_stimuli/rescaled_final/0092_fw.mp4	0.0	248.50146222114563	
50	231.42660546302795	fix_post	2		12	48.0	2.5	/experiments/knapen_AOT/AOT_stimuli/rescaled_final/0092_fw.mp4	0.0	249.42016458511353	0.09970927238464355
51	231.5263147354126	fix_pre	0		120	49.0	2.5	blank	1.0	249.51987385749817	1.0001435279846191
51	232.1100664138794	pulse	0	t		49.0	2.5	blank	1.0	250.10362553596497	
51	232.52645826339722	movie	1		300	49.0	2.5	blank	1.0	250.5200173854828	2.500361680984497
51	233.71016335487366	pulse	1	t		49.0	2.5	blank	1.0	251.70372247695923	
51	235.0268199443817	fix_post	2		12	49.0	2.5	blank	1.0	253.02037906646729	0.10002970695495605
52	235.12684965133667	fix_pre	0		120	50.0	2.5	/experiments/knapen_AOT/AOT_stimuli/rescaled_final/2065_fw.mp4	0.0	253.12040877342224	1.033771276473999
52	235.3104727268219	pulse	0	t		50.0	2.5	/experiments/knapen_AOT/AOT_stimuli/rescaled_final/2065_fw.mp4	0.0	253.30403184890747	
52	236.16062092781067	movie	1		279	50.0	2.5	/experiments/knapen_AOT/AOT_stimuli/rescaled_final/2065_fw.mp4	0.0	254.15418004989624	2.4667391777038574
52	236.9087951183319	pulse	1	t		50.0	2.5	/experiments/knapen_AOT/AOT_stimuli/rescaled_final/2065_fw.mp4	0.0	254.90235424041748	
52	238.509206533432	pulse	1	t		50.0	2.5	/experiments/knapen_AOT/AOT_stimuli/rescaled_final/2065_fw.mp4	0.0	256.5027656555176	
52	238.62736010551453	fix_post	2		12	50.0	2.5	/experiments/knapen_AOT/AOT_stimuli/rescaled_final/2065_fw.mp4	0.0	256.6209192276001	0.10004568099975586
53	238.72740578651428	fix_pre	0		120	51.0	2.5	/experiments/knapen_AOT/AOT_stimuli/rescaled_final/2059_fw.mp4	0.0	256.72096490859985	1.0168838500976562
53	239.74428963661194	movie	1		282	51.0	2.5	/experiments/knapen_AOT/AOT_stimuli/rescaled_final/2059_fw.mp4	0.0	257.7378487586975	2.4836137294769287
53	240.1097993850708	pulse	1	t		51.0	2.5	/experiments/knapen_AOT/AOT_stimuli/rescaled_final/2059_fw.mp4	0.0	258.1033585071564	
53	241.70944356918335	pulse	1	t		51.0	2.5	/experiments/knapen_AOT/AOT_stimuli/rescaled_final/2059_fw.mp4	0.0	259.7030026912689	
53	242.22790336608887	fix_post	2		12	51.0	2.5	/experiments/knapen_AOT/AOT_stimuli/rescaled_final/2059_fw.mp4	0.0	260.22146248817444	0.10001063346862793
54	242.3279139995575	fix_pre	0		119	52.0	2.5	/experiments/knapen_AOT/AOT_stimuli/rescaled_final/1173_fw.mp4	0.0	260.32147312164307	1.0169646739959717
54	243.31176328659058	pulse	0	t		52.0	2.5	/experiments/knapen_AOT/AOT_stimuli/rescaled_final/1173_fw.mp4	0.0	261.30532240867615	
54	243.34487867355347	movie	1		272	52.0	2.5	/experiments/knapen_AOT/AOT_stimuli/rescaled_final/1173_fw.mp4	0.0	261.33843779563904	2.4835586547851562
54	244.91016054153442	pulse	1	t		52.0	2.5	/experiments/knapen_AOT/AOT_stimuli/rescaled_final/1173_fw.mp4	0.0	262.90371966362	
54	245.82843732833862	fix_post	2		12	52.0	2.5	/experiments/knapen_AOT/AOT_stimuli/rescaled_final/1173_fw.mp4	0.0	263.8219964504242	0.10003900527954102
55	245.92847633361816	fix_pre	0		120	53.0	2.5	/experiments/knapen_AOT/AOT_stimuli/rescaled_final/1469_fw.mp4	0.0	263.92203545570374	1.025447130203247
55	246.50456953048706	pulse	0	t		53.0	2.5	/experiments/knapen_AOT/AOT_stimuli/rescaled_final/1469_fw.mp4	0.0	264.49812865257263	
55	246.9539234638214	movie	1		280	53.0	2.5	/experiments/knapen_AOT/AOT_stimuli/rescaled_final/1469_fw.mp4	0.0	264.947482585907	2.4751105308532715
55	248.11131691932678	pulse	1	t		53.0	2.5	/experiments/knapen_AOT/AOT_stimuli/rescaled_final/1469_fw.mp4	0.0	266.10487604141235	
55	249.42903399467468	fix_post	2		12	53.0	2.5	/experiments/knapen_AOT/AOT_stimuli/rescaled_final/1469_fw.mp4	0.0	267.42259311676025	0.0999751091003418
56	249.52900910377502	fix_pre	0		120	54.0	2.5	/experiments/knapen_AOT/AOT_stimuli/rescaled_final/0951_fw.mp4	0.0	267.5225682258606	1.0168395042419434
56	249.70540857315063	pulse	0	t		54.0	2.5	/experiments/knapen_AOT/AOT_stimuli/rescaled_final/0951_fw.mp4	0.0	267.6989676952362	
56	250.54584860801697	movie	1		277	54.0	2.5	/experiments/knapen_AOT/AOT_stimuli/rescaled_final/0951_fw.mp4	0.0	268.53940773010254	2.4836814403533936
56	251.30471229553223	pulse	1	t		54.0	2.5	/experiments/knapen_AOT/AOT_stimuli/rescaled_final/0951_fw.mp4	0.0	269.2982714176178	
56	252.90484309196472	pulse	1	t		54.0	2.5	/experiments/knapen_AOT/AOT_stimuli/rescaled_final/0951_fw.mp4	0.0	270.8984022140503	
56	253.02953004837036	fix_post	2		12	54.0	2.5	/experiments/knapen_AOT/AOT_stimuli/rescaled_final/0951_fw.mp4	0.0	271.02308917045593	0.10007023811340332
57	253.12960028648376	fix_pre	0		120	55.0	2.5	blank	1.0	271.12315940856934	1.000124454498291
57	254.12972474098206	movie	1		300	55.0	2.5	blank	1.0	272.1232838630676	2.500349521636963
57	254.50501012802124	pulse	1	t		55.0	2.5	blank	1.0	272.4985692501068	
57	256.1052014827728	pulse	1	t		55.0	2.5	blank	1.0	274.0987606048584	
57	256.630074262619	fix_post	2		12	55.0	2.5	blank	1.0	274.6236333847046	0.10002493858337402
58	256.7300992012024	fix_pre	0		118	56.0	2.5	/experiments/knapen_AOT/AOT_stimuli/rescaled_final/0918_rv.mp4	0.0	274.72365832328796	1.000253438949585
58	257.70548725128174	pulse	0	t		56.0	2.5	/experiments/knapen_AOT/AOT_stimuli/rescaled_final/0918_rv.mp4	0.0	275.6990463733673	
58	257.730352640152	movie	1		273	56.0	2.5	/experiments/knapen_AOT/AOT_stimuli/rescaled_final/0918_rv.mp4	0.0	275.72391176223755	2.4920899868011475
58	259.30585265159607	pulse	1	t		56.0	2.5	/experiments/knapen_AOT/AOT_stimuli/rescaled_final/0918_rv.mp4	0.0	277.29941177368164	
58	260.2224426269531	fix_post	2		12	56.0	2.5	/experiments/knapen_AOT/AOT_stimuli/rescaled_final/0918_rv.mp4	0.0	278.2160017490387	0.09985804557800293
59	260.3223006725311	fix_pre	0		120	57.0	2.5	/experiments/knapen_AOT/AOT_stimuli/rescaled_final/2090_rv.mp4	0.0	278.3158597946167	1.0084972381591797
59	260.9060184955597	pulse	0	t		57.0	2.5	/experiments/knapen_AOT/AOT_stimuli/rescaled_final/2090_rv.mp4	0.0	278.89957761764526	
59	261.3307979106903	movie	1		273	57.0	2.5	/experiments/knapen_AOT/AOT_stimuli/rescaled_final/2090_rv.mp4	0.0	279.3243570327759	2.492023229598999
59	262.50653886795044	pulse	1	t		57.0	2.5	/experiments/knapen_AOT/AOT_stimuli/rescaled_final/2090_rv.mp4	0.0	280.500097990036	
59	263.8228211402893	fix_post	2		12	57.0	2.5	/experiments/knapen_AOT/AOT_stimuli/rescaled_final/2090_rv.mp4	0.0	281.8163802623749	0.10001778602600098
60	263.9228389263153	fix_pre	0		120	58.0	2.5	/experiments/knapen_AOT/AOT_stimuli/rescaled_final/1741_rv.mp4	0.0	281.9163980484009	1.0168592929840088
60	264.1064887046814	pulse	0	t		58.0	2.5	/experiments/knapen_AOT/AOT_stimuli/rescaled_final/1741_rv.mp4	0.0	282.10004782676697	
60	264.9396982192993	movie	1		285	58.0	2.5	/experiments/knapen_AOT/AOT_stimuli/rescaled_final/1741_rv.mp4	0.0	282.9332573413849	2.492064952850342
60	265.70664644241333	pulse	1	t		58.0	2.5	/experiments/knapen_AOT/AOT_stimuli/rescaled_final/1741_rv.mp4	0.0	283.7002055644989	
60	267.30603098869324	pulse	1	t		58.0	2.5	/experiments/knapen_AOT/AOT_stimuli/rescaled_final/1741_rv.mp4	0.0	285.2995901107788	
60	267.43176317214966	fix_post	2		11	58.0	2.5	/experiments/knapen_AOT/AOT_stimuli/rescaled_final/1741_rv.mp4	0.0	285.42532229423523	0.09160804748535156
61	267.523371219635	fix_pre	0		120	59.0	2.5	/experiments/knapen_AOT/AOT_stimuli/rescaled_final/1339_rv.mp4	0.0	285.5169303417206	1.0254623889923096
61	268.5488336086273	movie	1		284	59.0	2.5	/experiments/knapen_AOT/AOT_stimuli/rescaled_final/1339_rv.mp4	0.0	286.5423927307129	2.4751248359680176
61	268.9051718711853	pulse	1	t		59.0	2.5	/experiments/knapen_AOT/AOT_stimuli/rescaled_final/1339_rv.mp4	0.0	286.8987309932709	
61	270.50542283058167	pulse	1	t		59.0	2.5	/experiments/knapen_AOT/AOT_stimuli/rescaled_final/1339_rv.mp4	0.0	288.49898195266724	
61	271.02395844459534	fix_post	2		12	59.0	2.5	/experiments/knapen_AOT/AOT_stimuli/rescaled_final/1339_rv.mp4	0.0	289.0175175666809	0.09998631477355957
62	271.1239447593689	fix_pre	0		119	60.0	2.5	/experiments/knapen_AOT/AOT_stimuli/rescaled_final/1097_fw.mp4	0.0	289.11750388145447	1.0088050365447998
62	272.1077673435211	pulse	0	t		60.0	2.5	/experiments/knapen_AOT/AOT_stimuli/rescaled_final/1097_fw.mp4	0.0	290.1013264656067	
62	272.1327497959137	movie	1		282	60.0	2.5	/experiments/knapen_AOT/AOT_stimuli/rescaled_final/1097_fw.mp4	0.0	290.12630891799927	2.491697311401367
62	273.70621395111084	pulse	1	t		60.0	2.5	/experiments/knapen_AOT/AOT_stimuli/rescaled_final/1097_fw.mp4	0.0	291.6997730731964	
62	274.62444710731506	fix_post	2		12	60.0	2.5	/experiments/knapen_AOT/AOT_stimuli/rescaled_final/1097_fw.mp4	0.0	292.61800622940063	0.10006952285766602
63	274.72451663017273	fix_pre	0		120	61.0	2.5	/experiments/knapen_AOT/AOT_stimuli/rescaled_final/1988_fw.mp4	0.0	292.7180757522583	1.025207281112671
63	275.30815076828003	pulse	0	t		61.0	2.5	/experiments/knapen_AOT/AOT_stimuli/rescaled_final/1988_fw.mp4	0.0	293.3017098903656	
63	275.7497239112854	movie	1		276	61.0	2.5	/experiments/knapen_AOT/AOT_stimuli/rescaled_final/1988_fw.mp4	0.0	293.743283033371	2.4753458499908447
63	276.9063501358032	pulse	1	t		61.0	2.5	/experiments/knapen_AOT/AOT_stimuli/rescaled_final/1988_fw.mp4	0.0	294.8999092578888	
63	278.22506976127625	fix_post	2		12	61.0	2.5	/experiments/knapen_AOT/AOT_stimuli/rescaled_final/1988_fw.mp4	0.0	296.2186288833618	0.09994673728942871
64	278.3250164985657	fix_pre	0		120	62.0	2.5	blank	1.0	296.31857562065125	1.0001187324523926
64	278.50915694236755	pulse	0	t		62.0	2.5	blank	1.0	296.5027160644531	
64	279.32513523101807	movie	1		300	62.0	2.5	blank	1.0	297.31869435310364	2.5003910064697266
64	280.10885190963745	pulse	1	t		62.0	2.5	blank	1.0	298.102411031723	
64	281.7090554237366	pulse	1	t		62.0	2.5	blank	1.0	299.70261454582214	
64	281.8255262374878	fix_post	2		12	62.0	2.5	blank	1.0	299.81908535957336	0.10003280639648438
65	281.9255590438843	fix_pre	0		120	63.0	2.5	/experiments/knapen_AOT/AOT_stimuli/rescaled_final/1173_fw.mp4	0.0	299.91911816596985	1.025193691253662
65	282.95075273513794	movie	1		259	63.0	2.5	/experiments/knapen_AOT/AOT_stimuli/rescaled_final/1173_fw.mp4	0.0	300.9443118572235	2.4753317832946777
65	283.3087697029114	pulse	1	t		63.0	2.5	/experiments/knapen_AOT/AOT_stimuli/rescaled_final/1173_fw.mp4	0.0	301.30232882499695	
65	284.90873646736145	pulse	1	t		63.0	2.5	/experiments/knapen_AOT/AOT_stimuli/rescaled_final/1173_fw.mp4	0.0	302.902295589447	
65	285.4260845184326	fix_post	2		12	63.0	2.5	/experiments/knapen_AOT/AOT_stimuli/rescaled_final/1173_fw.mp4	0.0	303.4196436405182	0.10001826286315918
66	285.5261027812958	fix_pre	0		119	64.0	2.5	/experiments/knapen_AOT/AOT_stimuli/rescaled_final/0816_rv.mp4	0.0	303.51966190338135	1.0168430805206299
66	286.50980830192566	pulse	0	t		64.0	2.5	/experiments/knapen_AOT/AOT_stimuli/rescaled_final/0816_rv.mp4	0.0	304.50336742401123	
66	286.5429458618164	movie	1		277	64.0	2.5	/experiments/knapen_AOT/AOT_stimuli/rescaled_final/0816_rv.mp4	0.0	304.536504983902	2.4839084148406982
66	288.1083633899689	pulse	1	t		64.0	2.5	/experiments/knapen_AOT/AOT_stimuli/rescaled_final/0816_rv.mp4	0.0	306.10192251205444	
66	289.0268542766571	fix_post	2		12	64.0	2.5	/experiments/knapen_AOT/AOT_stimuli/rescaled_final/0816_rv.mp4	0.0	307.0204133987427	0.09978008270263672
67	289.12663435935974	fix_pre	0		120	65.0	2.5	/experiments/knapen_AOT/AOT_stimuli/rescaled_final/1756_fw.mp4	0.0	307.1201934814453	1.0252671241760254
67	289.7102072238922	pulse	0	t		65.0	2.5	/experiments/knapen_AOT/AOT_stimuli/rescaled_final/1756_fw.mp4	0.0	307.7037663459778	
67	290.15190148353577	movie	1		281	65.0	2.5	/experiments/knapen_AOT/AOT_stimuli/rescaled_final/1756_fw.mp4	0.0	308.14546060562134	2.475353479385376
67	291.30971670150757	pulse	1	t		65.0	2.5	/experiments/knapen_AOT/AOT_stimuli/rescaled_final/1756_fw.mp4	0.0	309.30327582359314	
67	292.62725496292114	fix_post	2		12	65.0	2.5	/experiments/knapen_AOT/AOT_stimuli/rescaled_final/1756_fw.mp4	0.0	310.6208140850067	0.09999656677246094
68	292.7272515296936	fix_pre	0		120	66.0	2.5	/experiments/knapen_AOT/AOT_stimuli/rescaled_final/1283_fw.mp4	0.0	310.7208106517792	1.025158166885376
68	292.9107336997986	pulse	0	t		66.0	2.5	/experiments/knapen_AOT/AOT_stimuli/rescaled_final/1283_fw.mp4	0.0	310.90429282188416	
68	293.752409696579	movie	1		270	66.0	2.5	/experiments/knapen_AOT/AOT_stimuli/rescaled_final/1283_fw.mp4	0.0	311.74596881866455	2.4755454063415527
68	294.5093479156494	pulse	1	t		66.0	2.5	/experiments/knapen_AOT/AOT_stimuli/rescaled_final/1283_fw.mp4	0.0	312.502907037735	
68	296.1088569164276	pulse	1	t		66.0	2.5	/experiments/knapen_AOT/AOT_stimuli/rescaled_final/1283_fw.mp4	0.0	314.1024160385132	
68	296.22795510292053	fix_post	2		12	66.0	2.5	/experiments/knapen_AOT/AOT_stimuli/rescaled_final/1283_fw.mp4	0.0	314.2215142250061	0.09976673126220703
69	296.32772183418274	fix_pre	0		120	67.0	2.5	/experiments/knapen_AOT/AOT_stimuli/rescaled_final/0944_fw.mp4	0.0	314.3212809562683	1.016852617263794
69	297.34457445144653	movie	1		274	67.0	2.5	/experiments/knapen_AOT/AOT_stimuli/rescaled_final/0944_fw.mp4	0.0	315.3381335735321	2.483766555786133
69	297.7107183933258	pulse	1	t		67.0	2.5	/experiments/knapen_AOT/AOT_stimuli/rescaled_final/0944_fw.mp4	0.0	315.7042775154114	
69	299.3101623058319	pulse	1	t		67.0	2.5	/experiments/knapen_AOT/AOT_stimuli/rescaled_final/0944_fw.mp4	0.0	317.3037214279175	
69	299.82834100723267	fix_post	2		12	67.0	2.5	/experiments/knapen_AOT/AOT_stimuli/rescaled_final/0944_fw.mp4	0.0	317.82190012931824	0.0999150276184082
70	299.9282560348511	fix_pre	0		119	68.0	2.5	/experiments/knapen_AOT/AOT_stimuli/rescaled_final/1778_fw.mp4	0.0	317.92181515693665	1.0169053077697754
70	300.9119653701782	pulse	0	t		68.0	2.5	/experiments/knapen_AOT/AOT_stimuli/rescaled_final/1778_fw.mp4	0.0	318.9055244922638	
70	300.94516134262085	movie	1		279	68.0	2.5	/experiments/knapen_AOT/AOT_stimuli/rescaled_final/1778_fw.mp4	0.0	318.9387204647064	2.483701229095459
70	302.51343512535095	pulse	1	t		68.0	2.5	/experiments/knapen_AOT/AOT_stimuli/rescaled_final/1778_fw.mp4	0.0	320.5069942474365	
70	303.4288625717163	fix_post	2		12	68.0	2.5	/experiments/knapen_AOT/AOT_stimuli/rescaled_final/1778_fw.mp4	0.0	321.4224216938019	0.09993529319763184
71	303.52879786491394	fix_pre	0		120	69.0	2.5	blank	1.0	321.5223569869995	1.0001518726348877
71	304.112500667572	pulse	0	t		69.0	2.5	blank	1.0	322.1060597896576	
71	304.5289497375488	movie	1		300	69.0	2.5	blank	1.0	322.5225088596344	2.500384569168091
71	305.7127323150635	pulse	1	t		69.0	2.5	blank	1.0	323.70629143714905	
71	307.0293343067169	fix_post	2		12	69.0	2.5	blank	1.0	325.0228934288025	0.10025668144226074
72	307.1295909881592	fix_pre	0		120	70.0	2.5	/experiments/knapen_AOT/AOT_stimuli/rescaled_final/0457_rv.mp4	0.0	325.12315011024475	1.0166261196136475
72	307.3051438331604	pulse	0	t		70.0	2.5	/experiments/knapen_AOT/AOT_stimuli/rescaled_final/0457_rv.mp4	0.0	325.298702955246	
72	308.1462171077728	movie	1		276	70.0	2.5	/experiments/knapen_AOT/AOT_stimuli/rescaled_final/0457_rv.mp4	0.0	326.1397762298584	2.48368501663208
72	308.90517497062683	pulse	1	t		70.0	2.5	/experiments/knapen_AOT/AOT_stimuli/rescaled_final/0457_rv.mp4	0.0	326.8987340927124	
72	310.50559997558594	pulse	1	t		70.0	2.5	/experiments/knapen_AOT/AOT_stimuli/rescaled_final/0457_rv.mp4	0.0	328.4991590976715	
72	310.6299021244049	fix_post	2		12	70.0	2.5	/experiments/knapen_AOT/AOT_stimuli/rescaled_final/0457_rv.mp4	0.0	328.6234612464905	0.09999847412109375
73	310.729900598526	fix_pre	0		120	71.0	2.5	/experiments/knapen_AOT/AOT_stimuli/rescaled_final/1274_rv.mp4	0.0	328.7234597206116	1.0253901481628418
73	311.75529074668884	movie	1		278	71.0	2.5	/experiments/knapen_AOT/AOT_stimuli/rescaled_final/1274_rv.mp4	0.0	329.7488498687744	2.475306749343872
73	312.10530519485474	pulse	1	t		71.0	2.5	/experiments/knapen_AOT/AOT_stimuli/rescaled_final/1274_rv.mp4	0.0	330.0988643169403	
73	313.7056767940521	pulse	1	t		71.0	2.5	/experiments/knapen_AOT/AOT_stimuli/rescaled_final/1274_rv.mp4	0.0	331.6992359161377	
73	314.2305974960327	fix_post	2		12	71.0	2.5	/experiments/knapen_AOT/AOT_stimuli/rescaled_final/1274_rv.mp4	0.0	332.2241566181183	0.09988713264465332
74	314.33048462867737	fix_pre	0		118	72.0	2.5	/experiments/knapen_AOT/AOT_stimuli/rescaled_final/2137_rv.mp4	0.0	332.32404375076294	1.0003807544708252
74	315.30586886405945	pulse	0	t		72.0	2.5	/experiments/knapen_AOT/AOT_stimuli/rescaled_final/2137_rv.mp4	0.0	333.299427986145	
74	315.3308653831482	movie	1		263	72.0	2.5	/experiments/knapen_AOT/AOT_stimuli/rescaled_final/2137_rv.mp4	0.0	333.32442450523376	2.4918642044067383
74	316.90627551078796	pulse	1	t		72.0	2.5	/experiments/knapen_AOT/AOT_stimuli/rescaled_final/2137_rv.mp4	0.0	334.89983463287354	
74	317.82272958755493	fix_post	2		12	72.0	2.5	/experiments/knapen_AOT/AOT_stimuli/rescaled_final/2137_rv.mp4	0.0	335.8162887096405	0.09995341300964355
75	317.9226830005646	fix_pre	0		120	73.0	2.5	/experiments/knapen_AOT/AOT_stimuli/rescaled_final/1573_rv.mp4	0.0	335.91624212265015	1.008479356765747
75	318.50655698776245	pulse	0	t		73.0	2.5	/experiments/knapen_AOT/AOT_stimuli/rescaled_final/1573_rv.mp4	0.0	336.500116109848	
75	318.9311623573303	movie	1		285	73.0	2.5	/experiments/knapen_AOT/AOT_stimuli/rescaled_final/1573_rv.mp4	0.0	336.9247214794159	2.4922714233398438
75	320.1070456504822	pulse	1	t		73.0	2.5	/experiments/knapen_AOT/AOT_stimuli/rescaled_final/1573_rv.mp4	0.0	338.10060477256775	
75	321.42343378067017	fix_post	2		12	73.0	2.5	/experiments/knapen_AOT/AOT_stimuli/rescaled_final/1573_rv.mp4	0.0	339.41699290275574	0.09974241256713867
76	321.5231761932373	fix_pre	0		120	74.0	2.5	/experiments/knapen_AOT/AOT_stimuli/rescaled_final/2065_rv.mp4	0.0	339.5167353153229	1.0085194110870361
76	321.70682859420776	pulse	0	t		74.0	2.5	/experiments/knapen_AOT/AOT_stimuli/rescaled_final/2065_rv.mp4	0.0	339.70038771629333	
76	322.53169560432434	movie	1		278	74.0	2.5	/experiments/knapen_AOT/AOT_stimuli/rescaled_final/2065_rv.mp4	0.0	340.5252547264099	2.4920239448547363
76	323.3056254386902	pulse	1	t		74.0	2.5	/experiments/knapen_AOT/AOT_stimuli/rescaled_final/2065_rv.mp4	0.0	341.29918456077576	
76	324.90574383735657	pulse	1	t		74.0	2.5	/experiments/knapen_AOT/AOT_stimuli/rescaled_final/2065_rv.mp4	0.0	342.89930295944214	
76	325.0237195491791	fix_post	2		12	74.0	2.5	/experiments/knapen_AOT/AOT_stimuli/rescaled_final/2065_rv.mp4	0.0	343.01727867126465	0.10000443458557129
77	325.12372398376465	fix_pre	0		120	75.0	2.5	blank	1.0	343.1172831058502	1.0001342296600342
77	326.1238582134247	movie	1		300	75.0	2.5	blank	1.0	344.11741733551025	2.5004115104675293
77	326.50748085975647	pulse	1	t		75.0	2.5	blank	1.0	344.50103998184204	
77	328.1077718734741	pulse	1	t		75.0	2.5	blank	1.0	346.1013309955597	
77	328.6242697238922	fix_post	2		12	75.0	2.5	blank	1.0	346.6178288459778	0.10006141662597656
78	328.7243311405182	fix_pre	0		119	76.0	2.5	/experiments/knapen_AOT/AOT_stimuli/rescaled_final/0215_rv.mp4	0.0	346.71789026260376	1.0086336135864258
78	329.70814514160156	pulse	0	t		76.0	2.5	/experiments/knapen_AOT/AOT_stimuli/rescaled_final/0215_rv.mp4	0.0	347.70170426368713	
78	329.7329647541046	movie	1		264	76.0	2.5	/experiments/knapen_AOT/AOT_stimuli/rescaled_final/0215_rv.mp4	0.0	347.7265238761902	2.4919557571411133
78	331.3065085411072	pulse	1	t		76.0	2.5	/experiments/knapen_AOT/AOT_stimuli/rescaled_final/0215_rv.mp4	0.0	349.30006766319275	
78	332.2249205112457	fix_post	2		12	76.0	2.5	/experiments/knapen_AOT/AOT_stimuli/rescaled_final/0215_rv.mp4	0.0	350.2184796333313	0.09989690780639648
79	332.3248174190521	fix_pre	0		120	77.0	2.5	/experiments/knapen_AOT/AOT_stimuli/rescaled_final/1770_fw.mp4	0.0	350.3183765411377	1.008481740951538
79	332.90847396850586	pulse	0	t		77.0	2.5	/experiments/knapen_AOT/AOT_stimuli/rescaled_final/1770_fw.mp4	0.0	350.90203309059143	
79	333.33329916000366	movie	1		274	77.0	2.5	/experiments/knapen_AOT/AOT_stimuli/rescaled_final/1770_fw.mp4	0.0	351.32685828208923	2.492185592651367
79	334.5075788497925	pulse	1	t		77.0	2.5	/experiments/knapen_AOT/AOT_stimuli/rescaled_final/1770_fw.mp4	0.0	352.50113797187805	
79	335.82548475265503	fix_post	2		12	77.0	2.5	/experiments/knapen_AOT/AOT_stimuli/rescaled_final/1770_fw.mp4	0.0	353.8190438747406	0.09997320175170898
80	335.92545795440674	fix_pre	0		120	78.0	2.5	/experiments/knapen_AOT/AOT_stimuli/rescaled_final/1307_rv.mp4	0.0	353.9190170764923	1.0084130764007568
80	336.1089551448822	pulse	0	t		78.0	2.5	/experiments/knapen_AOT/AOT_stimuli/rescaled_final/1307_rv.mp4	0.0	354.1025142669678	
80	336.9338710308075	movie	1		280	78.0	2.5	/experiments/knapen_AOT/AOT_stimuli/rescaled_final/1307_rv.mp4	0.0	354.92743015289307	2.4922780990600586
80	337.7085483074188	pulse	1	t		78.0	2.5	/experiments/knapen_AOT/AOT_stimuli/rescaled_final/1307_rv.mp4	0.0	355.7021074295044	
80	339.3080258369446	pulse	1	t		78.0	2.5	/experiments/knapen_AOT/AOT_stimuli/rescaled_final/1307_rv.mp4	0.0	357.30158495903015	
80	339.42614912986755	fix_post	2		12	78.0	2.5	/experiments/knapen_AOT/AOT_stimuli/rescaled_final/1307_rv.mp4	0.0	357.4197082519531	0.0997779369354248
81	339.525927066803	fix_pre	0		120	79.0	2.5	/experiments/knapen_AOT/AOT_stimuli/rescaled_final/0044_rv.mp4	0.0	357.51948618888855	1.008448600769043
81	340.534375667572	movie	1		264	79.0	2.5	/experiments/knapen_AOT/AOT_stimuli/rescaled_final/0044_rv.mp4	0.0	358.5279347896576	2.492236852645874
81	340.91070461273193	pulse	1	t		79.0	2.5	/experiments/knapen_AOT/AOT_stimuli/rescaled_final/0044_rv.mp4	0.0	358.9042637348175	
81	342.50763487815857	pulse	1	t		79.0	2.5	/experiments/knapen_AOT/AOT_stimuli/rescaled_final/0044_rv.mp4	0.0	360.50119400024414	
81	343.0266125202179	fix_post	2		12	79.0	2.5	/experiments/knapen_AOT/AOT_stimuli/rescaled_final/0044_rv.mp4	0.0	361.02017164230347	0.09979844093322754
82	343.1264109611511	fix_pre	0		119	80.0	2.5	/experiments/knapen_AOT/AOT_stimuli/rescaled_final/1769_rv.mp4	0.0	361.1199700832367	1.000166893005371
82	344.1103353500366	pulse	0	t		80.0	2.5	/experiments/knapen_AOT/AOT_stimuli/rescaled_final/1769_rv.mp4	0.0	362.1038944721222	
82	344.1265778541565	movie	1		267	80.0	2.5	/experiments/knapen_AOT/AOT_stimuli/rescaled_final/1769_rv.mp4	0.0	362.12013697624207	2.5004255771636963
82	345.71020793914795	pulse	1	t		80.0	2.5	/experiments/knapen_AOT/AOT_stimuli/rescaled_final/1769_rv.mp4	0.0	363.7037670612335	
82	346.6270034313202	fix_post	2		12	80.0	2.5	/experiments/knapen_AOT/AOT_stimuli/rescaled_final/1769_rv.mp4	0.0	364.62056255340576	0.10028743743896484
83	346.72729086875916	fix_pre	0		120	81.0	2.5	/experiments/knapen_AOT/AOT_stimuli/rescaled_final/0078_fw.mp4	0.0	364.7208499908447	1.008155345916748
83	347.3107271194458	pulse	0	t		81.0	2.5	/experiments/knapen_AOT/AOT_stimuli/rescaled_final/0078_fw.mp4	0.0	365.3042862415314	
83	347.7354462146759	movie	1		282	81.0	2.5	/experiments/knapen_AOT/AOT_stimuli/rescaled_final/0078_fw.mp4	0.0	365.7290053367615	2.4920461177825928
83	348.90906023979187	pulse	1	t		81.0	2.5	/experiments/knapen_AOT/AOT_stimuli/rescaled_final/0078_fw.mp4	0.0	366.90261936187744	
83	350.2274923324585	fix_post	2		12	81.0	2.5	/experiments/knapen_AOT/AOT_stimuli/rescaled_final/0078_fw.mp4	0.0	368.22105145454407	0.10000371932983398
84	350.32749605178833	fix_pre	0		120	82.0	2.5	blank	1.0	368.3210551738739	1.000162124633789
84	350.51128935813904	pulse	0	t		82.0	2.5	blank	1.0	368.5048484802246	
84	351.3276581764221	movie	1		300	82.0	2.5	blank	1.0	369.3212172985077	2.5003788471221924
84	352.11138558387756	pulse	1	t		82.0	2.5	blank	1.0	370.10494470596313	
84	353.7117750644684	pulse	1	t		82.0	2.5	blank	1.0	371.70533418655396	
84	353.8280370235443	fix_post	2		12	82.0	2.5	blank	1.0	371.8215961456299	0.10002422332763672
85	353.92806124687195	fix_pre	0		120	83.0	2.5	/experiments/knapen_AOT/AOT_stimuli/rescaled_final/2026_rv.mp4	0.0	371.9216203689575	1.0086414813995361
85	354.9367027282715	movie	1		268	83.0	2.5	/experiments/knapen_AOT/AOT_stimuli/rescaled_final/2026_rv.mp4	0.0	372.93026185035706	2.4919679164886475
85	355.3120381832123	pulse	1	t		83.0	2.5	/experiments/knapen_AOT/AOT_stimuli/rescaled_final/2026_rv.mp4	0.0	373.30559730529785	
85	356.91241550445557	pulse	1	t		83.0	2.5	/experiments/knapen_AOT/AOT_stimuli/rescaled_final/2026_rv.mp4	0.0	374.90597462654114	
85	357.42867064476013	fix_post	2		12	83.0	2.5	/experiments/knapen_AOT/AOT_stimuli/rescaled_final/2026_rv.mp4	0.0	375.4222297668457	0.1166234016418457
87	357.545294046402	stim	0		1713					375.53885316848755	14.277106761932373
87	358.5045597553253	pulse	0	t						376.4981188774109	
87	360.1047570705414	pulse	0	t						378.09831619262695	
87	361.70466661453247	pulse	0	t						379.69822573661804	
87	363.3047573566437	pulse	0	t						381.29831647872925	
87	364.90492939949036	pulse	0	t						382.8984885215759	
87	366.50520634651184	pulse	0	t						384.4987654685974	
87	368.1054198741913	pulse	0	t						386.09897899627686	
87	369.7056896686554	pulse	0	t						387.69924879074097	
87	371.30585646629333	pulse	0	t						389.2994155883789	
