trial_nr	onset	event_type	phase	response	nr_frames	movie_index	movie_duration	movie_file	blank	onset_abs	duration
0	0.1664583683013916	stim	0		2					17.157899856567383	0.016677379608154297
0	0.17507052421569824	response	0	space						17.16651201248169	
1	0.1831357479095459	stim	0		4800					17.174577236175537	40.01609230041504
1	40.190027952194214	pulse	0	t						57.181469440460205	
1	40.199228048324585	stim	1		1716					57.190669536590576	14.308741092681885
1	41.78131151199341	pulse	1	t						58.7727530002594	
1	43.38150358200073	pulse	1	t						60.372945070266724	
1	44.98182511329651	pulse	1	t						61.9732666015625	
1	46.58198833465576	pulse	1	t						63.57342982292175	
1	48.182222843170166	pulse	1	t						65.17366433143616	
1	49.78241991996765	pulse	1	t						66.77386140823364	
1	51.3826904296875	pulse	1	t						68.37413191795349	
1	52.98292303085327	pulse	1	t						69.97436451911926	
2	54.50796914100647	fix_pre	0		10	0.0	2.5	/experiments/Knapen_AOT/AOT_stimuli/rescaled_final/1620_fw.mp4	0.0	71.49941062927246	0.10005998611450195
2	54.583272218704224	pulse	0	t		0.0	2.5	/experiments/Knapen_AOT/AOT_stimuli/rescaled_final/1620_fw.mp4	0.0	71.57471370697021	
2	54.60802912712097	movie	1		277	0.0	2.5	/experiments/Knapen_AOT/AOT_stimuli/rescaled_final/1620_fw.mp4	0.0	71.59947061538696	2.491983413696289
2	56.18301463127136	pulse	1	t		0.0	2.5	/experiments/Knapen_AOT/AOT_stimuli/rescaled_final/1620_fw.mp4	0.0	73.17445611953735	
2	57.10001254081726	fix_post	2		12	0.0	2.5	/experiments/Knapen_AOT/AOT_stimuli/rescaled_final/1620_fw.mp4	0.0	74.09145402908325	0.10004544258117676
3	57.20005798339844	fix_pre	0		120	1.0	2.5	/experiments/Knapen_AOT/AOT_stimuli/rescaled_final/0136_fw.mp4	0.0	74.19149947166443	1.0084779262542725
3	57.78372597694397	pulse	0	t		1.0	2.5	/experiments/Knapen_AOT/AOT_stimuli/rescaled_final/0136_fw.mp4	0.0	74.77516746520996	
3	58.20853590965271	movie	1		271	1.0	2.5	/experiments/Knapen_AOT/AOT_stimuli/rescaled_final/0136_fw.mp4	0.0	75.1999773979187	2.4920544624328613
3	59.382553815841675	pulse	1	t		1.0	2.5	/experiments/Knapen_AOT/AOT_stimuli/rescaled_final/0136_fw.mp4	0.0	76.37399530410767	
3	60.70059037208557	fix_post	2		12	1.0	2.5	/experiments/Knapen_AOT/AOT_stimuli/rescaled_final/0136_fw.mp4	0.0	77.69203186035156	0.10010147094726562
4	60.80069184303284	fix_pre	0		120	2.0	2.5	/experiments/Knapen_AOT/AOT_stimuli/rescaled_final/1672_fw.mp4	0.0	77.79213333129883	1.0083844661712646
4	60.98413944244385	pulse	0	t		2.0	2.5	/experiments/Knapen_AOT/AOT_stimuli/rescaled_final/1672_fw.mp4	0.0	77.97558093070984	
4	61.8090763092041	movie	1		271	2.0	2.5	/experiments/Knapen_AOT/AOT_stimuli/rescaled_final/1672_fw.mp4	0.0	78.80051779747009	2.492075204849243
4	62.58206748962402	pulse	1	t		2.0	2.5	/experiments/Knapen_AOT/AOT_stimuli/rescaled_final/1672_fw.mp4	0.0	79.57350897789001	
4	64.18239378929138	pulse	1	t		2.0	2.5	/experiments/Knapen_AOT/AOT_stimuli/rescaled_final/1672_fw.mp4	0.0	81.17383527755737	
4	64.30115151405334	fix_post	2		12	2.0	2.5	/experiments/Knapen_AOT/AOT_stimuli/rescaled_final/1672_fw.mp4	0.0	81.29259300231934	0.09996747970581055
5	64.40111899375916	fix_pre	0		120	3.0	2.5	/experiments/Knapen_AOT/AOT_stimuli/rescaled_final/2006_rv.mp4	0.0	81.39256048202515	1.0085132122039795
5	65.40963220596313	movie	1		277	3.0	2.5	/experiments/Knapen_AOT/AOT_stimuli/rescaled_final/2006_rv.mp4	0.0	82.40107369422913	2.492023229598999
5	65.78354859352112	pulse	1	t		3.0	2.5	/experiments/Knapen_AOT/AOT_stimuli/rescaled_final/2006_rv.mp4	0.0	82.77499008178711	
5	67.38314032554626	pulse	1	t		3.0	2.5	/experiments/Knapen_AOT/AOT_stimuli/rescaled_final/2006_rv.mp4	0.0	84.37458181381226	
5	67.90165543556213	fix_post	2		12	3.0	2.5	/experiments/Knapen_AOT/AOT_stimuli/rescaled_final/2006_rv.mp4	0.0	84.89309692382812	0.10007452964782715
6	68.00172996520996	fix_pre	0		119	4.0	2.5	/experiments/Knapen_AOT/AOT_stimuli/rescaled_final/1122_rv.mp4	0.0	84.99317145347595	1.0000832080841064
6	68.98541975021362	pulse	0	t		4.0	2.5	/experiments/Knapen_AOT/AOT_stimuli/rescaled_final/1122_rv.mp4	0.0	85.97686123847961	
6	69.00181317329407	movie	1		285	4.0	2.5	/experiments/Knapen_AOT/AOT_stimuli/rescaled_final/1122_rv.mp4	0.0	85.99325466156006	2.5003671646118164
6	70.58362054824829	pulse	1	t		4.0	2.5	/experiments/Knapen_AOT/AOT_stimuli/rescaled_final/1122_rv.mp4	0.0	87.57506203651428	
6	71.50218033790588	fix_post	2		12	4.0	2.5	/experiments/Knapen_AOT/AOT_stimuli/rescaled_final/1122_rv.mp4	0.0	88.49362182617188	0.10003185272216797
7	71.60221219062805	fix_pre	0		120	5.0	2.5	blank	1.0	88.59365367889404	1.0001380443572998
7	72.18590116500854	pulse	0	t		5.0	2.5	blank	1.0	89.17734265327454	
7	72.60235023498535	movie	1		300	5.0	2.5	blank	1.0	89.59379172325134	2.500385046005249
7	73.78614282608032	pulse	1	t		5.0	2.5	blank	1.0	90.77758431434631	
7	75.1027352809906	fix_post	2		12	5.0	2.5	blank	1.0	92.09417676925659	0.10019850730895996
8	75.20293378829956	fix_pre	0		120	6.0	2.5	/experiments/Knapen_AOT/AOT_stimuli/rescaled_final/2062_fw.mp4	0.0	92.19437527656555	1.0082933902740479
8	75.38632822036743	pulse	0	t		6.0	2.5	/experiments/Knapen_AOT/AOT_stimuli/rescaled_final/2062_fw.mp4	0.0	92.37776970863342	
8	76.21122717857361	movie	1		280	6.0	2.5	/experiments/Knapen_AOT/AOT_stimuli/rescaled_final/2062_fw.mp4	0.0	93.2026686668396	2.492088556289673
8	76.98434472084045	pulse	1	t		6.0	2.5	/experiments/Knapen_AOT/AOT_stimuli/rescaled_final/2062_fw.mp4	0.0	93.97578620910645	
8	78.58458256721497	pulse	1	t		6.0	2.5	/experiments/Knapen_AOT/AOT_stimuli/rescaled_final/2062_fw.mp4	0.0	95.57602405548096	
8	78.70331573486328	fix_post	2		12	6.0	2.5	/experiments/Knapen_AOT/AOT_stimuli/rescaled_final/2062_fw.mp4	0.0	95.69475722312927	0.10001540184020996
9	78.80333113670349	fix_pre	0		120	7.0	2.5	/experiments/Knapen_AOT/AOT_stimuli/rescaled_final/0732_rv.mp4	0.0	95.79477262496948	1.0084662437438965
9	79.81179738044739	movie	1		280	7.0	2.5	/experiments/Knapen_AOT/AOT_stimuli/rescaled_final/0732_rv.mp4	0.0	96.80323886871338	2.4920573234558105
9	80.18563985824585	pulse	1	t		7.0	2.5	/experiments/Knapen_AOT/AOT_stimuli/rescaled_final/0732_rv.mp4	0.0	97.17708134651184	
9	81.77929091453552	pulse	1	t		7.0	2.5	/experiments/Knapen_AOT/AOT_stimuli/rescaled_final/0732_rv.mp4	0.0	98.77073240280151	
9	82.3038547039032	fix_post	2		12	7.0	2.5	/experiments/Knapen_AOT/AOT_stimuli/rescaled_final/0732_rv.mp4	0.0	99.29529619216919	0.09998488426208496
10	82.40383958816528	fix_pre	0		118	8.0	2.5	/experiments/Knapen_AOT/AOT_stimuli/rescaled_final/0531_rv.mp4	0.0	99.39528107643127	0.9918289184570312
10	83.3792130947113	pulse	0	t		8.0	2.5	/experiments/Knapen_AOT/AOT_stimuli/rescaled_final/0531_rv.mp4	0.0	100.3706545829773	
10	83.39566850662231	movie	1		276	8.0	2.5	/experiments/Knapen_AOT/AOT_stimuli/rescaled_final/0531_rv.mp4	0.0	100.3871099948883	2.5004842281341553
10	84.97947669029236	pulse	1	t		8.0	2.5	/experiments/Knapen_AOT/AOT_stimuli/rescaled_final/0531_rv.mp4	0.0	101.97091817855835	
10	85.89615273475647	fix_post	2		12	8.0	2.5	/experiments/Knapen_AOT/AOT_stimuli/rescaled_final/0531_rv.mp4	0.0	102.88759422302246	0.09987568855285645
11	85.99602842330933	fix_pre	0		120	9.0	2.5	/experiments/Knapen_AOT/AOT_stimuli/rescaled_final/1863_fw.mp4	0.0	102.98746991157532	1.0086712837219238
11	86.5796947479248	pulse	0	t		9.0	2.5	/experiments/Knapen_AOT/AOT_stimuli/rescaled_final/1863_fw.mp4	0.0	103.5711362361908	
11	87.00469970703125	movie	1		280	9.0	2.5	/experiments/Knapen_AOT/AOT_stimuli/rescaled_final/1863_fw.mp4	0.0	103.99614119529724	2.491964340209961
11	88.17891263961792	pulse	1	t		9.0	2.5	/experiments/Knapen_AOT/AOT_stimuli/rescaled_final/1863_fw.mp4	0.0	105.17035412788391	
11	89.49666404724121	fix_post	2		12	9.0	2.5	/experiments/Knapen_AOT/AOT_stimuli/rescaled_final/1863_fw.mp4	0.0	106.4881055355072	0.0999445915222168
12	89.59660863876343	fix_pre	0		120	10.0	2.5	/experiments/Knapen_AOT/AOT_stimuli/rescaled_final/0520_fw.mp4	0.0	106.58805012702942	1.0086476802825928
12	89.78046703338623	pulse	0	t		10.0	2.5	/experiments/Knapen_AOT/AOT_stimuli/rescaled_final/0520_fw.mp4	0.0	106.77190852165222	
12	90.60525631904602	movie	1		273	10.0	2.5	/experiments/Knapen_AOT/AOT_stimuli/rescaled_final/0520_fw.mp4	0.0	107.59669780731201	2.491860866546631
12	91.38078951835632	pulse	1	t		10.0	2.5	/experiments/Knapen_AOT/AOT_stimuli/rescaled_final/0520_fw.mp4	0.0	108.37223100662231	
12	92.98081851005554	pulse	1	t		10.0	2.5	/experiments/Knapen_AOT/AOT_stimuli/rescaled_final/0520_fw.mp4	0.0	109.97225999832153	
12	93.09711718559265	fix_post	2		12	10.0	2.5	/experiments/Knapen_AOT/AOT_stimuli/rescaled_final/0520_fw.mp4	0.0	110.08855867385864	0.10001158714294434
13	93.1971287727356	fix_pre	0		120	11.0	2.5	/experiments/Knapen_AOT/AOT_stimuli/rescaled_final/2109_fw.mp4	0.0	110.18857026100159	1.008612871170044
13	94.20574164390564	movie	1		279	11.0	2.5	/experiments/Knapen_AOT/AOT_stimuli/rescaled_final/2109_fw.mp4	0.0	111.19718313217163	2.491957187652588
13	94.58003425598145	pulse	1	t		11.0	2.5	/experiments/Knapen_AOT/AOT_stimuli/rescaled_final/2109_fw.mp4	0.0	111.57147574424744	
13	96.17896604537964	pulse	1	t		11.0	2.5	/experiments/Knapen_AOT/AOT_stimuli/rescaled_final/2109_fw.mp4	0.0	113.17040753364563	
13	96.69769883155823	fix_post	2		12	11.0	2.5	/experiments/Knapen_AOT/AOT_stimuli/rescaled_final/2109_fw.mp4	0.0	113.68914031982422	0.09999823570251465
14	96.79769706726074	fix_pre	0		119	12.0	2.5	blank	1.0	113.78913855552673	0.9917714595794678
14	97.78136014938354	pulse	0	t		12.0	2.5	blank	1.0	114.77280163764954	
14	97.78946852684021	movie	1		301	12.0	2.5	blank	1.0	114.7809100151062	2.508701801300049
14	99.38161778450012	pulse	1	t		12.0	2.5	blank	1.0	116.37305927276611	
14	100.29817032814026	fix_post	2		12	12.0	2.5	blank	1.0	117.28961181640625	0.10008788108825684
15	100.39825820922852	fix_pre	0		120	13.0	2.5	/experiments/Knapen_AOT/AOT_stimuli/rescaled_final/1672_fw.mp4	0.0	117.3896996974945	1.008434772491455
15	100.98183059692383	pulse	0	t		13.0	2.5	/experiments/Knapen_AOT/AOT_stimuli/rescaled_final/1672_fw.mp4	0.0	117.97327208518982	
15	101.40669298171997	movie	1		276	13.0	2.5	/experiments/Knapen_AOT/AOT_stimuli/rescaled_final/1672_fw.mp4	0.0	118.39813446998596	2.492046594619751
15	102.58225870132446	pulse	1	t		13.0	2.5	/experiments/Knapen_AOT/AOT_stimuli/rescaled_final/1672_fw.mp4	0.0	119.57370018959045	
15	103.89873957633972	fix_post	2		12	13.0	2.5	/experiments/Knapen_AOT/AOT_stimuli/rescaled_final/1672_fw.mp4	0.0	120.89018106460571	0.1000204086303711
16	103.99875998497009	fix_pre	0		120	14.0	2.5	/experiments/Knapen_AOT/AOT_stimuli/rescaled_final/0909_rv.mp4	0.0	120.99020147323608	1.0084865093231201
16	104.182302236557	pulse	0	t		14.0	2.5	/experiments/Knapen_AOT/AOT_stimuli/rescaled_final/0909_rv.mp4	0.0	121.173743724823	
16	105.00724649429321	movie	1		275	14.0	2.5	/experiments/Knapen_AOT/AOT_stimuli/rescaled_final/0909_rv.mp4	0.0	121.9986879825592	2.4920248985290527
16	105.78021502494812	pulse	1	t		14.0	2.5	/experiments/Knapen_AOT/AOT_stimuli/rescaled_final/0909_rv.mp4	0.0	122.77165651321411	
16	107.3807578086853	pulse	1	t		14.0	2.5	/experiments/Knapen_AOT/AOT_stimuli/rescaled_final/0909_rv.mp4	0.0	124.3721992969513	
16	107.49927139282227	fix_post	2		12	14.0	2.5	/experiments/Knapen_AOT/AOT_stimuli/rescaled_final/0909_rv.mp4	0.0	124.49071288108826	0.10001182556152344
17	107.59928321838379	fix_pre	0		120	15.0	2.5	/experiments/Knapen_AOT/AOT_stimuli/rescaled_final/2095_rv.mp4	0.0	124.59072470664978	1.0084967613220215
17	108.60777997970581	movie	1		281	15.0	2.5	/experiments/Knapen_AOT/AOT_stimuli/rescaled_final/2095_rv.mp4	0.0	125.5992214679718	2.4920482635498047
17	108.98119878768921	pulse	1	t		15.0	2.5	/experiments/Knapen_AOT/AOT_stimuli/rescaled_final/2095_rv.mp4	0.0	125.9726402759552	
17	110.58115768432617	pulse	1	t		15.0	2.5	/experiments/Knapen_AOT/AOT_stimuli/rescaled_final/2095_rv.mp4	0.0	127.57259917259216	
17	111.09982824325562	fix_post	2		12	15.0	2.5	/experiments/Knapen_AOT/AOT_stimuli/rescaled_final/2095_rv.mp4	0.0	128.0912697315216	0.1000373363494873
18	111.1998655796051	fix_pre	0		119	16.0	2.5	/experiments/Knapen_AOT/AOT_stimuli/rescaled_final/0089_fw.mp4	0.0	128.1913070678711	1.0001139640808105
18	112.183589220047	pulse	0	t		16.0	2.5	/experiments/Knapen_AOT/AOT_stimuli/rescaled_final/0089_fw.mp4	0.0	129.175030708313	
18	112.19997954368591	movie	1		275	16.0	2.5	/experiments/Knapen_AOT/AOT_stimuli/rescaled_final/0089_fw.mp4	0.0	129.1914210319519	2.5003647804260254
18	113.78199887275696	pulse	1	t		16.0	2.5	/experiments/Knapen_AOT/AOT_stimuli/rescaled_final/0089_fw.mp4	0.0	130.77344036102295	
18	114.70034432411194	fix_post	2		12	16.0	2.5	/experiments/Knapen_AOT/AOT_stimuli/rescaled_final/0089_fw.mp4	0.0	131.69178581237793	0.1000361442565918
19	114.80038046836853	fix_pre	0		120	17.0	2.5	/experiments/Knapen_AOT/AOT_stimuli/rescaled_final/0882_fw.mp4	0.0	131.79182195663452	1.0084714889526367
19	115.38402199745178	pulse	0	t		17.0	2.5	/experiments/Knapen_AOT/AOT_stimuli/rescaled_final/0882_fw.mp4	0.0	132.37546348571777	
19	115.80885195732117	movie	1		275	17.0	2.5	/experiments/Knapen_AOT/AOT_stimuli/rescaled_final/0882_fw.mp4	0.0	132.80029344558716	2.4921040534973145
19	116.98268175125122	pulse	1	t		17.0	2.5	/experiments/Knapen_AOT/AOT_stimuli/rescaled_final/0882_fw.mp4	0.0	133.9741232395172	
19	118.30095601081848	fix_post	2		12	17.0	2.5	/experiments/Knapen_AOT/AOT_stimuli/rescaled_final/0882_fw.mp4	0.0	135.29239749908447	0.09996175765991211
20	118.4009177684784	fix_pre	0		120	18.0	2.5	/experiments/Knapen_AOT/AOT_stimuli/rescaled_final/2056_rv.mp4	0.0	135.39235925674438	1.0085160732269287
20	118.58468556404114	pulse	0	t		18.0	2.5	/experiments/Knapen_AOT/AOT_stimuli/rescaled_final/2056_rv.mp4	0.0	135.57612705230713	
20	119.40943384170532	movie	1		282	18.0	2.5	/experiments/Knapen_AOT/AOT_stimuli/rescaled_final/2056_rv.mp4	0.0	136.4008753299713	2.500333786010742
20	120.1827712059021	pulse	1	t		18.0	2.5	/experiments/Knapen_AOT/AOT_stimuli/rescaled_final/2056_rv.mp4	0.0	137.1742126941681	
20	121.78286147117615	pulse	1	t		18.0	2.5	/experiments/Knapen_AOT/AOT_stimuli/rescaled_final/2056_rv.mp4	0.0	138.77430295944214	
20	121.90976762771606	fix_post	2		11	18.0	2.5	/experiments/Knapen_AOT/AOT_stimuli/rescaled_final/2056_rv.mp4	0.0	138.90120911598206	0.09167647361755371
21	122.00144410133362	fix_pre	0		120	19.0	2.5	/experiments/Knapen_AOT/AOT_stimuli/rescaled_final/0340_fw.mp4	0.0	138.9928855895996	1.0085136890411377
21	123.00995779037476	movie	1		269	19.0	2.5	/experiments/Knapen_AOT/AOT_stimuli/rescaled_final/0340_fw.mp4	0.0	140.00139927864075	2.4920735359191895
21	123.38346338272095	pulse	1	t		19.0	2.5	/experiments/Knapen_AOT/AOT_stimuli/rescaled_final/0340_fw.mp4	0.0	140.37490487098694	
21	124.98310708999634	pulse	1	t		19.0	2.5	/experiments/Knapen_AOT/AOT_stimuli/rescaled_final/0340_fw.mp4	0.0	141.97454857826233	
21	125.50203132629395	fix_post	2		12	19.0	2.5	/experiments/Knapen_AOT/AOT_stimuli/rescaled_final/0340_fw.mp4	0.0	142.49347281455994	0.0999610424041748
22	125.60199236869812	fix_pre	0		119	20.0	2.5	blank	1.0	142.5934338569641	0.9918177127838135
22	126.58588027954102	pulse	0	t		20.0	2.5	blank	1.0	143.577321767807	
22	126.59381008148193	movie	1		301	20.0	2.5	blank	1.0	143.58525156974792	2.508929491043091
22	128.18589520454407	pulse	1	t		20.0	2.5	blank	1.0	145.17733669281006	
22	129.10273957252502	fix_post	2		12	20.0	2.5	blank	1.0	146.09418106079102	0.09982466697692871
23	129.20256423950195	fix_pre	0		120	21.0	2.5	/experiments/Knapen_AOT/AOT_stimuli/rescaled_final/0769_rv.mp4	0.0	146.19400572776794	1.0084381103515625
23	129.77855229377747	pulse	0	t		21.0	2.5	/experiments/Knapen_AOT/AOT_stimuli/rescaled_final/0769_rv.mp4	0.0	146.76999378204346	
23	130.21100234985352	movie	1		281	21.0	2.5	/experiments/Knapen_AOT/AOT_stimuli/rescaled_final/0769_rv.mp4	0.0	147.2024438381195	2.4920907020568848
23	131.3843638896942	pulse	1	t		21.0	2.5	/experiments/Knapen_AOT/AOT_stimuli/rescaled_final/0769_rv.mp4	0.0	148.3758053779602	
23	132.7030930519104	fix_post	2		12	21.0	2.5	/experiments/Knapen_AOT/AOT_stimuli/rescaled_final/0769_rv.mp4	0.0	149.6945345401764	0.09998726844787598
24	132.80308032035828	fix_pre	0		120	22.0	2.5	/experiments/Knapen_AOT/AOT_stimuli/rescaled_final/0957_fw.mp4	0.0	149.79452180862427	1.008558988571167
24	132.97861456871033	pulse	0	t		22.0	2.5	/experiments/Knapen_AOT/AOT_stimuli/rescaled_final/0957_fw.mp4	0.0	149.97005605697632	
24	133.81163930892944	movie	1		274	22.0	2.5	/experiments/Knapen_AOT/AOT_stimuli/rescaled_final/0957_fw.mp4	0.0	150.80308079719543	2.491959810256958
24	134.57861876487732	pulse	1	t		22.0	2.5	/experiments/Knapen_AOT/AOT_stimuli/rescaled_final/0957_fw.mp4	0.0	151.5700602531433	
24	136.17913389205933	pulse	1	t		22.0	2.5	/experiments/Knapen_AOT/AOT_stimuli/rescaled_final/0957_fw.mp4	0.0	153.17057538032532	
24	136.3035991191864	fix_post	2		12	22.0	2.5	/experiments/Knapen_AOT/AOT_stimuli/rescaled_final/0957_fw.mp4	0.0	153.2950406074524	0.10007858276367188
25	136.40367770195007	fix_pre	0		120	23.0	2.5	/experiments/Knapen_AOT/AOT_stimuli/rescaled_final/1086_fw.mp4	0.0	153.39511919021606	1.0084774494171143
25	137.4121551513672	movie	1		281	23.0	2.5	/experiments/Knapen_AOT/AOT_stimuli/rescaled_final/1086_fw.mp4	0.0	154.40359663963318	2.492018222808838
25	137.77904152870178	pulse	1	t		23.0	2.5	/experiments/Knapen_AOT/AOT_stimuli/rescaled_final/1086_fw.mp4	0.0	154.77048301696777	
25	139.37923121452332	pulse	1	t		23.0	2.5	/experiments/Knapen_AOT/AOT_stimuli/rescaled_final/1086_fw.mp4	0.0	156.3706727027893	
25	139.90417337417603	fix_post	2		12	23.0	2.5	/experiments/Knapen_AOT/AOT_stimuli/rescaled_final/1086_fw.mp4	0.0	156.89561486244202	0.10001754760742188
26	140.00419092178345	fix_pre	0		118	24.0	2.5	/experiments/Knapen_AOT/AOT_stimuli/rescaled_final/0493_fw.mp4	0.0	156.99563241004944	0.9919388294219971
26	140.97951555252075	pulse	0	t		24.0	2.5	/experiments/Knapen_AOT/AOT_stimuli/rescaled_final/0493_fw.mp4	0.0	157.97095704078674	
26	140.99612975120544	movie	1		264	24.0	2.5	/experiments/Knapen_AOT/AOT_stimuli/rescaled_final/0493_fw.mp4	0.0	157.98757123947144	2.5002236366271973
26	142.57977962493896	pulse	1	t		24.0	2.5	/experiments/Knapen_AOT/AOT_stimuli/rescaled_final/0493_fw.mp4	0.0	159.57122111320496	
26	143.49635338783264	fix_post	2		12	24.0	2.5	/experiments/Knapen_AOT/AOT_stimuli/rescaled_final/0493_fw.mp4	0.0	160.48779487609863	0.10001897811889648
27	143.59637236595154	fix_pre	0		120	25.0	2.5	/experiments/Knapen_AOT/AOT_stimuli/rescaled_final/1285_fw.mp4	0.0	160.58781385421753	1.008470058441162
27	144.17999172210693	pulse	0	t		25.0	2.5	/experiments/Knapen_AOT/AOT_stimuli/rescaled_final/1285_fw.mp4	0.0	161.17143321037292	
27	144.6048424243927	movie	1		273	25.0	2.5	/experiments/Knapen_AOT/AOT_stimuli/rescaled_final/1285_fw.mp4	0.0	161.5962839126587	2.4921085834503174
27	145.78042793273926	pulse	1	t		25.0	2.5	/experiments/Knapen_AOT/AOT_stimuli/rescaled_final/1285_fw.mp4	0.0	162.77186942100525	
27	147.09695100784302	fix_post	2		12	25.0	2.5	/experiments/Knapen_AOT/AOT_stimuli/rescaled_final/1285_fw.mp4	0.0	164.088392496109	0.09998583793640137
28	147.19693684577942	fix_pre	0		120	26.0	2.5	/experiments/Knapen_AOT/AOT_stimuli/rescaled_final/0188_rv.mp4	0.0	164.1883783340454	1.0085163116455078
28	147.38047575950623	pulse	0	t		26.0	2.5	/experiments/Knapen_AOT/AOT_stimuli/rescaled_final/0188_rv.mp4	0.0	164.37191724777222	
28	148.20545315742493	movie	1		265	26.0	2.5	/experiments/Knapen_AOT/AOT_stimuli/rescaled_final/0188_rv.mp4	0.0	165.19689464569092	2.4919753074645996
28	148.97882437705994	pulse	1	t		26.0	2.5	/experiments/Knapen_AOT/AOT_stimuli/rescaled_final/0188_rv.mp4	0.0	165.97026586532593	
28	150.57905673980713	pulse	1	t		26.0	2.5	/experiments/Knapen_AOT/AOT_stimuli/rescaled_final/0188_rv.mp4	0.0	167.57049822807312	
28	150.69742846488953	fix_post	2		12	26.0	2.5	/experiments/Knapen_AOT/AOT_stimuli/rescaled_final/0188_rv.mp4	0.0	167.68886995315552	0.10007667541503906
29	150.79750514030457	fix_pre	0		120	27.0	2.5	blank	1.0	167.78894662857056	1.0000898838043213
29	151.7975950241089	movie	1		300	27.0	2.5	blank	1.0	168.78903651237488	2.500373363494873
29	152.18143916130066	pulse	1	t		27.0	2.5	blank	1.0	169.17288064956665	
29	153.78166007995605	pulse	1	t		27.0	2.5	blank	1.0	170.77310156822205	
29	154.29796838760376	fix_post	2		12	27.0	2.5	blank	1.0	171.28940987586975	0.1000216007232666
30	154.39798998832703	fix_pre	0		119	28.0	2.5	/experiments/Knapen_AOT/AOT_stimuli/rescaled_final/2026_rv.mp4	0.0	171.38943147659302	1.008523941040039
30	155.38164472579956	pulse	0	t		28.0	2.5	/experiments/Knapen_AOT/AOT_stimuli/rescaled_final/2026_rv.mp4	0.0	172.37308621406555	
30	155.40651392936707	movie	1		275	28.0	2.5	/experiments/Knapen_AOT/AOT_stimuli/rescaled_final/2026_rv.mp4	0.0	172.39795541763306	2.4919936656951904
30	156.9808599948883	pulse	1	t		28.0	2.5	/experiments/Knapen_AOT/AOT_stimuli/rescaled_final/2026_rv.mp4	0.0	173.9723014831543	
30	157.89850759506226	fix_post	2		12	28.0	2.5	/experiments/Knapen_AOT/AOT_stimuli/rescaled_final/2026_rv.mp4	0.0	174.88994908332825	0.10019493103027344
31	157.99870252609253	fix_pre	0		120	29.0	2.5	/experiments/Knapen_AOT/AOT_stimuli/rescaled_final/0222_fw.mp4	0.0	174.99014401435852	1.0083270072937012
31	158.58210587501526	pulse	0	t		29.0	2.5	/experiments/Knapen_AOT/AOT_stimuli/rescaled_final/0222_fw.mp4	0.0	175.57354736328125	
31	159.00702953338623	movie	1		281	29.0	2.5	/experiments/Knapen_AOT/AOT_stimuli/rescaled_final/0222_fw.mp4	0.0	175.99847102165222	2.492015838623047
31	160.18020749092102	pulse	1	t		29.0	2.5	/experiments/Knapen_AOT/AOT_stimuli/rescaled_final/0222_fw.mp4	0.0	177.171648979187	
31	161.49904537200928	fix_post	2		12	29.0	2.5	/experiments/Knapen_AOT/AOT_stimuli/rescaled_final/0222_fw.mp4	0.0	178.49048686027527	0.10003280639648438
32	161.59907817840576	fix_pre	0		120	30.0	2.5	/experiments/Knapen_AOT/AOT_stimuli/rescaled_final/2161_fw.mp4	0.0	178.59051966667175	1.0085194110870361
32	161.78275632858276	pulse	0	t		30.0	2.5	/experiments/Knapen_AOT/AOT_stimuli/rescaled_final/2161_fw.mp4	0.0	178.77419781684875	
32	162.6075975894928	movie	1		283	30.0	2.5	/experiments/Knapen_AOT/AOT_stimuli/rescaled_final/2161_fw.mp4	0.0	179.5990390777588	2.4919981956481934
32	163.38061809539795	pulse	1	t		30.0	2.5	/experiments/Knapen_AOT/AOT_stimuli/rescaled_final/2161_fw.mp4	0.0	180.37205958366394	
32	164.98097229003906	pulse	1	t		30.0	2.5	/experiments/Knapen_AOT/AOT_stimuli/rescaled_final/2161_fw.mp4	0.0	181.97241377830505	
32	165.099595785141	fix_post	2		12	30.0	2.5	/experiments/Knapen_AOT/AOT_stimuli/rescaled_final/2161_fw.mp4	0.0	182.09103727340698	0.1000669002532959
33	165.1996626853943	fix_pre	0		120	31.0	2.5	/experiments/Knapen_AOT/AOT_stimuli/rescaled_final/1293_fw.mp4	0.0	182.19110417366028	1.0084490776062012
33	166.2081117630005	movie	1		282	31.0	2.5	/experiments/Knapen_AOT/AOT_stimuli/rescaled_final/1293_fw.mp4	0.0	183.19955325126648	2.4922080039978027
33	166.58150839805603	pulse	1	t		31.0	2.5	/experiments/Knapen_AOT/AOT_stimuli/rescaled_final/1293_fw.mp4	0.0	183.57294988632202	
33	168.1813497543335	pulse	1	t		31.0	2.5	/experiments/Knapen_AOT/AOT_stimuli/rescaled_final/1293_fw.mp4	0.0	185.1727912425995	
33	168.7003197669983	fix_post	2		12	31.0	2.5	/experiments/Knapen_AOT/AOT_stimuli/rescaled_final/1293_fw.mp4	0.0	185.69176125526428	0.09987998008728027
34	168.80019974708557	fix_pre	0		119	32.0	2.5	/experiments/Knapen_AOT/AOT_stimuli/rescaled_final/0471_fw.mp4	0.0	185.79164123535156	1.0000877380371094
34	169.78385305404663	pulse	0	t		32.0	2.5	/experiments/Knapen_AOT/AOT_stimuli/rescaled_final/0471_fw.mp4	0.0	186.77529454231262	
34	169.80028748512268	movie	1		278	32.0	2.5	/experiments/Knapen_AOT/AOT_stimuli/rescaled_final/0471_fw.mp4	0.0	186.79172897338867	2.500502586364746
34	171.38227081298828	pulse	1	t		32.0	2.5	/experiments/Knapen_AOT/AOT_stimuli/rescaled_final/0471_fw.mp4	0.0	188.37371230125427	
34	172.30079007148743	fix_post	2		12	32.0	2.5	/experiments/Knapen_AOT/AOT_stimuli/rescaled_final/0471_fw.mp4	0.0	189.29223155975342	0.09992051124572754
35	172.40071058273315	fix_pre	0		120	33.0	2.5	/experiments/Knapen_AOT/AOT_stimuli/rescaled_final/0310_fw.mp4	0.0	189.39215207099915	1.0085110664367676
35	172.98440194129944	pulse	0	t		33.0	2.5	/experiments/Knapen_AOT/AOT_stimuli/rescaled_final/0310_fw.mp4	0.0	189.97584342956543	
35	173.40922164916992	movie	1		282	33.0	2.5	/experiments/Knapen_AOT/AOT_stimuli/rescaled_final/0310_fw.mp4	0.0	190.4006631374359	2.4919934272766113
35	174.58284997940063	pulse	1	t		33.0	2.5	/experiments/Knapen_AOT/AOT_stimuli/rescaled_final/0310_fw.mp4	0.0	191.57429146766663	
35	175.90121507644653	fix_post	2		12	33.0	2.5	/experiments/Knapen_AOT/AOT_stimuli/rescaled_final/0310_fw.mp4	0.0	192.89265656471252	0.10004901885986328
36	176.0012640953064	fix_pre	0		120	34.0	2.5	/experiments/Knapen_AOT/AOT_stimuli/rescaled_final/1285_fw.mp4	0.0	192.9927055835724	1.0084989070892334
36	176.18482208251953	pulse	0	t		34.0	2.5	/experiments/Knapen_AOT/AOT_stimuli/rescaled_final/1285_fw.mp4	0.0	193.17626357078552	
36	177.00976300239563	movie	1		273	34.0	2.5	/experiments/Knapen_AOT/AOT_stimuli/rescaled_final/1285_fw.mp4	0.0	194.00120449066162	2.4920241832733154
36	177.78306889533997	pulse	1	t		34.0	2.5	/experiments/Knapen_AOT/AOT_stimuli/rescaled_final/1285_fw.mp4	0.0	194.77451038360596	
36	179.3833727836609	pulse	1	t		34.0	2.5	/experiments/Knapen_AOT/AOT_stimuli/rescaled_final/1285_fw.mp4	0.0	196.37481427192688	
36	179.50178718566895	fix_post	2		12	34.0	2.5	/experiments/Knapen_AOT/AOT_stimuli/rescaled_final/1285_fw.mp4	0.0	196.49322867393494	0.09998106956481934
37	179.60176825523376	fix_pre	0		120	35.0	2.5	blank	1.0	196.59320974349976	1.0001533031463623
37	180.60192155838013	movie	1		300	35.0	2.5	blank	1.0	197.59336304664612	2.5003674030303955
37	180.98570108413696	pulse	1	t		35.0	2.5	blank	1.0	197.97714257240295	
37	182.58577871322632	pulse	1	t		35.0	2.5	blank	1.0	199.5772202014923	
37	183.10228896141052	fix_post	2		12	35.0	2.5	blank	1.0	200.0937304496765	0.10004997253417969
38	183.2023389339447	fix_pre	0		119	36.0	2.5	/experiments/Knapen_AOT/AOT_stimuli/rescaled_final/0340_rv.mp4	0.0	200.1937804222107	1.000150203704834
38	184.18605136871338	pulse	0	t		36.0	2.5	/experiments/Knapen_AOT/AOT_stimuli/rescaled_final/0340_rv.mp4	0.0	201.17749285697937	
38	184.20248913764954	movie	1		285	36.0	2.5	/experiments/Knapen_AOT/AOT_stimuli/rescaled_final/0340_rv.mp4	0.0	201.19393062591553	2.5003509521484375
38	185.7846496105194	pulse	1	t		36.0	2.5	/experiments/Knapen_AOT/AOT_stimuli/rescaled_final/0340_rv.mp4	0.0	202.7760910987854	
38	186.70284008979797	fix_post	2		12	36.0	2.5	/experiments/Knapen_AOT/AOT_stimuli/rescaled_final/0340_rv.mp4	0.0	203.69428157806396	0.10005307197570801
39	186.80289316177368	fix_pre	0		120	37.0	2.5	/experiments/Knapen_AOT/AOT_stimuli/rescaled_final/2132_fw.mp4	0.0	203.79433465003967	1.0085041522979736
39	187.386479139328	pulse	0	t		37.0	2.5	/experiments/Knapen_AOT/AOT_stimuli/rescaled_final/2132_fw.mp4	0.0	204.377920627594	
39	187.81139731407166	movie	1		278	37.0	2.5	/experiments/Knapen_AOT/AOT_stimuli/rescaled_final/2132_fw.mp4	0.0	204.80283880233765	2.492072820663452
39	188.98622512817383	pulse	1	t		37.0	2.5	/experiments/Knapen_AOT/AOT_stimuli/rescaled_final/2132_fw.mp4	0.0	205.97766661643982	
39	190.3034701347351	fix_post	2		12	37.0	2.5	/experiments/Knapen_AOT/AOT_stimuli/rescaled_final/2132_fw.mp4	0.0	207.2949116230011	0.09995722770690918
40	190.40342736244202	fix_pre	0		120	38.0	2.5	/experiments/Knapen_AOT/AOT_stimuli/rescaled_final/0403_rv.mp4	0.0	207.394868850708	1.0085015296936035
40	190.5792465209961	pulse	0	t		38.0	2.5	/experiments/Knapen_AOT/AOT_stimuli/rescaled_final/0403_rv.mp4	0.0	207.57068800926208	
40	191.41192889213562	movie	1		283	38.0	2.5	/experiments/Knapen_AOT/AOT_stimuli/rescaled_final/0403_rv.mp4	0.0	208.4033703804016	2.4919941425323486
40	192.17904496192932	pulse	1	t		38.0	2.5	/experiments/Knapen_AOT/AOT_stimuli/rescaled_final/0403_rv.mp4	0.0	209.1704864501953	
40	193.7792992591858	pulse	1	t		38.0	2.5	/experiments/Knapen_AOT/AOT_stimuli/rescaled_final/0403_rv.mp4	0.0	210.77074074745178	
40	193.90392303466797	fix_post	2		12	38.0	2.5	/experiments/Knapen_AOT/AOT_stimuli/rescaled_final/0403_rv.mp4	0.0	210.89536452293396	0.10000348091125488
41	194.00392651557922	fix_pre	0		120	39.0	2.5	/experiments/Knapen_AOT/AOT_stimuli/rescaled_final/0505_rv.mp4	0.0	210.99536800384521	1.0085928440093994
41	195.01251935958862	movie	1		284	39.0	2.5	/experiments/Knapen_AOT/AOT_stimuli/rescaled_final/0505_rv.mp4	0.0	212.00396084785461	2.4919443130493164
41	195.3793864250183	pulse	1	t		39.0	2.5	/experiments/Knapen_AOT/AOT_stimuli/rescaled_final/0505_rv.mp4	0.0	212.3708279132843	
41	196.97964000701904	pulse	1	t		39.0	2.5	/experiments/Knapen_AOT/AOT_stimuli/rescaled_final/0505_rv.mp4	0.0	213.97108149528503	
41	197.50446367263794	fix_post	2		12	39.0	2.5	/experiments/Knapen_AOT/AOT_stimuli/rescaled_final/0505_rv.mp4	0.0	214.49590516090393	0.10002326965332031
42	197.60448694229126	fix_pre	0		118	40.0	2.5	/experiments/Knapen_AOT/AOT_stimuli/rescaled_final/1593_fw.mp4	0.0	214.59592843055725	0.9918429851531982
42	198.57984805107117	pulse	0	t		40.0	2.5	/experiments/Knapen_AOT/AOT_stimuli/rescaled_final/1593_fw.mp4	0.0	215.57128953933716	
42	198.59632992744446	movie	1		281	40.0	2.5	/experiments/Knapen_AOT/AOT_stimuli/rescaled_final/1593_fw.mp4	0.0	215.58777141571045	2.5003814697265625
42	200.18038249015808	pulse	1	t		40.0	2.5	/experiments/Knapen_AOT/AOT_stimuli/rescaled_final/1593_fw.mp4	0.0	217.17182397842407	
42	201.09671139717102	fix_post	2		12	40.0	2.5	/experiments/Knapen_AOT/AOT_stimuli/rescaled_final/1593_fw.mp4	0.0	218.088152885437	0.09999418258666992
43	201.1967055797577	fix_pre	0		120	41.0	2.5	/experiments/Knapen_AOT/AOT_stimuli/rescaled_final/0710_fw.mp4	0.0	218.18814706802368	1.0084774494171143
43	201.7804193496704	pulse	0	t		41.0	2.5	/experiments/Knapen_AOT/AOT_stimuli/rescaled_final/0710_fw.mp4	0.0	218.7718608379364	
43	202.2051830291748	movie	1		276	41.0	2.5	/experiments/Knapen_AOT/AOT_stimuli/rescaled_final/0710_fw.mp4	0.0	219.1966245174408	2.4920272827148438
43	203.3809802532196	pulse	1	t		41.0	2.5	/experiments/Knapen_AOT/AOT_stimuli/rescaled_final/0710_fw.mp4	0.0	220.3724217414856	
43	204.69721031188965	fix_post	2		12	41.0	2.5	/experiments/Knapen_AOT/AOT_stimuli/rescaled_final/0710_fw.mp4	0.0	221.68865180015564	0.1000971794128418
44	204.7973074913025	fix_pre	0		120	42.0	2.5	blank	1.0	221.78874897956848	1.0000603199005127
44	204.98088836669922	pulse	0	t		42.0	2.5	blank	1.0	221.9723298549652	
44	205.797367811203	movie	1		300	42.0	2.5	blank	1.0	222.788809299469	2.500370740890503
44	206.5810170173645	pulse	1	t		42.0	2.5	blank	1.0	223.5724585056305	
44	208.18157243728638	pulse	1	t		42.0	2.5	blank	1.0	225.17301392555237	
44	208.2977385520935	fix_post	2		12	42.0	2.5	blank	1.0	225.2891800403595	0.10003089904785156
45	208.39776945114136	fix_pre	0		120	43.0	2.5	/experiments/Knapen_AOT/AOT_stimuli/rescaled_final/1906_rv.mp4	0.0	225.38921093940735	1.008591651916504
45	209.40636110305786	movie	1		282	43.0	2.5	/experiments/Knapen_AOT/AOT_stimuli/rescaled_final/1906_rv.mp4	0.0	226.39780259132385	2.492062568664551
45	209.78005647659302	pulse	1	t		43.0	2.5	/experiments/Knapen_AOT/AOT_stimuli/rescaled_final/1906_rv.mp4	0.0	226.771497964859	
45	211.37984323501587	pulse	1	t		43.0	2.5	/experiments/Knapen_AOT/AOT_stimuli/rescaled_final/1906_rv.mp4	0.0	228.37128472328186	
45	211.8984236717224	fix_post	2		12	43.0	2.5	/experiments/Knapen_AOT/AOT_stimuli/rescaled_final/1906_rv.mp4	0.0	228.8898651599884	0.09991049766540527
46	211.99833416938782	fix_pre	0		119	44.0	2.5	/experiments/Knapen_AOT/AOT_stimuli/rescaled_final/1769_rv.mp4	0.0	228.9897756576538	1.0001680850982666
46	212.98198795318604	pulse	0	t		44.0	2.5	/experiments/Knapen_AOT/AOT_stimuli/rescaled_final/1769_rv.mp4	0.0	229.97342944145203	
46	212.99850225448608	movie	1		281	44.0	2.5	/experiments/Knapen_AOT/AOT_stimuli/rescaled_final/1769_rv.mp4	0.0	229.98994374275208	2.5087006092071533
46	214.58080053329468	pulse	1	t		44.0	2.5	/experiments/Knapen_AOT/AOT_stimuli/rescaled_final/1769_rv.mp4	0.0	231.57224202156067	
46	215.50720286369324	fix_post	2		11	44.0	2.5	/experiments/Knapen_AOT/AOT_stimuli/rescaled_final/1769_rv.mp4	0.0	232.49864435195923	0.09171915054321289
47	215.59892201423645	fix_pre	0		120	45.0	2.5	/experiments/Knapen_AOT/AOT_stimuli/rescaled_final/2026_fw.mp4	0.0	232.59036350250244	1.0084290504455566
47	216.1826400756836	pulse	0	t		45.0	2.5	/experiments/Knapen_AOT/AOT_stimuli/rescaled_final/2026_fw.mp4	0.0	233.17408156394958	
47	216.607351064682	movie	1		276	45.0	2.5	/experiments/Knapen_AOT/AOT_stimuli/rescaled_final/2026_fw.mp4	0.0	233.598792552948	2.4920554161071777
47	217.7828598022461	pulse	1	t		45.0	2.5	/experiments/Knapen_AOT/AOT_stimuli/rescaled_final/2026_fw.mp4	0.0	234.77430129051208	
47	219.09940648078918	fix_post	2		12	45.0	2.5	/experiments/Knapen_AOT/AOT_stimuli/rescaled_final/2026_fw.mp4	0.0	236.09084796905518	0.09998726844787598
48	219.19939374923706	fix_pre	0		104	46.0	2.5	/experiments/Knapen_AOT/AOT_stimuli/rescaled_final/0495_rv.mp4	0.0	236.19083523750305	1.0084989070892334
48	219.38298177719116	pulse	0	t		46.0	2.5	/experiments/Knapen_AOT/AOT_stimuli/rescaled_final/0495_rv.mp4	0.0	236.37442326545715	
48	220.2078926563263	movie	1		275	46.0	2.5	/experiments/Knapen_AOT/AOT_stimuli/rescaled_final/0495_rv.mp4	0.0	237.19933414459229	2.492042303085327
48	220.98238492012024	pulse	1	t		46.0	2.5	/experiments/Knapen_AOT/AOT_stimuli/rescaled_final/0495_rv.mp4	0.0	237.97382640838623	
48	222.5813388824463	pulse	1	t		46.0	2.5	/experiments/Knapen_AOT/AOT_stimuli/rescaled_final/0495_rv.mp4	0.0	239.57278037071228	
48	222.69993495941162	fix_post	2		12	46.0	2.5	/experiments/Knapen_AOT/AOT_stimuli/rescaled_final/0495_rv.mp4	0.0	239.6913764476776	0.10000991821289062
49	222.7999448776245	fix_pre	0		120	47.0	2.5	/experiments/Knapen_AOT/AOT_stimuli/rescaled_final/1972_fw.mp4	0.0	239.7913863658905	1.008481740951538
49	223.80842661857605	movie	1		273	47.0	2.5	/experiments/Knapen_AOT/AOT_stimuli/rescaled_final/1972_fw.mp4	0.0	240.79986810684204	2.492039203643799
49	224.1827437877655	pulse	1	t		47.0	2.5	/experiments/Knapen_AOT/AOT_stimuli/rescaled_final/1972_fw.mp4	0.0	241.1741852760315	
49	225.78512001037598	pulse	1	t		47.0	2.5	/experiments/Knapen_AOT/AOT_stimuli/rescaled_final/1972_fw.mp4	0.0	242.77656149864197	
49	226.30046582221985	fix_post	2		12	47.0	2.5	/experiments/Knapen_AOT/AOT_stimuli/rescaled_final/1972_fw.mp4	0.0	243.29190731048584	0.10001206398010254
50	226.40047788619995	fix_pre	0		119	48.0	2.5	blank	1.0	243.39191937446594	0.991814136505127
50	227.3841290473938	pulse	0	t		48.0	2.5	blank	1.0	244.3755705356598	
50	227.39229202270508	movie	1		301	48.0	2.5	blank	1.0	244.38373351097107	2.5087027549743652
50	228.98438692092896	pulse	1	t		48.0	2.5	blank	1.0	245.97582840919495	
50	229.90099477767944	fix_post	2		12	48.0	2.5	blank	1.0	246.89243626594543	0.10002517700195312
51	230.0010199546814	fix_pre	0		120	49.0	2.5	/experiments/Knapen_AOT/AOT_stimuli/rescaled_final/2161_rv.mp4	0.0	246.9924614429474	1.008544683456421
51	230.58477687835693	pulse	0	t		49.0	2.5	/experiments/Knapen_AOT/AOT_stimuli/rescaled_final/2161_rv.mp4	0.0	247.57621836662292	
51	231.00956463813782	movie	1		286	49.0	2.5	/experiments/Knapen_AOT/AOT_stimuli/rescaled_final/2161_rv.mp4	0.0	248.0010061264038	2.4921252727508545
51	232.18317008018494	pulse	1	t		49.0	2.5	/experiments/Knapen_AOT/AOT_stimuli/rescaled_final/2161_rv.mp4	0.0	249.17461156845093	
51	233.50168991088867	fix_post	2		12	49.0	2.5	/experiments/Knapen_AOT/AOT_stimuli/rescaled_final/2161_rv.mp4	0.0	250.49313139915466	0.09987139701843262
52	233.6015613079071	fix_pre	0		120	50.0	2.5	/experiments/Knapen_AOT/AOT_stimuli/rescaled_final/1198_fw.mp4	0.0	250.5930027961731	1.0085022449493408
52	233.78512525558472	pulse	0	t		50.0	2.5	/experiments/Knapen_AOT/AOT_stimuli/rescaled_final/1198_fw.mp4	0.0	250.7765667438507	
52	234.61006355285645	movie	1		288	50.0	2.5	/experiments/Knapen_AOT/AOT_stimuli/rescaled_final/1198_fw.mp4	0.0	251.60150504112244	2.49202561378479
52	235.38346195220947	pulse	1	t		50.0	2.5	/experiments/Knapen_AOT/AOT_stimuli/rescaled_final/1198_fw.mp4	0.0	252.37490344047546	
52	236.98352670669556	pulse	1	t		50.0	2.5	/experiments/Knapen_AOT/AOT_stimuli/rescaled_final/1198_fw.mp4	0.0	253.97496819496155	
52	237.10208916664124	fix_post	2		12	50.0	2.5	/experiments/Knapen_AOT/AOT_stimuli/rescaled_final/1198_fw.mp4	0.0	254.09353065490723	0.09999942779541016
53	237.20208859443665	fix_pre	0		120	51.0	2.5	/experiments/Knapen_AOT/AOT_stimuli/rescaled_final/0882_rv.mp4	0.0	254.19353008270264	1.0085296630859375
53	238.21061825752258	movie	1		275	51.0	2.5	/experiments/Knapen_AOT/AOT_stimuli/rescaled_final/0882_rv.mp4	0.0	255.20205974578857	2.4920096397399902
53	238.584317445755	pulse	1	t		51.0	2.5	/experiments/Knapen_AOT/AOT_stimuli/rescaled_final/0882_rv.mp4	0.0	255.575758934021	
53	240.18397092819214	pulse	1	t		51.0	2.5	/experiments/Knapen_AOT/AOT_stimuli/rescaled_final/0882_rv.mp4	0.0	257.17541241645813	
53	240.70262789726257	fix_post	2		12	51.0	2.5	/experiments/Knapen_AOT/AOT_stimuli/rescaled_final/0882_rv.mp4	0.0	257.69406938552856	0.10004401206970215
54	240.80267190933228	fix_pre	0		119	52.0	2.5	/experiments/Knapen_AOT/AOT_stimuli/rescaled_final/0193_rv.mp4	0.0	257.79411339759827	1.0001194477081299
54	241.78632187843323	pulse	0	t		52.0	2.5	/experiments/Knapen_AOT/AOT_stimuli/rescaled_final/0193_rv.mp4	0.0	258.7777633666992	
54	241.8027913570404	movie	1		281	52.0	2.5	/experiments/Knapen_AOT/AOT_stimuli/rescaled_final/0193_rv.mp4	0.0	258.7942328453064	2.5003840923309326
54	243.38498663902283	pulse	1	t		52.0	2.5	/experiments/Knapen_AOT/AOT_stimuli/rescaled_final/0193_rv.mp4	0.0	260.3764281272888	
54	244.30317544937134	fix_post	2		12	52.0	2.5	/experiments/Knapen_AOT/AOT_stimuli/rescaled_final/0193_rv.mp4	0.0	261.29461693763733	0.10001850128173828
55	244.40319395065308	fix_pre	0		120	53.0	2.5	/experiments/Knapen_AOT/AOT_stimuli/rescaled_final/0270_fw.mp4	0.0	261.39463543891907	1.0085244178771973
55	244.986887216568	pulse	0	t		53.0	2.5	/experiments/Knapen_AOT/AOT_stimuli/rescaled_final/0270_fw.mp4	0.0	261.978328704834	
55	245.41171836853027	movie	1		285	53.0	2.5	/experiments/Knapen_AOT/AOT_stimuli/rescaled_final/0270_fw.mp4	0.0	262.40315985679626	2.492002248764038
55	246.58545112609863	pulse	1	t		53.0	2.5	/experiments/Knapen_AOT/AOT_stimuli/rescaled_final/0270_fw.mp4	0.0	263.5768926143646	
55	247.9037206172943	fix_post	2		12	53.0	2.5	/experiments/Knapen_AOT/AOT_stimuli/rescaled_final/0270_fw.mp4	0.0	264.8951621055603	0.0999748706817627
56	248.00369548797607	fix_pre	0		120	54.0	2.5	/experiments/Knapen_AOT/AOT_stimuli/rescaled_final/0902_fw.mp4	0.0	264.99513697624207	1.008531093597412
56	248.17938256263733	pulse	0	t		54.0	2.5	/experiments/Knapen_AOT/AOT_stimuli/rescaled_final/0902_fw.mp4	0.0	265.1708240509033	
56	249.0122265815735	movie	1		292	54.0	2.5	/experiments/Knapen_AOT/AOT_stimuli/rescaled_final/0902_fw.mp4	0.0	266.0036680698395	2.492011785507202
56	249.779443025589	pulse	1	t		54.0	2.5	/experiments/Knapen_AOT/AOT_stimuli/rescaled_final/0902_fw.mp4	0.0	266.770884513855	
56	251.3795416355133	pulse	1	t		54.0	2.5	/experiments/Knapen_AOT/AOT_stimuli/rescaled_final/0902_fw.mp4	0.0	268.3709831237793	
56	251.5042383670807	fix_post	2		12	54.0	2.5	/experiments/Knapen_AOT/AOT_stimuli/rescaled_final/0902_fw.mp4	0.0	268.4956798553467	0.10002756118774414
57	251.60426592826843	fix_pre	0		120	55.0	2.5	blank	1.0	268.5957074165344	1.0001380443572998
57	252.60440397262573	movie	1		300	55.0	2.5	blank	1.0	269.5958454608917	2.500380039215088
57	252.97988748550415	pulse	1	t		55.0	2.5	blank	1.0	269.97132897377014	
57	254.57998132705688	pulse	1	t		55.0	2.5	blank	1.0	271.5714228153229	
57	255.10478401184082	fix_post	2		12	55.0	2.5	blank	1.0	272.0962255001068	0.10002660751342773
58	255.20481061935425	fix_pre	0		118	56.0	2.5	/experiments/Knapen_AOT/AOT_stimuli/rescaled_final/1741_fw.mp4	0.0	272.19625210762024	0.9918253421783447
58	256.1801950931549	pulse	0	t		56.0	2.5	/experiments/Knapen_AOT/AOT_stimuli/rescaled_final/1741_fw.mp4	0.0	273.1716365814209	
58	256.1966359615326	movie	1		277	56.0	2.5	/experiments/Knapen_AOT/AOT_stimuli/rescaled_final/1741_fw.mp4	0.0	273.1880774497986	2.5003397464752197
58	257.78053307533264	pulse	1	t		56.0	2.5	/experiments/Knapen_AOT/AOT_stimuli/rescaled_final/1741_fw.mp4	0.0	274.77197456359863	
58	258.6969757080078	fix_post	2		12	56.0	2.5	/experiments/Knapen_AOT/AOT_stimuli/rescaled_final/1741_fw.mp4	0.0	275.6884171962738	0.10003471374511719
59	258.79701042175293	fix_pre	0		120	57.0	2.5	/experiments/Knapen_AOT/AOT_stimuli/rescaled_final/0722_fw.mp4	0.0	275.7884519100189	1.008479118347168
59	259.380667924881	pulse	0	t		57.0	2.5	/experiments/Knapen_AOT/AOT_stimuli/rescaled_final/0722_fw.mp4	0.0	276.372109413147	
59	259.8054895401001	movie	1		280	57.0	2.5	/experiments/Knapen_AOT/AOT_stimuli/rescaled_final/0722_fw.mp4	0.0	276.7969310283661	2.492047071456909
59	260.9794194698334	pulse	1	t		57.0	2.5	/experiments/Knapen_AOT/AOT_stimuli/rescaled_final/0722_fw.mp4	0.0	277.97086095809937	
59	262.297536611557	fix_post	2		12	57.0	2.5	/experiments/Knapen_AOT/AOT_stimuli/rescaled_final/0722_fw.mp4	0.0	279.288978099823	0.10001826286315918
60	262.39755487442017	fix_pre	0		120	58.0	2.5	/experiments/Knapen_AOT/AOT_stimuli/rescaled_final/1441_fw.mp4	0.0	279.38899636268616	1.0085039138793945
60	262.5811593532562	pulse	0	t		58.0	2.5	/experiments/Knapen_AOT/AOT_stimuli/rescaled_final/1441_fw.mp4	0.0	279.5726008415222	
60	263.40605878829956	movie	1		284	58.0	2.5	/experiments/Knapen_AOT/AOT_stimuli/rescaled_final/1441_fw.mp4	0.0	280.39750027656555	2.4920456409454346
60	264.17930269241333	pulse	1	t		58.0	2.5	/experiments/Knapen_AOT/AOT_stimuli/rescaled_final/1441_fw.mp4	0.0	281.1707441806793	
60	265.7799506187439	pulse	1	t		58.0	2.5	/experiments/Knapen_AOT/AOT_stimuli/rescaled_final/1441_fw.mp4	0.0	282.7713921070099	
60	265.898104429245	fix_post	2		12	58.0	2.5	/experiments/Knapen_AOT/AOT_stimuli/rescaled_final/1441_fw.mp4	0.0	282.889545917511	0.09998893737792969
61	265.9980933666229	fix_pre	0		120	59.0	2.5	/experiments/Knapen_AOT/AOT_stimuli/rescaled_final/0653_fw.mp4	0.0	282.9895348548889	1.0084831714630127
61	267.00657653808594	movie	1		279	59.0	2.5	/experiments/Knapen_AOT/AOT_stimuli/rescaled_final/0653_fw.mp4	0.0	283.99801802635193	2.4920575618743896
61	267.3809177875519	pulse	1	t		59.0	2.5	/experiments/Knapen_AOT/AOT_stimuli/rescaled_final/0653_fw.mp4	0.0	284.37235927581787	
61	268.98226165771484	pulse	1	t		59.0	2.5	/experiments/Knapen_AOT/AOT_stimuli/rescaled_final/0653_fw.mp4	0.0	285.97370314598083	
61	269.4986340999603	fix_post	2		12	59.0	2.5	/experiments/Knapen_AOT/AOT_stimuli/rescaled_final/0653_fw.mp4	0.0	286.4900755882263	0.1000514030456543
62	269.598685503006	fix_pre	0		119	60.0	2.5	/experiments/Knapen_AOT/AOT_stimuli/rescaled_final/0403_fw.mp4	0.0	286.590126991272	1.0001237392425537
62	270.5823528766632	pulse	0	t		60.0	2.5	/experiments/Knapen_AOT/AOT_stimuli/rescaled_final/0403_fw.mp4	0.0	287.5737943649292	
62	270.59880924224854	movie	1		270	60.0	2.5	/experiments/Knapen_AOT/AOT_stimuli/rescaled_final/0403_fw.mp4	0.0	287.5902507305145	2.500389814376831
62	272.18117475509644	pulse	1	t		60.0	2.5	/experiments/Knapen_AOT/AOT_stimuli/rescaled_final/0403_fw.mp4	0.0	289.1726162433624	
62	273.09919905662537	fix_post	2		12	60.0	2.5	/experiments/Knapen_AOT/AOT_stimuli/rescaled_final/0403_fw.mp4	0.0	290.09064054489136	0.10001277923583984
63	273.1992118358612	fix_pre	0		120	61.0	2.5	/experiments/Knapen_AOT/AOT_stimuli/rescaled_final/0094_rv.mp4	0.0	290.1906533241272	1.0084662437438965
63	273.7828381061554	pulse	0	t		61.0	2.5	/experiments/Knapen_AOT/AOT_stimuli/rescaled_final/0094_rv.mp4	0.0	290.7742795944214	
63	274.2076780796051	movie	1		281	61.0	2.5	/experiments/Knapen_AOT/AOT_stimuli/rescaled_final/0094_rv.mp4	0.0	291.1991195678711	2.492084503173828
63	275.3832175731659	pulse	1	t		61.0	2.5	/experiments/Knapen_AOT/AOT_stimuli/rescaled_final/0094_rv.mp4	0.0	292.3746590614319	
63	276.69976258277893	fix_post	2		12	61.0	2.5	/experiments/Knapen_AOT/AOT_stimuli/rescaled_final/0094_rv.mp4	0.0	293.6912040710449	0.09997010231018066
64	276.7997326850891	fix_pre	0		120	62.0	2.5	blank	1.0	293.7911741733551	1.0001447200775146
64	276.9832625389099	pulse	0	t		62.0	2.5	blank	1.0	293.9747040271759	
64	277.7998774051666	movie	1		300	62.0	2.5	blank	1.0	294.7913188934326	2.500375509262085
64	278.58359599113464	pulse	1	t		62.0	2.5	blank	1.0	295.57503747940063	
64	280.1837706565857	pulse	1	t		62.0	2.5	blank	1.0	297.1752121448517	
64	280.3002529144287	fix_post	2		12	62.0	2.5	blank	1.0	297.2916944026947	0.10016512870788574
65	280.4004180431366	fix_pre	0		120	63.0	2.5	/experiments/Knapen_AOT/AOT_stimuli/rescaled_final/0803_fw.mp4	0.0	297.3918595314026	1.008331537246704
65	281.4087495803833	movie	1		269	63.0	2.5	/experiments/Knapen_AOT/AOT_stimuli/rescaled_final/0803_fw.mp4	0.0	298.4001910686493	2.4920287132263184
65	281.7821819782257	pulse	1	t		63.0	2.5	/experiments/Knapen_AOT/AOT_stimuli/rescaled_final/0803_fw.mp4	0.0	298.7736234664917	
65	283.3832046985626	pulse	1	t		63.0	2.5	/experiments/Knapen_AOT/AOT_stimuli/rescaled_final/0803_fw.mp4	0.0	300.3746461868286	
65	283.9007782936096	fix_post	2		12	63.0	2.5	/experiments/Knapen_AOT/AOT_stimuli/rescaled_final/0803_fw.mp4	0.0	300.8922197818756	0.100067138671875
66	284.0008454322815	fix_pre	0		119	64.0	2.5	/experiments/Knapen_AOT/AOT_stimuli/rescaled_final/1134_fw.mp4	0.0	300.9922869205475	1.0001089572906494
66	284.98457193374634	pulse	0	t		64.0	2.5	/experiments/Knapen_AOT/AOT_stimuli/rescaled_final/1134_fw.mp4	0.0	301.97601342201233	
66	285.00095438957214	movie	1		285	64.0	2.5	/experiments/Knapen_AOT/AOT_stimuli/rescaled_final/1134_fw.mp4	0.0	301.99239587783813	2.5003836154937744
66	286.5831220149994	pulse	1	t		64.0	2.5	/experiments/Knapen_AOT/AOT_stimuli/rescaled_final/1134_fw.mp4	0.0	303.5745635032654	
66	287.5013380050659	fix_post	2		12	64.0	2.5	/experiments/Knapen_AOT/AOT_stimuli/rescaled_final/1134_fw.mp4	0.0	304.4927794933319	0.10001587867736816
67	287.6013538837433	fix_pre	0		120	65.0	2.5	/experiments/Knapen_AOT/AOT_stimuli/rescaled_final/0159_fw.mp4	0.0	304.5927953720093	1.0084967613220215
67	288.1850275993347	pulse	0	t		65.0	2.5	/experiments/Knapen_AOT/AOT_stimuli/rescaled_final/0159_fw.mp4	0.0	305.1764690876007	
67	288.6098506450653	movie	1		282	65.0	2.5	/experiments/Knapen_AOT/AOT_stimuli/rescaled_final/0159_fw.mp4	0.0	305.6012921333313	2.4920380115509033
67	289.7838714122772	pulse	1	t		65.0	2.5	/experiments/Knapen_AOT/AOT_stimuli/rescaled_final/0159_fw.mp4	0.0	306.7753129005432	
67	291.1018886566162	fix_post	2		12	65.0	2.5	/experiments/Knapen_AOT/AOT_stimuli/rescaled_final/0159_fw.mp4	0.0	308.0933301448822	0.10002470016479492
68	291.201913356781	fix_pre	0		120	66.0	2.5	/experiments/Knapen_AOT/AOT_stimuli/rescaled_final/1124_rv.mp4	0.0	308.193354845047	1.0084729194641113
68	291.385529756546	pulse	0	t		66.0	2.5	/experiments/Knapen_AOT/AOT_stimuli/rescaled_final/1124_rv.mp4	0.0	308.376971244812	
68	292.2103862762451	movie	1		280	66.0	2.5	/experiments/Knapen_AOT/AOT_stimuli/rescaled_final/1124_rv.mp4	0.0	309.2018277645111	2.492016315460205
68	292.983788728714	pulse	1	t		66.0	2.5	/experiments/Knapen_AOT/AOT_stimuli/rescaled_final/1124_rv.mp4	0.0	309.97523021698	
68	294.58455300331116	pulse	1	t		66.0	2.5	/experiments/Knapen_AOT/AOT_stimuli/rescaled_final/1124_rv.mp4	0.0	311.57599449157715	
68	294.7024025917053	fix_post	2		12	66.0	2.5	/experiments/Knapen_AOT/AOT_stimuli/rescaled_final/1124_rv.mp4	0.0	311.6938440799713	0.10004115104675293
69	294.8024437427521	fix_pre	0		120	67.0	2.5	/experiments/Knapen_AOT/AOT_stimuli/rescaled_final/1560_rv.mp4	0.0	311.79388523101807	1.0085313320159912
69	295.81097507476807	movie	1		281	67.0	2.5	/experiments/Knapen_AOT/AOT_stimuli/rescaled_final/1560_rv.mp4	0.0	312.80241656303406	2.4919850826263428
69	296.18511605262756	pulse	1	t		67.0	2.5	/experiments/Knapen_AOT/AOT_stimuli/rescaled_final/1560_rv.mp4	0.0	313.17655754089355	
69	297.78448128700256	pulse	1	t		67.0	2.5	/experiments/Knapen_AOT/AOT_stimuli/rescaled_final/1560_rv.mp4	0.0	314.77592277526855	
69	298.3029601573944	fix_post	2		12	67.0	2.5	/experiments/Knapen_AOT/AOT_stimuli/rescaled_final/1560_rv.mp4	0.0	315.2944016456604	0.10005474090576172
70	298.40301489830017	fix_pre	0		118	68.0	2.5	blank	1.0	315.39445638656616	0.9834103584289551
70	299.37872290611267	pulse	0	t		68.0	2.5	blank	1.0	316.37016439437866	
70	299.3864252567291	movie	1		301	68.0	2.5	blank	1.0	316.3778667449951	2.508713960647583
70	300.97882652282715	pulse	1	t		68.0	2.5	blank	1.0	317.97026801109314	
70	301.8951392173767	fix_post	2		12	68.0	2.5	blank	1.0	318.8865807056427	0.10004043579101562
71	301.9951796531677	fix_pre	0		120	69.0	2.5	/experiments/Knapen_AOT/AOT_stimuli/rescaled_final/0349_rv.mp4	0.0	318.9866211414337	1.0085241794586182
71	302.5790379047394	pulse	0	t		69.0	2.5	/experiments/Knapen_AOT/AOT_stimuli/rescaled_final/0349_rv.mp4	0.0	319.57047939300537	
71	303.00370383262634	movie	1		287	69.0	2.5	/experiments/Knapen_AOT/AOT_stimuli/rescaled_final/0349_rv.mp4	0.0	319.99514532089233	2.492074728012085
71	304.1792232990265	pulse	1	t		69.0	2.5	/experiments/Knapen_AOT/AOT_stimuli/rescaled_final/0349_rv.mp4	0.0	321.1706647872925	
71	305.4957785606384	fix_post	2		12	69.0	2.5	/experiments/Knapen_AOT/AOT_stimuli/rescaled_final/0349_rv.mp4	0.0	322.4872200489044	0.09997224807739258
72	305.5957508087158	fix_pre	0		120	70.0	2.5	/experiments/Knapen_AOT/AOT_stimuli/rescaled_final/0388_rv.mp4	0.0	322.5871922969818	1.0085084438323975
72	305.7793366909027	pulse	0	t		70.0	2.5	/experiments/Knapen_AOT/AOT_stimuli/rescaled_final/0388_rv.mp4	0.0	322.7707781791687	
72	306.6042592525482	movie	1		270	70.0	2.5	/experiments/Knapen_AOT/AOT_stimuli/rescaled_final/0388_rv.mp4	0.0	323.5957007408142	2.4919798374176025
72	307.37952613830566	pulse	1	t		70.0	2.5	/experiments/Knapen_AOT/AOT_stimuli/rescaled_final/0388_rv.mp4	0.0	324.37096762657166	
72	308.97978949546814	pulse	1	t		70.0	2.5	/experiments/Knapen_AOT/AOT_stimuli/rescaled_final/0388_rv.mp4	0.0	325.97123098373413	
72	309.0962390899658	fix_post	2		12	70.0	2.5	/experiments/Knapen_AOT/AOT_stimuli/rescaled_final/0388_rv.mp4	0.0	326.0876805782318	0.10005784034729004
73	309.1962969303131	fix_pre	0		120	71.0	2.5	/experiments/Knapen_AOT/AOT_stimuli/rescaled_final/1727_rv.mp4	0.0	326.1877384185791	1.0084896087646484
73	310.20478653907776	movie	1		282	71.0	2.5	/experiments/Knapen_AOT/AOT_stimuli/rescaled_final/1727_rv.mp4	0.0	327.19622802734375	2.492007255554199
73	310.5800886154175	pulse	1	t		71.0	2.5	/experiments/Knapen_AOT/AOT_stimuli/rescaled_final/1727_rv.mp4	0.0	327.5715301036835	
73	312.18025851249695	pulse	1	t		71.0	2.5	/experiments/Knapen_AOT/AOT_stimuli/rescaled_final/1727_rv.mp4	0.0	329.17170000076294	
73	312.69679379463196	fix_post	2		12	71.0	2.5	/experiments/Knapen_AOT/AOT_stimuli/rescaled_final/1727_rv.mp4	0.0	329.68823528289795	0.09999966621398926
74	312.79679346084595	fix_pre	0		119	72.0	2.5	/experiments/Knapen_AOT/AOT_stimuli/rescaled_final/1949_rv.mp4	0.0	329.78823494911194	1.0001285076141357
74	313.780864238739	pulse	0	t		72.0	2.5	/experiments/Knapen_AOT/AOT_stimuli/rescaled_final/1949_rv.mp4	0.0	330.772305727005	
74	313.7969219684601	movie	1		277	72.0	2.5	/experiments/Knapen_AOT/AOT_stimuli/rescaled_final/1949_rv.mp4	0.0	330.7883634567261	2.5004069805145264
74	315.37920570373535	pulse	1	t		72.0	2.5	/experiments/Knapen_AOT/AOT_stimuli/rescaled_final/1949_rv.mp4	0.0	332.37064719200134	
74	316.2973289489746	fix_post	2		12	72.0	2.5	/experiments/Knapen_AOT/AOT_stimuli/rescaled_final/1949_rv.mp4	0.0	333.2887704372406	0.10002017021179199
75	316.3973491191864	fix_pre	0		120	73.0	2.5	/experiments/Knapen_AOT/AOT_stimuli/rescaled_final/0909_fw.mp4	0.0	333.3887906074524	1.0084826946258545
75	316.98099184036255	pulse	0	t		73.0	2.5	/experiments/Knapen_AOT/AOT_stimuli/rescaled_final/0909_fw.mp4	0.0	333.97243332862854	
75	317.40583181381226	movie	1		285	73.0	2.5	/experiments/Knapen_AOT/AOT_stimuli/rescaled_final/0909_fw.mp4	0.0	334.39727330207825	2.492039203643799
75	318.57941484451294	pulse	1	t		73.0	2.5	/experiments/Knapen_AOT/AOT_stimuli/rescaled_final/0909_fw.mp4	0.0	335.57085633277893	
75	319.89787101745605	fix_post	2		12	73.0	2.5	/experiments/Knapen_AOT/AOT_stimuli/rescaled_final/0909_fw.mp4	0.0	336.88931250572205	0.10009551048278809
76	319.99796652793884	fix_pre	0		120	74.0	2.5	/experiments/Knapen_AOT/AOT_stimuli/rescaled_final/2094_rv.mp4	0.0	336.98940801620483	1.0085668563842773
76	320.1814525127411	pulse	0	t		74.0	2.5	/experiments/Knapen_AOT/AOT_stimuli/rescaled_final/2094_rv.mp4	0.0	337.1728940010071	
76	321.0065333843231	movie	1		285	74.0	2.5	/experiments/Knapen_AOT/AOT_stimuli/rescaled_final/2094_rv.mp4	0.0	337.9979748725891	2.492039442062378
76	321.77940344810486	pulse	1	t		74.0	2.5	/experiments/Knapen_AOT/AOT_stimuli/rescaled_final/2094_rv.mp4	0.0	338.77084493637085	
76	323.3800313472748	pulse	1	t		74.0	2.5	/experiments/Knapen_AOT/AOT_stimuli/rescaled_final/2094_rv.mp4	0.0	340.37147283554077	
76	323.4985728263855	fix_post	2		12	74.0	2.5	/experiments/Knapen_AOT/AOT_stimuli/rescaled_final/2094_rv.mp4	0.0	340.4900143146515	0.09983086585998535
77	323.5984036922455	fix_pre	0		120	75.0	2.5	/experiments/Knapen_AOT/AOT_stimuli/rescaled_final/1620_rv.mp4	0.0	340.5898451805115	1.0085105895996094
77	324.6069142818451	movie	1		286	75.0	2.5	/experiments/Knapen_AOT/AOT_stimuli/rescaled_final/1620_rv.mp4	0.0	341.5983557701111	2.492111921310425
77	324.981018781662	pulse	1	t		75.0	2.5	/experiments/Knapen_AOT/AOT_stimuli/rescaled_final/1620_rv.mp4	0.0	341.972460269928	
77	326.58200454711914	pulse	1	t		75.0	2.5	/experiments/Knapen_AOT/AOT_stimuli/rescaled_final/1620_rv.mp4	0.0	343.57344603538513	
77	327.0990262031555	fix_post	2		12	75.0	2.5	/experiments/Knapen_AOT/AOT_stimuli/rescaled_final/1620_rv.mp4	0.0	344.0904676914215	0.09998154640197754
78	327.1990077495575	fix_pre	0		119	76.0	2.5	/experiments/Knapen_AOT/AOT_stimuli/rescaled_final/1344_fw.mp4	0.0	344.1904492378235	1.0001208782196045
78	328.18275785446167	pulse	0	t		76.0	2.5	/experiments/Knapen_AOT/AOT_stimuli/rescaled_final/1344_fw.mp4	0.0	345.17419934272766	
78	328.1991286277771	movie	1		284	76.0	2.5	/experiments/Knapen_AOT/AOT_stimuli/rescaled_final/1344_fw.mp4	0.0	345.1905701160431	2.5003743171691895
78	329.7820324897766	pulse	1	t		76.0	2.5	/experiments/Knapen_AOT/AOT_stimuli/rescaled_final/1344_fw.mp4	0.0	346.7734739780426	
78	330.6995029449463	fix_post	2		12	76.0	2.5	/experiments/Knapen_AOT/AOT_stimuli/rescaled_final/1344_fw.mp4	0.0	347.6909444332123	0.10001683235168457
79	330.799519777298	fix_pre	0		120	77.0	2.5	blank	1.0	347.79096126556396	1.00018310546875
79	331.3832137584686	pulse	0	t		77.0	2.5	blank	1.0	348.3746552467346	
79	331.7997028827667	movie	1		300	77.0	2.5	blank	1.0	348.7911443710327	2.500317096710205
79	332.98347568511963	pulse	1	t		77.0	2.5	blank	1.0	349.9749171733856	
79	334.30001997947693	fix_post	2		12	77.0	2.5	blank	1.0	351.2914614677429	0.1000223159790039
80	334.40004229545593	fix_pre	0		120	78.0	2.5	/experiments/Knapen_AOT/AOT_stimuli/rescaled_final/2095_fw.mp4	0.0	351.3914837837219	1.0084633827209473
80	334.5837230682373	pulse	0	t		78.0	2.5	/experiments/Knapen_AOT/AOT_stimuli/rescaled_final/2095_fw.mp4	0.0	351.5751645565033	
80	335.4085056781769	movie	1		286	78.0	2.5	/experiments/Knapen_AOT/AOT_stimuli/rescaled_final/2095_fw.mp4	0.0	352.39994716644287	2.492109775543213
80	336.1817309856415	pulse	1	t		78.0	2.5	/experiments/Knapen_AOT/AOT_stimuli/rescaled_final/2095_fw.mp4	0.0	353.17317247390747	
80	337.78217697143555	pulse	1	t		78.0	2.5	/experiments/Knapen_AOT/AOT_stimuli/rescaled_final/2095_fw.mp4	0.0	354.77361845970154	
80	337.9006154537201	fix_post	2		12	78.0	2.5	/experiments/Knapen_AOT/AOT_stimuli/rescaled_final/2095_fw.mp4	0.0	354.8920569419861	0.10001349449157715
81	338.00062894821167	fix_pre	0		120	79.0	2.5	/experiments/Knapen_AOT/AOT_stimuli/rescaled_final/0570_rv.mp4	0.0	354.99207043647766	1.0084826946258545
81	339.0091116428375	movie	1		277	79.0	2.5	/experiments/Knapen_AOT/AOT_stimuli/rescaled_final/0570_rv.mp4	0.0	356.0005531311035	2.4919979572296143
81	339.3833658695221	pulse	1	t		79.0	2.5	/experiments/Knapen_AOT/AOT_stimuli/rescaled_final/0570_rv.mp4	0.0	356.3748073577881	
81	340.98278284072876	pulse	1	t		79.0	2.5	/experiments/Knapen_AOT/AOT_stimuli/rescaled_final/0570_rv.mp4	0.0	357.97422432899475	
81	341.50110960006714	fix_post	2		12	79.0	2.5	/experiments/Knapen_AOT/AOT_stimuli/rescaled_final/0570_rv.mp4	0.0	358.49255108833313	0.10002803802490234
82	341.60113763809204	fix_pre	0		119	80.0	2.5	/experiments/Knapen_AOT/AOT_stimuli/rescaled_final/0991_rv.mp4	0.0	358.59257912635803	1.0001442432403564
82	342.58487844467163	pulse	0	t		80.0	2.5	/experiments/Knapen_AOT/AOT_stimuli/rescaled_final/0991_rv.mp4	0.0	359.5763199329376	
82	342.6012818813324	movie	1		286	80.0	2.5	/experiments/Knapen_AOT/AOT_stimuli/rescaled_final/0991_rv.mp4	0.0	359.5927233695984	2.500434160232544
82	344.18358612060547	pulse	1	t		80.0	2.5	/experiments/Knapen_AOT/AOT_stimuli/rescaled_final/0991_rv.mp4	0.0	361.17502760887146	
82	345.10171604156494	fix_post	2		12	80.0	2.5	/experiments/Knapen_AOT/AOT_stimuli/rescaled_final/0991_rv.mp4	0.0	362.09315752983093	0.09998464584350586
83	345.20170068740845	fix_pre	0		120	81.0	2.5	/experiments/Knapen_AOT/AOT_stimuli/rescaled_final/0500_rv.mp4	0.0	362.19314217567444	1.0084922313690186
83	345.7858786582947	pulse	0	t		81.0	2.5	/experiments/Knapen_AOT/AOT_stimuli/rescaled_final/0500_rv.mp4	0.0	362.77732014656067	
83	346.21019291877747	movie	1		284	81.0	2.5	/experiments/Knapen_AOT/AOT_stimuli/rescaled_final/0500_rv.mp4	0.0	363.20163440704346	2.4920101165771484
83	347.3840301036835	pulse	1	t		81.0	2.5	/experiments/Knapen_AOT/AOT_stimuli/rescaled_final/0500_rv.mp4	0.0	364.37547159194946	
83	348.7022030353546	fix_post	2		12	81.0	2.5	/experiments/Knapen_AOT/AOT_stimuli/rescaled_final/0500_rv.mp4	0.0	365.6936445236206	0.09996724128723145
84	348.80217027664185	fix_pre	0		120	82.0	2.5	/experiments/Knapen_AOT/AOT_stimuli/rescaled_final/0725_fw.mp4	0.0	365.79361176490784	1.0085833072662354
84	348.98596930503845	pulse	0	t		82.0	2.5	/experiments/Knapen_AOT/AOT_stimuli/rescaled_final/0725_fw.mp4	0.0	365.97741079330444	
84	349.8107535839081	movie	1		287	82.0	2.5	/experiments/Knapen_AOT/AOT_stimuli/rescaled_final/0725_fw.mp4	0.0	366.8021950721741	2.492039203643799
84	350.58563709259033	pulse	1	t		82.0	2.5	/experiments/Knapen_AOT/AOT_stimuli/rescaled_final/0725_fw.mp4	0.0	367.5770785808563	
84	352.1842472553253	pulse	1	t		82.0	2.5	/experiments/Knapen_AOT/AOT_stimuli/rescaled_final/0725_fw.mp4	0.0	369.1756887435913	
84	352.3027927875519	fix_post	2		12	82.0	2.5	/experiments/Knapen_AOT/AOT_stimuli/rescaled_final/0725_fw.mp4	0.0	369.29423427581787	0.09998297691345215
85	352.40277576446533	fix_pre	0		120	83.0	2.5	blank	1.0	369.3942172527313	1.0001575946807861
85	353.4029333591461	movie	1		300	83.0	2.5	blank	1.0	370.3943748474121	2.5003082752227783
85	353.77898502349854	pulse	1	t		83.0	2.5	blank	1.0	370.7704265117645	
85	355.3796489238739	pulse	1	t		83.0	2.5	blank	1.0	372.3710904121399	
85	355.9032416343689	fix_post	2		12	83.0	2.5	blank	1.0	372.8946831226349	0.10005354881286621
87	356.00329518318176	stim	0		1715					372.99473667144775	14.293827772140503
87	356.97997522354126	pulse	0	t						373.97141671180725	
87	358.5793836116791	pulse	0	t						375.57082509994507	
87	360.1790771484375	pulse	0	t						377.1705186367035	
87	361.77945733070374	pulse	0	t						378.7708988189697	
87	363.37955832481384	pulse	0	t						380.37099981307983	
87	364.9798560142517	pulse	0	t						381.9712975025177	
87	366.58009934425354	pulse	0	t						383.57154083251953	
87	368.1804230213165	pulse	0	t						385.1718645095825	
87	369.780499458313	pulse	0	t						386.771940946579	
