trial_nr	onset	event_type	phase	response	nr_frames	movie_index	movie_duration	movie_file	blank	onset_abs	duration
0	0.14990592002868652	stim	0		79686					24.70114302635193	664.0551841259003
0	664.1970579624176	response	0	space						688.7482950687408	
1	664.205090045929	stim	0		4959					688.7563271522522	41.324755907058716
1	705.5220220088959	pulse	0	t						730.0732591152191	
1	705.5298459529877	stim	1		1717					730.0810830593109	14.308264970779419
1	707.1216959953308	pulse	1	t						731.672933101654	
1	708.7218308448792	pulse	1	t						733.2730679512024	
1	710.3216509819031	pulse	1	t						734.8728880882263	
1	711.9216568470001	pulse	1	t						736.4728939533234	
1	713.5217618942261	pulse	1	t						738.0729990005493	
1	715.1216509342194	pulse	1	t						739.6728880405426	
1	716.7216329574585	pulse	1	t						741.2728700637817	
1	718.3216228485107	pulse	1	t						742.872859954834	
2	719.8381109237671	fix_pre	0		11	0.0	2.5	/experiments/AOT/AOT_stimuli/rescaled_final/1619_rv.mp4	0.0	744.3893480300903	0.09965014457702637
2	719.9216890335083	pulse	0	t		0.0	2.5	/experiments/AOT/AOT_stimuli/rescaled_final/1619_rv.mp4	0.0	744.4729261398315	
2	719.9377610683441	movie	1		239	0.0	2.5	/experiments/AOT/AOT_stimuli/rescaled_final/1619_rv.mp4	0.0	744.4889981746674	2.500795841217041
2	721.5211119651794	pulse	1	t		0.0	2.5	/experiments/AOT/AOT_stimuli/rescaled_final/1619_rv.mp4	0.0	746.0723490715027	
2	722.4385569095612	fix_post	2		12	0.0	2.5	/experiments/AOT/AOT_stimuli/rescaled_final/1619_rv.mp4	0.0	746.9897940158844	0.09955811500549316
3	722.5381150245667	fix_pre	0		120	1.0	2.5	/experiments/AOT/AOT_stimuli/rescaled_final/1840_rv.mp4	0.0	747.0893521308899	1.0000019073486328
3	723.1216979026794	pulse	0	t		1.0	2.5	/experiments/AOT/AOT_stimuli/rescaled_final/1840_rv.mp4	0.0	747.6729350090027	
3	723.5381169319153	movie	1		241	1.0	2.5	/experiments/AOT/AOT_stimuli/rescaled_final/1840_rv.mp4	0.0	748.0893540382385	2.5000860691070557
3	724.7216930389404	pulse	1	t		1.0	2.5	/experiments/AOT/AOT_stimuli/rescaled_final/1840_rv.mp4	0.0	749.2729301452637	
3	726.0382030010223	fix_post	2		12	1.0	2.5	/experiments/AOT/AOT_stimuli/rescaled_final/1840_rv.mp4	0.0	750.5894401073456	0.099945068359375
4	726.1381480693817	fix_pre	0		120	2.0	2.5	/experiments/AOT/AOT_stimuli/rescaled_final/0027_rv.mp4	0.0	750.689385175705	1.000006914138794
4	726.3215808868408	pulse	0	t		2.0	2.5	/experiments/AOT/AOT_stimuli/rescaled_final/0027_rv.mp4	0.0	750.8728179931641	
4	727.1381549835205	movie	1		244	2.0	2.5	/experiments/AOT/AOT_stimuli/rescaled_final/0027_rv.mp4	0.0	751.6893920898438	2.499917984008789
4	727.9218008518219	pulse	1	t		2.0	2.5	/experiments/AOT/AOT_stimuli/rescaled_final/0027_rv.mp4	0.0	752.4730379581451	
4	729.5198578834534	pulse	1	t		2.0	2.5	/experiments/AOT/AOT_stimuli/rescaled_final/0027_rv.mp4	0.0	754.0710949897766	
4	729.6380729675293	fix_post	2		12	2.0	2.5	/experiments/AOT/AOT_stimuli/rescaled_final/0027_rv.mp4	0.0	754.1893100738525	0.10003209114074707
5	729.73810505867	fix_pre	0		120	3.0	2.5	/experiments/AOT/AOT_stimuli/rescaled_final/0852_rv.mp4	0.0	754.2893421649933	1.0001609325408936
5	730.7382659912109	movie	1		242	3.0	2.5	/experiments/AOT/AOT_stimuli/rescaled_final/0852_rv.mp4	0.0	755.2895030975342	2.499788999557495
5	731.1212799549103	pulse	1	t		3.0	2.5	/experiments/AOT/AOT_stimuli/rescaled_final/0852_rv.mp4	0.0	755.6725170612335	
5	732.7215819358826	pulse	1	t		3.0	2.5	/experiments/AOT/AOT_stimuli/rescaled_final/0852_rv.mp4	0.0	757.2728190422058	
5	733.2380549907684	fix_post	2		12	3.0	2.5	/experiments/AOT/AOT_stimuli/rescaled_final/0852_rv.mp4	0.0	757.7892920970917	0.10002684593200684
6	733.3380818367004	fix_pre	0		119	4.0	2.5	/experiments/AOT/AOT_stimuli/rescaled_final/1397_fw.mp4	0.0	757.8893189430237	0.991657018661499
6	734.3216738700867	pulse	0	t		4.0	2.5	/experiments/AOT/AOT_stimuli/rescaled_final/1397_fw.mp4	0.0	758.8729109764099	
6	734.3297388553619	movie	1		243	4.0	2.5	/experiments/AOT/AOT_stimuli/rescaled_final/1397_fw.mp4	0.0	758.8809759616852	2.5078330039978027
6	735.9213099479675	pulse	1	t		4.0	2.5	/experiments/AOT/AOT_stimuli/rescaled_final/1397_fw.mp4	0.0	760.4725470542908	
6	736.8375718593597	fix_post	2		12	4.0	2.5	/experiments/AOT/AOT_stimuli/rescaled_final/1397_fw.mp4	0.0	761.388808965683	0.1005561351776123
7	736.9381279945374	fix_pre	0		120	5.0	2.5	/experiments/AOT/AOT_stimuli/rescaled_final/0650_rv.mp4	0.0	761.4893651008606	0.9998469352722168
7	737.5216159820557	pulse	0	t		5.0	2.5	/experiments/AOT/AOT_stimuli/rescaled_final/0650_rv.mp4	0.0	762.0728530883789	
7	737.9379749298096	movie	1		244	5.0	2.5	/experiments/AOT/AOT_stimuli/rescaled_final/0650_rv.mp4	0.0	762.4892120361328	2.5001189708709717
7	739.1216478347778	pulse	1	t		5.0	2.5	/experiments/AOT/AOT_stimuli/rescaled_final/0650_rv.mp4	0.0	763.6728849411011	
7	740.4380939006805	fix_post	2		12	5.0	2.5	/experiments/AOT/AOT_stimuli/rescaled_final/0650_rv.mp4	0.0	764.9893310070038	0.10000205039978027
8	740.5380959510803	fix_pre	0		120	6.0	2.5	/experiments/AOT/AOT_stimuli/rescaled_final/0603_rv.mp4	0.0	765.0893330574036	0.9998900890350342
8	740.7215428352356	pulse	0	t		6.0	2.5	/experiments/AOT/AOT_stimuli/rescaled_final/0603_rv.mp4	0.0	765.2727799415588	
8	741.5379860401154	movie	1		241	6.0	2.5	/experiments/AOT/AOT_stimuli/rescaled_final/0603_rv.mp4	0.0	766.0892231464386	2.4996860027313232
8	742.32146692276	pulse	1	t		6.0	2.5	/experiments/AOT/AOT_stimuli/rescaled_final/0603_rv.mp4	0.0	766.8727040290833	
8	743.9197909832001	pulse	1	t		6.0	2.5	/experiments/AOT/AOT_stimuli/rescaled_final/0603_rv.mp4	0.0	768.4710280895233	
8	744.0376720428467	fix_post	2		12	6.0	2.5	/experiments/AOT/AOT_stimuli/rescaled_final/0603_rv.mp4	0.0	768.5889091491699	0.10032200813293457
9	744.1379940509796	fix_pre	0		120	7.0	2.5	blank	1.0	768.6892311573029	1.0000278949737549
9	745.1380219459534	movie	1		300	7.0	2.5	blank	1.0	769.6892590522766	2.500063896179199
9	745.5215709209442	pulse	1	t		7.0	2.5	blank	1.0	770.0728080272675	
9	747.1214618682861	pulse	1	t		7.0	2.5	blank	1.0	771.6726989746094	
9	747.6380858421326	fix_post	2		12	7.0	2.5	blank	1.0	772.1893229484558	0.0999300479888916
10	747.7380158901215	fix_pre	0		119	8.0	2.5	/experiments/AOT/AOT_stimuli/rescaled_final/1647_rv.mp4	0.0	772.2892529964447	0.9916610717773438
10	748.7215869426727	pulse	0	t		8.0	2.5	/experiments/AOT/AOT_stimuli/rescaled_final/1647_rv.mp4	0.0	773.272824048996	
10	748.7296769618988	movie	1		244	8.0	2.5	/experiments/AOT/AOT_stimuli/rescaled_final/1647_rv.mp4	0.0	773.280914068222	2.507875919342041
10	750.320986032486	pulse	1	t		8.0	2.5	/experiments/AOT/AOT_stimuli/rescaled_final/1647_rv.mp4	0.0	774.8722231388092	
10	751.2375528812408	fix_post	2		12	8.0	2.5	/experiments/AOT/AOT_stimuli/rescaled_final/1647_rv.mp4	0.0	775.7887899875641	0.10061216354370117
11	751.3381650447845	fix_pre	0		120	9.0	2.5	/experiments/AOT/AOT_stimuli/rescaled_final/0297_fw.mp4	0.0	775.8894021511078	0.9998478889465332
11	751.9210948944092	pulse	0	t		9.0	2.5	/experiments/AOT/AOT_stimuli/rescaled_final/0297_fw.mp4	0.0	776.4723320007324	
11	752.3380129337311	movie	1		244	9.0	2.5	/experiments/AOT/AOT_stimuli/rescaled_final/0297_fw.mp4	0.0	776.8892500400543	2.49993896484375
11	753.5216360092163	pulse	1	t		9.0	2.5	/experiments/AOT/AOT_stimuli/rescaled_final/0297_fw.mp4	0.0	778.0728731155396	
11	754.8379518985748	fix_post	2		12	9.0	2.5	/experiments/AOT/AOT_stimuli/rescaled_final/0297_fw.mp4	0.0	779.3891890048981	0.10002493858337402
12	754.9379768371582	fix_pre	0		120	10.0	2.5	/experiments/AOT/AOT_stimuli/rescaled_final/1644_fw.mp4	0.0	779.4892139434814	1.000049114227295
12	755.1214799880981	pulse	0	t		10.0	2.5	/experiments/AOT/AOT_stimuli/rescaled_final/1644_fw.mp4	0.0	779.6727170944214	
12	755.9380259513855	movie	1		245	10.0	2.5	/experiments/AOT/AOT_stimuli/rescaled_final/1644_fw.mp4	0.0	780.4892630577087	2.499885082244873
12	756.7214839458466	pulse	1	t		10.0	2.5	/experiments/AOT/AOT_stimuli/rescaled_final/1644_fw.mp4	0.0	781.2727210521698	
12	758.3198750019073	pulse	1	t		10.0	2.5	/experiments/AOT/AOT_stimuli/rescaled_final/1644_fw.mp4	0.0	782.8711121082306	
12	758.4379110336304	fix_post	2		12	10.0	2.5	/experiments/AOT/AOT_stimuli/rescaled_final/1644_fw.mp4	0.0	782.9891481399536	0.10002684593200684
13	758.5379378795624	fix_pre	0		120	11.0	2.5	/experiments/AOT/AOT_stimuli/rescaled_final/0136_fw.mp4	0.0	783.0891749858856	1.0000181198120117
13	759.5379559993744	movie	1		243	11.0	2.5	/experiments/AOT/AOT_stimuli/rescaled_final/0136_fw.mp4	0.0	784.0891931056976	2.499976873397827
13	759.921021938324	pulse	1	t		11.0	2.5	/experiments/AOT/AOT_stimuli/rescaled_final/0136_fw.mp4	0.0	784.4722590446472	
13	761.5214259624481	pulse	1	t		11.0	2.5	/experiments/AOT/AOT_stimuli/rescaled_final/0136_fw.mp4	0.0	786.0726630687714	
13	762.0379328727722	fix_post	2		12	11.0	2.5	/experiments/AOT/AOT_stimuli/rescaled_final/0136_fw.mp4	0.0	786.5891699790955	0.1000070571899414
14	762.1379399299622	fix_pre	0		119	12.0	2.5	blank	1.0	786.6891770362854	0.9916379451751709
14	763.1214518547058	pulse	0	t		12.0	2.5	blank	1.0	787.672688961029	
14	763.1295778751373	movie	1		301	12.0	2.5	blank	1.0	787.6808149814606	2.5083611011505127
14	764.7213740348816	pulse	1	t		12.0	2.5	blank	1.0	789.2726111412048	
14	765.6379389762878	fix_post	2		12	12.0	2.5	blank	1.0	790.1891760826111	0.09988188743591309
15	765.7378208637238	fix_pre	0		120	13.0	2.5	/experiments/AOT/AOT_stimuli/rescaled_final/0877_fw.mp4	0.0	790.289057970047	1.000136137008667
15	766.3213548660278	pulse	0	t		13.0	2.5	/experiments/AOT/AOT_stimuli/rescaled_final/0877_fw.mp4	0.0	790.8725919723511	
15	766.7379570007324	movie	1		243	13.0	2.5	/experiments/AOT/AOT_stimuli/rescaled_final/0877_fw.mp4	0.0	791.2891941070557	2.499980926513672
15	767.9216020107269	pulse	1	t		13.0	2.5	/experiments/AOT/AOT_stimuli/rescaled_final/0877_fw.mp4	0.0	792.4728391170502	
15	769.2379379272461	fix_post	2		12	13.0	2.5	/experiments/AOT/AOT_stimuli/rescaled_final/0877_fw.mp4	0.0	793.7891750335693	0.10004806518554688
16	769.3379859924316	fix_pre	0		120	14.0	2.5	/experiments/AOT/AOT_stimuli/rescaled_final/0996_fw.mp4	0.0	793.8892230987549	0.999924898147583
16	769.5213918685913	pulse	0	t		14.0	2.5	/experiments/AOT/AOT_stimuli/rescaled_final/0996_fw.mp4	0.0	794.0726289749146	
16	770.3379108905792	movie	1		243	14.0	2.5	/experiments/AOT/AOT_stimuli/rescaled_final/0996_fw.mp4	0.0	794.8891479969025	2.5000901222229004
16	771.1213550567627	pulse	1	t		14.0	2.5	/experiments/AOT/AOT_stimuli/rescaled_final/0996_fw.mp4	0.0	795.6725921630859	
16	772.7201828956604	pulse	1	t		14.0	2.5	/experiments/AOT/AOT_stimuli/rescaled_final/0996_fw.mp4	0.0	797.2714200019836	
16	772.8380010128021	fix_post	2		12	14.0	2.5	/experiments/AOT/AOT_stimuli/rescaled_final/0996_fw.mp4	0.0	797.3892381191254	0.09989404678344727
17	772.9378950595856	fix_pre	0		120	15.0	2.5	/experiments/AOT/AOT_stimuli/rescaled_final/0254_rv.mp4	0.0	797.4891321659088	0.9999589920043945
17	773.93785405159	movie	1		243	15.0	2.5	/experiments/AOT/AOT_stimuli/rescaled_final/0254_rv.mp4	0.0	798.4890911579132	2.500048875808716
17	774.3209309577942	pulse	1	t		15.0	2.5	/experiments/AOT/AOT_stimuli/rescaled_final/0254_rv.mp4	0.0	798.8721680641174	
17	775.9212739467621	pulse	1	t		15.0	2.5	/experiments/AOT/AOT_stimuli/rescaled_final/0254_rv.mp4	0.0	800.4725110530853	
17	776.4379029273987	fix_post	2		12	15.0	2.5	/experiments/AOT/AOT_stimuli/rescaled_final/0254_rv.mp4	0.0	800.9891400337219	0.09999203681945801
18	776.5378949642181	fix_pre	0		119	16.0	2.5	/experiments/AOT/AOT_stimuli/rescaled_final/1910_rv.mp4	0.0	801.0891320705414	0.991581916809082
18	777.5213060379028	pulse	0	t		16.0	2.5	/experiments/AOT/AOT_stimuli/rescaled_final/1910_rv.mp4	0.0	802.0725431442261	
18	777.5294768810272	movie	1		247	16.0	2.5	/experiments/AOT/AOT_stimuli/rescaled_final/1910_rv.mp4	0.0	802.0807139873505	2.5083789825439453
18	779.1208839416504	pulse	1	t		16.0	2.5	/experiments/AOT/AOT_stimuli/rescaled_final/1910_rv.mp4	0.0	803.6721210479736	
18	780.0378558635712	fix_post	2		12	16.0	2.5	/experiments/AOT/AOT_stimuli/rescaled_final/1910_rv.mp4	0.0	804.5890929698944	0.10004019737243652
19	780.1378960609436	fix_pre	0		120	17.0	2.5	/experiments/AOT/AOT_stimuli/rescaled_final/1685_rv.mp4	0.0	804.6891331672668	1.0000078678131104
19	780.7213990688324	pulse	0	t		17.0	2.5	/experiments/AOT/AOT_stimuli/rescaled_final/1685_rv.mp4	0.0	805.2726361751556	
19	781.1379039287567	movie	1		242	17.0	2.5	/experiments/AOT/AOT_stimuli/rescaled_final/1685_rv.mp4	0.0	805.68914103508	2.4999940395355225
19	782.3214058876038	pulse	1	t		17.0	2.5	/experiments/AOT/AOT_stimuli/rescaled_final/1685_rv.mp4	0.0	806.872642993927	
19	783.6378979682922	fix_post	2		12	17.0	2.5	/experiments/AOT/AOT_stimuli/rescaled_final/1685_rv.mp4	0.0	808.1891350746155	0.09991908073425293
20	783.7378170490265	fix_pre	0		120	18.0	2.5	/experiments/AOT/AOT_stimuli/rescaled_final/0107_rv.mp4	0.0	808.2890541553497	1.0000419616699219
20	783.9212968349457	pulse	0	t		18.0	2.5	/experiments/AOT/AOT_stimuli/rescaled_final/0107_rv.mp4	0.0	808.4725339412689	
20	784.7378590106964	movie	1		243	18.0	2.5	/experiments/AOT/AOT_stimuli/rescaled_final/0107_rv.mp4	0.0	809.2890961170197	2.4999680519104004
20	785.5212800502777	pulse	1	t		18.0	2.5	/experiments/AOT/AOT_stimuli/rescaled_final/0107_rv.mp4	0.0	810.072517156601	
20	787.1197319030762	pulse	1	t		18.0	2.5	/experiments/AOT/AOT_stimuli/rescaled_final/0107_rv.mp4	0.0	811.6709690093994	
20	787.2378270626068	fix_post	2		12	18.0	2.5	/experiments/AOT/AOT_stimuli/rescaled_final/0107_rv.mp4	0.0	811.78906416893	0.10002779960632324
21	787.3378548622131	fix_pre	0		120	19.0	2.5	/experiments/AOT/AOT_stimuli/rescaled_final/1814_rv.mp4	0.0	811.8890919685364	1.000002145767212
21	788.3378570079803	movie	1		243	19.0	2.5	/experiments/AOT/AOT_stimuli/rescaled_final/1814_rv.mp4	0.0	812.8890941143036	2.4999639987945557
21	788.7210309505463	pulse	1	t		19.0	2.5	/experiments/AOT/AOT_stimuli/rescaled_final/1814_rv.mp4	0.0	813.2722680568695	
21	790.3212878704071	pulse	1	t		19.0	2.5	/experiments/AOT/AOT_stimuli/rescaled_final/1814_rv.mp4	0.0	814.8725249767303	
21	790.8378210067749	fix_post	2		12	19.0	2.5	/experiments/AOT/AOT_stimuli/rescaled_final/1814_rv.mp4	0.0	815.3890581130981	0.0999598503112793
22	790.9377808570862	fix_pre	0		119	20.0	2.5	blank	1.0	815.4890179634094	0.9916369915008545
22	791.9213018417358	pulse	0	t		20.0	2.5	blank	1.0	816.4725389480591	
22	791.929417848587	movie	1		301	20.0	2.5	blank	1.0	816.4806549549103	2.5083370208740234
22	793.521271944046	pulse	1	t		20.0	2.5	blank	1.0	818.0725090503693	
22	794.4377548694611	fix_post	2		12	20.0	2.5	blank	1.0	818.9889919757843	0.10004115104675293
23	794.5377960205078	fix_pre	0		120	21.0	2.5	/experiments/AOT/AOT_stimuli/rescaled_final/0667_fw.mp4	0.0	819.089033126831	0.9999630451202393
23	795.1213219165802	pulse	0	t		21.0	2.5	/experiments/AOT/AOT_stimuli/rescaled_final/0667_fw.mp4	0.0	819.6725590229034	
23	795.537759065628	movie	1		242	21.0	2.5	/experiments/AOT/AOT_stimuli/rescaled_final/0667_fw.mp4	0.0	820.0889961719513	2.500515937805176
23	796.7214469909668	pulse	1	t		21.0	2.5	/experiments/AOT/AOT_stimuli/rescaled_final/0667_fw.mp4	0.0	821.27268409729	
23	798.0382750034332	fix_post	2		12	21.0	2.5	/experiments/AOT/AOT_stimuli/rescaled_final/0667_fw.mp4	0.0	822.5895121097565	0.09951901435852051
24	798.1377940177917	fix_pre	0		120	22.0	2.5	/experiments/AOT/AOT_stimuli/rescaled_final/0156_rv.mp4	0.0	822.689031124115	1.000046968460083
24	798.321259021759	pulse	0	t		22.0	2.5	/experiments/AOT/AOT_stimuli/rescaled_final/0156_rv.mp4	0.0	822.8724961280823	
24	799.1378409862518	movie	1		242	22.0	2.5	/experiments/AOT/AOT_stimuli/rescaled_final/0156_rv.mp4	0.0	823.6890780925751	2.4999070167541504
24	799.9212939739227	pulse	1	t		22.0	2.5	/experiments/AOT/AOT_stimuli/rescaled_final/0156_rv.mp4	0.0	824.472531080246	
24	801.5197858810425	pulse	1	t		22.0	2.5	/experiments/AOT/AOT_stimuli/rescaled_final/0156_rv.mp4	0.0	826.0710229873657	
24	801.637748003006	fix_post	2		12	22.0	2.5	/experiments/AOT/AOT_stimuli/rescaled_final/0156_rv.mp4	0.0	826.1889851093292	0.09999585151672363
25	801.7377438545227	fix_pre	0		120	23.0	2.5	/experiments/AOT/AOT_stimuli/rescaled_final/1589_rv.mp4	0.0	826.288980960846	0.9999961853027344
25	802.7377400398254	movie	1		243	23.0	2.5	/experiments/AOT/AOT_stimuli/rescaled_final/1589_rv.mp4	0.0	827.2889771461487	2.5001749992370605
25	803.1224038600922	pulse	1	t		23.0	2.5	/experiments/AOT/AOT_stimuli/rescaled_final/1589_rv.mp4	0.0	827.6736409664154	
25	804.7211680412292	pulse	1	t		23.0	2.5	/experiments/AOT/AOT_stimuli/rescaled_final/1589_rv.mp4	0.0	829.2724051475525	
25	805.2379150390625	fix_post	2		12	23.0	2.5	/experiments/AOT/AOT_stimuli/rescaled_final/1589_rv.mp4	0.0	829.7891521453857	0.09981489181518555
26	805.3377299308777	fix_pre	0		119	24.0	2.5	/experiments/AOT/AOT_stimuli/rescaled_final/1079_rv.mp4	0.0	829.8889670372009	0.9917120933532715
26	806.3213858604431	pulse	0	t		24.0	2.5	/experiments/AOT/AOT_stimuli/rescaled_final/1079_rv.mp4	0.0	830.8726229667664	
26	806.329442024231	movie	1		245	24.0	2.5	/experiments/AOT/AOT_stimuli/rescaled_final/1079_rv.mp4	0.0	830.8806791305542	2.5080068111419678
26	807.9210748672485	pulse	1	t		24.0	2.5	/experiments/AOT/AOT_stimuli/rescaled_final/1079_rv.mp4	0.0	832.4723119735718	
26	808.8374488353729	fix_post	2		12	24.0	2.5	/experiments/AOT/AOT_stimuli/rescaled_final/1079_rv.mp4	0.0	833.3886859416962	0.1004481315612793
27	808.9378969669342	fix_pre	0		120	25.0	2.5	/experiments/AOT/AOT_stimuli/rescaled_final/1202_rv.mp4	0.0	833.4891340732574	1.0000650882720947
27	809.5214450359344	pulse	0	t		25.0	2.5	/experiments/AOT/AOT_stimuli/rescaled_final/1202_rv.mp4	0.0	834.0726821422577	
27	809.9379620552063	movie	1		243	25.0	2.5	/experiments/AOT/AOT_stimuli/rescaled_final/1202_rv.mp4	0.0	834.4891991615295	2.500208854675293
27	811.1213269233704	pulse	1	t		25.0	2.5	/experiments/AOT/AOT_stimuli/rescaled_final/1202_rv.mp4	0.0	835.6725640296936	
27	812.4381709098816	fix_post	2		12	25.0	2.5	/experiments/AOT/AOT_stimuli/rescaled_final/1202_rv.mp4	0.0	836.9894080162048	0.09953093528747559
28	812.5377018451691	fix_pre	0		120	26.0	2.5	/experiments/AOT/AOT_stimuli/rescaled_final/2139_rv.mp4	0.0	837.0889389514923	1.0000100135803223
28	812.7212219238281	pulse	0	t		26.0	2.5	/experiments/AOT/AOT_stimuli/rescaled_final/2139_rv.mp4	0.0	837.2724590301514	
28	813.5377118587494	movie	1		243	26.0	2.5	/experiments/AOT/AOT_stimuli/rescaled_final/2139_rv.mp4	0.0	838.0889489650726	2.4999279975891113
28	814.3212139606476	pulse	1	t		26.0	2.5	/experiments/AOT/AOT_stimuli/rescaled_final/2139_rv.mp4	0.0	838.8724510669708	
28	815.9195828437805	pulse	1	t		26.0	2.5	/experiments/AOT/AOT_stimuli/rescaled_final/2139_rv.mp4	0.0	840.4708199501038	
28	816.0376398563385	fix_post	2		12	26.0	2.5	/experiments/AOT/AOT_stimuli/rescaled_final/2139_rv.mp4	0.0	840.5888769626617	0.10004901885986328
29	816.1376888751984	fix_pre	0		120	27.0	2.5	/experiments/AOT/AOT_stimuli/rescaled_final/1093_rv.mp4	0.0	840.6889259815216	0.9999961853027344
29	817.1376850605011	movie	1		243	27.0	2.5	/experiments/AOT/AOT_stimuli/rescaled_final/1093_rv.mp4	0.0	841.6889221668243	2.4999659061431885
29	817.5206580162048	pulse	1	t		27.0	2.5	/experiments/AOT/AOT_stimuli/rescaled_final/1093_rv.mp4	0.0	842.0718951225281	
29	819.1210930347443	pulse	1	t		27.0	2.5	/experiments/AOT/AOT_stimuli/rescaled_final/1093_rv.mp4	0.0	843.6723301410675	
29	819.6376509666443	fix_post	2		12	27.0	2.5	/experiments/AOT/AOT_stimuli/rescaled_final/1093_rv.mp4	0.0	844.1888880729675	0.09991693496704102
30	819.7375679016113	fix_pre	0		119	28.0	2.5	blank	1.0	844.2888050079346	0.991732120513916
30	820.7211630344391	pulse	0	t		28.0	2.5	blank	1.0	845.2724001407623	
30	820.7293000221252	movie	1		301	28.0	2.5	blank	1.0	845.2805371284485	2.508342981338501
30	822.3211438655853	pulse	1	t		28.0	2.5	blank	1.0	846.8723809719086	
30	823.2376430034637	fix_post	2		12	28.0	2.5	blank	1.0	847.788880109787	0.0996558666229248
31	823.3372988700867	fix_pre	0		120	29.0	2.5	/experiments/AOT/AOT_stimuli/rescaled_final/2139_fw.mp4	0.0	847.8885359764099	1.00030517578125
31	823.9211239814758	pulse	0	t		29.0	2.5	/experiments/AOT/AOT_stimuli/rescaled_final/2139_fw.mp4	0.0	848.4723610877991	
31	824.3376040458679	movie	1		243	29.0	2.5	/experiments/AOT/AOT_stimuli/rescaled_final/2139_fw.mp4	0.0	848.8888411521912	2.500025987625122
31	825.52126288414	pulse	1	t		29.0	2.5	/experiments/AOT/AOT_stimuli/rescaled_final/2139_fw.mp4	0.0	850.0724999904633	
31	826.837630033493	fix_post	2		12	29.0	2.5	/experiments/AOT/AOT_stimuli/rescaled_final/2139_fw.mp4	0.0	851.3888671398163	0.09997701644897461
32	826.937607049942	fix_pre	0		120	30.0	2.5	/experiments/AOT/AOT_stimuli/rescaled_final/1651_rv.mp4	0.0	851.4888441562653	0.9999868869781494
32	827.1210670471191	pulse	0	t		30.0	2.5	/experiments/AOT/AOT_stimuli/rescaled_final/1651_rv.mp4	0.0	851.6723041534424	
32	827.9375939369202	movie	1		243	30.0	2.5	/experiments/AOT/AOT_stimuli/rescaled_final/1651_rv.mp4	0.0	852.4888310432434	2.5000579357147217
32	828.7211489677429	pulse	1	t		30.0	2.5	/experiments/AOT/AOT_stimuli/rescaled_final/1651_rv.mp4	0.0	853.2723860740662	
32	830.3195078372955	pulse	1	t		30.0	2.5	/experiments/AOT/AOT_stimuli/rescaled_final/1651_rv.mp4	0.0	854.8707449436188	
32	830.4376518726349	fix_post	2		12	30.0	2.5	/experiments/AOT/AOT_stimuli/rescaled_final/1651_rv.mp4	0.0	854.9888889789581	0.09997415542602539
33	830.5376260280609	fix_pre	0		120	31.0	2.5	/experiments/AOT/AOT_stimuli/rescaled_final/0470_fw.mp4	0.0	855.0888631343842	0.9999740123748779
33	831.5376000404358	movie	1		243	31.0	2.5	/experiments/AOT/AOT_stimuli/rescaled_final/0470_fw.mp4	0.0	856.088837146759	2.5000059604644775
33	831.9223539829254	pulse	1	t		31.0	2.5	/experiments/AOT/AOT_stimuli/rescaled_final/0470_fw.mp4	0.0	856.4735910892487	
33	833.521057844162	pulse	1	t		31.0	2.5	/experiments/AOT/AOT_stimuli/rescaled_final/0470_fw.mp4	0.0	858.0722949504852	
33	834.0376060009003	fix_post	2		12	31.0	2.5	/experiments/AOT/AOT_stimuli/rescaled_final/0470_fw.mp4	0.0	858.5888431072235	0.0999598503112793
34	834.1375658512115	fix_pre	0		119	32.0	2.5	/experiments/AOT/AOT_stimuli/rescaled_final/0043_fw.mp4	0.0	858.6888029575348	0.9916760921478271
34	835.1210420131683	pulse	0	t		32.0	2.5	/experiments/AOT/AOT_stimuli/rescaled_final/0043_fw.mp4	0.0	859.6722791194916	
34	835.1292419433594	movie	1		246	32.0	2.5	/experiments/AOT/AOT_stimuli/rescaled_final/0043_fw.mp4	0.0	859.6804790496826	2.5079119205474854
34	836.7207188606262	pulse	1	t		32.0	2.5	/experiments/AOT/AOT_stimuli/rescaled_final/0043_fw.mp4	0.0	861.2719559669495	
34	837.6371538639069	fix_post	2		12	32.0	2.5	/experiments/AOT/AOT_stimuli/rescaled_final/0043_fw.mp4	0.0	862.1883909702301	0.10048198699951172
35	837.7376358509064	fix_pre	0		120	33.0	2.5	/experiments/AOT/AOT_stimuli/rescaled_final/1918_rv.mp4	0.0	862.2888729572296	0.999913215637207
35	838.3209788799286	pulse	0	t		33.0	2.5	/experiments/AOT/AOT_stimuli/rescaled_final/1918_rv.mp4	0.0	862.8722159862518	
35	838.7375490665436	movie	1		242	33.0	2.5	/experiments/AOT/AOT_stimuli/rescaled_final/1918_rv.mp4	0.0	863.2887861728668	2.500074863433838
35	839.9211449623108	pulse	1	t		33.0	2.5	/experiments/AOT/AOT_stimuli/rescaled_final/1918_rv.mp4	0.0	864.472382068634	
35	841.2376239299774	fix_post	2		12	33.0	2.5	/experiments/AOT/AOT_stimuli/rescaled_final/1918_rv.mp4	0.0	865.7888610363007	0.0999150276184082
36	841.3375389575958	fix_pre	0		120	34.0	2.5	/experiments/AOT/AOT_stimuli/rescaled_final/2114_fw.mp4	0.0	865.8887760639191	1.0001258850097656
36	841.5209949016571	pulse	0	t		34.0	2.5	/experiments/AOT/AOT_stimuli/rescaled_final/2114_fw.mp4	0.0	866.0722320079803	
36	842.3376648426056	movie	1		246	34.0	2.5	/experiments/AOT/AOT_stimuli/rescaled_final/2114_fw.mp4	0.0	866.8889019489288	2.49955415725708
36	843.1209878921509	pulse	1	t		34.0	2.5	/experiments/AOT/AOT_stimuli/rescaled_final/2114_fw.mp4	0.0	867.6722249984741	
36	844.7169768810272	pulse	1	t		34.0	2.5	/experiments/AOT/AOT_stimuli/rescaled_final/2114_fw.mp4	0.0	869.2682139873505	
36	844.8372189998627	fix_post	2		12	34.0	2.5	/experiments/AOT/AOT_stimuli/rescaled_final/2114_fw.mp4	0.0	869.3884561061859	0.09986686706542969
37	844.9370858669281	fix_pre	0		120	35.0	2.5	blank	1.0	869.4883229732513	1.0000951290130615
37	845.9371809959412	movie	1		300	35.0	2.5	blank	1.0	870.4884181022644	2.500382900238037
37	846.3210339546204	pulse	1	t		35.0	2.5	blank	1.0	870.8722710609436	
37	847.9209890365601	pulse	1	t		35.0	2.5	blank	1.0	872.4722261428833	
37	848.4375638961792	fix_post	2		12	35.0	2.5	blank	1.0	872.9888010025024	0.10000801086425781
38	848.5375719070435	fix_pre	0		119	36.0	2.5	/experiments/AOT/AOT_stimuli/rescaled_final/1028_fw.mp4	0.0	873.0888090133667	0.9916689395904541
38	849.5210218429565	pulse	0	t		36.0	2.5	/experiments/AOT/AOT_stimuli/rescaled_final/1028_fw.mp4	0.0	874.0722589492798	
38	849.5292408466339	movie	1		249	36.0	2.5	/experiments/AOT/AOT_stimuli/rescaled_final/1028_fw.mp4	0.0	874.0804779529572	2.50828218460083
38	851.1203830242157	pulse	1	t		36.0	2.5	/experiments/AOT/AOT_stimuli/rescaled_final/1028_fw.mp4	0.0	875.6716201305389	
38	852.0375230312347	fix_post	2		12	36.0	2.5	/experiments/AOT/AOT_stimuli/rescaled_final/1028_fw.mp4	0.0	876.588760137558	0.09999990463256836
39	852.1375229358673	fix_pre	0		120	37.0	2.5	/experiments/AOT/AOT_stimuli/rescaled_final/1046_fw.mp4	0.0	876.6887600421906	1.0000240802764893
39	852.7222728729248	pulse	0	t		37.0	2.5	/experiments/AOT/AOT_stimuli/rescaled_final/1046_fw.mp4	0.0	877.273509979248	
39	853.1375470161438	movie	1		242	37.0	2.5	/experiments/AOT/AOT_stimuli/rescaled_final/1046_fw.mp4	0.0	877.688784122467	2.499457836151123
39	854.3210809230804	pulse	1	t		37.0	2.5	/experiments/AOT/AOT_stimuli/rescaled_final/1046_fw.mp4	0.0	878.8723180294037	
39	855.6370048522949	fix_post	2		12	37.0	2.5	/experiments/AOT/AOT_stimuli/rescaled_final/1046_fw.mp4	0.0	880.1882419586182	0.10050821304321289
40	855.7375130653381	fix_pre	0		120	38.0	2.5	/experiments/AOT/AOT_stimuli/rescaled_final/1697_rv.mp4	0.0	880.2887501716614	0.9999067783355713
40	855.921012878418	pulse	0	t		38.0	2.5	/experiments/AOT/AOT_stimuli/rescaled_final/1697_rv.mp4	0.0	880.4722499847412	
40	856.7374198436737	movie	1		242	38.0	2.5	/experiments/AOT/AOT_stimuli/rescaled_final/1697_rv.mp4	0.0	881.288656949997	2.4996650218963623
40	857.5211360454559	pulse	1	t		38.0	2.5	/experiments/AOT/AOT_stimuli/rescaled_final/1697_rv.mp4	0.0	882.0723731517792	
40	859.1194498538971	pulse	1	t		38.0	2.5	/experiments/AOT/AOT_stimuli/rescaled_final/1697_rv.mp4	0.0	883.6706869602203	
40	859.2370848655701	fix_post	2		12	38.0	2.5	/experiments/AOT/AOT_stimuli/rescaled_final/1697_rv.mp4	0.0	883.7883219718933	0.10042715072631836
41	859.3375120162964	fix_pre	0		120	39.0	2.5	/experiments/AOT/AOT_stimuli/rescaled_final/1743_fw.mp4	0.0	883.8887491226196	0.9999840259552002
41	860.3374960422516	movie	1		243	39.0	2.5	/experiments/AOT/AOT_stimuli/rescaled_final/1743_fw.mp4	0.0	884.8887331485748	2.499908924102783
41	860.7218949794769	pulse	1	t		39.0	2.5	/experiments/AOT/AOT_stimuli/rescaled_final/1743_fw.mp4	0.0	885.2731320858002	
41	862.3209309577942	pulse	1	t		39.0	2.5	/experiments/AOT/AOT_stimuli/rescaled_final/1743_fw.mp4	0.0	886.8721680641174	
41	862.8374049663544	fix_post	2		12	39.0	2.5	/experiments/AOT/AOT_stimuli/rescaled_final/1743_fw.mp4	0.0	887.3886420726776	0.10002899169921875
42	862.9374339580536	fix_pre	0		119	40.0	2.5	blank	1.0	887.4886710643768	0.9912550449371338
42	863.9204859733582	pulse	0	t		40.0	2.5	blank	1.0	888.4717230796814	
42	863.9286890029907	movie	1		301	40.0	2.5	blank	1.0	888.479926109314	2.5087080001831055
42	865.5211520195007	pulse	1	t		40.0	2.5	blank	1.0	890.072389125824	
42	866.4373970031738	fix_post	2		12	40.0	2.5	blank	1.0	890.9886341094971	0.09999895095825195
43	866.5373959541321	fix_pre	0		120	41.0	2.5	/experiments/AOT/AOT_stimuli/rescaled_final/1099_rv.mp4	0.0	891.0886330604553	1.0000619888305664
43	867.1210060119629	pulse	0	t		41.0	2.5	/experiments/AOT/AOT_stimuli/rescaled_final/1099_rv.mp4	0.0	891.6722431182861	
43	867.5374579429626	movie	1		242	41.0	2.5	/experiments/AOT/AOT_stimuli/rescaled_final/1099_rv.mp4	0.0	892.0886950492859	2.49953293800354
43	868.7209289073944	pulse	1	t		41.0	2.5	/experiments/AOT/AOT_stimuli/rescaled_final/1099_rv.mp4	0.0	893.2721660137177	
43	870.0369908809662	fix_post	2		12	41.0	2.5	/experiments/AOT/AOT_stimuli/rescaled_final/1099_rv.mp4	0.0	894.5882279872894	0.1004030704498291
44	870.137393951416	fix_pre	0		120	42.0	2.5	/experiments/AOT/AOT_stimuli/rescaled_final/0136_rv.mp4	0.0	894.6886310577393	0.9999330043792725
44	870.3209419250488	pulse	0	t		42.0	2.5	/experiments/AOT/AOT_stimuli/rescaled_final/0136_rv.mp4	0.0	894.8721790313721	
44	871.1373269557953	movie	1		243	42.0	2.5	/experiments/AOT/AOT_stimuli/rescaled_final/0136_rv.mp4	0.0	895.6885640621185	2.499631881713867
44	871.9208099842072	pulse	1	t		42.0	2.5	/experiments/AOT/AOT_stimuli/rescaled_final/0136_rv.mp4	0.0	896.4720470905304	
44	873.5201358795166	pulse	1	t		42.0	2.5	/experiments/AOT/AOT_stimuli/rescaled_final/0136_rv.mp4	0.0	898.0713729858398	
44	873.6369588375092	fix_post	2		12	42.0	2.5	/experiments/AOT/AOT_stimuli/rescaled_final/0136_rv.mp4	0.0	898.1881959438324	0.10034418106079102
45	873.73730301857	fix_pre	0		120	43.0	2.5	/experiments/AOT/AOT_stimuli/rescaled_final/1687_rv.mp4	0.0	898.2885401248932	0.9996428489685059
45	874.7369458675385	movie	1		245	43.0	2.5	/experiments/AOT/AOT_stimuli/rescaled_final/1687_rv.mp4	0.0	899.2881829738617	2.5003621578216553
45	875.1204118728638	pulse	1	t		43.0	2.5	/experiments/AOT/AOT_stimuli/rescaled_final/1687_rv.mp4	0.0	899.671648979187	
45	876.7208518981934	pulse	1	t		43.0	2.5	/experiments/AOT/AOT_stimuli/rescaled_final/1687_rv.mp4	0.0	901.2720890045166	
45	877.2373080253601	fix_post	2		12	43.0	2.5	/experiments/AOT/AOT_stimuli/rescaled_final/1687_rv.mp4	0.0	901.7885451316833	0.10008883476257324
46	877.3373968601227	fix_pre	0		119	44.0	2.5	/experiments/AOT/AOT_stimuli/rescaled_final/1301_rv.mp4	0.0	901.8886339664459	0.991657018661499
46	878.3208379745483	pulse	0	t		44.0	2.5	/experiments/AOT/AOT_stimuli/rescaled_final/1301_rv.mp4	0.0	902.8720750808716	
46	878.3290538787842	movie	1		245	44.0	2.5	/experiments/AOT/AOT_stimuli/rescaled_final/1301_rv.mp4	0.0	902.8802909851074	2.508294105529785
46	879.9206738471985	pulse	1	t		44.0	2.5	/experiments/AOT/AOT_stimuli/rescaled_final/1301_rv.mp4	0.0	904.4719109535217	
46	880.837347984314	fix_post	2		12	44.0	2.5	/experiments/AOT/AOT_stimuli/rescaled_final/1301_rv.mp4	0.0	905.3885850906372	0.09993791580200195
47	880.937285900116	fix_pre	0		120	45.0	2.5	/experiments/AOT/AOT_stimuli/rescaled_final/1619_fw.mp4	0.0	905.4885230064392	1.000087022781372
47	881.5208599567413	pulse	0	t		45.0	2.5	/experiments/AOT/AOT_stimuli/rescaled_final/1619_fw.mp4	0.0	906.0720970630646	
47	881.9373729228973	movie	1		244	45.0	2.5	/experiments/AOT/AOT_stimuli/rescaled_final/1619_fw.mp4	0.0	906.4886100292206	2.4994869232177734
47	883.1209330558777	pulse	1	t		45.0	2.5	/experiments/AOT/AOT_stimuli/rescaled_final/1619_fw.mp4	0.0	907.6721701622009	
47	884.4368598461151	fix_post	2		12	45.0	2.5	/experiments/AOT/AOT_stimuli/rescaled_final/1619_fw.mp4	0.0	908.9880969524384	0.10049915313720703
48	884.5373589992523	fix_pre	0		120	46.0	2.5	/experiments/AOT/AOT_stimuli/rescaled_final/0313_fw.mp4	0.0	909.0885961055756	0.9999589920043945
48	884.7208399772644	pulse	0	t		46.0	2.5	/experiments/AOT/AOT_stimuli/rescaled_final/0313_fw.mp4	0.0	909.2720770835876	
48	885.5373179912567	movie	1		243	46.0	2.5	/experiments/AOT/AOT_stimuli/rescaled_final/0313_fw.mp4	0.0	910.08855509758	2.4995570182800293
48	886.3208329677582	pulse	1	t		46.0	2.5	/experiments/AOT/AOT_stimuli/rescaled_final/0313_fw.mp4	0.0	910.8720700740814	
48	887.9193620681763	pulse	1	t		46.0	2.5	/experiments/AOT/AOT_stimuli/rescaled_final/0313_fw.mp4	0.0	912.4705991744995	
48	888.0368750095367	fix_post	2		12	46.0	2.5	/experiments/AOT/AOT_stimuli/rescaled_final/0313_fw.mp4	0.0	912.58811211586	0.10036587715148926
49	888.1372408866882	fix_pre	0		120	47.0	2.5	/experiments/AOT/AOT_stimuli/rescaled_final/1147_rv.mp4	0.0	912.6884779930115	1.0000360012054443
49	889.1372768878937	movie	1		242	47.0	2.5	/experiments/AOT/AOT_stimuli/rescaled_final/1147_rv.mp4	0.0	913.6885139942169	2.4995951652526855
49	889.5204899311066	pulse	1	t		47.0	2.5	/experiments/AOT/AOT_stimuli/rescaled_final/1147_rv.mp4	0.0	914.0717270374298	
49	891.1208598613739	pulse	1	t		47.0	2.5	/experiments/AOT/AOT_stimuli/rescaled_final/1147_rv.mp4	0.0	915.6720969676971	
49	891.6368720531464	fix_post	2		12	47.0	2.5	/experiments/AOT/AOT_stimuli/rescaled_final/1147_rv.mp4	0.0	916.1881091594696	0.10042285919189453
50	891.7372949123383	fix_pre	0		119	48.0	2.5	/experiments/AOT/AOT_stimuli/rescaled_final/1814_fw.mp4	0.0	916.2885320186615	0.9916801452636719
50	892.7208280563354	pulse	0	t		48.0	2.5	/experiments/AOT/AOT_stimuli/rescaled_final/1814_fw.mp4	0.0	917.2720651626587	
50	892.7289750576019	movie	1		244	48.0	2.5	/experiments/AOT/AOT_stimuli/rescaled_final/1814_fw.mp4	0.0	917.2802121639252	2.507877826690674
50	894.3219649791718	pulse	1	t		48.0	2.5	/experiments/AOT/AOT_stimuli/rescaled_final/1814_fw.mp4	0.0	918.873202085495	
50	895.2368528842926	fix_post	2		12	48.0	2.5	/experiments/AOT/AOT_stimuli/rescaled_final/1814_fw.mp4	0.0	919.7880899906158	0.1004481315612793
51	895.3373010158539	fix_pre	0		120	49.0	2.5	blank	1.0	919.8885381221771	0.9995508193969727
51	895.9209458827972	pulse	0	t		49.0	2.5	blank	1.0	920.4721829891205	
51	896.3368518352509	movie	1		300	49.0	2.5	blank	1.0	920.8880889415741	2.5004630088806152
51	897.5208399295807	pulse	1	t		49.0	2.5	blank	1.0	922.0720770359039	
51	898.8373148441315	fix_post	2		12	49.0	2.5	blank	1.0	923.3885519504547	0.09998416900634766
52	898.9372990131378	fix_pre	0		120	50.0	2.5	/experiments/AOT/AOT_stimuli/rescaled_final/0872_rv.mp4	0.0	923.4885361194611	0.999971866607666
52	899.1208229064941	pulse	0	t		50.0	2.5	/experiments/AOT/AOT_stimuli/rescaled_final/0872_rv.mp4	0.0	923.6720600128174	
52	899.9372708797455	movie	1		244	50.0	2.5	/experiments/AOT/AOT_stimuli/rescaled_final/0872_rv.mp4	0.0	924.4885079860687	2.49991512298584
52	900.720752954483	pulse	1	t		50.0	2.5	/experiments/AOT/AOT_stimuli/rescaled_final/0872_rv.mp4	0.0	925.2719900608063	
52	902.3209228515625	pulse	1	t		50.0	2.5	/experiments/AOT/AOT_stimuli/rescaled_final/0872_rv.mp4	0.0	926.8721599578857	
52	902.4371860027313	fix_post	2		12	50.0	2.5	/experiments/AOT/AOT_stimuli/rescaled_final/0872_rv.mp4	0.0	926.9884231090546	0.10004806518554688
53	902.5372340679169	fix_pre	0		120	51.0	2.5	/experiments/AOT/AOT_stimuli/rescaled_final/1664_rv.mp4	0.0	927.0884711742401	0.9999868869781494
53	903.537220954895	movie	1		245	51.0	2.5	/experiments/AOT/AOT_stimuli/rescaled_final/1664_rv.mp4	0.0	928.0884580612183	2.5000009536743164
53	903.9205029010773	pulse	1	t		51.0	2.5	/experiments/AOT/AOT_stimuli/rescaled_final/1664_rv.mp4	0.0	928.4717400074005	
53	905.5206718444824	pulse	1	t		51.0	2.5	/experiments/AOT/AOT_stimuli/rescaled_final/1664_rv.mp4	0.0	930.0719089508057	
53	906.0372219085693	fix_post	2		12	51.0	2.5	/experiments/AOT/AOT_stimuli/rescaled_final/1664_rv.mp4	0.0	930.5884590148926	0.10002493858337402
54	906.1372468471527	fix_pre	0		119	52.0	2.5	/experiments/AOT/AOT_stimuli/rescaled_final/1687_fw.mp4	0.0	930.688483953476	0.9917011260986328
54	907.1207258701324	pulse	0	t		52.0	2.5	/experiments/AOT/AOT_stimuli/rescaled_final/1687_fw.mp4	0.0	931.6719629764557	
54	907.1289479732513	movie	1		245	52.0	2.5	/experiments/AOT/AOT_stimuli/rescaled_final/1687_fw.mp4	0.0	931.6801850795746	2.5082390308380127
54	908.7203979492188	pulse	1	t		52.0	2.5	/experiments/AOT/AOT_stimuli/rescaled_final/1687_fw.mp4	0.0	933.271635055542	
54	909.6371870040894	fix_post	2		12	52.0	2.5	/experiments/AOT/AOT_stimuli/rescaled_final/1687_fw.mp4	0.0	934.1884241104126	0.10000395774841309
55	909.7371909618378	fix_pre	0		120	53.0	2.5	/experiments/AOT/AOT_stimuli/rescaled_final/0150_rv.mp4	0.0	934.288428068161	0.9999740123748779
55	910.3207378387451	pulse	0	t		53.0	2.5	/experiments/AOT/AOT_stimuli/rescaled_final/0150_rv.mp4	0.0	934.8719749450684	
55	910.7371649742126	movie	1		243	53.0	2.5	/experiments/AOT/AOT_stimuli/rescaled_final/0150_rv.mp4	0.0	935.2884020805359	2.4995739459991455
55	911.9207789897919	pulse	1	t		53.0	2.5	/experiments/AOT/AOT_stimuli/rescaled_final/0150_rv.mp4	0.0	936.4720160961151	
55	913.2367389202118	fix_post	2		12	53.0	2.5	/experiments/AOT/AOT_stimuli/rescaled_final/0150_rv.mp4	0.0	937.787976026535	0.10049295425415039
56	913.3372318744659	fix_pre	0		120	54.0	2.5	blank	1.0	937.8884689807892	1.0000340938568115
56	913.5207300186157	pulse	0	t		54.0	2.5	blank	1.0	938.071967124939	
56	914.3372659683228	movie	1		300	54.0	2.5	blank	1.0	938.888503074646	2.499988079071045
56	915.1206910610199	pulse	1	t		54.0	2.5	blank	1.0	939.6719281673431	
56	916.7207779884338	pulse	1	t		54.0	2.5	blank	1.0	941.2720150947571	
56	916.8372540473938	fix_post	2		12	54.0	2.5	blank	1.0	941.388491153717	0.09992694854736328
57	916.9371809959412	fix_pre	0		120	55.0	2.5	/experiments/AOT/AOT_stimuli/rescaled_final/1840_rv.mp4	0.0	941.4884181022644	0.9999630451202393
57	917.9371440410614	movie	1		244	55.0	2.5	/experiments/AOT/AOT_stimuli/rescaled_final/1840_rv.mp4	0.0	942.4883811473846	2.499778985977173
57	918.3210518360138	pulse	1	t		55.0	2.5	/experiments/AOT/AOT_stimuli/rescaled_final/1840_rv.mp4	0.0	942.872288942337	
57	919.9202518463135	pulse	1	t		55.0	2.5	/experiments/AOT/AOT_stimuli/rescaled_final/1840_rv.mp4	0.0	944.4714889526367	
57	920.4369230270386	fix_post	2		12	55.0	2.5	/experiments/AOT/AOT_stimuli/rescaled_final/1840_rv.mp4	0.0	944.9881601333618	0.10034489631652832
58	920.5372679233551	fix_pre	0		119	56.0	2.5	/experiments/AOT/AOT_stimuli/rescaled_final/0997_rv.mp4	0.0	945.0885050296783	0.9917900562286377
58	921.5205390453339	pulse	0	t		56.0	2.5	/experiments/AOT/AOT_stimuli/rescaled_final/0997_rv.mp4	0.0	946.0717761516571	
58	921.5290579795837	movie	1		246	56.0	2.5	/experiments/AOT/AOT_stimuli/rescaled_final/0997_rv.mp4	0.0	946.080295085907	2.507675886154175
58	923.1218359470367	pulse	1	t		56.0	2.5	/experiments/AOT/AOT_stimuli/rescaled_final/0997_rv.mp4	0.0	947.67307305336	
58	924.0367338657379	fix_post	2		12	56.0	2.5	/experiments/AOT/AOT_stimuli/rescaled_final/0997_rv.mp4	0.0	948.5879709720612	0.10042119026184082
59	924.1371550559998	fix_pre	0		120	57.0	2.5	/experiments/AOT/AOT_stimuli/rescaled_final/0544_fw.mp4	0.0	948.688392162323	1.000065803527832
59	924.7206768989563	pulse	0	t		57.0	2.5	/experiments/AOT/AOT_stimuli/rescaled_final/0544_fw.mp4	0.0	949.2719140052795	
59	925.1372208595276	movie	1		246	57.0	2.5	/experiments/AOT/AOT_stimuli/rescaled_final/0544_fw.mp4	0.0	949.6884579658508	2.499847173690796
59	926.3207230567932	pulse	1	t		57.0	2.5	/experiments/AOT/AOT_stimuli/rescaled_final/0544_fw.mp4	0.0	950.8719601631165	
59	927.6370680332184	fix_post	2		12	57.0	2.5	/experiments/AOT/AOT_stimuli/rescaled_final/0544_fw.mp4	0.0	952.1883051395416	0.10004591941833496
60	927.7371139526367	fix_pre	0		120	58.0	2.5	/experiments/AOT/AOT_stimuli/rescaled_final/1840_fw.mp4	0.0	952.28835105896	1.0001239776611328
60	927.9206440448761	pulse	0	t		58.0	2.5	/experiments/AOT/AOT_stimuli/rescaled_final/1840_fw.mp4	0.0	952.4718811511993	
60	928.7372379302979	movie	1		243	58.0	2.5	/experiments/AOT/AOT_stimuli/rescaled_final/1840_fw.mp4	0.0	953.2884750366211	2.4998350143432617
60	929.5205569267273	pulse	1	t		58.0	2.5	/experiments/AOT/AOT_stimuli/rescaled_final/1840_fw.mp4	0.0	954.0717940330505	
60	931.1189868450165	pulse	1	t		58.0	2.5	/experiments/AOT/AOT_stimuli/rescaled_final/1840_fw.mp4	0.0	955.6702239513397	
60	931.2370729446411	fix_post	2		12	58.0	2.5	/experiments/AOT/AOT_stimuli/rescaled_final/1840_fw.mp4	0.0	955.7883100509644	0.10009098052978516
61	931.3371639251709	fix_pre	0		120	59.0	2.5	/experiments/AOT/AOT_stimuli/rescaled_final/0624_rv.mp4	0.0	955.8884010314941	0.9999549388885498
61	932.3371188640594	movie	1		243	59.0	2.5	/experiments/AOT/AOT_stimuli/rescaled_final/0624_rv.mp4	0.0	956.8883559703827	2.4995830059051514
61	932.7215838432312	pulse	1	t		59.0	2.5	/experiments/AOT/AOT_stimuli/rescaled_final/0624_rv.mp4	0.0	957.2728209495544	
61	934.3205330371857	pulse	1	t		59.0	2.5	/experiments/AOT/AOT_stimuli/rescaled_final/0624_rv.mp4	0.0	958.8717701435089	
61	934.8367018699646	fix_post	2		12	59.0	2.5	/experiments/AOT/AOT_stimuli/rescaled_final/0624_rv.mp4	0.0	959.3879389762878	0.10040497779846191
62	934.9371068477631	fix_pre	0		119	60.0	2.5	/experiments/AOT/AOT_stimuli/rescaled_final/1181_rv.mp4	0.0	959.4883439540863	0.9916250705718994
62	935.9204869270325	pulse	0	t		60.0	2.5	/experiments/AOT/AOT_stimuli/rescaled_final/1181_rv.mp4	0.0	960.4717240333557	
62	935.928731918335	movie	1		243	60.0	2.5	/experiments/AOT/AOT_stimuli/rescaled_final/1181_rv.mp4	0.0	960.4799690246582	2.5083889961242676
62	937.520663022995	pulse	1	t		60.0	2.5	/experiments/AOT/AOT_stimuli/rescaled_final/1181_rv.mp4	0.0	962.0719001293182	
62	938.4371209144592	fix_post	2		12	60.0	2.5	/experiments/AOT/AOT_stimuli/rescaled_final/1181_rv.mp4	0.0	962.9883580207825	0.09995603561401367
63	938.5370769500732	fix_pre	0		120	61.0	2.5	/experiments/AOT/AOT_stimuli/rescaled_final/0650_rv.mp4	0.0	963.0883140563965	1.0000019073486328
63	939.1206328868866	pulse	0	t		61.0	2.5	/experiments/AOT/AOT_stimuli/rescaled_final/0650_rv.mp4	0.0	963.6718699932098	
63	939.5370788574219	movie	1		242	61.0	2.5	/experiments/AOT/AOT_stimuli/rescaled_final/0650_rv.mp4	0.0	964.0883159637451	2.499528169631958
63	940.7207038402557	pulse	1	t		61.0	2.5	/experiments/AOT/AOT_stimuli/rescaled_final/0650_rv.mp4	0.0	965.271940946579	
63	942.0366070270538	fix_post	2		12	61.0	2.5	/experiments/AOT/AOT_stimuli/rescaled_final/0650_rv.mp4	0.0	966.5878441333771	0.1004948616027832
64	942.1371018886566	fix_pre	0		120	62.0	2.5	blank	1.0	966.6883389949799	0.9999599456787109
64	942.3205909729004	pulse	0	t		62.0	2.5	blank	1.0	966.8718280792236	
64	943.1370618343353	movie	1		300	62.0	2.5	blank	1.0	967.6882989406586	2.4999852180480957
64	943.9205360412598	pulse	1	t		62.0	2.5	blank	1.0	968.471773147583	
64	945.5204849243164	pulse	1	t		62.0	2.5	blank	1.0	970.0717220306396	
64	945.6370470523834	fix_post	2		12	62.0	2.5	blank	1.0	970.1882841587067	0.10003781318664551
65	945.7370848655701	fix_pre	0		120	63.0	2.5	/experiments/AOT/AOT_stimuli/rescaled_final/0020_fw.mp4	0.0	970.2883219718933	0.9998900890350342
65	946.7369749546051	movie	1		245	63.0	2.5	/experiments/AOT/AOT_stimuli/rescaled_final/0020_fw.mp4	0.0	971.2882120609283	2.5000360012054443
65	947.1202549934387	pulse	1	t		63.0	2.5	/experiments/AOT/AOT_stimuli/rescaled_final/0020_fw.mp4	0.0	971.671492099762	
65	948.720556974411	pulse	1	t		63.0	2.5	/experiments/AOT/AOT_stimuli/rescaled_final/0020_fw.mp4	0.0	973.2717940807343	
65	949.2370109558105	fix_post	2		12	63.0	2.5	/experiments/AOT/AOT_stimuli/rescaled_final/0020_fw.mp4	0.0	973.7882480621338	0.10006594657897949
66	949.3370769023895	fix_pre	0		119	64.0	2.5	/experiments/AOT/AOT_stimuli/rescaled_final/0292_fw.mp4	0.0	973.8883140087128	0.9915750026702881
66	950.320473909378	pulse	0	t		64.0	2.5	/experiments/AOT/AOT_stimuli/rescaled_final/0292_fw.mp4	0.0	974.8717110157013	
66	950.3286519050598	movie	1		245	64.0	2.5	/experiments/AOT/AOT_stimuli/rescaled_final/0292_fw.mp4	0.0	974.879889011383	2.5083529949188232
66	951.9208989143372	pulse	1	t		64.0	2.5	/experiments/AOT/AOT_stimuli/rescaled_final/0292_fw.mp4	0.0	976.4721360206604	
66	952.8370048999786	fix_post	2		12	64.0	2.5	/experiments/AOT/AOT_stimuli/rescaled_final/0292_fw.mp4	0.0	977.3882420063019	0.10002398490905762
67	952.9370288848877	fix_pre	0		120	65.0	2.5	/experiments/AOT/AOT_stimuli/rescaled_final/0156_fw.mp4	0.0	977.4882659912109	0.9999630451202393
67	953.5205769538879	pulse	0	t		65.0	2.5	/experiments/AOT/AOT_stimuli/rescaled_final/0156_fw.mp4	0.0	978.0718140602112	
67	953.9369919300079	movie	1		243	65.0	2.5	/experiments/AOT/AOT_stimuli/rescaled_final/0156_fw.mp4	0.0	978.4882290363312	2.49957013130188
67	955.1205110549927	pulse	1	t		65.0	2.5	/experiments/AOT/AOT_stimuli/rescaled_final/0156_fw.mp4	0.0	979.6717481613159	
67	956.4365620613098	fix_post	2		12	65.0	2.5	/experiments/AOT/AOT_stimuli/rescaled_final/0156_fw.mp4	0.0	980.987799167633	0.10052180290222168
68	956.537083864212	fix_pre	0		120	66.0	2.5	/experiments/AOT/AOT_stimuli/rescaled_final/1589_fw.mp4	0.0	981.0883209705353	0.999920129776001
68	956.7206070423126	pulse	0	t		66.0	2.5	/experiments/AOT/AOT_stimuli/rescaled_final/1589_fw.mp4	0.0	981.2718441486359	
68	957.537003993988	movie	1		244	66.0	2.5	/experiments/AOT/AOT_stimuli/rescaled_final/1589_fw.mp4	0.0	982.0882411003113	2.4999990463256836
68	958.3204538822174	pulse	1	t		66.0	2.5	/experiments/AOT/AOT_stimuli/rescaled_final/1589_fw.mp4	0.0	982.8716909885406	
68	959.9194228649139	pulse	1	t		66.0	2.5	/experiments/AOT/AOT_stimuli/rescaled_final/1589_fw.mp4	0.0	984.4706599712372	
68	960.0370030403137	fix_post	2		12	66.0	2.5	/experiments/AOT/AOT_stimuli/rescaled_final/1589_fw.mp4	0.0	984.588240146637	0.09951496124267578
69	960.1365180015564	fix_pre	0		120	67.0	2.5	/experiments/AOT/AOT_stimuli/rescaled_final/1802_rv.mp4	0.0	984.6877551078796	1.0004918575286865
69	961.1370098590851	movie	1		243	67.0	2.5	/experiments/AOT/AOT_stimuli/rescaled_final/1802_rv.mp4	0.0	985.6882469654083	2.499890089035034
69	961.5199010372162	pulse	1	t		67.0	2.5	/experiments/AOT/AOT_stimuli/rescaled_final/1802_rv.mp4	0.0	986.0711381435394	
69	963.120395898819	pulse	1	t		67.0	2.5	/experiments/AOT/AOT_stimuli/rescaled_final/1802_rv.mp4	0.0	987.6716330051422	
69	963.6368999481201	fix_post	2		12	67.0	2.5	/experiments/AOT/AOT_stimuli/rescaled_final/1802_rv.mp4	0.0	988.1881370544434	0.1000070571899414
70	963.7369070053101	fix_pre	0		119	68.0	2.5	/experiments/AOT/AOT_stimuli/rescaled_final/1147_fw.mp4	0.0	988.2881441116333	0.9917449951171875
70	964.7204220294952	pulse	0	t		68.0	2.5	/experiments/AOT/AOT_stimuli/rescaled_final/1147_fw.mp4	0.0	989.2716591358185	
70	964.7286520004272	movie	1		243	68.0	2.5	/experiments/AOT/AOT_stimuli/rescaled_final/1147_fw.mp4	0.0	989.2798891067505	2.5083389282226562
70	966.3200209140778	pulse	1	t		68.0	2.5	/experiments/AOT/AOT_stimuli/rescaled_final/1147_fw.mp4	0.0	990.871258020401	
70	967.2369909286499	fix_post	2		12	68.0	2.5	/experiments/AOT/AOT_stimuli/rescaled_final/1147_fw.mp4	0.0	991.7882280349731	0.09999895095825195
71	967.3369898796082	fix_pre	0		120	69.0	2.5	blank	1.0	991.8882269859314	0.9999980926513672
71	967.9204199314117	pulse	0	t		69.0	2.5	blank	1.0	992.471657037735	
71	968.3369879722595	movie	1		300	69.0	2.5	blank	1.0	992.8882250785828	2.499945878982544
71	969.5203959941864	pulse	1	t		69.0	2.5	blank	1.0	994.0716331005096	
71	970.8369338512421	fix_post	2		12	69.0	2.5	blank	1.0	995.3881709575653	0.09997820854187012
72	970.9369120597839	fix_pre	0		120	70.0	2.5	/experiments/AOT/AOT_stimuli/rescaled_final/0020_rv.mp4	0.0	995.4881491661072	1.000025987625122
72	971.1204009056091	pulse	0	t		70.0	2.5	/experiments/AOT/AOT_stimuli/rescaled_final/0020_rv.mp4	0.0	995.6716380119324	
72	971.9369380474091	movie	1		242	70.0	2.5	/experiments/AOT/AOT_stimuli/rescaled_final/0020_rv.mp4	0.0	996.4881751537323	2.499948024749756
72	972.7203569412231	pulse	1	t		70.0	2.5	/experiments/AOT/AOT_stimuli/rescaled_final/0020_rv.mp4	0.0	997.2715940475464	
72	974.3189630508423	pulse	1	t		70.0	2.5	/experiments/AOT/AOT_stimuli/rescaled_final/0020_rv.mp4	0.0	998.8702001571655	
72	974.4368860721588	fix_post	2		12	70.0	2.5	/experiments/AOT/AOT_stimuli/rescaled_final/0020_rv.mp4	0.0	998.988123178482	0.10013580322265625
73	974.5370218753815	fix_pre	0		120	71.0	2.5	/experiments/AOT/AOT_stimuli/rescaled_final/1664_rv.mp4	0.0	999.0882589817047	0.9994699954986572
73	975.5364918708801	movie	1		245	71.0	2.5	/experiments/AOT/AOT_stimuli/rescaled_final/1664_rv.mp4	0.0	1000.0877289772034	2.5003700256347656
73	975.919606924057	pulse	1	t		71.0	2.5	/experiments/AOT/AOT_stimuli/rescaled_final/1664_rv.mp4	0.0	1000.4708440303802	
73	977.520632982254	pulse	1	t		71.0	2.5	/experiments/AOT/AOT_stimuli/rescaled_final/1664_rv.mp4	0.0	1002.0718700885773	
73	978.0368618965149	fix_post	2		12	71.0	2.5	/experiments/AOT/AOT_stimuli/rescaled_final/1664_rv.mp4	0.0	1002.5880990028381	0.09997010231018066
74	978.1368319988251	fix_pre	0		119	72.0	2.5	/experiments/AOT/AOT_stimuli/rescaled_final/0165_rv.mp4	0.0	1002.6880691051483	0.9917550086975098
74	979.1204948425293	pulse	0	t		72.0	2.5	/experiments/AOT/AOT_stimuli/rescaled_final/0165_rv.mp4	0.0	1003.6717319488525	
74	979.1285870075226	movie	1		245	72.0	2.5	/experiments/AOT/AOT_stimuli/rescaled_final/0165_rv.mp4	0.0	1003.6798241138458	2.5083119869232178
74	980.7197999954224	pulse	1	t		72.0	2.5	/experiments/AOT/AOT_stimuli/rescaled_final/0165_rv.mp4	0.0	1005.2710371017456	
74	981.6368989944458	fix_post	2		12	72.0	2.5	/experiments/AOT/AOT_stimuli/rescaled_final/0165_rv.mp4	0.0	1006.188136100769	0.10000395774841309
75	981.7369029521942	fix_pre	0		120	73.0	2.5	/experiments/AOT/AOT_stimuli/rescaled_final/0107_fw.mp4	0.0	1006.2881400585175	0.9996089935302734
75	982.320417881012	pulse	0	t		73.0	2.5	/experiments/AOT/AOT_stimuli/rescaled_final/0107_fw.mp4	0.0	1006.8716549873352	
75	982.7365119457245	movie	1		244	73.0	2.5	/experiments/AOT/AOT_stimuli/rescaled_final/0107_fw.mp4	0.0	1007.2877490520477	2.5003440380096436
75	983.9204490184784	pulse	1	t		73.0	2.5	/experiments/AOT/AOT_stimuli/rescaled_final/0107_fw.mp4	0.0	1008.4716861248016	
75	985.2368559837341	fix_post	2		12	73.0	2.5	/experiments/AOT/AOT_stimuli/rescaled_final/0107_fw.mp4	0.0	1009.7880930900574	0.099945068359375
76	985.3368010520935	fix_pre	0		120	74.0	2.5	/experiments/AOT/AOT_stimuli/rescaled_final/1807_rv.mp4	0.0	1009.8880381584167	1.0000720024108887
76	985.5203149318695	pulse	0	t		74.0	2.5	/experiments/AOT/AOT_stimuli/rescaled_final/1807_rv.mp4	0.0	1010.0715520381927	
76	986.3368730545044	movie	1		243	74.0	2.5	/experiments/AOT/AOT_stimuli/rescaled_final/1807_rv.mp4	0.0	1010.8881101608276	2.499497890472412
76	987.1203348636627	pulse	1	t		74.0	2.5	/experiments/AOT/AOT_stimuli/rescaled_final/1807_rv.mp4	0.0	1011.671571969986	
76	988.7188858985901	pulse	1	t		74.0	2.5	/experiments/AOT/AOT_stimuli/rescaled_final/1807_rv.mp4	0.0	1013.2701230049133	
76	988.8363709449768	fix_post	2		12	74.0	2.5	/experiments/AOT/AOT_stimuli/rescaled_final/1807_rv.mp4	0.0	1013.3876080513	0.10041308403015137
77	988.936784029007	fix_pre	0		120	75.0	2.5	/experiments/AOT/AOT_stimuli/rescaled_final/0222_fw.mp4	0.0	1013.4880211353302	0.9996030330657959
77	989.9363870620728	movie	1		243	75.0	2.5	/experiments/AOT/AOT_stimuli/rescaled_final/0222_fw.mp4	0.0	1014.487624168396	2.5004777908325195
77	990.3200809955597	pulse	1	t		75.0	2.5	/experiments/AOT/AOT_stimuli/rescaled_final/0222_fw.mp4	0.0	1014.8713181018829	
77	991.9202718734741	pulse	1	t		75.0	2.5	/experiments/AOT/AOT_stimuli/rescaled_final/0222_fw.mp4	0.0	1016.4715089797974	
77	992.4368648529053	fix_post	2		12	75.0	2.5	/experiments/AOT/AOT_stimuli/rescaled_final/0222_fw.mp4	0.0	1016.9881019592285	0.09995913505554199
78	992.5368239879608	fix_pre	0		119	76.0	2.5	blank	1.0	1017.0880610942841	0.9916560649871826
78	993.520339012146	pulse	0	t		76.0	2.5	blank	1.0	1018.0715761184692	
78	993.528480052948	movie	1		301	76.0	2.5	blank	1.0	1018.0797171592712	2.5083858966827393
78	995.1203730106354	pulse	1	t		76.0	2.5	blank	1.0	1019.6716101169586	
78	996.0368659496307	fix_post	2		12	76.0	2.5	blank	1.0	1020.588103055954	0.09992694854736328
79	996.1367928981781	fix_pre	0		120	77.0	2.5	/experiments/AOT/AOT_stimuli/rescaled_final/1651_rv.mp4	0.0	1020.6880300045013	1.0000419616699219
79	996.7204949855804	pulse	0	t		77.0	2.5	/experiments/AOT/AOT_stimuli/rescaled_final/1651_rv.mp4	0.0	1021.2717320919037	
79	997.136834859848	movie	1		243	77.0	2.5	/experiments/AOT/AOT_stimuli/rescaled_final/1651_rv.mp4	0.0	1021.6880719661713	2.5001001358032227
79	998.3203840255737	pulse	1	t		77.0	2.5	/experiments/AOT/AOT_stimuli/rescaled_final/1651_rv.mp4	0.0	1022.871621131897	
79	999.6369349956512	fix_post	2		12	77.0	2.5	/experiments/AOT/AOT_stimuli/rescaled_final/1651_rv.mp4	0.0	1024.1881721019745	0.09996485710144043
80	999.7368998527527	fix_pre	0		120	78.0	2.5	/experiments/AOT/AOT_stimuli/rescaled_final/1654_fw.mp4	0.0	1024.288136959076	0.9998800754547119
80	999.9203200340271	pulse	0	t		78.0	2.5	/experiments/AOT/AOT_stimuli/rescaled_final/1654_fw.mp4	0.0	1024.4715571403503	
80	1000.7367799282074	movie	1		244	78.0	2.5	/experiments/AOT/AOT_stimuli/rescaled_final/1654_fw.mp4	0.0	1025.2880170345306	2.499988079071045
80	1001.5204298496246	pulse	1	t		78.0	2.5	/experiments/AOT/AOT_stimuli/rescaled_final/1654_fw.mp4	0.0	1026.0716669559479	
80	1003.1188960075378	pulse	1	t		78.0	2.5	/experiments/AOT/AOT_stimuli/rescaled_final/1654_fw.mp4	0.0	1027.670133113861	
80	1003.2367680072784	fix_post	2		12	78.0	2.5	/experiments/AOT/AOT_stimuli/rescaled_final/1654_fw.mp4	0.0	1027.7880051136017	0.0999598503112793
81	1003.3367278575897	fix_pre	0		120	79.0	2.5	/experiments/AOT/AOT_stimuli/rescaled_final/2114_rv.mp4	0.0	1027.887964963913	1.000075101852417
81	1004.3368029594421	movie	1		245	79.0	2.5	/experiments/AOT/AOT_stimuli/rescaled_final/2114_rv.mp4	0.0	1028.8880400657654	2.4995460510253906
81	1004.7202248573303	pulse	1	t		79.0	2.5	/experiments/AOT/AOT_stimuli/rescaled_final/2114_rv.mp4	0.0	1029.2714619636536	
81	1006.3202638626099	pulse	1	t		79.0	2.5	/experiments/AOT/AOT_stimuli/rescaled_final/2114_rv.mp4	0.0	1030.871500968933	
81	1006.8363490104675	fix_post	2		12	79.0	2.5	/experiments/AOT/AOT_stimuli/rescaled_final/2114_rv.mp4	0.0	1031.3875861167908	0.10042095184326172
82	1006.9367699623108	fix_pre	0		119	80.0	2.5	/experiments/AOT/AOT_stimuli/rescaled_final/0312_fw.mp4	0.0	1031.488007068634	0.9916560649871826
82	1007.9203350543976	pulse	0	t		80.0	2.5	/experiments/AOT/AOT_stimuli/rescaled_final/0312_fw.mp4	0.0	1032.4715721607208	
82	1007.928426027298	movie	1		244	80.0	2.5	/experiments/AOT/AOT_stimuli/rescaled_final/0312_fw.mp4	0.0	1032.4796631336212	2.5078728199005127
82	1009.5202949047089	pulse	1	t		80.0	2.5	/experiments/AOT/AOT_stimuli/rescaled_final/0312_fw.mp4	0.0	1034.071532011032	
82	1010.4362988471985	fix_post	2		12	80.0	2.5	/experiments/AOT/AOT_stimuli/rescaled_final/0312_fw.mp4	0.0	1034.9875359535217	0.10040903091430664
83	1010.5367078781128	fix_pre	0		120	81.0	2.5	/experiments/AOT/AOT_stimuli/rescaled_final/2104_rv.mp4	0.0	1035.087944984436	1.0000700950622559
83	1011.1202788352966	pulse	0	t		81.0	2.5	/experiments/AOT/AOT_stimuli/rescaled_final/2104_rv.mp4	0.0	1035.6715159416199	
83	1011.536777973175	movie	1		243	81.0	2.5	/experiments/AOT/AOT_stimuli/rescaled_final/2104_rv.mp4	0.0	1036.0880150794983	2.4999818801879883
83	1012.7203569412231	pulse	1	t		81.0	2.5	/experiments/AOT/AOT_stimuli/rescaled_final/2104_rv.mp4	0.0	1037.2715940475464	
83	1014.036759853363	fix_post	2		12	81.0	2.5	/experiments/AOT/AOT_stimuli/rescaled_final/2104_rv.mp4	0.0	1038.5879969596863	0.09995913505554199
84	1014.1367189884186	fix_pre	0		120	82.0	2.5	blank	1.0	1038.6879560947418	1.0000638961791992
84	1014.3202638626099	pulse	0	t		82.0	2.5	blank	1.0	1038.871500968933	
84	1015.1367828845978	movie	1		300	82.0	2.5	blank	1.0	1039.688019990921	2.4998350143432617
84	1015.9201428890228	pulse	1	t		82.0	2.5	blank	1.0	1040.471379995346	
84	1017.5202839374542	pulse	1	t		82.0	2.5	blank	1.0	1042.0715210437775	
84	1017.636617898941	fix_post	2		12	82.0	2.5	blank	1.0	1042.1878550052643	0.10000395774841309
85	1017.7366218566895	fix_pre	0		120	83.0	2.5	/experiments/AOT/AOT_stimuli/rescaled_final/1833_rv.mp4	0.0	1042.2878589630127	1.0001490116119385
85	1018.7367708683014	movie	1		243	83.0	2.5	/experiments/AOT/AOT_stimuli/rescaled_final/1833_rv.mp4	0.0	1043.2880079746246	2.4998931884765625
85	1019.1200339794159	pulse	1	t		83.0	2.5	/experiments/AOT/AOT_stimuli/rescaled_final/1833_rv.mp4	0.0	1043.6712710857391	
85	1020.7201459407806	pulse	1	t		83.0	2.5	/experiments/AOT/AOT_stimuli/rescaled_final/1833_rv.mp4	0.0	1045.2713830471039	
85	1021.236664056778	fix_post	2		12	83.0	2.5	/experiments/AOT/AOT_stimuli/rescaled_final/1833_rv.mp4	0.0	1045.7879011631012	0.10004091262817383
87	1021.3367049694061	stim	0		1716					1045.8879420757294	14.299973011016846
87	1022.3201229572296	pulse	0	t						1046.8713600635529	
87	1023.9201619625092	pulse	0	t						1048.4713990688324	
87	1025.5200748443604	pulse	0	t						1050.0713119506836	
87	1027.1202108860016	pulse	0	t						1051.6714479923248	
87	1028.7202129364014	pulse	0	t						1053.2714500427246	
87	1030.3201138973236	pulse	0	t						1054.8713510036469	
87	1031.9197340011597	pulse	0	t						1056.470971107483	
87	1033.5203759670258	pulse	0	t						1058.071613073349	
87	1035.1200659275055	pulse	0	t						1059.6713030338287	
