trial_nr	onset	event_type	phase	response	nr_frames	movie_index	movie_duration	movie_file	blank	onset_abs	duration
0	0.14996600151062012	stim	0		60					23.832098960876465	0.4999411106109619
0	0.6417081356048584	response	0	space						24.323841094970703	
1	0.649907112121582	stim	0		4533					24.332040071487427	37.77430987358093
1	38.42149496078491	pulse	0	t						62.10362792015076	
1	38.424216985702515	stim	1		1717					62.10634994506836	14.308751106262207
1	40.016664028167725	pulse	1	t						63.69879698753357	
1	41.61661410331726	pulse	1	t						65.2987470626831	
1	43.216557025909424	pulse	1	t						66.89868998527527	
1	44.81659507751465	pulse	1	t						68.4987280368805	
1	46.416178941726685	pulse	1	t						70.09831190109253	
1	48.01669192314148	pulse	1	t						71.69882488250732	
1	49.61649513244629	pulse	1	t						73.29862809181213	
1	51.21646595001221	pulse	1	t						74.89859890937805	
2	52.73296809196472	fix_pre	0		11	0.0	2.5	/experiments/aot/R_S_BO_A018_C029_SDR_20190812_SDR_2K_AVC.mp4	0.0	76.41510105133057	0.09177899360656738
2	52.81651210784912	pulse	0	t		0.0	2.5	/experiments/aot/R_S_BO_A018_C029_SDR_20190812_SDR_2K_AVC.mp4	0.0	76.49864506721497	
2	52.82474708557129	movie	1		166	0.0	2.5	/experiments/aot/R_S_BO_A018_C029_SDR_20190812_SDR_2K_AVC.mp4	0.0	76.50688004493713	2.508288860321045
2	54.41658902168274	pulse	1	t		0.0	2.5	/experiments/aot/R_S_BO_A018_C029_SDR_20190812_SDR_2K_AVC.mp4	0.0	78.09872198104858	
2	55.333035945892334	fix_post	2		12	0.0	2.5	/experiments/aot/R_S_BO_A018_C029_SDR_20190812_SDR_2K_AVC.mp4	0.0	79.01516890525818	0.09997916221618652
3	55.43301510810852	fix_pre	0		120	1.0	2.5	/experiments/aot/R_S_fHdEaNT0gA0_35.mp4	0.0	79.11514806747437	0.9999778270721436
3	56.01654505729675	pulse	0	t		1.0	2.5	/experiments/aot/R_S_fHdEaNT0gA0_35.mp4	0.0	79.6986780166626	
3	56.432992935180664	movie	1		300	1.0	2.5	/experiments/aot/R_S_fHdEaNT0gA0_35.mp4	0.0	80.11512589454651	2.500019073486328
3	57.616455078125	pulse	1	t		1.0	2.5	/experiments/aot/R_S_fHdEaNT0gA0_35.mp4	0.0	81.29858803749084	
3	58.93301200866699	fix_post	2		12	1.0	2.5	/experiments/aot/R_S_fHdEaNT0gA0_35.mp4	0.0	82.61514496803284	0.0999441146850586
4	59.03295612335205	fix_pre	0		120	2.0	2.5	/experiments/aot/S_yt-lCb_efvJcdE_5.mp4	0.0	82.7150890827179	1.0001089572906494
4	59.216444969177246	pulse	0	t		2.0	2.5	/experiments/aot/S_yt-lCb_efvJcdE_5.mp4	0.0	82.89857792854309	
4	60.0330650806427	movie	1		300	2.0	2.5	/experiments/aot/S_yt-lCb_efvJcdE_5.mp4	0.0	83.71519804000854	2.4999289512634277
4	60.816429138183594	pulse	1	t		2.0	2.5	/experiments/aot/S_yt-lCb_efvJcdE_5.mp4	0.0	84.49856209754944	
4	62.416489124298096	pulse	1	t		2.0	2.5	/experiments/aot/S_yt-lCb_efvJcdE_5.mp4	0.0	86.09862208366394	
4	62.53299403190613	fix_post	2		12	2.0	2.5	/experiments/aot/S_yt-lCb_efvJcdE_5.mp4	0.0	86.21512699127197	0.10008692741394043
5	62.63308095932007	fix_pre	0		120	3.0	2.5	/experiments/aot/R_S_ILSVRC2015_test_00004002.mp4	0.0	86.31521391868591	0.9999439716339111
5	63.63302493095398	movie	1		300	3.0	2.5	/experiments/aot/R_S_ILSVRC2015_test_00004002.mp4	0.0	87.31515789031982	2.4999401569366455
5	64.01644396781921	pulse	1	t		3.0	2.5	/experiments/aot/R_S_ILSVRC2015_test_00004002.mp4	0.0	87.69857692718506	
5	65.6164391040802	pulse	1	t		3.0	2.5	/experiments/aot/R_S_ILSVRC2015_test_00004002.mp4	0.0	89.29857206344604	
5	66.13296508789062	fix_post	2		12	3.0	2.5	/experiments/aot/R_S_ILSVRC2015_test_00004002.mp4	0.0	89.81509804725647	0.10003304481506348
6	66.23299813270569	fix_pre	0		119	4.0	2.5	/experiments/aot/R_S_ILSVRC2015_train_00584001.mp4	0.0	89.91513109207153	0.9915540218353271
6	67.21652603149414	pulse	0	t		4.0	2.5	/experiments/aot/R_S_ILSVRC2015_train_00584001.mp4	0.0	90.89865899085999	
6	67.22455215454102	movie	1		301	4.0	2.5	/experiments/aot/R_S_ILSVRC2015_train_00584001.mp4	0.0	90.90668511390686	2.508396863937378
6	68.81238412857056	pulse	1	t		4.0	2.5	/experiments/aot/R_S_ILSVRC2015_train_00584001.mp4	0.0	92.4945170879364	
6	69.7329490184784	fix_post	2		12	4.0	2.5	/experiments/aot/R_S_ILSVRC2015_train_00584001.mp4	0.0	93.41508197784424	0.09992408752441406
7	69.83287310600281	fix_pre	0		120	5.0	2.5	blank	1.0	93.51500606536865	1.0000629425048828
7	70.41644096374512	pulse	0	t		5.0	2.5	blank	1.0	94.09857392311096	
7	70.83293604850769	movie	1		300	5.0	2.5	blank	1.0	94.51506900787354	2.5000600814819336
7	72.01635313034058	pulse	1	t		5.0	2.5	blank	1.0	95.69848608970642	
7	73.33299612998962	fix_post	2		12	5.0	2.5	blank	1.0	97.01512908935547	0.09994387626647949
8	73.4329400062561	fix_pre	0		120	6.0	2.5	/experiments/aot/S_yt-Co4dzHwupRM_18.mp4	0.0	97.11507296562195	1.0000560283660889
8	73.6164140701294	pulse	0	t		6.0	2.5	/experiments/aot/S_yt-Co4dzHwupRM_18.mp4	0.0	97.29854702949524	
8	74.43299603462219	movie	1		300	6.0	2.5	/experiments/aot/S_yt-Co4dzHwupRM_18.mp4	0.0	98.11512899398804	2.4999120235443115
8	75.21643114089966	pulse	1	t		6.0	2.5	/experiments/aot/S_yt-Co4dzHwupRM_18.mp4	0.0	98.8985641002655	
8	76.81642413139343	pulse	1	t		6.0	2.5	/experiments/aot/S_yt-Co4dzHwupRM_18.mp4	0.0	100.49855709075928	
8	76.9329080581665	fix_post	2		12	6.0	2.5	/experiments/aot/S_yt-Co4dzHwupRM_18.mp4	0.0	100.61504101753235	0.09993505477905273
9	77.03284311294556	fix_pre	0		120	7.0	2.5	/experiments/aot/R_S_b1-3.mp4	0.0	100.7149760723114	1.0000629425048828
9	78.03290605545044	movie	1		169	7.0	2.5	/experiments/aot/R_S_b1-3.mp4	0.0	101.71503901481628	2.4999358654022217
9	78.41634202003479	pulse	1	t		7.0	2.5	/experiments/aot/R_S_b1-3.mp4	0.0	102.09847497940063	
9	80.01650094985962	pulse	1	t		7.0	2.5	/experiments/aot/R_S_b1-3.mp4	0.0	103.69863390922546	
9	80.53284192085266	fix_post	2		12	7.0	2.5	/experiments/aot/R_S_b1-3.mp4	0.0	104.2149748802185	0.10007905960083008
10	80.63292098045349	fix_pre	0		119	8.0	2.5	/experiments/aot/S__9v_wUywaAA_35.mp4	0.0	104.31505393981934	0.9915530681610107
10	81.61638808250427	pulse	0	t		8.0	2.5	/experiments/aot/S__9v_wUywaAA_35.mp4	0.0	105.29852104187012	
10	81.6244740486145	movie	1		301	8.0	2.5	/experiments/aot/S__9v_wUywaAA_35.mp4	0.0	105.30660700798035	2.508359909057617
10	83.21149897575378	pulse	1	t		8.0	2.5	/experiments/aot/S__9v_wUywaAA_35.mp4	0.0	106.89363193511963	
10	84.13283395767212	fix_post	2		12	8.0	2.5	/experiments/aot/S__9v_wUywaAA_35.mp4	0.0	107.81496691703796	0.10009312629699707
11	84.23292708396912	fix_pre	0		120	9.0	2.5	/experiments/aot/S_ahJft-G235A_122.mp4	0.0	107.91506004333496	0.9998729228973389
11	84.81641507148743	pulse	0	t		9.0	2.5	/experiments/aot/S_ahJft-G235A_122.mp4	0.0	108.49854803085327	
11	85.23280000686646	movie	1		299	9.0	2.5	/experiments/aot/S_ahJft-G235A_122.mp4	0.0	108.9149329662323	2.500054121017456
11	86.4163601398468	pulse	1	t		9.0	2.5	/experiments/aot/S_ahJft-G235A_122.mp4	0.0	110.09849309921265	
11	87.73285412788391	fix_post	2		12	9.0	2.5	/experiments/aot/S_ahJft-G235A_122.mp4	0.0	111.41498708724976	0.0999898910522461
12	87.83284401893616	fix_pre	0		120	10.0	2.5	/experiments/aot/S_ILSVRC2015_train_00549001.mp4	0.0	111.514976978302	0.9999189376831055
12	88.01625299453735	pulse	0	t		10.0	2.5	/experiments/aot/S_ILSVRC2015_train_00549001.mp4	0.0	111.6983859539032	
12	88.83276295661926	movie	1		300	10.0	2.5	/experiments/aot/S_ILSVRC2015_train_00549001.mp4	0.0	112.51489591598511	2.500049114227295
12	89.61636805534363	pulse	1	t		10.0	2.5	/experiments/aot/S_ILSVRC2015_train_00549001.mp4	0.0	113.29850101470947	
12	91.21595311164856	pulse	1	t		10.0	2.5	/experiments/aot/S_ILSVRC2015_train_00549001.mp4	0.0	114.8980860710144	
12	91.33281207084656	fix_post	2		12	10.0	2.5	/experiments/aot/S_ILSVRC2015_train_00549001.mp4	0.0	115.0149450302124	0.10014200210571289
13	91.43295407295227	fix_pre	0		120	11.0	2.5	/experiments/aot/R_S_yt-roThCERxVCs_133.mp4	0.0	115.11508703231812	0.9998400211334229
13	92.4327940940857	movie	1		299	11.0	2.5	/experiments/aot/R_S_yt-roThCERxVCs_133.mp4	0.0	116.11492705345154	2.499997854232788
13	92.81627607345581	pulse	1	t		11.0	2.5	/experiments/aot/R_S_yt-roThCERxVCs_133.mp4	0.0	116.49840903282166	
13	94.41629409790039	pulse	1	t		11.0	2.5	/experiments/aot/R_S_yt-roThCERxVCs_133.mp4	0.0	118.09842705726624	
13	94.93279194831848	fix_post	2		12	11.0	2.5	/experiments/aot/R_S_yt-roThCERxVCs_133.mp4	0.0	118.61492490768433	0.09991908073425293
14	95.03271102905273	fix_pre	0		119	12.0	2.5	/experiments/aot/S_flickr-clarkstonscamp-4863427159_1.mp4	0.0	118.71484398841858	0.9917480945587158
14	96.01634097099304	pulse	0	t		12.0	2.5	/experiments/aot/S_flickr-clarkstonscamp-4863427159_1.mp4	0.0	119.69847393035889	
14	96.02445912361145	movie	1		301	12.0	2.5	/experiments/aot/S_flickr-clarkstonscamp-4863427159_1.mp4	0.0	119.7065920829773	2.5082569122314453
14	97.61211109161377	pulse	1	t		12.0	2.5	/experiments/aot/S_flickr-clarkstonscamp-4863427159_1.mp4	0.0	121.29424405097961	
14	98.5327160358429	fix_post	2		12	12.0	2.5	/experiments/aot/S_flickr-clarkstonscamp-4863427159_1.mp4	0.0	122.21484899520874	0.10003089904785156
15	98.63274693489075	fix_pre	0		120	13.0	2.5	/experiments/aot/S_yt-HFiRYTnMZxE_338.mp4	0.0	122.31487989425659	1.00006103515625
15	99.21624302864075	pulse	0	t		13.0	2.5	/experiments/aot/S_yt-HFiRYTnMZxE_338.mp4	0.0	122.89837598800659	
15	99.632807970047	movie	1		300	13.0	2.5	/experiments/aot/S_yt-HFiRYTnMZxE_338.mp4	0.0	123.31494092941284	2.499561071395874
15	100.81627702713013	pulse	1	t		13.0	2.5	/experiments/aot/S_yt-HFiRYTnMZxE_338.mp4	0.0	124.49840998649597	
15	102.13236904144287	fix_post	2		12	13.0	2.5	/experiments/aot/S_yt-HFiRYTnMZxE_338.mp4	0.0	125.81450200080872	0.09994292259216309
16	102.23231196403503	fix_pre	0		120	14.0	2.5	blank	1.0	125.91444492340088	1.0005970001220703
16	102.41624712944031	pulse	0	t		14.0	2.5	blank	1.0	126.09838008880615	
16	103.2329089641571	movie	1		300	14.0	2.5	blank	1.0	126.91504192352295	2.499922037124634
16	104.0165159702301	pulse	1	t		14.0	2.5	blank	1.0	127.69864892959595	
16	105.61634612083435	pulse	1	t		14.0	2.5	blank	1.0	129.2984790802002	
16	105.73283100128174	fix_post	2		12	14.0	2.5	blank	1.0	129.41496396064758	0.10000896453857422
17	105.83283996582031	fix_pre	0		120	15.0	2.5	/experiments/aot/S_yt-lEPoNlKWibA_1.mp4	0.0	129.51497292518616	0.9999160766601562
17	106.83275604248047	movie	1		299	15.0	2.5	/experiments/aot/S_yt-lEPoNlKWibA_1.mp4	0.0	130.5148890018463	2.500005006790161
17	107.21614909172058	pulse	1	t		15.0	2.5	/experiments/aot/S_yt-lEPoNlKWibA_1.mp4	0.0	130.89828205108643	
17	108.81614112854004	pulse	1	t		15.0	2.5	/experiments/aot/S_yt-lEPoNlKWibA_1.mp4	0.0	132.49827408790588	
17	109.33276104927063	fix_post	2		12	15.0	2.5	/experiments/aot/S_yt-lEPoNlKWibA_1.mp4	0.0	133.01489400863647	0.09996795654296875
18	109.4327290058136	fix_pre	0		119	16.0	2.5	/experiments/aot/S_ILSVRC2015_train_00599000.mp4	0.0	133.11486196517944	0.9916119575500488
18	110.4161970615387	pulse	0	t		16.0	2.5	/experiments/aot/S_ILSVRC2015_train_00599000.mp4	0.0	134.09833002090454	
18	110.42434096336365	movie	1		301	16.0	2.5	/experiments/aot/S_ILSVRC2015_train_00599000.mp4	0.0	134.1064739227295	2.5083370208740234
18	112.01188611984253	pulse	1	t		16.0	2.5	/experiments/aot/S_ILSVRC2015_train_00599000.mp4	0.0	135.69401907920837	
18	112.93267798423767	fix_post	2		12	16.0	2.5	/experiments/aot/S_ILSVRC2015_train_00599000.mp4	0.0	136.61481094360352	0.10003209114074707
19	113.03271007537842	fix_pre	0		120	17.0	2.5	/experiments/aot/R_S_pexels-mart-production-7698693.mp4	0.0	136.71484303474426	0.9999549388885498
19	113.6161720752716	pulse	0	t		17.0	2.5	/experiments/aot/R_S_pexels-mart-production-7698693.mp4	0.0	137.29830503463745	
19	114.03266501426697	movie	1		163	17.0	2.5	/experiments/aot/R_S_pexels-mart-production-7698693.mp4	0.0	137.7147979736328	2.500020980834961
19	115.21621203422546	pulse	1	t		17.0	2.5	/experiments/aot/R_S_pexels-mart-production-7698693.mp4	0.0	138.8983449935913	
19	116.53268599510193	fix_post	2		12	17.0	2.5	/experiments/aot/R_S_pexels-mart-production-7698693.mp4	0.0	140.21481895446777	0.09995794296264648
20	116.63264393806458	fix_pre	0		120	18.0	2.5	/experiments/aot/S_yt-ejSzwn8tY8g_49.mp4	0.0	140.31477689743042	1.0000951290130615
20	116.81611013412476	pulse	0	t		18.0	2.5	/experiments/aot/S_yt-ejSzwn8tY8g_49.mp4	0.0	140.4982430934906	
20	117.63273906707764	movie	1		300	18.0	2.5	/experiments/aot/S_yt-ejSzwn8tY8g_49.mp4	0.0	141.31487202644348	2.4999730587005615
20	118.41612696647644	pulse	1	t		18.0	2.5	/experiments/aot/S_yt-ejSzwn8tY8g_49.mp4	0.0	142.09825992584229	
20	120.01622295379639	pulse	1	t		18.0	2.5	/experiments/aot/S_yt-ejSzwn8tY8g_49.mp4	0.0	143.69835591316223	
20	120.1327121257782	fix_post	2		12	18.0	2.5	/experiments/aot/S_yt-ejSzwn8tY8g_49.mp4	0.0	143.81484508514404	0.10008502006530762
21	120.2327971458435	fix_pre	0		120	19.0	2.5	/experiments/aot/R_S_yt-mQRzWCcKOR8_28.mp4	0.0	143.91493010520935	0.9998970031738281
21	121.23269414901733	movie	1		300	19.0	2.5	/experiments/aot/R_S_yt-mQRzWCcKOR8_28.mp4	0.0	144.91482710838318	2.50002384185791
21	121.6161949634552	pulse	1	t		19.0	2.5	/experiments/aot/R_S_yt-mQRzWCcKOR8_28.mp4	0.0	145.29832792282104	
21	123.2161431312561	pulse	1	t		19.0	2.5	/experiments/aot/R_S_yt-mQRzWCcKOR8_28.mp4	0.0	146.89827609062195	
21	123.73271799087524	fix_post	2		12	19.0	2.5	/experiments/aot/R_S_yt-mQRzWCcKOR8_28.mp4	0.0	147.4148509502411	0.09993600845336914
22	123.83265399932861	fix_pre	0		119	20.0	2.5	/experiments/aot/R_S_Y005_C003_SDR_2K_AVC.mp4	0.0	147.51478695869446	0.9916701316833496
22	124.81614303588867	pulse	0	t		20.0	2.5	/experiments/aot/R_S_Y005_C003_SDR_2K_AVC.mp4	0.0	148.49827599525452	
22	124.82432413101196	movie	1		165	20.0	2.5	/experiments/aot/R_S_Y005_C003_SDR_2K_AVC.mp4	0.0	148.5064570903778	2.508255958557129
22	126.41623592376709	pulse	1	t		20.0	2.5	/experiments/aot/R_S_Y005_C003_SDR_2K_AVC.mp4	0.0	150.09836888313293	
22	127.33258008956909	fix_post	2		12	20.0	2.5	/experiments/aot/R_S_Y005_C003_SDR_2K_AVC.mp4	0.0	151.01471304893494	0.10005688667297363
23	127.43263697624207	fix_pre	0		120	21.0	2.5	blank	1.0	151.1147699356079	0.999993085861206
23	128.01616311073303	pulse	0	t		21.0	2.5	blank	1.0	151.69829607009888	
23	128.43263006210327	movie	1		300	21.0	2.5	blank	1.0	152.11476302146912	2.500030040740967
23	129.61609506607056	pulse	1	t		21.0	2.5	blank	1.0	153.2982280254364	
23	130.93266010284424	fix_post	2		12	21.0	2.5	blank	1.0	154.61479306221008	0.09993100166320801
24	131.03259110450745	fix_pre	0		120	22.0	2.5	/experiments/aot/R_S_yt-_zDYi2P-QxY_128.mp4	0.0	154.7147240638733	1.0000460147857666
24	131.21611404418945	pulse	0	t		22.0	2.5	/experiments/aot/R_S_yt-_zDYi2P-QxY_128.mp4	0.0	154.8982470035553	
24	132.0326371192932	movie	1		300	22.0	2.5	/experiments/aot/R_S_yt-_zDYi2P-QxY_128.mp4	0.0	155.71477007865906	2.5000100135803223
24	132.81609296798706	pulse	1	t		22.0	2.5	/experiments/aot/R_S_yt-_zDYi2P-QxY_128.mp4	0.0	156.4982259273529	
24	134.41612100601196	pulse	1	t		22.0	2.5	/experiments/aot/R_S_yt-_zDYi2P-QxY_128.mp4	0.0	158.0982539653778	
24	134.53264713287354	fix_post	2		12	22.0	2.5	/experiments/aot/R_S_yt-_zDYi2P-QxY_128.mp4	0.0	158.21478009223938	0.09996795654296875
25	134.6326150894165	fix_pre	0		120	23.0	2.5	/experiments/aot/S_fHdEaNT0gA0_35.mp4	0.0	158.31474804878235	1.0000560283660889
25	135.6326711177826	movie	1		300	23.0	2.5	/experiments/aot/S_fHdEaNT0gA0_35.mp4	0.0	159.31480407714844	2.4999289512634277
25	136.01608800888062	pulse	1	t		23.0	2.5	/experiments/aot/S_fHdEaNT0gA0_35.mp4	0.0	159.69822096824646	
25	137.6160500049591	pulse	1	t		23.0	2.5	/experiments/aot/S_fHdEaNT0gA0_35.mp4	0.0	161.29818296432495	
25	138.13260006904602	fix_post	2		12	23.0	2.5	/experiments/aot/S_fHdEaNT0gA0_35.mp4	0.0	161.81473302841187	0.10013985633850098
26	138.23273992538452	fix_pre	0		119	24.0	2.5	/experiments/aot/S_yt-Id-f63kUHsE_20.mp4	0.0	161.91487288475037	0.9914801120758057
26	139.21619701385498	pulse	0	t		24.0	2.5	/experiments/aot/S_yt-Id-f63kUHsE_20.mp4	0.0	162.89832997322083	
26	139.22422003746033	movie	1		301	24.0	2.5	/experiments/aot/S_yt-Id-f63kUHsE_20.mp4	0.0	162.90635299682617	2.5083959102630615
26	140.8120391368866	pulse	1	t		24.0	2.5	/experiments/aot/S_yt-Id-f63kUHsE_20.mp4	0.0	164.49417209625244	
26	141.7326159477234	fix_post	2		12	24.0	2.5	/experiments/aot/S_yt-Id-f63kUHsE_20.mp4	0.0	165.41474890708923	0.0999910831451416
27	141.83260703086853	fix_pre	0		120	25.0	2.5	/experiments/aot/R_S_ILSVRC2015_train_00414000.mp4	0.0	165.51473999023438	0.9999740123748779
27	142.41603803634644	pulse	0	t		25.0	2.5	/experiments/aot/R_S_ILSVRC2015_train_00414000.mp4	0.0	166.09817099571228	
27	142.8325810432434	movie	1		300	25.0	2.5	/experiments/aot/R_S_ILSVRC2015_train_00414000.mp4	0.0	166.51471400260925	2.4999780654907227
27	144.01610612869263	pulse	1	t		25.0	2.5	/experiments/aot/R_S_ILSVRC2015_train_00414000.mp4	0.0	167.69823908805847	
27	145.33255910873413	fix_post	2		12	25.0	2.5	/experiments/aot/R_S_ILSVRC2015_train_00414000.mp4	0.0	169.01469206809998	0.10008788108825684
28	145.4326469898224	fix_pre	0		120	26.0	2.5	blank	1.0	169.11477994918823	0.9999289512634277
28	145.61606192588806	pulse	0	t		26.0	2.5	blank	1.0	169.2981948852539	
28	146.43257594108582	movie	1		300	26.0	2.5	blank	1.0	170.11470890045166	2.499988079071045
28	147.21604108810425	pulse	1	t		26.0	2.5	blank	1.0	170.8981740474701	
28	148.81604409217834	pulse	1	t		26.0	2.5	blank	1.0	172.4981770515442	
28	148.93256402015686	fix_post	2		12	26.0	2.5	blank	1.0	172.6146969795227	0.0999760627746582
29	149.03254008293152	fix_pre	0		120	27.0	2.5	/experiments/aot/R_S_3dzza09VbXY_235.mp4	0.0	172.71467304229736	0.999985933303833
29	150.03252601623535	movie	1		300	27.0	2.5	/experiments/aot/R_S_3dzza09VbXY_235.mp4	0.0	173.7146589756012	2.5000410079956055
29	150.41606307029724	pulse	1	t		27.0	2.5	/experiments/aot/R_S_3dzza09VbXY_235.mp4	0.0	174.0981960296631	
29	152.01601099967957	pulse	1	t		27.0	2.5	/experiments/aot/R_S_3dzza09VbXY_235.mp4	0.0	175.6981439590454	
29	152.53256702423096	fix_post	2		12	27.0	2.5	/experiments/aot/R_S_3dzza09VbXY_235.mp4	0.0	176.2146999835968	0.10005593299865723
30	152.63262295722961	fix_pre	0		119	28.0	2.5	/experiments/aot/R_S_yt-QFGyhhr1KSQ_9.mp4	0.0	176.31475591659546	0.9916081428527832
30	153.61602306365967	pulse	0	t		28.0	2.5	/experiments/aot/R_S_yt-QFGyhhr1KSQ_9.mp4	0.0	177.2981560230255	
30	153.6242311000824	movie	1		301	28.0	2.5	/experiments/aot/R_S_yt-QFGyhhr1KSQ_9.mp4	0.0	177.30636405944824	2.508333921432495
30	155.21189904212952	pulse	1	t		28.0	2.5	/experiments/aot/R_S_yt-QFGyhhr1KSQ_9.mp4	0.0	178.89403200149536	
30	156.1325650215149	fix_post	2		12	28.0	2.5	/experiments/aot/R_S_yt-QFGyhhr1KSQ_9.mp4	0.0	179.81469798088074	0.09991693496704102
31	156.23248195648193	fix_pre	0		120	29.0	2.5	/experiments/aot/S_comp_HK_H004_C010_PSNK_v08_SDR_PS_20181009_SDR_2K_AVC.mp4	0.0	179.91461491584778	1.0000500679016113
31	156.81604194641113	pulse	0	t		29.0	2.5	/experiments/aot/S_comp_HK_H004_C010_PSNK_v08_SDR_PS_20181009_SDR_2K_AVC.mp4	0.0	180.49817490577698	
31	157.23253202438354	movie	1		167	29.0	2.5	/experiments/aot/S_comp_HK_H004_C010_PSNK_v08_SDR_PS_20181009_SDR_2K_AVC.mp4	0.0	180.9146649837494	2.4997670650482178
31	158.4159791469574	pulse	1	t		29.0	2.5	/experiments/aot/S_comp_HK_H004_C010_PSNK_v08_SDR_PS_20181009_SDR_2K_AVC.mp4	0.0	182.09811210632324	
31	159.73229908943176	fix_post	2		12	29.0	2.5	/experiments/aot/S_comp_HK_H004_C010_PSNK_v08_SDR_PS_20181009_SDR_2K_AVC.mp4	0.0	183.4144320487976	0.10000801086425781
32	159.83230710029602	fix_pre	0		120	30.0	2.5	/experiments/aot/R_S_yt-HFiRYTnMZxE_338.mp4	0.0	183.51444005966187	1.0004918575286865
32	160.01583003997803	pulse	0	t		30.0	2.5	/experiments/aot/R_S_yt-HFiRYTnMZxE_338.mp4	0.0	183.69796299934387	
32	160.8327989578247	movie	1		300	30.0	2.5	/experiments/aot/R_S_yt-HFiRYTnMZxE_338.mp4	0.0	184.51493191719055	2.4996471405029297
32	161.6159589290619	pulse	1	t		30.0	2.5	/experiments/aot/R_S_yt-HFiRYTnMZxE_338.mp4	0.0	185.29809188842773	
32	163.2156400680542	pulse	1	t		30.0	2.5	/experiments/aot/R_S_yt-HFiRYTnMZxE_338.mp4	0.0	186.89777302742004	
32	163.33244609832764	fix_post	2		12	30.0	2.5	/experiments/aot/R_S_yt-HFiRYTnMZxE_338.mp4	0.0	187.01457905769348	0.1000208854675293
33	163.43246698379517	fix_pre	0		120	31.0	2.5	/experiments/aot/S_yt-AjyR9--Mx3A_44.mp4	0.0	187.114599943161	1.000014066696167
33	164.43248105049133	movie	1		299	31.0	2.5	/experiments/aot/S_yt-AjyR9--Mx3A_44.mp4	0.0	188.11461400985718	2.4999659061431885
33	164.81597113609314	pulse	1	t		31.0	2.5	/experiments/aot/S_yt-AjyR9--Mx3A_44.mp4	0.0	188.49810409545898	
33	166.41585993766785	pulse	1	t		31.0	2.5	/experiments/aot/S_yt-AjyR9--Mx3A_44.mp4	0.0	190.0979928970337	
33	166.93244695663452	fix_post	2		12	31.0	2.5	/experiments/aot/S_yt-AjyR9--Mx3A_44.mp4	0.0	190.61457991600037	0.09997105598449707
34	167.03241801261902	fix_pre	0		119	32.0	2.5	/experiments/aot/R_S_yt-K_gHa2x2OQA_319.mp4	0.0	190.71455097198486	0.9916729927062988
34	168.0160059928894	pulse	0	t		32.0	2.5	/experiments/aot/R_S_yt-K_gHa2x2OQA_319.mp4	0.0	191.69813895225525	
34	168.02409100532532	movie	1		301	32.0	2.5	/experiments/aot/R_S_yt-K_gHa2x2OQA_319.mp4	0.0	191.70622396469116	2.508327007293701
34	169.61593794822693	pulse	1	t		32.0	2.5	/experiments/aot/R_S_yt-K_gHa2x2OQA_319.mp4	0.0	193.29807090759277	
34	170.53241801261902	fix_post	2		12	32.0	2.5	/experiments/aot/R_S_yt-K_gHa2x2OQA_319.mp4	0.0	194.21455097198486	0.09997296333312988
35	170.63239097595215	fix_pre	0		120	33.0	2.5	/experiments/aot/R_S_yt-zam74qlzGtQ_122.mp4	0.0	194.314523935318	1.0001001358032227
35	171.2158980369568	pulse	0	t		33.0	2.5	/experiments/aot/R_S_yt-zam74qlzGtQ_122.mp4	0.0	194.89803099632263	
35	171.63249111175537	movie	1		300	33.0	2.5	/experiments/aot/R_S_yt-zam74qlzGtQ_122.mp4	0.0	195.31462407112122	2.4999308586120605
35	172.8158359527588	pulse	1	t		33.0	2.5	/experiments/aot/R_S_yt-zam74qlzGtQ_122.mp4	0.0	196.49796891212463	
35	174.13242197036743	fix_post	2		12	33.0	2.5	/experiments/aot/R_S_yt-zam74qlzGtQ_122.mp4	0.0	197.81455492973328	0.10001206398010254
36	174.23243403434753	fix_pre	0		120	34.0	2.5	blank	1.0	197.91456699371338	0.9999549388885498
36	174.4159059524536	pulse	0	t		34.0	2.5	blank	1.0	198.09803891181946	
36	175.23238897323608	movie	1		300	34.0	2.5	blank	1.0	198.91452193260193	2.5000669956207275
36	176.0159261226654	pulse	1	t		34.0	2.5	blank	1.0	199.69805908203125	
36	177.61584496498108	pulse	1	t		34.0	2.5	blank	1.0	201.29797792434692	
36	177.7324559688568	fix_post	2		12	34.0	2.5	blank	1.0	201.41458892822266	0.09993505477905273
37	177.83239102363586	fix_pre	0		120	35.0	2.5	/experiments/aot/R_S_yt-Id-f63kUHsE_20.mp4	0.0	201.5145239830017	1.0000901222229004
37	178.83248114585876	movie	1		300	35.0	2.5	/experiments/aot/R_S_yt-Id-f63kUHsE_20.mp4	0.0	202.5146141052246	2.4999499320983887
37	179.21580910682678	pulse	1	t		35.0	2.5	/experiments/aot/R_S_yt-Id-f63kUHsE_20.mp4	0.0	202.89794206619263	
37	180.81579899787903	pulse	1	t		35.0	2.5	/experiments/aot/R_S_yt-Id-f63kUHsE_20.mp4	0.0	204.49793195724487	
37	181.33243107795715	fix_post	2		12	35.0	2.5	/experiments/aot/R_S_yt-Id-f63kUHsE_20.mp4	0.0	205.014564037323	0.10005688667297363
38	181.43248796463013	fix_pre	0		119	36.0	2.5	/experiments/aot/R_S__9v_wUywaAA_35.mp4	0.0	205.11462092399597	0.9915220737457275
38	182.41583800315857	pulse	0	t		36.0	2.5	/experiments/aot/R_S__9v_wUywaAA_35.mp4	0.0	206.0979709625244	
38	182.42401003837585	movie	1		301	36.0	2.5	/experiments/aot/R_S__9v_wUywaAA_35.mp4	0.0	206.1061429977417	2.5082919597625732
38	184.01596212387085	pulse	1	t		36.0	2.5	/experiments/aot/R_S__9v_wUywaAA_35.mp4	0.0	207.6980950832367	
38	184.93230199813843	fix_post	2		12	36.0	2.5	/experiments/aot/R_S__9v_wUywaAA_35.mp4	0.0	208.61443495750427	0.10011601448059082
39	185.03241801261902	fix_pre	0		120	37.0	2.5	/experiments/aot/R_S_ILSVRC2015_train_00404003.mp4	0.0	208.71455097198486	0.9998900890350342
39	185.6158480644226	pulse	0	t		37.0	2.5	/experiments/aot/R_S_ILSVRC2015_train_00404003.mp4	0.0	209.29798102378845	
39	186.03230810165405	movie	1		300	37.0	2.5	/experiments/aot/R_S_ILSVRC2015_train_00404003.mp4	0.0	209.7144410610199	2.500005006790161
39	187.21588706970215	pulse	1	t		37.0	2.5	/experiments/aot/R_S_ILSVRC2015_train_00404003.mp4	0.0	210.898020029068	
39	188.5323131084442	fix_post	2		12	37.0	2.5	/experiments/aot/R_S_ILSVRC2015_train_00404003.mp4	0.0	212.21444606781006	0.09998083114624023
40	188.63229393959045	fix_pre	0		120	38.0	2.5	/experiments/aot/S_flickr-51283549@N02-23064904264_16.mp4	0.0	212.3144268989563	0.9999711513519287
40	188.815819978714	pulse	0	t		38.0	2.5	/experiments/aot/S_flickr-51283549@N02-23064904264_16.mp4	0.0	212.49795293807983	
40	189.63226509094238	movie	1		162	38.0	2.5	/experiments/aot/S_flickr-51283549@N02-23064904264_16.mp4	0.0	213.31439805030823	2.500166893005371
40	190.41591691970825	pulse	1	t		38.0	2.5	/experiments/aot/S_flickr-51283549@N02-23064904264_16.mp4	0.0	214.0980498790741	
40	192.01587510108948	pulse	1	t		38.0	2.5	/experiments/aot/S_flickr-51283549@N02-23064904264_16.mp4	0.0	215.69800806045532	
40	192.13243198394775	fix_post	2		12	38.0	2.5	/experiments/aot/S_flickr-51283549@N02-23064904264_16.mp4	0.0	215.8145649433136	0.09984016418457031
41	192.23227214813232	fix_pre	0		120	39.0	2.5	/experiments/aot/R_S_comp_HK_H004_C001_PSNK_DENOISE_v14_SDR_PS_FINAL_20180731_SDR_2K_AVC.mp4	0.0	215.91440510749817	1.0000529289245605
41	193.23232507705688	movie	1		165	39.0	2.5	/experiments/aot/R_S_comp_HK_H004_C001_PSNK_DENOISE_v14_SDR_PS_FINAL_20180731_SDR_2K_AVC.mp4	0.0	216.91445803642273	2.500088930130005
41	193.61587810516357	pulse	1	t		39.0	2.5	/experiments/aot/R_S_comp_HK_H004_C001_PSNK_DENOISE_v14_SDR_PS_FINAL_20180731_SDR_2K_AVC.mp4	0.0	217.29801106452942	
41	195.2158489227295	pulse	1	t		39.0	2.5	/experiments/aot/R_S_comp_HK_H004_C001_PSNK_DENOISE_v14_SDR_PS_FINAL_20180731_SDR_2K_AVC.mp4	0.0	218.89798188209534	
41	195.7324140071869	fix_post	2		12	39.0	2.5	/experiments/aot/R_S_comp_HK_H004_C001_PSNK_DENOISE_v14_SDR_PS_FINAL_20180731_SDR_2K_AVC.mp4	0.0	219.41454696655273	0.09990406036376953
42	195.83231806755066	fix_pre	0		119	40.0	2.5	/experiments/aot/R_S_yt-YlA-FPDylDE_100.mp4	0.0	219.5144510269165	0.9916200637817383
42	196.81591796875	pulse	0	t		40.0	2.5	/experiments/aot/R_S_yt-YlA-FPDylDE_100.mp4	0.0	220.49805092811584	
42	196.8239381313324	movie	1		301	40.0	2.5	/experiments/aot/R_S_yt-YlA-FPDylDE_100.mp4	0.0	220.50607109069824	2.508413791656494
42	198.41184496879578	pulse	1	t		40.0	2.5	/experiments/aot/R_S_yt-YlA-FPDylDE_100.mp4	0.0	222.09397792816162	
42	199.3323519229889	fix_post	2		12	40.0	2.5	/experiments/aot/R_S_yt-YlA-FPDylDE_100.mp4	0.0	223.01448488235474	0.0999300479888916
43	199.43228197097778	fix_pre	0		120	41.0	2.5	/experiments/aot/R_S_comp_LA_A009_C009_PSNK_v02_SDR_PS_FINAL_20180709_SDR_2K_AVC.mp4	0.0	223.11441493034363	1.0000660419464111
43	200.01583003997803	pulse	0	t		41.0	2.5	/experiments/aot/R_S_comp_LA_A009_C009_PSNK_v02_SDR_PS_FINAL_20180709_SDR_2K_AVC.mp4	0.0	223.69796299934387	
43	200.4323480129242	movie	1		164	41.0	2.5	/experiments/aot/R_S_comp_LA_A009_C009_PSNK_v02_SDR_PS_FINAL_20180709_SDR_2K_AVC.mp4	0.0	224.11448097229004	2.499980926513672
43	201.61582493782043	pulse	1	t		41.0	2.5	/experiments/aot/R_S_comp_LA_A009_C009_PSNK_v02_SDR_PS_FINAL_20180709_SDR_2K_AVC.mp4	0.0	225.29795789718628	
43	202.93232893943787	fix_post	2		12	41.0	2.5	/experiments/aot/R_S_comp_LA_A009_C009_PSNK_v02_SDR_PS_FINAL_20180709_SDR_2K_AVC.mp4	0.0	226.6144618988037	0.10004615783691406
44	203.03237509727478	fix_pre	0		120	42.0	2.5	blank	1.0	226.71450805664062	0.9999079704284668
44	203.21575093269348	pulse	0	t		42.0	2.5	blank	1.0	226.89788389205933	
44	204.03228306770325	movie	1		300	42.0	2.5	blank	1.0	227.7144160270691	2.499919891357422
44	204.81579113006592	pulse	1	t		42.0	2.5	blank	1.0	228.49792408943176	
44	206.4157590866089	pulse	1	t		42.0	2.5	blank	1.0	230.09789204597473	
44	206.53220295906067	fix_post	2		12	42.0	2.5	blank	1.0	230.2143359184265	0.1001119613647461
45	206.63231492042542	fix_pre	0		120	43.0	2.5	/experiments/aot/R_S_yt-mJzkLd3Mr_c_35.mp4	0.0	230.31444787979126	0.9999480247497559
45	207.63226294517517	movie	1		299	43.0	2.5	/experiments/aot/R_S_yt-mJzkLd3Mr_c_35.mp4	0.0	231.31439590454102	2.499937057495117
45	208.01576113700867	pulse	1	t		43.0	2.5	/experiments/aot/R_S_yt-mJzkLd3Mr_c_35.mp4	0.0	231.6978940963745	
45	209.6157820224762	pulse	1	t		43.0	2.5	/experiments/aot/R_S_yt-mJzkLd3Mr_c_35.mp4	0.0	233.29791498184204	
45	210.1322000026703	fix_post	2		12	43.0	2.5	/experiments/aot/R_S_yt-mJzkLd3Mr_c_35.mp4	0.0	233.81433296203613	0.10009193420410156
46	210.2322919368744	fix_pre	0		119	44.0	2.5	/experiments/aot/S_production_ID_3944248.mp4	0.0	233.91442489624023	0.9916291236877441
46	211.21588706970215	pulse	0	t		44.0	2.5	/experiments/aot/S_production_ID_3944248.mp4	0.0	234.898020029068	
46	211.22392106056213	movie	1		163	44.0	2.5	/experiments/aot/S_production_ID_3944248.mp4	0.0	234.90605401992798	2.5082709789276123
46	212.81520915031433	pulse	1	t		44.0	2.5	/experiments/aot/S_production_ID_3944248.mp4	0.0	236.49734210968018	
46	213.73219203948975	fix_post	2		12	44.0	2.5	/experiments/aot/S_production_ID_3944248.mp4	0.0	237.4143249988556	0.09964609146118164
47	213.83183813095093	fix_pre	0		120	45.0	2.5	/experiments/aot/S_yt-rZA9zXR-A6s_426.mp4	0.0	237.51397109031677	1.0000309944152832
47	214.41531109809875	pulse	0	t		45.0	2.5	/experiments/aot/S_yt-rZA9zXR-A6s_426.mp4	0.0	238.0974440574646	
47	214.8318691253662	movie	1		300	45.0	2.5	/experiments/aot/S_yt-rZA9zXR-A6s_426.mp4	0.0	238.51400208473206	2.5004467964172363
47	216.0159089565277	pulse	1	t		45.0	2.5	/experiments/aot/S_yt-rZA9zXR-A6s_426.mp4	0.0	239.69804191589355	
47	217.33231592178345	fix_post	2		12	45.0	2.5	/experiments/aot/S_yt-rZA9zXR-A6s_426.mp4	0.0	241.0144488811493	0.09995722770690918
48	217.43227314949036	fix_pre	0		120	46.0	2.5	/experiments/aot/S_yt-qycUhA3Isjg_76.mp4	0.0	241.1144061088562	1.000011920928955
48	217.61578702926636	pulse	0	t		46.0	2.5	/experiments/aot/S_yt-qycUhA3Isjg_76.mp4	0.0	241.2979199886322	
48	218.4322850704193	movie	1		300	46.0	2.5	/experiments/aot/S_yt-qycUhA3Isjg_76.mp4	0.0	242.11441802978516	2.4998669624328613
48	219.2156879901886	pulse	1	t		46.0	2.5	/experiments/aot/S_yt-qycUhA3Isjg_76.mp4	0.0	242.89782094955444	
48	220.81524991989136	pulse	1	t		46.0	2.5	/experiments/aot/S_yt-qycUhA3Isjg_76.mp4	0.0	244.4973828792572	
48	220.93215203285217	fix_post	2		12	46.0	2.5	/experiments/aot/S_yt-qycUhA3Isjg_76.mp4	0.0	244.61428499221802	0.10003995895385742
49	221.03219199180603	fix_pre	0		120	47.0	2.5	/experiments/aot/S_PA_A004_C003_SDR_20190719_SDR_2K_AVC.mp4	0.0	244.71432495117188	0.9999420642852783
49	222.0321340560913	movie	1		169	47.0	2.5	/experiments/aot/S_PA_A004_C003_SDR_20190719_SDR_2K_AVC.mp4	0.0	245.71426701545715	2.5000948905944824
49	222.41564106941223	pulse	1	t		47.0	2.5	/experiments/aot/S_PA_A004_C003_SDR_20190719_SDR_2K_AVC.mp4	0.0	246.09777402877808	
49	224.01579093933105	pulse	1	t		47.0	2.5	/experiments/aot/S_PA_A004_C003_SDR_20190719_SDR_2K_AVC.mp4	0.0	247.6979238986969	
49	224.5322289466858	fix_post	2		12	47.0	2.5	/experiments/aot/S_PA_A004_C003_SDR_20190719_SDR_2K_AVC.mp4	0.0	248.21436190605164	0.09994101524353027
50	224.63216996192932	fix_pre	0		119	48.0	2.5	/experiments/aot/S_production_ID_4802716.mp4	0.0	248.31430292129517	0.9916601181030273
50	225.61566615104675	pulse	0	t		48.0	2.5	/experiments/aot/S_production_ID_4802716.mp4	0.0	249.2977991104126	
50	225.62383008003235	movie	1		166	48.0	2.5	/experiments/aot/S_production_ID_4802716.mp4	0.0	249.3059630393982	2.5083060264587402
50	227.21541810035706	pulse	1	t		48.0	2.5	/experiments/aot/S_production_ID_4802716.mp4	0.0	250.8975510597229	
50	228.1321361064911	fix_post	2		12	48.0	2.5	/experiments/aot/S_production_ID_4802716.mp4	0.0	251.81426906585693	0.1000218391418457
51	228.23215794563293	fix_pre	0		120	49.0	2.5	blank	1.0	251.91429090499878	0.9999780654907227
51	228.81557393074036	pulse	0	t		49.0	2.5	blank	1.0	252.4977068901062	
51	229.23213601112366	movie	1		300	49.0	2.5	blank	1.0	252.9142689704895	2.500035047531128
51	230.41565108299255	pulse	1	t		49.0	2.5	blank	1.0	254.0977840423584	
51	231.73217105865479	fix_post	2		12	49.0	2.5	blank	1.0	255.41430401802063	0.09996986389160156
52	231.8321409225464	fix_pre	0		120	50.0	2.5	/experiments/aot/R_S_yt-IC62JSYpq9w_71.mp4	0.0	255.51427388191223	0.9999620914459229
52	232.01564693450928	pulse	0	t		50.0	2.5	/experiments/aot/R_S_yt-IC62JSYpq9w_71.mp4	0.0	255.69777989387512	
52	232.8321030139923	movie	1		300	50.0	2.5	/experiments/aot/R_S_yt-IC62JSYpq9w_71.mp4	0.0	256.51423597335815	2.4999570846557617
52	233.61554408073425	pulse	1	t		50.0	2.5	/experiments/aot/R_S_yt-IC62JSYpq9w_71.mp4	0.0	257.2976770401001	
52	235.21556496620178	pulse	1	t		50.0	2.5	/experiments/aot/R_S_yt-IC62JSYpq9w_71.mp4	0.0	258.8976979255676	
52	235.33206009864807	fix_post	2		12	50.0	2.5	/experiments/aot/R_S_yt-IC62JSYpq9w_71.mp4	0.0	259.0141930580139	0.10000801086425781
53	235.43206810951233	fix_pre	0		120	51.0	2.5	/experiments/aot/S_yt-WRBmpC-RxIc_678.mp4	0.0	259.1142010688782	0.9999828338623047
53	236.43205094337463	movie	1		299	51.0	2.5	/experiments/aot/S_yt-WRBmpC-RxIc_678.mp4	0.0	260.1141839027405	2.5000901222229004
53	236.81558799743652	pulse	1	t		51.0	2.5	/experiments/aot/S_yt-WRBmpC-RxIc_678.mp4	0.0	260.49772095680237	
53	238.41564202308655	pulse	1	t		51.0	2.5	/experiments/aot/S_yt-WRBmpC-RxIc_678.mp4	0.0	262.0977749824524	
53	238.93214106559753	fix_post	2		12	51.0	2.5	/experiments/aot/S_yt-WRBmpC-RxIc_678.mp4	0.0	262.6142740249634	0.0999460220336914
54	239.03208708763123	fix_pre	0		119	52.0	2.5	/experiments/aot/S_yt-p0buJEEKeuI_61.mp4	0.0	262.71422004699707	0.9916620254516602
54	240.01562213897705	pulse	0	t		52.0	2.5	/experiments/aot/S_yt-p0buJEEKeuI_61.mp4	0.0	263.6977550983429	
54	240.02374911308289	movie	1		301	52.0	2.5	/experiments/aot/S_yt-p0buJEEKeuI_61.mp4	0.0	263.70588207244873	2.508358955383301
54	241.61217403411865	pulse	1	t		52.0	2.5	/experiments/aot/S_yt-p0buJEEKeuI_61.mp4	0.0	265.2943069934845	
54	242.5321080684662	fix_post	2		12	52.0	2.5	/experiments/aot/S_yt-p0buJEEKeuI_61.mp4	0.0	266.21424102783203	0.099945068359375
55	242.63205313682556	fix_pre	0		120	53.0	2.5	/experiments/aot/S_yt-rZA9zXR-A6s_426.mp4	0.0	266.3141860961914	1.0000038146972656
55	243.21553492546082	pulse	0	t		53.0	2.5	/experiments/aot/S_yt-rZA9zXR-A6s_426.mp4	0.0	266.89766788482666	
55	243.63205695152283	movie	1		300	53.0	2.5	/experiments/aot/S_yt-rZA9zXR-A6s_426.mp4	0.0	267.3141899108887	2.500110149383545
55	244.8155860900879	pulse	1	t		53.0	2.5	/experiments/aot/S_yt-rZA9zXR-A6s_426.mp4	0.0	268.49771904945374	
55	246.13216710090637	fix_post	2		12	53.0	2.5	/experiments/aot/S_yt-rZA9zXR-A6s_426.mp4	0.0	269.8143000602722	0.09989285469055176
56	246.23205995559692	fix_pre	0		120	54.0	2.5	/experiments/aot/R_S_bing-www_yahoo_com_entertainment_anastasia-karanikolaou-chantel-jeffries-discuss-182400502_html_9.mp4	0.0	269.91419291496277	1.0000450611114502
56	246.41554594039917	pulse	0	t		54.0	2.5	/experiments/aot/R_S_bing-www_yahoo_com_entertainment_anastasia-karanikolaou-chantel-jeffries-discuss-182400502_html_9.mp4	0.0	270.097678899765	
56	247.23210501670837	movie	1		165	54.0	2.5	/experiments/aot/R_S_bing-www_yahoo_com_entertainment_anastasia-karanikolaou-chantel-jeffries-discuss-182400502_html_9.mp4	0.0	270.9142379760742	2.4999499320983887
56	248.01560592651367	pulse	1	t		54.0	2.5	/experiments/aot/R_S_bing-www_yahoo_com_entertainment_anastasia-karanikolaou-chantel-jeffries-discuss-182400502_html_9.mp4	0.0	271.6977388858795	
56	249.6155300140381	pulse	1	t		54.0	2.5	/experiments/aot/R_S_bing-www_yahoo_com_entertainment_anastasia-karanikolaou-chantel-jeffries-discuss-182400502_html_9.mp4	0.0	273.29766297340393	
56	249.73205494880676	fix_post	2		12	54.0	2.5	/experiments/aot/R_S_bing-www_yahoo_com_entertainment_anastasia-karanikolaou-chantel-jeffries-discuss-182400502_html_9.mp4	0.0	273.4141879081726	0.10003304481506348
57	249.83208799362183	fix_pre	0		120	55.0	2.5	/experiments/aot/S_yt-UojTppgtyCE_121.mp4	0.0	273.51422095298767	0.9999139308929443
57	250.83200192451477	movie	1		300	55.0	2.5	/experiments/aot/S_yt-UojTppgtyCE_121.mp4	0.0	274.5141348838806	2.499986171722412
57	251.2154939174652	pulse	1	t		55.0	2.5	/experiments/aot/S_yt-UojTppgtyCE_121.mp4	0.0	274.89762687683105	
57	252.815495967865	pulse	1	t		55.0	2.5	/experiments/aot/S_yt-UojTppgtyCE_121.mp4	0.0	276.49762892723083	
57	253.33198809623718	fix_post	2		12	55.0	2.5	/experiments/aot/S_yt-UojTppgtyCE_121.mp4	0.0	277.014121055603	0.10004901885986328
58	253.43203711509705	fix_pre	0		119	56.0	2.5	blank	1.0	277.1141700744629	0.9916539192199707
58	254.4155580997467	pulse	0	t		56.0	2.5	blank	1.0	278.09769105911255	
58	254.42369103431702	movie	1		301	56.0	2.5	blank	1.0	278.10582399368286	2.508358955383301
58	256.01552510261536	pulse	1	t		56.0	2.5	blank	1.0	279.6976580619812	
58	256.9320499897003	fix_post	2		12	56.0	2.5	blank	1.0	280.61418294906616	0.09996509552001953
59	257.03201508522034	fix_pre	0		120	57.0	2.5	/experiments/aot/S_yt-bmGWhOCsvJo_128.mp4	0.0	280.7141480445862	0.9999709129333496
59	257.61550307273865	pulse	0	t		57.0	2.5	/experiments/aot/S_yt-bmGWhOCsvJo_128.mp4	0.0	281.2976360321045	
59	258.0319859981537	movie	1		300	57.0	2.5	/experiments/aot/S_yt-bmGWhOCsvJo_128.mp4	0.0	281.71411895751953	2.499980926513672
59	259.21549701690674	pulse	1	t		57.0	2.5	/experiments/aot/S_yt-bmGWhOCsvJo_128.mp4	0.0	282.8976299762726	
59	260.53196692466736	fix_post	2		12	57.0	2.5	/experiments/aot/S_yt-bmGWhOCsvJo_128.mp4	0.0	284.2140998840332	0.09998822212219238
60	260.63195514678955	fix_pre	0		120	58.0	2.5	/experiments/aot/S_pexels-laker-5793000.mp4	0.0	284.3140881061554	1.0000128746032715
60	260.81551814079285	pulse	0	t		58.0	2.5	/experiments/aot/S_pexels-laker-5793000.mp4	0.0	284.4976511001587	
60	261.6319680213928	movie	1		164	58.0	2.5	/experiments/aot/S_pexels-laker-5793000.mp4	0.0	285.31410098075867	2.5000040531158447
60	262.4155261516571	pulse	1	t		58.0	2.5	/experiments/aot/S_pexels-laker-5793000.mp4	0.0	286.09765911102295	
60	264.01546597480774	pulse	1	t		58.0	2.5	/experiments/aot/S_pexels-laker-5793000.mp4	0.0	287.6975989341736	
60	264.13197207450867	fix_post	2		12	58.0	2.5	/experiments/aot/S_pexels-laker-5793000.mp4	0.0	287.8141050338745	0.10001897811889648
61	264.23199105262756	fix_pre	0		120	59.0	2.5	/experiments/aot/R_S_9smWynsk6sI_158.mp4	0.0	287.9141240119934	0.999967098236084
61	265.23195815086365	movie	1		299	59.0	2.5	/experiments/aot/R_S_9smWynsk6sI_158.mp4	0.0	288.9140911102295	2.499985933303833
61	265.6155159473419	pulse	1	t		59.0	2.5	/experiments/aot/R_S_9smWynsk6sI_158.mp4	0.0	289.29764890670776	
61	267.21555614471436	pulse	1	t		59.0	2.5	/experiments/aot/R_S_9smWynsk6sI_158.mp4	0.0	290.8976891040802	
61	267.7319440841675	fix_post	2		12	59.0	2.5	/experiments/aot/R_S_9smWynsk6sI_158.mp4	0.0	291.4140770435333	0.10000395774841309
62	267.8319480419159	fix_pre	0		119	60.0	2.5	/experiments/aot/R_S_yt-roThCERxVCs_133.mp4	0.0	291.51408100128174	0.9916470050811768
62	268.81538796424866	pulse	0	t		60.0	2.5	/experiments/aot/R_S_yt-roThCERxVCs_133.mp4	0.0	292.4975209236145	
62	268.82359504699707	movie	1		301	60.0	2.5	/experiments/aot/R_S_yt-roThCERxVCs_133.mp4	0.0	292.5057280063629	2.5081369876861572
62	270.41510009765625	pulse	1	t		60.0	2.5	/experiments/aot/R_S_yt-roThCERxVCs_133.mp4	0.0	294.0972330570221	
62	271.3317320346832	fix_post	2		12	60.0	2.5	/experiments/aot/R_S_yt-roThCERxVCs_133.mp4	0.0	295.0138649940491	0.10003995895385742
63	271.4317719936371	fix_pre	0		120	61.0	2.5	/experiments/aot/S_yt-WRBmpC-RxIc_678.mp4	0.0	295.11390495300293	1.0005581378936768
63	272.0153319835663	pulse	0	t		61.0	2.5	/experiments/aot/S_yt-WRBmpC-RxIc_678.mp4	0.0	295.69746494293213	
63	272.43233013153076	movie	1		300	61.0	2.5	/experiments/aot/S_yt-WRBmpC-RxIc_678.mp4	0.0	296.1144630908966	2.499572992324829
63	273.61541295051575	pulse	1	t		61.0	2.5	/experiments/aot/S_yt-WRBmpC-RxIc_678.mp4	0.0	297.2975459098816	
63	274.9319031238556	fix_post	2		12	61.0	2.5	/experiments/aot/S_yt-WRBmpC-RxIc_678.mp4	0.0	298.61403608322144	0.10004997253417969
64	275.03195309638977	fix_pre	0		120	62.0	2.5	blank	1.0	298.7140860557556	1.0000150203704834
64	275.2153730392456	pulse	0	t		62.0	2.5	blank	1.0	298.89750599861145	
64	276.03196811676025	movie	1		300	62.0	2.5	blank	1.0	299.7141010761261	2.4999709129333496
64	276.81546211242676	pulse	1	t		62.0	2.5	blank	1.0	300.4975950717926	
64	278.41529607772827	pulse	1	t		62.0	2.5	blank	1.0	302.0974290370941	
64	278.5319390296936	fix_post	2		12	62.0	2.5	blank	1.0	302.21407198905945	0.09993410110473633
65	278.63187313079834	fix_pre	0		120	63.0	2.5	/experiments/aot/S_ILSVRC2015_train_00559000.mp4	0.0	302.3140060901642	1.0000109672546387
65	279.631884098053	movie	1		300	63.0	2.5	/experiments/aot/S_ILSVRC2015_train_00559000.mp4	0.0	303.3140170574188	2.5000200271606445
65	280.01532101631165	pulse	1	t		63.0	2.5	/experiments/aot/S_ILSVRC2015_train_00559000.mp4	0.0	303.6974539756775	
65	281.6152911186218	pulse	1	t		63.0	2.5	/experiments/aot/S_ILSVRC2015_train_00559000.mp4	0.0	305.29742407798767	
65	282.1319041252136	fix_post	2		12	63.0	2.5	/experiments/aot/S_ILSVRC2015_train_00559000.mp4	0.0	305.81403708457947	0.09997892379760742
66	282.23188304901123	fix_pre	0		119	64.0	2.5	/experiments/aot/R_S_yt-n1snPiGfg0A_45.mp4	0.0	305.9140160083771	0.991602897644043
66	283.2153100967407	pulse	0	t		64.0	2.5	/experiments/aot/R_S_yt-n1snPiGfg0A_45.mp4	0.0	306.89744305610657	
66	283.2234859466553	movie	1		301	64.0	2.5	/experiments/aot/R_S_yt-n1snPiGfg0A_45.mp4	0.0	306.9056189060211	2.508315086364746
66	284.8112509250641	pulse	1	t		64.0	2.5	/experiments/aot/R_S_yt-n1snPiGfg0A_45.mp4	0.0	308.49338388442993	
66	285.73180103302	fix_post	2		12	64.0	2.5	/experiments/aot/R_S_yt-n1snPiGfg0A_45.mp4	0.0	309.41393399238586	0.10002398490905762
67	285.8318250179291	fix_pre	0		120	65.0	2.5	/experiments/aot/S_yt-kINZMjys3O4_112.mp4	0.0	309.5139579772949	0.9999821186065674
67	286.4154601097107	pulse	0	t		65.0	2.5	/experiments/aot/S_yt-kINZMjys3O4_112.mp4	0.0	310.09759306907654	
67	286.83180713653564	movie	1		300	65.0	2.5	/experiments/aot/S_yt-kINZMjys3O4_112.mp4	0.0	310.5139400959015	2.49997878074646
67	288.01532196998596	pulse	1	t		65.0	2.5	/experiments/aot/S_yt-kINZMjys3O4_112.mp4	0.0	311.6974549293518	
67	289.3317859172821	fix_post	2		12	65.0	2.5	/experiments/aot/S_yt-kINZMjys3O4_112.mp4	0.0	313.01391887664795	0.10004401206970215
68	289.4318299293518	fix_pre	0		120	66.0	2.5	/experiments/aot/R_S_flickr-lamujuri-10653517683_4.mp4	0.0	313.11396288871765	1.0000720024108887
68	289.6152720451355	pulse	0	t		66.0	2.5	/experiments/aot/R_S_flickr-lamujuri-10653517683_4.mp4	0.0	313.29740500450134	
68	290.4319019317627	movie	1		171	66.0	2.5	/experiments/aot/R_S_flickr-lamujuri-10653517683_4.mp4	0.0	314.11403489112854	2.4998722076416016
68	291.2153630256653	pulse	1	t		66.0	2.5	/experiments/aot/R_S_flickr-lamujuri-10653517683_4.mp4	0.0	314.8974959850311	
68	292.81531715393066	pulse	1	t		66.0	2.5	/experiments/aot/R_S_flickr-lamujuri-10653517683_4.mp4	0.0	316.4974501132965	
68	292.9317741394043	fix_post	2		12	66.0	2.5	/experiments/aot/R_S_flickr-lamujuri-10653517683_4.mp4	0.0	316.61390709877014	0.10002279281616211
69	293.03179693222046	fix_pre	0		120	67.0	2.5	/experiments/aot/R_S_production_ID_5049072.mp4	0.0	316.7139298915863	0.9999561309814453
69	294.0317530632019	movie	1		170	67.0	2.5	/experiments/aot/R_S_production_ID_5049072.mp4	0.0	317.71388602256775	2.5001280307769775
69	294.4154939651489	pulse	1	t		67.0	2.5	/experiments/aot/R_S_production_ID_5049072.mp4	0.0	318.09762692451477	
69	296.0154039859772	pulse	1	t		67.0	2.5	/experiments/aot/R_S_production_ID_5049072.mp4	0.0	319.697536945343	
69	296.5318810939789	fix_post	2		12	67.0	2.5	/experiments/aot/R_S_production_ID_5049072.mp4	0.0	320.2140140533447	0.09998488426208496
70	296.63186597824097	fix_pre	0		119	68.0	2.5	/experiments/aot/S_comp_A007_C017_01156B_v02_SDR_PS_20180925_SDR_2K_AVC.mp4	0.0	320.3139989376068	0.9916000366210938
70	297.6153609752655	pulse	0	t		68.0	2.5	/experiments/aot/S_comp_A007_C017_01156B_v02_SDR_PS_20180925_SDR_2K_AVC.mp4	0.0	321.29749393463135	
70	297.62346601486206	movie	1		166	68.0	2.5	/experiments/aot/S_comp_A007_C017_01156B_v02_SDR_PS_20180925_SDR_2K_AVC.mp4	0.0	321.3055989742279	2.5083999633789062
70	299.2147481441498	pulse	1	t		68.0	2.5	/experiments/aot/S_comp_A007_C017_01156B_v02_SDR_PS_20180925_SDR_2K_AVC.mp4	0.0	322.8968811035156	
70	300.13186597824097	fix_post	2		12	68.0	2.5	/experiments/aot/S_comp_A007_C017_01156B_v02_SDR_PS_20180925_SDR_2K_AVC.mp4	0.0	323.8139989376068	0.09989094734191895
71	300.2317569255829	fix_pre	0		120	69.0	2.5	/experiments/aot/S_ILSVRC2015_train_00434000.mp4	0.0	323.91388988494873	1.0001020431518555
71	300.8152811527252	pulse	0	t		69.0	2.5	/experiments/aot/S_ILSVRC2015_train_00434000.mp4	0.0	324.49741411209106	
71	301.23185896873474	movie	1		299	69.0	2.5	/experiments/aot/S_ILSVRC2015_train_00434000.mp4	0.0	324.9139919281006	2.499962091445923
71	302.4152829647064	pulse	1	t		69.0	2.5	/experiments/aot/S_ILSVRC2015_train_00434000.mp4	0.0	326.09741592407227	
71	303.73182106018066	fix_post	2		12	69.0	2.5	/experiments/aot/S_ILSVRC2015_train_00434000.mp4	0.0	327.4139540195465	0.10004806518554688
72	303.8318691253662	fix_pre	0		120	70.0	2.5	blank	1.0	327.51400208473206	0.9998979568481445
72	304.01523900032043	pulse	0	t		70.0	2.5	blank	1.0	327.6973719596863	
72	304.83176708221436	movie	1		300	70.0	2.5	blank	1.0	328.5139000415802	2.5001020431518555
72	305.6153521537781	pulse	1	t		70.0	2.5	blank	1.0	329.2974851131439	
72	307.2151770591736	pulse	1	t		70.0	2.5	blank	1.0	330.89731001853943	
72	307.3318691253662	fix_post	2		12	70.0	2.5	blank	1.0	331.01400208473206	0.09994888305664062
73	307.43181800842285	fix_pre	0		120	71.0	2.5	/experiments/aot/S_yt-5fZZrdwkFx0_28.mp4	0.0	331.1139509677887	1.000020980834961
73	308.4318389892578	movie	1		300	71.0	2.5	/experiments/aot/S_yt-5fZZrdwkFx0_28.mp4	0.0	332.11397194862366	2.49991512298584
73	308.81525897979736	pulse	1	t		71.0	2.5	/experiments/aot/S_yt-5fZZrdwkFx0_28.mp4	0.0	332.4973919391632	
73	310.41529297828674	pulse	1	t		71.0	2.5	/experiments/aot/S_yt-5fZZrdwkFx0_28.mp4	0.0	334.0974259376526	
73	310.93175411224365	fix_post	2		12	71.0	2.5	/experiments/aot/S_yt-5fZZrdwkFx0_28.mp4	0.0	334.6138870716095	0.09998583793640137
74	311.03173995018005	fix_pre	0		119	72.0	2.5	/experiments/aot/S_yt-BAwvfRmE1LU_79.mp4	0.0	334.7138729095459	0.9917840957641602
74	312.01527309417725	pulse	0	t		72.0	2.5	/experiments/aot/S_yt-BAwvfRmE1LU_79.mp4	0.0	335.6974060535431	
74	312.0235240459442	movie	1		301	72.0	2.5	/experiments/aot/S_yt-BAwvfRmE1LU_79.mp4	0.0	335.70565700531006	2.508298873901367
74	313.6153380870819	pulse	1	t		72.0	2.5	/experiments/aot/S_yt-BAwvfRmE1LU_79.mp4	0.0	337.29747104644775	
74	314.5318229198456	fix_post	2		12	72.0	2.5	/experiments/aot/S_yt-BAwvfRmE1LU_79.mp4	0.0	338.2139558792114	0.09999513626098633
75	314.63181805610657	fix_pre	0		120	73.0	2.5	/experiments/aot/S_pexels-cottonbro-9063801_1.mp4	0.0	338.3139510154724	0.9999599456787109
75	315.21529603004456	pulse	0	t		73.0	2.5	/experiments/aot/S_pexels-cottonbro-9063801_1.mp4	0.0	338.8974289894104	
75	315.6317780017853	movie	1		165	73.0	2.5	/experiments/aot/S_pexels-cottonbro-9063801_1.mp4	0.0	339.3139109611511	2.5000030994415283
75	316.81528997421265	pulse	1	t		73.0	2.5	/experiments/aot/S_pexels-cottonbro-9063801_1.mp4	0.0	340.4974229335785	
75	318.1317811012268	fix_post	2		12	73.0	2.5	/experiments/aot/S_pexels-cottonbro-9063801_1.mp4	0.0	341.81391406059265	0.09984302520751953
76	318.2316241264343	fix_pre	0		120	74.0	2.5	/experiments/aot/S_ILSVRC2015_train_00457000.mp4	0.0	341.91375708580017	1.0000989437103271
76	318.4151260852814	pulse	0	t		74.0	2.5	/experiments/aot/S_ILSVRC2015_train_00457000.mp4	0.0	342.0972590446472	
76	319.23172307014465	movie	1		300	74.0	2.5	/experiments/aot/S_ILSVRC2015_train_00457000.mp4	0.0	342.9138560295105	2.5000109672546387
76	320.01521396636963	pulse	1	t		74.0	2.5	/experiments/aot/S_ILSVRC2015_train_00457000.mp4	0.0	343.6973469257355	
76	321.6148190498352	pulse	1	t		74.0	2.5	/experiments/aot/S_ILSVRC2015_train_00457000.mp4	0.0	345.29695200920105	
76	321.7317340373993	fix_post	2		12	74.0	2.5	/experiments/aot/S_ILSVRC2015_train_00457000.mp4	0.0	345.41386699676514	0.0999441146850586
77	321.83167815208435	fix_pre	0		120	75.0	2.5	/experiments/aot/S_ILSVRC2015_train_00396000.mp4	0.0	345.5138111114502	1.000004768371582
77	322.83168292045593	movie	1		300	75.0	2.5	/experiments/aot/S_ILSVRC2015_train_00396000.mp4	0.0	346.5138158798218	2.499584197998047
77	323.21519899368286	pulse	1	t		75.0	2.5	/experiments/aot/S_ILSVRC2015_train_00396000.mp4	0.0	346.8973319530487	
77	324.81471395492554	pulse	1	t		75.0	2.5	/experiments/aot/S_ILSVRC2015_train_00396000.mp4	0.0	348.4968469142914	
77	325.331267118454	fix_post	2		12	75.0	2.5	/experiments/aot/S_ILSVRC2015_train_00396000.mp4	0.0	349.0134000778198	0.09998798370361328
78	325.4312551021576	fix_pre	0		119	76.0	2.5	/experiments/aot/R_S_yt-HFiRYTnMZxE_338.mp4	0.0	349.11338806152344	0.9921958446502686
78	326.4148950576782	pulse	0	t		76.0	2.5	/experiments/aot/R_S_yt-HFiRYTnMZxE_338.mp4	0.0	350.09702801704407	
78	326.42345094680786	movie	1		301	76.0	2.5	/experiments/aot/R_S_yt-HFiRYTnMZxE_338.mp4	0.0	350.1055839061737	2.508256196975708
78	328.01545095443726	pulse	1	t		76.0	2.5	/experiments/aot/R_S_yt-HFiRYTnMZxE_338.mp4	0.0	351.6975839138031	
78	328.93170714378357	fix_post	2		12	76.0	2.5	/experiments/aot/R_S_yt-HFiRYTnMZxE_338.mp4	0.0	352.6138401031494	0.09999299049377441
79	329.03170013427734	fix_pre	0		120	77.0	2.5	blank	1.0	352.7138330936432	0.999985933303833
79	329.61526107788086	pulse	0	t		77.0	2.5	blank	1.0	353.2973940372467	
79	330.0316860675812	movie	1		300	77.0	2.5	blank	1.0	353.713819026947	2.499974012374878
79	331.2151939868927	pulse	1	t		77.0	2.5	blank	1.0	354.89732694625854	
79	332.53166007995605	fix_post	2		12	77.0	2.5	blank	1.0	356.2137930393219	0.0999908447265625
80	332.6316509246826	fix_pre	0		120	78.0	2.5	/experiments/aot/R_S_yt-YOLaQ53ooks_195.mp4	0.0	356.31378388404846	0.9999771118164062
80	332.8151409626007	pulse	0	t		78.0	2.5	/experiments/aot/R_S_yt-YOLaQ53ooks_195.mp4	0.0	356.49727392196655	
80	333.631628036499	movie	1		300	78.0	2.5	/experiments/aot/R_S_yt-YOLaQ53ooks_195.mp4	0.0	357.31376099586487	2.500006914138794
80	334.4150609970093	pulse	1	t		78.0	2.5	/experiments/aot/R_S_yt-YOLaQ53ooks_195.mp4	0.0	358.0971939563751	
80	336.01511096954346	pulse	1	t		78.0	2.5	/experiments/aot/R_S_yt-YOLaQ53ooks_195.mp4	0.0	359.6972439289093	
80	336.1316349506378	fix_post	2		12	78.0	2.5	/experiments/aot/R_S_yt-YOLaQ53ooks_195.mp4	0.0	359.81376791000366	0.09996604919433594
81	336.23160099983215	fix_pre	0		120	79.0	2.5	/experiments/aot/R_S_yt-IC62JSYpq9w_71.mp4	0.0	359.913733959198	1.0000030994415283
81	337.2316040992737	movie	1		299	79.0	2.5	/experiments/aot/R_S_yt-IC62JSYpq9w_71.mp4	0.0	360.9137370586395	2.4999840259552
81	337.6150441169739	pulse	1	t		79.0	2.5	/experiments/aot/R_S_yt-IC62JSYpq9w_71.mp4	0.0	361.2971770763397	
81	339.21510910987854	pulse	1	t		79.0	2.5	/experiments/aot/R_S_yt-IC62JSYpq9w_71.mp4	0.0	362.8972420692444	
81	339.7315881252289	fix_post	2		12	79.0	2.5	/experiments/aot/R_S_yt-IC62JSYpq9w_71.mp4	0.0	363.4137210845947	0.10004997253417969
82	339.83163809776306	fix_pre	0		119	80.0	2.5	/experiments/aot/S_yt-H45g6700wbc_159.mp4	0.0	363.5137710571289	0.9916419982910156
82	340.8150360584259	pulse	0	t		80.0	2.5	/experiments/aot/S_yt-H45g6700wbc_159.mp4	0.0	364.49716901779175	
82	340.8232800960541	movie	1		301	80.0	2.5	/experiments/aot/S_yt-H45g6700wbc_159.mp4	0.0	364.5054130554199	2.5083658695220947
82	342.4151120185852	pulse	1	t		80.0	2.5	/experiments/aot/S_yt-H45g6700wbc_159.mp4	0.0	366.09724497795105	
82	343.3316459655762	fix_post	2		12	80.0	2.5	/experiments/aot/S_yt-H45g6700wbc_159.mp4	0.0	367.013778924942	0.0999600887298584
83	343.43160605430603	fix_pre	0		120	81.0	2.5	/experiments/aot/R_S_yt-Xkx53mjgj2E_30.mp4	0.0	367.1137390136719	1.000040054321289
83	344.01510214805603	pulse	0	t		81.0	2.5	/experiments/aot/R_S_yt-Xkx53mjgj2E_30.mp4	0.0	367.6972351074219	
83	344.4316461086273	movie	1		300	81.0	2.5	/experiments/aot/R_S_yt-Xkx53mjgj2E_30.mp4	0.0	368.11377906799316	2.4999818801879883
83	345.61504197120667	pulse	1	t		81.0	2.5	/experiments/aot/R_S_yt-Xkx53mjgj2E_30.mp4	0.0	369.2971749305725	
83	346.9316279888153	fix_post	2		12	81.0	2.5	/experiments/aot/R_S_yt-Xkx53mjgj2E_30.mp4	0.0	370.61376094818115	0.09995698928833008
84	347.03158497810364	fix_pre	0		120	82.0	2.5	/experiments/aot/S_yt-hDYtYKUsVE4_120.mp4	0.0	370.7137179374695	0.9999041557312012
84	347.2150740623474	pulse	0	t		82.0	2.5	/experiments/aot/S_yt-hDYtYKUsVE4_120.mp4	0.0	370.89720702171326	
84	348.03148913383484	movie	1		299	82.0	2.5	/experiments/aot/S_yt-hDYtYKUsVE4_120.mp4	0.0	371.7136220932007	2.5000498294830322
84	348.8149690628052	pulse	1	t		82.0	2.5	/experiments/aot/S_yt-hDYtYKUsVE4_120.mp4	0.0	372.497102022171	
84	350.41510105133057	pulse	1	t		82.0	2.5	/experiments/aot/S_yt-hDYtYKUsVE4_120.mp4	0.0	374.0972340106964	
84	350.53153896331787	fix_post	2		12	82.0	2.5	/experiments/aot/S_yt-hDYtYKUsVE4_120.mp4	0.0	374.2136719226837	0.10008811950683594
85	350.6316270828247	fix_pre	0		120	83.0	2.5	blank	1.0	374.31376004219055	1.0000150203704834
85	351.6316421031952	movie	1		300	83.0	2.5	blank	1.0	375.31377506256104	2.4998838901519775
85	352.01506304740906	pulse	1	t		83.0	2.5	blank	1.0	375.6971960067749	
85	353.6150619983673	pulse	1	t		83.0	2.5	blank	1.0	377.29719495773315	
85	354.13152599334717	fix_post	2		12	83.0	2.5	blank	1.0	377.813658952713	0.10008692741394043
87	354.2316129207611	stim	0		1716					377.91374588012695	14.29993200302124
87	355.2150990962982	pulse	0	t						378.89723205566406	
87	356.8150119781494	pulse	0	t						380.49714493751526	
87	358.4149799346924	pulse	0	t						382.0971128940582	
87	360.0150101184845	pulse	0	t						383.69714307785034	
87	361.6149950027466	pulse	0	t						385.2971279621124	
87	363.21501302719116	pulse	0	t						386.897145986557	
87	364.8151090145111	pulse	0	t						388.49724197387695	
87	366.4150040149689	pulse	0	t						390.0971369743347	
87	368.014967918396	pulse	0	t						391.69710087776184	
