trial_nr	onset	event_type	phase	response	nr_frames	movie_index	movie_duration	movie_file	blank	onset_abs	duration
0	0.18306899070739746	stim	0		91					26.46743607521057	0.7584640979766846
0	0.933661937713623	response	0	space						27.218029022216797	
1	0.941533088684082	stim	0		4518					27.225900173187256	37.66764998435974
1	38.59437298774719	pulse	0	t						64.87874007225037	
1	38.60918307304382	stim	1		1715					64.893550157547	14.298449993133545
1	40.18928003311157	pulse	1	t						66.47364711761475	
1	41.78957200050354	pulse	1	t						68.07393908500671	
1	43.38976192474365	pulse	1	t						69.67412900924683	
1	44.99004507064819	pulse	1	t						71.27441215515137	
1	46.59021711349487	pulse	1	t						72.87458419799805	
1	48.19046211242676	pulse	1	t						74.47482919692993	
1	49.790645122528076	pulse	1	t						76.07501220703125	
1	51.39098906517029	pulse	1	t						77.67535614967346	
2	52.90763306617737	fix_pre	0		11	0.0	2.5	/experiments/knapen_AOT/AOT_stimuli/rescaled_final/1981_rv.mp4	0.0	79.19200015068054	0.09168505668640137
2	52.99115800857544	pulse	0	t		0.0	2.5	/experiments/knapen_AOT/AOT_stimuli/rescaled_final/1981_rv.mp4	0.0	79.27552509307861	
2	52.99931812286377	movie	1		243	0.0	2.5	/experiments/knapen_AOT/AOT_stimuli/rescaled_final/1981_rv.mp4	0.0	79.28368520736694	2.5087599754333496
2	54.592190980911255	pulse	1	t		0.0	2.5	/experiments/knapen_AOT/AOT_stimuli/rescaled_final/1981_rv.mp4	0.0	80.87655806541443	
2	55.50807809829712	fix_post	2		12	0.0	2.5	/experiments/knapen_AOT/AOT_stimuli/rescaled_final/1981_rv.mp4	0.0	81.7924451828003	0.09996986389160156
3	55.60804796218872	fix_pre	0		120	1.0	2.5	/experiments/knapen_AOT/AOT_stimuli/rescaled_final/0173_fw.mp4	0.0	81.8924150466919	1.0008771419525146
3	56.19169807434082	pulse	0	t		1.0	2.5	/experiments/knapen_AOT/AOT_stimuli/rescaled_final/0173_fw.mp4	0.0	82.476065158844	
3	56.608925104141235	movie	1		242	1.0	2.5	/experiments/knapen_AOT/AOT_stimuli/rescaled_final/0173_fw.mp4	0.0	82.89329218864441	2.4996819496154785
3	57.79196500778198	pulse	1	t		1.0	2.5	/experiments/knapen_AOT/AOT_stimuli/rescaled_final/0173_fw.mp4	0.0	84.07633209228516	
3	59.108607053756714	fix_post	2		12	1.0	2.5	/experiments/knapen_AOT/AOT_stimuli/rescaled_final/0173_fw.mp4	0.0	85.39297413825989	0.09995889663696289
4	59.20856595039368	fix_pre	0		120	2.0	2.5	/experiments/knapen_AOT/AOT_stimuli/rescaled_final/1627_rv.mp4	0.0	85.49293303489685	1.0002210140228271
4	59.392229080200195	pulse	0	t		2.0	2.5	/experiments/knapen_AOT/AOT_stimuli/rescaled_final/1627_rv.mp4	0.0	85.67659616470337	
4	60.208786964416504	movie	1		243	2.0	2.5	/experiments/knapen_AOT/AOT_stimuli/rescaled_final/1627_rv.mp4	0.0	86.49315404891968	2.5003299713134766
4	60.99235391616821	pulse	1	t		2.0	2.5	/experiments/knapen_AOT/AOT_stimuli/rescaled_final/1627_rv.mp4	0.0	87.27672100067139	
4	62.592812061309814	pulse	1	t		2.0	2.5	/experiments/knapen_AOT/AOT_stimuli/rescaled_final/1627_rv.mp4	0.0	88.87717914581299	
4	62.70911693572998	fix_post	2		12	2.0	2.5	/experiments/knapen_AOT/AOT_stimuli/rescaled_final/1627_rv.mp4	0.0	88.99348402023315	0.10000109672546387
5	62.809118032455444	fix_pre	0		120	3.0	2.5	/experiments/knapen_AOT/AOT_stimuli/rescaled_final/1559_fw.mp4	0.0	89.09348511695862	1.0001599788665771
5	63.80927801132202	movie	1		243	3.0	2.5	/experiments/knapen_AOT/AOT_stimuli/rescaled_final/1559_fw.mp4	0.0	90.0936450958252	2.4920380115509033
5	64.19680094718933	pulse	1	t		3.0	2.5	/experiments/knapen_AOT/AOT_stimuli/rescaled_final/1559_fw.mp4	0.0	90.4811680316925	
5	65.7930269241333	pulse	1	t		3.0	2.5	/experiments/knapen_AOT/AOT_stimuli/rescaled_final/1559_fw.mp4	0.0	92.07739400863647	
5	66.30131602287292	fix_post	2		12	3.0	2.5	/experiments/knapen_AOT/AOT_stimuli/rescaled_final/1559_fw.mp4	0.0	92.5856831073761	0.09997701644897461
6	66.4012930393219	fix_pre	0		120	4.0	2.5	/experiments/knapen_AOT/AOT_stimuli/rescaled_final/1364_fw.mp4	0.0	92.68566012382507	1.0001740455627441
6	67.39342713356018	pulse	0	t		4.0	2.5	/experiments/knapen_AOT/AOT_stimuli/rescaled_final/1364_fw.mp4	0.0	93.67779421806335	
6	67.40146708488464	movie	1		246	4.0	2.5	/experiments/knapen_AOT/AOT_stimuli/rescaled_final/1364_fw.mp4	0.0	93.68583416938782	2.508704900741577
6	68.99472212791443	pulse	1	t		4.0	2.5	/experiments/knapen_AOT/AOT_stimuli/rescaled_final/1364_fw.mp4	0.0	95.2790892124176	
6	69.91017198562622	fix_post	2		12	4.0	2.5	/experiments/knapen_AOT/AOT_stimuli/rescaled_final/1364_fw.mp4	0.0	96.1945390701294	0.1000831127166748
7	70.0102550983429	fix_pre	0		120	5.0	2.5	/experiments/knapen_AOT/AOT_stimuli/rescaled_final/0342_fw.mp4	0.0	96.29462218284607	1.0000848770141602
7	70.59381103515625	pulse	0	t		5.0	2.5	/experiments/knapen_AOT/AOT_stimuli/rescaled_final/0342_fw.mp4	0.0	96.87817811965942	
7	71.01033997535706	movie	1		244	5.0	2.5	/experiments/knapen_AOT/AOT_stimuli/rescaled_final/0342_fw.mp4	0.0	97.29470705986023	2.5005030632019043
7	72.19417691230774	pulse	1	t		5.0	2.5	/experiments/knapen_AOT/AOT_stimuli/rescaled_final/0342_fw.mp4	0.0	98.47854399681091	
7	73.51084303855896	fix_post	2		12	5.0	2.5	/experiments/knapen_AOT/AOT_stimuli/rescaled_final/0342_fw.mp4	0.0	99.79521012306213	0.09989500045776367
8	73.61073803901672	fix_pre	0		120	6.0	2.5	/experiments/knapen_AOT/AOT_stimuli/rescaled_final/1042_rv.mp4	0.0	99.8951051235199	1.0001471042633057
8	73.79431796073914	pulse	0	t		6.0	2.5	/experiments/knapen_AOT/AOT_stimuli/rescaled_final/1042_rv.mp4	0.0	100.07868504524231	
8	74.61088514328003	movie	1		246	6.0	2.5	/experiments/knapen_AOT/AOT_stimuli/rescaled_final/1042_rv.mp4	0.0	100.8952522277832	2.5003459453582764
8	75.3946840763092	pulse	1	t		6.0	2.5	/experiments/knapen_AOT/AOT_stimuli/rescaled_final/1042_rv.mp4	0.0	101.67905116081238	
8	76.99489498138428	pulse	1	t		6.0	2.5	/experiments/knapen_AOT/AOT_stimuli/rescaled_final/1042_rv.mp4	0.0	103.27926206588745	
8	77.1112310886383	fix_post	2		12	6.0	2.5	/experiments/knapen_AOT/AOT_stimuli/rescaled_final/1042_rv.mp4	0.0	103.39559817314148	0.10003185272216797
9	77.21126294136047	fix_pre	0		120	7.0	2.5	blank	1.0	103.49563002586365	1.0001351833343506
9	78.21139812469482	movie	1		299	7.0	2.5	blank	1.0	104.495765209198	2.492079973220825
9	78.5949981212616	pulse	1	t		7.0	2.5	blank	1.0	104.87936520576477	
9	80.19524192810059	pulse	1	t		7.0	2.5	blank	1.0	106.47960901260376	
9	80.70347809791565	fix_post	2		12	7.0	2.5	blank	1.0	106.98784518241882	0.09995603561401367
10	80.80343413352966	fix_pre	0		120	8.0	2.5	/experiments/knapen_AOT/AOT_stimuli/rescaled_final/2073_rv.mp4	0.0	107.08780121803284	1.0002238750457764
10	81.79558396339417	pulse	0	t		8.0	2.5	/experiments/knapen_AOT/AOT_stimuli/rescaled_final/2073_rv.mp4	0.0	108.07995104789734	
10	81.80365800857544	movie	1		245	8.0	2.5	/experiments/knapen_AOT/AOT_stimuli/rescaled_final/2073_rv.mp4	0.0	108.08802509307861	2.508687973022461
10	83.39629697799683	pulse	1	t		8.0	2.5	/experiments/knapen_AOT/AOT_stimuli/rescaled_final/2073_rv.mp4	0.0	109.6806640625	
10	84.3123459815979	fix_post	2		12	8.0	2.5	/experiments/knapen_AOT/AOT_stimuli/rescaled_final/2073_rv.mp4	0.0	110.59671306610107	0.10001397132873535
11	84.41235995292664	fix_pre	0		120	9.0	2.5	/experiments/knapen_AOT/AOT_stimuli/rescaled_final/1436_rv.mp4	0.0	110.69672703742981	1.0001661777496338
11	84.98853206634521	pulse	0	t		9.0	2.5	/experiments/knapen_AOT/AOT_stimuli/rescaled_final/1436_rv.mp4	0.0	111.27289915084839	
11	85.41252613067627	movie	1		244	9.0	2.5	/experiments/knapen_AOT/AOT_stimuli/rescaled_final/1436_rv.mp4	0.0	111.69689321517944	2.5003609657287598
11	86.5886459350586	pulse	1	t		9.0	2.5	/experiments/knapen_AOT/AOT_stimuli/rescaled_final/1436_rv.mp4	0.0	112.87301301956177	
11	87.91288709640503	fix_post	2		12	9.0	2.5	/experiments/knapen_AOT/AOT_stimuli/rescaled_final/1436_rv.mp4	0.0	114.1972541809082	0.0999908447265625
12	88.01287794113159	fix_pre	0		120	10.0	2.5	/experiments/knapen_AOT/AOT_stimuli/rescaled_final/0786_rv.mp4	0.0	114.29724502563477	1.000148057937622
12	88.18897604942322	pulse	0	t		10.0	2.5	/experiments/knapen_AOT/AOT_stimuli/rescaled_final/0786_rv.mp4	0.0	114.47334313392639	
12	89.01302599906921	movie	1		244	10.0	2.5	/experiments/knapen_AOT/AOT_stimuli/rescaled_final/0786_rv.mp4	0.0	115.29739308357239	2.500443935394287
12	89.78854608535767	pulse	1	t		10.0	2.5	/experiments/knapen_AOT/AOT_stimuli/rescaled_final/0786_rv.mp4	0.0	116.07291316986084	
12	91.38854694366455	pulse	1	t		10.0	2.5	/experiments/knapen_AOT/AOT_stimuli/rescaled_final/0786_rv.mp4	0.0	117.67291402816772	
12	91.5134699344635	fix_post	2		12	10.0	2.5	/experiments/knapen_AOT/AOT_stimuli/rescaled_final/0786_rv.mp4	0.0	117.79783701896667	0.10001611709594727
13	91.61348605155945	fix_pre	0		120	11.0	2.5	/experiments/knapen_AOT/AOT_stimuli/rescaled_final/0657_rv.mp4	0.0	117.89785313606262	1.0000779628753662
13	92.61356401443481	movie	1		243	11.0	2.5	/experiments/knapen_AOT/AOT_stimuli/rescaled_final/0657_rv.mp4	0.0	118.89793109893799	2.492058038711548
13	92.98882007598877	pulse	1	t		11.0	2.5	/experiments/knapen_AOT/AOT_stimuli/rescaled_final/0657_rv.mp4	0.0	119.27318716049194	
13	94.58914113044739	pulse	1	t		11.0	2.5	/experiments/knapen_AOT/AOT_stimuli/rescaled_final/0657_rv.mp4	0.0	120.87350821495056	
13	95.10562205314636	fix_post	2		12	11.0	2.5	/experiments/knapen_AOT/AOT_stimuli/rescaled_final/0657_rv.mp4	0.0	121.38998913764954	0.1000220775604248
14	95.20564413070679	fix_pre	0		119	12.0	2.5	/experiments/knapen_AOT/AOT_stimuli/rescaled_final/0248_rv.mp4	0.0	121.49001121520996	0.9918467998504639
14	96.18926501274109	pulse	0	t		12.0	2.5	/experiments/knapen_AOT/AOT_stimuli/rescaled_final/0248_rv.mp4	0.0	122.47363209724426	
14	96.19749093055725	movie	1		245	12.0	2.5	/experiments/knapen_AOT/AOT_stimuli/rescaled_final/0248_rv.mp4	0.0	122.48185801506042	2.508669137954712
14	97.79056406021118	pulse	1	t		12.0	2.5	/experiments/knapen_AOT/AOT_stimuli/rescaled_final/0248_rv.mp4	0.0	124.07493114471436	
14	98.70616006851196	fix_post	2		12	12.0	2.5	/experiments/knapen_AOT/AOT_stimuli/rescaled_final/0248_rv.mp4	0.0	124.99052715301514	0.09999394416809082
15	98.80615401268005	fix_pre	0		120	13.0	2.5	blank	1.0	125.09052109718323	1.0001850128173828
15	99.38985204696655	pulse	0	t		13.0	2.5	blank	1.0	125.67421913146973	
15	99.80633902549744	movie	1		300	13.0	2.5	blank	1.0	126.09070611000061	2.5003418922424316
15	100.9899799823761	pulse	1	t		13.0	2.5	blank	1.0	127.27434706687927	
15	102.30668091773987	fix_post	2		12	13.0	2.5	blank	1.0	128.59104800224304	0.10001111030578613
16	102.40669202804565	fix_pre	0		120	14.0	2.5	/experiments/knapen_AOT/AOT_stimuli/rescaled_final/0672_fw.mp4	0.0	128.69105911254883	1.0001420974731445
16	102.59020709991455	pulse	0	t		14.0	2.5	/experiments/knapen_AOT/AOT_stimuli/rescaled_final/0672_fw.mp4	0.0	128.87457418441772	
16	103.4068341255188	movie	1		243	14.0	2.5	/experiments/knapen_AOT/AOT_stimuli/rescaled_final/0672_fw.mp4	0.0	129.69120121002197	2.5003929138183594
16	104.19051003456116	pulse	1	t		14.0	2.5	/experiments/knapen_AOT/AOT_stimuli/rescaled_final/0672_fw.mp4	0.0	130.47487711906433	
16	105.79063892364502	pulse	1	t		14.0	2.5	/experiments/knapen_AOT/AOT_stimuli/rescaled_final/0672_fw.mp4	0.0	132.0750060081482	
16	105.90722703933716	fix_post	2		12	14.0	2.5	/experiments/knapen_AOT/AOT_stimuli/rescaled_final/0672_fw.mp4	0.0	132.19159412384033	0.0999760627746582
17	106.00720310211182	fix_pre	0		119	15.0	2.5	/experiments/knapen_AOT/AOT_stimuli/rescaled_final/1802_rv.mp4	0.0	132.291570186615	0.9918379783630371
17	106.99904108047485	movie	1		243	15.0	2.5	/experiments/knapen_AOT/AOT_stimuli/rescaled_final/1802_rv.mp4	0.0	133.28340816497803	2.5004279613494873
17	107.39112305641174	pulse	1	t		15.0	2.5	/experiments/knapen_AOT/AOT_stimuli/rescaled_final/1802_rv.mp4	0.0	133.67549014091492	
17	108.99116706848145	pulse	1	t		15.0	2.5	/experiments/knapen_AOT/AOT_stimuli/rescaled_final/1802_rv.mp4	0.0	135.27553415298462	
17	109.49946904182434	fix_post	2		12	15.0	2.5	/experiments/knapen_AOT/AOT_stimuli/rescaled_final/1802_rv.mp4	0.0	135.78383612632751	0.09994888305664062
18	109.59941792488098	fix_pre	0		120	16.0	2.5	/experiments/knapen_AOT/AOT_stimuli/rescaled_final/2127_rv.mp4	0.0	135.88378500938416	1.0002021789550781
18	110.59147095680237	pulse	0	t		16.0	2.5	/experiments/knapen_AOT/AOT_stimuli/rescaled_final/2127_rv.mp4	0.0	136.87583804130554	
18	110.59962010383606	movie	1		249	16.0	2.5	/experiments/knapen_AOT/AOT_stimuli/rescaled_final/2127_rv.mp4	0.0	136.88398718833923	2.508638858795166
18	112.19213008880615	pulse	1	t		16.0	2.5	/experiments/knapen_AOT/AOT_stimuli/rescaled_final/2127_rv.mp4	0.0	138.47649717330933	
18	113.10825896263123	fix_post	2		12	16.0	2.5	/experiments/knapen_AOT/AOT_stimuli/rescaled_final/2127_rv.mp4	0.0	139.3926260471344	0.10001301765441895
19	113.20827198028564	fix_pre	0		120	17.0	2.5	/experiments/knapen_AOT/AOT_stimuli/rescaled_final/1786_rv.mp4	0.0	139.49263906478882	1.0001940727233887
19	113.79203510284424	pulse	0	t		17.0	2.5	/experiments/knapen_AOT/AOT_stimuli/rescaled_final/1786_rv.mp4	0.0	140.0764021873474	
19	114.20846605300903	movie	1		243	17.0	2.5	/experiments/knapen_AOT/AOT_stimuli/rescaled_final/1786_rv.mp4	0.0	140.4928331375122	2.5003578662872314
19	115.39230012893677	pulse	1	t		17.0	2.5	/experiments/knapen_AOT/AOT_stimuli/rescaled_final/1786_rv.mp4	0.0	141.67666721343994	
19	116.70882391929626	fix_post	2		12	17.0	2.5	/experiments/knapen_AOT/AOT_stimuli/rescaled_final/1786_rv.mp4	0.0	142.99319100379944	0.10003399848937988
20	116.80885791778564	fix_pre	0		120	18.0	2.5	/experiments/knapen_AOT/AOT_stimuli/rescaled_final/1698_rv.mp4	0.0	143.09322500228882	1.0001511573791504
20	116.99247694015503	pulse	0	t		18.0	2.5	/experiments/knapen_AOT/AOT_stimuli/rescaled_final/1698_rv.mp4	0.0	143.2768440246582	
20	117.8090090751648	movie	1		245	18.0	2.5	/experiments/knapen_AOT/AOT_stimuli/rescaled_final/1698_rv.mp4	0.0	144.09337615966797	2.5003879070281982
20	118.59274792671204	pulse	1	t		18.0	2.5	/experiments/knapen_AOT/AOT_stimuli/rescaled_final/1698_rv.mp4	0.0	144.8771150112152	
20	120.19309306144714	pulse	1	t		18.0	2.5	/experiments/knapen_AOT/AOT_stimuli/rescaled_final/1698_rv.mp4	0.0	146.47746014595032	
20	120.309396982193	fix_post	2		12	18.0	2.5	/experiments/knapen_AOT/AOT_stimuli/rescaled_final/1698_rv.mp4	0.0	146.59376406669617	0.0999600887298584
21	120.40935707092285	fix_pre	0		120	19.0	2.5	blank	1.0	146.69372415542603	1.0001459121704102
21	121.40950298309326	movie	1		299	19.0	2.5	blank	1.0	147.69387006759644	2.4920730590820312
21	121.79313707351685	pulse	1	t		19.0	2.5	blank	1.0	148.07750415802002	
21	123.393306016922	pulse	1	t		19.0	2.5	blank	1.0	149.67767310142517	
21	123.9015760421753	fix_post	2		12	19.0	2.5	blank	1.0	150.18594312667847	0.10004687309265137
22	124.00162291526794	fix_pre	0		120	20.0	2.5	/experiments/knapen_AOT/AOT_stimuli/rescaled_final/1640_fw.mp4	0.0	150.28598999977112	1.0001511573791504
22	124.99359011650085	pulse	0	t		20.0	2.5	/experiments/knapen_AOT/AOT_stimuli/rescaled_final/1640_fw.mp4	0.0	151.27795720100403	
22	125.0017740726471	movie	1		244	20.0	2.5	/experiments/knapen_AOT/AOT_stimuli/rescaled_final/1640_fw.mp4	0.0	151.28614115715027	2.508697032928467
22	126.59450697898865	pulse	1	t		20.0	2.5	/experiments/knapen_AOT/AOT_stimuli/rescaled_final/1640_fw.mp4	0.0	152.87887406349182	
22	127.51047110557556	fix_post	2		12	20.0	2.5	/experiments/knapen_AOT/AOT_stimuli/rescaled_final/1640_fw.mp4	0.0	153.79483819007874	0.0999908447265625
23	127.61046195030212	fix_pre	0		120	21.0	2.5	/experiments/knapen_AOT/AOT_stimuli/rescaled_final/0363_rv.mp4	0.0	153.8948290348053	1.0002880096435547
23	128.19412302970886	pulse	0	t		21.0	2.5	/experiments/knapen_AOT/AOT_stimuli/rescaled_final/0363_rv.mp4	0.0	154.47849011421204	
23	128.61074995994568	movie	1		246	21.0	2.5	/experiments/knapen_AOT/AOT_stimuli/rescaled_final/0363_rv.mp4	0.0	154.89511704444885	2.500257968902588
23	129.79439902305603	pulse	1	t		21.0	2.5	/experiments/knapen_AOT/AOT_stimuli/rescaled_final/0363_rv.mp4	0.0	156.0787661075592	
23	131.11100792884827	fix_post	2		12	21.0	2.5	/experiments/knapen_AOT/AOT_stimuli/rescaled_final/0363_rv.mp4	0.0	157.39537501335144	0.09994816780090332
24	131.21095609664917	fix_pre	0		120	22.0	2.5	/experiments/knapen_AOT/AOT_stimuli/rescaled_final/1414_fw.mp4	0.0	157.49532318115234	1.0002119541168213
24	131.3945541381836	pulse	0	t		22.0	2.5	/experiments/knapen_AOT/AOT_stimuli/rescaled_final/1414_fw.mp4	0.0	157.67892122268677	
24	132.211168050766	movie	1		244	22.0	2.5	/experiments/knapen_AOT/AOT_stimuli/rescaled_final/1414_fw.mp4	0.0	158.49553513526917	2.5003390312194824
24	132.99491691589355	pulse	1	t		22.0	2.5	/experiments/knapen_AOT/AOT_stimuli/rescaled_final/1414_fw.mp4	0.0	159.27928400039673	
24	134.59716606140137	pulse	1	t		22.0	2.5	/experiments/knapen_AOT/AOT_stimuli/rescaled_final/1414_fw.mp4	0.0	160.88153314590454	
24	134.71150708198547	fix_post	2		12	22.0	2.5	/experiments/knapen_AOT/AOT_stimuli/rescaled_final/1414_fw.mp4	0.0	160.99587416648865	0.10001397132873535
25	134.8115210533142	fix_pre	0		120	23.0	2.5	/experiments/knapen_AOT/AOT_stimuli/rescaled_final/1821_fw.mp4	0.0	161.09588813781738	1.0001850128173828
25	135.8117060661316	movie	1		246	23.0	2.5	/experiments/knapen_AOT/AOT_stimuli/rescaled_final/1821_fw.mp4	0.0	162.09607315063477	2.492128849029541
25	136.19668197631836	pulse	1	t		23.0	2.5	/experiments/knapen_AOT/AOT_stimuli/rescaled_final/1821_fw.mp4	0.0	162.48104906082153	
25	137.7955629825592	pulse	1	t		23.0	2.5	/experiments/knapen_AOT/AOT_stimuli/rescaled_final/1821_fw.mp4	0.0	164.07993006706238	
25	138.30383491516113	fix_post	2		12	23.0	2.5	/experiments/knapen_AOT/AOT_stimuli/rescaled_final/1821_fw.mp4	0.0	164.5882019996643	0.09989118576049805
26	138.40372610092163	fix_pre	0		120	24.0	2.5	/experiments/knapen_AOT/AOT_stimuli/rescaled_final/1606_fw.mp4	0.0	164.6880931854248	1.0001509189605713
26	139.39585614204407	pulse	0	t		24.0	2.5	/experiments/knapen_AOT/AOT_stimuli/rescaled_final/1606_fw.mp4	0.0	165.68022322654724	
26	139.4038770198822	movie	1		245	24.0	2.5	/experiments/knapen_AOT/AOT_stimuli/rescaled_final/1606_fw.mp4	0.0	165.68824410438538	2.508721113204956
26	140.99669003486633	pulse	1	t		24.0	2.5	/experiments/knapen_AOT/AOT_stimuli/rescaled_final/1606_fw.mp4	0.0	167.2810571193695	
26	141.91259813308716	fix_post	2		12	24.0	2.5	/experiments/knapen_AOT/AOT_stimuli/rescaled_final/1606_fw.mp4	0.0	168.19696521759033	0.09999799728393555
27	142.0125961303711	fix_pre	0		120	25.0	2.5	/experiments/knapen_AOT/AOT_stimuli/rescaled_final/0133_rv.mp4	0.0	168.29696321487427	1.0001599788665771
27	142.59622311592102	pulse	0	t		25.0	2.5	/experiments/knapen_AOT/AOT_stimuli/rescaled_final/0133_rv.mp4	0.0	168.8805902004242	
27	143.01275610923767	movie	1		244	25.0	2.5	/experiments/knapen_AOT/AOT_stimuli/rescaled_final/0133_rv.mp4	0.0	169.29712319374084	2.5004069805145264
27	144.18950295448303	pulse	1	t		25.0	2.5	/experiments/knapen_AOT/AOT_stimuli/rescaled_final/0133_rv.mp4	0.0	170.4738700389862	
27	145.5131630897522	fix_post	2		12	25.0	2.5	/experiments/knapen_AOT/AOT_stimuli/rescaled_final/0133_rv.mp4	0.0	171.79753017425537	0.09997892379760742
28	145.6131420135498	fix_pre	0		120	26.0	2.5	/experiments/knapen_AOT/AOT_stimuli/rescaled_final/0453_rv.mp4	0.0	171.89750909805298	1.0001311302185059
28	145.78936195373535	pulse	0	t		26.0	2.5	/experiments/knapen_AOT/AOT_stimuli/rescaled_final/0453_rv.mp4	0.0	172.07372903823853	
28	146.6132731437683	movie	1		245	26.0	2.5	/experiments/knapen_AOT/AOT_stimuli/rescaled_final/0453_rv.mp4	0.0	172.89764022827148	2.500450849533081
28	147.38966703414917	pulse	1	t		26.0	2.5	/experiments/knapen_AOT/AOT_stimuli/rescaled_final/0453_rv.mp4	0.0	173.67403411865234	
28	148.99478697776794	pulse	1	t		26.0	2.5	/experiments/knapen_AOT/AOT_stimuli/rescaled_final/0453_rv.mp4	0.0	175.27915406227112	
28	149.1137239933014	fix_post	2		12	26.0	2.5	/experiments/knapen_AOT/AOT_stimuli/rescaled_final/0453_rv.mp4	0.0	175.39809107780457	0.0999760627746582
29	149.21370005607605	fix_pre	0		120	27.0	2.5	/experiments/knapen_AOT/AOT_stimuli/rescaled_final/0363_rv.mp4	0.0	175.49806714057922	1.0001499652862549
29	150.2138500213623	movie	1		244	27.0	2.5	/experiments/knapen_AOT/AOT_stimuli/rescaled_final/0363_rv.mp4	0.0	176.49821710586548	2.4920389652252197
29	150.58929014205933	pulse	1	t		27.0	2.5	/experiments/knapen_AOT/AOT_stimuli/rescaled_final/0363_rv.mp4	0.0	176.8736572265625	
29	152.18950200080872	pulse	1	t		27.0	2.5	/experiments/knapen_AOT/AOT_stimuli/rescaled_final/0363_rv.mp4	0.0	178.4738690853119	
29	152.70588898658752	fix_post	2		12	27.0	2.5	/experiments/knapen_AOT/AOT_stimuli/rescaled_final/0363_rv.mp4	0.0	178.9902560710907	0.100006103515625
30	152.80589509010315	fix_pre	0		119	28.0	2.5	blank	1.0	179.09026217460632	0.9918088912963867
30	153.78959608078003	pulse	0	t		28.0	2.5	blank	1.0	180.0739631652832	
30	153.79770398139954	movie	1		301	28.0	2.5	blank	1.0	180.0820710659027	2.508742094039917
30	155.38978910446167	pulse	1	t		28.0	2.5	blank	1.0	181.67415618896484	
30	156.30644607543945	fix_post	2		12	28.0	2.5	blank	1.0	182.59081315994263	0.09997296333312988
31	156.40641903877258	fix_pre	0		120	29.0	2.5	/experiments/knapen_AOT/AOT_stimuli/rescaled_final/1640_rv.mp4	0.0	182.69078612327576	1.000227928161621
31	156.9899971485138	pulse	0	t		29.0	2.5	/experiments/knapen_AOT/AOT_stimuli/rescaled_final/1640_rv.mp4	0.0	183.27436423301697	
31	157.4066469669342	movie	1		244	29.0	2.5	/experiments/knapen_AOT/AOT_stimuli/rescaled_final/1640_rv.mp4	0.0	183.69101405143738	2.500336170196533
31	158.59040307998657	pulse	1	t		29.0	2.5	/experiments/knapen_AOT/AOT_stimuli/rescaled_final/1640_rv.mp4	0.0	184.87477016448975	
31	159.90698313713074	fix_post	2		12	29.0	2.5	/experiments/knapen_AOT/AOT_stimuli/rescaled_final/1640_rv.mp4	0.0	186.1913502216339	0.10000491142272949
32	160.00698804855347	fix_pre	0		120	30.0	2.5	/experiments/knapen_AOT/AOT_stimuli/rescaled_final/0112_fw.mp4	0.0	186.29135513305664	1.0001230239868164
32	160.19054913520813	pulse	0	t		30.0	2.5	/experiments/knapen_AOT/AOT_stimuli/rescaled_final/0112_fw.mp4	0.0	186.4749162197113	
32	161.00711107254028	movie	1		246	30.0	2.5	/experiments/knapen_AOT/AOT_stimuli/rescaled_final/0112_fw.mp4	0.0	187.29147815704346	2.5004029273986816
32	161.79081511497498	pulse	1	t		30.0	2.5	/experiments/knapen_AOT/AOT_stimuli/rescaled_final/0112_fw.mp4	0.0	188.07518219947815	
32	163.3910210132599	pulse	1	t		30.0	2.5	/experiments/knapen_AOT/AOT_stimuli/rescaled_final/0112_fw.mp4	0.0	189.67538809776306	
32	163.50751399993896	fix_post	2		12	30.0	2.5	/experiments/knapen_AOT/AOT_stimuli/rescaled_final/0112_fw.mp4	0.0	189.79188108444214	0.09998893737792969
33	163.6075029373169	fix_pre	0		120	31.0	2.5	/experiments/knapen_AOT/AOT_stimuli/rescaled_final/1158_rv.mp4	0.0	189.89187002182007	1.0002050399780273
33	164.60770797729492	movie	1		244	31.0	2.5	/experiments/knapen_AOT/AOT_stimuli/rescaled_final/1158_rv.mp4	0.0	190.8920750617981	2.491971015930176
33	164.99219298362732	pulse	1	t		31.0	2.5	/experiments/knapen_AOT/AOT_stimuli/rescaled_final/1158_rv.mp4	0.0	191.2765600681305	
33	166.59162497520447	pulse	1	t		31.0	2.5	/experiments/knapen_AOT/AOT_stimuli/rescaled_final/1158_rv.mp4	0.0	192.87599205970764	
33	167.0996789932251	fix_post	2		12	31.0	2.5	/experiments/knapen_AOT/AOT_stimuli/rescaled_final/1158_rv.mp4	0.0	193.38404607772827	0.10001397132873535
34	167.19969296455383	fix_pre	0		120	32.0	2.5	/experiments/knapen_AOT/AOT_stimuli/rescaled_final/0816_rv.mp4	0.0	193.484060049057	1.0001599788665771
34	168.1917281150818	pulse	0	t		32.0	2.5	/experiments/knapen_AOT/AOT_stimuli/rescaled_final/0816_rv.mp4	0.0	194.47609519958496	
34	168.1998529434204	movie	1		244	32.0	2.5	/experiments/knapen_AOT/AOT_stimuli/rescaled_final/0816_rv.mp4	0.0	194.48422002792358	2.508747100830078
34	169.79276394844055	pulse	1	t		32.0	2.5	/experiments/knapen_AOT/AOT_stimuli/rescaled_final/0816_rv.mp4	0.0	196.07713103294373	
34	170.7086000442505	fix_post	2		12	32.0	2.5	/experiments/knapen_AOT/AOT_stimuli/rescaled_final/0816_rv.mp4	0.0	196.99296712875366	0.09997391700744629
35	170.80857396125793	fix_pre	0		120	33.0	2.5	/experiments/knapen_AOT/AOT_stimuli/rescaled_final/0515_rv.mp4	0.0	197.0929410457611	1.0001511573791504
35	171.39215898513794	pulse	0	t		33.0	2.5	/experiments/knapen_AOT/AOT_stimuli/rescaled_final/0515_rv.mp4	0.0	197.6765260696411	
35	171.80872511863708	movie	1		245	33.0	2.5	/experiments/knapen_AOT/AOT_stimuli/rescaled_final/0515_rv.mp4	0.0	198.09309220314026	2.5004098415374756
35	172.99253606796265	pulse	1	t		33.0	2.5	/experiments/knapen_AOT/AOT_stimuli/rescaled_final/0515_rv.mp4	0.0	199.27690315246582	
35	174.30913496017456	fix_post	2		12	33.0	2.5	/experiments/knapen_AOT/AOT_stimuli/rescaled_final/0515_rv.mp4	0.0	200.59350204467773	0.09995102882385254
36	174.4090859889984	fix_pre	0		120	34.0	2.5	/experiments/knapen_AOT/AOT_stimuli/rescaled_final/1399_fw.mp4	0.0	200.6934530735016	1.0028009414672852
36	174.59281206130981	pulse	0	t		34.0	2.5	/experiments/knapen_AOT/AOT_stimuli/rescaled_final/1399_fw.mp4	0.0	200.877179145813	
36	175.4118869304657	movie	1		243	34.0	2.5	/experiments/knapen_AOT/AOT_stimuli/rescaled_final/1399_fw.mp4	0.0	201.69625401496887	2.497824192047119
36	176.19300198554993	pulse	1	t		34.0	2.5	/experiments/knapen_AOT/AOT_stimuli/rescaled_final/1399_fw.mp4	0.0	202.4773690700531	
36	177.79310512542725	pulse	1	t		34.0	2.5	/experiments/knapen_AOT/AOT_stimuli/rescaled_final/1399_fw.mp4	0.0	204.07747220993042	
36	177.90971112251282	fix_post	2		12	34.0	2.5	/experiments/knapen_AOT/AOT_stimuli/rescaled_final/1399_fw.mp4	0.0	204.194078207016	0.09994983673095703
37	178.00966095924377	fix_pre	0		120	35.0	2.5	blank	1.0	204.29402804374695	1.0001420974731445
37	179.00980305671692	movie	1		299	35.0	2.5	blank	1.0	205.2941701412201	2.4920389652252197
37	179.3934841156006	pulse	1	t		35.0	2.5	blank	1.0	205.67785120010376	
37	180.99375891685486	pulse	1	t		35.0	2.5	blank	1.0	207.27812600135803	
37	181.50184202194214	fix_post	2		12	35.0	2.5	blank	1.0	207.7862091064453	0.10000109672546387
38	181.6018431186676	fix_pre	0		120	36.0	2.5	/experiments/knapen_AOT/AOT_stimuli/rescaled_final/2127_fw.mp4	0.0	207.88621020317078	1.0001418590545654
38	182.5939531326294	pulse	0	t		36.0	2.5	/experiments/knapen_AOT/AOT_stimuli/rescaled_final/2127_fw.mp4	0.0	208.87832021713257	
38	182.60198497772217	movie	1		249	36.0	2.5	/experiments/knapen_AOT/AOT_stimuli/rescaled_final/2127_fw.mp4	0.0	208.88635206222534	2.5087521076202393
38	184.1984429359436	pulse	1	t		36.0	2.5	/experiments/knapen_AOT/AOT_stimuli/rescaled_final/2127_fw.mp4	0.0	210.48281002044678	
38	185.1107370853424	fix_post	2		12	36.0	2.5	/experiments/knapen_AOT/AOT_stimuli/rescaled_final/2127_fw.mp4	0.0	211.39510416984558	0.09999203681945801
39	185.21072912216187	fix_pre	0		120	37.0	2.5	/experiments/knapen_AOT/AOT_stimuli/rescaled_final/0810_rv.mp4	0.0	211.49509620666504	1.0001189708709717
39	185.7943389415741	pulse	0	t		37.0	2.5	/experiments/knapen_AOT/AOT_stimuli/rescaled_final/0810_rv.mp4	0.0	212.07870602607727	
39	186.21084809303284	movie	1		245	37.0	2.5	/experiments/knapen_AOT/AOT_stimuli/rescaled_final/0810_rv.mp4	0.0	212.495215177536	2.5004239082336426
39	187.39469814300537	pulse	1	t		37.0	2.5	/experiments/knapen_AOT/AOT_stimuli/rescaled_final/0810_rv.mp4	0.0	213.67906522750854	
39	188.71127200126648	fix_post	2		12	37.0	2.5	/experiments/knapen_AOT/AOT_stimuli/rescaled_final/0810_rv.mp4	0.0	214.99563908576965	0.09997797012329102
40	188.81124997138977	fix_pre	0		120	38.0	2.5	/experiments/knapen_AOT/AOT_stimuli/rescaled_final/1233_rv.mp4	0.0	215.09561705589294	1.0001630783081055
40	188.99491500854492	pulse	0	t		38.0	2.5	/experiments/knapen_AOT/AOT_stimuli/rescaled_final/1233_rv.mp4	0.0	215.2792820930481	
40	189.81141304969788	movie	1		244	38.0	2.5	/experiments/knapen_AOT/AOT_stimuli/rescaled_final/1233_rv.mp4	0.0	216.09578013420105	2.5003480911254883
40	190.5950870513916	pulse	1	t		38.0	2.5	/experiments/knapen_AOT/AOT_stimuli/rescaled_final/1233_rv.mp4	0.0	216.87945413589478	
40	192.19284391403198	pulse	1	t		38.0	2.5	/experiments/knapen_AOT/AOT_stimuli/rescaled_final/1233_rv.mp4	0.0	218.47721099853516	
40	192.31176114082336	fix_post	2		12	38.0	2.5	/experiments/knapen_AOT/AOT_stimuli/rescaled_final/1233_rv.mp4	0.0	218.59612822532654	0.10005998611450195
41	192.41182112693787	fix_pre	0		120	39.0	2.5	/experiments/knapen_AOT/AOT_stimuli/rescaled_final/0844_fw.mp4	0.0	218.69618821144104	1.000121831893921
41	193.4119429588318	movie	1		246	39.0	2.5	/experiments/knapen_AOT/AOT_stimuli/rescaled_final/0844_fw.mp4	0.0	219.69631004333496	2.492042064666748
41	193.79595398902893	pulse	1	t		39.0	2.5	/experiments/knapen_AOT/AOT_stimuli/rescaled_final/0844_fw.mp4	0.0	220.0803210735321	
41	195.39592695236206	pulse	1	t		39.0	2.5	/experiments/knapen_AOT/AOT_stimuli/rescaled_final/0844_fw.mp4	0.0	221.68029403686523	
41	195.90398502349854	fix_post	2		12	39.0	2.5	/experiments/knapen_AOT/AOT_stimuli/rescaled_final/0844_fw.mp4	0.0	222.1883521080017	0.10000395774841309
42	196.00398898124695	fix_pre	0		120	40.0	2.5	/experiments/knapen_AOT/AOT_stimuli/rescaled_final/2100_rv.mp4	0.0	222.28835606575012	1.000148057937622
42	196.98865413665771	pulse	0	t		40.0	2.5	/experiments/knapen_AOT/AOT_stimuli/rescaled_final/2100_rv.mp4	0.0	223.2730212211609	
42	197.00413703918457	movie	1		246	40.0	2.5	/experiments/knapen_AOT/AOT_stimuli/rescaled_final/2100_rv.mp4	0.0	223.28850412368774	2.5087850093841553
42	198.59747099876404	pulse	1	t		40.0	2.5	/experiments/knapen_AOT/AOT_stimuli/rescaled_final/2100_rv.mp4	0.0	224.8818380832672	
42	199.51292204856873	fix_post	2		12	40.0	2.5	/experiments/knapen_AOT/AOT_stimuli/rescaled_final/2100_rv.mp4	0.0	225.7972891330719	0.09995102882385254
43	199.61287307739258	fix_pre	0		120	41.0	2.5	blank	1.0	225.89724016189575	1.0001609325408936
43	200.1889190673828	pulse	0	t		41.0	2.5	blank	1.0	226.473286151886	
43	200.61303400993347	movie	1		300	41.0	2.5	blank	1.0	226.89740109443665	2.500359058380127
43	201.789391040802	pulse	1	t		41.0	2.5	blank	1.0	228.07375812530518	
43	203.1133930683136	fix_post	2		12	41.0	2.5	blank	1.0	229.39776015281677	0.10013699531555176
44	203.21353006362915	fix_pre	0		120	42.0	2.5	/experiments/knapen_AOT/AOT_stimuli/rescaled_final/1781_rv.mp4	0.0	229.49789714813232	1.0000560283660889
44	203.38955903053284	pulse	0	t		42.0	2.5	/experiments/knapen_AOT/AOT_stimuli/rescaled_final/1781_rv.mp4	0.0	229.673926115036	
44	204.21358609199524	movie	1		245	42.0	2.5	/experiments/knapen_AOT/AOT_stimuli/rescaled_final/1781_rv.mp4	0.0	230.4979531764984	2.5003368854522705
44	204.98899006843567	pulse	1	t		42.0	2.5	/experiments/knapen_AOT/AOT_stimuli/rescaled_final/1781_rv.mp4	0.0	231.27335715293884	
44	206.58912992477417	pulse	1	t		42.0	2.5	/experiments/knapen_AOT/AOT_stimuli/rescaled_final/1781_rv.mp4	0.0	232.87349700927734	
44	206.7139229774475	fix_post	2		12	42.0	2.5	/experiments/knapen_AOT/AOT_stimuli/rescaled_final/1781_rv.mp4	0.0	232.99829006195068	0.10001111030578613
45	206.8139340877533	fix_pre	0		119	43.0	2.5	/experiments/knapen_AOT/AOT_stimuli/rescaled_final/0844_fw.mp4	0.0	233.09830117225647	0.991919994354248
45	207.80585408210754	movie	1		246	43.0	2.5	/experiments/knapen_AOT/AOT_stimuli/rescaled_final/0844_fw.mp4	0.0	234.09022116661072	2.500288963317871
45	208.1899471282959	pulse	1	t		43.0	2.5	/experiments/knapen_AOT/AOT_stimuli/rescaled_final/0844_fw.mp4	0.0	234.47431421279907	
45	209.78962302207947	pulse	1	t		43.0	2.5	/experiments/knapen_AOT/AOT_stimuli/rescaled_final/0844_fw.mp4	0.0	236.07399010658264	
45	210.30614304542542	fix_post	2		12	43.0	2.5	/experiments/knapen_AOT/AOT_stimuli/rescaled_final/0844_fw.mp4	0.0	236.5905101299286	0.10003399848937988
46	210.4061770439148	fix_pre	0		119	44.0	2.5	/experiments/knapen_AOT/AOT_stimuli/rescaled_final/0501_fw.mp4	0.0	236.69054412841797	0.9918150901794434
46	211.38997197151184	pulse	0	t		44.0	2.5	/experiments/knapen_AOT/AOT_stimuli/rescaled_final/0501_fw.mp4	0.0	237.67433905601501	
46	211.39799213409424	movie	1		245	44.0	2.5	/experiments/knapen_AOT/AOT_stimuli/rescaled_final/0501_fw.mp4	0.0	237.6823592185974	2.508754014968872
46	212.99057292938232	pulse	1	t		44.0	2.5	/experiments/knapen_AOT/AOT_stimuli/rescaled_final/0501_fw.mp4	0.0	239.2749400138855	
46	213.9067461490631	fix_post	2		12	44.0	2.5	/experiments/knapen_AOT/AOT_stimuli/rescaled_final/0501_fw.mp4	0.0	240.19111323356628	0.09995388984680176
47	214.0067000389099	fix_pre	0		120	45.0	2.5	/experiments/knapen_AOT/AOT_stimuli/rescaled_final/1960_rv.mp4	0.0	240.2910671234131	1.0001769065856934
47	214.59025692939758	pulse	0	t		45.0	2.5	/experiments/knapen_AOT/AOT_stimuli/rescaled_final/1960_rv.mp4	0.0	240.87462401390076	
47	215.0068769454956	movie	1		244	45.0	2.5	/experiments/knapen_AOT/AOT_stimuli/rescaled_final/1960_rv.mp4	0.0	241.29124402999878	2.5003600120544434
47	216.19058799743652	pulse	1	t		45.0	2.5	/experiments/knapen_AOT/AOT_stimuli/rescaled_final/1960_rv.mp4	0.0	242.4749550819397	
47	217.50723695755005	fix_post	2		12	45.0	2.5	/experiments/knapen_AOT/AOT_stimuli/rescaled_final/1960_rv.mp4	0.0	243.79160404205322	0.09996414184570312
48	217.60720109939575	fix_pre	0		120	46.0	2.5	/experiments/knapen_AOT/AOT_stimuli/rescaled_final/0763_rv.mp4	0.0	243.89156818389893	1.000190019607544
48	217.79084992408752	pulse	0	t		46.0	2.5	/experiments/knapen_AOT/AOT_stimuli/rescaled_final/0763_rv.mp4	0.0	244.0752170085907	
48	218.6073911190033	movie	1		244	46.0	2.5	/experiments/knapen_AOT/AOT_stimuli/rescaled_final/0763_rv.mp4	0.0	244.89175820350647	2.500410795211792
48	219.39107394218445	pulse	1	t		46.0	2.5	/experiments/knapen_AOT/AOT_stimuli/rescaled_final/0763_rv.mp4	0.0	245.67544102668762	
48	220.98904705047607	pulse	1	t		46.0	2.5	/experiments/knapen_AOT/AOT_stimuli/rescaled_final/0763_rv.mp4	0.0	247.27341413497925	
48	221.1078019142151	fix_post	2		12	46.0	2.5	/experiments/knapen_AOT/AOT_stimuli/rescaled_final/0763_rv.mp4	0.0	247.39216899871826	0.09992122650146484
49	221.20772314071655	fix_pre	0		120	47.0	2.5	/experiments/knapen_AOT/AOT_stimuli/rescaled_final/0850_rv.mp4	0.0	247.49209022521973	1.000147819519043
49	222.2078709602356	movie	1		244	47.0	2.5	/experiments/knapen_AOT/AOT_stimuli/rescaled_final/0850_rv.mp4	0.0	248.49223804473877	2.4920780658721924
49	222.59225010871887	pulse	1	t		47.0	2.5	/experiments/knapen_AOT/AOT_stimuli/rescaled_final/0850_rv.mp4	0.0	248.87661719322205	
49	224.1917359828949	pulse	1	t		47.0	2.5	/experiments/knapen_AOT/AOT_stimuli/rescaled_final/0850_rv.mp4	0.0	250.47610306739807	
49	224.6999490261078	fix_post	2		12	47.0	2.5	/experiments/knapen_AOT/AOT_stimuli/rescaled_final/0850_rv.mp4	0.0	250.98431611061096	0.1000070571899414
50	224.79995608329773	fix_pre	0		120	48.0	2.5	blank	1.0	251.0843231678009	1.0001518726348877
50	225.7920699119568	pulse	0	t		48.0	2.5	blank	1.0	252.07643699645996	
50	225.80010795593262	movie	1		301	48.0	2.5	blank	1.0	252.0844750404358	2.508713960647583
50	227.3922300338745	pulse	1	t		48.0	2.5	blank	1.0	253.67659711837769	
50	228.3088219165802	fix_post	2		12	48.0	2.5	blank	1.0	254.59318900108337	0.09999704360961914
51	228.40881896018982	fix_pre	0		120	49.0	2.5	/experiments/knapen_AOT/AOT_stimuli/rescaled_final/0242_fw.mp4	0.0	254.693186044693	1.0001511573791504
51	228.99248909950256	pulse	0	t		49.0	2.5	/experiments/knapen_AOT/AOT_stimuli/rescaled_final/0242_fw.mp4	0.0	255.27685618400574	
51	229.40897011756897	movie	1		244	49.0	2.5	/experiments/knapen_AOT/AOT_stimuli/rescaled_final/0242_fw.mp4	0.0	255.69333720207214	2.500394821166992
51	230.5927119255066	pulse	1	t		49.0	2.5	/experiments/knapen_AOT/AOT_stimuli/rescaled_final/0242_fw.mp4	0.0	256.87707901000977	
51	231.90936493873596	fix_post	2		12	49.0	2.5	/experiments/knapen_AOT/AOT_stimuli/rescaled_final/0242_fw.mp4	0.0	258.19373202323914	0.09998512268066406
52	232.00935006141663	fix_pre	0		120	50.0	2.5	/experiments/knapen_AOT/AOT_stimuli/rescaled_final/0108_fw.mp4	0.0	258.2937171459198	1.0001680850982666
52	232.19297814369202	pulse	0	t		50.0	2.5	/experiments/knapen_AOT/AOT_stimuli/rescaled_final/0108_fw.mp4	0.0	258.4773452281952	
52	233.0095181465149	movie	1		249	50.0	2.5	/experiments/knapen_AOT/AOT_stimuli/rescaled_final/0108_fw.mp4	0.0	259.29388523101807	2.5004069805145264
52	233.79312705993652	pulse	1	t		50.0	2.5	/experiments/knapen_AOT/AOT_stimuli/rescaled_final/0108_fw.mp4	0.0	260.0774941444397	
52	235.3934690952301	pulse	1	t		50.0	2.5	/experiments/knapen_AOT/AOT_stimuli/rescaled_final/0108_fw.mp4	0.0	261.6778361797333	
52	235.50992512702942	fix_post	2		12	50.0	2.5	/experiments/knapen_AOT/AOT_stimuli/rescaled_final/0108_fw.mp4	0.0	261.7942922115326	0.09994888305664062
53	235.60987401008606	fix_pre	0		117	51.0	2.5	/experiments/knapen_AOT/AOT_stimuli/rescaled_final/0421_fw.mp4	0.0	261.89424109458923	1.0001749992370605
53	236.61004900932312	movie	1		243	51.0	2.5	/experiments/knapen_AOT/AOT_stimuli/rescaled_final/0421_fw.mp4	0.0	262.8944160938263	2.492058038711548
53	236.9950931072235	pulse	1	t		51.0	2.5	/experiments/knapen_AOT/AOT_stimuli/rescaled_final/0421_fw.mp4	0.0	263.2794601917267	
53	238.59395098686218	pulse	1	t		51.0	2.5	/experiments/knapen_AOT/AOT_stimuli/rescaled_final/0421_fw.mp4	0.0	264.87831807136536	
53	239.10210704803467	fix_post	2		12	51.0	2.5	/experiments/knapen_AOT/AOT_stimuli/rescaled_final/0421_fw.mp4	0.0	265.38647413253784	0.0999748706817627
54	239.20208191871643	fix_pre	0		120	52.0	2.5	/experiments/knapen_AOT/AOT_stimuli/rescaled_final/1062_fw.mp4	0.0	265.4864490032196	1.0002012252807617
54	240.19411301612854	pulse	0	t		52.0	2.5	/experiments/knapen_AOT/AOT_stimuli/rescaled_final/1062_fw.mp4	0.0	266.4784801006317	
54	240.2022831439972	movie	1		245	52.0	2.5	/experiments/knapen_AOT/AOT_stimuli/rescaled_final/1062_fw.mp4	0.0	266.48665022850037	2.5086898803710938
54	241.79485893249512	pulse	1	t		52.0	2.5	/experiments/knapen_AOT/AOT_stimuli/rescaled_final/1062_fw.mp4	0.0	268.0792260169983	
54	242.7109730243683	fix_post	2		12	52.0	2.5	/experiments/knapen_AOT/AOT_stimuli/rescaled_final/1062_fw.mp4	0.0	268.99534010887146	0.09998798370361328
55	242.8109610080719	fix_pre	0		120	53.0	2.5	/experiments/knapen_AOT/AOT_stimuli/rescaled_final/0700_fw.mp4	0.0	269.0953280925751	1.0002129077911377
55	243.3947069644928	pulse	0	t		53.0	2.5	/experiments/knapen_AOT/AOT_stimuli/rescaled_final/0700_fw.mp4	0.0	269.679074048996	
55	243.81117391586304	movie	1		245	53.0	2.5	/experiments/knapen_AOT/AOT_stimuli/rescaled_final/0700_fw.mp4	0.0	270.0955410003662	2.5003321170806885
55	244.9909930229187	pulse	1	t		53.0	2.5	/experiments/knapen_AOT/AOT_stimuli/rescaled_final/0700_fw.mp4	0.0	271.2753601074219	
55	246.31150603294373	fix_post	2		12	53.0	2.5	/experiments/knapen_AOT/AOT_stimuli/rescaled_final/0700_fw.mp4	0.0	272.5958731174469	0.10000205039978027
56	246.4115080833435	fix_pre	0		120	54.0	2.5	/experiments/knapen_AOT/AOT_stimuli/rescaled_final/0657_fw.mp4	0.0	272.6958751678467	1.0001718997955322
56	246.59502792358398	pulse	0	t		54.0	2.5	/experiments/knapen_AOT/AOT_stimuli/rescaled_final/0657_fw.mp4	0.0	272.87939500808716	
56	247.41167998313904	movie	1		244	54.0	2.5	/experiments/knapen_AOT/AOT_stimuli/rescaled_final/0657_fw.mp4	0.0	273.6960470676422	2.500338077545166
56	248.19528198242188	pulse	1	t		54.0	2.5	/experiments/knapen_AOT/AOT_stimuli/rescaled_final/0657_fw.mp4	0.0	274.47964906692505	
56	249.79553508758545	pulse	1	t		54.0	2.5	/experiments/knapen_AOT/AOT_stimuli/rescaled_final/0657_fw.mp4	0.0	276.0799021720886	
56	249.9120180606842	fix_post	2		12	54.0	2.5	/experiments/knapen_AOT/AOT_stimuli/rescaled_final/0657_fw.mp4	0.0	276.1963851451874	0.10002493858337402
57	250.01204299926758	fix_pre	0		120	55.0	2.5	/experiments/knapen_AOT/AOT_stimuli/rescaled_final/0133_fw.mp4	0.0	276.29641008377075	1.0001649856567383
57	251.01220798492432	movie	1		243	55.0	2.5	/experiments/knapen_AOT/AOT_stimuli/rescaled_final/0133_fw.mp4	0.0	277.2965750694275	2.4920339584350586
57	251.40067410469055	pulse	1	t		55.0	2.5	/experiments/knapen_AOT/AOT_stimuli/rescaled_final/0133_fw.mp4	0.0	277.6850411891937	
57	252.99599504470825	pulse	1	t		55.0	2.5	/experiments/knapen_AOT/AOT_stimuli/rescaled_final/0133_fw.mp4	0.0	279.2803621292114	
57	253.50424194335938	fix_post	2		12	55.0	2.5	/experiments/knapen_AOT/AOT_stimuli/rescaled_final/0133_fw.mp4	0.0	279.78860902786255	0.10004115104675293
58	253.60428309440613	fix_pre	0		120	56.0	2.5	blank	1.0	279.8886501789093	1.0001368522644043
58	254.59627103805542	pulse	0	t		56.0	2.5	blank	1.0	280.8806381225586	
58	254.60441994667053	movie	1		301	56.0	2.5	blank	1.0	280.8887870311737	2.5086941719055176
58	256.19663405418396	pulse	1	t		56.0	2.5	blank	1.0	282.48100113868713	
58	257.11311411857605	fix_post	2		12	56.0	2.5	blank	1.0	283.3974812030792	0.09998583793640137
59	257.21309995651245	fix_pre	0		120	57.0	2.5	/experiments/knapen_AOT/AOT_stimuli/rescaled_final/1695_fw.mp4	0.0	283.4974670410156	1.0001561641693115
59	257.7893331050873	pulse	0	t		57.0	2.5	/experiments/knapen_AOT/AOT_stimuli/rescaled_final/1695_fw.mp4	0.0	284.07370018959045	
59	258.21325612068176	movie	1		243	57.0	2.5	/experiments/knapen_AOT/AOT_stimuli/rescaled_final/1695_fw.mp4	0.0	284.49762320518494	2.50044584274292
59	259.3933539390564	pulse	1	t		57.0	2.5	/experiments/knapen_AOT/AOT_stimuli/rescaled_final/1695_fw.mp4	0.0	285.67772102355957	
59	260.7137019634247	fix_post	2		12	57.0	2.5	/experiments/knapen_AOT/AOT_stimuli/rescaled_final/1695_fw.mp4	0.0	286.99806904792786	0.09994316101074219
60	260.8136451244354	fix_pre	0		120	58.0	2.5	/experiments/knapen_AOT/AOT_stimuli/rescaled_final/0421_rv.mp4	0.0	287.0980122089386	1.0001378059387207
60	260.98966693878174	pulse	0	t		58.0	2.5	/experiments/knapen_AOT/AOT_stimuli/rescaled_final/0421_rv.mp4	0.0	287.2740340232849	
60	261.81378293037415	movie	1		243	58.0	2.5	/experiments/knapen_AOT/AOT_stimuli/rescaled_final/0421_rv.mp4	0.0	288.0981500148773	2.50040602684021
60	262.58998107910156	pulse	1	t		58.0	2.5	/experiments/knapen_AOT/AOT_stimuli/rescaled_final/0421_rv.mp4	0.0	288.87434816360474	
60	264.1974229812622	pulse	1	t		58.0	2.5	/experiments/knapen_AOT/AOT_stimuli/rescaled_final/0421_rv.mp4	0.0	290.4817900657654	
60	264.31418895721436	fix_post	2		12	58.0	2.5	/experiments/knapen_AOT/AOT_stimuli/rescaled_final/0421_rv.mp4	0.0	290.59855604171753	0.100006103515625
61	264.41419506073	fix_pre	0		120	59.0	2.5	/experiments/knapen_AOT/AOT_stimuli/rescaled_final/0089_fw.mp4	0.0	290.69856214523315	1.000180959701538
61	265.4143760204315	movie	1		245	59.0	2.5	/experiments/knapen_AOT/AOT_stimuli/rescaled_final/0089_fw.mp4	0.0	291.6987431049347	2.492074966430664
61	265.7897720336914	pulse	1	t		59.0	2.5	/experiments/knapen_AOT/AOT_stimuli/rescaled_final/0089_fw.mp4	0.0	292.0741391181946	
61	267.3900580406189	pulse	1	t		59.0	2.5	/experiments/knapen_AOT/AOT_stimuli/rescaled_final/0089_fw.mp4	0.0	293.67442512512207	
61	267.9064509868622	fix_post	2		12	59.0	2.5	/experiments/knapen_AOT/AOT_stimuli/rescaled_final/0089_fw.mp4	0.0	294.19081807136536	0.09993100166320801
62	268.0063819885254	fix_pre	0		119	60.0	2.5	/experiments/knapen_AOT/AOT_stimuli/rescaled_final/1180_rv.mp4	0.0	294.29074907302856	0.9918339252471924
62	268.9900281429291	pulse	0	t		60.0	2.5	/experiments/knapen_AOT/AOT_stimuli/rescaled_final/1180_rv.mp4	0.0	295.27439522743225	
62	268.9982159137726	movie	1		245	60.0	2.5	/experiments/knapen_AOT/AOT_stimuli/rescaled_final/1180_rv.mp4	0.0	295.28258299827576	2.508723020553589
62	270.5908269882202	pulse	1	t		60.0	2.5	/experiments/knapen_AOT/AOT_stimuli/rescaled_final/1180_rv.mp4	0.0	296.8751940727234	
62	271.5069389343262	fix_post	2		12	60.0	2.5	/experiments/knapen_AOT/AOT_stimuli/rescaled_final/1180_rv.mp4	0.0	297.79130601882935	0.09997415542602539
63	271.6069130897522	fix_pre	0		120	61.0	2.5	/experiments/knapen_AOT/AOT_stimuli/rescaled_final/1158_rv.mp4	0.0	297.89128017425537	1.0001449584960938
63	272.19065499305725	pulse	0	t		61.0	2.5	/experiments/knapen_AOT/AOT_stimuli/rescaled_final/1158_rv.mp4	0.0	298.4750220775604	
63	272.6070580482483	movie	1		245	61.0	2.5	/experiments/knapen_AOT/AOT_stimuli/rescaled_final/1158_rv.mp4	0.0	298.89142513275146	2.500403881072998
63	273.790913105011	pulse	1	t		61.0	2.5	/experiments/knapen_AOT/AOT_stimuli/rescaled_final/1158_rv.mp4	0.0	300.07528018951416	
63	275.1074619293213	fix_post	2		12	61.0	2.5	/experiments/knapen_AOT/AOT_stimuli/rescaled_final/1158_rv.mp4	0.0	301.39182901382446	0.10000205039978027
64	275.20746397972107	fix_pre	0		120	62.0	2.5	blank	1.0	301.49183106422424	1.0001840591430664
64	275.39102697372437	pulse	0	t		62.0	2.5	blank	1.0	301.67539405822754	
64	276.20764803886414	movie	1		300	62.0	2.5	blank	1.0	302.4920151233673	2.5003740787506104
64	276.9911890029907	pulse	1	t		62.0	2.5	blank	1.0	303.2755560874939	
64	278.5915560722351	pulse	1	t		62.0	2.5	blank	1.0	304.8759231567383	
64	278.70802211761475	fix_post	2		12	62.0	2.5	blank	1.0	304.9923892021179	0.09996485710144043
65	278.8079869747162	fix_pre	0		120	63.0	2.5	/experiments/knapen_AOT/AOT_stimuli/rescaled_final/1327_fw.mp4	0.0	305.09235405921936	1.000218152999878
65	279.80820512771606	movie	1		243	63.0	2.5	/experiments/knapen_AOT/AOT_stimuli/rescaled_final/1327_fw.mp4	0.0	306.09257221221924	2.492033004760742
65	280.19226694107056	pulse	1	t		63.0	2.5	/experiments/knapen_AOT/AOT_stimuli/rescaled_final/1327_fw.mp4	0.0	306.47663402557373	
65	281.79207706451416	pulse	1	t		63.0	2.5	/experiments/knapen_AOT/AOT_stimuli/rescaled_final/1327_fw.mp4	0.0	308.07644414901733	
65	282.3002381324768	fix_post	2		12	63.0	2.5	/experiments/knapen_AOT/AOT_stimuli/rescaled_final/1327_fw.mp4	0.0	308.58460521698	0.09996199607849121
66	282.4002001285553	fix_pre	0		120	64.0	2.5	/experiments/knapen_AOT/AOT_stimuli/rescaled_final/1555_fw.mp4	0.0	308.6845672130585	1.0001978874206543
66	283.3921859264374	pulse	0	t		64.0	2.5	/experiments/knapen_AOT/AOT_stimuli/rescaled_final/1555_fw.mp4	0.0	309.67655301094055	
66	283.40039801597595	movie	1		246	64.0	2.5	/experiments/knapen_AOT/AOT_stimuli/rescaled_final/1555_fw.mp4	0.0	309.6847651004791	2.508671998977661
66	284.99288296699524	pulse	1	t		64.0	2.5	/experiments/knapen_AOT/AOT_stimuli/rescaled_final/1555_fw.mp4	0.0	311.2772500514984	
66	285.9090700149536	fix_post	2		12	64.0	2.5	/experiments/knapen_AOT/AOT_stimuli/rescaled_final/1555_fw.mp4	0.0	312.1934370994568	0.09999704360961914
67	286.00906705856323	fix_pre	0		120	65.0	2.5	/experiments/knapen_AOT/AOT_stimuli/rescaled_final/1401_fw.mp4	0.0	312.2934341430664	1.0001790523529053
67	286.5928339958191	pulse	0	t		65.0	2.5	/experiments/knapen_AOT/AOT_stimuli/rescaled_final/1401_fw.mp4	0.0	312.87720108032227	
67	287.00924611091614	movie	1		244	65.0	2.5	/experiments/knapen_AOT/AOT_stimuli/rescaled_final/1401_fw.mp4	0.0	313.2936131954193	2.500393867492676
67	288.19302201271057	pulse	1	t		65.0	2.5	/experiments/knapen_AOT/AOT_stimuli/rescaled_final/1401_fw.mp4	0.0	314.47738909721375	
67	289.5096399784088	fix_post	2		12	65.0	2.5	/experiments/knapen_AOT/AOT_stimuli/rescaled_final/1401_fw.mp4	0.0	315.794007062912	0.0999610424041748
68	289.609601020813	fix_pre	0		120	66.0	2.5	/experiments/knapen_AOT/AOT_stimuli/rescaled_final/0591_rv.mp4	0.0	315.89396810531616	1.0001769065856934
68	289.793172121048	pulse	0	t		66.0	2.5	/experiments/knapen_AOT/AOT_stimuli/rescaled_final/0591_rv.mp4	0.0	316.07753920555115	
68	290.6097779273987	movie	1		244	66.0	2.5	/experiments/knapen_AOT/AOT_stimuli/rescaled_final/0591_rv.mp4	0.0	316.89414501190186	2.500375986099243
68	291.39338994026184	pulse	1	t		66.0	2.5	/experiments/knapen_AOT/AOT_stimuli/rescaled_final/0591_rv.mp4	0.0	317.677757024765	
68	292.9938189983368	pulse	1	t		66.0	2.5	/experiments/knapen_AOT/AOT_stimuli/rescaled_final/0591_rv.mp4	0.0	319.27818608283997	
68	293.1101539134979	fix_post	2		12	66.0	2.5	/experiments/knapen_AOT/AOT_stimuli/rescaled_final/0591_rv.mp4	0.0	319.3945209980011	0.10007119178771973
69	293.21022510528564	fix_pre	0		119	67.0	2.5	/experiments/knapen_AOT/AOT_stimuli/rescaled_final/0019_fw.mp4	0.0	319.4945921897888	0.9917440414428711
69	294.2019691467285	movie	1		245	67.0	2.5	/experiments/knapen_AOT/AOT_stimuli/rescaled_final/0019_fw.mp4	0.0	320.4863362312317	2.500410795211792
69	294.5940480232239	pulse	1	t		67.0	2.5	/experiments/knapen_AOT/AOT_stimuli/rescaled_final/0019_fw.mp4	0.0	320.87841510772705	
69	296.19412302970886	pulse	1	t		67.0	2.5	/experiments/knapen_AOT/AOT_stimuli/rescaled_final/0019_fw.mp4	0.0	322.47849011421204	
69	296.7023799419403	fix_post	2		12	67.0	2.5	/experiments/knapen_AOT/AOT_stimuli/rescaled_final/0019_fw.mp4	0.0	322.9867470264435	0.09997010231018066
70	296.8023500442505	fix_pre	0		118	68.0	2.5	/experiments/knapen_AOT/AOT_stimuli/rescaled_final/1155_rv.mp4	0.0	323.08671712875366	1.000143051147461
70	297.79439091682434	pulse	0	t		68.0	2.5	/experiments/knapen_AOT/AOT_stimuli/rescaled_final/1155_rv.mp4	0.0	324.0787580013275	
70	297.80249309539795	movie	1		246	68.0	2.5	/experiments/knapen_AOT/AOT_stimuli/rescaled_final/1155_rv.mp4	0.0	324.0868601799011	2.5087268352508545
70	299.3954839706421	pulse	1	t		68.0	2.5	/experiments/knapen_AOT/AOT_stimuli/rescaled_final/1155_rv.mp4	0.0	325.67985105514526	
70	300.3112199306488	fix_post	2		12	68.0	2.5	/experiments/knapen_AOT/AOT_stimuli/rescaled_final/1155_rv.mp4	0.0	326.595587015152	0.09999704360961914
71	300.4112169742584	fix_pre	0		120	69.0	2.5	/experiments/knapen_AOT/AOT_stimuli/rescaled_final/0332_rv.mp4	0.0	326.6955840587616	1.0001671314239502
71	300.99489092826843	pulse	0	t		69.0	2.5	/experiments/knapen_AOT/AOT_stimuli/rescaled_final/0332_rv.mp4	0.0	327.2792580127716	
71	301.4113841056824	movie	1		248	69.0	2.5	/experiments/knapen_AOT/AOT_stimuli/rescaled_final/0332_rv.mp4	0.0	327.69575119018555	2.5004830360412598
71	302.5951690673828	pulse	1	t		69.0	2.5	/experiments/knapen_AOT/AOT_stimuli/rescaled_final/0332_rv.mp4	0.0	328.879536151886	
71	303.91186714172363	fix_post	2		12	69.0	2.5	/experiments/knapen_AOT/AOT_stimuli/rescaled_final/0332_rv.mp4	0.0	330.1962342262268	0.0999000072479248
72	304.01176714897156	fix_pre	0		120	70.0	2.5	blank	1.0	330.29613423347473	1.000180959701538
72	304.1952941417694	pulse	0	t		70.0	2.5	blank	1.0	330.4796612262726	
72	305.0119481086731	movie	1		300	70.0	2.5	blank	1.0	331.29631519317627	2.500339984893799
72	305.7955229282379	pulse	1	t		70.0	2.5	blank	1.0	332.0798900127411	
72	307.3958110809326	pulse	1	t		70.0	2.5	blank	1.0	333.6801781654358	
72	307.5122880935669	fix_post	2		12	70.0	2.5	blank	1.0	333.79665517807007	0.10000395774841309
73	307.6122920513153	fix_pre	0		120	71.0	2.5	/experiments/knapen_AOT/AOT_stimuli/rescaled_final/2127_rv.mp4	0.0	333.8966591358185	1.0002269744873047
73	308.6125190258026	movie	1		247	71.0	2.5	/experiments/knapen_AOT/AOT_stimuli/rescaled_final/2127_rv.mp4	0.0	334.8968861103058	2.492017984390259
73	308.9972610473633	pulse	1	t		71.0	2.5	/experiments/knapen_AOT/AOT_stimuli/rescaled_final/2127_rv.mp4	0.0	335.28162813186646	
73	310.5890769958496	pulse	1	t		71.0	2.5	/experiments/knapen_AOT/AOT_stimuli/rescaled_final/2127_rv.mp4	0.0	336.8734440803528	
73	311.10453701019287	fix_post	2		12	71.0	2.5	/experiments/knapen_AOT/AOT_stimuli/rescaled_final/2127_rv.mp4	0.0	337.38890409469604	0.09994101524353027
74	311.2044780254364	fix_pre	0		120	72.0	2.5	/experiments/knapen_AOT/AOT_stimuli/rescaled_final/1821_fw.mp4	0.0	337.4888451099396	1.0001680850982666
74	312.1965711116791	pulse	0	t		72.0	2.5	/experiments/knapen_AOT/AOT_stimuli/rescaled_final/1821_fw.mp4	0.0	338.48093819618225	
74	312.20464611053467	movie	1		247	72.0	2.5	/experiments/knapen_AOT/AOT_stimuli/rescaled_final/1821_fw.mp4	0.0	338.48901319503784	2.508729934692383
74	313.7981131076813	pulse	1	t		72.0	2.5	/experiments/knapen_AOT/AOT_stimuli/rescaled_final/1821_fw.mp4	0.0	340.08248019218445	
74	314.71337604522705	fix_post	2		12	72.0	2.5	/experiments/knapen_AOT/AOT_stimuli/rescaled_final/1821_fw.mp4	0.0	340.9977431297302	0.09996509552001953
75	314.81334114074707	fix_pre	0		120	73.0	2.5	/experiments/knapen_AOT/AOT_stimuli/rescaled_final/1605_rv.mp4	0.0	341.09770822525024	1.0001859664916992
75	315.3895390033722	pulse	0	t		73.0	2.5	/experiments/knapen_AOT/AOT_stimuli/rescaled_final/1605_rv.mp4	0.0	341.67390608787537	
75	315.81352710723877	movie	1		245	73.0	2.5	/experiments/knapen_AOT/AOT_stimuli/rescaled_final/1605_rv.mp4	0.0	342.09789419174194	2.50038480758667
75	316.9905581474304	pulse	1	t		73.0	2.5	/experiments/knapen_AOT/AOT_stimuli/rescaled_final/1605_rv.mp4	0.0	343.2749252319336	
75	318.31391191482544	fix_post	2		12	73.0	2.5	/experiments/knapen_AOT/AOT_stimuli/rescaled_final/1605_rv.mp4	0.0	344.5982789993286	0.0999751091003418
76	318.4138870239258	fix_pre	0		120	74.0	2.5	/experiments/knapen_AOT/AOT_stimuli/rescaled_final/0097_rv.mp4	0.0	344.69825410842896	1.0001940727233887
76	318.5892930030823	pulse	0	t		74.0	2.5	/experiments/knapen_AOT/AOT_stimuli/rescaled_final/0097_rv.mp4	0.0	344.87366008758545	
76	319.41408109664917	movie	1		245	74.0	2.5	/experiments/knapen_AOT/AOT_stimuli/rescaled_final/0097_rv.mp4	0.0	345.69844818115234	2.5003578662872314
76	320.1893861293793	pulse	1	t		74.0	2.5	/experiments/knapen_AOT/AOT_stimuli/rescaled_final/0097_rv.mp4	0.0	346.47375321388245	
76	321.7896659374237	pulse	1	t		74.0	2.5	/experiments/knapen_AOT/AOT_stimuli/rescaled_final/0097_rv.mp4	0.0	348.0740330219269	
76	321.9144389629364	fix_post	2		12	74.0	2.5	/experiments/knapen_AOT/AOT_stimuli/rescaled_final/0097_rv.mp4	0.0	348.1988060474396	0.1000220775604248
77	322.0144610404968	fix_pre	0		120	75.0	2.5	/experiments/knapen_AOT/AOT_stimuli/rescaled_final/0195_rv.mp4	0.0	348.298828125	1.0001299381256104
77	323.01459097862244	movie	1		243	75.0	2.5	/experiments/knapen_AOT/AOT_stimuli/rescaled_final/0195_rv.mp4	0.0	349.2989580631256	2.4920761585235596
77	323.38990092277527	pulse	1	t		75.0	2.5	/experiments/knapen_AOT/AOT_stimuli/rescaled_final/0195_rv.mp4	0.0	349.67426800727844	
77	324.9901521205902	pulse	1	t		75.0	2.5	/experiments/knapen_AOT/AOT_stimuli/rescaled_final/0195_rv.mp4	0.0	351.2745192050934	
77	325.506667137146	fix_post	2		12	75.0	2.5	/experiments/knapen_AOT/AOT_stimuli/rescaled_final/0195_rv.mp4	0.0	351.79103422164917	0.09996795654296875
78	325.60663509368896	fix_pre	0		119	76.0	2.5	blank	1.0	351.89100217819214	0.9918429851531982
78	326.5903720855713	pulse	0	t		76.0	2.5	blank	1.0	352.87473917007446	
78	326.59847807884216	movie	1		301	76.0	2.5	blank	1.0	352.88284516334534	2.508692979812622
78	328.1905999183655	pulse	1	t		76.0	2.5	blank	1.0	354.47496700286865	
78	329.1071710586548	fix_post	2		12	76.0	2.5	blank	1.0	355.39153814315796	0.10000991821289062
79	329.2071809768677	fix_pre	0		120	77.0	2.5	/experiments/knapen_AOT/AOT_stimuli/rescaled_final/0094_fw.mp4	0.0	355.49154806137085	1.000244140625
79	329.7907660007477	pulse	0	t		77.0	2.5	/experiments/knapen_AOT/AOT_stimuli/rescaled_final/0094_fw.mp4	0.0	356.07513308525085	
79	330.2074251174927	movie	1		244	77.0	2.5	/experiments/knapen_AOT/AOT_stimuli/rescaled_final/0094_fw.mp4	0.0	356.49179220199585	2.5003600120544434
79	331.3911249637604	pulse	1	t		77.0	2.5	/experiments/knapen_AOT/AOT_stimuli/rescaled_final/0094_fw.mp4	0.0	357.67549204826355	
79	332.7077851295471	fix_post	2		12	77.0	2.5	/experiments/knapen_AOT/AOT_stimuli/rescaled_final/0094_fw.mp4	0.0	358.9921522140503	0.09990882873535156
80	332.80769395828247	fix_pre	0		120	78.0	2.5	/experiments/knapen_AOT/AOT_stimuli/rescaled_final/1124_fw.mp4	0.0	359.09206104278564	1.000162124633789
80	332.991308927536	pulse	0	t		78.0	2.5	/experiments/knapen_AOT/AOT_stimuli/rescaled_final/1124_fw.mp4	0.0	359.2756760120392	
80	333.80785608291626	movie	1		246	78.0	2.5	/experiments/knapen_AOT/AOT_stimuli/rescaled_final/1124_fw.mp4	0.0	360.09222316741943	2.500356912612915
80	334.5916600227356	pulse	1	t		78.0	2.5	/experiments/knapen_AOT/AOT_stimuli/rescaled_final/1124_fw.mp4	0.0	360.87602710723877	
80	336.1919069290161	pulse	1	t		78.0	2.5	/experiments/knapen_AOT/AOT_stimuli/rescaled_final/1124_fw.mp4	0.0	362.4762740135193	
80	336.3082129955292	fix_post	2		12	78.0	2.5	/experiments/knapen_AOT/AOT_stimuli/rescaled_final/1124_fw.mp4	0.0	362.59258008003235	0.10001611709594727
81	336.4082291126251	fix_pre	0		120	79.0	2.5	/experiments/knapen_AOT/AOT_stimuli/rescaled_final/1494_rv.mp4	0.0	362.6925961971283	1.0001499652862549
81	337.4083790779114	movie	1		244	79.0	2.5	/experiments/knapen_AOT/AOT_stimuli/rescaled_final/1494_rv.mp4	0.0	363.69274616241455	2.492115020751953
81	337.7927749156952	pulse	1	t		79.0	2.5	/experiments/knapen_AOT/AOT_stimuli/rescaled_final/1494_rv.mp4	0.0	364.07714200019836	
81	339.3923361301422	pulse	1	t		79.0	2.5	/experiments/knapen_AOT/AOT_stimuli/rescaled_final/1494_rv.mp4	0.0	365.6767032146454	
81	339.90049409866333	fix_post	2		12	79.0	2.5	/experiments/knapen_AOT/AOT_stimuli/rescaled_final/1494_rv.mp4	0.0	366.1848611831665	0.10000085830688477
82	340.0004949569702	fix_pre	0		120	80.0	2.5	/experiments/knapen_AOT/AOT_stimuli/rescaled_final/0682_rv.mp4	0.0	366.2848620414734	1.0001161098480225
82	340.9925711154938	pulse	0	t		80.0	2.5	/experiments/knapen_AOT/AOT_stimuli/rescaled_final/0682_rv.mp4	0.0	367.27693819999695	
82	341.00061106681824	movie	1		245	80.0	2.5	/experiments/knapen_AOT/AOT_stimuli/rescaled_final/0682_rv.mp4	0.0	367.2849781513214	2.508754014968872
82	342.59322214126587	pulse	1	t		80.0	2.5	/experiments/knapen_AOT/AOT_stimuli/rescaled_final/0682_rv.mp4	0.0	368.87758922576904	
82	343.5093650817871	fix_post	2		12	80.0	2.5	/experiments/knapen_AOT/AOT_stimuli/rescaled_final/0682_rv.mp4	0.0	369.7937321662903	0.09994387626647949
83	343.6093089580536	fix_pre	0		120	81.0	2.5	/experiments/knapen_AOT/AOT_stimuli/rescaled_final/2094_rv.mp4	0.0	369.89367604255676	1.0001871585845947
83	344.1929340362549	pulse	0	t		81.0	2.5	/experiments/knapen_AOT/AOT_stimuli/rescaled_final/2094_rv.mp4	0.0	370.47730112075806	
83	344.6094961166382	movie	1		244	81.0	2.5	/experiments/knapen_AOT/AOT_stimuli/rescaled_final/2094_rv.mp4	0.0	370.89386320114136	2.5003809928894043
83	345.7932951450348	pulse	1	t		81.0	2.5	/experiments/knapen_AOT/AOT_stimuli/rescaled_final/2094_rv.mp4	0.0	372.07766222953796	
83	347.1098771095276	fix_post	2		12	81.0	2.5	/experiments/knapen_AOT/AOT_stimuli/rescaled_final/2094_rv.mp4	0.0	373.39424419403076	0.09996390342712402
84	347.2098410129547	fix_pre	0		120	82.0	2.5	blank	1.0	373.4942080974579	1.0001459121704102
84	347.3935160636902	pulse	0	t		82.0	2.5	blank	1.0	373.67788314819336	
84	348.2099869251251	movie	1		300	82.0	2.5	blank	1.0	374.4943540096283	2.5004100799560547
84	348.9938340187073	pulse	1	t		82.0	2.5	blank	1.0	375.27820110321045	
84	350.5939950942993	pulse	1	t		82.0	2.5	blank	1.0	376.8783621788025	
84	350.7103970050812	fix_post	2		12	82.0	2.5	blank	1.0	376.99476408958435	0.09997391700744629
85	350.8103709220886	fix_pre	0		120	83.0	2.5	/experiments/knapen_AOT/AOT_stimuli/rescaled_final/1191_rv.mp4	0.0	377.0947380065918	1.0001962184906006
85	351.8105671405792	movie	1		244	83.0	2.5	/experiments/knapen_AOT/AOT_stimuli/rescaled_final/1191_rv.mp4	0.0	378.0949342250824	2.4920449256896973
85	352.19483709335327	pulse	1	t		83.0	2.5	/experiments/knapen_AOT/AOT_stimuli/rescaled_final/1191_rv.mp4	0.0	378.47920417785645	
85	353.7944679260254	pulse	1	t		83.0	2.5	/experiments/knapen_AOT/AOT_stimuli/rescaled_final/1191_rv.mp4	0.0	380.07883501052856	
85	354.3026120662689	fix_post	2		12	83.0	2.5	/experiments/knapen_AOT/AOT_stimuli/rescaled_final/1191_rv.mp4	0.0	380.5869791507721	0.09996700286865234
87	354.4025790691376	stim	0		1716					380.68694615364075	14.302290916442871
87	355.39470195770264	pulse	0	t						381.6790690422058	
87	356.9949381351471	pulse	0	t						383.27930521965027	
87	358.5950229167938	pulse	0	t						384.879390001297	
87	360.1953480243683	pulse	0	t						386.47971510887146	
87	361.7955319881439	pulse	0	t						388.0798990726471	
87	363.38851404190063	pulse	0	t						389.6728811264038	
87	364.98878812789917	pulse	0	t						391.27315521240234	
87	366.58895802497864	pulse	0	t						392.8733251094818	
87	368.1891760826111	pulse	0	t						394.47354316711426	
