trial_nr	onset	event_type	phase	response	nr_frames	movie_index	movie_duration	movie_file	blank	onset_abs	duration
0	0.15821027755737305	stim	0		8					17.583789587020874	0.06652951240539551
0	0.21679091453552246	response	0	space						17.642370223999023	
1	0.22473978996276855	stim	0		4618					17.65031909942627	38.489540338516235
1	38.70602297782898	pulse	0	t						56.13160228729248	
1	38.714280128479004	stim	1		1714					56.139859437942505	14.301738500595093
1	40.30598759651184	pulse	1	t						57.73156690597534	
1	41.906184911727905	pulse	1	t						59.331764221191406	
1	43.50648045539856	pulse	1	t						60.93205976486206	
1	45.10668444633484	pulse	1	t						62.53226375579834	
1	46.706910610198975	pulse	1	t						64.13248991966248	
1	48.30716681480408	pulse	1	t						65.73274612426758	
1	49.9074387550354	pulse	1	t						67.3330180644989	
1	51.507697343826294	pulse	1	t						68.9332766532898	
2	53.0160186290741	fix_pre	0		12	0.0	2.5	/experiments/Knapen_AOT/AOT_stimuli/rescaled_final/0592_fw.mp4	0.0	70.4415979385376	0.13349437713623047
2	53.107919454574585	pulse	0	t		0.0	2.5	/experiments/Knapen_AOT/AOT_stimuli/rescaled_final/0592_fw.mp4	0.0	70.53349876403809	
2	53.14951300621033	movie	1		285	0.0	2.5	/experiments/Knapen_AOT/AOT_stimuli/rescaled_final/0592_fw.mp4	0.0	70.57509231567383	2.4752535820007324
2	54.70670533180237	pulse	1	t		0.0	2.5	/experiments/Knapen_AOT/AOT_stimuli/rescaled_final/0592_fw.mp4	0.0	72.13228464126587	
2	55.62476658821106	fix_post	2		12	0.0	2.5	/experiments/Knapen_AOT/AOT_stimuli/rescaled_final/0592_fw.mp4	0.0	73.05034589767456	0.10001516342163086
3	55.72478175163269	fix_pre	0		120	1.0	2.5	/experiments/Knapen_AOT/AOT_stimuli/rescaled_final/1732_fw.mp4	0.0	73.15036106109619	1.0084879398345947
3	56.308433294296265	pulse	0	t		1.0	2.5	/experiments/Knapen_AOT/AOT_stimuli/rescaled_final/1732_fw.mp4	0.0	73.73401260375977	
3	56.733269691467285	movie	1		285	1.0	2.5	/experiments/Knapen_AOT/AOT_stimuli/rescaled_final/1732_fw.mp4	0.0	74.15884900093079	2.492034912109375
3	57.90657567977905	pulse	1	t		1.0	2.5	/experiments/Knapen_AOT/AOT_stimuli/rescaled_final/1732_fw.mp4	0.0	75.33215498924255	
3	59.22530460357666	fix_post	2		12	1.0	2.5	/experiments/Knapen_AOT/AOT_stimuli/rescaled_final/1732_fw.mp4	0.0	76.65088391304016	0.10006356239318848
4	59.32536816596985	fix_pre	0		120	2.0	2.5	/experiments/Knapen_AOT/AOT_stimuli/rescaled_final/0658_fw.mp4	0.0	76.75094747543335	1.00846266746521
4	59.50899958610535	pulse	0	t		2.0	2.5	/experiments/Knapen_AOT/AOT_stimuli/rescaled_final/0658_fw.mp4	0.0	76.93457889556885	
4	60.33383083343506	movie	1		280	2.0	2.5	/experiments/Knapen_AOT/AOT_stimuli/rescaled_final/0658_fw.mp4	0.0	77.75941014289856	2.4920151233673096
4	61.10719609260559	pulse	1	t		2.0	2.5	/experiments/Knapen_AOT/AOT_stimuli/rescaled_final/0658_fw.mp4	0.0	78.53277540206909	
4	62.70137405395508	pulse	1	t		2.0	2.5	/experiments/Knapen_AOT/AOT_stimuli/rescaled_final/0658_fw.mp4	0.0	80.12695336341858	
4	62.82584595680237	fix_post	2		12	2.0	2.5	/experiments/Knapen_AOT/AOT_stimuli/rescaled_final/0658_fw.mp4	0.0	80.25142526626587	0.10002708435058594
5	62.925873041152954	fix_pre	0		120	3.0	2.5	/experiments/Knapen_AOT/AOT_stimuli/rescaled_final/0120_rv.mp4	0.0	80.35145235061646	1.008493423461914
5	63.93436646461487	movie	1		287	3.0	2.5	/experiments/Knapen_AOT/AOT_stimuli/rescaled_final/0120_rv.mp4	0.0	81.35994577407837	2.492022752761841
5	64.30154466629028	pulse	1	t		3.0	2.5	/experiments/Knapen_AOT/AOT_stimuli/rescaled_final/0120_rv.mp4	0.0	81.72712397575378	
5	65.90155243873596	pulse	1	t		3.0	2.5	/experiments/Knapen_AOT/AOT_stimuli/rescaled_final/0120_rv.mp4	0.0	83.32713174819946	
5	66.42638921737671	fix_post	2		12	3.0	2.5	/experiments/Knapen_AOT/AOT_stimuli/rescaled_final/0120_rv.mp4	0.0	83.85196852684021	0.10012650489807129
6	66.52651572227478	fix_pre	0		118	4.0	2.5	/experiments/Knapen_AOT/AOT_stimuli/rescaled_final/1382_fw.mp4	0.0	83.95209503173828	0.9916844367980957
6	67.5018150806427	pulse	0	t		4.0	2.5	/experiments/Knapen_AOT/AOT_stimuli/rescaled_final/1382_fw.mp4	0.0	84.9273943901062	
6	67.51820015907288	movie	1		288	4.0	2.5	/experiments/Knapen_AOT/AOT_stimuli/rescaled_final/1382_fw.mp4	0.0	84.94377946853638	2.500397205352783
6	69.10209202766418	pulse	1	t		4.0	2.5	/experiments/Knapen_AOT/AOT_stimuli/rescaled_final/1382_fw.mp4	0.0	86.52767133712769	
6	70.01859736442566	fix_post	2		12	4.0	2.5	/experiments/Knapen_AOT/AOT_stimuli/rescaled_final/1382_fw.mp4	0.0	87.44417667388916	0.10004281997680664
7	70.11864018440247	fix_pre	0		120	5.0	2.5	/experiments/Knapen_AOT/AOT_stimuli/rescaled_final/1718_fw.mp4	0.0	87.54421949386597	1.0084896087646484
7	70.70227217674255	pulse	0	t		5.0	2.5	/experiments/Knapen_AOT/AOT_stimuli/rescaled_final/1718_fw.mp4	0.0	88.12785148620605	
7	71.12712979316711	movie	1		290	5.0	2.5	/experiments/Knapen_AOT/AOT_stimuli/rescaled_final/1718_fw.mp4	0.0	88.55270910263062	2.4919610023498535
7	72.30253553390503	pulse	1	t		5.0	2.5	/experiments/Knapen_AOT/AOT_stimuli/rescaled_final/1718_fw.mp4	0.0	89.72811484336853	
7	73.61909079551697	fix_post	2		12	5.0	2.5	/experiments/Knapen_AOT/AOT_stimuli/rescaled_final/1718_fw.mp4	0.0	91.04467010498047	0.10012435913085938
8	73.71921515464783	fix_pre	0		120	6.0	2.5	blank	1.0	91.14479446411133	1.000079870223999
8	73.90266609191895	pulse	0	t		6.0	2.5	blank	1.0	91.32824540138245	
8	74.71929502487183	movie	1		300	6.0	2.5	blank	1.0	92.14487433433533	2.500408411026001
8	75.50303244590759	pulse	1	t		6.0	2.5	blank	1.0	92.9286117553711	
8	77.10315012931824	pulse	1	t		6.0	2.5	blank	1.0	94.52872943878174	
8	77.21970343589783	fix_post	2		12	6.0	2.5	blank	1.0	94.64528274536133	0.09999299049377441
9	77.3196964263916	fix_pre	0		120	7.0	2.5	/experiments/Knapen_AOT/AOT_stimuli/rescaled_final/1156_fw.mp4	0.0	94.7452757358551	1.0084850788116455
9	78.32818150520325	movie	1		289	7.0	2.5	/experiments/Knapen_AOT/AOT_stimuli/rescaled_final/1156_fw.mp4	0.0	95.75376081466675	2.4920239448547363
9	78.7011775970459	pulse	1	t		7.0	2.5	/experiments/Knapen_AOT/AOT_stimuli/rescaled_final/1156_fw.mp4	0.0	96.1267569065094	
9	80.30156064033508	pulse	1	t		7.0	2.5	/experiments/Knapen_AOT/AOT_stimuli/rescaled_final/1156_fw.mp4	0.0	97.72713994979858	
9	80.82020545005798	fix_post	2		12	7.0	2.5	/experiments/Knapen_AOT/AOT_stimuli/rescaled_final/1156_fw.mp4	0.0	98.24578475952148	0.10004353523254395
10	80.92024898529053	fix_pre	0		119	8.0	2.5	/experiments/Knapen_AOT/AOT_stimuli/rescaled_final/1363_fw.mp4	0.0	98.34582829475403	1.000140905380249
10	81.9039716720581	pulse	0	t		8.0	2.5	/experiments/Knapen_AOT/AOT_stimuli/rescaled_final/1363_fw.mp4	0.0	99.3295509815216	
10	81.92038989067078	movie	1		297	8.0	2.5	/experiments/Knapen_AOT/AOT_stimuli/rescaled_final/1363_fw.mp4	0.0	99.34596920013428	2.500358819961548
10	83.50406384468079	pulse	1	t		8.0	2.5	/experiments/Knapen_AOT/AOT_stimuli/rescaled_final/1363_fw.mp4	0.0	100.92964315414429	
10	84.42074871063232	fix_post	2		12	8.0	2.5	/experiments/Knapen_AOT/AOT_stimuli/rescaled_final/1363_fw.mp4	0.0	101.84632802009583	0.10000133514404297
11	84.52075004577637	fix_pre	0		120	9.0	2.5	/experiments/Knapen_AOT/AOT_stimuli/rescaled_final/0782_fw.mp4	0.0	101.94632935523987	1.0001366138458252
11	85.10434126853943	pulse	0	t		9.0	2.5	/experiments/Knapen_AOT/AOT_stimuli/rescaled_final/0782_fw.mp4	0.0	102.52992057800293	
11	85.52088665962219	movie	1		297	9.0	2.5	/experiments/Knapen_AOT/AOT_stimuli/rescaled_final/0782_fw.mp4	0.0	102.9464659690857	2.5004138946533203
11	86.70206093788147	pulse	1	t		9.0	2.5	/experiments/Knapen_AOT/AOT_stimuli/rescaled_final/0782_fw.mp4	0.0	104.12764024734497	
11	88.02130055427551	fix_post	2		12	9.0	2.5	/experiments/Knapen_AOT/AOT_stimuli/rescaled_final/0782_fw.mp4	0.0	105.44687986373901	0.10001492500305176
12	88.12131547927856	fix_pre	0		120	10.0	2.5	/experiments/Knapen_AOT/AOT_stimuli/rescaled_final/1086_fw.mp4	0.0	105.54689478874207	1.0000951290130615
12	88.30486559867859	pulse	0	t		10.0	2.5	/experiments/Knapen_AOT/AOT_stimuli/rescaled_final/1086_fw.mp4	0.0	105.73044490814209	
12	89.12141060829163	movie	1		292	10.0	2.5	/experiments/Knapen_AOT/AOT_stimuli/rescaled_final/1086_fw.mp4	0.0	106.54698991775513	2.500408411026001
12	89.90320134162903	pulse	1	t		10.0	2.5	/experiments/Knapen_AOT/AOT_stimuli/rescaled_final/1086_fw.mp4	0.0	107.32878065109253	
12	91.50280213356018	pulse	1	t		10.0	2.5	/experiments/Knapen_AOT/AOT_stimuli/rescaled_final/1086_fw.mp4	0.0	108.92838144302368	
12	91.62181901931763	fix_post	2		12	10.0	2.5	/experiments/Knapen_AOT/AOT_stimuli/rescaled_final/1086_fw.mp4	0.0	109.04739832878113	0.10002875328063965
13	91.72184777259827	fix_pre	0		120	11.0	2.5	/experiments/Knapen_AOT/AOT_stimuli/rescaled_final/1638_rv.mp4	0.0	109.14742708206177	1.0085270404815674
13	92.73037481307983	movie	1		295	11.0	2.5	/experiments/Knapen_AOT/AOT_stimuli/rescaled_final/1638_rv.mp4	0.0	110.15595412254333	2.492017984390259
13	93.10153341293335	pulse	1	t		11.0	2.5	/experiments/Knapen_AOT/AOT_stimuli/rescaled_final/1638_rv.mp4	0.0	110.52711272239685	
13	94.70604228973389	pulse	1	t		11.0	2.5	/experiments/Knapen_AOT/AOT_stimuli/rescaled_final/1638_rv.mp4	0.0	112.13162159919739	
13	95.22239279747009	fix_post	2		12	11.0	2.5	/experiments/Knapen_AOT/AOT_stimuli/rescaled_final/1638_rv.mp4	0.0	112.6479721069336	0.1000823974609375
14	95.32247519493103	fix_pre	0		119	12.0	2.5	blank	1.0	112.74805450439453	0.991734504699707
14	96.30608534812927	pulse	0	t		12.0	2.5	blank	1.0	113.73166465759277	
14	96.31420969963074	movie	1		301	12.0	2.5	blank	1.0	113.73978900909424	2.508733034133911
14	97.90636372566223	pulse	1	t		12.0	2.5	blank	1.0	115.33194303512573	
14	98.82294273376465	fix_post	2		12	12.0	2.5	blank	1.0	116.24852204322815	0.09999489784240723
15	98.92293763160706	fix_pre	0		120	13.0	2.5	/experiments/Knapen_AOT/AOT_stimuli/rescaled_final/0658_rv.mp4	0.0	116.34851694107056	1.0085983276367188
15	99.50659608840942	pulse	0	t		13.0	2.5	/experiments/Knapen_AOT/AOT_stimuli/rescaled_final/0658_rv.mp4	0.0	116.93217539787292	
15	99.93153595924377	movie	1		277	13.0	2.5	/experiments/Knapen_AOT/AOT_stimuli/rescaled_final/0658_rv.mp4	0.0	117.35711526870728	2.4919283390045166
15	101.10705089569092	pulse	1	t		13.0	2.5	/experiments/Knapen_AOT/AOT_stimuli/rescaled_final/0658_rv.mp4	0.0	118.53263020515442	
15	102.42346429824829	fix_post	2		12	13.0	2.5	/experiments/Knapen_AOT/AOT_stimuli/rescaled_final/0658_rv.mp4	0.0	119.84904360771179	0.10003137588500977
16	102.5234956741333	fix_pre	0		120	14.0	2.5	/experiments/Knapen_AOT/AOT_stimuli/rescaled_final/2166_fw.mp4	0.0	119.9490749835968	1.0085351467132568
16	102.70721006393433	pulse	0	t		14.0	2.5	/experiments/Knapen_AOT/AOT_stimuli/rescaled_final/2166_fw.mp4	0.0	120.13278937339783	
16	103.53203082084656	movie	1		279	14.0	2.5	/experiments/Knapen_AOT/AOT_stimuli/rescaled_final/2166_fw.mp4	0.0	120.95761013031006	2.4920032024383545
16	104.30609965324402	pulse	1	t		14.0	2.5	/experiments/Knapen_AOT/AOT_stimuli/rescaled_final/2166_fw.mp4	0.0	121.73167896270752	
16	105.9057400226593	pulse	1	t		14.0	2.5	/experiments/Knapen_AOT/AOT_stimuli/rescaled_final/2166_fw.mp4	0.0	123.3313193321228	
16	106.02403402328491	fix_post	2		12	14.0	2.5	/experiments/Knapen_AOT/AOT_stimuli/rescaled_final/2166_fw.mp4	0.0	123.44961333274841	0.10002422332763672
17	106.12405824661255	fix_pre	0		120	15.0	2.5	/experiments/Knapen_AOT/AOT_stimuli/rescaled_final/1173_rv.mp4	0.0	123.54963755607605	1.0084826946258545
17	107.1325409412384	movie	1		280	15.0	2.5	/experiments/Knapen_AOT/AOT_stimuli/rescaled_final/1173_rv.mp4	0.0	124.5581202507019	2.4920084476470947
17	107.50631093978882	pulse	1	t		15.0	2.5	/experiments/Knapen_AOT/AOT_stimuli/rescaled_final/1173_rv.mp4	0.0	124.93189024925232	
17	109.10838913917542	pulse	1	t		15.0	2.5	/experiments/Knapen_AOT/AOT_stimuli/rescaled_final/1173_rv.mp4	0.0	126.53396844863892	
17	109.6245493888855	fix_post	2		12	15.0	2.5	/experiments/Knapen_AOT/AOT_stimuli/rescaled_final/1173_rv.mp4	0.0	127.050128698349	0.10015439987182617
18	109.72470378875732	fix_pre	0		119	16.0	2.5	/experiments/Knapen_AOT/AOT_stimuli/rescaled_final/0919_rv.mp4	0.0	127.15028309822083	1.0000226497650146
18	110.70828747749329	pulse	0	t		16.0	2.5	/experiments/Knapen_AOT/AOT_stimuli/rescaled_final/0919_rv.mp4	0.0	128.1338667869568	
18	110.72472643852234	movie	1		295	16.0	2.5	/experiments/Knapen_AOT/AOT_stimuli/rescaled_final/0919_rv.mp4	0.0	128.15030574798584	2.5003504753112793
18	112.3070547580719	pulse	1	t		16.0	2.5	/experiments/Knapen_AOT/AOT_stimuli/rescaled_final/0919_rv.mp4	0.0	129.7326340675354	
18	113.22507691383362	fix_post	2		12	16.0	2.5	/experiments/Knapen_AOT/AOT_stimuli/rescaled_final/0919_rv.mp4	0.0	130.65065622329712	0.10002255439758301
19	113.3250994682312	fix_pre	0		120	17.0	2.5	/experiments/Knapen_AOT/AOT_stimuli/rescaled_final/0677_rv.mp4	0.0	130.7506787776947	1.0001108646392822
19	113.9017813205719	pulse	0	t		17.0	2.5	/experiments/Knapen_AOT/AOT_stimuli/rescaled_final/0677_rv.mp4	0.0	131.3273606300354	
19	114.32521033287048	movie	1		296	17.0	2.5	/experiments/Knapen_AOT/AOT_stimuli/rescaled_final/0677_rv.mp4	0.0	131.75078964233398	2.500420093536377
19	115.5066328048706	pulse	1	t		17.0	2.5	/experiments/Knapen_AOT/AOT_stimuli/rescaled_final/0677_rv.mp4	0.0	132.9322121143341	
19	116.82563042640686	fix_post	2		12	17.0	2.5	/experiments/Knapen_AOT/AOT_stimuli/rescaled_final/0677_rv.mp4	0.0	134.25120973587036	0.10014724731445312
20	116.92577767372131	fix_pre	0		120	18.0	2.5	/experiments/Knapen_AOT/AOT_stimuli/rescaled_final/0185_fw.mp4	0.0	134.35135698318481	1.000004529953003
20	117.10924744606018	pulse	0	t		18.0	2.5	/experiments/Knapen_AOT/AOT_stimuli/rescaled_final/0185_fw.mp4	0.0	134.53482675552368	
20	117.92578220367432	movie	1		297	18.0	2.5	/experiments/Knapen_AOT/AOT_stimuli/rescaled_final/0185_fw.mp4	0.0	135.35136151313782	2.50036883354187
20	118.70515561103821	pulse	1	t		18.0	2.5	/experiments/Knapen_AOT/AOT_stimuli/rescaled_final/0185_fw.mp4	0.0	136.1307349205017	
20	120.3052237033844	pulse	1	t		18.0	2.5	/experiments/Knapen_AOT/AOT_stimuli/rescaled_final/0185_fw.mp4	0.0	137.7308030128479	
20	120.42615103721619	fix_post	2		12	18.0	2.5	/experiments/Knapen_AOT/AOT_stimuli/rescaled_final/0185_fw.mp4	0.0	137.8517303466797	0.10002779960632324
21	120.52617883682251	fix_pre	0		120	19.0	2.5	/experiments/Knapen_AOT/AOT_stimuli/rescaled_final/1382_rv.mp4	0.0	137.951758146286	1.0001559257507324
21	121.52633476257324	movie	1		293	19.0	2.5	/experiments/Knapen_AOT/AOT_stimuli/rescaled_final/1382_rv.mp4	0.0	138.95191407203674	2.5004467964172363
21	121.90166115760803	pulse	1	t		19.0	2.5	/experiments/Knapen_AOT/AOT_stimuli/rescaled_final/1382_rv.mp4	0.0	139.32724046707153	
21	123.50180459022522	pulse	1	t		19.0	2.5	/experiments/Knapen_AOT/AOT_stimuli/rescaled_final/1382_rv.mp4	0.0	140.92738389968872	
21	124.02678155899048	fix_post	2		12	19.0	2.5	/experiments/Knapen_AOT/AOT_stimuli/rescaled_final/1382_rv.mp4	0.0	141.45236086845398	0.09995484352111816
22	124.1267364025116	fix_pre	0		118	20.0	2.5	blank	1.0	141.5523157119751	0.9834585189819336
22	125.10209012031555	pulse	0	t		20.0	2.5	blank	1.0	142.52766942977905	
22	125.11019492149353	movie	1		301	20.0	2.5	blank	1.0	142.53577423095703	2.508741617202759
22	126.70233654975891	pulse	1	t		20.0	2.5	blank	1.0	144.1279158592224	
22	127.61893653869629	fix_post	2		12	20.0	2.5	blank	1.0	145.0445158481598	0.10004901885986328
23	127.71898555755615	fix_pre	0		120	21.0	2.5	/experiments/Knapen_AOT/AOT_stimuli/rescaled_final/0062_rv.mp4	0.0	145.14456486701965	1.0086095333099365
23	128.30272364616394	pulse	0	t		21.0	2.5	/experiments/Knapen_AOT/AOT_stimuli/rescaled_final/0062_rv.mp4	0.0	145.72830295562744	
23	128.7275950908661	movie	1		284	21.0	2.5	/experiments/Knapen_AOT/AOT_stimuli/rescaled_final/0062_rv.mp4	0.0	146.1531744003296	2.4918839931488037
23	129.90285634994507	pulse	1	t		21.0	2.5	/experiments/Knapen_AOT/AOT_stimuli/rescaled_final/0062_rv.mp4	0.0	147.32843565940857	
23	131.2194790840149	fix_post	2		12	21.0	2.5	/experiments/Knapen_AOT/AOT_stimuli/rescaled_final/0062_rv.mp4	0.0	148.6450583934784	0.10017108917236328
24	131.31965017318726	fix_pre	0		120	22.0	2.5	/experiments/Knapen_AOT/AOT_stimuli/rescaled_final/1493_rv.mp4	0.0	148.74522948265076	1.00834321975708
24	131.5030815601349	pulse	0	t		22.0	2.5	/experiments/Knapen_AOT/AOT_stimuli/rescaled_final/1493_rv.mp4	0.0	148.9286608695984	
24	132.32799339294434	movie	1		284	22.0	2.5	/experiments/Knapen_AOT/AOT_stimuli/rescaled_final/1493_rv.mp4	0.0	149.75357270240784	2.4920547008514404
24	133.1033890247345	pulse	1	t		22.0	2.5	/experiments/Knapen_AOT/AOT_stimuli/rescaled_final/1493_rv.mp4	0.0	150.528968334198	
24	134.70362329483032	pulse	1	t		22.0	2.5	/experiments/Knapen_AOT/AOT_stimuli/rescaled_final/1493_rv.mp4	0.0	152.12920260429382	
24	134.82004809379578	fix_post	2		12	22.0	2.5	/experiments/Knapen_AOT/AOT_stimuli/rescaled_final/1493_rv.mp4	0.0	152.24562740325928	0.09998774528503418
25	134.9200358390808	fix_pre	0		120	23.0	2.5	/experiments/Knapen_AOT/AOT_stimuli/rescaled_final/0884_fw.mp4	0.0	152.3456151485443	1.0086147785186768
25	135.9286506175995	movie	1		280	23.0	2.5	/experiments/Knapen_AOT/AOT_stimuli/rescaled_final/0884_fw.mp4	0.0	153.354229927063	2.4919044971466064
25	136.3039824962616	pulse	1	t		23.0	2.5	/experiments/Knapen_AOT/AOT_stimuli/rescaled_final/0884_fw.mp4	0.0	153.7295618057251	
25	137.902028799057	pulse	1	t		23.0	2.5	/experiments/Knapen_AOT/AOT_stimuli/rescaled_final/0884_fw.mp4	0.0	155.3276081085205	
25	138.4205551147461	fix_post	2		12	23.0	2.5	/experiments/Knapen_AOT/AOT_stimuli/rescaled_final/0884_fw.mp4	0.0	155.8461344242096	0.10001873970031738
26	138.5205738544464	fix_pre	0		119	24.0	2.5	/experiments/Knapen_AOT/AOT_stimuli/rescaled_final/1243_fw.mp4	0.0	155.9461531639099	1.0001578330993652
26	139.5043261051178	pulse	0	t		24.0	2.5	/experiments/Knapen_AOT/AOT_stimuli/rescaled_final/1243_fw.mp4	0.0	156.9299054145813	
26	139.52073168754578	movie	1		278	24.0	2.5	/experiments/Knapen_AOT/AOT_stimuli/rescaled_final/1243_fw.mp4	0.0	156.94631099700928	2.500359535217285
26	141.10306572914124	pulse	1	t		24.0	2.5	/experiments/Knapen_AOT/AOT_stimuli/rescaled_final/1243_fw.mp4	0.0	158.52864503860474	
26	142.02109122276306	fix_post	2		12	24.0	2.5	/experiments/Knapen_AOT/AOT_stimuli/rescaled_final/1243_fw.mp4	0.0	159.44667053222656	0.10004472732543945
27	142.1211359500885	fix_pre	0		120	25.0	2.5	/experiments/Knapen_AOT/AOT_stimuli/rescaled_final/1479_fw.mp4	0.0	159.546715259552	1.0084609985351562
27	142.7049310207367	pulse	0	t		25.0	2.5	/experiments/Knapen_AOT/AOT_stimuli/rescaled_final/1479_fw.mp4	0.0	160.1305103302002	
27	143.12959694862366	movie	1		275	25.0	2.5	/experiments/Knapen_AOT/AOT_stimuli/rescaled_final/1479_fw.mp4	0.0	160.55517625808716	2.492053985595703
27	144.30324506759644	pulse	1	t		25.0	2.5	/experiments/Knapen_AOT/AOT_stimuli/rescaled_final/1479_fw.mp4	0.0	161.72882437705994	
27	145.62165093421936	fix_post	2		12	25.0	2.5	/experiments/Knapen_AOT/AOT_stimuli/rescaled_final/1479_fw.mp4	0.0	163.04723024368286	0.10000801086425781
28	145.72165894508362	fix_pre	0		120	26.0	2.5	/experiments/Knapen_AOT/AOT_stimuli/rescaled_final/0766_rv.mp4	0.0	163.14723825454712	1.0085055828094482
28	145.90526580810547	pulse	0	t		26.0	2.5	/experiments/Knapen_AOT/AOT_stimuli/rescaled_final/0766_rv.mp4	0.0	163.33084511756897	
28	146.73016452789307	movie	1		285	26.0	2.5	/experiments/Knapen_AOT/AOT_stimuli/rescaled_final/0766_rv.mp4	0.0	164.15574383735657	2.492056131362915
28	147.5043807029724	pulse	1	t		26.0	2.5	/experiments/Knapen_AOT/AOT_stimuli/rescaled_final/0766_rv.mp4	0.0	164.9299600124359	
28	149.10365986824036	pulse	1	t		26.0	2.5	/experiments/Knapen_AOT/AOT_stimuli/rescaled_final/0766_rv.mp4	0.0	166.52923917770386	
28	149.22222065925598	fix_post	2		12	26.0	2.5	/experiments/Knapen_AOT/AOT_stimuli/rescaled_final/0766_rv.mp4	0.0	166.64779996871948	0.0999908447265625
29	149.32221150398254	fix_pre	0		120	27.0	2.5	/experiments/Knapen_AOT/AOT_stimuli/rescaled_final/0062_rv.mp4	0.0	166.74779081344604	1.0085444450378418
29	150.33075594902039	movie	1		295	27.0	2.5	/experiments/Knapen_AOT/AOT_stimuli/rescaled_final/0062_rv.mp4	0.0	167.7563352584839	2.4919824600219727
29	150.7045431137085	pulse	1	t		27.0	2.5	/experiments/Knapen_AOT/AOT_stimuli/rescaled_final/0062_rv.mp4	0.0	168.130122423172	
29	152.30413103103638	pulse	1	t		27.0	2.5	/experiments/Knapen_AOT/AOT_stimuli/rescaled_final/0062_rv.mp4	0.0	169.72971034049988	
29	152.82273840904236	fix_post	2		12	27.0	2.5	/experiments/Knapen_AOT/AOT_stimuli/rescaled_final/0062_rv.mp4	0.0	170.24831771850586	0.10000419616699219
30	152.92274260520935	fix_pre	0		119	28.0	2.5	blank	1.0	170.34832191467285	0.9917957782745361
30	153.90669703483582	pulse	0	t		28.0	2.5	blank	1.0	171.33227634429932	
30	153.9145383834839	movie	1		301	28.0	2.5	blank	1.0	171.3401176929474	2.5087411403656006
30	155.50668501853943	pulse	1	t		28.0	2.5	blank	1.0	172.93226432800293	
30	156.4232795238495	fix_post	2		12	28.0	2.5	blank	1.0	173.848858833313	0.10001921653747559
31	156.52329874038696	fix_pre	0		120	29.0	2.5	/experiments/Knapen_AOT/AOT_stimuli/rescaled_final/0263_fw.mp4	0.0	173.94887804985046	1.008598804473877
31	157.10699582099915	pulse	0	t		29.0	2.5	/experiments/Knapen_AOT/AOT_stimuli/rescaled_final/0263_fw.mp4	0.0	174.53257513046265	
31	157.53189754486084	movie	1		286	29.0	2.5	/experiments/Knapen_AOT/AOT_stimuli/rescaled_final/0263_fw.mp4	0.0	174.95747685432434	2.491959571838379
31	158.70531845092773	pulse	1	t		29.0	2.5	/experiments/Knapen_AOT/AOT_stimuli/rescaled_final/0263_fw.mp4	0.0	176.13089776039124	
31	160.02385711669922	fix_post	2		12	29.0	2.5	/experiments/Knapen_AOT/AOT_stimuli/rescaled_final/0263_fw.mp4	0.0	177.44943642616272	0.09998393058776855
32	160.123841047287	fix_pre	0		120	30.0	2.5	/experiments/Knapen_AOT/AOT_stimuli/rescaled_final/0953_rv.mp4	0.0	177.5494203567505	1.008507251739502
32	160.30747604370117	pulse	0	t		30.0	2.5	/experiments/Knapen_AOT/AOT_stimuli/rescaled_final/0953_rv.mp4	0.0	177.73305535316467	
32	161.1323482990265	movie	1		276	30.0	2.5	/experiments/Knapen_AOT/AOT_stimuli/rescaled_final/0953_rv.mp4	0.0	178.55792760849	2.492072820663452
32	161.9057900905609	pulse	1	t		30.0	2.5	/experiments/Knapen_AOT/AOT_stimuli/rescaled_final/0953_rv.mp4	0.0	179.3313694000244	
32	163.5059642791748	pulse	1	t		30.0	2.5	/experiments/Knapen_AOT/AOT_stimuli/rescaled_final/0953_rv.mp4	0.0	180.9315435886383	
32	163.62442111968994	fix_post	2		12	30.0	2.5	/experiments/Knapen_AOT/AOT_stimuli/rescaled_final/0953_rv.mp4	0.0	181.05000042915344	0.09993648529052734
33	163.72435760498047	fix_pre	0		120	31.0	2.5	/experiments/Knapen_AOT/AOT_stimuli/rescaled_final/1812_rv.mp4	0.0	181.14993691444397	1.0085206031799316
33	164.7328782081604	movie	1		273	31.0	2.5	/experiments/Knapen_AOT/AOT_stimuli/rescaled_final/1812_rv.mp4	0.0	182.1584575176239	2.4920260906219482
33	165.10639071464539	pulse	1	t		31.0	2.5	/experiments/Knapen_AOT/AOT_stimuli/rescaled_final/1812_rv.mp4	0.0	182.5319700241089	
33	166.7066216468811	pulse	1	t		31.0	2.5	/experiments/Knapen_AOT/AOT_stimuli/rescaled_final/1812_rv.mp4	0.0	184.1322009563446	
33	167.22490429878235	fix_post	2		12	31.0	2.5	/experiments/Knapen_AOT/AOT_stimuli/rescaled_final/1812_rv.mp4	0.0	184.65048360824585	0.10000872611999512
34	167.32491302490234	fix_pre	0		119	32.0	2.5	/experiments/Knapen_AOT/AOT_stimuli/rescaled_final/1760_rv.mp4	0.0	184.75049233436584	1.0001964569091797
34	168.308673620224	pulse	0	t		32.0	2.5	/experiments/Knapen_AOT/AOT_stimuli/rescaled_final/1760_rv.mp4	0.0	185.7342529296875	
34	168.32510948181152	movie	1		280	32.0	2.5	/experiments/Knapen_AOT/AOT_stimuli/rescaled_final/1760_rv.mp4	0.0	185.75068879127502	2.5003256797790527
34	169.90896034240723	pulse	1	t		32.0	2.5	/experiments/Knapen_AOT/AOT_stimuli/rescaled_final/1760_rv.mp4	0.0	187.33453965187073	
34	170.82543516159058	fix_post	2		12	32.0	2.5	/experiments/Knapen_AOT/AOT_stimuli/rescaled_final/1760_rv.mp4	0.0	188.25101447105408	0.10005354881286621
35	170.92548871040344	fix_pre	0		120	33.0	2.5	/experiments/Knapen_AOT/AOT_stimuli/rescaled_final/0285_fw.mp4	0.0	188.35106801986694	1.0085153579711914
35	171.50911569595337	pulse	0	t		33.0	2.5	/experiments/Knapen_AOT/AOT_stimuli/rescaled_final/0285_fw.mp4	0.0	188.93469500541687	
35	171.93400406837463	movie	1		273	33.0	2.5	/experiments/Knapen_AOT/AOT_stimuli/rescaled_final/0285_fw.mp4	0.0	189.35958337783813	2.500318765640259
35	173.10749554634094	pulse	1	t		33.0	2.5	/experiments/Knapen_AOT/AOT_stimuli/rescaled_final/0285_fw.mp4	0.0	190.53307485580444	
35	174.4343228340149	fix_post	2		11	33.0	2.5	/experiments/Knapen_AOT/AOT_stimuli/rescaled_final/0285_fw.mp4	0.0	191.8599021434784	0.09168791770935059
36	174.52601075172424	fix_pre	0		120	34.0	2.5	/experiments/Knapen_AOT/AOT_stimuli/rescaled_final/1493_rv.mp4	0.0	191.95159006118774	1.0084795951843262
36	174.70229268074036	pulse	0	t		34.0	2.5	/experiments/Knapen_AOT/AOT_stimuli/rescaled_final/1493_rv.mp4	0.0	192.12787199020386	
36	175.53449034690857	movie	1		286	34.0	2.5	/experiments/Knapen_AOT/AOT_stimuli/rescaled_final/1493_rv.mp4	0.0	192.96006965637207	2.4920363426208496
36	176.30778217315674	pulse	1	t		34.0	2.5	/experiments/Knapen_AOT/AOT_stimuli/rescaled_final/1493_rv.mp4	0.0	193.73336148262024	
36	177.9082772731781	pulse	1	t		34.0	2.5	/experiments/Knapen_AOT/AOT_stimuli/rescaled_final/1493_rv.mp4	0.0	195.3338565826416	
36	178.02652668952942	fix_post	2		12	34.0	2.5	/experiments/Knapen_AOT/AOT_stimuli/rescaled_final/1493_rv.mp4	0.0	195.45210599899292	0.10002779960632324
37	178.12655448913574	fix_pre	0		120	35.0	2.5	blank	1.0	195.55213379859924	1.0001285076141357
37	179.12668299674988	movie	1		299	35.0	2.5	blank	1.0	196.55226230621338	2.5003788471221924
37	179.5025429725647	pulse	1	t		35.0	2.5	blank	1.0	196.9281222820282	
37	181.10278487205505	pulse	1	t		35.0	2.5	blank	1.0	198.52836418151855	
37	181.62706184387207	fix_post	2		12	35.0	2.5	blank	1.0	199.05264115333557	0.10001111030578613
38	181.72707295417786	fix_pre	0		118	36.0	2.5	/experiments/Knapen_AOT/AOT_stimuli/rescaled_final/1382_fw.mp4	0.0	199.15265226364136	1.000197410583496
38	182.70283913612366	pulse	0	t		36.0	2.5	/experiments/Knapen_AOT/AOT_stimuli/rescaled_final/1382_fw.mp4	0.0	200.12841844558716	
38	182.72727036476135	movie	1		275	36.0	2.5	/experiments/Knapen_AOT/AOT_stimuli/rescaled_final/1382_fw.mp4	0.0	200.15284967422485	2.4920847415924072
38	184.30282187461853	pulse	1	t		36.0	2.5	/experiments/Knapen_AOT/AOT_stimuli/rescaled_final/1382_fw.mp4	0.0	201.72840118408203	
38	185.21935510635376	fix_post	2		12	36.0	2.5	/experiments/Knapen_AOT/AOT_stimuli/rescaled_final/1382_fw.mp4	0.0	202.64493441581726	0.09995174407958984
39	185.31930685043335	fix_pre	0		120	37.0	2.5	/experiments/Knapen_AOT/AOT_stimuli/rescaled_final/0884_rv.mp4	0.0	202.74488615989685	1.0084738731384277
39	185.90296983718872	pulse	0	t		37.0	2.5	/experiments/Knapen_AOT/AOT_stimuli/rescaled_final/0884_rv.mp4	0.0	203.32854914665222	
39	186.32778072357178	movie	1		281	37.0	2.5	/experiments/Knapen_AOT/AOT_stimuli/rescaled_final/0884_rv.mp4	0.0	203.75336003303528	2.4920237064361572
39	187.50332975387573	pulse	1	t		37.0	2.5	/experiments/Knapen_AOT/AOT_stimuli/rescaled_final/0884_rv.mp4	0.0	204.92890906333923	
39	188.81980443000793	fix_post	2		12	37.0	2.5	/experiments/Knapen_AOT/AOT_stimuli/rescaled_final/0884_rv.mp4	0.0	206.24538373947144	0.10004520416259766
40	188.91984963417053	fix_pre	0		120	38.0	2.5	/experiments/Knapen_AOT/AOT_stimuli/rescaled_final/0206_rv.mp4	0.0	206.34542894363403	1.0085396766662598
40	189.1034119129181	pulse	0	t		38.0	2.5	/experiments/Knapen_AOT/AOT_stimuli/rescaled_final/0206_rv.mp4	0.0	206.5289912223816	
40	189.9283893108368	movie	1		269	38.0	2.5	/experiments/Knapen_AOT/AOT_stimuli/rescaled_final/0206_rv.mp4	0.0	207.3539686203003	2.491981029510498
40	190.70364356040955	pulse	1	t		38.0	2.5	/experiments/Knapen_AOT/AOT_stimuli/rescaled_final/0206_rv.mp4	0.0	208.12922286987305	
40	192.304381608963	pulse	1	t		38.0	2.5	/experiments/Knapen_AOT/AOT_stimuli/rescaled_final/0206_rv.mp4	0.0	209.7299609184265	
40	192.4203703403473	fix_post	2		12	38.0	2.5	/experiments/Knapen_AOT/AOT_stimuli/rescaled_final/0206_rv.mp4	0.0	209.8459496498108	0.10020852088928223
41	192.52057886123657	fix_pre	0		120	39.0	2.5	/experiments/Knapen_AOT/AOT_stimuli/rescaled_final/0884_fw.mp4	0.0	209.94615817070007	1.0083816051483154
41	193.5289604663849	movie	1		276	39.0	2.5	/experiments/Knapen_AOT/AOT_stimuli/rescaled_final/0884_fw.mp4	0.0	210.9545397758484	2.4919421672821045
41	193.9043595790863	pulse	1	t		39.0	2.5	/experiments/Knapen_AOT/AOT_stimuli/rescaled_final/0884_fw.mp4	0.0	211.3299388885498	
41	195.50227642059326	pulse	1	t		39.0	2.5	/experiments/Knapen_AOT/AOT_stimuli/rescaled_final/0884_fw.mp4	0.0	212.92785573005676	
41	196.020902633667	fix_post	2		12	39.0	2.5	/experiments/Knapen_AOT/AOT_stimuli/rescaled_final/0884_fw.mp4	0.0	213.4464819431305	0.10002017021179199
42	196.12092280387878	fix_pre	0		119	40.0	2.5	/experiments/Knapen_AOT/AOT_stimuli/rescaled_final/0812_rv.mp4	0.0	213.54650211334229	1.0001966953277588
42	197.10463523864746	pulse	0	t		40.0	2.5	/experiments/Knapen_AOT/AOT_stimuli/rescaled_final/0812_rv.mp4	0.0	214.53021454811096	
42	197.12111949920654	movie	1		271	40.0	2.5	/experiments/Knapen_AOT/AOT_stimuli/rescaled_final/0812_rv.mp4	0.0	214.54669880867004	2.5003180503845215
42	198.7033610343933	pulse	1	t		40.0	2.5	/experiments/Knapen_AOT/AOT_stimuli/rescaled_final/0812_rv.mp4	0.0	216.1289403438568	
42	199.62143754959106	fix_post	2		12	40.0	2.5	/experiments/Knapen_AOT/AOT_stimuli/rescaled_final/0812_rv.mp4	0.0	217.04701685905457	0.10002875328063965
43	199.7214663028717	fix_pre	0		120	41.0	2.5	blank	1.0	217.1470456123352	1.0001378059387207
43	200.30516529083252	pulse	0	t		41.0	2.5	blank	1.0	217.73074460029602	
43	200.72160410881042	movie	1		300	41.0	2.5	blank	1.0	218.14718341827393	2.5003724098205566
43	201.90530610084534	pulse	1	t		41.0	2.5	blank	1.0	219.33088541030884	
43	203.22197651863098	fix_post	2		12	41.0	2.5	blank	1.0	220.64755582809448	0.100067138671875
44	203.32204365730286	fix_pre	0		120	42.0	2.5	/experiments/Knapen_AOT/AOT_stimuli/rescaled_final/1342_fw.mp4	0.0	220.74762296676636	1.008486032485962
44	203.50555682182312	pulse	0	t		42.0	2.5	/experiments/Knapen_AOT/AOT_stimuli/rescaled_final/1342_fw.mp4	0.0	220.93113613128662	
44	204.33052968978882	movie	1		270	42.0	2.5	/experiments/Knapen_AOT/AOT_stimuli/rescaled_final/1342_fw.mp4	0.0	221.75610899925232	2.491987466812134
44	205.10398411750793	pulse	1	t		42.0	2.5	/experiments/Knapen_AOT/AOT_stimuli/rescaled_final/1342_fw.mp4	0.0	222.52956342697144	
44	206.70415544509888	pulse	1	t		42.0	2.5	/experiments/Knapen_AOT/AOT_stimuli/rescaled_final/1342_fw.mp4	0.0	224.12973475456238	
44	206.82251715660095	fix_post	2		12	42.0	2.5	/experiments/Knapen_AOT/AOT_stimuli/rescaled_final/1342_fw.mp4	0.0	224.24809646606445	0.10005593299865723
45	206.9225730895996	fix_pre	0		120	43.0	2.5	/experiments/Knapen_AOT/AOT_stimuli/rescaled_final/1782_rv.mp4	0.0	224.3481523990631	1.008476972579956
45	207.93105006217957	movie	1		284	43.0	2.5	/experiments/Knapen_AOT/AOT_stimuli/rescaled_final/1782_rv.mp4	0.0	225.35662937164307	2.5003867149353027
45	208.30464720726013	pulse	1	t		43.0	2.5	/experiments/Knapen_AOT/AOT_stimuli/rescaled_final/1782_rv.mp4	0.0	225.73022651672363	
45	209.9044051170349	pulse	1	t		43.0	2.5	/experiments/Knapen_AOT/AOT_stimuli/rescaled_final/1782_rv.mp4	0.0	227.3299844264984	
45	210.43143677711487	fix_post	2		11	43.0	2.5	/experiments/Knapen_AOT/AOT_stimuli/rescaled_final/1782_rv.mp4	0.0	227.85701608657837	0.09164738655090332
46	210.52308416366577	fix_pre	0		119	44.0	2.5	/experiments/Knapen_AOT/AOT_stimuli/rescaled_final/0120_rv.mp4	0.0	227.94866347312927	1.0003890991210938
46	211.5068142414093	pulse	0	t		44.0	2.5	/experiments/Knapen_AOT/AOT_stimuli/rescaled_final/0120_rv.mp4	0.0	228.9323935508728	
46	211.52347326278687	movie	1		279	44.0	2.5	/experiments/Knapen_AOT/AOT_stimuli/rescaled_final/0120_rv.mp4	0.0	228.94905257225037	2.5004026889801025
46	213.10552334785461	pulse	1	t		44.0	2.5	/experiments/Knapen_AOT/AOT_stimuli/rescaled_final/0120_rv.mp4	0.0	230.53110265731812	
46	214.02387595176697	fix_post	2		12	44.0	2.5	/experiments/Knapen_AOT/AOT_stimuli/rescaled_final/0120_rv.mp4	0.0	231.44945526123047	0.09976768493652344
47	214.1236436367035	fix_pre	0		120	45.0	2.5	/experiments/Knapen_AOT/AOT_stimuli/rescaled_final/0185_rv.mp4	0.0	231.549222946167	1.0084900856018066
47	214.70726776123047	pulse	0	t		45.0	2.5	/experiments/Knapen_AOT/AOT_stimuli/rescaled_final/0185_rv.mp4	0.0	232.13284707069397	
47	215.1321337223053	movie	1		288	45.0	2.5	/experiments/Knapen_AOT/AOT_stimuli/rescaled_final/0185_rv.mp4	0.0	232.5577130317688	2.4920074939727783
47	216.30559039115906	pulse	1	t		45.0	2.5	/experiments/Knapen_AOT/AOT_stimuli/rescaled_final/0185_rv.mp4	0.0	233.73116970062256	
47	217.62414121627808	fix_post	2		12	45.0	2.5	/experiments/Knapen_AOT/AOT_stimuli/rescaled_final/0185_rv.mp4	0.0	235.04972052574158	0.23352384567260742
48	217.85766506195068	fix_pre	0		104	46.0	2.5	/experiments/Knapen_AOT/AOT_stimuli/rescaled_final/1141_rv.mp4	0.0	235.28324437141418	0.8750243186950684
48	217.90772008895874	pulse	0	t		46.0	2.5	/experiments/Knapen_AOT/AOT_stimuli/rescaled_final/1141_rv.mp4	0.0	235.33329939842224	
48	218.73268938064575	movie	1		280	46.0	2.5	/experiments/Knapen_AOT/AOT_stimuli/rescaled_final/1141_rv.mp4	0.0	236.15826869010925	2.491992235183716
48	219.50683856010437	pulse	1	t		46.0	2.5	/experiments/Knapen_AOT/AOT_stimuli/rescaled_final/1141_rv.mp4	0.0	236.93241786956787	
48	221.10628604888916	pulse	1	t		46.0	2.5	/experiments/Knapen_AOT/AOT_stimuli/rescaled_final/1141_rv.mp4	0.0	238.53186535835266	
48	221.22468161582947	fix_post	2		12	46.0	2.5	/experiments/Knapen_AOT/AOT_stimuli/rescaled_final/1141_rv.mp4	0.0	238.65026092529297	0.10002660751342773
49	221.3247082233429	fix_pre	0		120	47.0	2.5	/experiments/Knapen_AOT/AOT_stimuli/rescaled_final/0958_rv.mp4	0.0	238.7502875328064	1.008500576019287
49	222.33320879936218	movie	1		279	47.0	2.5	/experiments/Knapen_AOT/AOT_stimuli/rescaled_final/0958_rv.mp4	0.0	239.75878810882568	2.492016315460205
49	222.70708870887756	pulse	1	t		47.0	2.5	/experiments/Knapen_AOT/AOT_stimuli/rescaled_final/0958_rv.mp4	0.0	240.13266801834106	
49	224.30669784545898	pulse	1	t		47.0	2.5	/experiments/Knapen_AOT/AOT_stimuli/rescaled_final/0958_rv.mp4	0.0	241.73227715492249	
49	224.8252251148224	fix_post	2		12	47.0	2.5	/experiments/Knapen_AOT/AOT_stimuli/rescaled_final/0958_rv.mp4	0.0	242.2508044242859	0.1000373363494873
50	224.92526245117188	fix_pre	0		119	48.0	2.5	blank	1.0	242.35084176063538	0.9918086528778076
50	225.90237522125244	pulse	0	t		48.0	2.5	blank	1.0	243.32795453071594	
50	225.91707110404968	movie	1		301	48.0	2.5	blank	1.0	243.34265041351318	2.5086982250213623
50	227.50293135643005	pulse	1	t		48.0	2.5	blank	1.0	244.92851066589355	
50	228.42576932907104	fix_post	2		12	48.0	2.5	blank	1.0	245.85134863853455	0.10003161430358887
51	228.52580094337463	fix_pre	0		120	49.0	2.5	/experiments/Knapen_AOT/AOT_stimuli/rescaled_final/0461_fw.mp4	0.0	245.95138025283813	1.0084731578826904
51	229.10261130332947	pulse	0	t		49.0	2.5	/experiments/Knapen_AOT/AOT_stimuli/rescaled_final/0461_fw.mp4	0.0	246.52819061279297	
51	229.53427410125732	movie	1		282	49.0	2.5	/experiments/Knapen_AOT/AOT_stimuli/rescaled_final/0461_fw.mp4	0.0	246.95985341072083	2.4921090602874756
51	230.7016658782959	pulse	1	t		49.0	2.5	/experiments/Knapen_AOT/AOT_stimuli/rescaled_final/0461_fw.mp4	0.0	248.1272451877594	
51	232.0263831615448	fix_post	2		12	49.0	2.5	/experiments/Knapen_AOT/AOT_stimuli/rescaled_final/0461_fw.mp4	0.0	249.4519624710083	0.10010957717895508
52	232.12649273872375	fix_pre	0		120	50.0	2.5	/experiments/Knapen_AOT/AOT_stimuli/rescaled_final/0272_fw.mp4	0.0	249.55207204818726	1.008314847946167
52	232.30158257484436	pulse	0	t		50.0	2.5	/experiments/Knapen_AOT/AOT_stimuli/rescaled_final/0272_fw.mp4	0.0	249.72716188430786	
52	233.13480758666992	movie	1		275	50.0	2.5	/experiments/Knapen_AOT/AOT_stimuli/rescaled_final/0272_fw.mp4	0.0	250.56038689613342	2.492063045501709
52	233.90178775787354	pulse	1	t		50.0	2.5	/experiments/Knapen_AOT/AOT_stimuli/rescaled_final/0272_fw.mp4	0.0	251.32736706733704	
52	235.50220775604248	pulse	1	t		50.0	2.5	/experiments/Knapen_AOT/AOT_stimuli/rescaled_final/0272_fw.mp4	0.0	252.92778706550598	
52	235.62687063217163	fix_post	2		12	50.0	2.5	/experiments/Knapen_AOT/AOT_stimuli/rescaled_final/0272_fw.mp4	0.0	253.05244994163513	0.10002398490905762
53	235.7268946170807	fix_pre	0		120	51.0	2.5	/experiments/Knapen_AOT/AOT_stimuli/rescaled_final/1411_fw.mp4	0.0	253.1524739265442	1.0085127353668213
53	236.7354073524475	movie	1		277	51.0	2.5	/experiments/Knapen_AOT/AOT_stimuli/rescaled_final/1411_fw.mp4	0.0	254.160986661911	2.4919862747192383
53	237.10266089439392	pulse	1	t		51.0	2.5	/experiments/Knapen_AOT/AOT_stimuli/rescaled_final/1411_fw.mp4	0.0	254.52824020385742	
53	238.70252966880798	pulse	1	t		51.0	2.5	/experiments/Knapen_AOT/AOT_stimuli/rescaled_final/1411_fw.mp4	0.0	256.1281089782715	
53	239.22739362716675	fix_post	2		12	51.0	2.5	/experiments/Knapen_AOT/AOT_stimuli/rescaled_final/1411_fw.mp4	0.0	256.65297293663025	0.10003542900085449
54	239.3274290561676	fix_pre	0		118	52.0	2.5	/experiments/Knapen_AOT/AOT_stimuli/rescaled_final/2098_rv.mp4	0.0	256.7530083656311	0.9918177127838135
54	240.30291152000427	pulse	0	t		52.0	2.5	/experiments/Knapen_AOT/AOT_stimuli/rescaled_final/2098_rv.mp4	0.0	257.7284908294678	
54	240.31924676895142	movie	1		281	52.0	2.5	/experiments/Knapen_AOT/AOT_stimuli/rescaled_final/2098_rv.mp4	0.0	257.7448260784149	2.500429391860962
54	241.90172171592712	pulse	1	t		52.0	2.5	/experiments/Knapen_AOT/AOT_stimuli/rescaled_final/2098_rv.mp4	0.0	259.3273010253906	
54	242.81967616081238	fix_post	2		12	52.0	2.5	/experiments/Knapen_AOT/AOT_stimuli/rescaled_final/2098_rv.mp4	0.0	260.2452554702759	0.10002541542053223
55	242.9197015762329	fix_pre	0		120	53.0	2.5	/experiments/Knapen_AOT/AOT_stimuli/rescaled_final/0141_rv.mp4	0.0	260.3452808856964	1.008425235748291
55	243.50331854820251	pulse	0	t		53.0	2.5	/experiments/Knapen_AOT/AOT_stimuli/rescaled_final/0141_rv.mp4	0.0	260.928897857666	
55	243.9281268119812	movie	1		280	53.0	2.5	/experiments/Knapen_AOT/AOT_stimuli/rescaled_final/0141_rv.mp4	0.0	261.3537061214447	2.492027759552002
55	245.1033582687378	pulse	1	t		53.0	2.5	/experiments/Knapen_AOT/AOT_stimuli/rescaled_final/0141_rv.mp4	0.0	262.5289375782013	
55	246.4201545715332	fix_post	2		12	53.0	2.5	/experiments/Knapen_AOT/AOT_stimuli/rescaled_final/0141_rv.mp4	0.0	263.8457338809967	0.10001587867736816
56	246.52017045021057	fix_pre	0		120	54.0	2.5	/experiments/Knapen_AOT/AOT_stimuli/rescaled_final/0048_rv.mp4	0.0	263.9457497596741	1.0084669589996338
56	246.70371866226196	pulse	0	t		54.0	2.5	/experiments/Knapen_AOT/AOT_stimuli/rescaled_final/0048_rv.mp4	0.0	264.12929797172546	
56	247.5286374092102	movie	1		281	54.0	2.5	/experiments/Knapen_AOT/AOT_stimuli/rescaled_final/0048_rv.mp4	0.0	264.9542167186737	2.492147445678711
56	248.3020920753479	pulse	1	t		54.0	2.5	/experiments/Knapen_AOT/AOT_stimuli/rescaled_final/0048_rv.mp4	0.0	265.7276713848114	
56	249.90219974517822	pulse	1	t		54.0	2.5	/experiments/Knapen_AOT/AOT_stimuli/rescaled_final/0048_rv.mp4	0.0	267.3277790546417	
56	250.02078485488892	fix_post	2		12	54.0	2.5	/experiments/Knapen_AOT/AOT_stimuli/rescaled_final/0048_rv.mp4	0.0	267.4463641643524	0.09993195533752441
57	250.12071681022644	fix_pre	0		120	55.0	2.5	blank	1.0	267.54629611968994	1.0001304149627686
57	251.1208472251892	movie	1		300	55.0	2.5	blank	1.0	268.5464265346527	2.500483751296997
57	251.50455570220947	pulse	1	t		55.0	2.5	blank	1.0	268.930135011673	
57	253.10481548309326	pulse	1	t		55.0	2.5	blank	1.0	270.53039479255676	
57	253.6213309764862	fix_post	2		12	55.0	2.5	blank	1.0	271.0469102859497	0.10000157356262207
58	253.72133255004883	fix_pre	0		119	56.0	2.5	/experiments/Knapen_AOT/AOT_stimuli/rescaled_final/0548_rv.mp4	0.0	271.14691185951233	1.008450984954834
58	254.70510339736938	pulse	0	t		56.0	2.5	/experiments/Knapen_AOT/AOT_stimuli/rescaled_final/0548_rv.mp4	0.0	272.1306827068329	
58	254.72978353500366	movie	1		262	56.0	2.5	/experiments/Knapen_AOT/AOT_stimuli/rescaled_final/0548_rv.mp4	0.0	272.15536284446716	2.4919986724853516
58	256.3039586544037	pulse	1	t		56.0	2.5	/experiments/Knapen_AOT/AOT_stimuli/rescaled_final/0548_rv.mp4	0.0	273.7295379638672	
58	257.221782207489	fix_post	2		12	56.0	2.5	/experiments/Knapen_AOT/AOT_stimuli/rescaled_final/0548_rv.mp4	0.0	274.6473615169525	0.10002708435058594
59	257.3218092918396	fix_pre	0		120	57.0	2.5	/experiments/Knapen_AOT/AOT_stimuli/rescaled_final/1676_fw.mp4	0.0	274.7473886013031	1.0084562301635742
59	257.9054708480835	pulse	0	t		57.0	2.5	/experiments/Knapen_AOT/AOT_stimuli/rescaled_final/1676_fw.mp4	0.0	275.331050157547	
59	258.3302655220032	movie	1		283	57.0	2.5	/experiments/Knapen_AOT/AOT_stimuli/rescaled_final/1676_fw.mp4	0.0	275.7558448314667	2.4920973777770996
59	259.5039188861847	pulse	1	t		57.0	2.5	/experiments/Knapen_AOT/AOT_stimuli/rescaled_final/1676_fw.mp4	0.0	276.9294981956482	
59	260.8223628997803	fix_post	2		12	57.0	2.5	/experiments/Knapen_AOT/AOT_stimuli/rescaled_final/1676_fw.mp4	0.0	278.2479422092438	0.10007166862487793
60	260.92243456840515	fix_pre	0		120	58.0	2.5	/experiments/Knapen_AOT/AOT_stimuli/rescaled_final/0566_fw.mp4	0.0	278.34801387786865	1.0083892345428467
60	261.106064081192	pulse	0	t		58.0	2.5	/experiments/Knapen_AOT/AOT_stimuli/rescaled_final/0566_fw.mp4	0.0	278.5316433906555	
60	261.930823802948	movie	1		255	58.0	2.5	/experiments/Knapen_AOT/AOT_stimuli/rescaled_final/0566_fw.mp4	0.0	279.3564031124115	2.4920806884765625
60	262.70560240745544	pulse	1	t		58.0	2.5	/experiments/Knapen_AOT/AOT_stimuli/rescaled_final/0566_fw.mp4	0.0	280.13118171691895	
60	264.30658054351807	pulse	1	t		58.0	2.5	/experiments/Knapen_AOT/AOT_stimuli/rescaled_final/0566_fw.mp4	0.0	281.73215985298157	
60	264.42290449142456	fix_post	2		12	58.0	2.5	/experiments/Knapen_AOT/AOT_stimuli/rescaled_final/0566_fw.mp4	0.0	281.84848380088806	0.0999746322631836
61	264.52287912368774	fix_pre	0		120	59.0	2.5	/experiments/Knapen_AOT/AOT_stimuli/rescaled_final/1243_rv.mp4	0.0	281.94845843315125	1.0085160732269287
61	265.5313951969147	movie	1		285	59.0	2.5	/experiments/Knapen_AOT/AOT_stimuli/rescaled_final/1243_rv.mp4	0.0	282.9569745063782	2.492033004760742
61	265.90615606307983	pulse	1	t		59.0	2.5	/experiments/Knapen_AOT/AOT_stimuli/rescaled_final/1243_rv.mp4	0.0	283.33173537254333	
61	267.5054306983948	pulse	1	t		59.0	2.5	/experiments/Knapen_AOT/AOT_stimuli/rescaled_final/1243_rv.mp4	0.0	284.9310100078583	
61	268.0234282016754	fix_post	2		12	59.0	2.5	/experiments/Knapen_AOT/AOT_stimuli/rescaled_final/1243_rv.mp4	0.0	285.4490075111389	0.09999918937683105
62	268.12342739105225	fix_pre	0		119	60.0	2.5	/experiments/Knapen_AOT/AOT_stimuli/rescaled_final/1907_fw.mp4	0.0	285.54900670051575	1.000281572341919
62	269.10740089416504	pulse	0	t		60.0	2.5	/experiments/Knapen_AOT/AOT_stimuli/rescaled_final/1907_fw.mp4	0.0	286.53298020362854	
62	269.12370896339417	movie	1		276	60.0	2.5	/experiments/Knapen_AOT/AOT_stimuli/rescaled_final/1907_fw.mp4	0.0	286.54928827285767	2.500244140625
62	270.70586133003235	pulse	1	t		60.0	2.5	/experiments/Knapen_AOT/AOT_stimuli/rescaled_final/1907_fw.mp4	0.0	288.13144063949585	
62	271.62395310401917	fix_post	2		12	60.0	2.5	/experiments/Knapen_AOT/AOT_stimuli/rescaled_final/1907_fw.mp4	0.0	289.04953241348267	0.1000213623046875
63	271.72397446632385	fix_pre	0		120	61.0	2.5	blank	1.0	289.14955377578735	1.0001959800720215
63	272.3079559803009	pulse	0	t		61.0	2.5	blank	1.0	289.7335352897644	
63	272.7241704463959	movie	1		300	61.0	2.5	blank	1.0	290.1497497558594	2.5003252029418945
63	273.9078834056854	pulse	1	t		61.0	2.5	blank	1.0	291.3334627151489	
63	275.22449564933777	fix_post	2		12	61.0	2.5	blank	1.0	292.65007495880127	0.10001349449157715
64	275.32450914382935	fix_pre	0		120	62.0	2.5	/experiments/Knapen_AOT/AOT_stimuli/rescaled_final/1712_rv.mp4	0.0	292.75008845329285	1.0084710121154785
64	275.50815081596375	pulse	0	t		62.0	2.5	/experiments/Knapen_AOT/AOT_stimuli/rescaled_final/1712_rv.mp4	0.0	292.93373012542725	
64	276.3329801559448	movie	1		277	62.0	2.5	/experiments/Knapen_AOT/AOT_stimuli/rescaled_final/1712_rv.mp4	0.0	293.7585594654083	2.4920685291290283
64	277.1065537929535	pulse	1	t		62.0	2.5	/experiments/Knapen_AOT/AOT_stimuli/rescaled_final/1712_rv.mp4	0.0	294.532133102417	
64	278.7065420150757	pulse	1	t		62.0	2.5	/experiments/Knapen_AOT/AOT_stimuli/rescaled_final/1712_rv.mp4	0.0	296.1321213245392	
64	278.82504868507385	fix_post	2		12	62.0	2.5	/experiments/Knapen_AOT/AOT_stimuli/rescaled_final/1712_rv.mp4	0.0	296.25062799453735	0.10000991821289062
65	278.92505860328674	fix_pre	0		120	63.0	2.5	/experiments/Knapen_AOT/AOT_stimuli/rescaled_final/1914_fw.mp4	0.0	296.35063791275024	1.0085151195526123
65	279.93357372283936	movie	1		276	63.0	2.5	/experiments/Knapen_AOT/AOT_stimuli/rescaled_final/1914_fw.mp4	0.0	297.35915303230286	2.492004156112671
65	280.30753803253174	pulse	1	t		63.0	2.5	/experiments/Knapen_AOT/AOT_stimuli/rescaled_final/1914_fw.mp4	0.0	297.73311734199524	
65	281.90731859207153	pulse	1	t		63.0	2.5	/experiments/Knapen_AOT/AOT_stimuli/rescaled_final/1914_fw.mp4	0.0	299.33289790153503	
65	282.425577878952	fix_post	2		12	63.0	2.5	/experiments/Knapen_AOT/AOT_stimuli/rescaled_final/1914_fw.mp4	0.0	299.8511571884155	0.10002565383911133
66	282.52560353279114	fix_pre	0		119	64.0	2.5	/experiments/Knapen_AOT/AOT_stimuli/rescaled_final/1547_rv.mp4	0.0	299.95118284225464	1.0085864067077637
66	283.5018033981323	pulse	0	t		64.0	2.5	/experiments/Knapen_AOT/AOT_stimuli/rescaled_final/1547_rv.mp4	0.0	300.9273827075958	
66	283.5341899394989	movie	1		277	64.0	2.5	/experiments/Knapen_AOT/AOT_stimuli/rescaled_final/1547_rv.mp4	0.0	300.9597692489624	2.491942882537842
66	285.1081397533417	pulse	1	t		64.0	2.5	/experiments/Knapen_AOT/AOT_stimuli/rescaled_final/1547_rv.mp4	0.0	302.5337190628052	
66	286.02613282203674	fix_post	2		12	64.0	2.5	/experiments/Knapen_AOT/AOT_stimuli/rescaled_final/1547_rv.mp4	0.0	303.45171213150024	0.1000211238861084
67	286.12615394592285	fix_pre	0		120	65.0	2.5	/experiments/Knapen_AOT/AOT_stimuli/rescaled_final/2170_rv.mp4	0.0	303.55173325538635	1.0084741115570068
67	286.70189476013184	pulse	0	t		65.0	2.5	/experiments/Knapen_AOT/AOT_stimuli/rescaled_final/2170_rv.mp4	0.0	304.12747406959534	
67	287.13462805747986	movie	1		282	65.0	2.5	/experiments/Knapen_AOT/AOT_stimuli/rescaled_final/2170_rv.mp4	0.0	304.56020736694336	2.4920215606689453
67	288.3081433773041	pulse	1	t		65.0	2.5	/experiments/Knapen_AOT/AOT_stimuli/rescaled_final/2170_rv.mp4	0.0	305.7337226867676	
67	289.6266496181488	fix_post	2		12	65.0	2.5	/experiments/Knapen_AOT/AOT_stimuli/rescaled_final/2170_rv.mp4	0.0	307.0522289276123	0.10006570816040039
68	289.7267153263092	fix_pre	0		120	66.0	2.5	/experiments/Knapen_AOT/AOT_stimuli/rescaled_final/1718_rv.mp4	0.0	307.1522946357727	1.0084547996520996
68	289.90207076072693	pulse	0	t		66.0	2.5	/experiments/Knapen_AOT/AOT_stimuli/rescaled_final/1718_rv.mp4	0.0	307.32765007019043	
68	290.7351701259613	movie	1		284	66.0	2.5	/experiments/Knapen_AOT/AOT_stimuli/rescaled_final/1718_rv.mp4	0.0	308.1607494354248	2.492039442062378
68	291.50262999534607	pulse	1	t		66.0	2.5	/experiments/Knapen_AOT/AOT_stimuli/rescaled_final/1718_rv.mp4	0.0	308.92820930480957	
68	293.10240936279297	pulse	1	t		66.0	2.5	/experiments/Knapen_AOT/AOT_stimuli/rescaled_final/1718_rv.mp4	0.0	310.52798867225647	
68	293.2272095680237	fix_post	2		12	66.0	2.5	/experiments/Knapen_AOT/AOT_stimuli/rescaled_final/1718_rv.mp4	0.0	310.6527888774872	0.10000133514404297
69	293.3272109031677	fix_pre	0		120	67.0	2.5	/experiments/Knapen_AOT/AOT_stimuli/rescaled_final/1360_rv.mp4	0.0	310.7527902126312	1.0084893703460693
69	294.3357002735138	movie	1		274	67.0	2.5	/experiments/Knapen_AOT/AOT_stimuli/rescaled_final/1360_rv.mp4	0.0	311.7612795829773	2.4920272827148438
69	294.7028784751892	pulse	1	t		67.0	2.5	/experiments/Knapen_AOT/AOT_stimuli/rescaled_final/1360_rv.mp4	0.0	312.1284577846527	
69	296.30317664146423	pulse	1	t		67.0	2.5	/experiments/Knapen_AOT/AOT_stimuli/rescaled_final/1360_rv.mp4	0.0	313.72875595092773	
69	296.82772755622864	fix_post	2		12	67.0	2.5	/experiments/Knapen_AOT/AOT_stimuli/rescaled_final/1360_rv.mp4	0.0	314.25330686569214	0.10004663467407227
70	296.9277741909027	fix_pre	0		118	68.0	2.5	blank	1.0	314.3533535003662	0.9834504127502441
70	297.9031310081482	pulse	0	t		68.0	2.5	blank	1.0	315.3287103176117	
70	297.91122460365295	movie	1		301	68.0	2.5	blank	1.0	315.33680391311646	2.5087826251983643
70	299.5034074783325	pulse	1	t		68.0	2.5	blank	1.0	316.928986787796	
70	300.4200072288513	fix_post	2		12	68.0	2.5	blank	1.0	317.8455865383148	0.09995770454406738
71	300.5199649333954	fix_pre	0		120	69.0	2.5	/experiments/Knapen_AOT/AOT_stimuli/rescaled_final/0562_fw.mp4	0.0	317.9455442428589	1.0084638595581055
71	301.10378527641296	pulse	0	t		69.0	2.5	/experiments/Knapen_AOT/AOT_stimuli/rescaled_final/0562_fw.mp4	0.0	318.52936458587646	
71	301.5284287929535	movie	1		277	69.0	2.5	/experiments/Knapen_AOT/AOT_stimuli/rescaled_final/0562_fw.mp4	0.0	318.954008102417	2.4921464920043945
71	302.70237827301025	pulse	1	t		69.0	2.5	/experiments/Knapen_AOT/AOT_stimuli/rescaled_final/0562_fw.mp4	0.0	320.12795758247375	
71	304.0205752849579	fix_post	2		12	69.0	2.5	/experiments/Knapen_AOT/AOT_stimuli/rescaled_final/0562_fw.mp4	0.0	321.4461545944214	0.09992265701293945
72	304.1204979419708	fix_pre	0		120	70.0	2.5	/experiments/Knapen_AOT/AOT_stimuli/rescaled_final/0691_fw.mp4	0.0	321.5460772514343	1.0085234642028809
72	304.30405950546265	pulse	0	t		70.0	2.5	/experiments/Knapen_AOT/AOT_stimuli/rescaled_final/0691_fw.mp4	0.0	321.72963881492615	
72	305.1290214061737	movie	1		258	70.0	2.5	/experiments/Knapen_AOT/AOT_stimuli/rescaled_final/0691_fw.mp4	0.0	322.5546007156372	2.4920315742492676
72	305.90234422683716	pulse	1	t		70.0	2.5	/experiments/Knapen_AOT/AOT_stimuli/rescaled_final/0691_fw.mp4	0.0	323.32792353630066	
72	307.5028250217438	pulse	1	t		70.0	2.5	/experiments/Knapen_AOT/AOT_stimuli/rescaled_final/0691_fw.mp4	0.0	324.9284043312073	
72	307.621052980423	fix_post	2		12	70.0	2.5	/experiments/Knapen_AOT/AOT_stimuli/rescaled_final/0691_fw.mp4	0.0	325.0466322898865	0.10001277923583984
73	307.7210657596588	fix_pre	0		120	71.0	2.5	/experiments/Knapen_AOT/AOT_stimuli/rescaled_final/1718_rv.mp4	0.0	325.1466450691223	1.0085206031799316
73	308.72958636283875	movie	1		277	71.0	2.5	/experiments/Knapen_AOT/AOT_stimuli/rescaled_final/1718_rv.mp4	0.0	326.15516567230225	2.5003821849823
73	309.1033070087433	pulse	1	t		71.0	2.5	/experiments/Knapen_AOT/AOT_stimuli/rescaled_final/1718_rv.mp4	0.0	326.5288863182068	
73	310.70349645614624	pulse	1	t		71.0	2.5	/experiments/Knapen_AOT/AOT_stimuli/rescaled_final/1718_rv.mp4	0.0	328.12907576560974	
73	311.22996854782104	fix_post	2		11	71.0	2.5	/experiments/Knapen_AOT/AOT_stimuli/rescaled_final/1718_rv.mp4	0.0	328.65554785728455	0.09160971641540527
74	311.32157826423645	fix_pre	0		119	72.0	2.5	/experiments/Knapen_AOT/AOT_stimuli/rescaled_final/2175_rv.mp4	0.0	328.74715757369995	1.0001235008239746
74	312.3053059577942	pulse	0	t		72.0	2.5	/experiments/Knapen_AOT/AOT_stimuli/rescaled_final/2175_rv.mp4	0.0	329.7308852672577	
74	312.3217017650604	movie	1		273	72.0	2.5	/experiments/Knapen_AOT/AOT_stimuli/rescaled_final/2175_rv.mp4	0.0	329.7472810745239	2.500403642654419
74	313.9045033454895	pulse	1	t		72.0	2.5	/experiments/Knapen_AOT/AOT_stimuli/rescaled_final/2175_rv.mp4	0.0	331.330082654953	
74	314.82210540771484	fix_post	2		12	72.0	2.5	/experiments/Knapen_AOT/AOT_stimuli/rescaled_final/2175_rv.mp4	0.0	332.24768471717834	0.10001897811889648
75	314.92212438583374	fix_pre	0		120	73.0	2.5	/experiments/Knapen_AOT/AOT_stimuli/rescaled_final/1267_fw.mp4	0.0	332.34770369529724	1.0084922313690186
75	315.50584530830383	pulse	0	t		73.0	2.5	/experiments/Knapen_AOT/AOT_stimuli/rescaled_final/1267_fw.mp4	0.0	332.93142461776733	
75	315.93061661720276	movie	1		261	73.0	2.5	/experiments/Knapen_AOT/AOT_stimuli/rescaled_final/1267_fw.mp4	0.0	333.35619592666626	2.492027997970581
75	317.1043469905853	pulse	1	t		73.0	2.5	/experiments/Knapen_AOT/AOT_stimuli/rescaled_final/1267_fw.mp4	0.0	334.5299263000488	
75	318.42264461517334	fix_post	2		12	73.0	2.5	/experiments/Knapen_AOT/AOT_stimuli/rescaled_final/1267_fw.mp4	0.0	335.84822392463684	0.09999608993530273
76	318.52264070510864	fix_pre	0		120	74.0	2.5	/experiments/Knapen_AOT/AOT_stimuli/rescaled_final/1147_rv.mp4	0.0	335.94822001457214	1.0085086822509766
76	318.70620679855347	pulse	0	t		74.0	2.5	/experiments/Knapen_AOT/AOT_stimuli/rescaled_final/1147_rv.mp4	0.0	336.13178610801697	
76	319.5311493873596	movie	1		270	74.0	2.5	/experiments/Knapen_AOT/AOT_stimuli/rescaled_final/1147_rv.mp4	0.0	336.9567286968231	2.4920413494110107
76	320.3053858280182	pulse	1	t		74.0	2.5	/experiments/Knapen_AOT/AOT_stimuli/rescaled_final/1147_rv.mp4	0.0	337.7309651374817	
76	321.9048719406128	pulse	1	t		74.0	2.5	/experiments/Knapen_AOT/AOT_stimuli/rescaled_final/1147_rv.mp4	0.0	339.3304512500763	
76	322.02319073677063	fix_post	2		12	74.0	2.5	/experiments/Knapen_AOT/AOT_stimuli/rescaled_final/1147_rv.mp4	0.0	339.44877004623413	0.10002613067626953
77	322.1232168674469	fix_pre	0		120	75.0	2.5	blank	1.0	339.5487961769104	1.0002343654632568
77	323.12345123291016	movie	1		300	75.0	2.5	blank	1.0	340.54903054237366	2.5003504753112793
77	323.5069510936737	pulse	1	t		75.0	2.5	blank	1.0	340.9325304031372	
77	325.1073889732361	pulse	1	t		75.0	2.5	blank	1.0	342.5329682826996	
77	325.62380170822144	fix_post	2		12	75.0	2.5	blank	1.0	343.04938101768494	0.1000223159790039
78	325.72382402420044	fix_pre	0		119	76.0	2.5	/experiments/Knapen_AOT/AOT_stimuli/rescaled_final/1957_fw.mp4	0.0	343.14940333366394	1.0001482963562012
78	326.70758748054504	pulse	0	t		76.0	2.5	/experiments/Knapen_AOT/AOT_stimuli/rescaled_final/1957_fw.mp4	0.0	344.13316679000854	
78	326.72397232055664	movie	1		277	76.0	2.5	/experiments/Knapen_AOT/AOT_stimuli/rescaled_final/1957_fw.mp4	0.0	344.14955163002014	2.5003132820129395
78	328.30705761909485	pulse	1	t		76.0	2.5	/experiments/Knapen_AOT/AOT_stimuli/rescaled_final/1957_fw.mp4	0.0	345.73263692855835	
78	329.2242856025696	fix_post	2		12	76.0	2.5	/experiments/Knapen_AOT/AOT_stimuli/rescaled_final/1957_fw.mp4	0.0	346.6498649120331	0.10000085830688477
79	329.32428646087646	fix_pre	0		120	77.0	2.5	/experiments/Knapen_AOT/AOT_stimuli/rescaled_final/1795_rv.mp4	0.0	346.74986577033997	1.0085346698760986
79	329.9079580307007	pulse	0	t		77.0	2.5	/experiments/Knapen_AOT/AOT_stimuli/rescaled_final/1795_rv.mp4	0.0	347.3335373401642	
79	330.33282113075256	movie	1		269	77.0	2.5	/experiments/Knapen_AOT/AOT_stimuli/rescaled_final/1795_rv.mp4	0.0	347.75840044021606	2.4920082092285156
79	331.50746059417725	pulse	1	t		77.0	2.5	/experiments/Knapen_AOT/AOT_stimuli/rescaled_final/1795_rv.mp4	0.0	348.93303990364075	
79	332.8248293399811	fix_post	2		12	77.0	2.5	/experiments/Knapen_AOT/AOT_stimuli/rescaled_final/1795_rv.mp4	0.0	350.2504086494446	0.10007143020629883
80	332.9249007701874	fix_pre	0		120	78.0	2.5	/experiments/Knapen_AOT/AOT_stimuli/rescaled_final/1463_rv.mp4	0.0	350.3504800796509	1.0085265636444092
80	333.10866522789	pulse	0	t		78.0	2.5	/experiments/Knapen_AOT/AOT_stimuli/rescaled_final/1463_rv.mp4	0.0	350.5342445373535	
80	333.9334273338318	movie	1		277	78.0	2.5	/experiments/Knapen_AOT/AOT_stimuli/rescaled_final/1463_rv.mp4	0.0	351.3590066432953	2.491950035095215
80	334.70650720596313	pulse	1	t		78.0	2.5	/experiments/Knapen_AOT/AOT_stimuli/rescaled_final/1463_rv.mp4	0.0	352.13208651542664	
80	336.30721831321716	pulse	1	t		78.0	2.5	/experiments/Knapen_AOT/AOT_stimuli/rescaled_final/1463_rv.mp4	0.0	353.73279762268066	
80	336.425377368927	fix_post	2		12	78.0	2.5	/experiments/Knapen_AOT/AOT_stimuli/rescaled_final/1463_rv.mp4	0.0	353.8509566783905	0.09999799728393555
81	336.52537536621094	fix_pre	0		120	79.0	2.5	/experiments/Knapen_AOT/AOT_stimuli/rescaled_final/0436_rv.mp4	0.0	353.95095467567444	1.0084936618804932
81	337.53386902809143	movie	1		265	79.0	2.5	/experiments/Knapen_AOT/AOT_stimuli/rescaled_final/0436_rv.mp4	0.0	354.95944833755493	2.4920449256896973
81	337.90875911712646	pulse	1	t		79.0	2.5	/experiments/Knapen_AOT/AOT_stimuli/rescaled_final/0436_rv.mp4	0.0	355.33433842658997	
81	339.5072774887085	pulse	1	t		79.0	2.5	/experiments/Knapen_AOT/AOT_stimuli/rescaled_final/0436_rv.mp4	0.0	356.932856798172	
81	340.0259139537811	fix_post	2		12	79.0	2.5	/experiments/Knapen_AOT/AOT_stimuli/rescaled_final/0436_rv.mp4	0.0	357.45149326324463	0.09998345375061035
82	340.12589740753174	fix_pre	0		119	80.0	2.5	/experiments/Knapen_AOT/AOT_stimuli/rescaled_final/1975_fw.mp4	0.0	357.55147671699524	1.0085723400115967
82	341.10970187187195	pulse	0	t		80.0	2.5	/experiments/Knapen_AOT/AOT_stimuli/rescaled_final/1975_fw.mp4	0.0	358.53528118133545	
82	341.13446974754333	movie	1		266	80.0	2.5	/experiments/Knapen_AOT/AOT_stimuli/rescaled_final/1975_fw.mp4	0.0	358.56004905700684	2.4919824600219727
82	342.7088475227356	pulse	1	t		80.0	2.5	/experiments/Knapen_AOT/AOT_stimuli/rescaled_final/1975_fw.mp4	0.0	360.1344268321991	
82	343.6264522075653	fix_post	2		12	80.0	2.5	/experiments/Knapen_AOT/AOT_stimuli/rescaled_final/1975_fw.mp4	0.0	361.0520315170288	0.10001540184020996
83	343.7264676094055	fix_pre	0		120	81.0	2.5	/experiments/Knapen_AOT/AOT_stimuli/rescaled_final/1479_rv.mp4	0.0	361.152046918869	1.0085792541503906
83	344.31015944480896	pulse	0	t		81.0	2.5	/experiments/Knapen_AOT/AOT_stimuli/rescaled_final/1479_rv.mp4	0.0	361.73573875427246	
83	344.7350468635559	movie	1		275	81.0	2.5	/experiments/Knapen_AOT/AOT_stimuli/rescaled_final/1479_rv.mp4	0.0	362.1606261730194	2.4919331073760986
83	345.90864181518555	pulse	1	t		81.0	2.5	/experiments/Knapen_AOT/AOT_stimuli/rescaled_final/1479_rv.mp4	0.0	363.33422112464905	
83	347.226979970932	fix_post	2		12	81.0	2.5	/experiments/Knapen_AOT/AOT_stimuli/rescaled_final/1479_rv.mp4	0.0	364.6525592803955	0.10014557838439941
84	347.3271255493164	fix_pre	0		120	82.0	2.5	/experiments/Knapen_AOT/AOT_stimuli/rescaled_final/0099_fw.mp4	0.0	364.7527048587799	1.0083584785461426
84	347.50260615348816	pulse	0	t		82.0	2.5	/experiments/Knapen_AOT/AOT_stimuli/rescaled_final/0099_fw.mp4	0.0	364.92818546295166	
84	348.33548402786255	movie	1		267	82.0	2.5	/experiments/Knapen_AOT/AOT_stimuli/rescaled_final/0099_fw.mp4	0.0	365.76106333732605	2.4920365810394287
84	349.10252594947815	pulse	1	t		82.0	2.5	/experiments/Knapen_AOT/AOT_stimuli/rescaled_final/0099_fw.mp4	0.0	366.52810525894165	
84	350.70272612571716	pulse	1	t		82.0	2.5	/experiments/Knapen_AOT/AOT_stimuli/rescaled_final/0099_fw.mp4	0.0	368.12830543518066	
84	350.827520608902	fix_post	2		12	82.0	2.5	/experiments/Knapen_AOT/AOT_stimuli/rescaled_final/0099_fw.mp4	0.0	368.2530999183655	0.10004043579101562
85	350.927561044693	fix_pre	0		119	83.0	2.5	blank	1.0	368.3531403541565	1.0001356601715088
85	351.9276967048645	movie	1		300	83.0	2.5	blank	1.0	369.353276014328	2.5003862380981445
85	352.302983045578	pulse	1	t		83.0	2.5	blank	1.0	369.7285623550415	
85	353.9033627510071	pulse	1	t		83.0	2.5	blank	1.0	371.3289420604706	
85	354.42808294296265	fix_post	2		12	83.0	2.5	blank	1.0	371.85366225242615	0.12520503997802734
87	354.5532879829407	stim	0		1713					371.9788672924042	14.276952505111694
87	355.503484249115	pulse	0	t						372.9290635585785	
87	357.103684425354	pulse	0	t						374.5292637348175	
87	358.70391941070557	pulse	0	t						376.12949872016907	
87	360.3041970729828	pulse	0	t						377.7297763824463	
87	361.90446734428406	pulse	0	t						379.33004665374756	
87	363.5046880245209	pulse	0	t						380.9302673339844	
87	365.10488533973694	pulse	0	t						382.53046464920044	
87	366.7053418159485	pulse	0	t						384.130921125412	
87	368.3056547641754	pulse	0	t						385.7312340736389	
