trial_nr	onset	event_type	phase	response	nr_frames	movie_index	movie_duration	movie_file	blank	onset_abs	duration
0	0.15821003913879395	stim	0		19					20.673094987869263	0.15830707550048828
0	0.30852293968200684	response	0	space						20.823407888412476	
1	0.3165171146392822	stim	0		4646					20.83140206336975	38.71657180786133
1	39.02851104736328	pulse	0	t						59.54339599609375	
1	39.03308892250061	stim	1		1717					59.54797387123108	14.308199167251587
1	40.62490200996399	pulse	1	t						61.13978695869446	
1	42.224931955337524	pulse	1	t						62.73981690406799	
1	43.82488799095154	pulse	1	t						64.339772939682	
1	45.424997091293335	pulse	1	t						65.9398820400238	
1	47.02482008934021	pulse	1	t						67.53970503807068	
1	48.624852895736694	pulse	1	t						69.13973784446716	
1	50.22486901283264	pulse	1	t						70.73975396156311	
1	51.824769020080566	pulse	1	t						72.33965396881104	
2	53.3412880897522	fix_pre	0		11	0.0	2.5	/experiments/AOT/AOT_stimuli/rescaled_final/1329_fw.mp4	0.0	73.85617303848267	0.09174084663391113
2	53.42480397224426	pulse	0	t		0.0	2.5	/experiments/AOT/AOT_stimuli/rescaled_final/1329_fw.mp4	0.0	73.93968892097473	
2	53.43302893638611	movie	1		243	0.0	2.5	/experiments/AOT/AOT_stimuli/rescaled_final/1329_fw.mp4	0.0	73.94791388511658	2.5082809925079346
2	55.02612590789795	pulse	1	t		0.0	2.5	/experiments/AOT/AOT_stimuli/rescaled_final/1329_fw.mp4	0.0	75.54101085662842	
2	55.94130992889404	fix_post	2		12	0.0	2.5	/experiments/AOT/AOT_stimuli/rescaled_final/1329_fw.mp4	0.0	76.45619487762451	0.10000300407409668
3	56.04131293296814	fix_pre	0		120	1.0	2.5	/experiments/AOT/AOT_stimuli/rescaled_final/0212_fw.mp4	0.0	76.55619788169861	1.0000770092010498
3	56.62481904029846	pulse	0	t		1.0	2.5	/experiments/AOT/AOT_stimuli/rescaled_final/0212_fw.mp4	0.0	77.13970398902893	
3	57.04138994216919	movie	1		243	1.0	2.5	/experiments/AOT/AOT_stimuli/rescaled_final/0212_fw.mp4	0.0	77.55627489089966	2.499937057495117
3	58.22494101524353	pulse	1	t		1.0	2.5	/experiments/AOT/AOT_stimuli/rescaled_final/0212_fw.mp4	0.0	78.739825963974	
3	59.54132699966431	fix_post	2		12	1.0	2.5	/experiments/AOT/AOT_stimuli/rescaled_final/0212_fw.mp4	0.0	80.05621194839478	0.09998297691345215
4	59.64130997657776	fix_pre	0		120	2.0	2.5	/experiments/AOT/AOT_stimuli/rescaled_final/1601_fw.mp4	0.0	80.15619492530823	0.9999611377716064
4	59.82484292984009	pulse	0	t		2.0	2.5	/experiments/AOT/AOT_stimuli/rescaled_final/1601_fw.mp4	0.0	80.33972787857056	
4	60.641271114349365	movie	1		245	2.0	2.5	/experiments/AOT/AOT_stimuli/rescaled_final/1601_fw.mp4	0.0	81.15615606307983	2.499565839767456
4	61.424808979034424	pulse	1	t		2.0	2.5	/experiments/AOT/AOT_stimuli/rescaled_final/1601_fw.mp4	0.0	81.93969392776489	
4	63.023147106170654	pulse	1	t		2.0	2.5	/experiments/AOT/AOT_stimuli/rescaled_final/1601_fw.mp4	0.0	83.53803205490112	
4	63.14083695411682	fix_post	2		12	2.0	2.5	/experiments/AOT/AOT_stimuli/rescaled_final/1601_fw.mp4	0.0	83.65572190284729	0.10049200057983398
5	63.241328954696655	fix_pre	0		120	3.0	2.5	/experiments/AOT/AOT_stimuli/rescaled_final/0035_fw.mp4	0.0	83.75621390342712	1.0000431537628174
5	64.24137210845947	movie	1		245	3.0	2.5	/experiments/AOT/AOT_stimuli/rescaled_final/0035_fw.mp4	0.0	84.75625705718994	2.499525785446167
5	64.62586402893066	pulse	1	t		3.0	2.5	/experiments/AOT/AOT_stimuli/rescaled_final/0035_fw.mp4	0.0	85.14074897766113	
5	66.22477293014526	pulse	1	t		3.0	2.5	/experiments/AOT/AOT_stimuli/rescaled_final/0035_fw.mp4	0.0	86.73965787887573	
5	66.74089789390564	fix_post	2		12	3.0	2.5	/experiments/AOT/AOT_stimuli/rescaled_final/0035_fw.mp4	0.0	87.25578284263611	0.10041999816894531
6	66.84131789207458	fix_pre	0		119	4.0	2.5	/experiments/AOT/AOT_stimuli/rescaled_final/0502_fw.mp4	0.0	87.35620284080505	0.9916410446166992
6	67.82468390464783	pulse	0	t		4.0	2.5	/experiments/AOT/AOT_stimuli/rescaled_final/0502_fw.mp4	0.0	88.3395688533783	
6	67.83295893669128	movie	1		244	4.0	2.5	/experiments/AOT/AOT_stimuli/rescaled_final/0502_fw.mp4	0.0	88.34784388542175	2.5079281330108643
6	69.4244110584259	pulse	1	t		4.0	2.5	/experiments/AOT/AOT_stimuli/rescaled_final/0502_fw.mp4	0.0	89.93929600715637	
6	70.34088706970215	fix_post	2		12	4.0	2.5	/experiments/AOT/AOT_stimuli/rescaled_final/0502_fw.mp4	0.0	90.85577201843262	0.09989690780639648
7	70.44078397750854	fix_pre	0		120	5.0	2.5	/experiments/AOT/AOT_stimuli/rescaled_final/0996_fw.mp4	0.0	90.95566892623901	1.0005481243133545
7	71.02464890480042	pulse	0	t		5.0	2.5	/experiments/AOT/AOT_stimuli/rescaled_final/0996_fw.mp4	0.0	91.53953385353088	
7	71.4413321018219	movie	1		243	5.0	2.5	/experiments/AOT/AOT_stimuli/rescaled_final/0996_fw.mp4	0.0	91.95621705055237	2.499497890472412
7	72.62476992607117	pulse	1	t		5.0	2.5	/experiments/AOT/AOT_stimuli/rescaled_final/0996_fw.mp4	0.0	93.13965487480164	
7	73.94082999229431	fix_post	2		12	5.0	2.5	/experiments/AOT/AOT_stimuli/rescaled_final/0996_fw.mp4	0.0	94.45571494102478	0.10043001174926758
8	74.04126000404358	fix_pre	0		120	6.0	2.5	blank	1.0	94.55614495277405	1.0000669956207275
8	74.22473406791687	pulse	0	t		6.0	2.5	blank	1.0	94.73961901664734	
8	75.0413269996643	movie	1		300	6.0	2.5	blank	1.0	95.55621194839478	2.4998879432678223
8	75.82480597496033	pulse	1	t		6.0	2.5	blank	1.0	96.3396909236908	
8	77.4246780872345	pulse	1	t		6.0	2.5	blank	1.0	97.93956303596497	
8	77.54121494293213	fix_post	2		12	6.0	2.5	blank	1.0	98.0560998916626	0.09991908073425293
9	77.64113402366638	fix_pre	0		120	7.0	2.5	/experiments/AOT/AOT_stimuli/rescaled_final/0268_fw.mp4	0.0	98.15601897239685	0.9998750686645508
9	78.64100909233093	movie	1		244	7.0	2.5	/experiments/AOT/AOT_stimuli/rescaled_final/0268_fw.mp4	0.0	99.1558940410614	2.500257968902588
9	79.02437210083008	pulse	1	t		7.0	2.5	/experiments/AOT/AOT_stimuli/rescaled_final/0268_fw.mp4	0.0	99.53925704956055	
9	80.62474393844604	pulse	1	t		7.0	2.5	/experiments/AOT/AOT_stimuli/rescaled_final/0268_fw.mp4	0.0	101.13962888717651	
9	81.14126706123352	fix_post	2		12	7.0	2.5	/experiments/AOT/AOT_stimuli/rescaled_final/0268_fw.mp4	0.0	101.65615200996399	0.09998393058776855
10	81.24125099182129	fix_pre	0		119	8.0	2.5	/experiments/AOT/AOT_stimuli/rescaled_final/2169_rv.mp4	0.0	101.75613594055176	0.9912049770355225
10	82.22424507141113	pulse	0	t		8.0	2.5	/experiments/AOT/AOT_stimuli/rescaled_final/2169_rv.mp4	0.0	102.7391300201416	
10	82.23245596885681	movie	1		246	8.0	2.5	/experiments/AOT/AOT_stimuli/rescaled_final/2169_rv.mp4	0.0	102.74734091758728	2.5089571475982666
10	83.82370090484619	pulse	1	t		8.0	2.5	/experiments/AOT/AOT_stimuli/rescaled_final/2169_rv.mp4	0.0	104.33858585357666	
10	84.74141311645508	fix_post	2		12	8.0	2.5	/experiments/AOT/AOT_stimuli/rescaled_final/2169_rv.mp4	0.0	105.25629806518555	0.10006284713745117
11	84.84147596359253	fix_pre	0		120	9.0	2.5	/experiments/AOT/AOT_stimuli/rescaled_final/0200_rv.mp4	0.0	105.356360912323	0.9996991157531738
11	85.42450594902039	pulse	0	t		9.0	2.5	/experiments/AOT/AOT_stimuli/rescaled_final/0200_rv.mp4	0.0	105.93939089775085	
11	85.8411750793457	movie	1		248	9.0	2.5	/experiments/AOT/AOT_stimuli/rescaled_final/0200_rv.mp4	0.0	106.35606002807617	2.4997730255126953
11	87.02465796470642	pulse	1	t		9.0	2.5	/experiments/AOT/AOT_stimuli/rescaled_final/0200_rv.mp4	0.0	107.53954291343689	
11	88.3409481048584	fix_post	2		12	9.0	2.5	/experiments/AOT/AOT_stimuli/rescaled_final/0200_rv.mp4	0.0	108.85583305358887	0.10024881362915039
12	88.44119691848755	fix_pre	0		120	10.0	2.5	/experiments/AOT/AOT_stimuli/rescaled_final/0513_rv.mp4	0.0	108.95608186721802	0.9995601177215576
12	88.62468600273132	pulse	0	t		10.0	2.5	/experiments/AOT/AOT_stimuli/rescaled_final/0513_rv.mp4	0.0	109.13957095146179	
12	89.4407570362091	movie	1		245	10.0	2.5	/experiments/AOT/AOT_stimuli/rescaled_final/0513_rv.mp4	0.0	109.95564198493958	2.5002129077911377
12	90.22469210624695	pulse	1	t		10.0	2.5	/experiments/AOT/AOT_stimuli/rescaled_final/0513_rv.mp4	0.0	110.73957705497742	
12	91.82309794425964	pulse	1	t		10.0	2.5	/experiments/AOT/AOT_stimuli/rescaled_final/0513_rv.mp4	0.0	112.33798289299011	
12	91.94096994400024	fix_post	2		12	10.0	2.5	/experiments/AOT/AOT_stimuli/rescaled_final/0513_rv.mp4	0.0	112.45585489273071	0.10013699531555176
13	92.0411069393158	fix_pre	0		120	11.0	2.5	/experiments/AOT/AOT_stimuli/rescaled_final/0534_fw.mp4	0.0	112.55599188804626	1.0000190734863281
13	93.04112601280212	movie	1		246	11.0	2.5	/experiments/AOT/AOT_stimuli/rescaled_final/0534_fw.mp4	0.0	113.55601096153259	2.499929904937744
13	93.42577505111694	pulse	1	t		11.0	2.5	/experiments/AOT/AOT_stimuli/rescaled_final/0534_fw.mp4	0.0	113.94065999984741	
13	95.02458000183105	pulse	1	t		11.0	2.5	/experiments/AOT/AOT_stimuli/rescaled_final/0534_fw.mp4	0.0	115.53946495056152	
13	95.54105591773987	fix_post	2		12	11.0	2.5	/experiments/AOT/AOT_stimuli/rescaled_final/0534_fw.mp4	0.0	116.05594086647034	0.10003209114074707
14	95.64108800888062	fix_pre	0		119	12.0	2.5	/experiments/AOT/AOT_stimuli/rescaled_final/1346_rv.mp4	0.0	116.15597295761108	0.9918169975280762
14	96.62462902069092	pulse	0	t		12.0	2.5	/experiments/AOT/AOT_stimuli/rescaled_final/1346_rv.mp4	0.0	117.13951396942139	
14	96.63290500640869	movie	1		245	12.0	2.5	/experiments/AOT/AOT_stimuli/rescaled_final/1346_rv.mp4	0.0	117.14778995513916	2.507812023162842
14	98.22448396682739	pulse	1	t		12.0	2.5	/experiments/AOT/AOT_stimuli/rescaled_final/1346_rv.mp4	0.0	118.73936891555786	
14	99.14071702957153	fix_post	2		12	12.0	2.5	/experiments/AOT/AOT_stimuli/rescaled_final/1346_rv.mp4	0.0	119.655601978302	0.10050606727600098
15	99.24122309684753	fix_pre	0		120	13.0	2.5	/experiments/AOT/AOT_stimuli/rescaled_final/1930_fw.mp4	0.0	119.756108045578	0.9998729228973389
15	99.82463908195496	pulse	0	t		13.0	2.5	/experiments/AOT/AOT_stimuli/rescaled_final/1930_fw.mp4	0.0	120.33952403068542	
15	100.24109601974487	movie	1		243	13.0	2.5	/experiments/AOT/AOT_stimuli/rescaled_final/1930_fw.mp4	0.0	120.75598096847534	2.4999499320983887
15	101.42460203170776	pulse	1	t		13.0	2.5	/experiments/AOT/AOT_stimuli/rescaled_final/1930_fw.mp4	0.0	121.93948698043823	
15	102.74104595184326	fix_post	2		12	13.0	2.5	/experiments/AOT/AOT_stimuli/rescaled_final/1930_fw.mp4	0.0	123.25593090057373	0.09969711303710938
16	102.84074306488037	fix_pre	0		120	14.0	2.5	blank	1.0	123.35562801361084	0.9999558925628662
16	103.02479696273804	pulse	0	t		14.0	2.5	blank	1.0	123.5396819114685	
16	103.84069895744324	movie	1		300	14.0	2.5	blank	1.0	124.3555839061737	2.5003130435943604
16	104.62463092803955	pulse	1	t		14.0	2.5	blank	1.0	125.13951587677002	
16	106.22479295730591	pulse	1	t		14.0	2.5	blank	1.0	126.73967790603638	
16	106.3410120010376	fix_post	2		12	14.0	2.5	blank	1.0	126.85589694976807	0.09967899322509766
17	106.4406909942627	fix_pre	0		120	15.0	2.5	/experiments/AOT/AOT_stimuli/rescaled_final/1601_rv.mp4	0.0	126.95557594299316	1.0002660751342773
17	107.44095706939697	movie	1		245	15.0	2.5	/experiments/AOT/AOT_stimuli/rescaled_final/1601_rv.mp4	0.0	127.95584201812744	2.4997549057006836
17	107.8244559764862	pulse	1	t		15.0	2.5	/experiments/AOT/AOT_stimuli/rescaled_final/1601_rv.mp4	0.0	128.33934092521667	
17	109.42456102371216	pulse	1	t		15.0	2.5	/experiments/AOT/AOT_stimuli/rescaled_final/1601_rv.mp4	0.0	129.93944597244263	
17	109.94071197509766	fix_post	2		12	15.0	2.5	/experiments/AOT/AOT_stimuli/rescaled_final/1601_rv.mp4	0.0	130.45559692382812	0.10032105445861816
18	110.04103302955627	fix_pre	0		119	16.0	2.5	/experiments/AOT/AOT_stimuli/rescaled_final/1233_rv.mp4	0.0	130.55591797828674	0.991703987121582
18	111.02465200424194	pulse	0	t		16.0	2.5	/experiments/AOT/AOT_stimuli/rescaled_final/1233_rv.mp4	0.0	131.5395369529724	
18	111.03273701667786	movie	1		246	16.0	2.5	/experiments/AOT/AOT_stimuli/rescaled_final/1233_rv.mp4	0.0	131.54762196540833	2.5079128742218018
18	112.62430191040039	pulse	1	t		16.0	2.5	/experiments/AOT/AOT_stimuli/rescaled_final/1233_rv.mp4	0.0	133.13918685913086	
18	113.54064989089966	fix_post	2		12	16.0	2.5	/experiments/AOT/AOT_stimuli/rescaled_final/1233_rv.mp4	0.0	134.05553483963013	0.10035920143127441
19	113.64100909233093	fix_pre	0		120	17.0	2.5	/experiments/AOT/AOT_stimuli/rescaled_final/1932_rv.mp4	0.0	134.1558940410614	0.9996738433837891
19	114.22462010383606	pulse	0	t		17.0	2.5	/experiments/AOT/AOT_stimuli/rescaled_final/1932_rv.mp4	0.0	134.73950505256653	
19	114.64068293571472	movie	1		246	17.0	2.5	/experiments/AOT/AOT_stimuli/rescaled_final/1932_rv.mp4	0.0	135.1555678844452	2.500357151031494
19	115.82459497451782	pulse	1	t		17.0	2.5	/experiments/AOT/AOT_stimuli/rescaled_final/1932_rv.mp4	0.0	136.3394799232483	
19	117.14104008674622	fix_post	2		12	17.0	2.5	/experiments/AOT/AOT_stimuli/rescaled_final/1932_rv.mp4	0.0	137.65592503547668	0.09956502914428711
20	117.2406051158905	fix_pre	0		120	18.0	2.5	/experiments/AOT/AOT_stimuli/rescaled_final/1944_rv.mp4	0.0	137.75549006462097	1.0001249313354492
20	117.42455291748047	pulse	0	t		18.0	2.5	/experiments/AOT/AOT_stimuli/rescaled_final/1944_rv.mp4	0.0	137.93943786621094	
20	118.24073004722595	movie	1		243	18.0	2.5	/experiments/AOT/AOT_stimuli/rescaled_final/1944_rv.mp4	0.0	138.75561499595642	2.5002658367156982
20	119.02454400062561	pulse	1	t		18.0	2.5	/experiments/AOT/AOT_stimuli/rescaled_final/1944_rv.mp4	0.0	139.53942894935608	
20	120.62303900718689	pulse	1	t		18.0	2.5	/experiments/AOT/AOT_stimuli/rescaled_final/1944_rv.mp4	0.0	141.13792395591736	
20	120.74099588394165	fix_post	2		12	18.0	2.5	/experiments/AOT/AOT_stimuli/rescaled_final/1944_rv.mp4	0.0	141.25588083267212	0.10010719299316406
21	120.84110307693481	fix_pre	0		120	19.0	2.5	/experiments/AOT/AOT_stimuli/rescaled_final/2083_rv.mp4	0.0	141.35598802566528	0.999518871307373
21	121.84062194824219	movie	1		242	19.0	2.5	/experiments/AOT/AOT_stimuli/rescaled_final/2083_rv.mp4	0.0	142.35550689697266	2.5004501342773438
21	122.22430801391602	pulse	1	t		19.0	2.5	/experiments/AOT/AOT_stimuli/rescaled_final/2083_rv.mp4	0.0	142.73919296264648	
21	123.82455611228943	pulse	1	t		19.0	2.5	/experiments/AOT/AOT_stimuli/rescaled_final/2083_rv.mp4	0.0	144.3394410610199	
21	124.34107208251953	fix_post	2		12	19.0	2.5	/experiments/AOT/AOT_stimuli/rescaled_final/2083_rv.mp4	0.0	144.85595703125	0.09999203681945801
22	124.44106411933899	fix_pre	0		119	20.0	2.5	/experiments/AOT/AOT_stimuli/rescaled_final/0310_fw.mp4	0.0	144.95594906806946	0.9915797710418701
22	125.42437791824341	pulse	0	t		20.0	2.5	/experiments/AOT/AOT_stimuli/rescaled_final/0310_fw.mp4	0.0	145.93926286697388	
22	125.43264389038086	movie	1		245	20.0	2.5	/experiments/AOT/AOT_stimuli/rescaled_final/0310_fw.mp4	0.0	145.94752883911133	2.507934093475342
22	127.02412104606628	pulse	1	t		20.0	2.5	/experiments/AOT/AOT_stimuli/rescaled_final/0310_fw.mp4	0.0	147.53900599479675	
22	127.9405779838562	fix_post	2		12	20.0	2.5	/experiments/AOT/AOT_stimuli/rescaled_final/0310_fw.mp4	0.0	148.45546293258667	0.10033202171325684
23	128.04091000556946	fix_pre	0		120	21.0	2.5	blank	1.0	148.55579495429993	1.000204086303711
23	128.6245141029358	pulse	0	t		21.0	2.5	blank	1.0	149.13939905166626	
23	129.04111409187317	movie	1		300	21.0	2.5	blank	1.0	149.55599904060364	2.499876022338867
23	130.22457695007324	pulse	1	t		21.0	2.5	blank	1.0	150.7394618988037	
23	131.54099011421204	fix_post	2		12	21.0	2.5	blank	1.0	152.0558750629425	0.10003089904785156
24	131.6410210132599	fix_pre	0		120	22.0	2.5	/experiments/AOT/AOT_stimuli/rescaled_final/1477_rv.mp4	0.0	152.15590596199036	0.9995920658111572
24	131.82464599609375	pulse	0	t		22.0	2.5	/experiments/AOT/AOT_stimuli/rescaled_final/1477_rv.mp4	0.0	152.33953094482422	
24	132.64061307907104	movie	1		244	22.0	2.5	/experiments/AOT/AOT_stimuli/rescaled_final/1477_rv.mp4	0.0	153.1554980278015	2.500339984893799
24	133.42458295822144	pulse	1	t		22.0	2.5	/experiments/AOT/AOT_stimuli/rescaled_final/1477_rv.mp4	0.0	153.9394679069519	
24	135.02368307113647	pulse	1	t		22.0	2.5	/experiments/AOT/AOT_stimuli/rescaled_final/1477_rv.mp4	0.0	155.53856801986694	
24	135.14095306396484	fix_post	2		12	22.0	2.5	/experiments/AOT/AOT_stimuli/rescaled_final/1477_rv.mp4	0.0	155.6558380126953	0.09998893737792969
25	135.24094200134277	fix_pre	0		120	23.0	2.5	/experiments/AOT/AOT_stimuli/rescaled_final/1073_rv.mp4	0.0	155.75582695007324	1.0000638961791992
25	136.24100589752197	movie	1		245	23.0	2.5	/experiments/AOT/AOT_stimuli/rescaled_final/1073_rv.mp4	0.0	156.75589084625244	2.4999899864196777
25	136.62400007247925	pulse	1	t		23.0	2.5	/experiments/AOT/AOT_stimuli/rescaled_final/1073_rv.mp4	0.0	157.13888502120972	
25	138.22460794448853	pulse	1	t		23.0	2.5	/experiments/AOT/AOT_stimuli/rescaled_final/1073_rv.mp4	0.0	158.739492893219	
25	138.74099588394165	fix_post	2		12	23.0	2.5	/experiments/AOT/AOT_stimuli/rescaled_final/1073_rv.mp4	0.0	159.25588083267212	0.09962105751037598
26	138.84061694145203	fix_pre	0		119	24.0	2.5	/experiments/AOT/AOT_stimuli/rescaled_final/1908_fw.mp4	0.0	159.3555018901825	0.9917070865631104
26	139.82457900047302	pulse	0	t		24.0	2.5	/experiments/AOT/AOT_stimuli/rescaled_final/1908_fw.mp4	0.0	160.3394639492035	
26	139.83232402801514	movie	1		246	24.0	2.5	/experiments/AOT/AOT_stimuli/rescaled_final/1908_fw.mp4	0.0	160.3472089767456	2.508704900741577
26	141.42409896850586	pulse	1	t		24.0	2.5	/experiments/AOT/AOT_stimuli/rescaled_final/1908_fw.mp4	0.0	161.93898391723633	
26	142.3410289287567	fix_post	2		12	24.0	2.5	/experiments/AOT/AOT_stimuli/rescaled_final/1908_fw.mp4	0.0	162.85591387748718	0.099945068359375
27	142.4409739971161	fix_pre	0		120	25.0	2.5	/experiments/AOT/AOT_stimuli/rescaled_final/0534_fw.mp4	0.0	162.95585894584656	0.999579906463623
27	143.02455496788025	pulse	0	t		25.0	2.5	/experiments/AOT/AOT_stimuli/rescaled_final/0534_fw.mp4	0.0	163.53943991661072	
27	143.4405539035797	movie	1		245	25.0	2.5	/experiments/AOT/AOT_stimuli/rescaled_final/0534_fw.mp4	0.0	163.95543885231018	2.500364065170288
27	144.62446093559265	pulse	1	t		25.0	2.5	/experiments/AOT/AOT_stimuli/rescaled_final/0534_fw.mp4	0.0	165.13934588432312	
27	145.94091796875	fix_post	2		12	25.0	2.5	/experiments/AOT/AOT_stimuli/rescaled_final/0534_fw.mp4	0.0	166.45580291748047	0.10001802444458008
28	146.04093599319458	fix_pre	0		120	26.0	2.5	blank	1.0	166.55582094192505	0.9999198913574219
28	146.22448301315308	pulse	0	t		26.0	2.5	blank	1.0	166.73936796188354	
28	147.040855884552	movie	1		300	26.0	2.5	blank	1.0	167.55574083328247	2.500002145767212
28	147.82441306114197	pulse	1	t		26.0	2.5	blank	1.0	168.33929800987244	
28	149.42449808120728	pulse	1	t		26.0	2.5	blank	1.0	169.93938302993774	
28	149.5408580303192	fix_post	2		12	26.0	2.5	blank	1.0	170.05574297904968	0.10003399848937988
29	149.6408920288086	fix_pre	0		120	27.0	2.5	/experiments/AOT/AOT_stimuli/rescaled_final/0358_rv.mp4	0.0	170.15577697753906	1.000014066696167
29	150.64090609550476	movie	1		245	27.0	2.5	/experiments/AOT/AOT_stimuli/rescaled_final/0358_rv.mp4	0.0	171.15579104423523	2.4999189376831055
29	151.02408504486084	pulse	1	t		27.0	2.5	/experiments/AOT/AOT_stimuli/rescaled_final/0358_rv.mp4	0.0	171.5389699935913	
29	152.6244239807129	pulse	1	t		27.0	2.5	/experiments/AOT/AOT_stimuli/rescaled_final/0358_rv.mp4	0.0	173.13930892944336	
29	153.14082503318787	fix_post	2		12	27.0	2.5	/experiments/AOT/AOT_stimuli/rescaled_final/0358_rv.mp4	0.0	173.65570998191833	0.10005998611450195
30	153.24088501930237	fix_pre	0		119	28.0	2.5	/experiments/AOT/AOT_stimuli/rescaled_final/1934_rv.mp4	0.0	173.75576996803284	0.9916999340057373
30	154.22437405586243	pulse	0	t		28.0	2.5	/experiments/AOT/AOT_stimuli/rescaled_final/1934_rv.mp4	0.0	174.7392590045929	
30	154.2325849533081	movie	1		245	28.0	2.5	/experiments/AOT/AOT_stimuli/rescaled_final/1934_rv.mp4	0.0	174.74746990203857	2.5078070163726807
30	155.82410597801208	pulse	1	t		28.0	2.5	/experiments/AOT/AOT_stimuli/rescaled_final/1934_rv.mp4	0.0	176.33899092674255	
30	156.7403919696808	fix_post	2		12	28.0	2.5	/experiments/AOT/AOT_stimuli/rescaled_final/1934_rv.mp4	0.0	177.25527691841125	0.10042595863342285
31	156.8408179283142	fix_pre	0		120	29.0	2.5	/experiments/AOT/AOT_stimuli/rescaled_final/0360_fw.mp4	0.0	177.35570287704468	0.9996061325073242
31	157.4243290424347	pulse	0	t		29.0	2.5	/experiments/AOT/AOT_stimuli/rescaled_final/0360_fw.mp4	0.0	177.93921399116516	
31	157.84042406082153	movie	1		246	29.0	2.5	/experiments/AOT/AOT_stimuli/rescaled_final/0360_fw.mp4	0.0	178.355309009552	2.4999630451202393
31	159.02434492111206	pulse	1	t		29.0	2.5	/experiments/AOT/AOT_stimuli/rescaled_final/0360_fw.mp4	0.0	179.53922986984253	
31	160.34038710594177	fix_post	2		12	29.0	2.5	/experiments/AOT/AOT_stimuli/rescaled_final/0360_fw.mp4	0.0	180.85527205467224	0.1004629135131836
32	160.44085001945496	fix_pre	0		120	30.0	2.5	/experiments/AOT/AOT_stimuli/rescaled_final/1831_fw.mp4	0.0	180.95573496818542	1.0000600814819336
32	160.62430810928345	pulse	0	t		30.0	2.5	/experiments/AOT/AOT_stimuli/rescaled_final/1831_fw.mp4	0.0	181.13919305801392	
32	161.4409101009369	movie	1		243	30.0	2.5	/experiments/AOT/AOT_stimuli/rescaled_final/1831_fw.mp4	0.0	181.95579504966736	2.5000100135803223
32	162.2243161201477	pulse	1	t		30.0	2.5	/experiments/AOT/AOT_stimuli/rescaled_final/1831_fw.mp4	0.0	182.73920106887817	
32	163.83278107643127	pulse	1	t		30.0	2.5	/experiments/AOT/AOT_stimuli/rescaled_final/1831_fw.mp4	0.0	184.34766602516174	
32	163.9409201145172	fix_post	2		12	30.0	2.5	/experiments/AOT/AOT_stimuli/rescaled_final/1831_fw.mp4	0.0	184.45580506324768	0.09995579719543457
33	164.04087591171265	fix_pre	0		120	31.0	2.5	/experiments/AOT/AOT_stimuli/rescaled_final/1701_rv.mp4	0.0	184.55576086044312	0.9999949932098389
33	165.04087090492249	movie	1		245	31.0	2.5	/experiments/AOT/AOT_stimuli/rescaled_final/1701_rv.mp4	0.0	185.55575585365295	2.499544143676758
33	165.42428302764893	pulse	1	t		31.0	2.5	/experiments/AOT/AOT_stimuli/rescaled_final/1701_rv.mp4	0.0	185.9391679763794	
33	167.02431297302246	pulse	1	t		31.0	2.5	/experiments/AOT/AOT_stimuli/rescaled_final/1701_rv.mp4	0.0	187.53919792175293	
33	167.54041504859924	fix_post	2		12	31.0	2.5	/experiments/AOT/AOT_stimuli/rescaled_final/1701_rv.mp4	0.0	188.0552999973297	0.10030794143676758
34	167.640722990036	fix_pre	0		119	32.0	2.5	/experiments/AOT/AOT_stimuli/rescaled_final/0012_fw.mp4	0.0	188.15560793876648	0.9917290210723877
34	168.62439799308777	pulse	0	t		32.0	2.5	/experiments/AOT/AOT_stimuli/rescaled_final/0012_fw.mp4	0.0	189.13928294181824	
34	168.6324520111084	movie	1		245	32.0	2.5	/experiments/AOT/AOT_stimuli/rescaled_final/0012_fw.mp4	0.0	189.14733695983887	2.507981061935425
34	170.2238359451294	pulse	1	t		32.0	2.5	/experiments/AOT/AOT_stimuli/rescaled_final/0012_fw.mp4	0.0	190.73872089385986	
34	171.14043307304382	fix_post	2		12	32.0	2.5	/experiments/AOT/AOT_stimuli/rescaled_final/0012_fw.mp4	0.0	191.6553180217743	0.10036182403564453
35	171.24079489707947	fix_pre	0		120	33.0	2.5	blank	1.0	191.75567984580994	0.9999802112579346
35	171.82432293891907	pulse	0	t		33.0	2.5	blank	1.0	192.33920788764954	
35	172.2407751083374	movie	1		300	33.0	2.5	blank	1.0	192.75566005706787	2.500062942504883
35	173.42433094978333	pulse	1	t		33.0	2.5	blank	1.0	193.9392158985138	
35	174.74083805084229	fix_post	2		12	33.0	2.5	blank	1.0	195.25572299957275	0.09998202323913574
36	174.84082007408142	fix_pre	0		120	34.0	2.5	/experiments/AOT/AOT_stimuli/rescaled_final/1189_rv.mp4	0.0	195.3557050228119	0.9999878406524658
36	175.02436995506287	pulse	0	t		34.0	2.5	/experiments/AOT/AOT_stimuli/rescaled_final/1189_rv.mp4	0.0	195.53925490379333	
36	175.8408079147339	movie	1		244	34.0	2.5	/experiments/AOT/AOT_stimuli/rescaled_final/1189_rv.mp4	0.0	196.35569286346436	2.4999489784240723
36	176.62428307533264	pulse	1	t		34.0	2.5	/experiments/AOT/AOT_stimuli/rescaled_final/1189_rv.mp4	0.0	197.1391680240631	
36	178.22259306907654	pulse	1	t		34.0	2.5	/experiments/AOT/AOT_stimuli/rescaled_final/1189_rv.mp4	0.0	198.737478017807	
36	178.34075689315796	fix_post	2		12	34.0	2.5	/experiments/AOT/AOT_stimuli/rescaled_final/1189_rv.mp4	0.0	198.85564184188843	0.10001516342163086
37	178.4407720565796	fix_pre	0		120	35.0	2.5	/experiments/AOT/AOT_stimuli/rescaled_final/1249_fw.mp4	0.0	198.95565700531006	1.0000648498535156
37	179.4408369064331	movie	1		245	35.0	2.5	/experiments/AOT/AOT_stimuli/rescaled_final/1249_fw.mp4	0.0	199.95572185516357	2.4998271465301514
37	179.82524394989014	pulse	1	t		35.0	2.5	/experiments/AOT/AOT_stimuli/rescaled_final/1249_fw.mp4	0.0	200.3401288986206	
37	181.42423009872437	pulse	1	t		35.0	2.5	/experiments/AOT/AOT_stimuli/rescaled_final/1249_fw.mp4	0.0	201.93911504745483	
37	181.94066405296326	fix_post	2		12	35.0	2.5	/experiments/AOT/AOT_stimuli/rescaled_final/1249_fw.mp4	0.0	202.45554900169373	0.1001138687133789
38	182.04077792167664	fix_pre	0		119	36.0	2.5	/experiments/AOT/AOT_stimuli/rescaled_final/0004_rv.mp4	0.0	202.5556628704071	0.9917280673980713
38	183.02427291870117	pulse	0	t		36.0	2.5	/experiments/AOT/AOT_stimuli/rescaled_final/0004_rv.mp4	0.0	203.53915786743164	
38	183.0325059890747	movie	1		243	36.0	2.5	/experiments/AOT/AOT_stimuli/rescaled_final/0004_rv.mp4	0.0	203.54739093780518	2.508165121078491
38	184.625412940979	pulse	1	t		36.0	2.5	/experiments/AOT/AOT_stimuli/rescaled_final/0004_rv.mp4	0.0	205.14029788970947	
38	185.5406711101532	fix_post	2		12	36.0	2.5	/experiments/AOT/AOT_stimuli/rescaled_final/0004_rv.mp4	0.0	206.05555605888367	0.09998488426208496
39	185.64065599441528	fix_pre	0		120	37.0	2.5	/experiments/AOT/AOT_stimuli/rescaled_final/0996_rv.mp4	0.0	206.15554094314575	1.0000591278076172
39	186.22426104545593	pulse	0	t		37.0	2.5	/experiments/AOT/AOT_stimuli/rescaled_final/0996_rv.mp4	0.0	206.7391459941864	
39	186.6407151222229	movie	1		244	37.0	2.5	/experiments/AOT/AOT_stimuli/rescaled_final/0996_rv.mp4	0.0	207.15560007095337	2.49980092048645
39	187.82435011863708	pulse	1	t		37.0	2.5	/experiments/AOT/AOT_stimuli/rescaled_final/0996_rv.mp4	0.0	208.33923506736755	
39	189.14051604270935	fix_post	2		12	37.0	2.5	/experiments/AOT/AOT_stimuli/rescaled_final/0996_rv.mp4	0.0	209.65540099143982	0.10022807121276855
40	189.24074411392212	fix_pre	0		120	38.0	2.5	/experiments/AOT/AOT_stimuli/rescaled_final/0290_fw.mp4	0.0	209.7556290626526	0.9995968341827393
40	189.4242980480194	pulse	0	t		38.0	2.5	/experiments/AOT/AOT_stimuli/rescaled_final/0290_fw.mp4	0.0	209.93918299674988	
40	190.24034094810486	movie	1		243	38.0	2.5	/experiments/AOT/AOT_stimuli/rescaled_final/0290_fw.mp4	0.0	210.75522589683533	2.5001580715179443
40	191.02427697181702	pulse	1	t		38.0	2.5	/experiments/AOT/AOT_stimuli/rescaled_final/0290_fw.mp4	0.0	211.53916192054749	
40	192.6242799758911	pulse	1	t		38.0	2.5	/experiments/AOT/AOT_stimuli/rescaled_final/0290_fw.mp4	0.0	213.13916492462158	
40	192.7404990196228	fix_post	2		12	38.0	2.5	/experiments/AOT/AOT_stimuli/rescaled_final/0290_fw.mp4	0.0	213.25538396835327	0.10026693344116211
41	192.84076595306396	fix_pre	0		120	39.0	2.5	/experiments/AOT/AOT_stimuli/rescaled_final/0695_fw.mp4	0.0	213.35565090179443	0.9995050430297852
41	193.84027099609375	movie	1		244	39.0	2.5	/experiments/AOT/AOT_stimuli/rescaled_final/0695_fw.mp4	0.0	214.35515594482422	2.5006070137023926
41	194.22404599189758	pulse	1	t		39.0	2.5	/experiments/AOT/AOT_stimuli/rescaled_final/0695_fw.mp4	0.0	214.73893094062805	
41	195.82381010055542	pulse	1	t		39.0	2.5	/experiments/AOT/AOT_stimuli/rescaled_final/0695_fw.mp4	0.0	216.3386950492859	
41	196.34087800979614	fix_post	2		12	39.0	2.5	/experiments/AOT/AOT_stimuli/rescaled_final/0695_fw.mp4	0.0	216.8557629585266	0.10001301765441895
42	196.44089102745056	fix_pre	0		119	40.0	2.5	/experiments/AOT/AOT_stimuli/rescaled_final/1930_fw.mp4	0.0	216.95577597618103	0.9914109706878662
42	197.42406511306763	pulse	0	t		40.0	2.5	/experiments/AOT/AOT_stimuli/rescaled_final/1930_fw.mp4	0.0	217.9389500617981	
42	197.43230199813843	movie	1		247	40.0	2.5	/experiments/AOT/AOT_stimuli/rescaled_final/1930_fw.mp4	0.0	217.9471869468689	2.5085129737854004
42	199.02379393577576	pulse	1	t		40.0	2.5	/experiments/AOT/AOT_stimuli/rescaled_final/1930_fw.mp4	0.0	219.53867888450623	
42	199.94081497192383	fix_post	2		12	40.0	2.5	/experiments/AOT/AOT_stimuli/rescaled_final/1930_fw.mp4	0.0	220.4556999206543	0.09984207153320312
43	200.04065704345703	fix_pre	0		120	41.0	2.5	blank	1.0	220.5555419921875	0.999608039855957
43	200.6242470741272	pulse	0	t		41.0	2.5	blank	1.0	221.13913202285767	
43	201.040265083313	movie	1		300	41.0	2.5	blank	1.0	221.55515003204346	2.500339984893799
43	202.22405290603638	pulse	1	t		41.0	2.5	blank	1.0	222.73893785476685	
43	203.5406050682068	fix_post	2		12	41.0	2.5	blank	1.0	224.05549001693726	0.10004281997680664
44	203.6406478881836	fix_pre	0		120	42.0	2.5	/experiments/AOT/AOT_stimuli/rescaled_final/2027_rv.mp4	0.0	224.15553283691406	1.0000882148742676
44	203.82419800758362	pulse	0	t		42.0	2.5	/experiments/AOT/AOT_stimuli/rescaled_final/2027_rv.mp4	0.0	224.3390829563141	
44	204.64073610305786	movie	1		243	42.0	2.5	/experiments/AOT/AOT_stimuli/rescaled_final/2027_rv.mp4	0.0	225.15562105178833	2.499555826187134
44	205.4240779876709	pulse	1	t		42.0	2.5	/experiments/AOT/AOT_stimuli/rescaled_final/2027_rv.mp4	0.0	225.93896293640137	
44	207.02252197265625	pulse	1	t		42.0	2.5	/experiments/AOT/AOT_stimuli/rescaled_final/2027_rv.mp4	0.0	227.53740692138672	
44	207.140291929245	fix_post	2		12	42.0	2.5	/experiments/AOT/AOT_stimuli/rescaled_final/2027_rv.mp4	0.0	227.65517687797546	0.10027408599853516
45	207.24056601524353	fix_pre	0		120	43.0	2.5	/experiments/AOT/AOT_stimuli/rescaled_final/1364_fw.mp4	0.0	227.755450963974	1.0000760555267334
45	208.24064207077026	movie	1		244	43.0	2.5	/experiments/AOT/AOT_stimuli/rescaled_final/1364_fw.mp4	0.0	228.75552701950073	2.499552011489868
45	208.624116897583	pulse	1	t		43.0	2.5	/experiments/AOT/AOT_stimuli/rescaled_final/1364_fw.mp4	0.0	229.13900184631348	
45	210.22416591644287	pulse	1	t		43.0	2.5	/experiments/AOT/AOT_stimuli/rescaled_final/1364_fw.mp4	0.0	230.73905086517334	
45	210.74019408226013	fix_post	2		12	43.0	2.5	/experiments/AOT/AOT_stimuli/rescaled_final/1364_fw.mp4	0.0	231.2550790309906	0.10037589073181152
46	210.84056997299194	fix_pre	0		119	44.0	2.5	/experiments/AOT/AOT_stimuli/rescaled_final/1701_rv.mp4	0.0	231.3554549217224	0.9917309284210205
46	211.8241400718689	pulse	0	t		44.0	2.5	/experiments/AOT/AOT_stimuli/rescaled_final/1701_rv.mp4	0.0	232.33902502059937	
46	211.83230090141296	movie	1		245	44.0	2.5	/experiments/AOT/AOT_stimuli/rescaled_final/1701_rv.mp4	0.0	232.34718585014343	2.5083611011505127
46	213.42388892173767	pulse	1	t		44.0	2.5	/experiments/AOT/AOT_stimuli/rescaled_final/1701_rv.mp4	0.0	233.93877387046814	
46	214.34066200256348	fix_post	2		12	44.0	2.5	/experiments/AOT/AOT_stimuli/rescaled_final/1701_rv.mp4	0.0	234.85554695129395	0.09988903999328613
47	214.44055104255676	fix_pre	0		120	45.0	2.5	/experiments/AOT/AOT_stimuli/rescaled_final/0463_rv.mp4	0.0	234.95543599128723	0.9997529983520508
47	215.02416610717773	pulse	0	t		45.0	2.5	/experiments/AOT/AOT_stimuli/rescaled_final/0463_rv.mp4	0.0	235.5390510559082	
47	215.4403040409088	movie	1		242	45.0	2.5	/experiments/AOT/AOT_stimuli/rescaled_final/0463_rv.mp4	0.0	235.95518898963928	2.5003750324249268
47	216.62407803535461	pulse	1	t		45.0	2.5	/experiments/AOT/AOT_stimuli/rescaled_final/0463_rv.mp4	0.0	237.13896298408508	
47	217.94067907333374	fix_post	2		12	45.0	2.5	/experiments/AOT/AOT_stimuli/rescaled_final/0463_rv.mp4	0.0	238.4555640220642	0.10005784034729004
48	218.04073691368103	fix_pre	0		120	46.0	2.5	/experiments/AOT/AOT_stimuli/rescaled_final/0036_fw.mp4	0.0	238.5556218624115	0.9994730949401855
48	218.22422790527344	pulse	0	t		46.0	2.5	/experiments/AOT/AOT_stimuli/rescaled_final/0036_fw.mp4	0.0	238.7391128540039	
48	219.04021000862122	movie	1		244	46.0	2.5	/experiments/AOT/AOT_stimuli/rescaled_final/0036_fw.mp4	0.0	239.55509495735168	2.5003209114074707
48	219.82409405708313	pulse	1	t		46.0	2.5	/experiments/AOT/AOT_stimuli/rescaled_final/0036_fw.mp4	0.0	240.3389790058136	
48	221.42313289642334	pulse	1	t		46.0	2.5	/experiments/AOT/AOT_stimuli/rescaled_final/0036_fw.mp4	0.0	241.9380178451538	
48	221.5405309200287	fix_post	2		12	46.0	2.5	/experiments/AOT/AOT_stimuli/rescaled_final/0036_fw.mp4	0.0	242.05541586875916	0.10003209114074707
49	221.64056301116943	fix_pre	0		120	47.0	2.5	blank	1.0	242.1554479598999	0.9999818801879883
49	222.64054489135742	movie	1		300	47.0	2.5	blank	1.0	243.1554298400879	2.5000410079956055
49	223.0240180492401	pulse	1	t		47.0	2.5	blank	1.0	243.53890299797058	
49	224.6241500377655	pulse	1	t		47.0	2.5	blank	1.0	245.13903498649597	
49	225.14058589935303	fix_post	2		12	47.0	2.5	blank	1.0	245.6554708480835	0.09995007514953613
50	225.24053597450256	fix_pre	0		119	48.0	2.5	/experiments/AOT/AOT_stimuli/rescaled_final/0024_rv.mp4	0.0	245.75542092323303	0.9917149543762207
50	226.22408604621887	pulse	0	t		48.0	2.5	/experiments/AOT/AOT_stimuli/rescaled_final/0024_rv.mp4	0.0	246.73897099494934	
50	226.23225092887878	movie	1		246	48.0	2.5	/experiments/AOT/AOT_stimuli/rescaled_final/0024_rv.mp4	0.0	246.74713587760925	2.5082101821899414
50	227.8237009048462	pulse	1	t		48.0	2.5	/experiments/AOT/AOT_stimuli/rescaled_final/0024_rv.mp4	0.0	248.33858585357666	
50	228.74046111106873	fix_post	2		12	48.0	2.5	/experiments/AOT/AOT_stimuli/rescaled_final/0024_rv.mp4	0.0	249.2553460597992	0.10005688667297363
51	228.8405179977417	fix_pre	0		120	49.0	2.5	/experiments/AOT/AOT_stimuli/rescaled_final/0398_rv.mp4	0.0	249.35540294647217	1.0000309944152832
51	229.42402911186218	pulse	0	t		49.0	2.5	/experiments/AOT/AOT_stimuli/rescaled_final/0398_rv.mp4	0.0	249.93891406059265	
51	229.84054899215698	movie	1		244	49.0	2.5	/experiments/AOT/AOT_stimuli/rescaled_final/0398_rv.mp4	0.0	250.35543394088745	2.4999749660491943
51	231.02411198616028	pulse	1	t		49.0	2.5	/experiments/AOT/AOT_stimuli/rescaled_final/0398_rv.mp4	0.0	251.53899693489075	
51	232.34052395820618	fix_post	2		12	49.0	2.5	/experiments/AOT/AOT_stimuli/rescaled_final/0398_rv.mp4	0.0	252.85540890693665	0.10001015663146973
52	232.44053411483765	fix_pre	0		120	50.0	2.5	/experiments/AOT/AOT_stimuli/rescaled_final/1073_fw.mp4	0.0	252.95541906356812	0.999547004699707
52	232.62404704093933	pulse	0	t		50.0	2.5	/experiments/AOT/AOT_stimuli/rescaled_final/1073_fw.mp4	0.0	253.1389319896698	
52	233.44008111953735	movie	1		242	50.0	2.5	/experiments/AOT/AOT_stimuli/rescaled_final/1073_fw.mp4	0.0	253.95496606826782	2.500487804412842
52	234.22403407096863	pulse	1	t		50.0	2.5	/experiments/AOT/AOT_stimuli/rescaled_final/1073_fw.mp4	0.0	254.7389190196991	
52	235.83245205879211	pulse	1	t		50.0	2.5	/experiments/AOT/AOT_stimuli/rescaled_final/1073_fw.mp4	0.0	256.3473370075226	
52	235.9405689239502	fix_post	2		12	50.0	2.5	/experiments/AOT/AOT_stimuli/rescaled_final/1073_fw.mp4	0.0	256.45545387268066	0.09993410110473633
53	236.04050302505493	fix_pre	0		120	51.0	2.5	/experiments/AOT/AOT_stimuli/rescaled_final/0452_rv.mp4	0.0	256.5553879737854	1.0000050067901611
53	237.0405080318451	movie	1		244	51.0	2.5	/experiments/AOT/AOT_stimuli/rescaled_final/0452_rv.mp4	0.0	257.55539298057556	2.499553918838501
53	237.4238040447235	pulse	1	t		51.0	2.5	/experiments/AOT/AOT_stimuli/rescaled_final/0452_rv.mp4	0.0	257.938688993454	
53	239.0239019393921	pulse	1	t		51.0	2.5	/experiments/AOT/AOT_stimuli/rescaled_final/0452_rv.mp4	0.0	259.53878688812256	
53	239.5400619506836	fix_post	2		12	51.0	2.5	/experiments/AOT/AOT_stimuli/rescaled_final/0452_rv.mp4	0.0	260.05494689941406	0.10038113594055176
54	239.64044308662415	fix_pre	0		119	52.0	2.5	/experiments/AOT/AOT_stimuli/rescaled_final/0626_fw.mp4	0.0	260.1553280353546	0.9917728900909424
54	240.62408900260925	pulse	0	t		52.0	2.5	/experiments/AOT/AOT_stimuli/rescaled_final/0626_fw.mp4	0.0	261.1389739513397	
54	240.6322159767151	movie	1		246	52.0	2.5	/experiments/AOT/AOT_stimuli/rescaled_final/0626_fw.mp4	0.0	261.14710092544556	2.5083301067352295
54	242.22358012199402	pulse	1	t		52.0	2.5	/experiments/AOT/AOT_stimuli/rescaled_final/0626_fw.mp4	0.0	262.7384650707245	
54	243.14054608345032	fix_post	2		12	52.0	2.5	/experiments/AOT/AOT_stimuli/rescaled_final/0626_fw.mp4	0.0	263.6554310321808	0.09996485710144043
55	243.24051094055176	fix_pre	0		120	53.0	2.5	/experiments/AOT/AOT_stimuli/rescaled_final/1114_rv.mp4	0.0	263.7553958892822	0.9999911785125732
55	243.82407307624817	pulse	0	t		53.0	2.5	/experiments/AOT/AOT_stimuli/rescaled_final/1114_rv.mp4	0.0	264.33895802497864	
55	244.24050211906433	movie	1		243	53.0	2.5	/experiments/AOT/AOT_stimuli/rescaled_final/1114_rv.mp4	0.0	264.7553870677948	2.4999959468841553
55	245.42392992973328	pulse	1	t		53.0	2.5	/experiments/AOT/AOT_stimuli/rescaled_final/1114_rv.mp4	0.0	265.93881487846375	
55	246.7404980659485	fix_post	2		12	53.0	2.5	/experiments/AOT/AOT_stimuli/rescaled_final/1114_rv.mp4	0.0	267.25538301467896	0.0999598503112793
56	246.84045791625977	fix_pre	0		120	54.0	2.5	/experiments/AOT/AOT_stimuli/rescaled_final/1259_rv.mp4	0.0	267.35534286499023	0.9996790885925293
56	247.02397108078003	pulse	0	t		54.0	2.5	/experiments/AOT/AOT_stimuli/rescaled_final/1259_rv.mp4	0.0	267.5388560295105	
56	247.8401370048523	movie	1		246	54.0	2.5	/experiments/AOT/AOT_stimuli/rescaled_final/1259_rv.mp4	0.0	268.35502195358276	2.499929904937744
56	248.623929977417	pulse	1	t		54.0	2.5	/experiments/AOT/AOT_stimuli/rescaled_final/1259_rv.mp4	0.0	269.13881492614746	
56	250.22357296943665	pulse	1	t		54.0	2.5	/experiments/AOT/AOT_stimuli/rescaled_final/1259_rv.mp4	0.0	270.7384579181671	
56	250.34006690979004	fix_post	2		12	54.0	2.5	/experiments/AOT/AOT_stimuli/rescaled_final/1259_rv.mp4	0.0	270.8549518585205	0.10005307197570801
57	250.44011998176575	fix_pre	0		120	55.0	2.5	/experiments/AOT/AOT_stimuli/rescaled_final/1130_rv.mp4	0.0	270.9550049304962	1.0000619888305664
57	251.4401819705963	movie	1		246	55.0	2.5	/experiments/AOT/AOT_stimuli/rescaled_final/1130_rv.mp4	0.0	271.9550669193268	2.5003180503845215
57	251.82398390769958	pulse	1	t		55.0	2.5	/experiments/AOT/AOT_stimuli/rescaled_final/1130_rv.mp4	0.0	272.33886885643005	
57	253.4237780570984	pulse	1	t		55.0	2.5	/experiments/AOT/AOT_stimuli/rescaled_final/1130_rv.mp4	0.0	273.93866300582886	
57	253.94050002098083	fix_post	2		12	55.0	2.5	/experiments/AOT/AOT_stimuli/rescaled_final/1130_rv.mp4	0.0	274.4553849697113	0.10002899169921875
58	254.04052901268005	fix_pre	0		119	56.0	2.5	blank	1.0	274.5554139614105	0.9916141033172607
58	255.02399802207947	pulse	0	t		56.0	2.5	blank	1.0	275.53888297080994	
58	255.03214311599731	movie	1		301	56.0	2.5	blank	1.0	275.5470280647278	2.507861852645874
58	256.62405705451965	pulse	1	t		56.0	2.5	blank	1.0	277.1389420032501	
58	257.5400049686432	fix_post	2		12	56.0	2.5	blank	1.0	278.05488991737366	0.10039997100830078
59	257.6404049396515	fix_pre	0		120	57.0	2.5	/experiments/AOT/AOT_stimuli/rescaled_final/2165_fw.mp4	0.0	278.15528988838196	1.0000240802764893
59	258.22387409210205	pulse	0	t		57.0	2.5	/experiments/AOT/AOT_stimuli/rescaled_final/2165_fw.mp4	0.0	278.7387590408325	
59	258.640429019928	movie	1		243	57.0	2.5	/experiments/AOT/AOT_stimuli/rescaled_final/2165_fw.mp4	0.0	279.15531396865845	2.499474048614502
59	259.82394099235535	pulse	1	t		57.0	2.5	/experiments/AOT/AOT_stimuli/rescaled_final/2165_fw.mp4	0.0	280.3388259410858	
59	261.1399030685425	fix_post	2		12	57.0	2.5	/experiments/AOT/AOT_stimuli/rescaled_final/2165_fw.mp4	0.0	281.65478801727295	0.10048699378967285
60	261.24039006233215	fix_pre	0		120	58.0	2.5	/experiments/AOT/AOT_stimuli/rescaled_final/1405_rv.mp4	0.0	281.7552750110626	0.999992847442627
60	261.42384004592896	pulse	0	t		58.0	2.5	/experiments/AOT/AOT_stimuli/rescaled_final/1405_rv.mp4	0.0	281.9387249946594	
60	262.2403829097748	movie	1		245	58.0	2.5	/experiments/AOT/AOT_stimuli/rescaled_final/1405_rv.mp4	0.0	282.75526785850525	2.4999849796295166
60	263.0238139629364	pulse	1	t		58.0	2.5	/experiments/AOT/AOT_stimuli/rescaled_final/1405_rv.mp4	0.0	283.53869891166687	
60	264.6322250366211	pulse	1	t		58.0	2.5	/experiments/AOT/AOT_stimuli/rescaled_final/1405_rv.mp4	0.0	285.14710998535156	
60	264.7403678894043	fix_post	2		12	58.0	2.5	/experiments/AOT/AOT_stimuli/rescaled_final/1405_rv.mp4	0.0	285.25525283813477	0.09967803955078125
61	264.8400459289551	fix_pre	0		120	59.0	2.5	/experiments/AOT/AOT_stimuli/rescaled_final/0241_fw.mp4	0.0	285.35493087768555	0.9998819828033447
61	265.8399279117584	movie	1		246	59.0	2.5	/experiments/AOT/AOT_stimuli/rescaled_final/0241_fw.mp4	0.0	286.3548128604889	2.500404119491577
61	266.2235848903656	pulse	1	t		59.0	2.5	/experiments/AOT/AOT_stimuli/rescaled_final/0241_fw.mp4	0.0	286.73846983909607	
61	267.8237569332123	pulse	1	t		59.0	2.5	/experiments/AOT/AOT_stimuli/rescaled_final/0241_fw.mp4	0.0	288.33864188194275	
61	268.34033203125	fix_post	2		12	59.0	2.5	/experiments/AOT/AOT_stimuli/rescaled_final/0241_fw.mp4	0.0	288.85521697998047	0.1000359058380127
62	268.440367937088	fix_pre	0		119	60.0	2.5	/experiments/AOT/AOT_stimuli/rescaled_final/1460_fw.mp4	0.0	288.9552528858185	0.9916501045227051
62	269.4238290786743	pulse	0	t		60.0	2.5	/experiments/AOT/AOT_stimuli/rescaled_final/1460_fw.mp4	0.0	289.9387140274048	
62	269.4320180416107	movie	1		247	60.0	2.5	/experiments/AOT/AOT_stimuli/rescaled_final/1460_fw.mp4	0.0	289.9469029903412	2.5078868865966797
62	271.02356600761414	pulse	1	t		60.0	2.5	/experiments/AOT/AOT_stimuli/rescaled_final/1460_fw.mp4	0.0	291.5384509563446	
62	271.9399049282074	fix_post	2		12	60.0	2.5	/experiments/AOT/AOT_stimuli/rescaled_final/1460_fw.mp4	0.0	292.45478987693787	0.10008502006530762
63	272.0399899482727	fix_pre	0		120	61.0	2.5	blank	1.0	292.5548748970032	0.9999380111694336
63	272.62510204315186	pulse	0	t		61.0	2.5	blank	1.0	293.1399869918823	
63	273.03992795944214	movie	1		300	61.0	2.5	blank	1.0	293.5548129081726	2.5003819465637207
63	274.223876953125	pulse	1	t		61.0	2.5	blank	1.0	294.73876190185547	
63	275.54030990600586	fix_post	2		12	61.0	2.5	blank	1.0	296.0551948547363	0.10001611709594727
64	275.6403260231018	fix_pre	0		120	62.0	2.5	/experiments/AOT/AOT_stimuli/rescaled_final/1934_rv.mp4	0.0	296.1552109718323	0.9995779991149902
64	275.8238379955292	pulse	0	t		62.0	2.5	/experiments/AOT/AOT_stimuli/rescaled_final/1934_rv.mp4	0.0	296.33872294425964	
64	276.6399040222168	movie	1		242	62.0	2.5	/experiments/AOT/AOT_stimuli/rescaled_final/1934_rv.mp4	0.0	297.15478897094727	2.500359058380127
64	277.42386198043823	pulse	1	t		62.0	2.5	/experiments/AOT/AOT_stimuli/rescaled_final/1934_rv.mp4	0.0	297.9387469291687	
64	279.03226709365845	pulse	1	t		62.0	2.5	/experiments/AOT/AOT_stimuli/rescaled_final/1934_rv.mp4	0.0	299.5471520423889	
64	279.1402630805969	fix_post	2		12	62.0	2.5	/experiments/AOT/AOT_stimuli/rescaled_final/1934_rv.mp4	0.0	299.6551480293274	0.10003495216369629
65	279.2402980327606	fix_pre	0		120	63.0	2.5	/experiments/AOT/AOT_stimuli/rescaled_final/2125_fw.mp4	0.0	299.7551829814911	0.999985933303833
65	280.24028396606445	movie	1		246	63.0	2.5	/experiments/AOT/AOT_stimuli/rescaled_final/2125_fw.mp4	0.0	300.7551689147949	2.499629020690918
65	280.62385511398315	pulse	1	t		63.0	2.5	/experiments/AOT/AOT_stimuli/rescaled_final/2125_fw.mp4	0.0	301.1387400627136	
65	282.22370195388794	pulse	1	t		63.0	2.5	/experiments/AOT/AOT_stimuli/rescaled_final/2125_fw.mp4	0.0	302.7385869026184	
65	282.73991298675537	fix_post	2		12	63.0	2.5	/experiments/AOT/AOT_stimuli/rescaled_final/2125_fw.mp4	0.0	303.25479793548584	0.10035109519958496
66	282.84026408195496	fix_pre	0		119	64.0	2.5	/experiments/AOT/AOT_stimuli/rescaled_final/0639_rv.mp4	0.0	303.3551490306854	0.9917888641357422
66	283.82374906539917	pulse	0	t		64.0	2.5	/experiments/AOT/AOT_stimuli/rescaled_final/0639_rv.mp4	0.0	304.33863401412964	
66	283.8320529460907	movie	1		247	64.0	2.5	/experiments/AOT/AOT_stimuli/rescaled_final/0639_rv.mp4	0.0	304.34693789482117	2.508336067199707
66	285.4235129356384	pulse	1	t		64.0	2.5	/experiments/AOT/AOT_stimuli/rescaled_final/0639_rv.mp4	0.0	305.9383978843689	
66	286.3403890132904	fix_post	2		12	64.0	2.5	/experiments/AOT/AOT_stimuli/rescaled_final/0639_rv.mp4	0.0	306.8552739620209	0.09980893135070801
67	286.4401979446411	fix_pre	0		120	65.0	2.5	/experiments/AOT/AOT_stimuli/rescaled_final/0012_fw.mp4	0.0	306.9550828933716	1.0000951290130615
67	287.02373790740967	pulse	0	t		65.0	2.5	/experiments/AOT/AOT_stimuli/rescaled_final/0012_fw.mp4	0.0	307.53862285614014	
67	287.4402930736542	movie	1		247	65.0	2.5	/experiments/AOT/AOT_stimuli/rescaled_final/0012_fw.mp4	0.0	307.95517802238464	2.4999969005584717
67	288.6237790584564	pulse	1	t		65.0	2.5	/experiments/AOT/AOT_stimuli/rescaled_final/0012_fw.mp4	0.0	309.1386640071869	
67	289.94028997421265	fix_post	2		12	65.0	2.5	/experiments/AOT/AOT_stimuli/rescaled_final/0012_fw.mp4	0.0	310.4551749229431	0.10004591941833496
68	290.040335893631	fix_pre	0		120	66.0	2.5	/experiments/AOT/AOT_stimuli/rescaled_final/1671_rv.mp4	0.0	310.55522084236145	0.9995040893554688
68	290.2238268852234	pulse	0	t		66.0	2.5	/experiments/AOT/AOT_stimuli/rescaled_final/1671_rv.mp4	0.0	310.73871183395386	
68	291.03983998298645	movie	1		246	66.0	2.5	/experiments/AOT/AOT_stimuli/rescaled_final/1671_rv.mp4	0.0	311.5547249317169	2.4999349117279053
68	291.82371401786804	pulse	1	t		66.0	2.5	/experiments/AOT/AOT_stimuli/rescaled_final/1671_rv.mp4	0.0	312.3385989665985	
68	293.4321811199188	pulse	1	t		66.0	2.5	/experiments/AOT/AOT_stimuli/rescaled_final/1671_rv.mp4	0.0	313.9470660686493	
68	293.53977489471436	fix_post	2		12	66.0	2.5	/experiments/AOT/AOT_stimuli/rescaled_final/1671_rv.mp4	0.0	314.0546598434448	0.10052704811096191
69	293.6403019428253	fix_pre	0		120	67.0	2.5	/experiments/AOT/AOT_stimuli/rescaled_final/2088_fw.mp4	0.0	314.1551868915558	0.9999091625213623
69	294.6402111053467	movie	1		247	67.0	2.5	/experiments/AOT/AOT_stimuli/rescaled_final/2088_fw.mp4	0.0	315.15509605407715	2.499924898147583
69	295.0237910747528	pulse	1	t		67.0	2.5	/experiments/AOT/AOT_stimuli/rescaled_final/2088_fw.mp4	0.0	315.5386760234833	
69	296.623822927475	pulse	1	t		67.0	2.5	/experiments/AOT/AOT_stimuli/rescaled_final/2088_fw.mp4	0.0	317.13870787620544	
69	297.14013600349426	fix_post	2		12	67.0	2.5	/experiments/AOT/AOT_stimuli/rescaled_final/2088_fw.mp4	0.0	317.65502095222473	0.0996849536895752
70	297.23982095718384	fix_pre	0		119	68.0	2.5	/experiments/AOT/AOT_stimuli/rescaled_final/1014_rv.mp4	0.0	317.7547059059143	0.9920899868011475
70	298.2237091064453	pulse	0	t		68.0	2.5	/experiments/AOT/AOT_stimuli/rescaled_final/1014_rv.mp4	0.0	318.7385940551758	
70	298.231910943985	movie	1		245	68.0	2.5	/experiments/AOT/AOT_stimuli/rescaled_final/1014_rv.mp4	0.0	318.74679589271545	2.5079030990600586
70	299.8232319355011	pulse	1	t		68.0	2.5	/experiments/AOT/AOT_stimuli/rescaled_final/1014_rv.mp4	0.0	320.33811688423157	
70	300.73981404304504	fix_post	2		12	68.0	2.5	/experiments/AOT/AOT_stimuli/rescaled_final/1014_rv.mp4	0.0	321.2546989917755	0.09997200965881348
71	300.83978605270386	fix_pre	0		120	69.0	2.5	/experiments/AOT/AOT_stimuli/rescaled_final/0867_rv.mp4	0.0	321.3546710014343	1.0007908344268799
71	301.4237549304962	pulse	0	t		69.0	2.5	/experiments/AOT/AOT_stimuli/rescaled_final/0867_rv.mp4	0.0	321.9386398792267	
71	301.84057688713074	movie	1		244	69.0	2.5	/experiments/AOT/AOT_stimuli/rescaled_final/0867_rv.mp4	0.0	322.3554618358612	2.499713182449341
71	303.0238320827484	pulse	1	t		69.0	2.5	/experiments/AOT/AOT_stimuli/rescaled_final/0867_rv.mp4	0.0	323.5387170314789	
71	304.3402900695801	fix_post	2		12	69.0	2.5	/experiments/AOT/AOT_stimuli/rescaled_final/0867_rv.mp4	0.0	324.85517501831055	0.09999704360961914
72	304.4402871131897	fix_pre	0		120	70.0	2.5	blank	1.0	324.95517206192017	0.9999477863311768
72	304.623752117157	pulse	0	t		70.0	2.5	blank	1.0	325.13863706588745	
72	305.4402348995209	movie	1		300	70.0	2.5	blank	1.0	325.95511984825134	2.500204086303711
72	306.2232060432434	pulse	1	t		70.0	2.5	blank	1.0	326.7380909919739	
72	307.8234078884125	pulse	1	t		70.0	2.5	blank	1.0	328.33829283714294	
72	307.9404389858246	fix_post	2		12	70.0	2.5	blank	1.0	328.45532393455505	0.09996199607849121
73	308.0404009819031	fix_pre	0		120	71.0	2.5	/experiments/AOT/AOT_stimuli/rescaled_final/1233_fw.mp4	0.0	328.55528593063354	1.0000910758972168
73	309.0404920578003	movie	1		247	71.0	2.5	/experiments/AOT/AOT_stimuli/rescaled_final/1233_fw.mp4	0.0	329.55537700653076	2.499345064163208
73	309.42325711250305	pulse	1	t		71.0	2.5	/experiments/AOT/AOT_stimuli/rescaled_final/1233_fw.mp4	0.0	329.9381420612335	
73	311.0236339569092	pulse	1	t		71.0	2.5	/experiments/AOT/AOT_stimuli/rescaled_final/1233_fw.mp4	0.0	331.53851890563965	
73	311.5398371219635	fix_post	2		12	71.0	2.5	/experiments/AOT/AOT_stimuli/rescaled_final/1233_fw.mp4	0.0	332.05472207069397	0.09996581077575684
74	311.63980293273926	fix_pre	0		119	72.0	2.5	/experiments/AOT/AOT_stimuli/rescaled_final/0121_fw.mp4	0.0	332.1546878814697	0.9921410083770752
74	312.623703956604	pulse	0	t		72.0	2.5	/experiments/AOT/AOT_stimuli/rescaled_final/0121_fw.mp4	0.0	333.1385889053345	
74	312.63194394111633	movie	1		247	72.0	2.5	/experiments/AOT/AOT_stimuli/rescaled_final/0121_fw.mp4	0.0	333.1468288898468	2.507733106613159
74	314.223699092865	pulse	1	t		72.0	2.5	/experiments/AOT/AOT_stimuli/rescaled_final/0121_fw.mp4	0.0	334.73858404159546	
74	315.1396770477295	fix_post	2		12	72.0	2.5	/experiments/AOT/AOT_stimuli/rescaled_final/0121_fw.mp4	0.0	335.65456199645996	0.10010886192321777
75	315.2397859096527	fix_pre	0		120	73.0	2.5	/experiments/AOT/AOT_stimuli/rescaled_final/0272_fw.mp4	0.0	335.7546708583832	1.0003430843353271
75	315.823618888855	pulse	0	t		73.0	2.5	/experiments/AOT/AOT_stimuli/rescaled_final/0272_fw.mp4	0.0	336.33850383758545	
75	316.24012899398804	movie	1		245	73.0	2.5	/experiments/AOT/AOT_stimuli/rescaled_final/0272_fw.mp4	0.0	336.7550139427185	2.4996330738067627
75	317.4236979484558	pulse	1	t		73.0	2.5	/experiments/AOT/AOT_stimuli/rescaled_final/0272_fw.mp4	0.0	337.9385828971863	
75	318.7397620677948	fix_post	2		10	73.0	2.5	/experiments/AOT/AOT_stimuli/rescaled_final/0272_fw.mp4	0.0	339.25464701652527	0.10038495063781738
76	318.8401470184326	fix_pre	0		120	74.0	2.5	/experiments/AOT/AOT_stimuli/rescaled_final/1010_fw.mp4	0.0	339.3550319671631	1.000035047531128
76	319.0237319469452	pulse	0	t		74.0	2.5	/experiments/AOT/AOT_stimuli/rescaled_final/1010_fw.mp4	0.0	339.53861689567566	
76	319.84018206596375	movie	1		245	74.0	2.5	/experiments/AOT/AOT_stimuli/rescaled_final/1010_fw.mp4	0.0	340.3550670146942	2.499910831451416
76	320.6235411167145	pulse	1	t		74.0	2.5	/experiments/AOT/AOT_stimuli/rescaled_final/1010_fw.mp4	0.0	341.13842606544495	
76	322.2222421169281	pulse	1	t		74.0	2.5	/experiments/AOT/AOT_stimuli/rescaled_final/1010_fw.mp4	0.0	342.73712706565857	
76	322.34009289741516	fix_post	2		12	74.0	2.5	/experiments/AOT/AOT_stimuli/rescaled_final/1010_fw.mp4	0.0	342.85497784614563	0.09959602355957031
77	322.43968892097473	fix_pre	0		120	75.0	2.5	blank	1.0	342.9545738697052	1.0000531673431396
77	323.43974208831787	movie	1		300	75.0	2.5	blank	1.0	343.95462703704834	2.500005006790161
77	323.8235909938812	pulse	1	t		75.0	2.5	blank	1.0	344.3384759426117	
77	325.4235520362854	pulse	1	t		75.0	2.5	blank	1.0	345.93843698501587	
77	325.93974709510803	fix_post	2		12	75.0	2.5	blank	1.0	346.4546320438385	0.10033202171325684
78	326.0400791168213	fix_pre	0		119	76.0	2.5	/experiments/AOT/AOT_stimuli/rescaled_final/0692_rv.mp4	0.0	346.55496406555176	0.9916799068450928
78	327.02354407310486	pulse	0	t		76.0	2.5	/experiments/AOT/AOT_stimuli/rescaled_final/0692_rv.mp4	0.0	347.5384290218353	
78	327.0317590236664	movie	1		247	76.0	2.5	/experiments/AOT/AOT_stimuli/rescaled_final/0692_rv.mp4	0.0	347.54664397239685	2.508312940597534
78	328.6230409145355	pulse	1	t		76.0	2.5	/experiments/AOT/AOT_stimuli/rescaled_final/0692_rv.mp4	0.0	349.137925863266	
78	329.5400719642639	fix_post	2		12	76.0	2.5	/experiments/AOT/AOT_stimuli/rescaled_final/0692_rv.mp4	0.0	350.0549569129944	0.09991312026977539
79	329.6399850845337	fix_pre	0		120	77.0	2.5	/experiments/AOT/AOT_stimuli/rescaled_final/1202_rv.mp4	0.0	350.15487003326416	0.9997479915618896
79	330.22355103492737	pulse	0	t		77.0	2.5	/experiments/AOT/AOT_stimuli/rescaled_final/1202_rv.mp4	0.0	350.73843598365784	
79	330.6397330760956	movie	1		247	77.0	2.5	/experiments/AOT/AOT_stimuli/rescaled_final/1202_rv.mp4	0.0	351.15461802482605	2.5000720024108887
79	331.8236451148987	pulse	1	t		77.0	2.5	/experiments/AOT/AOT_stimuli/rescaled_final/1202_rv.mp4	0.0	352.33853006362915	
79	333.13980507850647	fix_post	2		12	77.0	2.5	/experiments/AOT/AOT_stimuli/rescaled_final/1202_rv.mp4	0.0	353.65469002723694	0.10022592544555664
80	333.240031003952	fix_pre	0		120	78.0	2.5	/experiments/AOT/AOT_stimuli/rescaled_final/1249_fw.mp4	0.0	353.7549159526825	1.0001559257507324
80	333.4234459400177	pulse	0	t		78.0	2.5	/experiments/AOT/AOT_stimuli/rescaled_final/1249_fw.mp4	0.0	353.93833088874817	
80	334.24018692970276	movie	1		245	78.0	2.5	/experiments/AOT/AOT_stimuli/rescaled_final/1249_fw.mp4	0.0	354.7550718784332	2.499871015548706
80	335.02349305152893	pulse	1	t		78.0	2.5	/experiments/AOT/AOT_stimuli/rescaled_final/1249_fw.mp4	0.0	355.5383780002594	
80	336.63197898864746	pulse	1	t		78.0	2.5	/experiments/AOT/AOT_stimuli/rescaled_final/1249_fw.mp4	0.0	357.14686393737793	
80	336.74005794525146	fix_post	2		12	78.0	2.5	/experiments/AOT/AOT_stimuli/rescaled_final/1249_fw.mp4	0.0	357.25494289398193	0.09999513626098633
81	336.84005308151245	fix_pre	0		120	79.0	2.5	/experiments/AOT/AOT_stimuli/rescaled_final/1884_rv.mp4	0.0	357.3549380302429	0.9999580383300781
81	337.84001111984253	movie	1		245	79.0	2.5	/experiments/AOT/AOT_stimuli/rescaled_final/1884_rv.mp4	0.0	358.354896068573	2.4995648860931396
81	338.22318410873413	pulse	1	t		79.0	2.5	/experiments/AOT/AOT_stimuli/rescaled_final/1884_rv.mp4	0.0	358.7380690574646	
81	339.82360196113586	pulse	1	t		79.0	2.5	/experiments/AOT/AOT_stimuli/rescaled_final/1884_rv.mp4	0.0	360.33848690986633	
81	340.33957600593567	fix_post	2		12	79.0	2.5	/experiments/AOT/AOT_stimuli/rescaled_final/1884_rv.mp4	0.0	360.85446095466614	0.10012006759643555
82	340.4396960735321	fix_pre	0		119	80.0	2.5	/experiments/AOT/AOT_stimuli/rescaled_final/1932_fw.mp4	0.0	360.9545810222626	0.9920659065246582
82	341.4235680103302	pulse	0	t		80.0	2.5	/experiments/AOT/AOT_stimuli/rescaled_final/1932_fw.mp4	0.0	361.93845295906067	
82	341.43176198005676	movie	1		249	80.0	2.5	/experiments/AOT/AOT_stimuli/rescaled_final/1932_fw.mp4	0.0	361.94664692878723	2.508181095123291
82	343.0232079029083	pulse	1	t		80.0	2.5	/experiments/AOT/AOT_stimuli/rescaled_final/1932_fw.mp4	0.0	363.5380928516388	
82	343.93994307518005	fix_post	2		12	80.0	2.5	/experiments/AOT/AOT_stimuli/rescaled_final/1932_fw.mp4	0.0	364.4548280239105	0.1001288890838623
83	344.0400719642639	fix_pre	0		120	81.0	2.5	/experiments/AOT/AOT_stimuli/rescaled_final/1897_rv.mp4	0.0	364.5549569129944	1.0000231266021729
83	344.6235420703888	pulse	0	t		81.0	2.5	/experiments/AOT/AOT_stimuli/rescaled_final/1897_rv.mp4	0.0	365.13842701911926	
83	345.0400950908661	movie	1		246	81.0	2.5	/experiments/AOT/AOT_stimuli/rescaled_final/1897_rv.mp4	0.0	365.55498003959656	2.4995548725128174
83	346.2236258983612	pulse	1	t		81.0	2.5	/experiments/AOT/AOT_stimuli/rescaled_final/1897_rv.mp4	0.0	366.7385108470917	
83	347.5396499633789	fix_post	2		12	81.0	2.5	/experiments/AOT/AOT_stimuli/rescaled_final/1897_rv.mp4	0.0	368.0545349121094	0.1003870964050293
84	347.64003705978394	fix_pre	0		120	82.0	2.5	/experiments/AOT/AOT_stimuli/rescaled_final/1893_fw.mp4	0.0	368.1549220085144	1.0000319480895996
84	347.8235549926758	pulse	0	t		82.0	2.5	/experiments/AOT/AOT_stimuli/rescaled_final/1893_fw.mp4	0.0	368.33843994140625	
84	348.64006900787354	movie	1		244	82.0	2.5	/experiments/AOT/AOT_stimuli/rescaled_final/1893_fw.mp4	0.0	369.154953956604	2.4999470710754395
84	349.42348408699036	pulse	1	t		82.0	2.5	/experiments/AOT/AOT_stimuli/rescaled_final/1893_fw.mp4	0.0	369.9383690357208	
84	351.02352595329285	pulse	1	t		82.0	2.5	/experiments/AOT/AOT_stimuli/rescaled_final/1893_fw.mp4	0.0	371.5384109020233	
84	351.140016078949	fix_post	2		12	82.0	2.5	/experiments/AOT/AOT_stimuli/rescaled_final/1893_fw.mp4	0.0	371.65490102767944	0.09960293769836426
85	351.23961901664734	fix_pre	0		120	83.0	2.5	blank	1.0	371.7545039653778	1.0000009536743164
85	352.23961997032166	movie	1		300	83.0	2.5	blank	1.0	372.7545049190521	2.499951124191284
85	352.62349796295166	pulse	1	t		83.0	2.5	blank	1.0	373.13838291168213	
85	354.2233319282532	pulse	1	t		83.0	2.5	blank	1.0	374.73821687698364	
85	354.73957109451294	fix_post	2		12	83.0	2.5	blank	1.0	375.2544560432434	0.1004188060760498
87	354.839989900589	stim	0		1716					375.35487484931946	14.299982070922852
87	355.8235731124878	pulse	0	t						376.33845806121826	
87	357.4234321117401	pulse	0	t						377.9383170604706	
87	359.0235769748688	pulse	0	t						379.53846192359924	
87	360.62352895736694	pulse	0	t						381.1384139060974	
87	362.2229480743408	pulse	0	t						382.7378330230713	
87	363.8236150741577	pulse	0	t						384.3385000228882	
87	365.42343497276306	pulse	0	t						385.93831992149353	
87	367.02338910102844	pulse	0	t						387.5382740497589	
87	368.6233699321747	pulse	0	t						389.13825488090515	
