trial_nr	onset	event_type	phase	response	nr_frames	movie_index	movie_duration	movie_file	blank	onset_abs	duration
0	0.15781688690185547	stim	0		12					28.226054906845093	0.10039591789245605
0	0.2502098083496094	response	0	space						28.318447828292847	
1	0.2582128047943115	stim	0		4612					28.32645082473755	38.4331111907959
1	38.67608189582825	pulse	0	t						66.74431991577148	
1	38.69132399559021	stim	1		1717					66.75956201553345	14.308274984359741
1	40.27482080459595	pulse	1	t						68.34305882453918	
1	41.88318395614624	pulse	1	t						69.95142197608948	
1	43.47561979293823	pulse	1	t						71.54385781288147	
1	45.07561779022217	pulse	1	t						73.1438558101654	
1	46.675657987594604	pulse	1	t						74.74389600753784	
1	48.27563786506653	pulse	1	t						76.34387588500977	
1	49.87559795379639	pulse	1	t						77.94383597373962	
1	51.47551989555359	pulse	1	t						79.54375791549683	
2	52.99959897994995	fix_pre	0		11	0.0	2.5	/experiments/AOT/AOT_stimuli/rescaled_final/0385_fw.mp4	0.0	81.06783699989319	0.09172487258911133
2	53.07555389404297	pulse	0	t		0.0	2.5	/experiments/AOT/AOT_stimuli/rescaled_final/0385_fw.mp4	0.0	81.1437919139862	
2	53.09132385253906	movie	1		242	0.0	2.5	/experiments/AOT/AOT_stimuli/rescaled_final/0385_fw.mp4	0.0	81.1595618724823	2.508270025253296
2	54.683995962142944	pulse	1	t		0.0	2.5	/experiments/AOT/AOT_stimuli/rescaled_final/0385_fw.mp4	0.0	82.75223398208618	
2	55.59959387779236	fix_post	2		12	0.0	2.5	/experiments/AOT/AOT_stimuli/rescaled_final/0385_fw.mp4	0.0	83.6678318977356	0.10001611709594727
3	55.699609994888306	fix_pre	0		120	1.0	2.5	/experiments/AOT/AOT_stimuli/rescaled_final/0689_rv.mp4	0.0	83.76784801483154	1.0000059604644775
3	56.274850845336914	pulse	0	t		1.0	2.5	/experiments/AOT/AOT_stimuli/rescaled_final/0689_rv.mp4	0.0	84.34308886528015	
3	56.69961595535278	movie	1		243	1.0	2.5	/experiments/AOT/AOT_stimuli/rescaled_final/0689_rv.mp4	0.0	84.76785397529602	2.499932050704956
3	57.88323187828064	pulse	1	t		1.0	2.5	/experiments/AOT/AOT_stimuli/rescaled_final/0689_rv.mp4	0.0	85.95146989822388	
3	59.19954800605774	fix_post	2		12	1.0	2.5	/experiments/AOT/AOT_stimuli/rescaled_final/0689_rv.mp4	0.0	87.26778602600098	0.0999748706817627
4	59.2995228767395	fix_pre	0		120	2.0	2.5	/experiments/AOT/AOT_stimuli/rescaled_final/0033_fw.mp4	0.0	87.36776089668274	1.000087022781372
4	59.475663900375366	pulse	0	t		2.0	2.5	/experiments/AOT/AOT_stimuli/rescaled_final/0033_fw.mp4	0.0	87.5439019203186	
4	60.299609899520874	movie	1		247	2.0	2.5	/experiments/AOT/AOT_stimuli/rescaled_final/0033_fw.mp4	0.0	88.36784791946411	2.499953031539917
4	61.075608015060425	pulse	1	t		2.0	2.5	/experiments/AOT/AOT_stimuli/rescaled_final/0033_fw.mp4	0.0	89.14384603500366	
4	62.679168939590454	pulse	1	t		2.0	2.5	/experiments/AOT/AOT_stimuli/rescaled_final/0033_fw.mp4	0.0	90.74740695953369	
4	62.79956293106079	fix_post	2		12	2.0	2.5	/experiments/AOT/AOT_stimuli/rescaled_final/0033_fw.mp4	0.0	90.86780095100403	0.10001707077026367
5	62.899580001831055	fix_pre	0		120	3.0	2.5	/experiments/AOT/AOT_stimuli/rescaled_final/0956_fw.mp4	0.0	90.96781802177429	0.9999949932098389
5	63.899574995040894	movie	1		244	3.0	2.5	/experiments/AOT/AOT_stimuli/rescaled_final/0956_fw.mp4	0.0	91.96781301498413	2.500013828277588
5	64.28244590759277	pulse	1	t		3.0	2.5	/experiments/AOT/AOT_stimuli/rescaled_final/0956_fw.mp4	0.0	92.35068392753601	
5	65.87562894821167	pulse	1	t		3.0	2.5	/experiments/AOT/AOT_stimuli/rescaled_final/0956_fw.mp4	0.0	93.94386696815491	
5	66.39958882331848	fix_post	2		12	3.0	2.5	/experiments/AOT/AOT_stimuli/rescaled_final/0956_fw.mp4	0.0	94.46782684326172	0.09999513626098633
6	66.49958395957947	fix_pre	0		119	4.0	2.5	/experiments/AOT/AOT_stimuli/rescaled_final/1148_rv.mp4	0.0	94.5678219795227	0.9916529655456543
6	67.47544598579407	pulse	0	t		4.0	2.5	/experiments/AOT/AOT_stimuli/rescaled_final/1148_rv.mp4	0.0	95.5436840057373	
6	67.49123692512512	movie	1		246	4.0	2.5	/experiments/AOT/AOT_stimuli/rescaled_final/1148_rv.mp4	0.0	95.55947494506836	2.5083699226379395
6	69.08248782157898	pulse	1	t		4.0	2.5	/experiments/AOT/AOT_stimuli/rescaled_final/1148_rv.mp4	0.0	97.15072584152222	
6	69.99960684776306	fix_post	2		12	4.0	2.5	/experiments/AOT/AOT_stimuli/rescaled_final/1148_rv.mp4	0.0	98.0678448677063	0.09996795654296875
7	70.09957480430603	fix_pre	0		120	5.0	2.5	blank	1.0	98.16781282424927	0.9999210834503174
7	70.67557382583618	pulse	0	t		5.0	2.5	blank	1.0	98.74381184577942	
7	71.09949588775635	movie	1		300	5.0	2.5	blank	1.0	99.16773390769958	2.500044107437134
7	72.27547287940979	pulse	1	t		5.0	2.5	blank	1.0	100.34371089935303	
7	73.59953999519348	fix_post	2		12	5.0	2.5	blank	1.0	101.66777801513672	0.09998297691345215
8	73.69952297210693	fix_pre	0		120	6.0	2.5	/experiments/AOT/AOT_stimuli/rescaled_final/0884_fw.mp4	0.0	101.76776099205017	1.0000238418579102
8	73.8830828666687	pulse	0	t		6.0	2.5	/experiments/AOT/AOT_stimuli/rescaled_final/0884_fw.mp4	0.0	101.95132088661194	
8	74.69954681396484	movie	1		243	6.0	2.5	/experiments/AOT/AOT_stimuli/rescaled_final/0884_fw.mp4	0.0	102.76778483390808	2.4999771118164062
8	75.48302483558655	pulse	1	t		6.0	2.5	/experiments/AOT/AOT_stimuli/rescaled_final/0884_fw.mp4	0.0	103.55126285552979	
8	77.08136200904846	pulse	1	t		6.0	2.5	/experiments/AOT/AOT_stimuli/rescaled_final/0884_fw.mp4	0.0	105.1496000289917	
8	77.19952392578125	fix_post	2		12	6.0	2.5	/experiments/AOT/AOT_stimuli/rescaled_final/0884_fw.mp4	0.0	105.26776194572449	0.0999898910522461
9	77.2995138168335	fix_pre	0		120	7.0	2.5	/experiments/AOT/AOT_stimuli/rescaled_final/1362_fw.mp4	0.0	105.36775183677673	0.9999580383300781
9	78.29947185516357	movie	1		243	7.0	2.5	/experiments/AOT/AOT_stimuli/rescaled_final/1362_fw.mp4	0.0	106.36770987510681	2.500035047531128
9	78.682785987854	pulse	1	t		7.0	2.5	/experiments/AOT/AOT_stimuli/rescaled_final/1362_fw.mp4	0.0	106.75102400779724	
9	80.27578902244568	pulse	1	t		7.0	2.5	/experiments/AOT/AOT_stimuli/rescaled_final/1362_fw.mp4	0.0	108.34402704238892	
9	80.7995069026947	fix_post	2		12	7.0	2.5	/experiments/AOT/AOT_stimuli/rescaled_final/1362_fw.mp4	0.0	108.86774492263794	0.10008001327514648
10	80.89958691596985	fix_pre	0		119	8.0	2.5	/experiments/AOT/AOT_stimuli/rescaled_final/1115_rv.mp4	0.0	108.96782493591309	0.9916079044342041
10	81.87556099891663	pulse	0	t		8.0	2.5	/experiments/AOT/AOT_stimuli/rescaled_final/1115_rv.mp4	0.0	109.94379901885986	
10	81.89119482040405	movie	1		246	8.0	2.5	/experiments/AOT/AOT_stimuli/rescaled_final/1115_rv.mp4	0.0	109.95943284034729	2.5078821182250977
10	83.4844799041748	pulse	1	t		8.0	2.5	/experiments/AOT/AOT_stimuli/rescaled_final/1115_rv.mp4	0.0	111.55271792411804	
10	84.39907693862915	fix_post	2		12	8.0	2.5	/experiments/AOT/AOT_stimuli/rescaled_final/1115_rv.mp4	0.0	112.46731495857239	0.10045504570007324
11	84.49953198432922	fix_pre	0		120	9.0	2.5	/experiments/AOT/AOT_stimuli/rescaled_final/1526_rv.mp4	0.0	112.56777000427246	0.9996278285980225
11	85.07509183883667	pulse	0	t		9.0	2.5	/experiments/AOT/AOT_stimuli/rescaled_final/1526_rv.mp4	0.0	113.14332985877991	
11	85.49915981292725	movie	1		246	9.0	2.5	/experiments/AOT/AOT_stimuli/rescaled_final/1526_rv.mp4	0.0	113.56739783287048	2.4999351501464844
11	86.68279981613159	pulse	1	t		9.0	2.5	/experiments/AOT/AOT_stimuli/rescaled_final/1526_rv.mp4	0.0	114.75103783607483	
11	87.99909496307373	fix_post	2		12	9.0	2.5	/experiments/AOT/AOT_stimuli/rescaled_final/1526_rv.mp4	0.0	116.06733298301697	0.10039591789245605
12	88.09949088096619	fix_pre	0		120	10.0	2.5	/experiments/AOT/AOT_stimuli/rescaled_final/1067_rv.mp4	0.0	116.16772890090942	1.000114917755127
12	88.27543187141418	pulse	0	t		10.0	2.5	/experiments/AOT/AOT_stimuli/rescaled_final/1067_rv.mp4	0.0	116.34366989135742	
12	89.09960579872131	movie	1		246	10.0	2.5	/experiments/AOT/AOT_stimuli/rescaled_final/1067_rv.mp4	0.0	117.16784381866455	2.499890089035034
12	89.88294100761414	pulse	1	t		10.0	2.5	/experiments/AOT/AOT_stimuli/rescaled_final/1067_rv.mp4	0.0	117.95117902755737	
12	91.48134684562683	pulse	1	t		10.0	2.5	/experiments/AOT/AOT_stimuli/rescaled_final/1067_rv.mp4	0.0	119.54958486557007	
12	91.59949588775635	fix_post	2		12	10.0	2.5	/experiments/AOT/AOT_stimuli/rescaled_final/1067_rv.mp4	0.0	119.66773390769958	0.09998512268066406
13	91.69948101043701	fix_pre	0		120	11.0	2.5	/experiments/AOT/AOT_stimuli/rescaled_final/1780_fw.mp4	0.0	119.76771903038025	0.9998829364776611
13	92.69936394691467	movie	1		246	11.0	2.5	/experiments/AOT/AOT_stimuli/rescaled_final/1780_fw.mp4	0.0	120.76760196685791	2.4996378421783447
13	93.08403491973877	pulse	1	t		11.0	2.5	/experiments/AOT/AOT_stimuli/rescaled_final/1780_fw.mp4	0.0	121.152272939682	
13	94.67559099197388	pulse	1	t		11.0	2.5	/experiments/AOT/AOT_stimuli/rescaled_final/1780_fw.mp4	0.0	122.74382901191711	
13	95.19900178909302	fix_post	2		12	11.0	2.5	/experiments/AOT/AOT_stimuli/rescaled_final/1780_fw.mp4	0.0	123.26723980903625	0.10038208961486816
14	95.29938387870789	fix_pre	0		119	12.0	2.5	/experiments/AOT/AOT_stimuli/rescaled_final/0330_fw.mp4	0.0	123.36762189865112	0.9917089939117432
14	96.27540397644043	pulse	0	t		12.0	2.5	/experiments/AOT/AOT_stimuli/rescaled_final/0330_fw.mp4	0.0	124.34364199638367	
14	96.29109287261963	movie	1		245	12.0	2.5	/experiments/AOT/AOT_stimuli/rescaled_final/0330_fw.mp4	0.0	124.35933089256287	2.5083351135253906
14	97.88234400749207	pulse	1	t		12.0	2.5	/experiments/AOT/AOT_stimuli/rescaled_final/0330_fw.mp4	0.0	125.9505820274353	
14	98.79942798614502	fix_post	2		12	12.0	2.5	/experiments/AOT/AOT_stimuli/rescaled_final/0330_fw.mp4	0.0	126.86766600608826	0.10003399848937988
15	98.8994619846344	fix_pre	0		120	13.0	2.5	blank	1.0	126.96770000457764	0.999506950378418
15	99.47533202171326	pulse	0	t		13.0	2.5	blank	1.0	127.5435700416565	
15	99.89896893501282	movie	1		300	13.0	2.5	blank	1.0	127.96720695495605	2.5003578662872314
15	101.07555198669434	pulse	1	t		13.0	2.5	blank	1.0	129.14379000663757	
15	102.39932680130005	fix_post	2		12	13.0	2.5	blank	1.0	130.4675648212433	0.10004115104675293
16	102.4993679523468	fix_pre	0		120	14.0	2.5	/experiments/AOT/AOT_stimuli/rescaled_final/1118_rv.mp4	0.0	130.56760597229004	0.9999599456787109
16	102.67549395561218	pulse	0	t		14.0	2.5	/experiments/AOT/AOT_stimuli/rescaled_final/1118_rv.mp4	0.0	130.74373197555542	
16	103.49932789802551	movie	1		244	14.0	2.5	/experiments/AOT/AOT_stimuli/rescaled_final/1118_rv.mp4	0.0	131.56756591796875	2.500133991241455
16	104.27548384666443	pulse	1	t		14.0	2.5	/experiments/AOT/AOT_stimuli/rescaled_final/1118_rv.mp4	0.0	132.34372186660767	
16	105.88123393058777	pulse	1	t		14.0	2.5	/experiments/AOT/AOT_stimuli/rescaled_final/1118_rv.mp4	0.0	133.949471950531	
16	105.99946188926697	fix_post	2		12	14.0	2.5	/experiments/AOT/AOT_stimuli/rescaled_final/1118_rv.mp4	0.0	134.0676999092102	0.09996509552001953
17	106.09942698478699	fix_pre	0		120	15.0	2.5	/experiments/AOT/AOT_stimuli/rescaled_final/0943_fw.mp4	0.0	134.16766500473022	1.0000529289245605
17	107.09947991371155	movie	1		245	15.0	2.5	/experiments/AOT/AOT_stimuli/rescaled_final/0943_fw.mp4	0.0	135.16771793365479	2.4999289512634277
17	107.4823808670044	pulse	1	t		15.0	2.5	/experiments/AOT/AOT_stimuli/rescaled_final/0943_fw.mp4	0.0	135.55061888694763	
17	109.08280181884766	pulse	1	t		15.0	2.5	/experiments/AOT/AOT_stimuli/rescaled_final/0943_fw.mp4	0.0	137.1510398387909	
17	109.59940886497498	fix_post	2		12	15.0	2.5	/experiments/AOT/AOT_stimuli/rescaled_final/0943_fw.mp4	0.0	137.6676468849182	0.0999460220336914
18	109.69935488700867	fix_pre	0		119	16.0	2.5	/experiments/AOT/AOT_stimuli/rescaled_final/1711_rv.mp4	0.0	137.7675929069519	0.9916379451751709
18	110.68284392356873	pulse	0	t		16.0	2.5	/experiments/AOT/AOT_stimuli/rescaled_final/1711_rv.mp4	0.0	138.75108194351196	
18	110.69099283218384	movie	1		247	16.0	2.5	/experiments/AOT/AOT_stimuli/rescaled_final/1711_rv.mp4	0.0	138.75923085212708	2.508336067199707
18	112.28282499313354	pulse	1	t		16.0	2.5	/experiments/AOT/AOT_stimuli/rescaled_final/1711_rv.mp4	0.0	140.35106301307678	
18	113.19932889938354	fix_post	2		12	16.0	2.5	/experiments/AOT/AOT_stimuli/rescaled_final/1711_rv.mp4	0.0	141.26756691932678	0.10008597373962402
19	113.29941487312317	fix_pre	0		120	17.0	2.5	/experiments/AOT/AOT_stimuli/rescaled_final/0341_fw.mp4	0.0	141.3676528930664	0.9999301433563232
19	113.87531280517578	pulse	0	t		17.0	2.5	/experiments/AOT/AOT_stimuli/rescaled_final/0341_fw.mp4	0.0	141.94355082511902	
19	114.29934501647949	movie	1		248	17.0	2.5	/experiments/AOT/AOT_stimuli/rescaled_final/0341_fw.mp4	0.0	142.36758303642273	2.4999349117279053
19	115.48290181159973	pulse	1	t		17.0	2.5	/experiments/AOT/AOT_stimuli/rescaled_final/0341_fw.mp4	0.0	143.55113983154297	
19	116.7992799282074	fix_post	2		12	17.0	2.5	/experiments/AOT/AOT_stimuli/rescaled_final/0341_fw.mp4	0.0	144.86751794815063	0.09996795654296875
20	116.89924788475037	fix_pre	0		120	18.0	2.5	/experiments/AOT/AOT_stimuli/rescaled_final/1872_rv.mp4	0.0	144.9674859046936	1.0001471042633057
20	117.07537198066711	pulse	0	t		18.0	2.5	/experiments/AOT/AOT_stimuli/rescaled_final/1872_rv.mp4	0.0	145.14361000061035	
20	117.89939498901367	movie	1		243	18.0	2.5	/experiments/AOT/AOT_stimuli/rescaled_final/1872_rv.mp4	0.0	145.9676330089569	2.499858856201172
20	118.67536282539368	pulse	1	t		18.0	2.5	/experiments/AOT/AOT_stimuli/rescaled_final/1872_rv.mp4	0.0	146.7436008453369	
20	120.28119397163391	pulse	1	t		18.0	2.5	/experiments/AOT/AOT_stimuli/rescaled_final/1872_rv.mp4	0.0	148.34943199157715	
20	120.39925384521484	fix_post	2		12	18.0	2.5	/experiments/AOT/AOT_stimuli/rescaled_final/1872_rv.mp4	0.0	148.46749186515808	0.10018110275268555
21	120.49943494796753	fix_pre	0		120	19.0	2.5	/experiments/AOT/AOT_stimuli/rescaled_final/1493_rv.mp4	0.0	148.56767296791077	0.9998519420623779
21	121.49928689002991	movie	1		244	19.0	2.5	/experiments/AOT/AOT_stimuli/rescaled_final/1493_rv.mp4	0.0	149.56752490997314	2.4996249675750732
21	121.88306498527527	pulse	1	t		19.0	2.5	/experiments/AOT/AOT_stimuli/rescaled_final/1493_rv.mp4	0.0	149.9513030052185	
21	123.48279786109924	pulse	1	t		19.0	2.5	/experiments/AOT/AOT_stimuli/rescaled_final/1493_rv.mp4	0.0	151.55103588104248	
21	123.99891185760498	fix_post	2		12	19.0	2.5	/experiments/AOT/AOT_stimuli/rescaled_final/1493_rv.mp4	0.0	152.06714987754822	0.10044407844543457
22	124.09935593605042	fix_pre	0		119	20.0	2.5	blank	1.0	152.16759395599365	0.991628885269165
22	125.08286094665527	pulse	0	t		20.0	2.5	blank	1.0	153.1510989665985	
22	125.09098482131958	movie	1		301	20.0	2.5	blank	1.0	153.15922284126282	2.5083470344543457
22	126.68287181854248	pulse	1	t		20.0	2.5	blank	1.0	154.75110983848572	
22	127.59933185577393	fix_post	2		12	20.0	2.5	blank	1.0	155.66756987571716	0.09995007514953613
23	127.69928193092346	fix_pre	0		120	21.0	2.5	/experiments/AOT/AOT_stimuli/rescaled_final/0635_rv.mp4	0.0	155.7675199508667	0.9999570846557617
23	128.28287291526794	pulse	0	t		21.0	2.5	/experiments/AOT/AOT_stimuli/rescaled_final/0635_rv.mp4	0.0	156.35111093521118	
23	128.69923901557922	movie	1		243	21.0	2.5	/experiments/AOT/AOT_stimuli/rescaled_final/0635_rv.mp4	0.0	156.76747703552246	2.500020980834961
23	129.882905960083	pulse	1	t		21.0	2.5	/experiments/AOT/AOT_stimuli/rescaled_final/0635_rv.mp4	0.0	157.95114398002625	
23	131.19925999641418	fix_post	2		12	21.0	2.5	/experiments/AOT/AOT_stimuli/rescaled_final/0635_rv.mp4	0.0	159.26749801635742	0.10001182556152344
24	131.2992718219757	fix_pre	0		120	22.0	2.5	/experiments/AOT/AOT_stimuli/rescaled_final/0356_rv.mp4	0.0	159.36750984191895	0.9995501041412354
24	131.4828269481659	pulse	0	t		22.0	2.5	/experiments/AOT/AOT_stimuli/rescaled_final/0356_rv.mp4	0.0	159.55106496810913	
24	132.29882192611694	movie	1		243	22.0	2.5	/experiments/AOT/AOT_stimuli/rescaled_final/0356_rv.mp4	0.0	160.36705994606018	2.5004799365997314
24	133.07536101341248	pulse	1	t		22.0	2.5	/experiments/AOT/AOT_stimuli/rescaled_final/0356_rv.mp4	0.0	161.1435990333557	
24	134.68121695518494	pulse	1	t		22.0	2.5	/experiments/AOT/AOT_stimuli/rescaled_final/0356_rv.mp4	0.0	162.74945497512817	
24	134.79930186271667	fix_post	2		12	22.0	2.5	/experiments/AOT/AOT_stimuli/rescaled_final/0356_rv.mp4	0.0	162.8675398826599	0.09999299049377441
25	134.89929485321045	fix_pre	0		120	23.0	2.5	/experiments/AOT/AOT_stimuli/rescaled_final/0418_rv.mp4	0.0	162.9675328731537	0.9999561309814453
25	135.8992509841919	movie	1		244	23.0	2.5	/experiments/AOT/AOT_stimuli/rescaled_final/0418_rv.mp4	0.0	163.96748900413513	2.500135898590088
25	136.28254079818726	pulse	1	t		23.0	2.5	/experiments/AOT/AOT_stimuli/rescaled_final/0418_rv.mp4	0.0	164.3507788181305	
25	137.882807970047	pulse	1	t		23.0	2.5	/experiments/AOT/AOT_stimuli/rescaled_final/0418_rv.mp4	0.0	165.95104598999023	
25	138.39938688278198	fix_post	2		12	23.0	2.5	/experiments/AOT/AOT_stimuli/rescaled_final/0418_rv.mp4	0.0	166.46762490272522	0.09987902641296387
26	138.49926590919495	fix_pre	0		119	24.0	2.5	/experiments/AOT/AOT_stimuli/rescaled_final/0305_rv.mp4	0.0	166.56750392913818	0.9916210174560547
26	139.48277688026428	pulse	0	t		24.0	2.5	/experiments/AOT/AOT_stimuli/rescaled_final/0305_rv.mp4	0.0	167.55101490020752	
26	139.490886926651	movie	1		245	24.0	2.5	/experiments/AOT/AOT_stimuli/rescaled_final/0305_rv.mp4	0.0	167.55912494659424	2.5080320835113525
26	141.08187699317932	pulse	1	t		24.0	2.5	/experiments/AOT/AOT_stimuli/rescaled_final/0305_rv.mp4	0.0	169.15011501312256	
26	141.99891901016235	fix_post	2		12	24.0	2.5	/experiments/AOT/AOT_stimuli/rescaled_final/0305_rv.mp4	0.0	170.0671570301056	0.10008883476257324
27	142.09900784492493	fix_pre	0		120	25.0	2.5	/experiments/AOT/AOT_stimuli/rescaled_final/1636_fw.mp4	0.0	170.16724586486816	1.0005161762237549
27	142.68253183364868	pulse	0	t		25.0	2.5	/experiments/AOT/AOT_stimuli/rescaled_final/1636_fw.mp4	0.0	170.75076985359192	
27	143.09952402114868	movie	1		246	25.0	2.5	/experiments/AOT/AOT_stimuli/rescaled_final/1636_fw.mp4	0.0	171.16776204109192	2.4992239475250244
27	144.28277897834778	pulse	1	t		25.0	2.5	/experiments/AOT/AOT_stimuli/rescaled_final/1636_fw.mp4	0.0	172.35101699829102	
27	145.5987479686737	fix_post	2		12	25.0	2.5	/experiments/AOT/AOT_stimuli/rescaled_final/1636_fw.mp4	0.0	173.66698598861694	0.10046005249023438
28	145.69920802116394	fix_pre	0		120	26.0	2.5	blank	1.0	173.76744604110718	1.0000689029693604
28	145.88274097442627	pulse	0	t		26.0	2.5	blank	1.0	173.9509789943695	
28	146.6992769241333	movie	1		300	26.0	2.5	blank	1.0	174.76751494407654	2.499864101409912
28	147.48276281356812	pulse	1	t		26.0	2.5	blank	1.0	175.55100083351135	
28	149.0825560092926	pulse	1	t		26.0	2.5	blank	1.0	177.15079402923584	
28	149.1991410255432	fix_post	2		12	26.0	2.5	blank	1.0	177.26737904548645	0.09996986389160156
29	149.29911088943481	fix_pre	0		120	27.0	2.5	/experiments/AOT/AOT_stimuli/rescaled_final/0368_rv.mp4	0.0	177.36734890937805	1.0000951290130615
29	150.29920601844788	movie	1		246	27.0	2.5	/experiments/AOT/AOT_stimuli/rescaled_final/0368_rv.mp4	0.0	178.3674440383911	2.4995579719543457
29	150.68253898620605	pulse	1	t		27.0	2.5	/experiments/AOT/AOT_stimuli/rescaled_final/0368_rv.mp4	0.0	178.7507770061493	
29	152.2753210067749	pulse	1	t		27.0	2.5	/experiments/AOT/AOT_stimuli/rescaled_final/0368_rv.mp4	0.0	180.34355902671814	
29	152.79876399040222	fix_post	2		12	27.0	2.5	/experiments/AOT/AOT_stimuli/rescaled_final/0368_rv.mp4	0.0	180.86700201034546	0.10034799575805664
30	152.89911198616028	fix_pre	0		119	28.0	2.5	/experiments/AOT/AOT_stimuli/rescaled_final/0767_rv.mp4	0.0	180.96735000610352	0.991757869720459
30	153.88261699676514	pulse	0	t		28.0	2.5	/experiments/AOT/AOT_stimuli/rescaled_final/0767_rv.mp4	0.0	181.95085501670837	
30	153.89086985588074	movie	1		248	28.0	2.5	/experiments/AOT/AOT_stimuli/rescaled_final/0767_rv.mp4	0.0	181.95910787582397	2.5083911418914795
30	155.48214483261108	pulse	1	t		28.0	2.5	/experiments/AOT/AOT_stimuli/rescaled_final/0767_rv.mp4	0.0	183.55038285255432	
30	156.39926099777222	fix_post	2		12	28.0	2.5	/experiments/AOT/AOT_stimuli/rescaled_final/0767_rv.mp4	0.0	184.46749901771545	0.0998690128326416
31	156.49913001060486	fix_pre	0		120	29.0	2.5	/experiments/AOT/AOT_stimuli/rescaled_final/0873_fw.mp4	0.0	184.5673680305481	1.0000088214874268
31	157.0826199054718	pulse	0	t		29.0	2.5	/experiments/AOT/AOT_stimuli/rescaled_final/0873_fw.mp4	0.0	185.15085792541504	
31	157.49913883209229	movie	1		244	29.0	2.5	/experiments/AOT/AOT_stimuli/rescaled_final/0873_fw.mp4	0.0	185.56737685203552	2.4999639987945557
31	158.68269395828247	pulse	1	t		29.0	2.5	/experiments/AOT/AOT_stimuli/rescaled_final/0873_fw.mp4	0.0	186.7509319782257	
31	159.99910283088684	fix_post	2		12	29.0	2.5	/experiments/AOT/AOT_stimuli/rescaled_final/0873_fw.mp4	0.0	188.06734085083008	0.10000896453857422
32	160.09911179542542	fix_pre	0		120	30.0	2.5	/experiments/AOT/AOT_stimuli/rescaled_final/0143_rv.mp4	0.0	188.16734981536865	1.000040054321289
32	160.2826178073883	pulse	0	t		30.0	2.5	/experiments/AOT/AOT_stimuli/rescaled_final/0143_rv.mp4	0.0	188.35085582733154	
32	161.0991518497467	movie	1		245	30.0	2.5	/experiments/AOT/AOT_stimuli/rescaled_final/0143_rv.mp4	0.0	189.16738986968994	2.499969959259033
32	161.88267397880554	pulse	1	t		30.0	2.5	/experiments/AOT/AOT_stimuli/rescaled_final/0143_rv.mp4	0.0	189.95091199874878	
32	163.48140597343445	pulse	1	t		30.0	2.5	/experiments/AOT/AOT_stimuli/rescaled_final/0143_rv.mp4	0.0	191.54964399337769	
32	163.59912180900574	fix_post	2		12	30.0	2.5	/experiments/AOT/AOT_stimuli/rescaled_final/0143_rv.mp4	0.0	191.66735982894897	0.09991121292114258
33	163.69903302192688	fix_pre	0		120	31.0	2.5	/experiments/AOT/AOT_stimuli/rescaled_final/2059_rv.mp4	0.0	191.76727104187012	1.0000407695770264
33	164.6990737915039	movie	1		245	31.0	2.5	/experiments/AOT/AOT_stimuli/rescaled_final/2059_rv.mp4	0.0	192.76731181144714	2.499591112136841
33	165.08308601379395	pulse	1	t		31.0	2.5	/experiments/AOT/AOT_stimuli/rescaled_final/2059_rv.mp4	0.0	193.15132403373718	
33	166.67543387413025	pulse	1	t		31.0	2.5	/experiments/AOT/AOT_stimuli/rescaled_final/2059_rv.mp4	0.0	194.7436718940735	
33	167.19866490364075	fix_post	2		12	31.0	2.5	/experiments/AOT/AOT_stimuli/rescaled_final/2059_rv.mp4	0.0	195.26690292358398	0.10046195983886719
34	167.29912686347961	fix_pre	0		119	32.0	2.5	/experiments/AOT/AOT_stimuli/rescaled_final/2121_fw.mp4	0.0	195.36736488342285	0.9915721416473389
34	168.27515292167664	pulse	0	t		32.0	2.5	/experiments/AOT/AOT_stimuli/rescaled_final/2121_fw.mp4	0.0	196.34339094161987	
34	168.29069900512695	movie	1		244	32.0	2.5	/experiments/AOT/AOT_stimuli/rescaled_final/2121_fw.mp4	0.0	196.3589370250702	2.508330821990967
34	169.8827679157257	pulse	1	t		32.0	2.5	/experiments/AOT/AOT_stimuli/rescaled_final/2121_fw.mp4	0.0	197.95100593566895	
34	170.79902982711792	fix_post	2		12	32.0	2.5	/experiments/AOT/AOT_stimuli/rescaled_final/2121_fw.mp4	0.0	198.86726784706116	0.10007715225219727
35	170.89910697937012	fix_pre	0		120	33.0	2.5	/experiments/AOT/AOT_stimuli/rescaled_final/0082_rv.mp4	0.0	198.96734499931335	1.000087022781372
35	171.48265194892883	pulse	0	t		33.0	2.5	/experiments/AOT/AOT_stimuli/rescaled_final/0082_rv.mp4	0.0	199.55088996887207	
35	171.8991940021515	movie	1		243	33.0	2.5	/experiments/AOT/AOT_stimuli/rescaled_final/0082_rv.mp4	0.0	199.96743202209473	2.4998559951782227
35	173.0826599597931	pulse	1	t		33.0	2.5	/experiments/AOT/AOT_stimuli/rescaled_final/0082_rv.mp4	0.0	201.15089797973633	
35	174.3990499973297	fix_post	2		12	33.0	2.5	/experiments/AOT/AOT_stimuli/rescaled_final/0082_rv.mp4	0.0	202.46728801727295	0.09997701644897461
36	174.4990270137787	fix_pre	0		120	34.0	2.5	blank	1.0	202.56726503372192	0.9999837875366211
36	174.68258786201477	pulse	0	t		34.0	2.5	blank	1.0	202.750825881958	
36	175.4990108013153	movie	1		300	34.0	2.5	blank	1.0	203.56724882125854	2.5000250339508057
36	176.2825939655304	pulse	1	t		34.0	2.5	blank	1.0	204.35083198547363	
36	177.88257884979248	pulse	1	t		34.0	2.5	blank	1.0	205.95081686973572	
36	177.9990358352661	fix_post	2		12	34.0	2.5	blank	1.0	206.06727385520935	0.10003113746643066
37	178.09906697273254	fix_pre	0		120	35.0	2.5	/experiments/AOT/AOT_stimuli/rescaled_final/0021_rv.mp4	0.0	206.16730499267578	1.0000278949737549
37	179.0990948677063	movie	1		244	35.0	2.5	/experiments/AOT/AOT_stimuli/rescaled_final/0021_rv.mp4	0.0	207.16733288764954	2.4994900226593018
37	179.48210883140564	pulse	1	t		35.0	2.5	/experiments/AOT/AOT_stimuli/rescaled_final/0021_rv.mp4	0.0	207.55034685134888	
37	181.08254480361938	pulse	1	t		35.0	2.5	/experiments/AOT/AOT_stimuli/rescaled_final/0021_rv.mp4	0.0	209.15078282356262	
37	181.5985848903656	fix_post	2		12	35.0	2.5	/experiments/AOT/AOT_stimuli/rescaled_final/0021_rv.mp4	0.0	209.66682291030884	0.10038590431213379
38	181.69897079467773	fix_pre	0		119	36.0	2.5	/experiments/AOT/AOT_stimuli/rescaled_final/1462_fw.mp4	0.0	209.76720881462097	0.9916820526123047
38	182.6825568675995	pulse	0	t		36.0	2.5	/experiments/AOT/AOT_stimuli/rescaled_final/1462_fw.mp4	0.0	210.75079488754272	
38	182.69065284729004	movie	1		248	36.0	2.5	/experiments/AOT/AOT_stimuli/rescaled_final/1462_fw.mp4	0.0	210.75889086723328	2.508416175842285
38	184.28188180923462	pulse	1	t		36.0	2.5	/experiments/AOT/AOT_stimuli/rescaled_final/1462_fw.mp4	0.0	212.35011982917786	
38	185.19906902313232	fix_post	2		12	36.0	2.5	/experiments/AOT/AOT_stimuli/rescaled_final/1462_fw.mp4	0.0	213.26730704307556	0.09990096092224121
39	185.29896998405457	fix_pre	0		120	37.0	2.5	/experiments/AOT/AOT_stimuli/rescaled_final/1484_fw.mp4	0.0	213.3672080039978	1.0000169277191162
39	185.88247179985046	pulse	0	t		37.0	2.5	/experiments/AOT/AOT_stimuli/rescaled_final/1484_fw.mp4	0.0	213.9507098197937	
39	186.29898691177368	movie	1		243	37.0	2.5	/experiments/AOT/AOT_stimuli/rescaled_final/1484_fw.mp4	0.0	214.36722493171692	2.500019073486328
39	187.48259091377258	pulse	1	t		37.0	2.5	/experiments/AOT/AOT_stimuli/rescaled_final/1484_fw.mp4	0.0	215.55082893371582	
39	188.79900598526	fix_post	2		12	37.0	2.5	/experiments/AOT/AOT_stimuli/rescaled_final/1484_fw.mp4	0.0	216.86724400520325	0.10004591941833496
40	188.89905190467834	fix_pre	0		120	38.0	2.5	/experiments/AOT/AOT_stimuli/rescaled_final/0285_rv.mp4	0.0	216.96728992462158	0.9999799728393555
40	189.08251190185547	pulse	0	t		38.0	2.5	/experiments/AOT/AOT_stimuli/rescaled_final/0285_rv.mp4	0.0	217.1507499217987	
40	189.8990318775177	movie	1		243	38.0	2.5	/experiments/AOT/AOT_stimuli/rescaled_final/0285_rv.mp4	0.0	217.96726989746094	2.4999840259552
40	190.68252682685852	pulse	1	t		38.0	2.5	/experiments/AOT/AOT_stimuli/rescaled_final/0285_rv.mp4	0.0	218.75076484680176	
40	192.28095197677612	pulse	1	t		38.0	2.5	/experiments/AOT/AOT_stimuli/rescaled_final/0285_rv.mp4	0.0	220.34918999671936	
40	192.3990159034729	fix_post	2		12	38.0	2.5	/experiments/AOT/AOT_stimuli/rescaled_final/0285_rv.mp4	0.0	220.46725392341614	0.09993791580200195
41	192.4989538192749	fix_pre	0		120	39.0	2.5	/experiments/AOT/AOT_stimuli/rescaled_final/1622_rv.mp4	0.0	220.56719183921814	0.9996111392974854
41	193.4985649585724	movie	1		245	39.0	2.5	/experiments/AOT/AOT_stimuli/rescaled_final/1622_rv.mp4	0.0	221.56680297851562	2.5004348754882812
41	193.88210582733154	pulse	1	t		39.0	2.5	/experiments/AOT/AOT_stimuli/rescaled_final/1622_rv.mp4	0.0	221.95034384727478	
41	195.48241186141968	pulse	1	t		39.0	2.5	/experiments/AOT/AOT_stimuli/rescaled_final/1622_rv.mp4	0.0	223.55064988136292	
41	195.99899983406067	fix_post	2		12	39.0	2.5	/experiments/AOT/AOT_stimuli/rescaled_final/1622_rv.mp4	0.0	224.0672378540039	0.09956598281860352
42	196.09856581687927	fix_pre	0		119	40.0	2.5	blank	1.0	224.1668038368225	0.9921040534973145
42	197.08211493492126	pulse	0	t		40.0	2.5	blank	1.0	225.1503529548645	
42	197.0906698703766	movie	1		301	40.0	2.5	blank	1.0	225.15890789031982	2.508302927017212
42	198.67518782615662	pulse	1	t		40.0	2.5	blank	1.0	226.74342584609985	
42	199.5989727973938	fix_post	2		12	40.0	2.5	blank	1.0	227.66721081733704	0.100006103515625
43	199.69897890090942	fix_pre	0		120	41.0	2.5	/experiments/AOT/AOT_stimuli/rescaled_final/1041_fw.mp4	0.0	227.76721692085266	1.0000169277191162
43	200.28249502182007	pulse	0	t		41.0	2.5	/experiments/AOT/AOT_stimuli/rescaled_final/1041_fw.mp4	0.0	228.3507330417633	
43	200.69899582862854	movie	1		246	41.0	2.5	/experiments/AOT/AOT_stimuli/rescaled_final/1041_fw.mp4	0.0	228.76723384857178	2.499577045440674
43	201.88250184059143	pulse	1	t		41.0	2.5	/experiments/AOT/AOT_stimuli/rescaled_final/1041_fw.mp4	0.0	229.95073986053467	
43	203.1985728740692	fix_post	2		12	41.0	2.5	/experiments/AOT/AOT_stimuli/rescaled_final/1041_fw.mp4	0.0	231.26681089401245	0.1003570556640625
44	203.29892992973328	fix_pre	0		120	42.0	2.5	/experiments/AOT/AOT_stimuli/rescaled_final/1380_rv.mp4	0.0	231.3671679496765	1.0000059604644775
44	203.48252701759338	pulse	0	t		42.0	2.5	/experiments/AOT/AOT_stimuli/rescaled_final/1380_rv.mp4	0.0	231.55076503753662	
44	204.29893589019775	movie	1		244	42.0	2.5	/experiments/AOT/AOT_stimuli/rescaled_final/1380_rv.mp4	0.0	232.367173910141	2.499936103820801
44	205.08240699768066	pulse	1	t		42.0	2.5	/experiments/AOT/AOT_stimuli/rescaled_final/1380_rv.mp4	0.0	233.1506450176239	
44	206.68058586120605	pulse	1	t		42.0	2.5	/experiments/AOT/AOT_stimuli/rescaled_final/1380_rv.mp4	0.0	234.7488238811493	
44	206.79887199401855	fix_post	2		12	42.0	2.5	/experiments/AOT/AOT_stimuli/rescaled_final/1380_rv.mp4	0.0	234.8671100139618	0.099639892578125
45	206.89851188659668	fix_pre	0		120	43.0	2.5	/experiments/AOT/AOT_stimuli/rescaled_final/1335_fw.mp4	0.0	234.96674990653992	1.000373125076294
45	207.89888501167297	movie	1		243	43.0	2.5	/experiments/AOT/AOT_stimuli/rescaled_final/1335_fw.mp4	0.0	235.9671230316162	2.500002861022949
45	208.2820439338684	pulse	1	t		43.0	2.5	/experiments/AOT/AOT_stimuli/rescaled_final/1335_fw.mp4	0.0	236.35028195381165	
45	209.88231992721558	pulse	1	t		43.0	2.5	/experiments/AOT/AOT_stimuli/rescaled_final/1335_fw.mp4	0.0	237.9505579471588	
45	210.39888787269592	fix_post	2		12	43.0	2.5	/experiments/AOT/AOT_stimuli/rescaled_final/1335_fw.mp4	0.0	238.46712589263916	0.09998607635498047
46	210.4988739490509	fix_pre	0		119	44.0	2.5	/experiments/AOT/AOT_stimuli/rescaled_final/1194_rv.mp4	0.0	238.56711196899414	0.9916598796844482
46	211.48237586021423	pulse	0	t		44.0	2.5	/experiments/AOT/AOT_stimuli/rescaled_final/1194_rv.mp4	0.0	239.55061388015747	
46	211.49053382873535	movie	1		248	44.0	2.5	/experiments/AOT/AOT_stimuli/rescaled_final/1194_rv.mp4	0.0	239.5587718486786	2.5083460807800293
46	213.08187699317932	pulse	1	t		44.0	2.5	/experiments/AOT/AOT_stimuli/rescaled_final/1194_rv.mp4	0.0	241.15011501312256	
46	213.99887990951538	fix_post	2		12	44.0	2.5	/experiments/AOT/AOT_stimuli/rescaled_final/1194_rv.mp4	0.0	242.06711792945862	0.09999990463256836
47	214.09887981414795	fix_pre	0		120	45.0	2.5	/experiments/AOT/AOT_stimuli/rescaled_final/1557_rv.mp4	0.0	242.1671178340912	1.0000500679016113
47	214.68237590789795	pulse	0	t		45.0	2.5	/experiments/AOT/AOT_stimuli/rescaled_final/1557_rv.mp4	0.0	242.7506139278412	
47	215.09892988204956	movie	1		244	45.0	2.5	/experiments/AOT/AOT_stimuli/rescaled_final/1557_rv.mp4	0.0	243.1671679019928	2.4999990463256836
47	216.27527284622192	pulse	1	t		45.0	2.5	/experiments/AOT/AOT_stimuli/rescaled_final/1557_rv.mp4	0.0	244.34351086616516	
47	217.59892892837524	fix_post	2		12	45.0	2.5	/experiments/AOT/AOT_stimuli/rescaled_final/1557_rv.mp4	0.0	245.66716694831848	0.09994387626647949
48	217.69887280464172	fix_pre	0		120	46.0	2.5	/experiments/AOT/AOT_stimuli/rescaled_final/0385_rv.mp4	0.0	245.76711082458496	0.9995369911193848
48	217.88233280181885	pulse	0	t		46.0	2.5	/experiments/AOT/AOT_stimuli/rescaled_final/0385_rv.mp4	0.0	245.95057082176208	
48	218.6984097957611	movie	1		246	46.0	2.5	/experiments/AOT/AOT_stimuli/rescaled_final/0385_rv.mp4	0.0	246.76664781570435	2.5004751682281494
48	219.4823248386383	pulse	1	t		46.0	2.5	/experiments/AOT/AOT_stimuli/rescaled_final/0385_rv.mp4	0.0	247.55056285858154	
48	221.08089995384216	pulse	1	t		46.0	2.5	/experiments/AOT/AOT_stimuli/rescaled_final/0385_rv.mp4	0.0	249.1491379737854	
48	221.19888496398926	fix_post	2		12	46.0	2.5	/experiments/AOT/AOT_stimuli/rescaled_final/0385_rv.mp4	0.0	249.2671229839325	0.09989094734191895
49	221.29877591133118	fix_pre	0		120	47.0	2.5	blank	1.0	249.3670139312744	1.0001180171966553
49	222.29889392852783	movie	1		300	47.0	2.5	blank	1.0	250.36713194847107	2.5000360012054443
49	222.6823389530182	pulse	1	t		47.0	2.5	blank	1.0	250.75057697296143	
49	224.28230690956116	pulse	1	t		47.0	2.5	blank	1.0	252.3505449295044	
49	224.79892992973328	fix_post	2		12	47.0	2.5	blank	1.0	252.8671679496765	0.09985208511352539
50	224.8987820148468	fix_pre	0		119	48.0	2.5	/experiments/AOT/AOT_stimuli/rescaled_final/1484_fw.mp4	0.0	252.96702003479004	0.9917018413543701
50	225.88237595558167	pulse	0	t		48.0	2.5	/experiments/AOT/AOT_stimuli/rescaled_final/1484_fw.mp4	0.0	253.9506139755249	
50	225.89048385620117	movie	1		244	48.0	2.5	/experiments/AOT/AOT_stimuli/rescaled_final/1484_fw.mp4	0.0	253.9587218761444	2.508397102355957
50	227.48174285888672	pulse	1	t		48.0	2.5	/experiments/AOT/AOT_stimuli/rescaled_final/1484_fw.mp4	0.0	255.54998087882996	
50	228.39888095855713	fix_post	2		12	48.0	2.5	/experiments/AOT/AOT_stimuli/rescaled_final/1484_fw.mp4	0.0	256.46711897850037	0.09995603561401367
51	228.49883699417114	fix_pre	0		120	49.0	2.5	/experiments/AOT/AOT_stimuli/rescaled_final/0993_fw.mp4	0.0	256.5670750141144	0.9999768733978271
51	229.0822048187256	pulse	0	t		49.0	2.5	/experiments/AOT/AOT_stimuli/rescaled_final/0993_fw.mp4	0.0	257.1504428386688	
51	229.49881386756897	movie	1		243	49.0	2.5	/experiments/AOT/AOT_stimuli/rescaled_final/0993_fw.mp4	0.0	257.5670518875122	2.5000181198120117
51	230.68236780166626	pulse	1	t		49.0	2.5	/experiments/AOT/AOT_stimuli/rescaled_final/0993_fw.mp4	0.0	258.7506058216095	
51	231.99883198738098	fix_post	2		12	49.0	2.5	/experiments/AOT/AOT_stimuli/rescaled_final/0993_fw.mp4	0.0	260.0670700073242	0.09994196891784668
52	232.09877395629883	fix_pre	0		120	50.0	2.5	/experiments/AOT/AOT_stimuli/rescaled_final/0414_fw.mp4	0.0	260.16701197624207	0.9999499320983887
52	232.28246593475342	pulse	0	t		50.0	2.5	/experiments/AOT/AOT_stimuli/rescaled_final/0414_fw.mp4	0.0	260.35070395469666	
52	233.09872388839722	movie	1		242	50.0	2.5	/experiments/AOT/AOT_stimuli/rescaled_final/0414_fw.mp4	0.0	261.16696190834045	2.5000369548797607
52	233.88234090805054	pulse	1	t		50.0	2.5	/experiments/AOT/AOT_stimuli/rescaled_final/0414_fw.mp4	0.0	261.9505789279938	
52	235.48051691055298	pulse	1	t		50.0	2.5	/experiments/AOT/AOT_stimuli/rescaled_final/0414_fw.mp4	0.0	263.5487549304962	
52	235.59876084327698	fix_post	2		12	50.0	2.5	/experiments/AOT/AOT_stimuli/rescaled_final/0414_fw.mp4	0.0	263.6669988632202	0.1000511646270752
53	235.69881200790405	fix_pre	0		120	51.0	2.5	/experiments/AOT/AOT_stimuli/rescaled_final/1240_fw.mp4	0.0	263.7670500278473	0.9999659061431885
53	236.69877791404724	movie	1		245	51.0	2.5	/experiments/AOT/AOT_stimuli/rescaled_final/1240_fw.mp4	0.0	264.7670159339905	2.500058889389038
53	237.08257699012756	pulse	1	t		51.0	2.5	/experiments/AOT/AOT_stimuli/rescaled_final/1240_fw.mp4	0.0	265.1508150100708	
53	238.68237781524658	pulse	1	t		51.0	2.5	/experiments/AOT/AOT_stimuli/rescaled_final/1240_fw.mp4	0.0	266.7506158351898	
53	239.19883680343628	fix_post	2		12	51.0	2.5	/experiments/AOT/AOT_stimuli/rescaled_final/1240_fw.mp4	0.0	267.2670748233795	0.09998202323913574
54	239.29881882667542	fix_pre	0		119	52.0	2.5	/experiments/AOT/AOT_stimuli/rescaled_final/1041_fw.mp4	0.0	267.36705684661865	0.9916341304779053
54	240.28219985961914	pulse	0	t		52.0	2.5	/experiments/AOT/AOT_stimuli/rescaled_final/1041_fw.mp4	0.0	268.3504378795624	
54	240.29045295715332	movie	1		245	52.0	2.5	/experiments/AOT/AOT_stimuli/rescaled_final/1041_fw.mp4	0.0	268.35869097709656	2.5082428455352783
54	241.88205480575562	pulse	1	t		52.0	2.5	/experiments/AOT/AOT_stimuli/rescaled_final/1041_fw.mp4	0.0	269.95029282569885	
54	242.7986958026886	fix_post	2		12	52.0	2.5	/experiments/AOT/AOT_stimuli/rescaled_final/1041_fw.mp4	0.0	270.86693382263184	0.10005617141723633
55	242.89875197410583	fix_pre	0		120	53.0	2.5	/experiments/AOT/AOT_stimuli/rescaled_final/1582_rv.mp4	0.0	270.9669899940491	1.000074863433838
55	243.48224902153015	pulse	0	t		53.0	2.5	/experiments/AOT/AOT_stimuli/rescaled_final/1582_rv.mp4	0.0	271.5504870414734	
55	243.89882683753967	movie	1		243	53.0	2.5	/experiments/AOT/AOT_stimuli/rescaled_final/1582_rv.mp4	0.0	271.9670648574829	2.499948024749756
55	245.08229994773865	pulse	1	t		53.0	2.5	/experiments/AOT/AOT_stimuli/rescaled_final/1582_rv.mp4	0.0	273.1505379676819	
55	246.39877486228943	fix_post	2		12	53.0	2.5	/experiments/AOT/AOT_stimuli/rescaled_final/1582_rv.mp4	0.0	274.46701288223267	0.09952712059020996
56	246.49830198287964	fix_pre	0		120	54.0	2.5	/experiments/AOT/AOT_stimuli/rescaled_final/2063_fw.mp4	0.0	274.5665400028229	1.0004160404205322
56	246.68224692344666	pulse	0	t		54.0	2.5	/experiments/AOT/AOT_stimuli/rescaled_final/2063_fw.mp4	0.0	274.7504849433899	
56	247.49871802330017	movie	1		244	54.0	2.5	/experiments/AOT/AOT_stimuli/rescaled_final/2063_fw.mp4	0.0	275.5669560432434	2.499518871307373
56	248.28226280212402	pulse	1	t		54.0	2.5	/experiments/AOT/AOT_stimuli/rescaled_final/2063_fw.mp4	0.0	276.35050082206726	
56	249.88089084625244	pulse	1	t		54.0	2.5	/experiments/AOT/AOT_stimuli/rescaled_final/2063_fw.mp4	0.0	277.9491288661957	
56	249.99823689460754	fix_post	2		12	54.0	2.5	/experiments/AOT/AOT_stimuli/rescaled_final/2063_fw.mp4	0.0	278.0664749145508	0.10045194625854492
57	250.0986888408661	fix_pre	0		120	55.0	2.5	blank	1.0	278.1669268608093	1.0000791549682617
57	251.09876799583435	movie	1		300	55.0	2.5	blank	1.0	279.1670060157776	2.4996109008789062
57	251.4822449684143	pulse	1	t		55.0	2.5	blank	1.0	279.55048298835754	
57	253.0818428993225	pulse	1	t		55.0	2.5	blank	1.0	281.15008091926575	
57	253.59837889671326	fix_post	2		12	55.0	2.5	blank	1.0	281.6666169166565	0.10003495216369629
58	253.69841384887695	fix_pre	0		119	56.0	2.5	/experiments/AOT/AOT_stimuli/rescaled_final/0587_fw.mp4	0.0	281.7666518688202	0.9917409420013428
58	254.6820409297943	pulse	0	t		56.0	2.5	/experiments/AOT/AOT_stimuli/rescaled_final/0587_fw.mp4	0.0	282.75027894973755	
58	254.6901547908783	movie	1		244	56.0	2.5	/experiments/AOT/AOT_stimuli/rescaled_final/0587_fw.mp4	0.0	282.75839281082153	2.508082151412964
58	256.28148889541626	pulse	1	t		56.0	2.5	/experiments/AOT/AOT_stimuli/rescaled_final/0587_fw.mp4	0.0	284.3497269153595	
58	257.19823694229126	fix_post	2		12	56.0	2.5	/experiments/AOT/AOT_stimuli/rescaled_final/0587_fw.mp4	0.0	285.2664749622345	0.10042405128479004
59	257.29866099357605	fix_pre	0		120	57.0	2.5	/experiments/AOT/AOT_stimuli/rescaled_final/1100_rv.mp4	0.0	285.3668990135193	1.0000238418579102
59	257.8822069168091	pulse	0	t		57.0	2.5	/experiments/AOT/AOT_stimuli/rescaled_final/1100_rv.mp4	0.0	285.9504449367523	
59	258.29868483543396	movie	1		243	57.0	2.5	/experiments/AOT/AOT_stimuli/rescaled_final/1100_rv.mp4	0.0	286.3669228553772	2.4999961853027344
59	259.48227882385254	pulse	1	t		57.0	2.5	/experiments/AOT/AOT_stimuli/rescaled_final/1100_rv.mp4	0.0	287.5505168437958	
59	260.7986810207367	fix_post	2		12	57.0	2.5	/experiments/AOT/AOT_stimuli/rescaled_final/1100_rv.mp4	0.0	288.86691904067993	0.09992694854736328
60	260.89860796928406	fix_pre	0		120	58.0	2.5	/experiments/AOT/AOT_stimuli/rescaled_final/0347_rv.mp4	0.0	288.9668459892273	0.9999480247497559
60	261.0821030139923	pulse	0	t		58.0	2.5	/experiments/AOT/AOT_stimuli/rescaled_final/0347_rv.mp4	0.0	289.15034103393555	
60	261.8985559940338	movie	1		245	58.0	2.5	/experiments/AOT/AOT_stimuli/rescaled_final/0347_rv.mp4	0.0	289.96679401397705	2.500046968460083
60	262.68216490745544	pulse	1	t		58.0	2.5	/experiments/AOT/AOT_stimuli/rescaled_final/0347_rv.mp4	0.0	290.7504029273987	
60	264.2804889678955	pulse	1	t		58.0	2.5	/experiments/AOT/AOT_stimuli/rescaled_final/0347_rv.mp4	0.0	292.34872698783875	
60	264.3986029624939	fix_post	2		12	58.0	2.5	/experiments/AOT/AOT_stimuli/rescaled_final/0347_rv.mp4	0.0	292.46684098243713	0.09996390342712402
61	264.498566865921	fix_pre	0		120	59.0	2.5	/experiments/AOT/AOT_stimuli/rescaled_final/0683_fw.mp4	0.0	292.56680488586426	1.0000381469726562
61	265.4986050128937	movie	1		245	59.0	2.5	/experiments/AOT/AOT_stimuli/rescaled_final/0683_fw.mp4	0.0	293.5668430328369	2.4999289512634277
61	265.8819479942322	pulse	1	t		59.0	2.5	/experiments/AOT/AOT_stimuli/rescaled_final/0683_fw.mp4	0.0	293.9501860141754	
61	267.48213601112366	pulse	1	t		59.0	2.5	/experiments/AOT/AOT_stimuli/rescaled_final/0683_fw.mp4	0.0	295.5503740310669	
61	267.9985339641571	fix_post	2		12	59.0	2.5	/experiments/AOT/AOT_stimuli/rescaled_final/0683_fw.mp4	0.0	296.06677198410034	0.10008692741394043
62	268.09862089157104	fix_pre	0		119	60.0	2.5	/experiments/AOT/AOT_stimuli/rescaled_final/0334_fw.mp4	0.0	296.1668589115143	0.9918570518493652
62	269.08206701278687	pulse	0	t		60.0	2.5	/experiments/AOT/AOT_stimuli/rescaled_final/0334_fw.mp4	0.0	297.1503050327301	
62	269.0904779434204	movie	1		248	60.0	2.5	/experiments/AOT/AOT_stimuli/rescaled_final/0334_fw.mp4	0.0	297.15871596336365	2.507765054702759
62	270.68163084983826	pulse	1	t		60.0	2.5	/experiments/AOT/AOT_stimuli/rescaled_final/0334_fw.mp4	0.0	298.7498688697815	
62	271.59824299812317	fix_post	2		12	60.0	2.5	/experiments/AOT/AOT_stimuli/rescaled_final/0334_fw.mp4	0.0	299.6664810180664	0.10030198097229004
63	271.69854497909546	fix_pre	0		120	61.0	2.5	/experiments/AOT/AOT_stimuli/rescaled_final/1978_rv.mp4	0.0	299.7667829990387	1.0000410079956055
63	272.2820680141449	pulse	0	t		61.0	2.5	/experiments/AOT/AOT_stimuli/rescaled_final/1978_rv.mp4	0.0	300.35030603408813	
63	272.69858598709106	movie	1		243	61.0	2.5	/experiments/AOT/AOT_stimuli/rescaled_final/1978_rv.mp4	0.0	300.7668240070343	2.4999289512634277
63	273.88220286369324	pulse	1	t		61.0	2.5	/experiments/AOT/AOT_stimuli/rescaled_final/1978_rv.mp4	0.0	301.9504408836365	
63	275.1985149383545	fix_post	2		12	61.0	2.5	/experiments/AOT/AOT_stimuli/rescaled_final/1978_rv.mp4	0.0	303.26675295829773	0.10004591941833496
64	275.2985608577728	fix_pre	0		120	62.0	2.5	blank	1.0	303.36679887771606	0.9995770454406738
64	275.4821050167084	pulse	0	t		62.0	2.5	blank	1.0	303.5503430366516	
64	276.2981379032135	movie	1		300	62.0	2.5	blank	1.0	304.36637592315674	2.5004000663757324
64	277.08199095726013	pulse	1	t		62.0	2.5	blank	1.0	305.15022897720337	
64	278.68193101882935	pulse	1	t		62.0	2.5	blank	1.0	306.7501690387726	
64	278.79853796958923	fix_post	2		12	62.0	2.5	blank	1.0	306.86677598953247	0.10001492500305176
65	278.8985528945923	fix_pre	0		120	63.0	2.5	/experiments/AOT/AOT_stimuli/rescaled_final/2148_rv.mp4	0.0	306.9667909145355	1.0000090599060059
65	279.8985619544983	movie	1		243	63.0	2.5	/experiments/AOT/AOT_stimuli/rescaled_final/2148_rv.mp4	0.0	307.9667999744415	2.5000009536743164
65	280.2830288410187	pulse	1	t		63.0	2.5	/experiments/AOT/AOT_stimuli/rescaled_final/2148_rv.mp4	0.0	308.3512668609619	
65	281.88201093673706	pulse	1	t		63.0	2.5	/experiments/AOT/AOT_stimuli/rescaled_final/2148_rv.mp4	0.0	309.9502489566803	
65	282.3985629081726	fix_post	2		12	63.0	2.5	/experiments/AOT/AOT_stimuli/rescaled_final/2148_rv.mp4	0.0	310.46680092811584	0.09993696212768555
66	282.4984998703003	fix_pre	0		119	64.0	2.5	/experiments/AOT/AOT_stimuli/rescaled_final/0113_rv.mp4	0.0	310.56673789024353	0.9916970729827881
66	283.4819588661194	pulse	0	t		64.0	2.5	/experiments/AOT/AOT_stimuli/rescaled_final/0113_rv.mp4	0.0	311.5501968860626	
66	283.4901969432831	movie	1		246	64.0	2.5	/experiments/AOT/AOT_stimuli/rescaled_final/0113_rv.mp4	0.0	311.5584349632263	2.508319854736328
66	285.08158683776855	pulse	1	t		64.0	2.5	/experiments/AOT/AOT_stimuli/rescaled_final/0113_rv.mp4	0.0	313.1498248577118	
66	285.9985167980194	fix_post	2		12	64.0	2.5	/experiments/AOT/AOT_stimuli/rescaled_final/0113_rv.mp4	0.0	314.06675481796265	0.10012412071228027
67	286.0986409187317	fix_pre	0		120	65.0	2.5	/experiments/AOT/AOT_stimuli/rescaled_final/1636_fw.mp4	0.0	314.1668789386749	0.9999279975891113
67	286.68198680877686	pulse	0	t		65.0	2.5	/experiments/AOT/AOT_stimuli/rescaled_final/1636_fw.mp4	0.0	314.7502248287201	
67	287.0985689163208	movie	1		247	65.0	2.5	/experiments/AOT/AOT_stimuli/rescaled_final/1636_fw.mp4	0.0	315.16680693626404	2.499980926513672
67	288.28213596343994	pulse	1	t		65.0	2.5	/experiments/AOT/AOT_stimuli/rescaled_final/1636_fw.mp4	0.0	316.3503739833832	
67	289.5985498428345	fix_post	2		12	65.0	2.5	/experiments/AOT/AOT_stimuli/rescaled_final/1636_fw.mp4	0.0	317.6667878627777	0.09993815422058105
68	289.69848799705505	fix_pre	0		120	66.0	2.5	/experiments/AOT/AOT_stimuli/rescaled_final/0759_rv.mp4	0.0	317.7667260169983	1.0000758171081543
68	289.881963968277	pulse	0	t		66.0	2.5	/experiments/AOT/AOT_stimuli/rescaled_final/0759_rv.mp4	0.0	317.9502019882202	
68	290.6985638141632	movie	1		247	66.0	2.5	/experiments/AOT/AOT_stimuli/rescaled_final/0759_rv.mp4	0.0	318.76680183410645	2.5000150203704834
68	291.48202180862427	pulse	1	t		66.0	2.5	/experiments/AOT/AOT_stimuli/rescaled_final/0759_rv.mp4	0.0	319.5502598285675	
68	293.0781729221344	pulse	1	t		66.0	2.5	/experiments/AOT/AOT_stimuli/rescaled_final/0759_rv.mp4	0.0	321.14641094207764	
68	293.1985788345337	fix_post	2		12	66.0	2.5	/experiments/AOT/AOT_stimuli/rescaled_final/0759_rv.mp4	0.0	321.26681685447693	0.09993600845336914
69	293.29851484298706	fix_pre	0		120	67.0	2.5	/experiments/AOT/AOT_stimuli/rescaled_final/1486_rv.mp4	0.0	321.3667528629303	0.9996399879455566
69	294.2981548309326	movie	1		246	67.0	2.5	/experiments/AOT/AOT_stimuli/rescaled_final/1486_rv.mp4	0.0	322.36639285087585	2.5002880096435547
69	294.68162989616394	pulse	1	t		67.0	2.5	/experiments/AOT/AOT_stimuli/rescaled_final/1486_rv.mp4	0.0	322.7498679161072	
69	296.28193187713623	pulse	1	t		67.0	2.5	/experiments/AOT/AOT_stimuli/rescaled_final/1486_rv.mp4	0.0	324.35016989707947	
69	296.7984428405762	fix_post	2		12	67.0	2.5	/experiments/AOT/AOT_stimuli/rescaled_final/1486_rv.mp4	0.0	324.8666808605194	0.10000300407409668
70	296.89844584465027	fix_pre	0		119	68.0	2.5	/experiments/AOT/AOT_stimuli/rescaled_final/1484_rv.mp4	0.0	324.9666838645935	0.9916911125183105
70	297.88199496269226	pulse	0	t		68.0	2.5	/experiments/AOT/AOT_stimuli/rescaled_final/1484_rv.mp4	0.0	325.9502329826355	
70	297.8901369571686	movie	1		244	68.0	2.5	/experiments/AOT/AOT_stimuli/rescaled_final/1484_rv.mp4	0.0	325.9583749771118	2.508319854736328
70	299.4815239906311	pulse	1	t		68.0	2.5	/experiments/AOT/AOT_stimuli/rescaled_final/1484_rv.mp4	0.0	327.54976201057434	
70	300.3984568119049	fix_post	2		12	68.0	2.5	/experiments/AOT/AOT_stimuli/rescaled_final/1484_rv.mp4	0.0	328.46669483184814	0.09993600845336914
71	300.4983928203583	fix_pre	0		120	69.0	2.5	/experiments/AOT/AOT_stimuli/rescaled_final/0386_fw.mp4	0.0	328.5666308403015	0.9996330738067627
71	301.08201789855957	pulse	0	t		69.0	2.5	/experiments/AOT/AOT_stimuli/rescaled_final/0386_fw.mp4	0.0	329.1502559185028	
71	301.49802589416504	movie	1		245	69.0	2.5	/experiments/AOT/AOT_stimuli/rescaled_final/0386_fw.mp4	0.0	329.5662639141083	2.5005099773406982
71	302.68202900886536	pulse	1	t		69.0	2.5	/experiments/AOT/AOT_stimuli/rescaled_final/0386_fw.mp4	0.0	330.7502670288086	
71	303.99853587150574	fix_post	2		12	69.0	2.5	/experiments/AOT/AOT_stimuli/rescaled_final/0386_fw.mp4	0.0	332.066773891449	0.09994792938232422
72	304.09848380088806	fix_pre	0		120	70.0	2.5	blank	1.0	332.1667218208313	0.9999740123748779
72	304.28202390670776	pulse	0	t		70.0	2.5	blank	1.0	332.350261926651	
72	305.09845781326294	movie	1		300	70.0	2.5	blank	1.0	333.1666958332062	2.499566078186035
72	305.88206601142883	pulse	1	t		70.0	2.5	blank	1.0	333.95030403137207	
72	307.48192501068115	pulse	1	t		70.0	2.5	blank	1.0	335.5501630306244	
72	307.598023891449	fix_post	2		12	70.0	2.5	blank	1.0	335.6662619113922	0.10038399696350098
73	307.6984078884125	fix_pre	0		120	71.0	2.5	/experiments/AOT/AOT_stimuli/rescaled_final/0255_rv.mp4	0.0	335.7666459083557	0.9996540546417236
73	308.6980619430542	movie	1		245	71.0	2.5	/experiments/AOT/AOT_stimuli/rescaled_final/0255_rv.mp4	0.0	336.76629996299744	2.5003139972686768
73	309.08166098594666	pulse	1	t		71.0	2.5	/experiments/AOT/AOT_stimuli/rescaled_final/0255_rv.mp4	0.0	337.1498990058899	
73	310.6821599006653	pulse	1	t		71.0	2.5	/experiments/AOT/AOT_stimuli/rescaled_final/0255_rv.mp4	0.0	338.7503979206085	
73	311.1983759403229	fix_post	2		12	71.0	2.5	/experiments/AOT/AOT_stimuli/rescaled_final/0255_rv.mp4	0.0	339.2666139602661	0.10006904602050781
74	311.2984449863434	fix_pre	0		119	72.0	2.5	/experiments/AOT/AOT_stimuli/rescaled_final/0113_fw.mp4	0.0	339.3666830062866	0.9916179180145264
74	312.28196382522583	pulse	0	t		72.0	2.5	/experiments/AOT/AOT_stimuli/rescaled_final/0113_fw.mp4	0.0	340.35020184516907	
74	312.2900629043579	movie	1		247	72.0	2.5	/experiments/AOT/AOT_stimuli/rescaled_final/0113_fw.mp4	0.0	340.35830092430115	2.5079851150512695
74	313.8829197883606	pulse	1	t		72.0	2.5	/experiments/AOT/AOT_stimuli/rescaled_final/0113_fw.mp4	0.0	341.95115780830383	
74	314.7980480194092	fix_post	2		12	72.0	2.5	/experiments/AOT/AOT_stimuli/rescaled_final/0113_fw.mp4	0.0	342.8662860393524	0.10032486915588379
75	314.89837288856506	fix_pre	0		120	73.0	2.5	/experiments/AOT/AOT_stimuli/rescaled_final/1896_rv.mp4	0.0	342.9666109085083	0.9996371269226074
75	315.48314094543457	pulse	0	t		73.0	2.5	/experiments/AOT/AOT_stimuli/rescaled_final/1896_rv.mp4	0.0	343.5513789653778	
75	315.89801001548767	movie	1		246	73.0	2.5	/experiments/AOT/AOT_stimuli/rescaled_final/1896_rv.mp4	0.0	343.9662480354309	2.5002448558807373
75	317.0818929672241	pulse	1	t		73.0	2.5	/experiments/AOT/AOT_stimuli/rescaled_final/1896_rv.mp4	0.0	345.15013098716736	
75	318.3982548713684	fix_post	2		12	73.0	2.5	/experiments/AOT/AOT_stimuli/rescaled_final/1896_rv.mp4	0.0	346.46649289131165	0.10010695457458496
76	318.498361825943	fix_pre	0		120	74.0	2.5	/experiments/AOT/AOT_stimuli/rescaled_final/0813_rv.mp4	0.0	346.56659984588623	0.9996800422668457
76	318.6818218231201	pulse	0	t		74.0	2.5	/experiments/AOT/AOT_stimuli/rescaled_final/0813_rv.mp4	0.0	346.75005984306335	
76	319.49804186820984	movie	1		246	74.0	2.5	/experiments/AOT/AOT_stimuli/rescaled_final/0813_rv.mp4	0.0	347.5662798881531	2.500322103500366
76	320.2818148136139	pulse	1	t		74.0	2.5	/experiments/AOT/AOT_stimuli/rescaled_final/0813_rv.mp4	0.0	348.35005283355713	
76	321.8803129196167	pulse	1	t		74.0	2.5	/experiments/AOT/AOT_stimuli/rescaled_final/0813_rv.mp4	0.0	349.94855093955994	
76	321.9983639717102	fix_post	2		12	74.0	2.5	/experiments/AOT/AOT_stimuli/rescaled_final/0813_rv.mp4	0.0	350.06660199165344	0.0995340347290039
77	322.0978980064392	fix_pre	0		120	75.0	2.5	/experiments/AOT/AOT_stimuli/rescaled_final/0641_rv.mp4	0.0	350.16613602638245	1.0005199909210205
77	323.09841799736023	movie	1		245	75.0	2.5	/experiments/AOT/AOT_stimuli/rescaled_final/0641_rv.mp4	0.0	351.16665601730347	2.4998598098754883
77	323.4812870025635	pulse	1	t		75.0	2.5	/experiments/AOT/AOT_stimuli/rescaled_final/0641_rv.mp4	0.0	351.5495250225067	
77	325.0818018913269	pulse	1	t		75.0	2.5	/experiments/AOT/AOT_stimuli/rescaled_final/0641_rv.mp4	0.0	353.15003991127014	
77	325.5982778072357	fix_post	2		12	75.0	2.5	/experiments/AOT/AOT_stimuli/rescaled_final/0641_rv.mp4	0.0	353.66651582717896	0.10009407997131348
78	325.69837188720703	fix_pre	0		119	76.0	2.5	/experiments/AOT/AOT_stimuli/rescaled_final/0897_fw.mp4	0.0	353.76660990715027	0.9915940761566162
78	326.6818449497223	pulse	0	t		76.0	2.5	/experiments/AOT/AOT_stimuli/rescaled_final/0897_fw.mp4	0.0	354.7500829696655	
78	326.68996596336365	movie	1		245	76.0	2.5	/experiments/AOT/AOT_stimuli/rescaled_final/0897_fw.mp4	0.0	354.7582039833069	2.5079898834228516
78	328.2815728187561	pulse	1	t		76.0	2.5	/experiments/AOT/AOT_stimuli/rescaled_final/0897_fw.mp4	0.0	356.34981083869934	
78	329.1979558467865	fix_post	2		12	76.0	2.5	/experiments/AOT/AOT_stimuli/rescaled_final/0897_fw.mp4	0.0	357.26619386672974	0.10027813911437988
79	329.2982339859009	fix_pre	0		120	77.0	2.5	blank	1.0	357.3664720058441	1.0001449584960938
79	329.8817939758301	pulse	0	t		77.0	2.5	blank	1.0	357.9500319957733	
79	330.298378944397	movie	1		300	77.0	2.5	blank	1.0	358.3666169643402	2.499903917312622
79	331.48186898231506	pulse	1	t		77.0	2.5	blank	1.0	359.5501070022583	
79	332.7982828617096	fix_post	2		12	77.0	2.5	blank	1.0	360.86652088165283	0.10003304481506348
80	332.89831590652466	fix_pre	0		120	78.0	2.5	/experiments/AOT/AOT_stimuli/rescaled_final/0507_rv.mp4	0.0	360.9665539264679	0.9999918937683105
80	333.08185601234436	pulse	0	t		78.0	2.5	/experiments/AOT/AOT_stimuli/rescaled_final/0507_rv.mp4	0.0	361.1500940322876	
80	333.89830780029297	movie	1		244	78.0	2.5	/experiments/AOT/AOT_stimuli/rescaled_final/0507_rv.mp4	0.0	361.9665458202362	2.5000181198120117
80	334.68187379837036	pulse	1	t		78.0	2.5	/experiments/AOT/AOT_stimuli/rescaled_final/0507_rv.mp4	0.0	362.7501118183136	
80	336.28035497665405	pulse	1	t		78.0	2.5	/experiments/AOT/AOT_stimuli/rescaled_final/0507_rv.mp4	0.0	364.3485929965973	
80	336.398325920105	fix_post	2		12	78.0	2.5	/experiments/AOT/AOT_stimuli/rescaled_final/0507_rv.mp4	0.0	364.4665639400482	0.09988093376159668
81	336.4982068538666	fix_pre	0		120	79.0	2.5	/experiments/AOT/AOT_stimuli/rescaled_final/0353_rv.mp4	0.0	364.5664448738098	1.0001389980316162
81	337.4983458518982	movie	1		245	79.0	2.5	/experiments/AOT/AOT_stimuli/rescaled_final/0353_rv.mp4	0.0	365.56658387184143	2.5003859996795654
81	337.8812458515167	pulse	1	t		79.0	2.5	/experiments/AOT/AOT_stimuli/rescaled_final/0353_rv.mp4	0.0	365.94948387145996	
81	339.4756109714508	pulse	1	t		79.0	2.5	/experiments/AOT/AOT_stimuli/rescaled_final/0353_rv.mp4	0.0	367.54384899139404	
81	339.99873185157776	fix_post	2		12	79.0	2.5	/experiments/AOT/AOT_stimuli/rescaled_final/0353_rv.mp4	0.0	368.066969871521	0.0991220474243164
82	340.0978538990021	fix_pre	0		119	80.0	2.5	/experiments/AOT/AOT_stimuli/rescaled_final/1116_fw.mp4	0.0	368.1660919189453	0.9920740127563477
82	341.08175802230835	pulse	0	t		80.0	2.5	/experiments/AOT/AOT_stimuli/rescaled_final/1116_fw.mp4	0.0	369.1499960422516	
82	341.0899279117584	movie	1		244	80.0	2.5	/experiments/AOT/AOT_stimuli/rescaled_final/1116_fw.mp4	0.0	369.15816593170166	2.5083138942718506
82	342.6815059185028	pulse	1	t		80.0	2.5	/experiments/AOT/AOT_stimuli/rescaled_final/1116_fw.mp4	0.0	370.74974393844604	
82	343.5982418060303	fix_post	2		12	80.0	2.5	/experiments/AOT/AOT_stimuli/rescaled_final/1116_fw.mp4	0.0	371.6664798259735	0.09964418411254883
83	343.6978859901428	fix_pre	0		120	81.0	2.5	/experiments/AOT/AOT_stimuli/rescaled_final/2100_rv.mp4	0.0	371.76612401008606	1.000452995300293
83	344.2817418575287	pulse	0	t		81.0	2.5	/experiments/AOT/AOT_stimuli/rescaled_final/2100_rv.mp4	0.0	372.3499798774719	
83	344.6983389854431	movie	1		245	81.0	2.5	/experiments/AOT/AOT_stimuli/rescaled_final/2100_rv.mp4	0.0	372.76657700538635	2.4998908042907715
83	345.88182282447815	pulse	1	t		81.0	2.5	/experiments/AOT/AOT_stimuli/rescaled_final/2100_rv.mp4	0.0	373.9500608444214	
83	347.1982297897339	fix_post	2		12	81.0	2.5	/experiments/AOT/AOT_stimuli/rescaled_final/2100_rv.mp4	0.0	375.2664678096771	0.1000220775604248
84	347.2982518672943	fix_pre	0		120	82.0	2.5	/experiments/AOT/AOT_stimuli/rescaled_final/2100_fw.mp4	0.0	375.36648988723755	1.0000331401824951
84	347.4817578792572	pulse	0	t		82.0	2.5	/experiments/AOT/AOT_stimuli/rescaled_final/2100_fw.mp4	0.0	375.54999589920044	
84	348.2982850074768	movie	1		245	82.0	2.5	/experiments/AOT/AOT_stimuli/rescaled_final/2100_fw.mp4	0.0	376.36652302742004	2.499886989593506
84	349.08178901672363	pulse	1	t		82.0	2.5	/experiments/AOT/AOT_stimuli/rescaled_final/2100_fw.mp4	0.0	377.15002703666687	
84	350.68173384666443	pulse	1	t		82.0	2.5	/experiments/AOT/AOT_stimuli/rescaled_final/2100_fw.mp4	0.0	378.74997186660767	
84	350.7981719970703	fix_post	2		12	82.0	2.5	/experiments/AOT/AOT_stimuli/rescaled_final/2100_fw.mp4	0.0	378.86641001701355	0.10008382797241211
85	350.8982558250427	fix_pre	0		120	83.0	2.5	blank	1.0	378.96649384498596	0.999993085861206
85	351.89824891090393	movie	1		300	83.0	2.5	blank	1.0	379.96648693084717	2.4999659061431885
85	352.2816469669342	pulse	1	t		83.0	2.5	blank	1.0	380.34988498687744	
85	353.8816509246826	pulse	1	t		83.0	2.5	blank	1.0	381.94988894462585	
85	354.3982148170471	fix_post	2		12	83.0	2.5	blank	1.0	382.46645283699036	0.09959101676940918
87	354.4978058338165	stim	0		1716					382.56604385375977	14.300384998321533
87	355.4817039966583	pulse	0	t						383.54994201660156	
87	357.081670999527	pulse	0	t						385.1499090194702	
87	358.6816449165344	pulse	0	t						386.74988293647766	
87	360.2816879749298	pulse	0	t						388.34992599487305	
87	361.88166093826294	pulse	0	t						389.9498989582062	
87	363.48119282722473	pulse	0	t						391.54943084716797	
87	365.0813639163971	pulse	0	t						393.14960193634033	
87	366.6815528869629	pulse	0	t						394.7497909069061	
87	368.28161787986755	pulse	0	t						396.3498558998108	
