trial_nr	onset	event_type	phase	response	nr_frames	movie_index	movie_duration	movie_file	blank	onset_abs	duration
0	0.14159536361694336	stim	0		33					15.709646701812744	0.27491044998168945
0	0.4084184169769287	response	0	space						15.97646975517273	
1	0.4165058135986328	stim	0		4635					15.984557151794434	38.63945722579956
1	39.045684814453125	pulse	0	t						54.613736152648926	
1	39.05596303939819	stim	1		1715					54.624014377593994	14.301823854446411
1	40.639397621154785	pulse	1	t						56.207448959350586	
1	42.23964023590088	pulse	1	t						57.80769157409668	
1	43.83986711502075	pulse	1	t						59.40791845321655	
1	45.440035343170166	pulse	1	t						61.00808668136597	
1	47.04048800468445	pulse	1	t						62.60853934288025	
1	48.64060711860657	pulse	1	t						64.20865845680237	
1	50.24084234237671	pulse	1	t						65.80889368057251	
1	51.841338872909546	pulse	1	t						67.40939021110535	
2	53.357786893844604	fix_pre	0		11	0.0	2.5	/experiments/Knapen_AOT/AOT_stimuli/rescaled_final/0579_fw.mp4	0.0	68.9258382320404	0.10841941833496094
2	53.4416868686676	pulse	0	t		0.0	2.5	/experiments/Knapen_AOT/AOT_stimuli/rescaled_final/0579_fw.mp4	0.0	69.0097382068634	
2	53.466206312179565	movie	1		288	0.0	2.5	/experiments/Knapen_AOT/AOT_stimuli/rescaled_final/0579_fw.mp4	0.0	69.03425765037537	2.492039680480957
2	55.040048360824585	pulse	1	t		0.0	2.5	/experiments/Knapen_AOT/AOT_stimuli/rescaled_final/0579_fw.mp4	0.0	70.60809969902039	
2	55.95824599266052	fix_post	2		12	0.0	2.5	/experiments/Knapen_AOT/AOT_stimuli/rescaled_final/0579_fw.mp4	0.0	71.52629733085632	0.10008072853088379
3	56.058326721191406	fix_pre	0		120	1.0	2.5	/experiments/Knapen_AOT/AOT_stimuli/rescaled_final/0413_rv.mp4	0.0	71.6263780593872	1.0083603858947754
3	56.634485960006714	pulse	0	t		1.0	2.5	/experiments/Knapen_AOT/AOT_stimuli/rescaled_final/0413_rv.mp4	0.0	72.20253729820251	
3	57.06668710708618	movie	1		286	1.0	2.5	/experiments/Knapen_AOT/AOT_stimuli/rescaled_final/0413_rv.mp4	0.0	72.63473844528198	2.492018938064575
3	58.24040508270264	pulse	1	t		1.0	2.5	/experiments/Knapen_AOT/AOT_stimuli/rescaled_final/0413_rv.mp4	0.0	73.80845642089844	
3	59.55870604515076	fix_post	2		12	1.0	2.5	/experiments/Knapen_AOT/AOT_stimuli/rescaled_final/0413_rv.mp4	0.0	75.12675738334656	0.10000276565551758
4	59.658708810806274	fix_pre	0		120	2.0	2.5	/experiments/Knapen_AOT/AOT_stimuli/rescaled_final/2054_rv.mp4	0.0	75.22676014900208	1.008575677871704
4	59.8344464302063	pulse	0	t		2.0	2.5	/experiments/Knapen_AOT/AOT_stimuli/rescaled_final/2054_rv.mp4	0.0	75.4024977684021	
4	60.66728448867798	movie	1		288	2.0	2.5	/experiments/Knapen_AOT/AOT_stimuli/rescaled_final/2054_rv.mp4	0.0	76.23533582687378	2.491992712020874
4	61.4345965385437	pulse	1	t		2.0	2.5	/experiments/Knapen_AOT/AOT_stimuli/rescaled_final/2054_rv.mp4	0.0	77.0026478767395	
4	63.03463697433472	pulse	1	t		2.0	2.5	/experiments/Knapen_AOT/AOT_stimuli/rescaled_final/2054_rv.mp4	0.0	78.60268831253052	
4	63.15927720069885	fix_post	2		12	2.0	2.5	/experiments/Knapen_AOT/AOT_stimuli/rescaled_final/2054_rv.mp4	0.0	78.72732853889465	0.1000070571899414
5	63.259284257888794	fix_pre	0		120	3.0	2.5	/experiments/Knapen_AOT/AOT_stimuli/rescaled_final/0394_rv.mp4	0.0	78.8273355960846	1.008458137512207
5	64.267742395401	movie	1		276	3.0	2.5	/experiments/Knapen_AOT/AOT_stimuli/rescaled_final/0394_rv.mp4	0.0	79.8357937335968	2.4920578002929688
5	64.63484597206116	pulse	1	t		3.0	2.5	/experiments/Knapen_AOT/AOT_stimuli/rescaled_final/0394_rv.mp4	0.0	80.20289731025696	
5	66.23492407798767	pulse	1	t		3.0	2.5	/experiments/Knapen_AOT/AOT_stimuli/rescaled_final/0394_rv.mp4	0.0	81.80297541618347	
5	66.75980019569397	fix_post	2		12	3.0	2.5	/experiments/Knapen_AOT/AOT_stimuli/rescaled_final/0394_rv.mp4	0.0	82.32785153388977	0.10009026527404785
6	66.85989046096802	fix_pre	0		118	4.0	2.5	/experiments/Knapen_AOT/AOT_stimuli/rescaled_final/1383_fw.mp4	0.0	82.42794179916382	0.9917562007904053
6	67.83532166481018	pulse	0	t		4.0	2.5	/experiments/Knapen_AOT/AOT_stimuli/rescaled_final/1383_fw.mp4	0.0	83.40337300300598	
6	67.85164666175842	movie	1		283	4.0	2.5	/experiments/Knapen_AOT/AOT_stimuli/rescaled_final/1383_fw.mp4	0.0	83.41969799995422	2.5005173683166504
6	69.4348657131195	pulse	1	t		4.0	2.5	/experiments/Knapen_AOT/AOT_stimuli/rescaled_final/1383_fw.mp4	0.0	85.00291705131531	
6	70.35216403007507	fix_post	2		12	4.0	2.5	/experiments/Knapen_AOT/AOT_stimuli/rescaled_final/1383_fw.mp4	0.0	85.92021536827087	0.09984016418457031
7	70.45200419425964	fix_pre	0		120	5.0	2.5	blank	1.0	86.02005553245544	1.0001635551452637
7	71.03575944900513	pulse	0	t		5.0	2.5	blank	1.0	86.60381078720093	
7	71.45216774940491	movie	1		300	5.0	2.5	blank	1.0	87.02021908760071	2.5003538131713867
7	72.63592958450317	pulse	1	t		5.0	2.5	blank	1.0	88.20398092269897	
7	73.9525215625763	fix_post	2		12	5.0	2.5	blank	1.0	89.5205729007721	0.1000211238861084
8	74.0525426864624	fix_pre	0		120	6.0	2.5	/experiments/Knapen_AOT/AOT_stimuli/rescaled_final/0959_rv.mp4	0.0	89.6205940246582	1.0085043907165527
8	74.23612761497498	pulse	0	t		6.0	2.5	/experiments/Knapen_AOT/AOT_stimuli/rescaled_final/0959_rv.mp4	0.0	89.80417895317078	
8	75.06104707717896	movie	1		280	6.0	2.5	/experiments/Knapen_AOT/AOT_stimuli/rescaled_final/0959_rv.mp4	0.0	90.62909841537476	2.4920132160186768
8	75.83653163909912	pulse	1	t		6.0	2.5	/experiments/Knapen_AOT/AOT_stimuli/rescaled_final/0959_rv.mp4	0.0	91.40458297729492	
8	77.43661046028137	pulse	1	t		6.0	2.5	/experiments/Knapen_AOT/AOT_stimuli/rescaled_final/0959_rv.mp4	0.0	93.00466179847717	
8	77.55306029319763	fix_post	2		12	6.0	2.5	/experiments/Knapen_AOT/AOT_stimuli/rescaled_final/0959_rv.mp4	0.0	93.12111163139343	0.10008764266967773
9	77.65314793586731	fix_pre	0		120	7.0	2.5	/experiments/Knapen_AOT/AOT_stimuli/rescaled_final/1197_fw.mp4	0.0	93.22119927406311	1.008474588394165
9	78.66162252426147	movie	1		275	7.0	2.5	/experiments/Knapen_AOT/AOT_stimuli/rescaled_final/1197_fw.mp4	0.0	94.22967386245728	2.49198055267334
9	79.0362286567688	pulse	1	t		7.0	2.5	/experiments/Knapen_AOT/AOT_stimuli/rescaled_final/1197_fw.mp4	0.0	94.6042799949646	
9	80.63507199287415	pulse	1	t		7.0	2.5	/experiments/Knapen_AOT/AOT_stimuli/rescaled_final/1197_fw.mp4	0.0	96.20312333106995	
9	81.15360307693481	fix_post	2		12	7.0	2.5	/experiments/Knapen_AOT/AOT_stimuli/rescaled_final/1197_fw.mp4	0.0	96.72165441513062	0.1000211238861084
10	81.25362420082092	fix_pre	0		119	8.0	2.5	/experiments/Knapen_AOT/AOT_stimuli/rescaled_final/1286_fw.mp4	0.0	96.82167553901672	1.0001757144927979
10	82.23729825019836	pulse	0	t		8.0	2.5	/experiments/Knapen_AOT/AOT_stimuli/rescaled_final/1286_fw.mp4	0.0	97.80534958839417	
10	82.25379991531372	movie	1		292	8.0	2.5	/experiments/Knapen_AOT/AOT_stimuli/rescaled_final/1286_fw.mp4	0.0	97.82185125350952	2.5003280639648438
10	83.83629775047302	pulse	1	t		8.0	2.5	/experiments/Knapen_AOT/AOT_stimuli/rescaled_final/1286_fw.mp4	0.0	99.40434908866882	
10	84.75412797927856	fix_post	2		12	8.0	2.5	/experiments/Knapen_AOT/AOT_stimuli/rescaled_final/1286_fw.mp4	0.0	100.32217931747437	0.10001921653747559
11	84.85414719581604	fix_pre	0		120	9.0	2.5	/experiments/Knapen_AOT/AOT_stimuli/rescaled_final/1248_fw.mp4	0.0	100.42219853401184	1.0001246929168701
11	85.43771386146545	pulse	0	t		9.0	2.5	/experiments/Knapen_AOT/AOT_stimuli/rescaled_final/1248_fw.mp4	0.0	101.00576519966125	
11	85.85427188873291	movie	1		296	9.0	2.5	/experiments/Knapen_AOT/AOT_stimuli/rescaled_final/1248_fw.mp4	0.0	101.42232322692871	2.5004448890686035
11	87.03564524650574	pulse	1	t		9.0	2.5	/experiments/Knapen_AOT/AOT_stimuli/rescaled_final/1248_fw.mp4	0.0	102.60369658470154	
11	88.35471677780151	fix_post	2		12	9.0	2.5	/experiments/Knapen_AOT/AOT_stimuli/rescaled_final/1248_fw.mp4	0.0	103.92276811599731	0.10004067420959473
12	88.45475745201111	fix_pre	0		120	10.0	2.5	/experiments/Knapen_AOT/AOT_stimuli/rescaled_final/0015_rv.mp4	0.0	104.02280879020691	1.0001609325408936
12	88.63827276229858	pulse	0	t		10.0	2.5	/experiments/Knapen_AOT/AOT_stimuli/rescaled_final/0015_rv.mp4	0.0	104.20632410049438	
12	89.454918384552	movie	1		293	10.0	2.5	/experiments/Knapen_AOT/AOT_stimuli/rescaled_final/0015_rv.mp4	0.0	105.0229697227478	2.500333309173584
12	90.23669338226318	pulse	1	t		10.0	2.5	/experiments/Knapen_AOT/AOT_stimuli/rescaled_final/0015_rv.mp4	0.0	105.80474472045898	
12	91.83793425559998	pulse	1	t		10.0	2.5	/experiments/Knapen_AOT/AOT_stimuli/rescaled_final/0015_rv.mp4	0.0	107.40598559379578	
12	91.95525169372559	fix_post	2		12	10.0	2.5	/experiments/Knapen_AOT/AOT_stimuli/rescaled_final/0015_rv.mp4	0.0	107.52330303192139	0.10000133514404297
13	92.05525302886963	fix_pre	0		120	11.0	2.5	/experiments/Knapen_AOT/AOT_stimuli/rescaled_final/0673_fw.mp4	0.0	107.62330436706543	1.0001626014709473
13	93.05541563034058	movie	1		296	11.0	2.5	/experiments/Knapen_AOT/AOT_stimuli/rescaled_final/0673_fw.mp4	0.0	108.62346696853638	2.5003929138183594
13	93.43821549415588	pulse	1	t		11.0	2.5	/experiments/Knapen_AOT/AOT_stimuli/rescaled_final/0673_fw.mp4	0.0	109.00626683235168	
13	95.03474259376526	pulse	1	t		11.0	2.5	/experiments/Knapen_AOT/AOT_stimuli/rescaled_final/0673_fw.mp4	0.0	110.60279393196106	
13	95.55580854415894	fix_post	2		12	11.0	2.5	/experiments/Knapen_AOT/AOT_stimuli/rescaled_final/0673_fw.mp4	0.0	111.12385988235474	0.10001444816589355
14	95.65582299232483	fix_pre	0		119	12.0	2.5	/experiments/Knapen_AOT/AOT_stimuli/rescaled_final/1884_rv.mp4	0.0	111.22387433052063	1.0002532005310059
14	96.63956880569458	pulse	0	t		12.0	2.5	/experiments/Knapen_AOT/AOT_stimuli/rescaled_final/1884_rv.mp4	0.0	112.20762014389038	
14	96.65607619285583	movie	1		296	12.0	2.5	/experiments/Knapen_AOT/AOT_stimuli/rescaled_final/1884_rv.mp4	0.0	112.22412753105164	2.5002613067626953
14	98.23693013191223	pulse	1	t		12.0	2.5	/experiments/Knapen_AOT/AOT_stimuli/rescaled_final/1884_rv.mp4	0.0	113.80498147010803	
14	99.15633749961853	fix_post	2		12	12.0	2.5	/experiments/Knapen_AOT/AOT_stimuli/rescaled_final/1884_rv.mp4	0.0	114.72438883781433	0.10000848770141602
15	99.25634598731995	fix_pre	0		120	13.0	2.5	blank	1.0	114.82439732551575	1.000194787979126
15	99.83994722366333	pulse	0	t		13.0	2.5	blank	1.0	115.40799856185913	
15	100.25654077529907	movie	1		300	13.0	2.5	blank	1.0	115.82459211349487	2.5003738403320312
15	101.44016242027283	pulse	1	t		13.0	2.5	blank	1.0	117.00821375846863	
15	102.7569146156311	fix_post	2		12	13.0	2.5	blank	1.0	118.3249659538269	0.1000053882598877
16	102.85692000389099	fix_pre	0		120	14.0	2.5	/experiments/Knapen_AOT/AOT_stimuli/rescaled_final/0044_fw.mp4	0.0	118.42497134208679	1.0085570812225342
16	103.04046559333801	pulse	0	t		14.0	2.5	/experiments/Knapen_AOT/AOT_stimuli/rescaled_final/0044_fw.mp4	0.0	118.60851693153381	
16	103.86547708511353	movie	1		282	14.0	2.5	/experiments/Knapen_AOT/AOT_stimuli/rescaled_final/0044_fw.mp4	0.0	119.43352842330933	2.4920034408569336
16	104.63841342926025	pulse	1	t		14.0	2.5	/experiments/Knapen_AOT/AOT_stimuli/rescaled_final/0044_fw.mp4	0.0	120.20646476745605	
16	106.23904299736023	pulse	1	t		14.0	2.5	/experiments/Knapen_AOT/AOT_stimuli/rescaled_final/0044_fw.mp4	0.0	121.80709433555603	
16	106.35748052597046	fix_post	2		12	14.0	2.5	/experiments/Knapen_AOT/AOT_stimuli/rescaled_final/0044_fw.mp4	0.0	121.92553186416626	0.10000848770141602
17	106.45748901367188	fix_pre	0		120	15.0	2.5	/experiments/Knapen_AOT/AOT_stimuli/rescaled_final/0695_rv.mp4	0.0	122.02554035186768	1.008502721786499
17	107.46599173545837	movie	1		280	15.0	2.5	/experiments/Knapen_AOT/AOT_stimuli/rescaled_final/0695_rv.mp4	0.0	123.03404307365417	2.492018222808838
17	107.8394672870636	pulse	1	t		15.0	2.5	/experiments/Knapen_AOT/AOT_stimuli/rescaled_final/0695_rv.mp4	0.0	123.4075186252594	
17	109.43953728675842	pulse	1	t		15.0	2.5	/experiments/Knapen_AOT/AOT_stimuli/rescaled_final/0695_rv.mp4	0.0	125.00758862495422	
17	109.95800995826721	fix_post	2		12	15.0	2.5	/experiments/Knapen_AOT/AOT_stimuli/rescaled_final/0695_rv.mp4	0.0	125.52606129646301	0.1000206470489502
18	110.05803060531616	fix_pre	0		119	16.0	2.5	/experiments/Knapen_AOT/AOT_stimuli/rescaled_final/2059_fw.mp4	0.0	125.62608194351196	1.0002968311309814
18	111.04172801971436	pulse	0	t		16.0	2.5	/experiments/Knapen_AOT/AOT_stimuli/rescaled_final/2059_fw.mp4	0.0	126.60977935791016	
18	111.05832743644714	movie	1		283	16.0	2.5	/experiments/Knapen_AOT/AOT_stimuli/rescaled_final/2059_fw.mp4	0.0	126.62637877464294	2.500243902206421
18	112.6405553817749	pulse	1	t		16.0	2.5	/experiments/Knapen_AOT/AOT_stimuli/rescaled_final/2059_fw.mp4	0.0	128.2086067199707	
18	113.55857133865356	fix_post	2		12	16.0	2.5	/experiments/Knapen_AOT/AOT_stimuli/rescaled_final/2059_fw.mp4	0.0	129.12662267684937	0.10001420974731445
19	113.65858554840088	fix_pre	0		120	17.0	2.5	/experiments/Knapen_AOT/AOT_stimuli/rescaled_final/1727_fw.mp4	0.0	129.22663688659668	1.0084941387176514
19	114.242342710495	pulse	0	t		17.0	2.5	/experiments/Knapen_AOT/AOT_stimuli/rescaled_final/1727_fw.mp4	0.0	129.8103940486908	
19	114.66707968711853	movie	1		291	17.0	2.5	/experiments/Knapen_AOT/AOT_stimuli/rescaled_final/1727_fw.mp4	0.0	130.23513102531433	2.4920103549957275
19	115.83491516113281	pulse	1	t		17.0	2.5	/experiments/Knapen_AOT/AOT_stimuli/rescaled_final/1727_fw.mp4	0.0	131.4029664993286	
19	117.15909004211426	fix_post	2		12	17.0	2.5	/experiments/Knapen_AOT/AOT_stimuli/rescaled_final/1727_fw.mp4	0.0	132.72714138031006	0.10000419616699219
20	117.25909423828125	fix_pre	0		120	18.0	2.5	/experiments/Knapen_AOT/AOT_stimuli/rescaled_final/0375_fw.mp4	0.0	132.82714557647705	1.0001976490020752
20	117.43567037582397	pulse	0	t		18.0	2.5	/experiments/Knapen_AOT/AOT_stimuli/rescaled_final/0375_fw.mp4	0.0	133.00372171401978	
20	118.25929188728333	movie	1		295	18.0	2.5	/experiments/Knapen_AOT/AOT_stimuli/rescaled_final/0375_fw.mp4	0.0	133.82734322547913	2.5003349781036377
20	119.03859448432922	pulse	1	t		18.0	2.5	/experiments/Knapen_AOT/AOT_stimuli/rescaled_final/0375_fw.mp4	0.0	134.60664582252502	
20	120.63515782356262	pulse	1	t		18.0	2.5	/experiments/Knapen_AOT/AOT_stimuli/rescaled_final/0375_fw.mp4	0.0	136.20320916175842	
20	120.75962686538696	fix_post	2		12	18.0	2.5	/experiments/Knapen_AOT/AOT_stimuli/rescaled_final/0375_fw.mp4	0.0	136.32767820358276	0.10000252723693848
21	120.8596293926239	fix_pre	0		120	19.0	2.5	blank	1.0	136.4276807308197	1.00020170211792
21	121.85983109474182	movie	1		300	19.0	2.5	blank	1.0	137.42788243293762	2.5003774166107178
21	122.235280752182	pulse	1	t		19.0	2.5	blank	1.0	137.8033320903778	
21	123.83566331863403	pulse	1	t		19.0	2.5	blank	1.0	139.40371465682983	
21	124.36020851135254	fix_post	2		12	19.0	2.5	blank	1.0	139.92825984954834	0.10002970695495605
22	124.4602382183075	fix_pre	0		118	20.0	2.5	/experiments/Knapen_AOT/AOT_stimuli/rescaled_final/0394_fw.mp4	0.0	140.0282895565033	0.9918503761291504
22	125.43578696250916	pulse	0	t		20.0	2.5	/experiments/Knapen_AOT/AOT_stimuli/rescaled_final/0394_fw.mp4	0.0	141.00383830070496	
22	125.45208859443665	movie	1		287	20.0	2.5	/experiments/Knapen_AOT/AOT_stimuli/rescaled_final/0394_fw.mp4	0.0	141.02013993263245	2.5003538131713867
22	127.03605771064758	pulse	1	t		20.0	2.5	/experiments/Knapen_AOT/AOT_stimuli/rescaled_final/0394_fw.mp4	0.0	142.60410904884338	
22	127.95244240760803	fix_post	2		12	20.0	2.5	/experiments/Knapen_AOT/AOT_stimuli/rescaled_final/0394_fw.mp4	0.0	143.52049374580383	0.10002446174621582
23	128.05246686935425	fix_pre	0		120	21.0	2.5	/experiments/Knapen_AOT/AOT_stimuli/rescaled_final/0812_fw.mp4	0.0	143.62051820755005	1.0085222721099854
23	128.63615036010742	pulse	0	t		21.0	2.5	/experiments/Knapen_AOT/AOT_stimuli/rescaled_final/0812_fw.mp4	0.0	144.20420169830322	
23	129.06098914146423	movie	1		271	21.0	2.5	/experiments/Knapen_AOT/AOT_stimuli/rescaled_final/0812_fw.mp4	0.0	144.62904047966003	2.491987466812134
23	130.23654580116272	pulse	1	t		21.0	2.5	/experiments/Knapen_AOT/AOT_stimuli/rescaled_final/0812_fw.mp4	0.0	145.80459713935852	
23	131.55297660827637	fix_post	2		12	21.0	2.5	/experiments/Knapen_AOT/AOT_stimuli/rescaled_final/0812_fw.mp4	0.0	147.12102794647217	0.10002946853637695
24	131.65300607681274	fix_pre	0		120	22.0	2.5	/experiments/Knapen_AOT/AOT_stimuli/rescaled_final/2157_fw.mp4	0.0	147.22105741500854	1.0085201263427734
24	131.83656454086304	pulse	0	t		22.0	2.5	/experiments/Knapen_AOT/AOT_stimuli/rescaled_final/2157_fw.mp4	0.0	147.40461587905884	
24	132.66152620315552	movie	1		273	22.0	2.5	/experiments/Knapen_AOT/AOT_stimuli/rescaled_final/2157_fw.mp4	0.0	148.22957754135132	2.491990089416504
24	133.43616342544556	pulse	1	t		22.0	2.5	/experiments/Knapen_AOT/AOT_stimuli/rescaled_final/2157_fw.mp4	0.0	149.00421476364136	
24	135.03536701202393	pulse	1	t		22.0	2.5	/experiments/Knapen_AOT/AOT_stimuli/rescaled_final/2157_fw.mp4	0.0	150.60341835021973	
24	135.15351629257202	fix_post	2		12	22.0	2.5	/experiments/Knapen_AOT/AOT_stimuli/rescaled_final/2157_fw.mp4	0.0	150.72156763076782	0.10002279281616211
25	135.25353908538818	fix_pre	0		120	23.0	2.5	/experiments/Knapen_AOT/AOT_stimuli/rescaled_final/1641_fw.mp4	0.0	150.82159042358398	1.0085113048553467
25	136.26205039024353	movie	1		283	23.0	2.5	/experiments/Knapen_AOT/AOT_stimuli/rescaled_final/1641_fw.mp4	0.0	151.83010172843933	2.492002487182617
25	136.63639092445374	pulse	1	t		23.0	2.5	/experiments/Knapen_AOT/AOT_stimuli/rescaled_final/1641_fw.mp4	0.0	152.20444226264954	
25	138.2357838153839	pulse	1	t		23.0	2.5	/experiments/Knapen_AOT/AOT_stimuli/rescaled_final/1641_fw.mp4	0.0	153.8038351535797	
25	138.75405287742615	fix_post	2		12	23.0	2.5	/experiments/Knapen_AOT/AOT_stimuli/rescaled_final/1641_fw.mp4	0.0	154.32210421562195	0.10004091262817383
26	138.85409379005432	fix_pre	0		119	24.0	2.5	/experiments/Knapen_AOT/AOT_stimuli/rescaled_final/0401_fw.mp4	0.0	154.42214512825012	1.0001492500305176
26	139.83785128593445	pulse	0	t		24.0	2.5	/experiments/Knapen_AOT/AOT_stimuli/rescaled_final/0401_fw.mp4	0.0	155.40590262413025	
26	139.85424304008484	movie	1		263	24.0	2.5	/experiments/Knapen_AOT/AOT_stimuli/rescaled_final/0401_fw.mp4	0.0	155.42229437828064	2.5004184246063232
26	141.4381124973297	pulse	1	t		24.0	2.5	/experiments/Knapen_AOT/AOT_stimuli/rescaled_final/0401_fw.mp4	0.0	157.0061638355255	
26	142.35466146469116	fix_post	2		12	24.0	2.5	/experiments/Knapen_AOT/AOT_stimuli/rescaled_final/0401_fw.mp4	0.0	157.92271280288696	0.09997105598449707
27	142.45463252067566	fix_pre	0		120	25.0	2.5	/experiments/Knapen_AOT/AOT_stimuli/rescaled_final/1298_fw.mp4	0.0	158.02268385887146	1.0084874629974365
27	143.03828597068787	pulse	0	t		25.0	2.5	/experiments/Knapen_AOT/AOT_stimuli/rescaled_final/1298_fw.mp4	0.0	158.60633730888367	
27	143.4631199836731	movie	1		263	25.0	2.5	/experiments/Knapen_AOT/AOT_stimuli/rescaled_final/1298_fw.mp4	0.0	159.0311713218689	2.492046594619751
27	144.6366114616394	pulse	1	t		25.0	2.5	/experiments/Knapen_AOT/AOT_stimuli/rescaled_final/1298_fw.mp4	0.0	160.2046627998352	
27	145.95516657829285	fix_post	2		12	25.0	2.5	/experiments/Knapen_AOT/AOT_stimuli/rescaled_final/1298_fw.mp4	0.0	161.52321791648865	0.10001373291015625
28	146.055180311203	fix_pre	0		120	26.0	2.5	/experiments/Knapen_AOT/AOT_stimuli/rescaled_final/0349_rv.mp4	0.0	161.6232316493988	1.0084598064422607
28	146.23877501487732	pulse	0	t		26.0	2.5	/experiments/Knapen_AOT/AOT_stimuli/rescaled_final/0349_rv.mp4	0.0	161.80682635307312	
28	147.06364011764526	movie	1		283	26.0	2.5	/experiments/Knapen_AOT/AOT_stimuli/rescaled_final/0349_rv.mp4	0.0	162.63169145584106	2.492055892944336
28	147.8372983932495	pulse	1	t		26.0	2.5	/experiments/Knapen_AOT/AOT_stimuli/rescaled_final/0349_rv.mp4	0.0	163.4053497314453	
28	149.4373459815979	pulse	1	t		26.0	2.5	/experiments/Knapen_AOT/AOT_stimuli/rescaled_final/0349_rv.mp4	0.0	165.0053973197937	
28	149.5556960105896	fix_post	2		12	26.0	2.5	/experiments/Knapen_AOT/AOT_stimuli/rescaled_final/0349_rv.mp4	0.0	165.1237473487854	0.10001111030578613
29	149.65570712089539	fix_pre	0		120	27.0	2.5	blank	1.0	165.2237584590912	1.0001609325408936
29	150.65586805343628	movie	1		300	27.0	2.5	blank	1.0	166.22391939163208	2.500375509262085
29	151.03945899009705	pulse	1	t		27.0	2.5	blank	1.0	166.60751032829285	
29	152.63970351219177	pulse	1	t		27.0	2.5	blank	1.0	168.20775485038757	
29	153.15624356269836	fix_post	2		12	27.0	2.5	blank	1.0	168.72429490089417	0.10003089904785156
30	153.25627446174622	fix_pre	0		119	28.0	2.5	/experiments/Knapen_AOT/AOT_stimuli/rescaled_final/1286_rv.mp4	0.0	168.82432579994202	1.0001795291900635
30	154.23988962173462	pulse	0	t		28.0	2.5	/experiments/Knapen_AOT/AOT_stimuli/rescaled_final/1286_rv.mp4	0.0	169.80794095993042	
30	154.25645399093628	movie	1		280	28.0	2.5	/experiments/Knapen_AOT/AOT_stimuli/rescaled_final/1286_rv.mp4	0.0	169.82450532913208	2.5003392696380615
30	155.83882999420166	pulse	1	t		28.0	2.5	/experiments/Knapen_AOT/AOT_stimuli/rescaled_final/1286_rv.mp4	0.0	171.40688133239746	
30	156.75679326057434	fix_post	2		12	28.0	2.5	/experiments/Knapen_AOT/AOT_stimuli/rescaled_final/1286_rv.mp4	0.0	172.32484459877014	0.10001540184020996
31	156.85680866241455	fix_pre	0		120	29.0	2.5	/experiments/Knapen_AOT/AOT_stimuli/rescaled_final/1167_rv.mp4	0.0	172.42486000061035	1.0084788799285889
31	157.44042563438416	pulse	0	t		29.0	2.5	/experiments/Knapen_AOT/AOT_stimuli/rescaled_final/1167_rv.mp4	0.0	173.00847697257996	
31	157.86528754234314	movie	1		271	29.0	2.5	/experiments/Knapen_AOT/AOT_stimuli/rescaled_final/1167_rv.mp4	0.0	173.43333888053894	2.4920315742492676
31	159.0389633178711	pulse	1	t		29.0	2.5	/experiments/Knapen_AOT/AOT_stimuli/rescaled_final/1167_rv.mp4	0.0	174.6070146560669	
31	160.3573191165924	fix_post	2		12	29.0	2.5	/experiments/Knapen_AOT/AOT_stimuli/rescaled_final/1167_rv.mp4	0.0	175.9253704547882	0.10001516342163086
32	160.45733428001404	fix_pre	0		120	30.0	2.5	/experiments/Knapen_AOT/AOT_stimuli/rescaled_final/0087_rv.mp4	0.0	176.02538561820984	1.0085339546203613
32	160.64087891578674	pulse	0	t		30.0	2.5	/experiments/Knapen_AOT/AOT_stimuli/rescaled_final/0087_rv.mp4	0.0	176.20893025398254	
32	161.4658682346344	movie	1		267	30.0	2.5	/experiments/Knapen_AOT/AOT_stimuli/rescaled_final/0087_rv.mp4	0.0	177.0339195728302	2.4919800758361816
32	162.2396879196167	pulse	1	t		30.0	2.5	/experiments/Knapen_AOT/AOT_stimuli/rescaled_final/0087_rv.mp4	0.0	177.8077392578125	
32	163.83955359458923	pulse	1	t		30.0	2.5	/experiments/Knapen_AOT/AOT_stimuli/rescaled_final/0087_rv.mp4	0.0	179.40760493278503	
32	163.95784831047058	fix_post	2		12	30.0	2.5	/experiments/Knapen_AOT/AOT_stimuli/rescaled_final/0087_rv.mp4	0.0	179.52589964866638	0.10002899169921875
33	164.0578773021698	fix_pre	0		120	31.0	2.5	/experiments/Knapen_AOT/AOT_stimuli/rescaled_final/1249_rv.mp4	0.0	179.6259286403656	1.008544683456421
33	165.06642198562622	movie	1		286	31.0	2.5	/experiments/Knapen_AOT/AOT_stimuli/rescaled_final/1249_rv.mp4	0.0	180.63447332382202	2.492002487182617
33	165.4397885799408	pulse	1	t		31.0	2.5	/experiments/Knapen_AOT/AOT_stimuli/rescaled_final/1249_rv.mp4	0.0	181.0078399181366	
33	167.0397765636444	pulse	1	t		31.0	2.5	/experiments/Knapen_AOT/AOT_stimuli/rescaled_final/1249_rv.mp4	0.0	182.6078279018402	
33	167.55842447280884	fix_post	2		12	31.0	2.5	/experiments/Knapen_AOT/AOT_stimuli/rescaled_final/1249_rv.mp4	0.0	183.12647581100464	0.09999322891235352
34	167.6584177017212	fix_pre	0		119	32.0	2.5	/experiments/Knapen_AOT/AOT_stimuli/rescaled_final/2009_fw.mp4	0.0	183.226469039917	1.0001473426818848
34	168.64218974113464	pulse	0	t		32.0	2.5	/experiments/Knapen_AOT/AOT_stimuli/rescaled_final/2009_fw.mp4	0.0	184.21024107933044	
34	168.65856504440308	movie	1		292	32.0	2.5	/experiments/Knapen_AOT/AOT_stimuli/rescaled_final/2009_fw.mp4	0.0	184.22661638259888	2.500364303588867
34	170.2413101196289	pulse	1	t		32.0	2.5	/experiments/Knapen_AOT/AOT_stimuli/rescaled_final/2009_fw.mp4	0.0	185.8093614578247	
34	171.15892934799194	fix_post	2		12	32.0	2.5	/experiments/Knapen_AOT/AOT_stimuli/rescaled_final/2009_fw.mp4	0.0	186.72698068618774	0.10002684593200684
35	171.25895619392395	fix_pre	0		120	33.0	2.5	/experiments/Knapen_AOT/AOT_stimuli/rescaled_final/2163_fw.mp4	0.0	186.82700753211975	1.0085117816925049
35	171.84264492988586	pulse	0	t		33.0	2.5	/experiments/Knapen_AOT/AOT_stimuli/rescaled_final/2163_fw.mp4	0.0	187.41069626808167	
35	172.26746797561646	movie	1		293	33.0	2.5	/experiments/Knapen_AOT/AOT_stimuli/rescaled_final/2163_fw.mp4	0.0	187.83551931381226	2.4920952320098877
35	173.4410102367401	pulse	1	t		33.0	2.5	/experiments/Knapen_AOT/AOT_stimuli/rescaled_final/2163_fw.mp4	0.0	189.0090615749359	
35	174.75956320762634	fix_post	2		12	33.0	2.5	/experiments/Knapen_AOT/AOT_stimuli/rescaled_final/2163_fw.mp4	0.0	190.32761454582214	0.09996604919433594
36	174.85952925682068	fix_pre	0		120	34.0	2.5	blank	1.0	190.42758059501648	1.0001111030578613
36	175.03543305397034	pulse	0	t		34.0	2.5	blank	1.0	190.60348439216614	
36	175.85964035987854	movie	1		300	34.0	2.5	blank	1.0	191.42769169807434	2.500370502471924
36	176.63547492027283	pulse	1	t		34.0	2.5	blank	1.0	192.20352625846863	
36	178.23550271987915	pulse	1	t		34.0	2.5	blank	1.0	193.80355405807495	
36	178.36001086235046	fix_post	2		12	34.0	2.5	blank	1.0	193.92806220054626	0.1000223159790039
37	178.46003317832947	fix_pre	0		120	35.0	2.5	/experiments/Knapen_AOT/AOT_stimuli/rescaled_final/1969_fw.mp4	0.0	194.02808451652527	1.0085477828979492
37	179.46858096122742	movie	1		283	35.0	2.5	/experiments/Knapen_AOT/AOT_stimuli/rescaled_final/1969_fw.mp4	0.0	195.03663229942322	2.491981029510498
37	179.8355007171631	pulse	1	t		35.0	2.5	/experiments/Knapen_AOT/AOT_stimuli/rescaled_final/1969_fw.mp4	0.0	195.4035520553589	
37	181.43584203720093	pulse	1	t		35.0	2.5	/experiments/Knapen_AOT/AOT_stimuli/rescaled_final/1969_fw.mp4	0.0	197.00389337539673	
37	181.96056199073792	fix_post	2		12	35.0	2.5	/experiments/Knapen_AOT/AOT_stimuli/rescaled_final/1969_fw.mp4	0.0	197.52861332893372	0.10001301765441895
38	182.06057500839233	fix_pre	0		118	36.0	2.5	/experiments/Knapen_AOT/AOT_stimuli/rescaled_final/1491_fw.mp4	0.0	197.62862634658813	0.9920620918273926
38	183.03594994544983	pulse	0	t		36.0	2.5	/experiments/Knapen_AOT/AOT_stimuli/rescaled_final/1491_fw.mp4	0.0	198.60400128364563	
38	183.05263710021973	movie	1		267	36.0	2.5	/experiments/Knapen_AOT/AOT_stimuli/rescaled_final/1491_fw.mp4	0.0	198.62068843841553	2.5001235008239746
38	184.63634037971497	pulse	1	t		36.0	2.5	/experiments/Knapen_AOT/AOT_stimuli/rescaled_final/1491_fw.mp4	0.0	200.20439171791077	
38	185.5527606010437	fix_post	2		12	36.0	2.5	/experiments/Knapen_AOT/AOT_stimuli/rescaled_final/1491_fw.mp4	0.0	201.1208119392395	0.10010695457458496
39	185.6528675556183	fix_pre	0		120	37.0	2.5	/experiments/Knapen_AOT/AOT_stimuli/rescaled_final/1536_fw.mp4	0.0	201.2209188938141	1.008474349975586
39	186.23647141456604	pulse	0	t		37.0	2.5	/experiments/Knapen_AOT/AOT_stimuli/rescaled_final/1536_fw.mp4	0.0	201.80452275276184	
39	186.66134190559387	movie	1		250	37.0	2.5	/experiments/Knapen_AOT/AOT_stimuli/rescaled_final/1536_fw.mp4	0.0	202.22939324378967	2.491973638534546
39	187.83856749534607	pulse	1	t		37.0	2.5	/experiments/Knapen_AOT/AOT_stimuli/rescaled_final/1536_fw.mp4	0.0	203.40661883354187	
39	189.15331554412842	fix_post	2		12	37.0	2.5	/experiments/Knapen_AOT/AOT_stimuli/rescaled_final/1536_fw.mp4	0.0	204.72136688232422	0.10023021697998047
40	189.2535457611084	fix_pre	0		120	38.0	2.5	/experiments/Knapen_AOT/AOT_stimuli/rescaled_final/0394_fw.mp4	0.0	204.8215970993042	1.008265733718872
40	189.43687558174133	pulse	0	t		38.0	2.5	/experiments/Knapen_AOT/AOT_stimuli/rescaled_final/0394_fw.mp4	0.0	205.00492691993713	
40	190.26181149482727	movie	1		279	38.0	2.5	/experiments/Knapen_AOT/AOT_stimuli/rescaled_final/0394_fw.mp4	0.0	205.82986283302307	2.492041826248169
40	191.0373249053955	pulse	1	t		38.0	2.5	/experiments/Knapen_AOT/AOT_stimuli/rescaled_final/0394_fw.mp4	0.0	206.6053762435913	
40	192.63737225532532	pulse	1	t		38.0	2.5	/experiments/Knapen_AOT/AOT_stimuli/rescaled_final/0394_fw.mp4	0.0	208.20542359352112	
40	192.75385332107544	fix_post	2		12	38.0	2.5	/experiments/Knapen_AOT/AOT_stimuli/rescaled_final/0394_fw.mp4	0.0	208.32190465927124	0.1000204086303711
41	192.8538737297058	fix_pre	0		120	39.0	2.5	/experiments/Knapen_AOT/AOT_stimuli/rescaled_final/1249_fw.mp4	0.0	208.4219250679016	1.0085155963897705
41	193.86238932609558	movie	1		258	39.0	2.5	/experiments/Knapen_AOT/AOT_stimuli/rescaled_final/1249_fw.mp4	0.0	209.43044066429138	2.4920248985290527
41	194.2361443042755	pulse	1	t		39.0	2.5	/experiments/Knapen_AOT/AOT_stimuli/rescaled_final/1249_fw.mp4	0.0	209.8041956424713	
41	195.8363766670227	pulse	1	t		39.0	2.5	/experiments/Knapen_AOT/AOT_stimuli/rescaled_final/1249_fw.mp4	0.0	211.4044280052185	
41	196.35441422462463	fix_post	2		12	39.0	2.5	/experiments/Knapen_AOT/AOT_stimuli/rescaled_final/1249_fw.mp4	0.0	211.92246556282043	0.09998941421508789
42	196.45440363883972	fix_pre	0		119	40.0	2.5	/experiments/Knapen_AOT/AOT_stimuli/rescaled_final/1416_fw.mp4	0.0	212.02245497703552	1.0001592636108398
42	197.4381923675537	pulse	0	t		40.0	2.5	/experiments/Knapen_AOT/AOT_stimuli/rescaled_final/1416_fw.mp4	0.0	213.0062437057495	
42	197.45456290245056	movie	1		273	40.0	2.5	/experiments/Knapen_AOT/AOT_stimuli/rescaled_final/1416_fw.mp4	0.0	213.02261424064636	2.500380277633667
42	199.0371799468994	pulse	1	t		40.0	2.5	/experiments/Knapen_AOT/AOT_stimuli/rescaled_final/1416_fw.mp4	0.0	214.60523128509521	
42	199.95494318008423	fix_post	2		12	40.0	2.5	/experiments/Knapen_AOT/AOT_stimuli/rescaled_final/1416_fw.mp4	0.0	215.52299451828003	0.10001230239868164
43	200.0549554824829	fix_pre	0		120	41.0	2.5	/experiments/Knapen_AOT/AOT_stimuli/rescaled_final/1810_fw.mp4	0.0	215.6230068206787	1.0084936618804932
43	200.63858246803284	pulse	0	t		41.0	2.5	/experiments/Knapen_AOT/AOT_stimuli/rescaled_final/1810_fw.mp4	0.0	216.20663380622864	
43	201.0634491443634	movie	1		284	41.0	2.5	/experiments/Knapen_AOT/AOT_stimuli/rescaled_final/1810_fw.mp4	0.0	216.6315004825592	2.4920432567596436
43	202.2369954586029	pulse	1	t		41.0	2.5	/experiments/Knapen_AOT/AOT_stimuli/rescaled_final/1810_fw.mp4	0.0	217.8050467967987	
43	203.55549240112305	fix_post	2		12	41.0	2.5	/experiments/Knapen_AOT/AOT_stimuli/rescaled_final/1810_fw.mp4	0.0	219.12354373931885	0.1000368595123291
44	203.65552926063538	fix_pre	0		120	42.0	2.5	blank	1.0	219.22358059883118	1.000128984451294
44	203.83907318115234	pulse	0	t		42.0	2.5	blank	1.0	219.40712451934814	
44	204.65565824508667	movie	1		300	42.0	2.5	blank	1.0	220.22370958328247	2.500474452972412
44	205.43930912017822	pulse	1	t		42.0	2.5	blank	1.0	221.00736045837402	
44	207.03993916511536	pulse	1	t		42.0	2.5	blank	1.0	222.60799050331116	
44	207.15613269805908	fix_post	2		12	42.0	2.5	blank	1.0	222.72418403625488	0.09990453720092773
45	207.25603723526	fix_pre	0		120	43.0	2.5	/experiments/Knapen_AOT/AOT_stimuli/rescaled_final/0695_fw.mp4	0.0	222.8240885734558	1.0085093975067139
45	208.26454663276672	movie	1		277	43.0	2.5	/experiments/Knapen_AOT/AOT_stimuli/rescaled_final/0695_fw.mp4	0.0	223.83259797096252	2.492035150527954
45	208.639976978302	pulse	1	t		43.0	2.5	/experiments/Knapen_AOT/AOT_stimuli/rescaled_final/0695_fw.mp4	0.0	224.2080283164978	
45	210.23866629600525	pulse	1	t		43.0	2.5	/experiments/Knapen_AOT/AOT_stimuli/rescaled_final/0695_fw.mp4	0.0	225.80671763420105	
45	210.75658178329468	fix_post	2		12	43.0	2.5	/experiments/Knapen_AOT/AOT_stimuli/rescaled_final/0695_fw.mp4	0.0	226.32463312149048	0.10000348091125488
46	210.85658526420593	fix_pre	0		119	44.0	2.5	/experiments/Knapen_AOT/AOT_stimuli/rescaled_final/1810_fw.mp4	0.0	226.42463660240173	1.0001764297485352
46	211.84028840065002	pulse	0	t		44.0	2.5	/experiments/Knapen_AOT/AOT_stimuli/rescaled_final/1810_fw.mp4	0.0	227.40833973884583	
46	211.85676169395447	movie	1		276	44.0	2.5	/experiments/Knapen_AOT/AOT_stimuli/rescaled_final/1810_fw.mp4	0.0	227.42481303215027	2.500337839126587
46	213.43926668167114	pulse	1	t		44.0	2.5	/experiments/Knapen_AOT/AOT_stimuli/rescaled_final/1810_fw.mp4	0.0	229.00731801986694	
46	214.35709953308105	fix_post	2		12	44.0	2.5	/experiments/Knapen_AOT/AOT_stimuli/rescaled_final/1810_fw.mp4	0.0	229.92515087127686	0.10001802444458008
47	214.45711755752563	fix_pre	0		120	45.0	2.5	/experiments/Knapen_AOT/AOT_stimuli/rescaled_final/0728_fw.mp4	0.0	230.02516889572144	1.0084989070892334
47	215.04090785980225	pulse	0	t		45.0	2.5	/experiments/Knapen_AOT/AOT_stimuli/rescaled_final/0728_fw.mp4	0.0	230.60895919799805	
47	215.46561646461487	movie	1		277	45.0	2.5	/experiments/Knapen_AOT/AOT_stimuli/rescaled_final/0728_fw.mp4	0.0	231.03366780281067	2.492018222808838
47	216.64125609397888	pulse	1	t		45.0	2.5	/experiments/Knapen_AOT/AOT_stimuli/rescaled_final/0728_fw.mp4	0.0	232.20930743217468	
47	217.9576346874237	fix_post	2		12	45.0	2.5	/experiments/Knapen_AOT/AOT_stimuli/rescaled_final/0728_fw.mp4	0.0	233.5256860256195	0.10002255439758301
48	218.0576572418213	fix_pre	0		104	46.0	2.5	/experiments/Knapen_AOT/AOT_stimuli/rescaled_final/1908_fw.mp4	0.0	233.6257085800171	1.0084948539733887
48	218.24122190475464	pulse	0	t		46.0	2.5	/experiments/Knapen_AOT/AOT_stimuli/rescaled_final/1908_fw.mp4	0.0	233.80927324295044	
48	219.06615209579468	movie	1		270	46.0	2.5	/experiments/Knapen_AOT/AOT_stimuli/rescaled_final/1908_fw.mp4	0.0	234.63420343399048	2.492027759552002
48	219.83980917930603	pulse	1	t		46.0	2.5	/experiments/Knapen_AOT/AOT_stimuli/rescaled_final/1908_fw.mp4	0.0	235.40786051750183	
48	221.4395830631256	pulse	1	t		46.0	2.5	/experiments/Knapen_AOT/AOT_stimuli/rescaled_final/1908_fw.mp4	0.0	237.0076344013214	
48	221.55817985534668	fix_post	2		12	46.0	2.5	/experiments/Knapen_AOT/AOT_stimuli/rescaled_final/1908_fw.mp4	0.0	237.12623119354248	0.10007739067077637
49	221.65825724601746	fix_pre	0		120	47.0	2.5	/experiments/Knapen_AOT/AOT_stimuli/rescaled_final/0957_rv.mp4	0.0	237.22630858421326	1.0084471702575684
49	222.66670441627502	movie	1		261	47.0	2.5	/experiments/Knapen_AOT/AOT_stimuli/rescaled_final/0957_rv.mp4	0.0	238.23475575447083	2.492032289505005
49	223.04030323028564	pulse	1	t		47.0	2.5	/experiments/Knapen_AOT/AOT_stimuli/rescaled_final/0957_rv.mp4	0.0	238.60835456848145	
49	224.64012789726257	pulse	1	t		47.0	2.5	/experiments/Knapen_AOT/AOT_stimuli/rescaled_final/0957_rv.mp4	0.0	240.20817923545837	
49	225.15873670578003	fix_post	2		12	47.0	2.5	/experiments/Knapen_AOT/AOT_stimuli/rescaled_final/0957_rv.mp4	0.0	240.72678804397583	0.10002994537353516
50	225.25876665115356	fix_pre	0		119	48.0	2.5	/experiments/Knapen_AOT/AOT_stimuli/rescaled_final/1599_fw.mp4	0.0	240.82681798934937	1.0001518726348877
50	226.2349226474762	pulse	0	t		48.0	2.5	/experiments/Knapen_AOT/AOT_stimuli/rescaled_final/1599_fw.mp4	0.0	241.802973985672	
50	226.25891852378845	movie	1		281	48.0	2.5	/experiments/Knapen_AOT/AOT_stimuli/rescaled_final/1599_fw.mp4	0.0	241.82696986198425	2.5003488063812256
50	227.84117007255554	pulse	1	t		48.0	2.5	/experiments/Knapen_AOT/AOT_stimuli/rescaled_final/1599_fw.mp4	0.0	243.40922141075134	
50	228.75926733016968	fix_post	2		12	48.0	2.5	/experiments/Knapen_AOT/AOT_stimuli/rescaled_final/1599_fw.mp4	0.0	244.32731866836548	0.100067138671875
51	228.85933446884155	fix_pre	0		120	49.0	2.5	blank	1.0	244.42738580703735	1.0000979900360107
51	229.4350254535675	pulse	0	t		49.0	2.5	blank	1.0	245.0030767917633	
51	229.85943245887756	movie	1		300	49.0	2.5	blank	1.0	245.42748379707336	2.500418186187744
51	231.0349826812744	pulse	1	t		49.0	2.5	blank	1.0	246.60303401947021	
51	232.3598506450653	fix_post	2		12	49.0	2.5	blank	1.0	247.9279019832611	0.09999322891235352
52	232.45984387397766	fix_pre	0		120	50.0	2.5	/experiments/Knapen_AOT/AOT_stimuli/rescaled_final/0602_rv.mp4	0.0	248.02789521217346	1.0084927082061768
52	232.63510489463806	pulse	0	t		50.0	2.5	/experiments/Knapen_AOT/AOT_stimuli/rescaled_final/0602_rv.mp4	0.0	248.20315623283386	
52	233.46833658218384	movie	1		283	50.0	2.5	/experiments/Knapen_AOT/AOT_stimuli/rescaled_final/0602_rv.mp4	0.0	249.03638792037964	2.492011308670044
52	234.23532557487488	pulse	1	t		50.0	2.5	/experiments/Knapen_AOT/AOT_stimuli/rescaled_final/0602_rv.mp4	0.0	249.80337691307068	
52	235.83582615852356	pulse	1	t		50.0	2.5	/experiments/Knapen_AOT/AOT_stimuli/rescaled_final/0602_rv.mp4	0.0	251.40387749671936	
52	235.96034789085388	fix_post	2		12	50.0	2.5	/experiments/Knapen_AOT/AOT_stimuli/rescaled_final/0602_rv.mp4	0.0	251.52839922904968	0.10003089904785156
53	236.06037878990173	fix_pre	0		120	51.0	2.5	/experiments/Knapen_AOT/AOT_stimuli/rescaled_final/1673_fw.mp4	0.0	251.62843012809753	1.0085275173187256
53	237.06890630722046	movie	1		285	51.0	2.5	/experiments/Knapen_AOT/AOT_stimuli/rescaled_final/1673_fw.mp4	0.0	252.63695764541626	2.4919865131378174
53	237.4358468055725	pulse	1	t		51.0	2.5	/experiments/Knapen_AOT/AOT_stimuli/rescaled_final/1673_fw.mp4	0.0	253.0038981437683	
53	239.03606748580933	pulse	1	t		51.0	2.5	/experiments/Knapen_AOT/AOT_stimuli/rescaled_final/1673_fw.mp4	0.0	254.60411882400513	
53	239.56089282035828	fix_post	2		12	51.0	2.5	/experiments/Knapen_AOT/AOT_stimuli/rescaled_final/1673_fw.mp4	0.0	255.12894415855408	0.10001397132873535
54	239.660906791687	fix_pre	0		118	52.0	2.5	/experiments/Knapen_AOT/AOT_stimuli/rescaled_final/0533_rv.mp4	0.0	255.2289581298828	1.0002491474151611
54	240.63639664649963	pulse	0	t		52.0	2.5	/experiments/Knapen_AOT/AOT_stimuli/rescaled_final/0533_rv.mp4	0.0	256.20444798469543	
54	240.66115593910217	movie	1		272	52.0	2.5	/experiments/Knapen_AOT/AOT_stimuli/rescaled_final/0533_rv.mp4	0.0	256.229207277298	2.491941213607788
54	242.2368037700653	pulse	1	t		52.0	2.5	/experiments/Knapen_AOT/AOT_stimuli/rescaled_final/0533_rv.mp4	0.0	257.8048551082611	
54	243.15309715270996	fix_post	2		12	52.0	2.5	/experiments/Knapen_AOT/AOT_stimuli/rescaled_final/0533_rv.mp4	0.0	258.72114849090576	0.10000824928283691
55	243.2531054019928	fix_pre	0		120	53.0	2.5	/experiments/Knapen_AOT/AOT_stimuli/rescaled_final/1557_fw.mp4	0.0	258.8211567401886	1.0085127353668213
55	243.83686685562134	pulse	0	t		53.0	2.5	/experiments/Knapen_AOT/AOT_stimuli/rescaled_final/1557_fw.mp4	0.0	259.40491819381714	
55	244.26161813735962	movie	1		268	53.0	2.5	/experiments/Knapen_AOT/AOT_stimuli/rescaled_final/1557_fw.mp4	0.0	259.8296694755554	2.4920339584350586
55	245.4354555606842	pulse	1	t		53.0	2.5	/experiments/Knapen_AOT/AOT_stimuli/rescaled_final/1557_fw.mp4	0.0	261.00350689888	
55	246.75365209579468	fix_post	2		12	53.0	2.5	/experiments/Knapen_AOT/AOT_stimuli/rescaled_final/1557_fw.mp4	0.0	262.3217034339905	0.10002493858337402
56	246.85367703437805	fix_pre	0		120	54.0	2.5	/experiments/Knapen_AOT/AOT_stimuli/rescaled_final/0527_rv.mp4	0.0	262.42172837257385	1.0084812641143799
56	247.03732204437256	pulse	0	t		54.0	2.5	/experiments/Knapen_AOT/AOT_stimuli/rescaled_final/0527_rv.mp4	0.0	262.60537338256836	
56	247.86215829849243	movie	1		266	54.0	2.5	/experiments/Knapen_AOT/AOT_stimuli/rescaled_final/0527_rv.mp4	0.0	263.43020963668823	2.49202561378479
56	248.63531589508057	pulse	1	t		54.0	2.5	/experiments/Knapen_AOT/AOT_stimuli/rescaled_final/0527_rv.mp4	0.0	264.20336723327637	
56	250.2360007762909	pulse	1	t		54.0	2.5	/experiments/Knapen_AOT/AOT_stimuli/rescaled_final/0527_rv.mp4	0.0	265.8040521144867	
56	250.35418391227722	fix_post	2		12	54.0	2.5	/experiments/Knapen_AOT/AOT_stimuli/rescaled_final/0527_rv.mp4	0.0	265.922235250473	0.10003495216369629
57	250.45421886444092	fix_pre	0		120	55.0	2.5	blank	1.0	266.0222702026367	1.0001614093780518
57	251.45438027381897	movie	1		300	55.0	2.5	blank	1.0	267.02243161201477	2.5003297328948975
57	251.83825087547302	pulse	1	t		55.0	2.5	blank	1.0	267.4063022136688	
57	253.4382026195526	pulse	1	t		55.0	2.5	blank	1.0	269.0062539577484	
57	253.95471000671387	fix_post	2		12	55.0	2.5	blank	1.0	269.52276134490967	0.10004234313964844
58	254.05475234985352	fix_pre	0		119	56.0	2.5	/experiments/Knapen_AOT/AOT_stimuli/rescaled_final/0056_fw.mp4	0.0	269.6228036880493	1.000279426574707
58	255.0384874343872	pulse	0	t		56.0	2.5	/experiments/Knapen_AOT/AOT_stimuli/rescaled_final/0056_fw.mp4	0.0	270.606538772583	
58	255.05503177642822	movie	1		289	56.0	2.5	/experiments/Knapen_AOT/AOT_stimuli/rescaled_final/0056_fw.mp4	0.0	270.623083114624	2.5002427101135254
58	256.63704895973206	pulse	1	t		56.0	2.5	/experiments/Knapen_AOT/AOT_stimuli/rescaled_final/0056_fw.mp4	0.0	272.20510029792786	
58	257.55527448654175	fix_post	2		12	56.0	2.5	/experiments/Knapen_AOT/AOT_stimuli/rescaled_final/0056_fw.mp4	0.0	273.12332582473755	0.10001444816589355
59	257.65528893470764	fix_pre	0		120	57.0	2.5	/experiments/Knapen_AOT/AOT_stimuli/rescaled_final/2088_rv.mp4	0.0	273.22334027290344	1.0084846019744873
59	258.23905205726624	pulse	0	t		57.0	2.5	/experiments/Knapen_AOT/AOT_stimuli/rescaled_final/2088_rv.mp4	0.0	273.80710339546204	
59	258.66377353668213	movie	1		259	57.0	2.5	/experiments/Knapen_AOT/AOT_stimuli/rescaled_final/2088_rv.mp4	0.0	274.23182487487793	2.4919981956481934
59	259.8371171951294	pulse	1	t		57.0	2.5	/experiments/Knapen_AOT/AOT_stimuli/rescaled_final/2088_rv.mp4	0.0	275.4051685333252	
59	261.1557717323303	fix_post	2		12	57.0	2.5	/experiments/Knapen_AOT/AOT_stimuli/rescaled_final/2088_rv.mp4	0.0	276.7238230705261	0.10005831718444824
60	261.25583004951477	fix_pre	0		120	58.0	2.5	/experiments/Knapen_AOT/AOT_stimuli/rescaled_final/1729_rv.mp4	0.0	276.82388138771057	1.0084669589996338
60	261.4394655227661	pulse	0	t		58.0	2.5	/experiments/Knapen_AOT/AOT_stimuli/rescaled_final/1729_rv.mp4	0.0	277.0075168609619	
60	262.2642970085144	movie	1		280	58.0	2.5	/experiments/Knapen_AOT/AOT_stimuli/rescaled_final/1729_rv.mp4	0.0	277.8323483467102	2.4922103881835938
60	263.037709236145	pulse	1	t		58.0	2.5	/experiments/Knapen_AOT/AOT_stimuli/rescaled_final/1729_rv.mp4	0.0	278.6057605743408	
60	264.6380090713501	pulse	1	t		58.0	2.5	/experiments/Knapen_AOT/AOT_stimuli/rescaled_final/1729_rv.mp4	0.0	280.2060604095459	
60	264.756507396698	fix_post	2		12	58.0	2.5	/experiments/Knapen_AOT/AOT_stimuli/rescaled_final/1729_rv.mp4	0.0	280.3245587348938	0.09987020492553711
61	264.85637760162354	fix_pre	0		120	59.0	2.5	/experiments/Knapen_AOT/AOT_stimuli/rescaled_final/0429_fw.mp4	0.0	280.42442893981934	1.0084724426269531
61	265.8648500442505	movie	1		279	59.0	2.5	/experiments/Knapen_AOT/AOT_stimuli/rescaled_final/0429_fw.mp4	0.0	281.4329013824463	2.4920289516448975
61	266.2386267185211	pulse	1	t		59.0	2.5	/experiments/Knapen_AOT/AOT_stimuli/rescaled_final/0429_fw.mp4	0.0	281.8066780567169	
61	267.83852767944336	pulse	1	t		59.0	2.5	/experiments/Knapen_AOT/AOT_stimuli/rescaled_final/0429_fw.mp4	0.0	283.40657901763916	
61	268.3568789958954	fix_post	2		12	59.0	2.5	/experiments/Knapen_AOT/AOT_stimuli/rescaled_final/0429_fw.mp4	0.0	283.9249303340912	0.10002756118774414
62	268.45690655708313	fix_pre	0		119	60.0	2.5	/experiments/Knapen_AOT/AOT_stimuli/rescaled_final/1191_rv.mp4	0.0	284.02495789527893	1.0001606941223145
62	269.4407820701599	pulse	0	t		60.0	2.5	/experiments/Knapen_AOT/AOT_stimuli/rescaled_final/1191_rv.mp4	0.0	285.0088334083557	
62	269.45706725120544	movie	1		277	60.0	2.5	/experiments/Knapen_AOT/AOT_stimuli/rescaled_final/1191_rv.mp4	0.0	285.02511858940125	2.5003786087036133
62	271.0393533706665	pulse	1	t		60.0	2.5	/experiments/Knapen_AOT/AOT_stimuli/rescaled_final/1191_rv.mp4	0.0	286.6074047088623	
62	271.95744585990906	fix_post	2		12	60.0	2.5	/experiments/Knapen_AOT/AOT_stimuli/rescaled_final/1191_rv.mp4	0.0	287.52549719810486	0.10001873970031738
63	272.0574645996094	fix_pre	0		120	61.0	2.5	blank	1.0	287.6255159378052	1.0001206398010254
63	272.6410596370697	pulse	0	t		61.0	2.5	blank	1.0	288.2091109752655	
63	273.0575852394104	movie	1		300	61.0	2.5	blank	1.0	288.6256365776062	2.5003790855407715
63	274.24144196510315	pulse	1	t		61.0	2.5	blank	1.0	289.80949330329895	
63	275.5579643249512	fix_post	2		12	61.0	2.5	blank	1.0	291.126015663147	0.10002851486206055
64	275.65799283981323	fix_pre	0		120	62.0	2.5	/experiments/Knapen_AOT/AOT_stimuli/rescaled_final/0937_rv.mp4	0.0	291.22604417800903	1.0085129737854004
64	275.8416337966919	pulse	0	t		62.0	2.5	/experiments/Knapen_AOT/AOT_stimuli/rescaled_final/0937_rv.mp4	0.0	291.4096851348877	
64	276.66650581359863	movie	1		270	62.0	2.5	/experiments/Knapen_AOT/AOT_stimuli/rescaled_final/0937_rv.mp4	0.0	292.23455715179443	2.492058038711548
64	277.4396274089813	pulse	1	t		62.0	2.5	/experiments/Knapen_AOT/AOT_stimuli/rescaled_final/0937_rv.mp4	0.0	293.0076787471771	
64	279.04041147232056	pulse	1	t		62.0	2.5	/experiments/Knapen_AOT/AOT_stimuli/rescaled_final/0937_rv.mp4	0.0	294.60846281051636	
64	279.1585638523102	fix_post	2		12	62.0	2.5	/experiments/Knapen_AOT/AOT_stimuli/rescaled_final/0937_rv.mp4	0.0	294.726615190506	0.09995603561401367
65	279.2585198879242	fix_pre	0		120	63.0	2.5	/experiments/Knapen_AOT/AOT_stimuli/rescaled_final/1687_fw.mp4	0.0	294.82657122612	1.008495569229126
65	280.2670154571533	movie	1		273	63.0	2.5	/experiments/Knapen_AOT/AOT_stimuli/rescaled_final/1687_fw.mp4	0.0	295.8350667953491	2.4920313358306885
65	280.64245223999023	pulse	1	t		63.0	2.5	/experiments/Knapen_AOT/AOT_stimuli/rescaled_final/1687_fw.mp4	0.0	296.21050357818604	
65	282.2427384853363	pulse	1	t		63.0	2.5	/experiments/Knapen_AOT/AOT_stimuli/rescaled_final/1687_fw.mp4	0.0	297.8107898235321	
65	282.759046792984	fix_post	2		12	63.0	2.5	/experiments/Knapen_AOT/AOT_stimuli/rescaled_final/1687_fw.mp4	0.0	298.3270981311798	0.10002255439758301
66	282.8590693473816	fix_pre	0		119	64.0	2.5	/experiments/Knapen_AOT/AOT_stimuli/rescaled_final/1641_rv.mp4	0.0	298.4271206855774	1.0001609325408936
66	283.83552956581116	pulse	0	t		64.0	2.5	/experiments/Knapen_AOT/AOT_stimuli/rescaled_final/1641_rv.mp4	0.0	299.40358090400696	
66	283.8592302799225	movie	1		278	64.0	2.5	/experiments/Knapen_AOT/AOT_stimuli/rescaled_final/1641_rv.mp4	0.0	299.4272816181183	2.5004031658172607
66	285.44316005706787	pulse	1	t		64.0	2.5	/experiments/Knapen_AOT/AOT_stimuli/rescaled_final/1641_rv.mp4	0.0	301.0112113952637	
66	286.35963344573975	fix_post	2		12	64.0	2.5	/experiments/Knapen_AOT/AOT_stimuli/rescaled_final/1641_rv.mp4	0.0	301.92768478393555	0.09997987747192383
67	286.45961332321167	fix_pre	0		120	65.0	2.5	/experiments/Knapen_AOT/AOT_stimuli/rescaled_final/1944_rv.mp4	0.0	302.02766466140747	1.0084764957427979
67	287.03551506996155	pulse	0	t		65.0	2.5	/experiments/Knapen_AOT/AOT_stimuli/rescaled_final/1944_rv.mp4	0.0	302.60356640815735	
67	287.46808981895447	movie	1		278	65.0	2.5	/experiments/Knapen_AOT/AOT_stimuli/rescaled_final/1944_rv.mp4	0.0	303.03614115715027	2.4921467304229736
67	288.63540720939636	pulse	1	t		65.0	2.5	/experiments/Knapen_AOT/AOT_stimuli/rescaled_final/1944_rv.mp4	0.0	304.20345854759216	
67	289.96023654937744	fix_post	2		12	65.0	2.5	/experiments/Knapen_AOT/AOT_stimuli/rescaled_final/1944_rv.mp4	0.0	305.52828788757324	0.09991049766540527
68	290.06014704704285	fix_pre	0		120	66.0	2.5	/experiments/Knapen_AOT/AOT_stimuli/rescaled_final/2154_fw.mp4	0.0	305.62819838523865	1.0085930824279785
68	290.2355010509491	pulse	0	t		66.0	2.5	/experiments/Knapen_AOT/AOT_stimuli/rescaled_final/2154_fw.mp4	0.0	305.8035523891449	
68	291.0687401294708	movie	1		269	66.0	2.5	/experiments/Knapen_AOT/AOT_stimuli/rescaled_final/2154_fw.mp4	0.0	306.6367914676666	2.4919216632843018
68	291.83587765693665	pulse	1	t		66.0	2.5	/experiments/Knapen_AOT/AOT_stimuli/rescaled_final/2154_fw.mp4	0.0	307.40392899513245	
68	293.4359748363495	pulse	1	t		66.0	2.5	/experiments/Knapen_AOT/AOT_stimuli/rescaled_final/2154_fw.mp4	0.0	309.0040261745453	
68	293.5606617927551	fix_post	2		12	66.0	2.5	/experiments/Knapen_AOT/AOT_stimuli/rescaled_final/2154_fw.mp4	0.0	309.1287131309509	0.10007357597351074
69	293.66073536872864	fix_pre	0		120	67.0	2.5	/experiments/Knapen_AOT/AOT_stimuli/rescaled_final/0310_rv.mp4	0.0	309.22878670692444	1.008474588394165
69	294.6692099571228	movie	1		272	67.0	2.5	/experiments/Knapen_AOT/AOT_stimuli/rescaled_final/0310_rv.mp4	0.0	310.2372612953186	2.492003917694092
69	295.0358338356018	pulse	1	t		67.0	2.5	/experiments/Knapen_AOT/AOT_stimuli/rescaled_final/0310_rv.mp4	0.0	310.6038851737976	
69	296.63606786727905	pulse	1	t		67.0	2.5	/experiments/Knapen_AOT/AOT_stimuli/rescaled_final/0310_rv.mp4	0.0	312.20411920547485	
69	297.1612138748169	fix_post	2		12	67.0	2.5	/experiments/Knapen_AOT/AOT_stimuli/rescaled_final/0310_rv.mp4	0.0	312.7292652130127	0.1000218391418457
70	297.26123571395874	fix_pre	0		118	68.0	2.5	/experiments/Knapen_AOT/AOT_stimuli/rescaled_final/1752_fw.mp4	0.0	312.82928705215454	0.9918367862701416
70	298.2366473674774	pulse	0	t		68.0	2.5	/experiments/Knapen_AOT/AOT_stimuli/rescaled_final/1752_fw.mp4	0.0	313.8046987056732	
70	298.2530725002289	movie	1		268	68.0	2.5	/experiments/Knapen_AOT/AOT_stimuli/rescaled_final/1752_fw.mp4	0.0	313.8211238384247	2.500392198562622
70	299.835401058197	pulse	1	t		68.0	2.5	/experiments/Knapen_AOT/AOT_stimuli/rescaled_final/1752_fw.mp4	0.0	315.4034523963928	
70	300.7534646987915	fix_post	2		12	68.0	2.5	/experiments/Knapen_AOT/AOT_stimuli/rescaled_final/1752_fw.mp4	0.0	316.3215160369873	0.10002803802490234
71	300.8534927368164	fix_pre	0		120	69.0	2.5	/experiments/Knapen_AOT/AOT_stimuli/rescaled_final/1383_rv.mp4	0.0	316.4215440750122	1.0084834098815918
71	301.43707370758057	pulse	0	t		69.0	2.5	/experiments/Knapen_AOT/AOT_stimuli/rescaled_final/1383_rv.mp4	0.0	317.00512504577637	
71	301.861976146698	movie	1		287	69.0	2.5	/experiments/Knapen_AOT/AOT_stimuli/rescaled_final/1383_rv.mp4	0.0	317.4300274848938	2.4919846057891846
71	303.03562664985657	pulse	1	t		69.0	2.5	/experiments/Knapen_AOT/AOT_stimuli/rescaled_final/1383_rv.mp4	0.0	318.60367798805237	
71	304.3539607524872	fix_post	2		12	69.0	2.5	/experiments/Knapen_AOT/AOT_stimuli/rescaled_final/1383_rv.mp4	0.0	319.922012090683	0.10002899169921875
72	304.4539897441864	fix_pre	0		120	70.0	2.5	blank	1.0	320.0220410823822	1.0001566410064697
72	304.63785576820374	pulse	0	t		70.0	2.5	blank	1.0	320.20590710639954	
72	305.45414638519287	movie	1		300	70.0	2.5	blank	1.0	321.0221977233887	2.500389575958252
72	306.23867201805115	pulse	1	t		70.0	2.5	blank	1.0	321.80672335624695	
72	307.83854937553406	pulse	1	t		70.0	2.5	blank	1.0	323.40660071372986	
72	307.9545359611511	fix_post	2		12	70.0	2.5	blank	1.0	323.5225872993469	0.09993505477905273
73	308.0544710159302	fix_pre	0		120	71.0	2.5	/experiments/Knapen_AOT/AOT_stimuli/rescaled_final/2009_fw.mp4	0.0	323.622522354126	1.008528232574463
73	309.06299924850464	movie	1		284	71.0	2.5	/experiments/Knapen_AOT/AOT_stimuli/rescaled_final/2009_fw.mp4	0.0	324.63105058670044	2.4920523166656494
73	309.4366888999939	pulse	1	t		71.0	2.5	/experiments/Knapen_AOT/AOT_stimuli/rescaled_final/2009_fw.mp4	0.0	325.0047402381897	
73	311.03691387176514	pulse	1	t		71.0	2.5	/experiments/Knapen_AOT/AOT_stimuli/rescaled_final/2009_fw.mp4	0.0	326.60496520996094	
73	311.5550515651703	fix_post	2		12	71.0	2.5	/experiments/Knapen_AOT/AOT_stimuli/rescaled_final/2009_fw.mp4	0.0	327.1231029033661	0.09999752044677734
74	311.65504908561707	fix_pre	0		119	72.0	2.5	/experiments/Knapen_AOT/AOT_stimuli/rescaled_final/0602_rv.mp4	0.0	327.22310042381287	1.0002570152282715
74	312.6388704776764	pulse	0	t		72.0	2.5	/experiments/Knapen_AOT/AOT_stimuli/rescaled_final/0602_rv.mp4	0.0	328.2069218158722	
74	312.65530610084534	movie	1		291	72.0	2.5	/experiments/Knapen_AOT/AOT_stimuli/rescaled_final/0602_rv.mp4	0.0	328.22335743904114	2.5002949237823486
74	314.2378523349762	pulse	1	t		72.0	2.5	/experiments/Knapen_AOT/AOT_stimuli/rescaled_final/0602_rv.mp4	0.0	329.805903673172	
74	315.1556010246277	fix_post	2		12	72.0	2.5	/experiments/Knapen_AOT/AOT_stimuli/rescaled_final/0602_rv.mp4	0.0	330.7236523628235	0.10001921653747559
75	315.25562024116516	fix_pre	0		120	73.0	2.5	/experiments/Knapen_AOT/AOT_stimuli/rescaled_final/1919_fw.mp4	0.0	330.82367157936096	1.0085034370422363
75	315.8392803668976	pulse	0	t		73.0	2.5	/experiments/Knapen_AOT/AOT_stimuli/rescaled_final/1919_fw.mp4	0.0	331.4073317050934	
75	316.2641236782074	movie	1		274	73.0	2.5	/experiments/Knapen_AOT/AOT_stimuli/rescaled_final/1919_fw.mp4	0.0	331.8321750164032	2.492035388946533
75	317.43771982192993	pulse	1	t		73.0	2.5	/experiments/Knapen_AOT/AOT_stimuli/rescaled_final/1919_fw.mp4	0.0	333.00577116012573	
75	318.75615906715393	fix_post	2		12	73.0	2.5	/experiments/Knapen_AOT/AOT_stimuli/rescaled_final/1919_fw.mp4	0.0	334.32421040534973	0.0999903678894043
76	318.85614943504333	fix_pre	0		120	74.0	2.5	/experiments/Knapen_AOT/AOT_stimuli/rescaled_final/0062_rv.mp4	0.0	334.42420077323914	1.0084543228149414
76	319.03977489471436	pulse	0	t		74.0	2.5	/experiments/Knapen_AOT/AOT_stimuli/rescaled_final/0062_rv.mp4	0.0	334.60782623291016	
76	319.8646037578583	movie	1		268	74.0	2.5	/experiments/Knapen_AOT/AOT_stimuli/rescaled_final/0062_rv.mp4	0.0	335.4326550960541	2.4921915531158447
76	320.6382179260254	pulse	1	t		74.0	2.5	/experiments/Knapen_AOT/AOT_stimuli/rescaled_final/0062_rv.mp4	0.0	336.2062692642212	
76	322.2382276058197	pulse	1	t		74.0	2.5	/experiments/Knapen_AOT/AOT_stimuli/rescaled_final/0062_rv.mp4	0.0	337.8062789440155	
76	322.3567953109741	fix_post	2		12	74.0	2.5	/experiments/Knapen_AOT/AOT_stimuli/rescaled_final/0062_rv.mp4	0.0	337.9248466491699	0.09988164901733398
77	322.45667695999146	fix_pre	0		120	75.0	2.5	/experiments/Knapen_AOT/AOT_stimuli/rescaled_final/1316_fw.mp4	0.0	338.02472829818726	1.0086102485656738
77	323.46528720855713	movie	1		271	75.0	2.5	/experiments/Knapen_AOT/AOT_stimuli/rescaled_final/1316_fw.mp4	0.0	339.03333854675293	2.4919261932373047
77	323.83987832069397	pulse	1	t		75.0	2.5	/experiments/Knapen_AOT/AOT_stimuli/rescaled_final/1316_fw.mp4	0.0	339.40792965888977	
77	325.4386942386627	pulse	1	t		75.0	2.5	/experiments/Knapen_AOT/AOT_stimuli/rescaled_final/1316_fw.mp4	0.0	341.0067455768585	
77	325.95721340179443	fix_post	2		12	75.0	2.5	/experiments/Knapen_AOT/AOT_stimuli/rescaled_final/1316_fw.mp4	0.0	341.52526473999023	0.10004186630249023
78	326.0572552680969	fix_pre	0		119	76.0	2.5	blank	1.0	341.6253066062927	0.9917163848876953
78	327.04094982147217	pulse	0	t		76.0	2.5	blank	1.0	342.60900115966797	
78	327.0489716529846	movie	1		301	76.0	2.5	blank	1.0	342.6170229911804	2.5088109970092773
78	328.64121174812317	pulse	1	t		76.0	2.5	blank	1.0	344.20926308631897	
78	329.5577826499939	fix_post	2		12	76.0	2.5	blank	1.0	345.1258339881897	0.09998679161071777
79	329.6577694416046	fix_pre	0		120	77.0	2.5	/experiments/Knapen_AOT/AOT_stimuli/rescaled_final/1610_rv.mp4	0.0	345.2258207798004	1.0085206031799316
79	330.24139285087585	pulse	0	t		77.0	2.5	/experiments/Knapen_AOT/AOT_stimuli/rescaled_final/1610_rv.mp4	0.0	345.80944418907166	
79	330.66629004478455	movie	1		281	77.0	2.5	/experiments/Knapen_AOT/AOT_stimuli/rescaled_final/1610_rv.mp4	0.0	346.23434138298035	2.4920403957366943
79	331.8405542373657	pulse	1	t		77.0	2.5	/experiments/Knapen_AOT/AOT_stimuli/rescaled_final/1610_rv.mp4	0.0	347.4086055755615	
79	333.15833044052124	fix_post	2		12	77.0	2.5	/experiments/Knapen_AOT/AOT_stimuli/rescaled_final/1610_rv.mp4	0.0	348.72638177871704	0.0999908447265625
80	333.2583212852478	fix_pre	0		120	78.0	2.5	/experiments/Knapen_AOT/AOT_stimuli/rescaled_final/2157_rv.mp4	0.0	348.8263726234436	1.0085124969482422
80	333.44218945503235	pulse	0	t		78.0	2.5	/experiments/Knapen_AOT/AOT_stimuli/rescaled_final/2157_rv.mp4	0.0	349.01024079322815	
80	334.26683378219604	movie	1		276	78.0	2.5	/experiments/Knapen_AOT/AOT_stimuli/rescaled_final/2157_rv.mp4	0.0	349.83488512039185	2.491990327835083
80	335.03996682167053	pulse	1	t		78.0	2.5	/experiments/Knapen_AOT/AOT_stimuli/rescaled_final/2157_rv.mp4	0.0	350.60801815986633	
80	336.64055705070496	pulse	1	t		78.0	2.5	/experiments/Knapen_AOT/AOT_stimuli/rescaled_final/2157_rv.mp4	0.0	352.20860838890076	
80	336.7588241100311	fix_post	2		12	78.0	2.5	/experiments/Knapen_AOT/AOT_stimuli/rescaled_final/2157_rv.mp4	0.0	352.32687544822693	0.1000831127166748
81	336.8589072227478	fix_pre	0		120	79.0	2.5	/experiments/Knapen_AOT/AOT_stimuli/rescaled_final/0533_rv.mp4	0.0	352.4269585609436	1.0084474086761475
81	337.86735463142395	movie	1		273	79.0	2.5	/experiments/Knapen_AOT/AOT_stimuli/rescaled_final/0533_rv.mp4	0.0	353.43540596961975	2.49204683303833
81	338.2412848472595	pulse	1	t		79.0	2.5	/experiments/Knapen_AOT/AOT_stimuli/rescaled_final/0533_rv.mp4	0.0	353.8093361854553	
81	339.8409993648529	pulse	1	t		79.0	2.5	/experiments/Knapen_AOT/AOT_stimuli/rescaled_final/0533_rv.mp4	0.0	355.4090507030487	
81	340.3594014644623	fix_post	2		12	79.0	2.5	/experiments/Knapen_AOT/AOT_stimuli/rescaled_final/0533_rv.mp4	0.0	355.9274528026581	0.10000824928283691
82	340.4594097137451	fix_pre	0		119	80.0	2.5	/experiments/Knapen_AOT/AOT_stimuli/rescaled_final/0290_rv.mp4	0.0	356.0274610519409	1.0001952648162842
82	341.43681836128235	pulse	0	t		80.0	2.5	/experiments/Knapen_AOT/AOT_stimuli/rescaled_final/0290_rv.mp4	0.0	357.00486969947815	
82	341.4596049785614	movie	1		261	80.0	2.5	/experiments/Knapen_AOT/AOT_stimuli/rescaled_final/0290_rv.mp4	0.0	357.0276563167572	2.5003161430358887
82	343.0417990684509	pulse	1	t		80.0	2.5	/experiments/Knapen_AOT/AOT_stimuli/rescaled_final/0290_rv.mp4	0.0	358.60985040664673	
82	343.9599211215973	fix_post	2		12	80.0	2.5	/experiments/Knapen_AOT/AOT_stimuli/rescaled_final/0290_rv.mp4	0.0	359.5279724597931	0.10008120536804199
83	344.06000232696533	fix_pre	0		119	81.0	2.5	/experiments/Knapen_AOT/AOT_stimuli/rescaled_final/1191_rv.mp4	0.0	359.62805366516113	1.0085296630859375
83	344.63654685020447	pulse	0	t		81.0	2.5	/experiments/Knapen_AOT/AOT_stimuli/rescaled_final/1191_rv.mp4	0.0	360.20459818840027	
83	345.06853199005127	movie	1		271	81.0	2.5	/experiments/Knapen_AOT/AOT_stimuli/rescaled_final/1191_rv.mp4	0.0	360.63658332824707	2.4919540882110596
83	346.23588037490845	pulse	1	t		81.0	2.5	/experiments/Knapen_AOT/AOT_stimuli/rescaled_final/1191_rv.mp4	0.0	361.80393171310425	
83	347.56048607826233	fix_post	2		12	81.0	2.5	/experiments/Knapen_AOT/AOT_stimuli/rescaled_final/1191_rv.mp4	0.0	363.12853741645813	0.10002946853637695
84	347.6605155467987	fix_pre	0		120	82.0	2.5	blank	1.0	363.2285668849945	1.0001211166381836
84	347.83580923080444	pulse	0	t		82.0	2.5	blank	1.0	363.40386056900024	
84	348.6606366634369	movie	1		300	82.0	2.5	blank	1.0	364.2286880016327	2.500359296798706
84	349.4362516403198	pulse	1	t		82.0	2.5	blank	1.0	365.0043029785156	
84	351.0362358093262	pulse	1	t		82.0	2.5	blank	1.0	366.604287147522	
84	351.1609959602356	fix_post	2		12	82.0	2.5	blank	1.0	366.7290472984314	0.10002613067626953
85	351.26102209091187	fix_pre	0		120	83.0	2.5	/experiments/Knapen_AOT/AOT_stimuli/rescaled_final/0104_rv.mp4	0.0	366.82907342910767	1.0085394382476807
85	352.26956152915955	movie	1		271	83.0	2.5	/experiments/Knapen_AOT/AOT_stimuli/rescaled_final/0104_rv.mp4	0.0	367.83761286735535	2.492108106613159
85	352.63653111457825	pulse	1	t		83.0	2.5	/experiments/Knapen_AOT/AOT_stimuli/rescaled_final/0104_rv.mp4	0.0	368.20458245277405	
85	354.23671317100525	pulse	1	t		83.0	2.5	/experiments/Knapen_AOT/AOT_stimuli/rescaled_final/0104_rv.mp4	0.0	369.80476450920105	
85	354.7616696357727	fix_post	2		12	83.0	2.5	/experiments/Knapen_AOT/AOT_stimuli/rescaled_final/0104_rv.mp4	0.0	370.3297209739685	0.09990334510803223
87	354.86157298088074	stim	0		1715					370.42962431907654	14.293824434280396
87	355.8373441696167	pulse	0	t						371.4053955078125	
87	357.43729543685913	pulse	0	t						373.00534677505493	
87	359.0376453399658	pulse	0	t						374.6056966781616	
87	360.6377251148224	pulse	0	t						376.2057764530182	
87	362.2380223274231	pulse	0	t						377.8060736656189	
87	363.83817076683044	pulse	0	t						379.40622210502625	
87	365.43849086761475	pulse	0	t						381.00654220581055	
87	367.0385935306549	pulse	0	t						382.6066448688507	
87	368.63886976242065	pulse	0	t						384.20692110061646	
