trial_nr	onset	event_type	phase	response	nr_frames	movie_index	movie_duration	movie_file	blank	onset_abs	duration
0	0.15813994407653809	stim	0		120					20.637706995010376	0.9999289512634277
0	1.1501638889312744	response	0	space						21.629730939865112	
1	1.1580688953399658	stim	0		4347					21.637635946273804	36.225149154663086
1	37.375736951828	pulse	0	t						57.85530400276184	
1	37.38321805000305	stim	1		1717					57.86278510093689	14.30806303024292
1	38.974963903427124	pulse	1	t						59.45453095436096	
1	40.574759006500244	pulse	1	t						61.05432605743408	
1	42.17477488517761	pulse	1	t						62.65434193611145	
1	43.77469801902771	pulse	1	t						64.25426506996155	
1	45.37473797798157	pulse	1	t						65.8543050289154	
1	46.97476506233215	pulse	1	t						67.45433211326599	
1	48.57474088668823	pulse	1	t						69.05430793762207	
1	50.174673080444336	pulse	1	t						70.65424013137817	
2	51.69128108024597	fix_pre	0		11	0.0	2.5	/experiments/AOT/AOT_stimuli/rescaled_final/2067_rv.mp4	0.0	72.17084813117981	0.0915977954864502
2	51.774770975112915	pulse	0	t		0.0	2.5	/experiments/AOT/AOT_stimuli/rescaled_final/2067_rv.mp4	0.0	72.25433802604675	
2	51.78287887573242	movie	1		244	0.0	2.5	/experiments/AOT/AOT_stimuli/rescaled_final/2067_rv.mp4	0.0	72.26244592666626	2.5084030628204346
2	53.374661922454834	pulse	1	t		0.0	2.5	/experiments/AOT/AOT_stimuli/rescaled_final/2067_rv.mp4	0.0	73.85422897338867	
2	54.291281938552856	fix_post	2		12	0.0	2.5	/experiments/AOT/AOT_stimuli/rescaled_final/2067_rv.mp4	0.0	74.7708489894867	0.10000205039978027
3	54.39128398895264	fix_pre	0		120	1.0	2.5	/experiments/AOT/AOT_stimuli/rescaled_final/1471_rv.mp4	0.0	74.87085103988647	0.9999558925628662
3	54.97468590736389	pulse	0	t		1.0	2.5	/experiments/AOT/AOT_stimuli/rescaled_final/1471_rv.mp4	0.0	75.45425295829773	
3	55.3912398815155	movie	1		243	1.0	2.5	/experiments/AOT/AOT_stimuli/rescaled_final/1471_rv.mp4	0.0	75.87080693244934	2.500119209289551
3	56.574848890304565	pulse	1	t		1.0	2.5	/experiments/AOT/AOT_stimuli/rescaled_final/1471_rv.mp4	0.0	77.0544159412384	
3	57.891359090805054	fix_post	2		12	1.0	2.5	/experiments/AOT/AOT_stimuli/rescaled_final/1471_rv.mp4	0.0	78.37092614173889	0.09990286827087402
4	57.99126195907593	fix_pre	0		120	2.0	2.5	/experiments/AOT/AOT_stimuli/rescaled_final/1395_fw.mp4	0.0	78.47082901000977	0.9998970031738281
4	58.174745082855225	pulse	0	t		2.0	2.5	/experiments/AOT/AOT_stimuli/rescaled_final/1395_fw.mp4	0.0	78.65431213378906	
4	58.991158962249756	movie	1		243	2.0	2.5	/experiments/AOT/AOT_stimuli/rescaled_final/1395_fw.mp4	0.0	79.4707260131836	2.5001220703125
4	59.77471899986267	pulse	1	t		2.0	2.5	/experiments/AOT/AOT_stimuli/rescaled_final/1395_fw.mp4	0.0	80.25428605079651	
4	61.3730149269104	pulse	1	t		2.0	2.5	/experiments/AOT/AOT_stimuli/rescaled_final/1395_fw.mp4	0.0	81.85258197784424	
4	61.491281032562256	fix_post	2		12	2.0	2.5	/experiments/AOT/AOT_stimuli/rescaled_final/1395_fw.mp4	0.0	81.9708480834961	0.09992694854736328
5	61.59120798110962	fix_pre	0		120	3.0	2.5	/experiments/AOT/AOT_stimuli/rescaled_final/0437_fw.mp4	0.0	82.07077503204346	1.0000269412994385
5	62.59123492240906	movie	1		244	3.0	2.5	/experiments/AOT/AOT_stimuli/rescaled_final/0437_fw.mp4	0.0	83.0708019733429	2.4999639987945557
5	62.9745979309082	pulse	1	t		3.0	2.5	/experiments/AOT/AOT_stimuli/rescaled_final/0437_fw.mp4	0.0	83.45416498184204	
5	64.57471704483032	pulse	1	t		3.0	2.5	/experiments/AOT/AOT_stimuli/rescaled_final/0437_fw.mp4	0.0	85.05428409576416	
5	65.09119892120361	fix_post	2		12	3.0	2.5	/experiments/AOT/AOT_stimuli/rescaled_final/0437_fw.mp4	0.0	85.57076597213745	0.0999140739440918
6	65.1911129951477	fix_pre	0		119	4.0	2.5	/experiments/AOT/AOT_stimuli/rescaled_final/0933_fw.mp4	0.0	85.67068004608154	0.9917750358581543
6	66.17472004890442	pulse	0	t		4.0	2.5	/experiments/AOT/AOT_stimuli/rescaled_final/0933_fw.mp4	0.0	86.65428709983826	
6	66.18288803100586	movie	1		247	4.0	2.5	/experiments/AOT/AOT_stimuli/rescaled_final/0933_fw.mp4	0.0	86.6624550819397	2.508296012878418
6	67.77469897270203	pulse	1	t		4.0	2.5	/experiments/AOT/AOT_stimuli/rescaled_final/0933_fw.mp4	0.0	88.25426602363586	
6	68.69118404388428	fix_post	2		12	4.0	2.5	/experiments/AOT/AOT_stimuli/rescaled_final/0933_fw.mp4	0.0	89.17075109481812	0.1000528335571289
7	68.7912368774414	fix_pre	0		120	5.0	2.5	/experiments/AOT/AOT_stimuli/rescaled_final/0748_rv.mp4	0.0	89.27080392837524	0.9998941421508789
7	69.37472605705261	pulse	0	t		5.0	2.5	/experiments/AOT/AOT_stimuli/rescaled_final/0748_rv.mp4	0.0	89.85429310798645	
7	69.79113101959229	movie	1		246	5.0	2.5	/experiments/AOT/AOT_stimuli/rescaled_final/0748_rv.mp4	0.0	90.27069807052612	2.500063896179199
7	70.97471404075623	pulse	1	t		5.0	2.5	/experiments/AOT/AOT_stimuli/rescaled_final/0748_rv.mp4	0.0	91.45428109169006	
7	72.29119491577148	fix_post	2		12	5.0	2.5	/experiments/AOT/AOT_stimuli/rescaled_final/0748_rv.mp4	0.0	92.77076196670532	0.09996795654296875
8	72.39116287231445	fix_pre	0		120	6.0	2.5	/experiments/AOT/AOT_stimuli/rescaled_final/0537_rv.mp4	0.0	92.87072992324829	0.9999511241912842
8	72.57468700408936	pulse	0	t		6.0	2.5	/experiments/AOT/AOT_stimuli/rescaled_final/0537_rv.mp4	0.0	93.0542540550232	
8	73.39111399650574	movie	1		244	6.0	2.5	/experiments/AOT/AOT_stimuli/rescaled_final/0537_rv.mp4	0.0	93.87068104743958	2.499605894088745
8	74.17467904090881	pulse	1	t		6.0	2.5	/experiments/AOT/AOT_stimuli/rescaled_final/0537_rv.mp4	0.0	94.65424609184265	
8	75.77330493927002	pulse	1	t		6.0	2.5	/experiments/AOT/AOT_stimuli/rescaled_final/0537_rv.mp4	0.0	96.25287199020386	
8	75.89071989059448	fix_post	2		12	6.0	2.5	/experiments/AOT/AOT_stimuli/rescaled_final/0537_rv.mp4	0.0	96.37028694152832	0.10042619705200195
9	75.99114608764648	fix_pre	0		120	7.0	2.5	blank	1.0	96.47071313858032	1.0000438690185547
9	76.99118995666504	movie	1		300	7.0	2.5	blank	1.0	97.47075700759888	2.499498128890991
9	77.37471795082092	pulse	1	t		7.0	2.5	blank	1.0	97.85428500175476	
9	78.97467398643494	pulse	1	t		7.0	2.5	blank	1.0	99.45424103736877	
9	79.49068808555603	fix_post	2		12	7.0	2.5	blank	1.0	99.97025513648987	0.0999748706817627
10	79.5906629562378	fix_pre	0		119	8.0	2.5	/experiments/AOT/AOT_stimuli/rescaled_final/0028_rv.mp4	0.0	100.07023000717163	0.9921269416809082
10	80.57459688186646	pulse	0	t		8.0	2.5	/experiments/AOT/AOT_stimuli/rescaled_final/0028_rv.mp4	0.0	101.0541639328003	
10	80.5827898979187	movie	1		244	8.0	2.5	/experiments/AOT/AOT_stimuli/rescaled_final/0028_rv.mp4	0.0	101.06235694885254	2.508331060409546
10	82.1744658946991	pulse	1	t		8.0	2.5	/experiments/AOT/AOT_stimuli/rescaled_final/0028_rv.mp4	0.0	102.65403294563293	
10	83.09112095832825	fix_post	2		12	8.0	2.5	/experiments/AOT/AOT_stimuli/rescaled_final/0028_rv.mp4	0.0	103.57068800926208	0.0999441146850586
11	83.1910650730133	fix_pre	0		120	9.0	2.5	/experiments/AOT/AOT_stimuli/rescaled_final/2029_rv.mp4	0.0	103.67063212394714	1.0000228881835938
11	83.77465200424194	pulse	0	t		9.0	2.5	/experiments/AOT/AOT_stimuli/rescaled_final/2029_rv.mp4	0.0	104.25421905517578	
11	84.1910879611969	movie	1		244	9.0	2.5	/experiments/AOT/AOT_stimuli/rescaled_final/2029_rv.mp4	0.0	104.67065501213074	2.4999139308929443
11	85.374685049057	pulse	1	t		9.0	2.5	/experiments/AOT/AOT_stimuli/rescaled_final/2029_rv.mp4	0.0	105.85425209999084	
11	86.69100189208984	fix_post	2		12	9.0	2.5	/experiments/AOT/AOT_stimuli/rescaled_final/2029_rv.mp4	0.0	107.17056894302368	0.10010004043579102
12	86.79110193252563	fix_pre	0		120	10.0	2.5	/experiments/AOT/AOT_stimuli/rescaled_final/1850_rv.mp4	0.0	107.27066898345947	0.9999380111694336
12	86.97452807426453	pulse	0	t		10.0	2.5	/experiments/AOT/AOT_stimuli/rescaled_final/1850_rv.mp4	0.0	107.45409512519836	
12	87.79103994369507	movie	1		242	10.0	2.5	/experiments/AOT/AOT_stimuli/rescaled_final/1850_rv.mp4	0.0	108.2706069946289	2.499630928039551
12	88.57468295097351	pulse	1	t		10.0	2.5	/experiments/AOT/AOT_stimuli/rescaled_final/1850_rv.mp4	0.0	109.05425000190735	
12	90.17318105697632	pulse	1	t		10.0	2.5	/experiments/AOT/AOT_stimuli/rescaled_final/1850_rv.mp4	0.0	110.65274810791016	
12	90.29067087173462	fix_post	2		12	10.0	2.5	/experiments/AOT/AOT_stimuli/rescaled_final/1850_rv.mp4	0.0	110.77023792266846	0.09992504119873047
13	90.39059591293335	fix_pre	0		120	11.0	2.5	/experiments/AOT/AOT_stimuli/rescaled_final/0841_fw.mp4	0.0	110.87016296386719	1.0001020431518555
13	91.3906979560852	movie	1		249	11.0	2.5	/experiments/AOT/AOT_stimuli/rescaled_final/0841_fw.mp4	0.0	111.87026500701904	2.500399112701416
13	91.77381300926208	pulse	1	t		11.0	2.5	/experiments/AOT/AOT_stimuli/rescaled_final/0841_fw.mp4	0.0	112.25338006019592	
13	93.37453699111938	pulse	1	t		11.0	2.5	/experiments/AOT/AOT_stimuli/rescaled_final/0841_fw.mp4	0.0	113.85410404205322	
13	93.89109706878662	fix_post	2		12	11.0	2.5	/experiments/AOT/AOT_stimuli/rescaled_final/0841_fw.mp4	0.0	114.37066411972046	0.09994888305664062
14	93.99104595184326	fix_pre	0		119	12.0	2.5	blank	1.0	114.4706130027771	0.9917471408843994
14	94.9745409488678	pulse	0	t		12.0	2.5	blank	1.0	115.45410799980164	
14	94.98279309272766	movie	1		301	12.0	2.5	blank	1.0	115.4623601436615	2.508206844329834
14	96.57458090782166	pulse	1	t		12.0	2.5	blank	1.0	117.0541479587555	
14	97.4909999370575	fix_post	2		12	12.0	2.5	blank	1.0	117.97056698799133	0.10003209114074707
15	97.59103202819824	fix_pre	0		120	13.0	2.5	/experiments/AOT/AOT_stimuli/rescaled_final/2162_fw.mp4	0.0	118.07059907913208	0.9999279975891113
15	98.17463207244873	pulse	0	t		13.0	2.5	/experiments/AOT/AOT_stimuli/rescaled_final/2162_fw.mp4	0.0	118.65419912338257	
15	98.59096002578735	movie	1		242	13.0	2.5	/experiments/AOT/AOT_stimuli/rescaled_final/2162_fw.mp4	0.0	119.07052707672119	2.500051975250244
15	99.77461886405945	pulse	1	t		13.0	2.5	/experiments/AOT/AOT_stimuli/rescaled_final/2162_fw.mp4	0.0	120.25418591499329	
15	101.0910120010376	fix_post	2		12	13.0	2.5	/experiments/AOT/AOT_stimuli/rescaled_final/2162_fw.mp4	0.0	121.57057905197144	0.09994792938232422
16	101.19095993041992	fix_pre	0		120	14.0	2.5	/experiments/AOT/AOT_stimuli/rescaled_final/1303_rv.mp4	0.0	121.67052698135376	0.9999799728393555
16	101.37448692321777	pulse	0	t		14.0	2.5	/experiments/AOT/AOT_stimuli/rescaled_final/1303_rv.mp4	0.0	121.85405397415161	
16	102.19093990325928	movie	1		243	14.0	2.5	/experiments/AOT/AOT_stimuli/rescaled_final/1303_rv.mp4	0.0	122.67050695419312	2.499994993209839
16	102.97470307350159	pulse	1	t		14.0	2.5	/experiments/AOT/AOT_stimuli/rescaled_final/1303_rv.mp4	0.0	123.45427012443542	
16	104.57296204566956	pulse	1	t		14.0	2.5	/experiments/AOT/AOT_stimuli/rescaled_final/1303_rv.mp4	0.0	125.0525290966034	
16	104.69093489646912	fix_post	2		12	14.0	2.5	/experiments/AOT/AOT_stimuli/rescaled_final/1303_rv.mp4	0.0	125.17050194740295	0.09998416900634766
17	104.79091906547546	fix_pre	0		120	15.0	2.5	/experiments/AOT/AOT_stimuli/rescaled_final/0234_fw.mp4	0.0	125.2704861164093	1.0000648498535156
17	105.79098391532898	movie	1		245	15.0	2.5	/experiments/AOT/AOT_stimuli/rescaled_final/0234_fw.mp4	0.0	126.27055096626282	2.500091075897217
17	106.17423796653748	pulse	1	t		15.0	2.5	/experiments/AOT/AOT_stimuli/rescaled_final/0234_fw.mp4	0.0	126.65380501747131	
17	107.77432990074158	pulse	1	t		15.0	2.5	/experiments/AOT/AOT_stimuli/rescaled_final/0234_fw.mp4	0.0	128.25389695167542	
17	108.2910749912262	fix_post	2		12	15.0	2.5	/experiments/AOT/AOT_stimuli/rescaled_final/0234_fw.mp4	0.0	128.77064204216003	0.09998393058776855
18	108.39105892181396	fix_pre	0		119	16.0	2.5	/experiments/AOT/AOT_stimuli/rescaled_final/0838_fw.mp4	0.0	128.8706259727478	0.9915211200714111
18	109.37448501586914	pulse	0	t		16.0	2.5	/experiments/AOT/AOT_stimuli/rescaled_final/0838_fw.mp4	0.0	129.85405206680298	
18	109.38258004188538	movie	1		245	16.0	2.5	/experiments/AOT/AOT_stimuli/rescaled_final/0838_fw.mp4	0.0	129.8621470928192	2.5083889961242676
18	110.9742488861084	pulse	1	t		16.0	2.5	/experiments/AOT/AOT_stimuli/rescaled_final/0838_fw.mp4	0.0	131.45381593704224	
18	111.89096903800964	fix_post	2		12	16.0	2.5	/experiments/AOT/AOT_stimuli/rescaled_final/0838_fw.mp4	0.0	132.37053608894348	0.09996986389160156
19	111.99093890190125	fix_pre	0		120	17.0	2.5	/experiments/AOT/AOT_stimuli/rescaled_final/0209_rv.mp4	0.0	132.47050595283508	0.9999871253967285
19	112.57442903518677	pulse	0	t		17.0	2.5	/experiments/AOT/AOT_stimuli/rescaled_final/0209_rv.mp4	0.0	133.0539960861206	
19	112.99092602729797	movie	1		246	17.0	2.5	/experiments/AOT/AOT_stimuli/rescaled_final/0209_rv.mp4	0.0	133.4704930782318	2.4999868869781494
19	114.17457509040833	pulse	1	t		17.0	2.5	/experiments/AOT/AOT_stimuli/rescaled_final/0209_rv.mp4	0.0	134.65414214134216	
19	115.49091291427612	fix_post	2		12	17.0	2.5	/experiments/AOT/AOT_stimuli/rescaled_final/0209_rv.mp4	0.0	135.97047996520996	0.10003805160522461
20	115.59095096588135	fix_pre	0		120	18.0	2.5	/experiments/AOT/AOT_stimuli/rescaled_final/1927_fw.mp4	0.0	136.07051801681519	0.9999830722808838
20	115.77452492713928	pulse	0	t		18.0	2.5	/experiments/AOT/AOT_stimuli/rescaled_final/1927_fw.mp4	0.0	136.25409197807312	
20	116.59093403816223	movie	1		246	18.0	2.5	/experiments/AOT/AOT_stimuli/rescaled_final/1927_fw.mp4	0.0	137.07050108909607	2.499650001525879
20	117.37445402145386	pulse	1	t		18.0	2.5	/experiments/AOT/AOT_stimuli/rescaled_final/1927_fw.mp4	0.0	137.8540210723877	
20	118.97312593460083	pulse	1	t		18.0	2.5	/experiments/AOT/AOT_stimuli/rescaled_final/1927_fw.mp4	0.0	139.45269298553467	
20	119.09058403968811	fix_post	2		12	18.0	2.5	/experiments/AOT/AOT_stimuli/rescaled_final/1927_fw.mp4	0.0	139.57015109062195	0.10032391548156738
21	119.19090795516968	fix_pre	0		120	19.0	2.5	/experiments/AOT/AOT_stimuli/rescaled_final/0065_rv.mp4	0.0	139.67047500610352	0.9999980926513672
21	120.19090604782104	movie	1		244	19.0	2.5	/experiments/AOT/AOT_stimuli/rescaled_final/0065_rv.mp4	0.0	140.67047309875488	2.4999518394470215
21	120.57393908500671	pulse	1	t		19.0	2.5	/experiments/AOT/AOT_stimuli/rescaled_final/0065_rv.mp4	0.0	141.05350613594055	
21	122.17440605163574	pulse	1	t		19.0	2.5	/experiments/AOT/AOT_stimuli/rescaled_final/0065_rv.mp4	0.0	142.65397310256958	
21	122.69085788726807	fix_post	2		12	19.0	2.5	/experiments/AOT/AOT_stimuli/rescaled_final/0065_rv.mp4	0.0	143.1704249382019	0.10004019737243652
22	122.7908980846405	fix_pre	0		119	20.0	2.5	blank	1.0	143.27046513557434	0.9916648864746094
22	123.77440905570984	pulse	0	t		20.0	2.5	blank	1.0	144.25397610664368	
22	123.78256297111511	movie	1		301	20.0	2.5	blank	1.0	144.26213002204895	2.5082430839538574
22	125.37438893318176	pulse	1	t		20.0	2.5	blank	1.0	145.8539559841156	
22	126.29080605506897	fix_post	2		12	20.0	2.5	blank	1.0	146.7703731060028	0.10004401206970215
23	126.39085006713867	fix_pre	0		120	21.0	2.5	/experiments/AOT/AOT_stimuli/rescaled_final/0013_fw.mp4	0.0	146.8704171180725	0.9999678134918213
23	126.97443795204163	pulse	0	t		21.0	2.5	/experiments/AOT/AOT_stimuli/rescaled_final/0013_fw.mp4	0.0	147.45400500297546	
23	127.3908178806305	movie	1		246	21.0	2.5	/experiments/AOT/AOT_stimuli/rescaled_final/0013_fw.mp4	0.0	147.87038493156433	2.4996540546417236
23	128.57441997528076	pulse	1	t		21.0	2.5	/experiments/AOT/AOT_stimuli/rescaled_final/0013_fw.mp4	0.0	149.0539870262146	
23	129.89047193527222	fix_post	2		12	21.0	2.5	/experiments/AOT/AOT_stimuli/rescaled_final/0013_fw.mp4	0.0	150.37003898620605	0.1004190444946289
24	129.99089097976685	fix_pre	0		120	22.0	2.5	/experiments/AOT/AOT_stimuli/rescaled_final/0771_rv.mp4	0.0	150.47045803070068	0.9999840259552002
24	130.17442297935486	pulse	0	t		22.0	2.5	/experiments/AOT/AOT_stimuli/rescaled_final/0771_rv.mp4	0.0	150.6539900302887	
24	130.99087500572205	movie	1		246	22.0	2.5	/experiments/AOT/AOT_stimuli/rescaled_final/0771_rv.mp4	0.0	151.47044205665588	2.4999918937683105
24	131.7743809223175	pulse	1	t		22.0	2.5	/experiments/AOT/AOT_stimuli/rescaled_final/0771_rv.mp4	0.0	152.25394797325134	
24	133.3727159500122	pulse	1	t		22.0	2.5	/experiments/AOT/AOT_stimuli/rescaled_final/0771_rv.mp4	0.0	153.85228300094604	
24	133.49086689949036	fix_post	2		12	22.0	2.5	/experiments/AOT/AOT_stimuli/rescaled_final/0771_rv.mp4	0.0	153.9704339504242	0.09997916221618652
25	133.59084606170654	fix_pre	0		120	23.0	2.5	/experiments/AOT/AOT_stimuli/rescaled_final/1110_rv.mp4	0.0	154.07041311264038	1.0000109672546387
25	134.59085702896118	movie	1		243	23.0	2.5	/experiments/AOT/AOT_stimuli/rescaled_final/1110_rv.mp4	0.0	155.07042407989502	2.5000410079956055
25	134.97422003746033	pulse	1	t		23.0	2.5	/experiments/AOT/AOT_stimuli/rescaled_final/1110_rv.mp4	0.0	155.45378708839417	
25	136.57433009147644	pulse	1	t		23.0	2.5	/experiments/AOT/AOT_stimuli/rescaled_final/1110_rv.mp4	0.0	157.05389714241028	
25	137.0908980369568	fix_post	2		12	23.0	2.5	/experiments/AOT/AOT_stimuli/rescaled_final/1110_rv.mp4	0.0	157.57046508789062	0.10004591941833496
26	137.19094395637512	fix_pre	0		119	24.0	2.5	/experiments/AOT/AOT_stimuli/rescaled_final/1221_rv.mp4	0.0	157.67051100730896	0.9916269779205322
26	138.17433309555054	pulse	0	t		24.0	2.5	/experiments/AOT/AOT_stimuli/rescaled_final/1221_rv.mp4	0.0	158.65390014648438	
26	138.18257093429565	movie	1		244	24.0	2.5	/experiments/AOT/AOT_stimuli/rescaled_final/1221_rv.mp4	0.0	158.6621379852295	2.5082380771636963
26	139.77400588989258	pulse	1	t		24.0	2.5	/experiments/AOT/AOT_stimuli/rescaled_final/1221_rv.mp4	0.0	160.25357294082642	
26	140.69080901145935	fix_post	2		12	24.0	2.5	/experiments/AOT/AOT_stimuli/rescaled_final/1221_rv.mp4	0.0	161.1703760623932	0.09992599487304688
27	140.7907350063324	fix_pre	0		120	25.0	2.5	/experiments/AOT/AOT_stimuli/rescaled_final/0427_rv.mp4	0.0	161.27030205726624	1.0001070499420166
27	141.37429904937744	pulse	0	t		25.0	2.5	/experiments/AOT/AOT_stimuli/rescaled_final/0427_rv.mp4	0.0	161.85386610031128	
27	141.7908420562744	movie	1		243	25.0	2.5	/experiments/AOT/AOT_stimuli/rescaled_final/0427_rv.mp4	0.0	162.27040910720825	2.500027894973755
27	142.9744999408722	pulse	1	t		25.0	2.5	/experiments/AOT/AOT_stimuli/rescaled_final/0427_rv.mp4	0.0	163.45406699180603	
27	144.29086995124817	fix_post	2		12	25.0	2.5	/experiments/AOT/AOT_stimuli/rescaled_final/0427_rv.mp4	0.0	164.770437002182	0.09995412826538086
28	144.39082407951355	fix_pre	0		120	26.0	2.5	/experiments/AOT/AOT_stimuli/rescaled_final/0144_rv.mp4	0.0	164.8703911304474	1.0000348091125488
28	144.5745050907135	pulse	0	t		26.0	2.5	/experiments/AOT/AOT_stimuli/rescaled_final/0144_rv.mp4	0.0	165.05407214164734	
28	145.3908588886261	movie	1		245	26.0	2.5	/experiments/AOT/AOT_stimuli/rescaled_final/0144_rv.mp4	0.0	165.87042593955994	2.5001091957092285
28	146.17383098602295	pulse	1	t		26.0	2.5	/experiments/AOT/AOT_stimuli/rescaled_final/0144_rv.mp4	0.0	166.6533980369568	
28	147.77215600013733	pulse	1	t		26.0	2.5	/experiments/AOT/AOT_stimuli/rescaled_final/0144_rv.mp4	0.0	168.25172305107117	
28	147.89096808433533	fix_post	2		12	26.0	2.5	/experiments/AOT/AOT_stimuli/rescaled_final/0144_rv.mp4	0.0	168.37053513526917	0.09993791580200195
29	147.99090600013733	fix_pre	0		120	27.0	2.5	blank	1.0	168.47047305107117	1.0002000331878662
29	148.9911060333252	movie	1		300	27.0	2.5	blank	1.0	169.47067308425903	2.4997129440307617
29	149.3741910457611	pulse	1	t		27.0	2.5	blank	1.0	169.85375809669495	
29	150.97420501708984	pulse	1	t		27.0	2.5	blank	1.0	171.45377206802368	
29	151.49081897735596	fix_post	2		12	27.0	2.5	blank	1.0	171.9703860282898	0.10005903244018555
30	151.59087800979614	fix_pre	0		119	28.0	2.5	/experiments/AOT/AOT_stimuli/rescaled_final/2154_fw.mp4	0.0	172.07044506072998	0.9915890693664551
30	152.57423901557922	pulse	0	t		28.0	2.5	/experiments/AOT/AOT_stimuli/rescaled_final/2154_fw.mp4	0.0	173.05380606651306	
30	152.5824670791626	movie	1		250	28.0	2.5	/experiments/AOT/AOT_stimuli/rescaled_final/2154_fw.mp4	0.0	173.06203413009644	2.507880926132202
30	154.17387890815735	pulse	1	t		28.0	2.5	/experiments/AOT/AOT_stimuli/rescaled_final/2154_fw.mp4	0.0	174.6534459590912	
30	155.0903480052948	fix_post	2		12	28.0	2.5	/experiments/AOT/AOT_stimuli/rescaled_final/2154_fw.mp4	0.0	175.56991505622864	0.10044693946838379
31	155.19079494476318	fix_pre	0		120	29.0	2.5	/experiments/AOT/AOT_stimuli/rescaled_final/1164_rv.mp4	0.0	175.67036199569702	0.9999270439147949
31	155.77546000480652	pulse	0	t		29.0	2.5	/experiments/AOT/AOT_stimuli/rescaled_final/1164_rv.mp4	0.0	176.25502705574036	
31	156.19072198867798	movie	1		245	29.0	2.5	/experiments/AOT/AOT_stimuli/rescaled_final/1164_rv.mp4	0.0	176.67028903961182	2.5000150203704834
31	157.37422394752502	pulse	1	t		29.0	2.5	/experiments/AOT/AOT_stimuli/rescaled_final/1164_rv.mp4	0.0	177.85379099845886	
31	158.69073700904846	fix_post	2		12	29.0	2.5	/experiments/AOT/AOT_stimuli/rescaled_final/1164_rv.mp4	0.0	179.1703040599823	0.10000205039978027
32	158.79073905944824	fix_pre	0		120	30.0	2.5	/experiments/AOT/AOT_stimuli/rescaled_final/1423_fw.mp4	0.0	179.27030611038208	0.9999508857727051
32	158.9741449356079	pulse	0	t		30.0	2.5	/experiments/AOT/AOT_stimuli/rescaled_final/1423_fw.mp4	0.0	179.45371198654175	
32	159.79068994522095	movie	1		243	30.0	2.5	/experiments/AOT/AOT_stimuli/rescaled_final/1423_fw.mp4	0.0	180.27025699615479	2.4995651245117188
32	160.5742130279541	pulse	1	t		30.0	2.5	/experiments/AOT/AOT_stimuli/rescaled_final/1423_fw.mp4	0.0	181.05378007888794	
32	162.17246794700623	pulse	1	t		30.0	2.5	/experiments/AOT/AOT_stimuli/rescaled_final/1423_fw.mp4	0.0	182.65203499794006	
32	162.29025506973267	fix_post	2		12	30.0	2.5	/experiments/AOT/AOT_stimuli/rescaled_final/1423_fw.mp4	0.0	182.7698221206665	0.10047101974487305
33	162.39072608947754	fix_pre	0		120	31.0	2.5	/experiments/AOT/AOT_stimuli/rescaled_final/1361_fw.mp4	0.0	182.87029314041138	0.999971866607666
33	163.3906979560852	movie	1		243	31.0	2.5	/experiments/AOT/AOT_stimuli/rescaled_final/1361_fw.mp4	0.0	183.87026500701904	2.499572992324829
33	163.77367997169495	pulse	1	t		31.0	2.5	/experiments/AOT/AOT_stimuli/rescaled_final/1361_fw.mp4	0.0	184.25324702262878	
33	165.37420201301575	pulse	1	t		31.0	2.5	/experiments/AOT/AOT_stimuli/rescaled_final/1361_fw.mp4	0.0	185.85376906394958	
33	165.89027094841003	fix_post	2		12	31.0	2.5	/experiments/AOT/AOT_stimuli/rescaled_final/1361_fw.mp4	0.0	186.36983799934387	0.10037493705749512
34	165.99064588546753	fix_pre	0		119	32.0	2.5	/experiments/AOT/AOT_stimuli/rescaled_final/0537_rv.mp4	0.0	186.47021293640137	0.9916770458221436
34	166.9742889404297	pulse	0	t		32.0	2.5	/experiments/AOT/AOT_stimuli/rescaled_final/0537_rv.mp4	0.0	187.45385599136353	
34	166.98232293128967	movie	1		245	32.0	2.5	/experiments/AOT/AOT_stimuli/rescaled_final/0537_rv.mp4	0.0	187.4618899822235	2.508273124694824
34	168.57386088371277	pulse	1	t		32.0	2.5	/experiments/AOT/AOT_stimuli/rescaled_final/0537_rv.mp4	0.0	189.0534279346466	
34	169.4905960559845	fix_post	2		12	32.0	2.5	/experiments/AOT/AOT_stimuli/rescaled_final/0537_rv.mp4	0.0	189.97016310691833	0.10012483596801758
35	169.59072089195251	fix_pre	0		120	33.0	2.5	/experiments/AOT/AOT_stimuli/rescaled_final/0964_fw.mp4	0.0	190.07028794288635	0.9999091625213623
35	170.17415809631348	pulse	0	t		33.0	2.5	/experiments/AOT/AOT_stimuli/rescaled_final/0964_fw.mp4	0.0	190.65372514724731	
35	170.59063005447388	movie	1		243	33.0	2.5	/experiments/AOT/AOT_stimuli/rescaled_final/0964_fw.mp4	0.0	191.07019710540771	2.500046968460083
35	171.77421307563782	pulse	1	t		33.0	2.5	/experiments/AOT/AOT_stimuli/rescaled_final/0964_fw.mp4	0.0	192.25378012657166	
35	173.09067702293396	fix_post	2		12	33.0	2.5	/experiments/AOT/AOT_stimuli/rescaled_final/0964_fw.mp4	0.0	193.5702440738678	0.09995102882385254
36	173.1906280517578	fix_pre	0		120	34.0	2.5	/experiments/AOT/AOT_stimuli/rescaled_final/2154_rv.mp4	0.0	193.67019510269165	1.0000410079956055
36	173.3741159439087	pulse	0	t		34.0	2.5	/experiments/AOT/AOT_stimuli/rescaled_final/2154_rv.mp4	0.0	193.85368299484253	
36	174.19066905975342	movie	1		244	34.0	2.5	/experiments/AOT/AOT_stimuli/rescaled_final/2154_rv.mp4	0.0	194.67023611068726	2.4999279975891113
36	174.9740378856659	pulse	1	t		34.0	2.5	/experiments/AOT/AOT_stimuli/rescaled_final/2154_rv.mp4	0.0	195.45360493659973	
36	176.57288098335266	pulse	1	t		34.0	2.5	/experiments/AOT/AOT_stimuli/rescaled_final/2154_rv.mp4	0.0	197.0524480342865	
36	176.69059705734253	fix_post	2		12	34.0	2.5	/experiments/AOT/AOT_stimuli/rescaled_final/2154_rv.mp4	0.0	197.17016410827637	0.10005402565002441
37	176.79065108299255	fix_pre	0		120	35.0	2.5	blank	1.0	197.2702181339264	1.0002079010009766
37	177.79085898399353	movie	1		300	35.0	2.5	blank	1.0	198.27042603492737	2.4998068809509277
37	178.17415189743042	pulse	1	t		35.0	2.5	blank	1.0	198.65371894836426	
37	179.77421188354492	pulse	1	t		35.0	2.5	blank	1.0	200.25377893447876	
37	180.29066586494446	fix_post	2		12	35.0	2.5	blank	1.0	200.7702329158783	0.09995603561401367
38	180.39062190055847	fix_pre	0		119	36.0	2.5	/experiments/AOT/AOT_stimuli/rescaled_final/1507_rv.mp4	0.0	200.8701889514923	0.9917161464691162
38	181.37412309646606	pulse	0	t		36.0	2.5	/experiments/AOT/AOT_stimuli/rescaled_final/1507_rv.mp4	0.0	201.8536901473999	
38	181.3823380470276	movie	1		247	36.0	2.5	/experiments/AOT/AOT_stimuli/rescaled_final/1507_rv.mp4	0.0	201.86190509796143	2.5083398818969727
38	182.97423005104065	pulse	1	t		36.0	2.5	/experiments/AOT/AOT_stimuli/rescaled_final/1507_rv.mp4	0.0	203.4537971019745	
38	183.89067792892456	fix_post	2		12	36.0	2.5	/experiments/AOT/AOT_stimuli/rescaled_final/1507_rv.mp4	0.0	204.3702449798584	0.0999751091003418
39	183.9906530380249	fix_pre	0		120	37.0	2.5	/experiments/AOT/AOT_stimuli/rescaled_final/1917_rv.mp4	0.0	204.47022008895874	0.9999730587005615
39	184.57414197921753	pulse	0	t		37.0	2.5	/experiments/AOT/AOT_stimuli/rescaled_final/1917_rv.mp4	0.0	205.05370903015137	
39	184.99062609672546	movie	1		245	37.0	2.5	/experiments/AOT/AOT_stimuli/rescaled_final/1917_rv.mp4	0.0	205.4701931476593	2.499929904937744
39	186.17411589622498	pulse	1	t		37.0	2.5	/experiments/AOT/AOT_stimuli/rescaled_final/1917_rv.mp4	0.0	206.6536829471588	
39	187.4905560016632	fix_post	2		12	37.0	2.5	/experiments/AOT/AOT_stimuli/rescaled_final/1917_rv.mp4	0.0	207.97012305259705	0.10004591941833496
40	187.59060192108154	fix_pre	0		120	38.0	2.5	/experiments/AOT/AOT_stimuli/rescaled_final/1221_fw.mp4	0.0	208.07016897201538	0.9999949932098389
40	187.77403593063354	pulse	0	t		38.0	2.5	/experiments/AOT/AOT_stimuli/rescaled_final/1221_fw.mp4	0.0	208.25360298156738	
40	188.59059691429138	movie	1		243	38.0	2.5	/experiments/AOT/AOT_stimuli/rescaled_final/1221_fw.mp4	0.0	209.07016396522522	2.4999501705169678
40	189.37410807609558	pulse	1	t		38.0	2.5	/experiments/AOT/AOT_stimuli/rescaled_final/1221_fw.mp4	0.0	209.85367512702942	
40	190.97234106063843	pulse	1	t		38.0	2.5	/experiments/AOT/AOT_stimuli/rescaled_final/1221_fw.mp4	0.0	211.45190811157227	
40	191.09054708480835	fix_post	2		12	38.0	2.5	/experiments/AOT/AOT_stimuli/rescaled_final/1221_fw.mp4	0.0	211.5701141357422	0.09997892379760742
41	191.19052600860596	fix_pre	0		120	39.0	2.5	/experiments/AOT/AOT_stimuli/rescaled_final/0380_fw.mp4	0.0	211.6700930595398	1.000020980834961
41	192.19054698944092	movie	1		242	39.0	2.5	/experiments/AOT/AOT_stimuli/rescaled_final/0380_fw.mp4	0.0	212.67011404037476	2.4999489784240723
41	192.5737760066986	pulse	1	t		39.0	2.5	/experiments/AOT/AOT_stimuli/rescaled_final/0380_fw.mp4	0.0	213.05334305763245	
41	194.17404699325562	pulse	1	t		39.0	2.5	/experiments/AOT/AOT_stimuli/rescaled_final/0380_fw.mp4	0.0	214.65361404418945	
41	194.690495967865	fix_post	2		12	39.0	2.5	/experiments/AOT/AOT_stimuli/rescaled_final/0380_fw.mp4	0.0	215.17006301879883	0.10003995895385742
42	194.79053592681885	fix_pre	0		119	40.0	2.5	/experiments/AOT/AOT_stimuli/rescaled_final/1423_rv.mp4	0.0	215.27010297775269	0.9916350841522217
42	195.77412295341492	pulse	0	t		40.0	2.5	/experiments/AOT/AOT_stimuli/rescaled_final/1423_rv.mp4	0.0	216.25369000434875	
42	195.78217101097107	movie	1		244	40.0	2.5	/experiments/AOT/AOT_stimuli/rescaled_final/1423_rv.mp4	0.0	216.2617380619049	2.508363962173462
42	197.37381792068481	pulse	1	t		40.0	2.5	/experiments/AOT/AOT_stimuli/rescaled_final/1423_rv.mp4	0.0	217.85338497161865	
42	198.29053497314453	fix_post	2		12	40.0	2.5	/experiments/AOT/AOT_stimuli/rescaled_final/1423_rv.mp4	0.0	218.77010202407837	0.09993100166320801
43	198.39046597480774	fix_pre	0		120	41.0	2.5	blank	1.0	218.87003302574158	1.0000391006469727
43	198.97408390045166	pulse	0	t		41.0	2.5	blank	1.0	219.4536509513855	
43	199.3905050754547	movie	1		300	41.0	2.5	blank	1.0	219.87007212638855	2.500079870223999
43	200.5740840435028	pulse	1	t		41.0	2.5	blank	1.0	221.05365109443665	
43	201.8905849456787	fix_post	2		12	41.0	2.5	blank	1.0	222.37015199661255	0.09993410110473633
44	201.99051904678345	fix_pre	0		120	42.0	2.5	/experiments/AOT/AOT_stimuli/rescaled_final/0355_fw.mp4	0.0	222.47008609771729	0.9995839595794678
44	202.17403388023376	pulse	0	t		42.0	2.5	/experiments/AOT/AOT_stimuli/rescaled_final/0355_fw.mp4	0.0	222.6536009311676	
44	202.99010300636292	movie	1		246	42.0	2.5	/experiments/AOT/AOT_stimuli/rescaled_final/0355_fw.mp4	0.0	223.46967005729675	2.5003859996795654
44	203.774071931839	pulse	1	t		42.0	2.5	/experiments/AOT/AOT_stimuli/rescaled_final/0355_fw.mp4	0.0	224.25363898277283	
44	205.37399005889893	pulse	1	t		42.0	2.5	/experiments/AOT/AOT_stimuli/rescaled_final/0355_fw.mp4	0.0	225.85355710983276	
44	205.49048900604248	fix_post	2		12	42.0	2.5	/experiments/AOT/AOT_stimuli/rescaled_final/0355_fw.mp4	0.0	225.97005605697632	0.09998106956481934
45	205.5904700756073	fix_pre	0		120	43.0	2.5	/experiments/AOT/AOT_stimuli/rescaled_final/2001_fw.mp4	0.0	226.07003712654114	1.0000720024108887
45	206.5905420780182	movie	1		245	43.0	2.5	/experiments/AOT/AOT_stimuli/rescaled_final/2001_fw.mp4	0.0	227.07010912895203	2.4999828338623047
45	206.97361207008362	pulse	1	t		43.0	2.5	/experiments/AOT/AOT_stimuli/rescaled_final/2001_fw.mp4	0.0	227.45317912101746	
45	208.57393407821655	pulse	1	t		43.0	2.5	/experiments/AOT/AOT_stimuli/rescaled_final/2001_fw.mp4	0.0	229.0535011291504	
45	209.0905249118805	fix_post	2		12	43.0	2.5	/experiments/AOT/AOT_stimuli/rescaled_final/2001_fw.mp4	0.0	229.57009196281433	0.09997797012329102
46	209.19050288200378	fix_pre	0		119	44.0	2.5	/experiments/AOT/AOT_stimuli/rescaled_final/0825_fw.mp4	0.0	229.67006993293762	0.9916760921478271
46	210.17391800880432	pulse	0	t		44.0	2.5	/experiments/AOT/AOT_stimuli/rescaled_final/0825_fw.mp4	0.0	230.65348505973816	
46	210.1821789741516	movie	1		244	44.0	2.5	/experiments/AOT/AOT_stimuli/rescaled_final/0825_fw.mp4	0.0	230.66174602508545	2.508273124694824
46	211.77515602111816	pulse	1	t		44.0	2.5	/experiments/AOT/AOT_stimuli/rescaled_final/0825_fw.mp4	0.0	232.254723072052	
46	212.69045209884644	fix_post	2		12	44.0	2.5	/experiments/AOT/AOT_stimuli/rescaled_final/0825_fw.mp4	0.0	233.17001914978027	0.09991979598999023
47	212.79037189483643	fix_pre	0		120	45.0	2.5	/experiments/AOT/AOT_stimuli/rescaled_final/0484_fw.mp4	0.0	233.26993894577026	0.999675989151001
47	213.3739459514618	pulse	0	t		45.0	2.5	/experiments/AOT/AOT_stimuli/rescaled_final/0484_fw.mp4	0.0	233.85351300239563	
47	213.79004788398743	movie	1		245	45.0	2.5	/experiments/AOT/AOT_stimuli/rescaled_final/0484_fw.mp4	0.0	234.26961493492126	2.5004231929779053
47	214.9739909172058	pulse	1	t		45.0	2.5	/experiments/AOT/AOT_stimuli/rescaled_final/0484_fw.mp4	0.0	235.45355796813965	
47	216.29047107696533	fix_post	2		12	45.0	2.5	/experiments/AOT/AOT_stimuli/rescaled_final/0484_fw.mp4	0.0	236.77003812789917	0.10001301765441895
48	216.39048409461975	fix_pre	0		120	46.0	2.5	/experiments/AOT/AOT_stimuli/rescaled_final/1969_rv.mp4	0.0	236.8700511455536	0.9999818801879883
48	216.5738868713379	pulse	0	t		46.0	2.5	/experiments/AOT/AOT_stimuli/rescaled_final/1969_rv.mp4	0.0	237.05345392227173	
48	217.39046597480774	movie	1		244	46.0	2.5	/experiments/AOT/AOT_stimuli/rescaled_final/1969_rv.mp4	0.0	237.87003302574158	2.4995338916778564
48	218.17382192611694	pulse	1	t		46.0	2.5	/experiments/AOT/AOT_stimuli/rescaled_final/1969_rv.mp4	0.0	238.65338897705078	
48	219.77256298065186	pulse	1	t		46.0	2.5	/experiments/AOT/AOT_stimuli/rescaled_final/1969_rv.mp4	0.0	240.2521300315857	
48	219.8899998664856	fix_post	2		12	46.0	2.5	/experiments/AOT/AOT_stimuli/rescaled_final/1969_rv.mp4	0.0	240.36956691741943	0.10041117668151855
49	219.99041104316711	fix_pre	0		120	47.0	2.5	blank	1.0	240.46997809410095	0.9999618530273438
49	220.99037289619446	movie	1		300	47.0	2.5	blank	1.0	241.4699399471283	2.500058174133301
49	221.37386798858643	pulse	1	t		47.0	2.5	blank	1.0	241.85343503952026	
49	222.97389197349548	pulse	1	t		47.0	2.5	blank	1.0	243.45345902442932	
49	223.49043107032776	fix_post	2		12	47.0	2.5	blank	1.0	243.9699981212616	0.09995698928833008
50	223.5903880596161	fix_pre	0		119	48.0	2.5	/experiments/AOT/AOT_stimuli/rescaled_final/1471_fw.mp4	0.0	244.06995511054993	0.9916219711303711
50	224.57387804985046	pulse	0	t		48.0	2.5	/experiments/AOT/AOT_stimuli/rescaled_final/1471_fw.mp4	0.0	245.0534451007843	
50	224.58201003074646	movie	1		244	48.0	2.5	/experiments/AOT/AOT_stimuli/rescaled_final/1471_fw.mp4	0.0	245.0615770816803	2.507946014404297
50	226.17351007461548	pulse	1	t		48.0	2.5	/experiments/AOT/AOT_stimuli/rescaled_final/1471_fw.mp4	0.0	246.65307712554932	
50	227.08995604515076	fix_post	2		12	48.0	2.5	/experiments/AOT/AOT_stimuli/rescaled_final/1471_fw.mp4	0.0	247.5695230960846	0.10043001174926758
51	227.19038605690002	fix_pre	0		120	49.0	2.5	/experiments/AOT/AOT_stimuli/rescaled_final/1737_fw.mp4	0.0	247.66995310783386	1.0000348091125488
51	227.7738389968872	pulse	0	t		49.0	2.5	/experiments/AOT/AOT_stimuli/rescaled_final/1737_fw.mp4	0.0	248.25340604782104	
51	228.19042086601257	movie	1		243	49.0	2.5	/experiments/AOT/AOT_stimuli/rescaled_final/1737_fw.mp4	0.0	248.6699879169464	2.500028133392334
51	229.37397289276123	pulse	1	t		49.0	2.5	/experiments/AOT/AOT_stimuli/rescaled_final/1737_fw.mp4	0.0	249.85353994369507	
51	230.6904489994049	fix_post	2		12	49.0	2.5	/experiments/AOT/AOT_stimuli/rescaled_final/1737_fw.mp4	0.0	251.17001605033875	0.10004901885986328
52	230.79049801826477	fix_pre	0		120	50.0	2.5	/experiments/AOT/AOT_stimuli/rescaled_final/1885_fw.mp4	0.0	251.2700650691986	0.999871015548706
52	230.97387099266052	pulse	0	t		50.0	2.5	/experiments/AOT/AOT_stimuli/rescaled_final/1885_fw.mp4	0.0	251.45343804359436	
52	231.79036903381348	movie	1		244	50.0	2.5	/experiments/AOT/AOT_stimuli/rescaled_final/1885_fw.mp4	0.0	252.26993608474731	2.5000128746032715
52	232.57390308380127	pulse	1	t		50.0	2.5	/experiments/AOT/AOT_stimuli/rescaled_final/1885_fw.mp4	0.0	253.0534701347351	
52	234.17440795898438	pulse	1	t		50.0	2.5	/experiments/AOT/AOT_stimuli/rescaled_final/1885_fw.mp4	0.0	254.6539750099182	
52	234.29038190841675	fix_post	2		12	50.0	2.5	/experiments/AOT/AOT_stimuli/rescaled_final/1885_fw.mp4	0.0	254.7699489593506	0.09999513626098633
53	234.39037704467773	fix_pre	0		120	51.0	2.5	/experiments/AOT/AOT_stimuli/rescaled_final/0435_fw.mp4	0.0	254.86994409561157	1.0000028610229492
53	235.39037990570068	movie	1		244	51.0	2.5	/experiments/AOT/AOT_stimuli/rescaled_final/0435_fw.mp4	0.0	255.86994695663452	2.4999279975891113
53	235.77349305152893	pulse	1	t		51.0	2.5	/experiments/AOT/AOT_stimuli/rescaled_final/0435_fw.mp4	0.0	256.25306010246277	
53	237.3738420009613	pulse	1	t		51.0	2.5	/experiments/AOT/AOT_stimuli/rescaled_final/0435_fw.mp4	0.0	257.85340905189514	
53	237.8903079032898	fix_post	2		12	51.0	2.5	/experiments/AOT/AOT_stimuli/rescaled_final/0435_fw.mp4	0.0	258.36987495422363	0.10001516342163086
54	237.99032306671143	fix_pre	0		119	52.0	2.5	/experiments/AOT/AOT_stimuli/rescaled_final/0107_rv.mp4	0.0	258.46989011764526	0.9916980266571045
54	238.97388792037964	pulse	0	t		52.0	2.5	/experiments/AOT/AOT_stimuli/rescaled_final/0107_rv.mp4	0.0	259.4534549713135	
54	238.98202109336853	movie	1		245	52.0	2.5	/experiments/AOT/AOT_stimuli/rescaled_final/0107_rv.mp4	0.0	259.46158814430237	2.5082929134368896
54	240.5734510421753	pulse	1	t		52.0	2.5	/experiments/AOT/AOT_stimuli/rescaled_final/0107_rv.mp4	0.0	261.05301809310913	
54	241.49031400680542	fix_post	2		12	52.0	2.5	/experiments/AOT/AOT_stimuli/rescaled_final/0107_rv.mp4	0.0	261.96988105773926	0.10003805160522461
55	241.59035205841064	fix_pre	0		120	53.0	2.5	/experiments/AOT/AOT_stimuli/rescaled_final/0380_fw.mp4	0.0	262.0699191093445	1.0000009536743164
55	242.1738510131836	pulse	0	t		53.0	2.5	/experiments/AOT/AOT_stimuli/rescaled_final/0380_fw.mp4	0.0	262.65341806411743	
55	242.59035301208496	movie	1		244	53.0	2.5	/experiments/AOT/AOT_stimuli/rescaled_final/0380_fw.mp4	0.0	263.0699200630188	2.499937057495117
55	243.77388191223145	pulse	1	t		53.0	2.5	/experiments/AOT/AOT_stimuli/rescaled_final/0380_fw.mp4	0.0	264.2534489631653	
55	245.09029006958008	fix_post	2		12	53.0	2.5	/experiments/AOT/AOT_stimuli/rescaled_final/0380_fw.mp4	0.0	265.5698571205139	0.09994983673095703
56	245.19023990631104	fix_pre	0		120	54.0	2.5	/experiments/AOT/AOT_stimuli/rescaled_final/0219_rv.mp4	0.0	265.6698069572449	1.0000171661376953
56	245.37374591827393	pulse	0	t		54.0	2.5	/experiments/AOT/AOT_stimuli/rescaled_final/0219_rv.mp4	0.0	265.85331296920776	
56	246.19025707244873	movie	1		244	54.0	2.5	/experiments/AOT/AOT_stimuli/rescaled_final/0219_rv.mp4	0.0	266.66982412338257	2.500088930130005
56	246.97380590438843	pulse	1	t		54.0	2.5	/experiments/AOT/AOT_stimuli/rescaled_final/0219_rv.mp4	0.0	267.45337295532227	
56	248.57235407829285	pulse	1	t		54.0	2.5	/experiments/AOT/AOT_stimuli/rescaled_final/0219_rv.mp4	0.0	269.0519211292267	
56	248.69034600257874	fix_post	2		12	54.0	2.5	/experiments/AOT/AOT_stimuli/rescaled_final/0219_rv.mp4	0.0	269.1699130535126	0.09992504119873047
57	248.79027104377747	fix_pre	0		120	55.0	2.5	/experiments/AOT/AOT_stimuli/rescaled_final/1382_rv.mp4	0.0	269.2698380947113	1.000006914138794
57	249.79027795791626	movie	1		244	55.0	2.5	/experiments/AOT/AOT_stimuli/rescaled_final/1382_rv.mp4	0.0	270.2698450088501	2.5000579357147217
57	250.1734380722046	pulse	1	t		55.0	2.5	/experiments/AOT/AOT_stimuli/rescaled_final/1382_rv.mp4	0.0	270.6530051231384	
57	251.773756980896	pulse	1	t		55.0	2.5	/experiments/AOT/AOT_stimuli/rescaled_final/1382_rv.mp4	0.0	272.25332403182983	
57	252.29033589363098	fix_post	2		12	55.0	2.5	/experiments/AOT/AOT_stimuli/rescaled_final/1382_rv.mp4	0.0	272.7699029445648	0.09989500045776367
58	252.39023089408875	fix_pre	0		119	56.0	2.5	blank	1.0	272.8697979450226	0.9916970729827881
58	253.37374091148376	pulse	0	t		56.0	2.5	blank	1.0	273.8533079624176	
58	253.38192796707153	movie	1		301	56.0	2.5	blank	1.0	273.86149501800537	2.508333921432495
58	254.9737310409546	pulse	1	t		56.0	2.5	blank	1.0	275.4532980918884	
58	255.89026188850403	fix_post	2		12	56.0	2.5	blank	1.0	276.36982893943787	0.09993720054626465
59	255.9901990890503	fix_pre	0		120	57.0	2.5	/experiments/AOT/AOT_stimuli/rescaled_final/2179_rv.mp4	0.0	276.46976613998413	1.000058889389038
59	256.57377099990845	pulse	0	t		57.0	2.5	/experiments/AOT/AOT_stimuli/rescaled_final/2179_rv.mp4	0.0	277.0533380508423	
59	256.99025797843933	movie	1		243	57.0	2.5	/experiments/AOT/AOT_stimuli/rescaled_final/2179_rv.mp4	0.0	277.46982502937317	2.4997498989105225
59	258.1737229824066	pulse	1	t		57.0	2.5	/experiments/AOT/AOT_stimuli/rescaled_final/2179_rv.mp4	0.0	278.65329003334045	
59	259.49000787734985	fix_post	2		12	57.0	2.5	/experiments/AOT/AOT_stimuli/rescaled_final/2179_rv.mp4	0.0	279.9695749282837	0.10031914710998535
60	259.59032702445984	fix_pre	0		120	58.0	2.5	/experiments/AOT/AOT_stimuli/rescaled_final/0900_rv.mp4	0.0	280.0698940753937	1.000201940536499
60	259.77396392822266	pulse	0	t		58.0	2.5	/experiments/AOT/AOT_stimuli/rescaled_final/0900_rv.mp4	0.0	280.2535309791565	
60	260.59052896499634	movie	1		246	58.0	2.5	/experiments/AOT/AOT_stimuli/rescaled_final/0900_rv.mp4	0.0	281.0700960159302	2.4992709159851074
60	261.37373208999634	pulse	1	t		58.0	2.5	/experiments/AOT/AOT_stimuli/rescaled_final/0900_rv.mp4	0.0	281.8532991409302	
60	262.9733180999756	pulse	1	t		58.0	2.5	/experiments/AOT/AOT_stimuli/rescaled_final/0900_rv.mp4	0.0	283.4528851509094	
60	263.08979988098145	fix_post	2		12	58.0	2.5	/experiments/AOT/AOT_stimuli/rescaled_final/0900_rv.mp4	0.0	283.5693669319153	0.10049200057983398
61	263.1902918815613	fix_pre	0		120	59.0	2.5	/experiments/AOT/AOT_stimuli/rescaled_final/0447_fw.mp4	0.0	283.6698589324951	0.9999651908874512
61	264.19025707244873	movie	1		246	59.0	2.5	/experiments/AOT/AOT_stimuli/rescaled_final/0447_fw.mp4	0.0	284.66982412338257	2.5000228881835938
61	264.57379603385925	pulse	1	t		59.0	2.5	/experiments/AOT/AOT_stimuli/rescaled_final/0447_fw.mp4	0.0	285.0533630847931	
61	266.17370986938477	pulse	1	t		59.0	2.5	/experiments/AOT/AOT_stimuli/rescaled_final/0447_fw.mp4	0.0	286.6532769203186	
61	266.6902799606323	fix_post	2		12	59.0	2.5	/experiments/AOT/AOT_stimuli/rescaled_final/0447_fw.mp4	0.0	287.16984701156616	0.09996604919433594
62	266.79024600982666	fix_pre	0		119	60.0	2.5	/experiments/AOT/AOT_stimuli/rescaled_final/0916_rv.mp4	0.0	287.2698130607605	0.9916970729827881
62	267.7737579345703	pulse	0	t		60.0	2.5	/experiments/AOT/AOT_stimuli/rescaled_final/0916_rv.mp4	0.0	288.25332498550415	
62	267.78194308280945	movie	1		246	60.0	2.5	/experiments/AOT/AOT_stimuli/rescaled_final/0916_rv.mp4	0.0	288.2615101337433	2.507812976837158
62	269.37367010116577	pulse	1	t		60.0	2.5	/experiments/AOT/AOT_stimuli/rescaled_final/0916_rv.mp4	0.0	289.8532371520996	
62	270.2897560596466	fix_post	2		12	60.0	2.5	/experiments/AOT/AOT_stimuli/rescaled_final/0916_rv.mp4	0.0	290.76932311058044	0.10045599937438965
63	270.390212059021	fix_pre	0		120	61.0	2.5	/experiments/AOT/AOT_stimuli/rescaled_final/1361_fw.mp4	0.0	290.86977910995483	1.0000088214874268
63	270.9736089706421	pulse	0	t		61.0	2.5	/experiments/AOT/AOT_stimuli/rescaled_final/1361_fw.mp4	0.0	291.4531760215759	
63	271.3902208805084	movie	1		244	61.0	2.5	/experiments/AOT/AOT_stimuli/rescaled_final/1361_fw.mp4	0.0	291.86978793144226	2.4998772144317627
63	272.57363390922546	pulse	1	t		61.0	2.5	/experiments/AOT/AOT_stimuli/rescaled_final/1361_fw.mp4	0.0	293.0532009601593	
63	273.8900980949402	fix_post	2		12	61.0	2.5	/experiments/AOT/AOT_stimuli/rescaled_final/1361_fw.mp4	0.0	294.369665145874	0.10004186630249023
64	273.9901399612427	fix_pre	0		120	62.0	2.5	/experiments/AOT/AOT_stimuli/rescaled_final/0290_rv.mp4	0.0	294.4697070121765	1.0000319480895996
64	274.1737039089203	pulse	0	t		62.0	2.5	/experiments/AOT/AOT_stimuli/rescaled_final/0290_rv.mp4	0.0	294.6532709598541	
64	274.9901719093323	movie	1		244	62.0	2.5	/experiments/AOT/AOT_stimuli/rescaled_final/0290_rv.mp4	0.0	295.4697389602661	2.500091075897217
64	275.77364206314087	pulse	1	t		62.0	2.5	/experiments/AOT/AOT_stimuli/rescaled_final/0290_rv.mp4	0.0	296.2532091140747	
64	277.37368392944336	pulse	1	t		62.0	2.5	/experiments/AOT/AOT_stimuli/rescaled_final/0290_rv.mp4	0.0	297.8532509803772	
64	277.4902629852295	fix_post	2		12	62.0	2.5	/experiments/AOT/AOT_stimuli/rescaled_final/0290_rv.mp4	0.0	297.96983003616333	0.100006103515625
65	277.5902690887451	fix_pre	0		120	63.0	2.5	blank	1.0	298.06983613967896	0.999830961227417
65	278.59010004997253	movie	1		300	63.0	2.5	blank	1.0	299.0696671009064	2.500308036804199
65	278.9736969470978	pulse	1	t		63.0	2.5	blank	1.0	299.4532639980316	
65	280.57354497909546	pulse	1	t		63.0	2.5	blank	1.0	301.0531120300293	
65	281.09040808677673	fix_post	2		12	63.0	2.5	blank	1.0	301.56997513771057	0.09963679313659668
66	281.19004487991333	fix_pre	0		119	64.0	2.5	/experiments/AOT/AOT_stimuli/rescaled_final/0172_rv.mp4	0.0	301.66961193084717	0.991718053817749
66	282.1735689640045	pulse	0	t		64.0	2.5	/experiments/AOT/AOT_stimuli/rescaled_final/0172_rv.mp4	0.0	302.65313601493835	
66	282.1817629337311	movie	1		245	64.0	2.5	/experiments/AOT/AOT_stimuli/rescaled_final/0172_rv.mp4	0.0	302.6613299846649	2.5083260536193848
66	283.77378702163696	pulse	1	t		64.0	2.5	/experiments/AOT/AOT_stimuli/rescaled_final/0172_rv.mp4	0.0	304.2533540725708	
66	284.69008898735046	fix_post	2		12	64.0	2.5	/experiments/AOT/AOT_stimuli/rescaled_final/0172_rv.mp4	0.0	305.1696560382843	0.0999460220336914
67	284.79003500938416	fix_pre	0		120	65.0	2.5	/experiments/AOT/AOT_stimuli/rescaled_final/1027_rv.mp4	0.0	305.269602060318	1.0000660419464111
67	285.37362408638	pulse	0	t		65.0	2.5	/experiments/AOT/AOT_stimuli/rescaled_final/1027_rv.mp4	0.0	305.85319113731384	
67	285.79010105133057	movie	1		245	65.0	2.5	/experiments/AOT/AOT_stimuli/rescaled_final/1027_rv.mp4	0.0	306.2696681022644	2.499990940093994
67	286.97362899780273	pulse	1	t		65.0	2.5	/experiments/AOT/AOT_stimuli/rescaled_final/1027_rv.mp4	0.0	307.4531960487366	
67	288.29009199142456	fix_post	2		12	65.0	2.5	/experiments/AOT/AOT_stimuli/rescaled_final/1027_rv.mp4	0.0	308.7696590423584	0.09989809989929199
68	288.38999009132385	fix_pre	0		120	66.0	2.5	/experiments/AOT/AOT_stimuli/rescaled_final/0290_fw.mp4	0.0	308.8695571422577	1.0001728534698486
68	288.57351207733154	pulse	0	t		66.0	2.5	/experiments/AOT/AOT_stimuli/rescaled_final/0290_fw.mp4	0.0	309.0530791282654	
68	289.3901629447937	movie	1		247	66.0	2.5	/experiments/AOT/AOT_stimuli/rescaled_final/0290_fw.mp4	0.0	309.86972999572754	2.5000150203704834
68	290.17353987693787	pulse	1	t		66.0	2.5	/experiments/AOT/AOT_stimuli/rescaled_final/0290_fw.mp4	0.0	310.6531069278717	
68	291.77367305755615	pulse	1	t		66.0	2.5	/experiments/AOT/AOT_stimuli/rescaled_final/0290_fw.mp4	0.0	312.25324010849	
68	291.8901779651642	fix_post	2		12	66.0	2.5	/experiments/AOT/AOT_stimuli/rescaled_final/0290_fw.mp4	0.0	312.369745016098	0.10000300407409668
69	291.9901809692383	fix_pre	0		120	67.0	2.5	/experiments/AOT/AOT_stimuli/rescaled_final/1426_fw.mp4	0.0	312.4697480201721	0.999906063079834
69	292.9900870323181	movie	1		247	67.0	2.5	/experiments/AOT/AOT_stimuli/rescaled_final/1426_fw.mp4	0.0	313.46965408325195	2.49954891204834
69	293.3734509944916	pulse	1	t		67.0	2.5	/experiments/AOT/AOT_stimuli/rescaled_final/1426_fw.mp4	0.0	313.8530180454254	
69	294.9735550880432	pulse	1	t		67.0	2.5	/experiments/AOT/AOT_stimuli/rescaled_final/1426_fw.mp4	0.0	315.45312213897705	
69	295.48963594436646	fix_post	2		12	67.0	2.5	/experiments/AOT/AOT_stimuli/rescaled_final/1426_fw.mp4	0.0	315.9692029953003	0.10042214393615723
70	295.5900580883026	fix_pre	0		119	68.0	2.5	blank	1.0	316.06962513923645	0.9915847778320312
70	296.57356691360474	pulse	0	t		68.0	2.5	blank	1.0	317.0531339645386	
70	296.58164286613464	movie	1		301	68.0	2.5	blank	1.0	317.0612099170685	2.5084102153778076
70	298.17360496520996	pulse	1	t		68.0	2.5	blank	1.0	318.6531720161438	
70	299.09005308151245	fix_post	2		12	68.0	2.5	blank	1.0	319.5696201324463	0.10002589225769043
71	299.19007897377014	fix_pre	0		120	69.0	2.5	/experiments/AOT/AOT_stimuli/rescaled_final/0552_fw.mp4	0.0	319.669646024704	0.9999361038208008
71	299.77347803115845	pulse	0	t		69.0	2.5	/experiments/AOT/AOT_stimuli/rescaled_final/0552_fw.mp4	0.0	320.2530450820923	
71	300.19001507759094	movie	1		245	69.0	2.5	/experiments/AOT/AOT_stimuli/rescaled_final/0552_fw.mp4	0.0	320.6695821285248	2.499527931213379
71	301.3736310005188	pulse	1	t		69.0	2.5	/experiments/AOT/AOT_stimuli/rescaled_final/0552_fw.mp4	0.0	321.85319805145264	
71	302.6895430088043	fix_post	2		12	69.0	2.5	/experiments/AOT/AOT_stimuli/rescaled_final/0552_fw.mp4	0.0	323.16911005973816	0.10044288635253906
72	302.78998589515686	fix_pre	0		120	70.0	2.5	/experiments/AOT/AOT_stimuli/rescaled_final/1395_rv.mp4	0.0	323.2695529460907	0.9996140003204346
72	302.97357296943665	pulse	0	t		70.0	2.5	/experiments/AOT/AOT_stimuli/rescaled_final/1395_rv.mp4	0.0	323.4531400203705	
72	303.7895998954773	movie	1		244	70.0	2.5	/experiments/AOT/AOT_stimuli/rescaled_final/1395_rv.mp4	0.0	324.26916694641113	2.500478982925415
72	304.5736389160156	pulse	1	t		70.0	2.5	/experiments/AOT/AOT_stimuli/rescaled_final/1395_rv.mp4	0.0	325.05320596694946	
72	306.1720950603485	pulse	1	t		70.0	2.5	/experiments/AOT/AOT_stimuli/rescaled_final/1395_rv.mp4	0.0	326.65166211128235	
72	306.2900788784027	fix_post	2		12	70.0	2.5	/experiments/AOT/AOT_stimuli/rescaled_final/1395_rv.mp4	0.0	326.76964592933655	0.0999610424041748
73	306.3900399208069	fix_pre	0		120	71.0	2.5	/experiments/AOT/AOT_stimuli/rescaled_final/0132_fw.mp4	0.0	326.8696069717407	1.0000309944152832
73	307.39007091522217	movie	1		244	71.0	2.5	/experiments/AOT/AOT_stimuli/rescaled_final/0132_fw.mp4	0.0	327.869637966156	2.4999749660491943
73	307.77386808395386	pulse	1	t		71.0	2.5	/experiments/AOT/AOT_stimuli/rescaled_final/0132_fw.mp4	0.0	328.2534351348877	
73	309.37353706359863	pulse	1	t		71.0	2.5	/experiments/AOT/AOT_stimuli/rescaled_final/0132_fw.mp4	0.0	329.85310411453247	
73	309.89004588127136	fix_post	2		12	71.0	2.5	/experiments/AOT/AOT_stimuli/rescaled_final/0132_fw.mp4	0.0	330.3696129322052	0.09989309310913086
74	309.9899389743805	fix_pre	0		119	72.0	2.5	/experiments/AOT/AOT_stimuli/rescaled_final/1851_fw.mp4	0.0	330.46950602531433	0.9917030334472656
74	310.9734380245209	pulse	0	t		72.0	2.5	/experiments/AOT/AOT_stimuli/rescaled_final/1851_fw.mp4	0.0	331.4530050754547	
74	310.98164200782776	movie	1		246	72.0	2.5	/experiments/AOT/AOT_stimuli/rescaled_final/1851_fw.mp4	0.0	331.4612090587616	2.5083069801330566
74	312.5729320049286	pulse	1	t		72.0	2.5	/experiments/AOT/AOT_stimuli/rescaled_final/1851_fw.mp4	0.0	333.0524990558624	
74	313.4899489879608	fix_post	2		12	72.0	2.5	/experiments/AOT/AOT_stimuli/rescaled_final/1851_fw.mp4	0.0	333.96951603889465	0.10001897811889648
75	313.5899679660797	fix_pre	0		120	73.0	2.5	/experiments/AOT/AOT_stimuli/rescaled_final/1660_fw.mp4	0.0	334.06953501701355	0.999596118927002
75	314.17305302619934	pulse	0	t		73.0	2.5	/experiments/AOT/AOT_stimuli/rescaled_final/1660_fw.mp4	0.0	334.6526200771332	
75	314.5895640850067	movie	1		246	73.0	2.5	/experiments/AOT/AOT_stimuli/rescaled_final/1660_fw.mp4	0.0	335.06913113594055	2.5003199577331543
75	315.77330899238586	pulse	1	t		73.0	2.5	/experiments/AOT/AOT_stimuli/rescaled_final/1660_fw.mp4	0.0	336.2528760433197	
75	317.08988404273987	fix_post	2		12	73.0	2.5	/experiments/AOT/AOT_stimuli/rescaled_final/1660_fw.mp4	0.0	337.5694510936737	0.10000491142272949
76	317.1898889541626	fix_pre	0		120	74.0	2.5	/experiments/AOT/AOT_stimuli/rescaled_final/1740_rv.mp4	0.0	337.66945600509644	1.0000250339508057
76	317.37347292900085	pulse	0	t		74.0	2.5	/experiments/AOT/AOT_stimuli/rescaled_final/1740_rv.mp4	0.0	337.8530399799347	
76	318.1899139881134	movie	1		244	74.0	2.5	/experiments/AOT/AOT_stimuli/rescaled_final/1740_rv.mp4	0.0	338.66948103904724	2.499993085861206
76	318.9734799861908	pulse	1	t		74.0	2.5	/experiments/AOT/AOT_stimuli/rescaled_final/1740_rv.mp4	0.0	339.45304703712463	
76	320.5715980529785	pulse	1	t		74.0	2.5	/experiments/AOT/AOT_stimuli/rescaled_final/1740_rv.mp4	0.0	341.05116510391235	
76	320.6899070739746	fix_post	2		12	74.0	2.5	/experiments/AOT/AOT_stimuli/rescaled_final/1740_rv.mp4	0.0	341.16947412490845	0.09996485710144043
77	320.78987193107605	fix_pre	0		120	75.0	2.5	/experiments/AOT/AOT_stimuli/rescaled_final/2066_fw.mp4	0.0	341.2694389820099	0.9996261596679688
77	321.789498090744	movie	1		244	75.0	2.5	/experiments/AOT/AOT_stimuli/rescaled_final/2066_fw.mp4	0.0	342.26906514167786	2.4999589920043945
77	322.17293190956116	pulse	1	t		75.0	2.5	/experiments/AOT/AOT_stimuli/rescaled_final/2066_fw.mp4	0.0	342.652498960495	
77	323.7734260559082	pulse	1	t		75.0	2.5	/experiments/AOT/AOT_stimuli/rescaled_final/2066_fw.mp4	0.0	344.25299310684204	
77	324.2894570827484	fix_post	2		12	75.0	2.5	/experiments/AOT/AOT_stimuli/rescaled_final/2066_fw.mp4	0.0	344.76902413368225	0.1004788875579834
78	324.3899359703064	fix_pre	0		119	76.0	2.5	/experiments/AOT/AOT_stimuli/rescaled_final/2072_fw.mp4	0.0	344.86950302124023	0.9916379451751709
78	325.3733859062195	pulse	0	t		76.0	2.5	/experiments/AOT/AOT_stimuli/rescaled_final/2072_fw.mp4	0.0	345.8529529571533	
78	325.38157391548157	movie	1		245	76.0	2.5	/experiments/AOT/AOT_stimuli/rescaled_final/2072_fw.mp4	0.0	345.8611409664154	2.5083529949188232
78	326.97305607795715	pulse	1	t		76.0	2.5	/experiments/AOT/AOT_stimuli/rescaled_final/2072_fw.mp4	0.0	347.452623128891	
78	327.8899269104004	fix_post	2		12	76.0	2.5	/experiments/AOT/AOT_stimuli/rescaled_final/2072_fw.mp4	0.0	348.36949396133423	0.09991216659545898
79	327.98983907699585	fix_pre	0		120	77.0	2.5	blank	1.0	348.4694061279297	1.0000419616699219
79	328.5734329223633	pulse	0	t		77.0	2.5	blank	1.0	349.0529999732971	
79	328.98988103866577	movie	1		300	77.0	2.5	blank	1.0	349.4694480895996	2.49995493888855
79	330.1734199523926	pulse	1	t		77.0	2.5	blank	1.0	350.6529870033264	
79	331.4898359775543	fix_post	2		12	77.0	2.5	blank	1.0	351.96940302848816	0.10004305839538574
80	331.5898790359497	fix_pre	0		120	78.0	2.5	/experiments/AOT/AOT_stimuli/rescaled_final/0217_rv.mp4	0.0	352.06944608688354	1.000032901763916
80	331.7734730243683	pulse	0	t		78.0	2.5	/experiments/AOT/AOT_stimuli/rescaled_final/0217_rv.mp4	0.0	352.2530400753021	
80	332.5899119377136	movie	1		245	78.0	2.5	/experiments/AOT/AOT_stimuli/rescaled_final/0217_rv.mp4	0.0	353.06947898864746	2.499958038330078
80	333.3733420372009	pulse	1	t		78.0	2.5	/experiments/AOT/AOT_stimuli/rescaled_final/0217_rv.mp4	0.0	353.85290908813477	
80	334.97213196754456	pulse	1	t		78.0	2.5	/experiments/AOT/AOT_stimuli/rescaled_final/0217_rv.mp4	0.0	355.4516990184784	
80	335.0898699760437	fix_post	2		12	78.0	2.5	/experiments/AOT/AOT_stimuli/rescaled_final/0217_rv.mp4	0.0	355.56943702697754	0.09998106956481934
81	335.1898510456085	fix_pre	0		120	79.0	2.5	/experiments/AOT/AOT_stimuli/rescaled_final/1851_rv.mp4	0.0	355.66941809654236	1.000011920928955
81	336.1898629665375	movie	1		246	79.0	2.5	/experiments/AOT/AOT_stimuli/rescaled_final/1851_rv.mp4	0.0	356.6694300174713	2.4999849796295166
81	336.5731899738312	pulse	1	t		79.0	2.5	/experiments/AOT/AOT_stimuli/rescaled_final/1851_rv.mp4	0.0	357.052757024765	
81	338.17337107658386	pulse	1	t		79.0	2.5	/experiments/AOT/AOT_stimuli/rescaled_final/1851_rv.mp4	0.0	358.6529381275177	
81	338.689847946167	fix_post	2		12	79.0	2.5	/experiments/AOT/AOT_stimuli/rescaled_final/1851_rv.mp4	0.0	359.16941499710083	0.09960508346557617
82	338.78945302963257	fix_pre	0		119	80.0	2.5	/experiments/AOT/AOT_stimuli/rescaled_final/0900_rv.mp4	0.0	359.2690200805664	0.9920699596405029
82	339.773423910141	pulse	0	t		80.0	2.5	/experiments/AOT/AOT_stimuli/rescaled_final/0900_rv.mp4	0.0	360.25299096107483	
82	339.78152298927307	movie	1		247	80.0	2.5	/experiments/AOT/AOT_stimuli/rescaled_final/0900_rv.mp4	0.0	360.2610900402069	2.508251905441284
82	341.3731310367584	pulse	1	t		80.0	2.5	/experiments/AOT/AOT_stimuli/rescaled_final/0900_rv.mp4	0.0	361.85269808769226	
82	342.28977489471436	fix_post	2		12	80.0	2.5	/experiments/AOT/AOT_stimuli/rescaled_final/0900_rv.mp4	0.0	362.7693419456482	0.09998607635498047
83	342.38976097106934	fix_pre	0		120	81.0	2.5	/experiments/AOT/AOT_stimuli/rescaled_final/0537_fw.mp4	0.0	362.8693280220032	1.0000131130218506
83	342.97335505485535	pulse	0	t		81.0	2.5	/experiments/AOT/AOT_stimuli/rescaled_final/0537_fw.mp4	0.0	363.4529221057892	
83	343.3897740840912	movie	1		245	81.0	2.5	/experiments/AOT/AOT_stimuli/rescaled_final/0537_fw.mp4	0.0	363.869341135025	2.4999749660491943
83	344.5734179019928	pulse	1	t		81.0	2.5	/experiments/AOT/AOT_stimuli/rescaled_final/0537_fw.mp4	0.0	365.05298495292664	
83	345.8897490501404	fix_post	2		12	81.0	2.5	/experiments/AOT/AOT_stimuli/rescaled_final/0537_fw.mp4	0.0	366.3693161010742	0.1000678539276123
84	345.989816904068	fix_pre	0		120	82.0	2.5	/experiments/AOT/AOT_stimuli/rescaled_final/0324_rv.mp4	0.0	366.46938395500183	0.9999849796295166
84	346.17334389686584	pulse	0	t		82.0	2.5	/experiments/AOT/AOT_stimuli/rescaled_final/0324_rv.mp4	0.0	366.6529109477997	
84	346.9898018836975	movie	1		244	82.0	2.5	/experiments/AOT/AOT_stimuli/rescaled_final/0324_rv.mp4	0.0	367.46936893463135	2.4999661445617676
84	347.7732300758362	pulse	1	t		82.0	2.5	/experiments/AOT/AOT_stimuli/rescaled_final/0324_rv.mp4	0.0	368.25279712677	
84	349.3732409477234	pulse	1	t		82.0	2.5	/experiments/AOT/AOT_stimuli/rescaled_final/0324_rv.mp4	0.0	369.8528079986572	
84	349.4897680282593	fix_post	2		12	82.0	2.5	/experiments/AOT/AOT_stimuli/rescaled_final/0324_rv.mp4	0.0	369.9693350791931	0.10002398490905762
85	349.58979201316833	fix_pre	0		120	83.0	2.5	blank	1.0	370.0693590641022	1.000105857849121
85	350.58989787101746	movie	1		300	83.0	2.5	blank	1.0	371.0694649219513	2.499901056289673
85	350.97332406044006	pulse	1	t		83.0	2.5	blank	1.0	371.4528911113739	
85	352.57325887680054	pulse	1	t		83.0	2.5	blank	1.0	373.0528259277344	
85	353.08979892730713	fix_post	2		12	83.0	2.5	blank	1.0	373.56936597824097	0.09996414184570312
87	353.18976306915283	stim	0		1716					373.66933012008667	14.299997806549072
87	354.1733191013336	pulse	0	t						374.65288615226746	
87	355.7733130455017	pulse	0	t						376.25288009643555	
87	357.37319588661194	pulse	0	t						377.8527629375458	
87	358.97322487831116	pulse	0	t						379.452791929245	
87	360.5732169151306	pulse	0	t						381.05278396606445	
87	362.17316007614136	pulse	0	t						382.6527271270752	
87	363.77327489852905	pulse	0	t						384.2528419494629	
87	365.373251914978	pulse	0	t						385.85281896591187	
87	366.97325801849365	pulse	0	t						387.4528250694275	
