trial_nr	onset	event_type	phase	response	nr_frames	movie_index	movie_duration	movie_file	blank	onset_abs	duration
0	0.13325786590576172	stim	0		37					38.38535284996033	0.30836915969848633
0	0.43357205390930176	response	0	space						38.68566703796387	
1	0.44162702560424805	stim	0		4905					38.69372200965881	40.87484002113342
1	41.31072497367859	pulse	0	t						79.56281995773315	
1	41.31646704673767	stim	1		1717					79.56856203079224	14.30812382698059
1	42.90828990936279	pulse	1	t						81.16038489341736	
1	44.50833988189697	pulse	1	t						82.76043486595154	
1	46.10819697380066	pulse	1	t						84.36029195785522	
1	47.70779204368591	pulse	1	t						85.95988702774048	
1	49.30847907066345	pulse	1	t						87.56057405471802	
1	50.908190965652466	pulse	1	t						89.16028594970703	
1	52.50814604759216	pulse	1	t						90.76024103164673	
1	54.108092069625854	pulse	1	t						92.36018705368042	
2	55.62459087371826	fix_pre	0		11	0.0	2.5	/experiments/AOT/AOT_stimuli/rescaled_final/0770_fw.mp4	0.0	93.87668585777283	0.09159708023071289
2	55.70808005332947	pulse	0	t		0.0	2.5	/experiments/AOT/AOT_stimuli/rescaled_final/0770_fw.mp4	0.0	93.96017503738403	
2	55.716187953948975	movie	1		242	0.0	2.5	/experiments/AOT/AOT_stimuli/rescaled_final/0770_fw.mp4	0.0	93.96828293800354	2.5084168910980225
2	57.307891845703125	pulse	1	t		0.0	2.5	/experiments/AOT/AOT_stimuli/rescaled_final/0770_fw.mp4	0.0	95.55998682975769	
2	58.224604845047	fix_post	2		12	0.0	2.5	/experiments/AOT/AOT_stimuli/rescaled_final/0770_fw.mp4	0.0	96.47669982910156	0.1000220775604248
3	58.32462692260742	fix_pre	0		120	1.0	2.5	/experiments/AOT/AOT_stimuli/rescaled_final/0461_fw.mp4	0.0	96.57672190666199	0.9995589256286621
3	58.90803098678589	pulse	0	t		1.0	2.5	/experiments/AOT/AOT_stimuli/rescaled_final/0461_fw.mp4	0.0	97.16012597084045	
3	59.324185848236084	movie	1		243	1.0	2.5	/experiments/AOT/AOT_stimuli/rescaled_final/0461_fw.mp4	0.0	97.57628083229065	2.500430107116699
3	60.50820589065552	pulse	1	t		1.0	2.5	/experiments/AOT/AOT_stimuli/rescaled_final/0461_fw.mp4	0.0	98.76030087471008	
3	61.82461595535278	fix_post	2		12	1.0	2.5	/experiments/AOT/AOT_stimuli/rescaled_final/0461_fw.mp4	0.0	100.07671093940735	0.10002899169921875
4	61.924644947052	fix_pre	0		120	2.0	2.5	/experiments/AOT/AOT_stimuli/rescaled_final/0048_rv.mp4	0.0	100.17673993110657	0.9999339580535889
4	62.10812306404114	pulse	0	t		2.0	2.5	/experiments/AOT/AOT_stimuli/rescaled_final/0048_rv.mp4	0.0	100.3602180480957	
4	62.92457890510559	movie	1		243	2.0	2.5	/experiments/AOT/AOT_stimuli/rescaled_final/0048_rv.mp4	0.0	101.17667388916016	2.5000100135803223
4	63.708061933517456	pulse	1	t		2.0	2.5	/experiments/AOT/AOT_stimuli/rescaled_final/0048_rv.mp4	0.0	101.96015691757202	
4	65.30655097961426	pulse	1	t		2.0	2.5	/experiments/AOT/AOT_stimuli/rescaled_final/0048_rv.mp4	0.0	103.55864596366882	
4	65.42458891868591	fix_post	2		12	2.0	2.5	/experiments/AOT/AOT_stimuli/rescaled_final/0048_rv.mp4	0.0	103.67668390274048	0.09995698928833008
5	65.52454590797424	fix_pre	0		120	3.0	2.5	/experiments/AOT/AOT_stimuli/rescaled_final/0351_rv.mp4	0.0	103.77664089202881	0.9996120929718018
5	66.52415800094604	movie	1		243	3.0	2.5	/experiments/AOT/AOT_stimuli/rescaled_final/0351_rv.mp4	0.0	104.77625298500061	2.4999470710754395
5	66.90904998779297	pulse	1	t		3.0	2.5	/experiments/AOT/AOT_stimuli/rescaled_final/0351_rv.mp4	0.0	105.16114497184753	
5	68.5080029964447	pulse	1	t		3.0	2.5	/experiments/AOT/AOT_stimuli/rescaled_final/0351_rv.mp4	0.0	106.76009798049927	
5	69.02410507202148	fix_post	2		12	3.0	2.5	/experiments/AOT/AOT_stimuli/rescaled_final/0351_rv.mp4	0.0	107.27620005607605	0.10045886039733887
6	69.12456393241882	fix_pre	0		119	4.0	2.5	/experiments/AOT/AOT_stimuli/rescaled_final/2030_fw.mp4	0.0	107.37665891647339	0.991779088973999
6	70.1081428527832	pulse	0	t		4.0	2.5	/experiments/AOT/AOT_stimuli/rescaled_final/2030_fw.mp4	0.0	108.36023783683777	
6	70.11634302139282	movie	1		245	4.0	2.5	/experiments/AOT/AOT_stimuli/rescaled_final/2030_fw.mp4	0.0	108.36843800544739	2.507753849029541
6	71.70785999298096	pulse	1	t		4.0	2.5	/experiments/AOT/AOT_stimuli/rescaled_final/2030_fw.mp4	0.0	109.95995497703552	
6	72.62409687042236	fix_post	2		12	4.0	2.5	/experiments/AOT/AOT_stimuli/rescaled_final/2030_fw.mp4	0.0	110.87619185447693	0.10041213035583496
7	72.7245090007782	fix_pre	0		120	5.0	2.5	/experiments/AOT/AOT_stimuli/rescaled_final/0136_fw.mp4	0.0	110.97660398483276	0.999579906463623
7	73.3079948425293	pulse	0	t		5.0	2.5	/experiments/AOT/AOT_stimuli/rescaled_final/0136_fw.mp4	0.0	111.56008982658386	
7	73.72408890724182	movie	1		243	5.0	2.5	/experiments/AOT/AOT_stimuli/rescaled_final/0136_fw.mp4	0.0	111.97618389129639	2.500771999359131
7	74.90813899040222	pulse	1	t		5.0	2.5	/experiments/AOT/AOT_stimuli/rescaled_final/0136_fw.mp4	0.0	113.16023397445679	
7	76.22486090660095	fix_post	2		12	5.0	2.5	/experiments/AOT/AOT_stimuli/rescaled_final/0136_fw.mp4	0.0	114.47695589065552	0.09966111183166504
8	76.32452201843262	fix_pre	0		120	6.0	2.5	blank	1.0	114.57661700248718	0.9999890327453613
8	76.50805187225342	pulse	0	t		6.0	2.5	blank	1.0	114.76014685630798	
8	77.32451105117798	movie	1		300	6.0	2.5	blank	1.0	115.57660603523254	2.4999759197235107
8	78.10798597335815	pulse	1	t		6.0	2.5	blank	1.0	116.36008095741272	
8	79.70786595344543	pulse	1	t		6.0	2.5	blank	1.0	117.9599609375	
8	79.82448697090149	fix_post	2		12	6.0	2.5	blank	1.0	118.07658195495605	0.09997892379760742
9	79.9244658946991	fix_pre	0		120	7.0	2.5	/experiments/AOT/AOT_stimuli/rescaled_final/1021_rv.mp4	0.0	118.17656087875366	0.9995901584625244
9	80.92405605316162	movie	1		243	7.0	2.5	/experiments/AOT/AOT_stimuli/rescaled_final/1021_rv.mp4	0.0	119.17615103721619	2.500002861022949
9	81.30758500099182	pulse	1	t		7.0	2.5	/experiments/AOT/AOT_stimuli/rescaled_final/1021_rv.mp4	0.0	119.55967998504639	
9	82.90797400474548	pulse	1	t		7.0	2.5	/experiments/AOT/AOT_stimuli/rescaled_final/1021_rv.mp4	0.0	121.16006898880005	
9	83.42405891418457	fix_post	2		12	7.0	2.5	/experiments/AOT/AOT_stimuli/rescaled_final/1021_rv.mp4	0.0	121.67615389823914	0.10043215751647949
10	83.52449107170105	fix_pre	0		119	8.0	2.5	/experiments/AOT/AOT_stimuli/rescaled_final/1962_rv.mp4	0.0	121.77658605575562	0.9916989803314209
10	84.50796103477478	pulse	0	t		8.0	2.5	/experiments/AOT/AOT_stimuli/rescaled_final/1962_rv.mp4	0.0	122.76005601882935	
10	84.51619005203247	movie	1		246	8.0	2.5	/experiments/AOT/AOT_stimuli/rescaled_final/1962_rv.mp4	0.0	122.76828503608704	2.5083580017089844
10	86.10762786865234	pulse	1	t		8.0	2.5	/experiments/AOT/AOT_stimuli/rescaled_final/1962_rv.mp4	0.0	124.35972285270691	
10	87.02454805374146	fix_post	2		12	8.0	2.5	/experiments/AOT/AOT_stimuli/rescaled_final/1962_rv.mp4	0.0	125.27664303779602	0.09996581077575684
11	87.12451386451721	fix_pre	0		120	9.0	2.5	/experiments/AOT/AOT_stimuli/rescaled_final/1903_fw.mp4	0.0	125.37660884857178	1.0000600814819336
11	87.70797491073608	pulse	0	t		9.0	2.5	/experiments/AOT/AOT_stimuli/rescaled_final/1903_fw.mp4	0.0	125.96006989479065	
11	88.12457394599915	movie	1		244	9.0	2.5	/experiments/AOT/AOT_stimuli/rescaled_final/1903_fw.mp4	0.0	126.37666893005371	2.499871015548706
11	89.30792784690857	pulse	1	t		9.0	2.5	/experiments/AOT/AOT_stimuli/rescaled_final/1903_fw.mp4	0.0	127.56002283096313	
11	90.62444496154785	fix_post	2		12	9.0	2.5	/experiments/AOT/AOT_stimuli/rescaled_final/1903_fw.mp4	0.0	128.87653994560242	0.099884033203125
12	90.72432899475098	fix_pre	0		120	10.0	2.5	/experiments/AOT/AOT_stimuli/rescaled_final/0488_fw.mp4	0.0	128.97642397880554	1.000025987625122
12	90.90797305107117	pulse	0	t		10.0	2.5	/experiments/AOT/AOT_stimuli/rescaled_final/0488_fw.mp4	0.0	129.16006803512573	
12	91.7243549823761	movie	1		244	10.0	2.5	/experiments/AOT/AOT_stimuli/rescaled_final/0488_fw.mp4	0.0	129.97644996643066	2.4995880126953125
12	92.50792384147644	pulse	1	t		10.0	2.5	/experiments/AOT/AOT_stimuli/rescaled_final/0488_fw.mp4	0.0	130.760018825531	
12	94.10655784606934	pulse	1	t		10.0	2.5	/experiments/AOT/AOT_stimuli/rescaled_final/0488_fw.mp4	0.0	132.3586528301239	
12	94.22394299507141	fix_post	2		12	10.0	2.5	/experiments/AOT/AOT_stimuli/rescaled_final/0488_fw.mp4	0.0	132.47603797912598	0.10050702095031738
13	94.32445001602173	fix_pre	0		120	11.0	2.5	/experiments/AOT/AOT_stimuli/rescaled_final/0861_fw.mp4	0.0	132.5765450000763	0.9999599456787109
13	95.32440996170044	movie	1		242	11.0	2.5	/experiments/AOT/AOT_stimuli/rescaled_final/0861_fw.mp4	0.0	133.576504945755	2.499561071395874
13	95.70755100250244	pulse	1	t		11.0	2.5	/experiments/AOT/AOT_stimuli/rescaled_final/0861_fw.mp4	0.0	133.959645986557	
13	97.30787587165833	pulse	1	t		11.0	2.5	/experiments/AOT/AOT_stimuli/rescaled_final/0861_fw.mp4	0.0	135.5599708557129	
13	97.82397103309631	fix_post	2		12	11.0	2.5	/experiments/AOT/AOT_stimuli/rescaled_final/0861_fw.mp4	0.0	136.07606601715088	0.10034894943237305
14	97.92431998252869	fix_pre	0		119	12.0	2.5	/experiments/AOT/AOT_stimuli/rescaled_final/0190_rv.mp4	0.0	136.17641496658325	0.9917459487915039
14	98.9078860282898	pulse	0	t		12.0	2.5	/experiments/AOT/AOT_stimuli/rescaled_final/0190_rv.mp4	0.0	137.15998101234436	
14	98.91606593132019	movie	1		244	12.0	2.5	/experiments/AOT/AOT_stimuli/rescaled_final/0190_rv.mp4	0.0	137.16816091537476	2.50789213180542
14	100.50751996040344	pulse	1	t		12.0	2.5	/experiments/AOT/AOT_stimuli/rescaled_final/0190_rv.mp4	0.0	138.759614944458	
14	101.42395806312561	fix_post	2		12	12.0	2.5	/experiments/AOT/AOT_stimuli/rescaled_final/0190_rv.mp4	0.0	139.67605304718018	0.10048198699951172
15	101.52444005012512	fix_pre	0		120	13.0	2.5	/experiments/AOT/AOT_stimuli/rescaled_final/0501_rv.mp4	0.0	139.7765350341797	0.9995408058166504
15	102.10792589187622	pulse	0	t		13.0	2.5	/experiments/AOT/AOT_stimuli/rescaled_final/0501_rv.mp4	0.0	140.3600208759308	
15	102.52398085594177	movie	1		243	13.0	2.5	/experiments/AOT/AOT_stimuli/rescaled_final/0501_rv.mp4	0.0	140.77607583999634	2.500694990158081
15	103.7080979347229	pulse	1	t		13.0	2.5	/experiments/AOT/AOT_stimuli/rescaled_final/0501_rv.mp4	0.0	141.96019291877747	
15	105.02467584609985	fix_post	2		12	13.0	2.5	/experiments/AOT/AOT_stimuli/rescaled_final/0501_rv.mp4	0.0	143.27677083015442	0.10003018379211426
16	105.12470602989197	fix_pre	0		120	14.0	2.5	blank	1.0	143.37680101394653	0.9997358322143555
16	105.30825805664062	pulse	0	t		14.0	2.5	blank	1.0	143.5603530406952	
16	106.12444186210632	movie	1		300	14.0	2.5	blank	1.0	144.3765368461609	2.499894142150879
16	106.90789198875427	pulse	1	t		14.0	2.5	blank	1.0	145.15998697280884	
16	108.50784707069397	pulse	1	t		14.0	2.5	blank	1.0	146.75994205474854	
16	108.6243360042572	fix_post	2		12	14.0	2.5	blank	1.0	146.87643098831177	0.10002493858337402
17	108.72436094284058	fix_pre	0		120	15.0	2.5	/experiments/AOT/AOT_stimuli/rescaled_final/1291_rv.mp4	0.0	146.97645592689514	1.0000250339508057
17	109.72438597679138	movie	1		244	15.0	2.5	/experiments/AOT/AOT_stimuli/rescaled_final/1291_rv.mp4	0.0	147.97648096084595	2.499882936477661
17	110.10873293876648	pulse	1	t		15.0	2.5	/experiments/AOT/AOT_stimuli/rescaled_final/1291_rv.mp4	0.0	148.36082792282104	
17	111.70769786834717	pulse	1	t		15.0	2.5	/experiments/AOT/AOT_stimuli/rescaled_final/1291_rv.mp4	0.0	149.95979285240173	
17	112.22426891326904	fix_post	2		12	15.0	2.5	/experiments/AOT/AOT_stimuli/rescaled_final/1291_rv.mp4	0.0	150.4763638973236	0.09997916221618652
18	112.32424807548523	fix_pre	0		119	16.0	2.5	/experiments/AOT/AOT_stimuli/rescaled_final/1427_rv.mp4	0.0	150.5763430595398	0.9917168617248535
18	113.30784106254578	pulse	0	t		16.0	2.5	/experiments/AOT/AOT_stimuli/rescaled_final/1427_rv.mp4	0.0	151.55993604660034	
18	113.31596493721008	movie	1		249	16.0	2.5	/experiments/AOT/AOT_stimuli/rescaled_final/1427_rv.mp4	0.0	151.56805992126465	2.5080039501190186
18	114.90740203857422	pulse	1	t		16.0	2.5	/experiments/AOT/AOT_stimuli/rescaled_final/1427_rv.mp4	0.0	153.15949702262878	
18	115.8239688873291	fix_post	2		12	16.0	2.5	/experiments/AOT/AOT_stimuli/rescaled_final/1427_rv.mp4	0.0	154.07606387138367	0.10035395622253418
19	115.92432284355164	fix_pre	0		120	17.0	2.5	/experiments/AOT/AOT_stimuli/rescaled_final/0341_fw.mp4	0.0	154.1764178276062	0.9995620250701904
19	116.50777101516724	pulse	0	t		17.0	2.5	/experiments/AOT/AOT_stimuli/rescaled_final/0341_fw.mp4	0.0	154.7598659992218	
19	116.92388486862183	movie	1		246	17.0	2.5	/experiments/AOT/AOT_stimuli/rescaled_final/0341_fw.mp4	0.0	155.1759798526764	2.5003600120544434
19	118.1078040599823	pulse	1	t		17.0	2.5	/experiments/AOT/AOT_stimuli/rescaled_final/0341_fw.mp4	0.0	156.35989904403687	
19	119.42424488067627	fix_post	2		12	17.0	2.5	/experiments/AOT/AOT_stimuli/rescaled_final/0341_fw.mp4	0.0	157.67633986473083	0.10001111030578613
20	119.52425599098206	fix_pre	0		120	18.0	2.5	/experiments/AOT/AOT_stimuli/rescaled_final/0092_fw.mp4	0.0	157.77635097503662	1.0000419616699219
20	119.70785188674927	pulse	0	t		18.0	2.5	/experiments/AOT/AOT_stimuli/rescaled_final/0092_fw.mp4	0.0	157.95994687080383	
20	120.52429795265198	movie	1		244	18.0	2.5	/experiments/AOT/AOT_stimuli/rescaled_final/0092_fw.mp4	0.0	158.77639293670654	2.4999840259552
20	121.30777502059937	pulse	1	t		18.0	2.5	/experiments/AOT/AOT_stimuli/rescaled_final/0092_fw.mp4	0.0	159.55987000465393	
20	122.9061188697815	pulse	1	t		18.0	2.5	/experiments/AOT/AOT_stimuli/rescaled_final/0092_fw.mp4	0.0	161.15821385383606	
20	123.02428197860718	fix_post	2		12	18.0	2.5	/experiments/AOT/AOT_stimuli/rescaled_final/0092_fw.mp4	0.0	161.27637696266174	0.09997797012329102
21	123.12425994873047	fix_pre	0		120	19.0	2.5	/experiments/AOT/AOT_stimuli/rescaled_final/0249_rv.mp4	0.0	161.37635493278503	1.0000059604644775
21	124.12426590919495	movie	1		245	19.0	2.5	/experiments/AOT/AOT_stimuli/rescaled_final/0249_rv.mp4	0.0	162.3763608932495	2.500019073486328
21	124.507572889328	pulse	1	t		19.0	2.5	/experiments/AOT/AOT_stimuli/rescaled_final/0249_rv.mp4	0.0	162.75966787338257	
21	126.1077618598938	pulse	1	t		19.0	2.5	/experiments/AOT/AOT_stimuli/rescaled_final/0249_rv.mp4	0.0	164.35985684394836	
21	126.62428498268127	fix_post	2		12	19.0	2.5	/experiments/AOT/AOT_stimuli/rescaled_final/0249_rv.mp4	0.0	164.87637996673584	0.09994792938232422
22	126.7242329120636	fix_pre	0		119	20.0	2.5	/experiments/AOT/AOT_stimuli/rescaled_final/0645_fw.mp4	0.0	164.97632789611816	0.9916131496429443
22	127.70767903327942	pulse	0	t		20.0	2.5	/experiments/AOT/AOT_stimuli/rescaled_final/0645_fw.mp4	0.0	165.95977401733398	
22	127.71584606170654	movie	1		247	20.0	2.5	/experiments/AOT/AOT_stimuli/rescaled_final/0645_fw.mp4	0.0	165.9679410457611	2.507946014404297
22	129.30723595619202	pulse	1	t		20.0	2.5	/experiments/AOT/AOT_stimuli/rescaled_final/0645_fw.mp4	0.0	167.55933094024658	
22	130.22379207611084	fix_post	2		12	20.0	2.5	/experiments/AOT/AOT_stimuli/rescaled_final/0645_fw.mp4	0.0	168.4758870601654	0.10038495063781738
23	130.32417702674866	fix_pre	0		120	21.0	2.5	blank	1.0	168.57627201080322	0.9995908737182617
23	130.90770292282104	pulse	0	t		21.0	2.5	blank	1.0	169.1597979068756	
23	131.32376790046692	movie	1		300	21.0	2.5	blank	1.0	169.57586288452148	2.500359058380127
23	132.50773191452026	pulse	1	t		21.0	2.5	blank	1.0	170.75982689857483	
23	133.82412695884705	fix_post	2		12	21.0	2.5	blank	1.0	172.0762219429016	0.10010099411010742
24	133.92422795295715	fix_pre	0		120	22.0	2.5	/experiments/AOT/AOT_stimuli/rescaled_final/0190_rv.mp4	0.0	172.17632293701172	0.999967098236084
24	134.10765886306763	pulse	0	t		22.0	2.5	/experiments/AOT/AOT_stimuli/rescaled_final/0190_rv.mp4	0.0	172.3597538471222	
24	134.92419505119324	movie	1		244	22.0	2.5	/experiments/AOT/AOT_stimuli/rescaled_final/0190_rv.mp4	0.0	173.1762900352478	2.4999518394470215
24	135.707692861557	pulse	1	t		22.0	2.5	/experiments/AOT/AOT_stimuli/rescaled_final/0190_rv.mp4	0.0	173.95978784561157	
24	137.30627703666687	pulse	1	t		22.0	2.5	/experiments/AOT/AOT_stimuli/rescaled_final/0190_rv.mp4	0.0	175.55837202072144	
24	137.42414689064026	fix_post	2		12	22.0	2.5	/experiments/AOT/AOT_stimuli/rescaled_final/0190_rv.mp4	0.0	175.67624187469482	0.09970712661743164
25	137.5238540172577	fix_pre	0		120	23.0	2.5	/experiments/AOT/AOT_stimuli/rescaled_final/0824_fw.mp4	0.0	175.77594900131226	1.0002858638763428
25	138.52413988113403	movie	1		244	23.0	2.5	/experiments/AOT/AOT_stimuli/rescaled_final/0824_fw.mp4	0.0	176.7762348651886	2.499598979949951
25	138.90771293640137	pulse	1	t		23.0	2.5	/experiments/AOT/AOT_stimuli/rescaled_final/0824_fw.mp4	0.0	177.15980792045593	
25	140.5077040195465	pulse	1	t		23.0	2.5	/experiments/AOT/AOT_stimuli/rescaled_final/0824_fw.mp4	0.0	178.75979900360107	
25	141.02373886108398	fix_post	2		12	23.0	2.5	/experiments/AOT/AOT_stimuli/rescaled_final/0824_fw.mp4	0.0	179.27583384513855	0.10043621063232422
26	141.1241750717163	fix_pre	0		119	24.0	2.5	/experiments/AOT/AOT_stimuli/rescaled_final/0925_rv.mp4	0.0	179.37627005577087	0.9916419982910156
26	142.10771107673645	pulse	0	t		24.0	2.5	/experiments/AOT/AOT_stimuli/rescaled_final/0925_rv.mp4	0.0	180.35980606079102	
26	142.11581707000732	movie	1		247	24.0	2.5	/experiments/AOT/AOT_stimuli/rescaled_final/0925_rv.mp4	0.0	180.3679120540619	2.507917881011963
26	143.70752501487732	pulse	1	t		24.0	2.5	/experiments/AOT/AOT_stimuli/rescaled_final/0925_rv.mp4	0.0	181.95961999893188	
26	144.6237349510193	fix_post	2		12	24.0	2.5	/experiments/AOT/AOT_stimuli/rescaled_final/0925_rv.mp4	0.0	182.87582993507385	0.09994697570800781
27	144.7236819267273	fix_pre	0		120	25.0	2.5	/experiments/AOT/AOT_stimuli/rescaled_final/0251_rv.mp4	0.0	182.97577691078186	1.0000789165496826
27	145.30770587921143	pulse	0	t		25.0	2.5	/experiments/AOT/AOT_stimuli/rescaled_final/0251_rv.mp4	0.0	183.559800863266	
27	145.72376084327698	movie	1		246	25.0	2.5	/experiments/AOT/AOT_stimuli/rescaled_final/0251_rv.mp4	0.0	183.97585582733154	2.500373125076294
27	146.90769386291504	pulse	1	t		25.0	2.5	/experiments/AOT/AOT_stimuli/rescaled_final/0251_rv.mp4	0.0	185.1597888469696	
27	148.22413396835327	fix_post	2		12	25.0	2.5	/experiments/AOT/AOT_stimuli/rescaled_final/0251_rv.mp4	0.0	186.47622895240784	0.10005307197570801
28	148.32418704032898	fix_pre	0		120	26.0	2.5	blank	1.0	186.57628202438354	0.9998679161071777
28	148.50772786140442	pulse	0	t		26.0	2.5	blank	1.0	186.75982284545898	
28	149.32405495643616	movie	1		300	26.0	2.5	blank	1.0	187.57614994049072	2.5000789165496826
28	150.1076078414917	pulse	1	t		26.0	2.5	blank	1.0	188.35970282554626	
28	151.70757007598877	pulse	1	t		26.0	2.5	blank	1.0	189.95966506004333	
28	151.82413387298584	fix_post	2		12	26.0	2.5	blank	1.0	190.0762288570404	0.09993720054626465
29	151.9240710735321	fix_pre	0		120	27.0	2.5	/experiments/AOT/AOT_stimuli/rescaled_final/0163_fw.mp4	0.0	190.17616605758667	1.0000948905944824
29	152.9241659641266	movie	1		243	27.0	2.5	/experiments/AOT/AOT_stimuli/rescaled_final/0163_fw.mp4	0.0	191.17626094818115	2.499979019165039
29	153.30912399291992	pulse	1	t		27.0	2.5	/experiments/AOT/AOT_stimuli/rescaled_final/0163_fw.mp4	0.0	191.5612189769745	
29	154.90753889083862	pulse	1	t		27.0	2.5	/experiments/AOT/AOT_stimuli/rescaled_final/0163_fw.mp4	0.0	193.1596338748932	
29	155.42414498329163	fix_post	2		12	27.0	2.5	/experiments/AOT/AOT_stimuli/rescaled_final/0163_fw.mp4	0.0	193.6762399673462	0.09995889663696289
30	155.5241038799286	fix_pre	0		119	28.0	2.5	/experiments/AOT/AOT_stimuli/rescaled_final/0377_rv.mp4	0.0	193.77619886398315	0.9916691780090332
30	156.50759196281433	pulse	0	t		28.0	2.5	/experiments/AOT/AOT_stimuli/rescaled_final/0377_rv.mp4	0.0	194.7596869468689	
30	156.51577305793762	movie	1		248	28.0	2.5	/experiments/AOT/AOT_stimuli/rescaled_final/0377_rv.mp4	0.0	194.7678680419922	2.507906913757324
30	158.10667490959167	pulse	1	t		28.0	2.5	/experiments/AOT/AOT_stimuli/rescaled_final/0377_rv.mp4	0.0	196.35876989364624	
30	159.02367997169495	fix_post	2		12	28.0	2.5	/experiments/AOT/AOT_stimuli/rescaled_final/0377_rv.mp4	0.0	197.2757749557495	0.10040593147277832
31	159.12408590316772	fix_pre	0		120	29.0	2.5	/experiments/AOT/AOT_stimuli/rescaled_final/0033_rv.mp4	0.0	197.3761808872223	1.0001380443572998
31	159.7075970172882	pulse	0	t		29.0	2.5	/experiments/AOT/AOT_stimuli/rescaled_final/0033_rv.mp4	0.0	197.95969200134277	
31	160.12422394752502	movie	1		246	29.0	2.5	/experiments/AOT/AOT_stimuli/rescaled_final/0033_rv.mp4	0.0	198.3763189315796	2.499856948852539
31	161.30788397789001	pulse	1	t		29.0	2.5	/experiments/AOT/AOT_stimuli/rescaled_final/0033_rv.mp4	0.0	199.55997896194458	
31	162.62408089637756	fix_post	2		12	29.0	2.5	/experiments/AOT/AOT_stimuli/rescaled_final/0033_rv.mp4	0.0	200.87617588043213	0.0999760627746582
32	162.72405695915222	fix_pre	0		120	30.0	2.5	/experiments/AOT/AOT_stimuli/rescaled_final/0277_fw.mp4	0.0	200.9761519432068	1.0000429153442383
32	162.9075448513031	pulse	0	t		30.0	2.5	/experiments/AOT/AOT_stimuli/rescaled_final/0277_fw.mp4	0.0	201.15963983535767	
32	163.72409987449646	movie	1		246	30.0	2.5	/experiments/AOT/AOT_stimuli/rescaled_final/0277_fw.mp4	0.0	201.97619485855103	2.499880075454712
32	164.50744199752808	pulse	1	t		30.0	2.5	/experiments/AOT/AOT_stimuli/rescaled_final/0277_fw.mp4	0.0	202.75953698158264	
32	166.10574102401733	pulse	1	t		30.0	2.5	/experiments/AOT/AOT_stimuli/rescaled_final/0277_fw.mp4	0.0	204.3578360080719	
32	166.22397994995117	fix_post	2		12	30.0	2.5	/experiments/AOT/AOT_stimuli/rescaled_final/0277_fw.mp4	0.0	204.47607493400574	0.10003495216369629
33	166.32401490211487	fix_pre	0		120	31.0	2.5	/experiments/AOT/AOT_stimuli/rescaled_final/0469_rv.mp4	0.0	204.57610988616943	0.9999260902404785
33	167.32394099235535	movie	1		244	31.0	2.5	/experiments/AOT/AOT_stimuli/rescaled_final/0469_rv.mp4	0.0	205.5760359764099	2.499598979949951
33	167.7070050239563	pulse	1	t		31.0	2.5	/experiments/AOT/AOT_stimuli/rescaled_final/0469_rv.mp4	0.0	205.95910000801086	
33	169.30756092071533	pulse	1	t		31.0	2.5	/experiments/AOT/AOT_stimuli/rescaled_final/0469_rv.mp4	0.0	207.5596559047699	
33	169.8235399723053	fix_post	2		12	31.0	2.5	/experiments/AOT/AOT_stimuli/rescaled_final/0469_rv.mp4	0.0	208.07563495635986	0.10039806365966797
34	169.92393803596497	fix_pre	0		119	32.0	2.5	/experiments/AOT/AOT_stimuli/rescaled_final/0783_rv.mp4	0.0	208.17603302001953	0.9916479587554932
34	170.90740489959717	pulse	0	t		32.0	2.5	/experiments/AOT/AOT_stimuli/rescaled_final/0783_rv.mp4	0.0	209.15949988365173	
34	170.91558599472046	movie	1		246	32.0	2.5	/experiments/AOT/AOT_stimuli/rescaled_final/0783_rv.mp4	0.0	209.16768097877502	2.5079259872436523
34	172.50760006904602	pulse	1	t		32.0	2.5	/experiments/AOT/AOT_stimuli/rescaled_final/0783_rv.mp4	0.0	210.7596950531006	
34	173.4235119819641	fix_post	2		12	32.0	2.5	/experiments/AOT/AOT_stimuli/rescaled_final/0783_rv.mp4	0.0	211.67560696601868	0.10043191909790039
35	173.523943901062	fix_pre	0		120	33.0	2.5	/experiments/AOT/AOT_stimuli/rescaled_final/0505_rv.mp4	0.0	211.77603888511658	0.9995050430297852
35	174.10741901397705	pulse	0	t		33.0	2.5	/experiments/AOT/AOT_stimuli/rescaled_final/0505_rv.mp4	0.0	212.35951399803162	
35	174.5234489440918	movie	1		244	33.0	2.5	/experiments/AOT/AOT_stimuli/rescaled_final/0505_rv.mp4	0.0	212.77554392814636	2.5004780292510986
35	175.7075388431549	pulse	1	t		33.0	2.5	/experiments/AOT/AOT_stimuli/rescaled_final/0505_rv.mp4	0.0	213.95963382720947	
35	177.0239269733429	fix_post	2		12	33.0	2.5	/experiments/AOT/AOT_stimuli/rescaled_final/0505_rv.mp4	0.0	215.27602195739746	0.09989690780639648
36	177.1238238811493	fix_pre	0		120	34.0	2.5	/experiments/AOT/AOT_stimuli/rescaled_final/1031_rv.mp4	0.0	215.37591886520386	1.0000860691070557
36	177.3074140548706	pulse	0	t		34.0	2.5	/experiments/AOT/AOT_stimuli/rescaled_final/1031_rv.mp4	0.0	215.55950903892517	
36	178.12390995025635	movie	1		244	34.0	2.5	/experiments/AOT/AOT_stimuli/rescaled_final/1031_rv.mp4	0.0	216.3760049343109	2.4995570182800293
36	178.90738797187805	pulse	1	t		34.0	2.5	/experiments/AOT/AOT_stimuli/rescaled_final/1031_rv.mp4	0.0	217.15948295593262	
36	180.50603985786438	pulse	1	t		34.0	2.5	/experiments/AOT/AOT_stimuli/rescaled_final/1031_rv.mp4	0.0	218.75813484191895	
36	180.62346696853638	fix_post	2		12	34.0	2.5	/experiments/AOT/AOT_stimuli/rescaled_final/1031_rv.mp4	0.0	218.87556195259094	0.10043501853942871
37	180.7239019870758	fix_pre	0		120	35.0	2.5	blank	1.0	218.97599697113037	0.9995338916778564
37	181.72343587875366	movie	1		300	35.0	2.5	blank	1.0	219.97553086280823	2.500425100326538
37	182.10749793052673	pulse	1	t		35.0	2.5	blank	1.0	220.3595929145813	
37	183.70734405517578	pulse	1	t		35.0	2.5	blank	1.0	221.95943903923035	
37	184.2238609790802	fix_post	2		12	35.0	2.5	blank	1.0	222.47595596313477	0.10005903244018555
38	184.32392001152039	fix_pre	0		119	36.0	2.5	/experiments/AOT/AOT_stimuli/rescaled_final/0248_rv.mp4	0.0	222.57601499557495	0.9916329383850098
38	185.30739784240723	pulse	0	t		36.0	2.5	/experiments/AOT/AOT_stimuli/rescaled_final/0248_rv.mp4	0.0	223.5594928264618	
38	185.3155529499054	movie	1		246	36.0	2.5	/experiments/AOT/AOT_stimuli/rescaled_final/0248_rv.mp4	0.0	223.56764793395996	2.508280038833618
38	186.9072709083557	pulse	1	t		36.0	2.5	/experiments/AOT/AOT_stimuli/rescaled_final/0248_rv.mp4	0.0	225.15936589241028	
38	187.823832988739	fix_post	2		12	36.0	2.5	/experiments/AOT/AOT_stimuli/rescaled_final/0248_rv.mp4	0.0	226.07592797279358	0.10004687309265137
39	187.92387986183167	fix_pre	0		120	37.0	2.5	/experiments/AOT/AOT_stimuli/rescaled_final/1834_fw.mp4	0.0	226.17597484588623	1.0000660419464111
39	188.50730991363525	pulse	0	t		37.0	2.5	/experiments/AOT/AOT_stimuli/rescaled_final/1834_fw.mp4	0.0	226.75940489768982	
39	188.92394590377808	movie	1		245	37.0	2.5	/experiments/AOT/AOT_stimuli/rescaled_final/1834_fw.mp4	0.0	227.17604088783264	2.4998791217803955
39	190.10741901397705	pulse	1	t		37.0	2.5	/experiments/AOT/AOT_stimuli/rescaled_final/1834_fw.mp4	0.0	228.35951399803162	
39	191.42382502555847	fix_post	2		12	37.0	2.5	/experiments/AOT/AOT_stimuli/rescaled_final/1834_fw.mp4	0.0	229.67592000961304	0.09992790222167969
40	191.52375292778015	fix_pre	0		120	38.0	2.5	/experiments/AOT/AOT_stimuli/rescaled_final/0357_fw.mp4	0.0	229.77584791183472	0.9999759197235107
40	191.70727801322937	pulse	0	t		38.0	2.5	/experiments/AOT/AOT_stimuli/rescaled_final/0357_fw.mp4	0.0	229.95937299728394	
40	192.52372884750366	movie	1		244	38.0	2.5	/experiments/AOT/AOT_stimuli/rescaled_final/0357_fw.mp4	0.0	230.77582383155823	2.499629020690918
40	193.3073229789734	pulse	1	t		38.0	2.5	/experiments/AOT/AOT_stimuli/rescaled_final/0357_fw.mp4	0.0	231.55941796302795	
40	194.90599298477173	pulse	1	t		38.0	2.5	/experiments/AOT/AOT_stimuli/rescaled_final/0357_fw.mp4	0.0	233.1580879688263	
40	195.02335786819458	fix_post	2		12	38.0	2.5	/experiments/AOT/AOT_stimuli/rescaled_final/0357_fw.mp4	0.0	233.27545285224915	0.10065817832946777
41	195.12401604652405	fix_pre	0		120	39.0	2.5	/experiments/AOT/AOT_stimuli/rescaled_final/0583_fw.mp4	0.0	233.3761110305786	0.9998788833618164
41	196.12389492988586	movie	1		243	39.0	2.5	/experiments/AOT/AOT_stimuli/rescaled_final/0583_fw.mp4	0.0	234.37598991394043	2.499891996383667
41	196.50758385658264	pulse	1	t		39.0	2.5	/experiments/AOT/AOT_stimuli/rescaled_final/0583_fw.mp4	0.0	234.7596788406372	
41	198.10732793807983	pulse	1	t		39.0	2.5	/experiments/AOT/AOT_stimuli/rescaled_final/0583_fw.mp4	0.0	236.3594229221344	
41	198.62378692626953	fix_post	2		12	39.0	2.5	/experiments/AOT/AOT_stimuli/rescaled_final/0583_fw.mp4	0.0	236.8758819103241	0.09958410263061523
42	198.72337102890015	fix_pre	0		119	40.0	2.5	/experiments/AOT/AOT_stimuli/rescaled_final/1995_fw.mp4	0.0	236.9754660129547	0.9920158386230469
42	199.70730590820312	pulse	0	t		40.0	2.5	/experiments/AOT/AOT_stimuli/rescaled_final/1995_fw.mp4	0.0	237.9594008922577	
42	199.7153868675232	movie	1		246	40.0	2.5	/experiments/AOT/AOT_stimuli/rescaled_final/1995_fw.mp4	0.0	237.96748185157776	2.507911205291748
42	201.3070249557495	pulse	1	t		40.0	2.5	/experiments/AOT/AOT_stimuli/rescaled_final/1995_fw.mp4	0.0	239.55911993980408	
42	202.22329807281494	fix_post	2		12	40.0	2.5	/experiments/AOT/AOT_stimuli/rescaled_final/1995_fw.mp4	0.0	240.4753930568695	0.10042095184326172
43	202.3237190246582	fix_pre	0		120	41.0	2.5	blank	1.0	240.57581400871277	0.99953293800354
43	202.9072790145874	pulse	0	t		41.0	2.5	blank	1.0	241.15937399864197	
43	203.32325196266174	movie	1		300	41.0	2.5	blank	1.0	241.5753469467163	2.5004758834838867
43	204.5072729587555	pulse	1	t		41.0	2.5	blank	1.0	242.75936794281006	
43	205.82372784614563	fix_post	2		12	41.0	2.5	blank	1.0	244.0758228302002	0.09996604919433594
44	205.92369389533997	fix_pre	0		120	42.0	2.5	/experiments/AOT/AOT_stimuli/rescaled_final/1122_fw.mp4	0.0	244.17578887939453	1.0000619888305664
44	206.1073169708252	pulse	0	t		42.0	2.5	/experiments/AOT/AOT_stimuli/rescaled_final/1122_fw.mp4	0.0	244.35941195487976	
44	206.92375588417053	movie	1		245	42.0	2.5	/experiments/AOT/AOT_stimuli/rescaled_final/1122_fw.mp4	0.0	245.1758508682251	2.4996511936187744
44	207.7071750164032	pulse	1	t		42.0	2.5	/experiments/AOT/AOT_stimuli/rescaled_final/1122_fw.mp4	0.0	245.95927000045776	
44	209.30560684204102	pulse	1	t		42.0	2.5	/experiments/AOT/AOT_stimuli/rescaled_final/1122_fw.mp4	0.0	247.55770182609558	
44	209.4234070777893	fix_post	2		12	42.0	2.5	/experiments/AOT/AOT_stimuli/rescaled_final/1122_fw.mp4	0.0	247.67550206184387	0.10023999214172363
45	209.52364706993103	fix_pre	0		120	43.0	2.5	/experiments/AOT/AOT_stimuli/rescaled_final/1926_rv.mp4	0.0	247.7757420539856	1.0000169277191162
45	210.52366399765015	movie	1		246	43.0	2.5	/experiments/AOT/AOT_stimuli/rescaled_final/1926_rv.mp4	0.0	248.7757589817047	2.499997854232788
45	210.90675401687622	pulse	1	t		43.0	2.5	/experiments/AOT/AOT_stimuli/rescaled_final/1926_rv.mp4	0.0	249.1588490009308	
45	212.50723385810852	pulse	1	t		43.0	2.5	/experiments/AOT/AOT_stimuli/rescaled_final/1926_rv.mp4	0.0	250.7593288421631	
45	213.02366185188293	fix_post	2		12	43.0	2.5	/experiments/AOT/AOT_stimuli/rescaled_final/1926_rv.mp4	0.0	251.2757568359375	0.1001272201538086
46	213.12378907203674	fix_pre	0		119	44.0	2.5	/experiments/AOT/AOT_stimuli/rescaled_final/1402_rv.mp4	0.0	251.3758840560913	0.9915449619293213
46	214.10681295394897	pulse	0	t		44.0	2.5	/experiments/AOT/AOT_stimuli/rescaled_final/1402_rv.mp4	0.0	252.35890793800354	
46	214.11533403396606	movie	1		244	44.0	2.5	/experiments/AOT/AOT_stimuli/rescaled_final/1402_rv.mp4	0.0	252.36742901802063	2.508275032043457
46	215.70685696601868	pulse	1	t		44.0	2.5	/experiments/AOT/AOT_stimuli/rescaled_final/1402_rv.mp4	0.0	253.95895195007324	
46	216.62360906600952	fix_post	2		12	44.0	2.5	/experiments/AOT/AOT_stimuli/rescaled_final/1402_rv.mp4	0.0	254.8757040500641	0.10032892227172852
47	216.72393798828125	fix_pre	0		120	45.0	2.5	/experiments/AOT/AOT_stimuli/rescaled_final/0196_rv.mp4	0.0	254.97603297233582	0.9997918605804443
47	217.3070569038391	pulse	0	t		45.0	2.5	/experiments/AOT/AOT_stimuli/rescaled_final/0196_rv.mp4	0.0	255.55915188789368	
47	217.7237298488617	movie	1		243	45.0	2.5	/experiments/AOT/AOT_stimuli/rescaled_final/0196_rv.mp4	0.0	255.97582483291626	2.4999160766601562
47	218.90713095664978	pulse	1	t		45.0	2.5	/experiments/AOT/AOT_stimuli/rescaled_final/0196_rv.mp4	0.0	257.15922594070435	
47	220.22364592552185	fix_post	2		12	45.0	2.5	/experiments/AOT/AOT_stimuli/rescaled_final/0196_rv.mp4	0.0	258.4757409095764	0.10007905960083008
48	220.32372498512268	fix_pre	0		120	46.0	2.5	/experiments/AOT/AOT_stimuli/rescaled_final/0925_fw.mp4	0.0	258.57581996917725	0.9999220371246338
48	220.50725388526917	pulse	0	t		46.0	2.5	/experiments/AOT/AOT_stimuli/rescaled_final/0925_fw.mp4	0.0	258.75934886932373	
48	221.32364702224731	movie	1		243	46.0	2.5	/experiments/AOT/AOT_stimuli/rescaled_final/0925_fw.mp4	0.0	259.5757420063019	2.4995129108428955
48	222.10706686973572	pulse	1	t		46.0	2.5	/experiments/AOT/AOT_stimuli/rescaled_final/0925_fw.mp4	0.0	260.3591618537903	
48	223.7055070400238	pulse	1	t		46.0	2.5	/experiments/AOT/AOT_stimuli/rescaled_final/0925_fw.mp4	0.0	261.95760202407837	
48	223.8231599330902	fix_post	2		12	46.0	2.5	/experiments/AOT/AOT_stimuli/rescaled_final/0925_fw.mp4	0.0	262.0752549171448	0.10048604011535645
49	223.92364597320557	fix_pre	0		120	47.0	2.5	blank	1.0	262.17574095726013	0.9994840621948242
49	224.9231300354004	movie	1		300	47.0	2.5	blank	1.0	263.17522501945496	2.50050687789917
49	225.30707001686096	pulse	1	t		47.0	2.5	blank	1.0	263.5591650009155	
49	226.90707898139954	pulse	1	t		47.0	2.5	blank	1.0	265.1591739654541	
49	227.42363691329956	fix_post	2		12	47.0	2.5	blank	1.0	265.6757318973541	0.10004401206970215
50	227.52368092536926	fix_pre	0		119	48.0	2.5	/experiments/AOT/AOT_stimuli/rescaled_final/1577_fw.mp4	0.0	265.7757759094238	0.991610050201416
50	228.5071358680725	pulse	0	t		48.0	2.5	/experiments/AOT/AOT_stimuli/rescaled_final/1577_fw.mp4	0.0	266.7592308521271	
50	228.51529097557068	movie	1		246	48.0	2.5	/experiments/AOT/AOT_stimuli/rescaled_final/1577_fw.mp4	0.0	266.76738595962524	2.507889986038208
50	230.1083059310913	pulse	1	t		48.0	2.5	/experiments/AOT/AOT_stimuli/rescaled_final/1577_fw.mp4	0.0	268.3604009151459	
50	231.0231809616089	fix_post	2		12	48.0	2.5	/experiments/AOT/AOT_stimuli/rescaled_final/1577_fw.mp4	0.0	269.27527594566345	0.10044693946838379
51	231.12362790107727	fix_pre	0		120	49.0	2.5	/experiments/AOT/AOT_stimuli/rescaled_final/1431_rv.mp4	0.0	269.37572288513184	1.0000441074371338
51	231.70707201957703	pulse	0	t		49.0	2.5	/experiments/AOT/AOT_stimuli/rescaled_final/1431_rv.mp4	0.0	269.9591670036316	
51	232.1236720085144	movie	1		247	49.0	2.5	/experiments/AOT/AOT_stimuli/rescaled_final/1431_rv.mp4	0.0	270.37576699256897	2.500016927719116
51	233.30712294578552	pulse	1	t		49.0	2.5	/experiments/AOT/AOT_stimuli/rescaled_final/1431_rv.mp4	0.0	271.5592179298401	
51	234.62368893623352	fix_post	2		12	49.0	2.5	/experiments/AOT/AOT_stimuli/rescaled_final/1431_rv.mp4	0.0	272.8757839202881	0.09992194175720215
52	234.72361087799072	fix_pre	0		120	50.0	2.5	/experiments/AOT/AOT_stimuli/rescaled_final/1892_fw.mp4	0.0	272.9757058620453	1.0000340938568115
52	234.90701603889465	pulse	0	t		50.0	2.5	/experiments/AOT/AOT_stimuli/rescaled_final/1892_fw.mp4	0.0	273.1591110229492	
52	235.72364497184753	movie	1		245	50.0	2.5	/experiments/AOT/AOT_stimuli/rescaled_final/1892_fw.mp4	0.0	273.9757399559021	2.4994819164276123
52	236.50704407691956	pulse	1	t		50.0	2.5	/experiments/AOT/AOT_stimuli/rescaled_final/1892_fw.mp4	0.0	274.7591390609741	
52	238.10565400123596	pulse	1	t		50.0	2.5	/experiments/AOT/AOT_stimuli/rescaled_final/1892_fw.mp4	0.0	276.3577489852905	
52	238.22312688827515	fix_post	2		12	50.0	2.5	/experiments/AOT/AOT_stimuli/rescaled_final/1892_fw.mp4	0.0	276.4752218723297	0.10039615631103516
53	238.32352304458618	fix_pre	0		120	51.0	2.5	/experiments/AOT/AOT_stimuli/rescaled_final/0752_fw.mp4	0.0	276.57561802864075	1.0000009536743164
53	239.3235239982605	movie	1		245	51.0	2.5	/experiments/AOT/AOT_stimuli/rescaled_final/0752_fw.mp4	0.0	277.57561898231506	2.4995980262756348
53	239.70722603797913	pulse	1	t		51.0	2.5	/experiments/AOT/AOT_stimuli/rescaled_final/0752_fw.mp4	0.0	277.9593210220337	
53	241.30700492858887	pulse	1	t		51.0	2.5	/experiments/AOT/AOT_stimuli/rescaled_final/0752_fw.mp4	0.0	279.55909991264343	
53	241.82312202453613	fix_post	2		12	51.0	2.5	/experiments/AOT/AOT_stimuli/rescaled_final/0752_fw.mp4	0.0	280.0752170085907	0.10038495063781738
54	241.92350697517395	fix_pre	0		119	52.0	2.5	/experiments/AOT/AOT_stimuli/rescaled_final/1063_rv.mp4	0.0	280.1756019592285	0.991671085357666
54	242.90720105171204	pulse	0	t		52.0	2.5	/experiments/AOT/AOT_stimuli/rescaled_final/1063_rv.mp4	0.0	281.1592960357666	
54	242.91517806053162	movie	1		245	52.0	2.5	/experiments/AOT/AOT_stimuli/rescaled_final/1063_rv.mp4	0.0	281.1672730445862	2.507882833480835
54	244.50665998458862	pulse	1	t		52.0	2.5	/experiments/AOT/AOT_stimuli/rescaled_final/1063_rv.mp4	0.0	282.7587549686432	
54	245.42306089401245	fix_post	2		12	52.0	2.5	/experiments/AOT/AOT_stimuli/rescaled_final/1063_rv.mp4	0.0	283.675155878067	0.10045695304870605
55	245.52351784706116	fix_pre	0		120	53.0	2.5	/experiments/AOT/AOT_stimuli/rescaled_final/0046_fw.mp4	0.0	283.7756128311157	0.9999420642852783
55	246.10702800750732	pulse	0	t		53.0	2.5	/experiments/AOT/AOT_stimuli/rescaled_final/0046_fw.mp4	0.0	284.3591229915619	
55	246.52345991134644	movie	1		244	53.0	2.5	/experiments/AOT/AOT_stimuli/rescaled_final/0046_fw.mp4	0.0	284.775554895401	2.499650001525879
55	247.70716905593872	pulse	1	t		53.0	2.5	/experiments/AOT/AOT_stimuli/rescaled_final/0046_fw.mp4	0.0	285.9592640399933	
55	249.02310991287231	fix_post	2		12	53.0	2.5	/experiments/AOT/AOT_stimuli/rescaled_final/0046_fw.mp4	0.0	287.2752048969269	0.1005251407623291
56	249.12363505363464	fix_pre	0		120	54.0	2.5	/experiments/AOT/AOT_stimuli/rescaled_final/0651_fw.mp4	0.0	287.3757300376892	0.9998760223388672
56	249.3070249557495	pulse	0	t		54.0	2.5	/experiments/AOT/AOT_stimuli/rescaled_final/0651_fw.mp4	0.0	287.5591199398041	
56	250.1235110759735	movie	1		244	54.0	2.5	/experiments/AOT/AOT_stimuli/rescaled_final/0651_fw.mp4	0.0	288.3756060600281	2.4999358654022217
56	250.9069788455963	pulse	1	t		54.0	2.5	/experiments/AOT/AOT_stimuli/rescaled_final/0651_fw.mp4	0.0	289.1590738296509	
56	252.50537586212158	pulse	1	t		54.0	2.5	/experiments/AOT/AOT_stimuli/rescaled_final/0651_fw.mp4	0.0	290.75747084617615	
56	252.62344694137573	fix_post	2		12	54.0	2.5	/experiments/AOT/AOT_stimuli/rescaled_final/0651_fw.mp4	0.0	290.8755419254303	0.10002303123474121
57	252.72346997261047	fix_pre	0		120	55.0	2.5	blank	1.0	290.97556495666504	1.000046968460083
57	253.72351694107056	movie	1		300	55.0	2.5	blank	1.0	291.9756119251251	2.499937057495117
57	254.10705995559692	pulse	1	t		55.0	2.5	blank	1.0	292.3591549396515	
57	255.70693707466125	pulse	1	t		55.0	2.5	blank	1.0	293.9590320587158	
57	256.2234539985657	fix_post	2		12	55.0	2.5	blank	1.0	294.47554898262024	0.1000518798828125
58	256.3235058784485	fix_pre	0		119	56.0	2.5	/experiments/AOT/AOT_stimuli/rescaled_final/1031_fw.mp4	0.0	294.57560086250305	0.9916541576385498
58	257.30701184272766	pulse	0	t		56.0	2.5	/experiments/AOT/AOT_stimuli/rescaled_final/1031_fw.mp4	0.0	295.5591068267822	
58	257.31516003608704	movie	1		245	56.0	2.5	/experiments/AOT/AOT_stimuli/rescaled_final/1031_fw.mp4	0.0	295.5672550201416	2.507882833480835
58	258.9067749977112	pulse	1	t		56.0	2.5	/experiments/AOT/AOT_stimuli/rescaled_final/1031_fw.mp4	0.0	297.15886998176575	
58	259.82304286956787	fix_post	2		12	56.0	2.5	/experiments/AOT/AOT_stimuli/rescaled_final/1031_fw.mp4	0.0	298.07513785362244	0.10033917427062988
59	259.9233820438385	fix_pre	0		120	57.0	2.5	/experiments/AOT/AOT_stimuli/rescaled_final/0874_rv.mp4	0.0	298.17547702789307	1.000032901763916
59	260.5069739818573	pulse	0	t		57.0	2.5	/experiments/AOT/AOT_stimuli/rescaled_final/0874_rv.mp4	0.0	298.75906896591187	
59	260.9234149456024	movie	1		243	57.0	2.5	/experiments/AOT/AOT_stimuli/rescaled_final/0874_rv.mp4	0.0	299.175509929657	2.5000159740448
59	262.10703706741333	pulse	1	t		57.0	2.5	/experiments/AOT/AOT_stimuli/rescaled_final/0874_rv.mp4	0.0	300.3591320514679	
59	263.4234309196472	fix_post	2		12	57.0	2.5	/experiments/AOT/AOT_stimuli/rescaled_final/0874_rv.mp4	0.0	301.6755259037018	0.09961700439453125
60	263.52304792404175	fix_pre	0		120	58.0	2.5	/experiments/AOT/AOT_stimuli/rescaled_final/0461_rv.mp4	0.0	301.7751429080963	1.0003550052642822
60	263.7069489955902	pulse	0	t		58.0	2.5	/experiments/AOT/AOT_stimuli/rescaled_final/0461_rv.mp4	0.0	301.9590439796448	
60	264.52340292930603	movie	1		244	58.0	2.5	/experiments/AOT/AOT_stimuli/rescaled_final/0461_rv.mp4	0.0	302.7754979133606	2.4995899200439453
60	265.3069739341736	pulse	1	t		58.0	2.5	/experiments/AOT/AOT_stimuli/rescaled_final/0461_rv.mp4	0.0	303.55906891822815	
60	266.9052128791809	pulse	1	t		58.0	2.5	/experiments/AOT/AOT_stimuli/rescaled_final/0461_rv.mp4	0.0	305.1573078632355	
60	267.02299284935	fix_post	2		12	58.0	2.5	/experiments/AOT/AOT_stimuli/rescaled_final/0461_rv.mp4	0.0	305.27508783340454	0.10051321983337402
61	267.12350606918335	fix_pre	0		120	59.0	2.5	/experiments/AOT/AOT_stimuli/rescaled_final/1570_rv.mp4	0.0	305.3756010532379	0.9999368190765381
61	268.1234428882599	movie	1		247	59.0	2.5	/experiments/AOT/AOT_stimuli/rescaled_final/1570_rv.mp4	0.0	306.37553787231445	2.4995570182800293
61	268.50666785240173	pulse	1	t		59.0	2.5	/experiments/AOT/AOT_stimuli/rescaled_final/1570_rv.mp4	0.0	306.7587628364563	
61	270.1064329147339	pulse	1	t		59.0	2.5	/experiments/AOT/AOT_stimuli/rescaled_final/1570_rv.mp4	0.0	308.35852789878845	
61	270.6229999065399	fix_post	2		12	59.0	2.5	/experiments/AOT/AOT_stimuli/rescaled_final/1570_rv.mp4	0.0	308.8750948905945	0.10001897811889648
62	270.7230188846588	fix_pre	0		119	60.0	2.5	/experiments/AOT/AOT_stimuli/rescaled_final/0818_rv.mp4	0.0	308.9751138687134	0.991786003112793
62	271.70696902275085	pulse	0	t		60.0	2.5	/experiments/AOT/AOT_stimuli/rescaled_final/0818_rv.mp4	0.0	309.9590640068054	
62	271.7148048877716	movie	1		244	60.0	2.5	/experiments/AOT/AOT_stimuli/rescaled_final/0818_rv.mp4	0.0	309.9668998718262	2.508603096008301
62	273.30664706230164	pulse	1	t		60.0	2.5	/experiments/AOT/AOT_stimuli/rescaled_final/0818_rv.mp4	0.0	311.5587420463562	
62	274.2234079837799	fix_post	2		12	60.0	2.5	/experiments/AOT/AOT_stimuli/rescaled_final/0818_rv.mp4	0.0	312.4755029678345	0.09998106956481934
63	274.3233890533447	fix_pre	0		120	61.0	2.5	/experiments/AOT/AOT_stimuli/rescaled_final/0824_rv.mp4	0.0	312.5754840373993	1.000011920928955
63	274.9068908691406	pulse	0	t		61.0	2.5	/experiments/AOT/AOT_stimuli/rescaled_final/0824_rv.mp4	0.0	313.1589858531952	
63	275.3234009742737	movie	1		247	61.0	2.5	/experiments/AOT/AOT_stimuli/rescaled_final/0824_rv.mp4	0.0	313.57549595832825	2.5000200271606445
63	276.50690388679504	pulse	1	t		61.0	2.5	/experiments/AOT/AOT_stimuli/rescaled_final/0824_rv.mp4	0.0	314.7589988708496	
63	277.8234210014343	fix_post	2		12	61.0	2.5	/experiments/AOT/AOT_stimuli/rescaled_final/0824_rv.mp4	0.0	316.0755159854889	0.09989285469055176
64	277.9233138561249	fix_pre	0		120	62.0	2.5	/experiments/AOT/AOT_stimuli/rescaled_final/1541_fw.mp4	0.0	316.17540884017944	0.9999711513519287
64	278.1068069934845	pulse	0	t		62.0	2.5	/experiments/AOT/AOT_stimuli/rescaled_final/1541_fw.mp4	0.0	316.35890197753906	
64	278.9232850074768	movie	1		245	62.0	2.5	/experiments/AOT/AOT_stimuli/rescaled_final/1541_fw.mp4	0.0	317.1753799915314	2.500037908554077
64	279.7068510055542	pulse	1	t		62.0	2.5	/experiments/AOT/AOT_stimuli/rescaled_final/1541_fw.mp4	0.0	317.95894598960876	
64	281.3052439689636	pulse	1	t		62.0	2.5	/experiments/AOT/AOT_stimuli/rescaled_final/1541_fw.mp4	0.0	319.5573389530182	
64	281.4233229160309	fix_post	2		12	62.0	2.5	/experiments/AOT/AOT_stimuli/rescaled_final/1541_fw.mp4	0.0	319.67541790008545	0.0999751091003418
65	281.5232980251312	fix_pre	0		120	63.0	2.5	blank	1.0	319.7753930091858	1.000114917755127
65	282.52341294288635	movie	1		300	63.0	2.5	blank	1.0	320.7755079269409	2.499875068664551
65	282.90690207481384	pulse	1	t		63.0	2.5	blank	1.0	321.1589970588684	
65	284.5067160129547	pulse	1	t		63.0	2.5	blank	1.0	322.7588109970093	
65	285.0232880115509	fix_post	2		12	63.0	2.5	blank	1.0	323.27538299560547	0.10011100769042969
66	285.12339901924133	fix_pre	0		119	64.0	2.5	/experiments/AOT/AOT_stimuli/rescaled_final/0711_rv.mp4	0.0	323.3754940032959	0.9915368556976318
66	286.1068420410156	pulse	0	t		64.0	2.5	/experiments/AOT/AOT_stimuli/rescaled_final/0711_rv.mp4	0.0	324.3589370250702	
66	286.11493587493896	movie	1		246	64.0	2.5	/experiments/AOT/AOT_stimuli/rescaled_final/0711_rv.mp4	0.0	324.36703085899353	2.5083680152893066
66	287.70636200904846	pulse	1	t		64.0	2.5	/experiments/AOT/AOT_stimuli/rescaled_final/0711_rv.mp4	0.0	325.958456993103	
66	288.62330389022827	fix_post	2		12	64.0	2.5	/experiments/AOT/AOT_stimuli/rescaled_final/0711_rv.mp4	0.0	326.87539887428284	0.10001111030578613
67	288.72331500053406	fix_pre	0		120	65.0	2.5	/experiments/AOT/AOT_stimuli/rescaled_final/1570_fw.mp4	0.0	326.9754099845886	1.0000579357147217
67	289.30672907829285	pulse	0	t		65.0	2.5	/experiments/AOT/AOT_stimuli/rescaled_final/1570_fw.mp4	0.0	327.5588240623474	
67	289.7233729362488	movie	1		245	65.0	2.5	/experiments/AOT/AOT_stimuli/rescaled_final/1570_fw.mp4	0.0	327.97546792030334	2.499962091445923
67	290.90686202049255	pulse	1	t		65.0	2.5	/experiments/AOT/AOT_stimuli/rescaled_final/1570_fw.mp4	0.0	329.1589570045471	
67	292.2233350276947	fix_post	2		12	65.0	2.5	/experiments/AOT/AOT_stimuli/rescaled_final/1570_fw.mp4	0.0	330.47543001174927	0.09997081756591797
68	292.3233058452606	fix_pre	0		120	66.0	2.5	/experiments/AOT/AOT_stimuli/rescaled_final/1508_fw.mp4	0.0	330.5754008293152	1.0000240802764893
68	292.50682187080383	pulse	0	t		66.0	2.5	/experiments/AOT/AOT_stimuli/rescaled_final/1508_fw.mp4	0.0	330.7589168548584	
68	293.3233299255371	movie	1		244	66.0	2.5	/experiments/AOT/AOT_stimuli/rescaled_final/1508_fw.mp4	0.0	331.5754249095917	2.499997138977051
68	294.10681200027466	pulse	1	t		66.0	2.5	/experiments/AOT/AOT_stimuli/rescaled_final/1508_fw.mp4	0.0	332.3589069843292	
68	295.7051980495453	pulse	1	t		66.0	2.5	/experiments/AOT/AOT_stimuli/rescaled_final/1508_fw.mp4	0.0	333.95729303359985	
68	295.82332706451416	fix_post	2		12	66.0	2.5	/experiments/AOT/AOT_stimuli/rescaled_final/1508_fw.mp4	0.0	334.0754220485687	0.09961080551147461
69	295.92293787002563	fix_pre	0		120	67.0	2.5	/experiments/AOT/AOT_stimuli/rescaled_final/0419_rv.mp4	0.0	334.1750328540802	1.0004501342773438
69	296.923388004303	movie	1		246	67.0	2.5	/experiments/AOT/AOT_stimuli/rescaled_final/0419_rv.mp4	0.0	335.17548298835754	2.4999420642852783
69	297.3060929775238	pulse	1	t		67.0	2.5	/experiments/AOT/AOT_stimuli/rescaled_final/0419_rv.mp4	0.0	335.55818796157837	
69	298.9067430496216	pulse	1	t		67.0	2.5	/experiments/AOT/AOT_stimuli/rescaled_final/0419_rv.mp4	0.0	337.15883803367615	
69	299.42333006858826	fix_post	2		12	67.0	2.5	/experiments/AOT/AOT_stimuli/rescaled_final/0419_rv.mp4	0.0	337.6754250526428	0.09993696212768555
70	299.52326703071594	fix_pre	0		119	68.0	2.5	/experiments/AOT/AOT_stimuli/rescaled_final/0125_rv.mp4	0.0	337.7753620147705	0.9916379451751709
70	300.5067698955536	pulse	0	t		68.0	2.5	/experiments/AOT/AOT_stimuli/rescaled_final/0125_rv.mp4	0.0	338.75886487960815	
70	300.5149049758911	movie	1		245	68.0	2.5	/experiments/AOT/AOT_stimuli/rescaled_final/0125_rv.mp4	0.0	338.7669999599457	2.5083060264587402
70	302.1079180240631	pulse	1	t		68.0	2.5	/experiments/AOT/AOT_stimuli/rescaled_final/0125_rv.mp4	0.0	340.3600130081177	
70	303.02321100234985	fix_post	2		12	68.0	2.5	/experiments/AOT/AOT_stimuli/rescaled_final/0125_rv.mp4	0.0	341.2753059864044	0.10006904602050781
71	303.12328004837036	fix_pre	0		120	69.0	2.5	/experiments/AOT/AOT_stimuli/rescaled_final/0236_fw.mp4	0.0	341.3753750324249	1.0000028610229492
71	303.70679807662964	pulse	0	t		69.0	2.5	/experiments/AOT/AOT_stimuli/rescaled_final/0236_fw.mp4	0.0	341.9588930606842	
71	304.1232829093933	movie	1		247	69.0	2.5	/experiments/AOT/AOT_stimuli/rescaled_final/0236_fw.mp4	0.0	342.3753778934479	2.4995081424713135
71	305.3068299293518	pulse	1	t		69.0	2.5	/experiments/AOT/AOT_stimuli/rescaled_final/0236_fw.mp4	0.0	343.5589249134064	
71	306.6227910518646	fix_post	2		12	69.0	2.5	/experiments/AOT/AOT_stimuli/rescaled_final/0236_fw.mp4	0.0	344.8748860359192	0.10049200057983398
72	306.72328305244446	fix_pre	0		120	70.0	2.5	blank	1.0	344.975378036499	0.9996218681335449
72	306.9067440032959	pulse	0	t		70.0	2.5	blank	1.0	345.15883898735046	
72	307.722904920578	movie	1		300	70.0	2.5	blank	1.0	345.97499990463257	2.500261068344116
72	308.50674390792847	pulse	1	t		70.0	2.5	blank	1.0	346.75883889198303	
72	310.1066870689392	pulse	1	t		70.0	2.5	blank	1.0	348.3587820529938	
72	310.2231659889221	fix_post	2		12	70.0	2.5	blank	1.0	348.4752609729767	0.09998106956481934
73	310.32314705848694	fix_pre	0		120	71.0	2.5	/experiments/AOT/AOT_stimuli/rescaled_final/1063_rv.mp4	0.0	348.5752420425415	1.0000829696655273
73	311.32323002815247	movie	1		244	71.0	2.5	/experiments/AOT/AOT_stimuli/rescaled_final/1063_rv.mp4	0.0	349.57532501220703	2.499997854232788
73	311.7068729400635	pulse	1	t		71.0	2.5	/experiments/AOT/AOT_stimuli/rescaled_final/1063_rv.mp4	0.0	349.95896792411804	
73	313.30672907829285	pulse	1	t		71.0	2.5	/experiments/AOT/AOT_stimuli/rescaled_final/1063_rv.mp4	0.0	351.5588240623474	
73	313.82322788238525	fix_post	2		12	71.0	2.5	/experiments/AOT/AOT_stimuli/rescaled_final/1063_rv.mp4	0.0	352.0753228664398	0.09999203681945801
74	313.9232199192047	fix_pre	0		119	72.0	2.5	/experiments/AOT/AOT_stimuli/rescaled_final/0933_rv.mp4	0.0	352.1753149032593	0.9915981292724609
74	314.9066569805145	pulse	0	t		72.0	2.5	/experiments/AOT/AOT_stimuli/rescaled_final/0933_rv.mp4	0.0	353.1587519645691	
74	314.9148180484772	movie	1		245	72.0	2.5	/experiments/AOT/AOT_stimuli/rescaled_final/0933_rv.mp4	0.0	353.16691303253174	2.5083138942718506
74	316.5060169696808	pulse	1	t		72.0	2.5	/experiments/AOT/AOT_stimuli/rescaled_final/0933_rv.mp4	0.0	354.75811195373535	
74	317.423131942749	fix_post	2		12	72.0	2.5	/experiments/AOT/AOT_stimuli/rescaled_final/0933_rv.mp4	0.0	355.6752269268036	0.10029911994934082
75	317.52343106269836	fix_pre	0		120	73.0	2.5	/experiments/AOT/AOT_stimuli/rescaled_final/0583_rv.mp4	0.0	355.77552604675293	0.999763011932373
75	318.10671186447144	pulse	0	t		73.0	2.5	/experiments/AOT/AOT_stimuli/rescaled_final/0583_rv.mp4	0.0	356.358806848526	
75	318.52319407463074	movie	1		243	73.0	2.5	/experiments/AOT/AOT_stimuli/rescaled_final/0583_rv.mp4	0.0	356.7752890586853	2.499621868133545
75	319.7067520618439	pulse	1	t		73.0	2.5	/experiments/AOT/AOT_stimuli/rescaled_final/0583_rv.mp4	0.0	357.95884704589844	
75	321.0228159427643	fix_post	2		12	73.0	2.5	/experiments/AOT/AOT_stimuli/rescaled_final/0583_rv.mp4	0.0	359.27491092681885	0.10037899017333984
76	321.1231949329376	fix_pre	0		120	74.0	2.5	/experiments/AOT/AOT_stimuli/rescaled_final/1413_rv.mp4	0.0	359.3752899169922	0.9999759197235107
76	321.30663084983826	pulse	0	t		74.0	2.5	/experiments/AOT/AOT_stimuli/rescaled_final/1413_rv.mp4	0.0	359.5587258338928	
76	322.12317085266113	movie	1		247	74.0	2.5	/experiments/AOT/AOT_stimuli/rescaled_final/1413_rv.mp4	0.0	360.3752658367157	2.499922037124634
76	322.90667605400085	pulse	1	t		74.0	2.5	/experiments/AOT/AOT_stimuli/rescaled_final/1413_rv.mp4	0.0	361.1587710380554	
76	324.5063228607178	pulse	1	t		74.0	2.5	/experiments/AOT/AOT_stimuli/rescaled_final/1413_rv.mp4	0.0	362.75841784477234	
76	324.62309288978577	fix_post	2		12	74.0	2.5	/experiments/AOT/AOT_stimuli/rescaled_final/1413_rv.mp4	0.0	362.87518787384033	0.10009217262268066
77	324.72318506240845	fix_pre	0		120	75.0	2.5	/experiments/AOT/AOT_stimuli/rescaled_final/1794_rv.mp4	0.0	362.975280046463	0.9999418258666992
77	325.72312688827515	movie	1		250	75.0	2.5	/experiments/AOT/AOT_stimuli/rescaled_final/1794_rv.mp4	0.0	363.9752218723297	2.4998979568481445
77	326.1058349609375	pulse	1	t		75.0	2.5	/experiments/AOT/AOT_stimuli/rescaled_final/1794_rv.mp4	0.0	364.35792994499207	
77	327.70632696151733	pulse	1	t		75.0	2.5	/experiments/AOT/AOT_stimuli/rescaled_final/1794_rv.mp4	0.0	365.9584219455719	
77	328.2230248451233	fix_post	2		12	75.0	2.5	/experiments/AOT/AOT_stimuli/rescaled_final/1794_rv.mp4	0.0	366.47511982917786	0.09999322891235352
78	328.32301807403564	fix_pre	0		119	76.0	2.5	/experiments/AOT/AOT_stimuli/rescaled_final/1357_rv.mp4	0.0	366.5751130580902	0.9918348789215088
78	329.30680799484253	pulse	0	t		76.0	2.5	/experiments/AOT/AOT_stimuli/rescaled_final/1357_rv.mp4	0.0	367.5589029788971	
78	329.31485295295715	movie	1		246	76.0	2.5	/experiments/AOT/AOT_stimuli/rescaled_final/1357_rv.mp4	0.0	367.5669479370117	2.508233070373535
78	330.9061110019684	pulse	1	t		76.0	2.5	/experiments/AOT/AOT_stimuli/rescaled_final/1357_rv.mp4	0.0	369.15820598602295	
78	331.8230860233307	fix_post	2		12	76.0	2.5	/experiments/AOT/AOT_stimuli/rescaled_final/1357_rv.mp4	0.0	370.07518100738525	0.10002684593200684
79	331.9231128692627	fix_pre	0		120	77.0	2.5	blank	1.0	370.17520785331726	0.9999780654907227
79	332.50665307044983	pulse	0	t		77.0	2.5	blank	1.0	370.7587480545044	
79	332.9230909347534	movie	1		300	77.0	2.5	blank	1.0	371.175185918808	2.4995930194854736
79	334.1064929962158	pulse	1	t		77.0	2.5	blank	1.0	372.3585879802704	
79	335.4226839542389	fix_post	2		12	77.0	2.5	blank	1.0	373.67477893829346	0.10040593147277832
80	335.52308988571167	fix_pre	0		120	78.0	2.5	/experiments/AOT/AOT_stimuli/rescaled_final/0194_fw.mp4	0.0	373.77518486976624	0.9999101161956787
80	335.70660400390625	pulse	0	t		78.0	2.5	/experiments/AOT/AOT_stimuli/rescaled_final/0194_fw.mp4	0.0	373.9586989879608	
80	336.52300000190735	movie	1		250	78.0	2.5	/experiments/AOT/AOT_stimuli/rescaled_final/0194_fw.mp4	0.0	374.7750949859619	2.499675989151001
80	337.3065650463104	pulse	1	t		78.0	2.5	/experiments/AOT/AOT_stimuli/rescaled_final/0194_fw.mp4	0.0	375.558660030365	
80	338.90651988983154	pulse	1	t		78.0	2.5	/experiments/AOT/AOT_stimuli/rescaled_final/0194_fw.mp4	0.0	377.1586148738861	
80	339.02267599105835	fix_post	2		12	78.0	2.5	/experiments/AOT/AOT_stimuli/rescaled_final/0194_fw.mp4	0.0	377.2747709751129	0.10044002532958984
81	339.12311601638794	fix_pre	0		120	79.0	2.5	/experiments/AOT/AOT_stimuli/rescaled_final/1133_fw.mp4	0.0	377.3752110004425	0.9999558925628662
81	340.1230719089508	movie	1		245	79.0	2.5	/experiments/AOT/AOT_stimuli/rescaled_final/1133_fw.mp4	0.0	378.37516689300537	2.4996161460876465
81	340.506432056427	pulse	1	t		79.0	2.5	/experiments/AOT/AOT_stimuli/rescaled_final/1133_fw.mp4	0.0	378.75852704048157	
81	342.10660195350647	pulse	1	t		79.0	2.5	/experiments/AOT/AOT_stimuli/rescaled_final/1133_fw.mp4	0.0	380.35869693756104	
81	342.62268805503845	fix_post	2		12	79.0	2.5	/experiments/AOT/AOT_stimuli/rescaled_final/1133_fw.mp4	0.0	380.874783039093	0.10040879249572754
82	342.7230968475342	fix_pre	0		119	80.0	2.5	/experiments/AOT/AOT_stimuli/rescaled_final/2005_rv.mp4	0.0	380.97519183158875	0.9916551113128662
82	343.7065348625183	pulse	0	t		80.0	2.5	/experiments/AOT/AOT_stimuli/rescaled_final/2005_rv.mp4	0.0	381.9586298465729	
82	343.71475195884705	movie	1		250	80.0	2.5	/experiments/AOT/AOT_stimuli/rescaled_final/2005_rv.mp4	0.0	381.9668469429016	2.5082900524139404
82	345.30608892440796	pulse	1	t		80.0	2.5	/experiments/AOT/AOT_stimuli/rescaled_final/2005_rv.mp4	0.0	383.5581839084625	
82	346.223042011261	fix_post	2		12	80.0	2.5	/experiments/AOT/AOT_stimuli/rescaled_final/2005_rv.mp4	0.0	384.47513699531555	0.10003185272216797
83	346.32307386398315	fix_pre	0		120	81.0	2.5	/experiments/AOT/AOT_stimuli/rescaled_final/1439_fw.mp4	0.0	384.5751688480377	0.9999990463256836
83	346.90655994415283	pulse	0	t		81.0	2.5	/experiments/AOT/AOT_stimuli/rescaled_final/1439_fw.mp4	0.0	385.1586549282074	
83	347.32307291030884	movie	1		243	81.0	2.5	/experiments/AOT/AOT_stimuli/rescaled_final/1439_fw.mp4	0.0	385.5751678943634	2.4996140003204346
83	348.5065689086914	pulse	1	t		81.0	2.5	/experiments/AOT/AOT_stimuli/rescaled_final/1439_fw.mp4	0.0	386.758663892746	
83	349.8226869106293	fix_post	2		12	81.0	2.5	/experiments/AOT/AOT_stimuli/rescaled_final/1439_fw.mp4	0.0	388.07478189468384	0.10036897659301758
84	349.9230558872223	fix_pre	0		120	82.0	2.5	/experiments/AOT/AOT_stimuli/rescaled_final/0100_fw.mp4	0.0	388.17515087127686	0.9995291233062744
84	350.10648798942566	pulse	0	t		82.0	2.5	/experiments/AOT/AOT_stimuli/rescaled_final/0100_fw.mp4	0.0	388.3585829734802	
84	350.92258501052856	movie	1		245	82.0	2.5	/experiments/AOT/AOT_stimuli/rescaled_final/0100_fw.mp4	0.0	389.17467999458313	2.5003528594970703
84	351.7064628601074	pulse	1	t		82.0	2.5	/experiments/AOT/AOT_stimuli/rescaled_final/0100_fw.mp4	0.0	389.958557844162	
84	353.306058883667	pulse	1	t		82.0	2.5	/experiments/AOT/AOT_stimuli/rescaled_final/0100_fw.mp4	0.0	391.55815386772156	
84	353.42293787002563	fix_post	2		12	82.0	2.5	/experiments/AOT/AOT_stimuli/rescaled_final/0100_fw.mp4	0.0	391.6750328540802	0.10003399848937988
85	353.522971868515	fix_pre	0		120	83.0	2.5	blank	1.0	391.7750668525696	1.0000360012054443
85	354.52300786972046	movie	1		300	83.0	2.5	blank	1.0	392.775102853775	2.4996161460876465
85	354.90644097328186	pulse	1	t		83.0	2.5	blank	1.0	393.1585359573364	
85	356.5064790248871	pulse	1	t		83.0	2.5	blank	1.0	394.75857400894165	
85	357.0226240158081	fix_post	2		12	83.0	2.5	blank	1.0	395.27471899986267	0.10034489631652832
87	357.12296891212463	stim	0		1716					395.3750638961792	14.300045013427734
87	358.10645604133606	pulse	0	t						396.3585510253906	
87	359.7063729763031	pulse	0	t						397.95846796035767	
87	361.3064670562744	pulse	0	t						399.558562040329	
87	362.9064738750458	pulse	0	t						401.15856885910034	
87	364.5064868927002	pulse	0	t						402.75858187675476	
87	366.1063868999481	pulse	0	t						404.3584818840027	
87	367.7064309120178	pulse	0	t						405.9585258960724	
87	369.3064239025116	pulse	0	t						407.55851888656616	
87	370.9064030647278	pulse	0	t						409.15849804878235	
