trial_nr	onset	event_type	phase	response	nr_frames	movie_index	movie_duration	movie_file	blank	onset_abs	duration
0	0.1415407657623291	stim	0		12					17.057401418685913	0.09988832473754883
0	0.2333078384399414	response	0	space						17.149168491363525	
1	0.24142909049987793	stim	0		4650					17.157289743423462	38.76605987548828
1	38.9975368976593	pulse	0	t						55.913397550582886	
1	39.00748896598816	stim	1		1715					55.92334961891174	14.30032229423523
1	40.58936953544617	pulse	1	t						57.50523018836975	
1	42.18182849884033	pulse	1	t						59.097689151763916	
1	43.782166957855225	pulse	1	t						60.69802761077881	
1	45.382046937942505	pulse	1	t						62.29790759086609	
1	46.98204779624939	pulse	1	t						63.897908449172974	
1	48.58241128921509	pulse	1	t						65.49827194213867	
1	50.18256330490112	pulse	1	t						67.0984239578247	
1	51.782756328582764	pulse	1	t						68.69861698150635	
2	53.30781126022339	fix_pre	0		10	0.0	2.5	/experiments/Knapen_AOT/AOT_stimuli/rescaled_final/0252_rv.mp4	0.0	70.22367191314697	0.10004091262817383
2	53.38299250602722	pulse	0	t		0.0	2.5	/experiments/Knapen_AOT/AOT_stimuli/rescaled_final/0252_rv.mp4	0.0	70.2988531589508	
2	53.40785217285156	movie	1		273	0.0	2.5	/experiments/Knapen_AOT/AOT_stimuli/rescaled_final/0252_rv.mp4	0.0	70.32371282577515	2.4919891357421875
2	54.98362755775452	pulse	1	t		0.0	2.5	/experiments/Knapen_AOT/AOT_stimuli/rescaled_final/0252_rv.mp4	0.0	71.8994882106781	
2	55.89984130859375	fix_post	2		12	0.0	2.5	/experiments/Knapen_AOT/AOT_stimuli/rescaled_final/0252_rv.mp4	0.0	72.81570196151733	0.10004878044128418
3	55.999890089035034	fix_pre	0		120	1.0	2.5	/experiments/Knapen_AOT/AOT_stimuli/rescaled_final/1712_rv.mp4	0.0	72.91575074195862	1.0084648132324219
3	56.58354663848877	pulse	0	t		1.0	2.5	/experiments/Knapen_AOT/AOT_stimuli/rescaled_final/1712_rv.mp4	0.0	73.49940729141235	
3	57.008354902267456	movie	1		283	1.0	2.5	/experiments/Knapen_AOT/AOT_stimuli/rescaled_final/1712_rv.mp4	0.0	73.92421555519104	2.492074489593506
3	58.183955907821655	pulse	1	t		1.0	2.5	/experiments/Knapen_AOT/AOT_stimuli/rescaled_final/1712_rv.mp4	0.0	75.09981656074524	
3	59.50042939186096	fix_post	2		12	1.0	2.5	/experiments/Knapen_AOT/AOT_stimuli/rescaled_final/1712_rv.mp4	0.0	76.41629004478455	0.10004758834838867
4	59.60047698020935	fix_pre	0		120	2.0	2.5	/experiments/Knapen_AOT/AOT_stimuli/rescaled_final/1855_fw.mp4	0.0	76.51633763313293	1.0085582733154297
4	59.784037828445435	pulse	0	t		2.0	2.5	/experiments/Knapen_AOT/AOT_stimuli/rescaled_final/1855_fw.mp4	0.0	76.69989848136902	
4	60.60903525352478	movie	1		274	2.0	2.5	/experiments/Knapen_AOT/AOT_stimuli/rescaled_final/1855_fw.mp4	0.0	77.52489590644836	2.4918949604034424
4	61.38220548629761	pulse	1	t		2.0	2.5	/experiments/Knapen_AOT/AOT_stimuli/rescaled_final/1855_fw.mp4	0.0	78.29806613922119	
4	62.98233771324158	pulse	1	t		2.0	2.5	/experiments/Knapen_AOT/AOT_stimuli/rescaled_final/1855_fw.mp4	0.0	79.89819836616516	
4	63.10093021392822	fix_post	2		12	2.0	2.5	/experiments/Knapen_AOT/AOT_stimuli/rescaled_final/1855_fw.mp4	0.0	80.0167908668518	0.10001015663146973
5	63.20094037055969	fix_pre	0		120	3.0	2.5	/experiments/Knapen_AOT/AOT_stimuli/rescaled_final/0691_fw.mp4	0.0	80.11680102348328	1.0086193084716797
5	64.20955967903137	movie	1		279	3.0	2.5	/experiments/Knapen_AOT/AOT_stimuli/rescaled_final/0691_fw.mp4	0.0	81.12542033195496	2.491969108581543
5	64.58299565315247	pulse	1	t		3.0	2.5	/experiments/Knapen_AOT/AOT_stimuli/rescaled_final/0691_fw.mp4	0.0	81.49885630607605	
5	66.18302893638611	pulse	1	t		3.0	2.5	/experiments/Knapen_AOT/AOT_stimuli/rescaled_final/0691_fw.mp4	0.0	83.09888958930969	
5	66.70152878761292	fix_post	2		12	3.0	2.5	/experiments/Knapen_AOT/AOT_stimuli/rescaled_final/0691_fw.mp4	0.0	83.6173894405365	0.09994769096374512
6	66.80147647857666	fix_pre	0		119	4.0	2.5	/experiments/Knapen_AOT/AOT_stimuli/rescaled_final/0388_fw.mp4	0.0	83.71733713150024	1.0001115798950195
6	67.78513717651367	pulse	0	t		4.0	2.5	/experiments/Knapen_AOT/AOT_stimuli/rescaled_final/0388_fw.mp4	0.0	84.70099782943726	
6	67.80158805847168	movie	1		285	4.0	2.5	/experiments/Knapen_AOT/AOT_stimuli/rescaled_final/0388_fw.mp4	0.0	84.71744871139526	2.5004286766052246
6	69.38400936126709	pulse	1	t		4.0	2.5	/experiments/Knapen_AOT/AOT_stimuli/rescaled_final/0388_fw.mp4	0.0	86.29987001419067	
6	70.3020167350769	fix_post	2		12	4.0	2.5	/experiments/Knapen_AOT/AOT_stimuli/rescaled_final/0388_fw.mp4	0.0	87.21787738800049	0.1000833511352539
7	70.40210008621216	fix_pre	0		120	5.0	2.5	/experiments/Knapen_AOT/AOT_stimuli/rescaled_final/1515_fw.mp4	0.0	87.31796073913574	1.0084240436553955
7	70.98564887046814	pulse	0	t		5.0	2.5	/experiments/Knapen_AOT/AOT_stimuli/rescaled_final/1515_fw.mp4	0.0	87.90150952339172	
7	71.41052412986755	movie	1		288	5.0	2.5	/experiments/Knapen_AOT/AOT_stimuli/rescaled_final/1515_fw.mp4	0.0	88.32638478279114	2.492091655731201
7	72.5841269493103	pulse	1	t		5.0	2.5	/experiments/Knapen_AOT/AOT_stimuli/rescaled_final/1515_fw.mp4	0.0	89.49998760223389	
7	73.90261578559875	fix_post	2		12	5.0	2.5	/experiments/Knapen_AOT/AOT_stimuli/rescaled_final/1515_fw.mp4	0.0	90.81847643852234	0.09999442100524902
8	74.002610206604	fix_pre	0		120	6.0	2.5	blank	1.0	90.91847085952759	1.000098466873169
8	74.1861207485199	pulse	0	t		6.0	2.5	blank	1.0	91.10198140144348	
8	75.00270867347717	movie	1		300	6.0	2.5	blank	1.0	91.91856932640076	2.5003788471221924
8	75.78643846511841	pulse	1	t		6.0	2.5	blank	1.0	92.70229911804199	
8	77.38665461540222	pulse	1	t		6.0	2.5	blank	1.0	94.3025152683258	
8	77.50308752059937	fix_post	2		12	6.0	2.5	blank	1.0	94.41894817352295	0.1000669002532959
9	77.60315442085266	fix_pre	0		120	7.0	2.5	/experiments/Knapen_AOT/AOT_stimuli/rescaled_final/1211_fw.mp4	0.0	94.51901507377625	1.0084638595581055
9	78.61161828041077	movie	1		289	7.0	2.5	/experiments/Knapen_AOT/AOT_stimuli/rescaled_final/1211_fw.mp4	0.0	95.52747893333435	2.49212908744812
9	78.98544192314148	pulse	1	t		7.0	2.5	/experiments/Knapen_AOT/AOT_stimuli/rescaled_final/1211_fw.mp4	0.0	95.90130257606506	
9	80.58523511886597	pulse	1	t		7.0	2.5	/experiments/Knapen_AOT/AOT_stimuli/rescaled_final/1211_fw.mp4	0.0	97.50109577178955	
9	81.10374736785889	fix_post	2		12	7.0	2.5	/experiments/Knapen_AOT/AOT_stimuli/rescaled_final/1211_fw.mp4	0.0	98.01960802078247	0.09995508193969727
10	81.20370244979858	fix_pre	0		119	8.0	2.5	/experiments/Knapen_AOT/AOT_stimuli/rescaled_final/0392_fw.mp4	0.0	98.11956310272217	1.0001263618469238
10	82.18740367889404	pulse	0	t		8.0	2.5	/experiments/Knapen_AOT/AOT_stimuli/rescaled_final/0392_fw.mp4	0.0	99.10326433181763	
10	82.20382881164551	movie	1		289	8.0	2.5	/experiments/Knapen_AOT/AOT_stimuli/rescaled_final/0392_fw.mp4	0.0	99.11968946456909	2.5003745555877686
10	83.78632140159607	pulse	1	t		8.0	2.5	/experiments/Knapen_AOT/AOT_stimuli/rescaled_final/0392_fw.mp4	0.0	100.70218205451965	
10	84.70420336723328	fix_post	2		12	8.0	2.5	/experiments/Knapen_AOT/AOT_stimuli/rescaled_final/0392_fw.mp4	0.0	101.62006402015686	0.09998774528503418
11	84.80419111251831	fix_pre	0		120	9.0	2.5	/experiments/Knapen_AOT/AOT_stimuli/rescaled_final/0658_fw.mp4	0.0	101.7200517654419	1.00850510597229
11	85.38780236244202	pulse	0	t		9.0	2.5	/experiments/Knapen_AOT/AOT_stimuli/rescaled_final/0658_fw.mp4	0.0	102.3036630153656	
11	85.8126962184906	movie	1		282	9.0	2.5	/experiments/Knapen_AOT/AOT_stimuli/rescaled_final/0658_fw.mp4	0.0	102.72855687141418	2.4921233654022217
11	86.98676085472107	pulse	1	t		9.0	2.5	/experiments/Knapen_AOT/AOT_stimuli/rescaled_final/0658_fw.mp4	0.0	103.90262150764465	
11	88.30481958389282	fix_post	2		12	9.0	2.5	/experiments/Knapen_AOT/AOT_stimuli/rescaled_final/0658_fw.mp4	0.0	105.2206802368164	0.1000206470489502
12	88.40484023094177	fix_pre	0		120	10.0	2.5	/experiments/Knapen_AOT/AOT_stimuli/rescaled_final/1357_fw.mp4	0.0	105.32070088386536	1.0084128379821777
12	88.58829760551453	pulse	0	t		10.0	2.5	/experiments/Knapen_AOT/AOT_stimuli/rescaled_final/1357_fw.mp4	0.0	105.50415825843811	
12	89.41325306892395	movie	1		286	10.0	2.5	/experiments/Knapen_AOT/AOT_stimuli/rescaled_final/1357_fw.mp4	0.0	106.32911372184753	2.4920239448547363
12	90.18657803535461	pulse	1	t		10.0	2.5	/experiments/Knapen_AOT/AOT_stimuli/rescaled_final/1357_fw.mp4	0.0	107.1024386882782	
12	91.7867922782898	pulse	1	t		10.0	2.5	/experiments/Knapen_AOT/AOT_stimuli/rescaled_final/1357_fw.mp4	0.0	108.70265293121338	
12	91.90527701377869	fix_post	2		12	10.0	2.5	/experiments/Knapen_AOT/AOT_stimuli/rescaled_final/1357_fw.mp4	0.0	108.82113766670227	0.10002970695495605
13	92.00530672073364	fix_pre	0		120	11.0	2.5	/experiments/Knapen_AOT/AOT_stimuli/rescaled_final/1550_rv.mp4	0.0	108.92116737365723	1.008493185043335
13	93.01379990577698	movie	1		284	11.0	2.5	/experiments/Knapen_AOT/AOT_stimuli/rescaled_final/1550_rv.mp4	0.0	109.92966055870056	2.4921469688415527
13	93.38764834403992	pulse	1	t		11.0	2.5	/experiments/Knapen_AOT/AOT_stimuli/rescaled_final/1550_rv.mp4	0.0	110.3035089969635	
13	94.98731327056885	pulse	1	t		11.0	2.5	/experiments/Knapen_AOT/AOT_stimuli/rescaled_final/1550_rv.mp4	0.0	111.90317392349243	
13	95.50594687461853	fix_post	2		12	11.0	2.5	/experiments/Knapen_AOT/AOT_stimuli/rescaled_final/1550_rv.mp4	0.0	112.42180752754211	0.09995007514953613
14	95.60589694976807	fix_pre	0		118	12.0	2.5	blank	1.0	112.52175760269165	0.9834296703338623
14	96.5816159248352	pulse	0	t		12.0	2.5	blank	1.0	113.49747657775879	
14	96.58932662010193	movie	1		301	12.0	2.5	blank	1.0	113.50518727302551	2.5086748600006104
14	98.18146324157715	pulse	1	t		12.0	2.5	blank	1.0	115.09732389450073	
14	99.09800148010254	fix_post	2		12	12.0	2.5	blank	1.0	116.01386213302612	0.10003376007080078
15	99.19803524017334	fix_pre	0		120	13.0	2.5	/experiments/Knapen_AOT/AOT_stimuli/rescaled_final/1809_rv.mp4	0.0	116.11389589309692	1.0084881782531738
15	99.78190851211548	pulse	0	t		13.0	2.5	/experiments/Knapen_AOT/AOT_stimuli/rescaled_final/1809_rv.mp4	0.0	116.69776916503906	
15	100.20652341842651	movie	1		283	13.0	2.5	/experiments/Knapen_AOT/AOT_stimuli/rescaled_final/1809_rv.mp4	0.0	117.1223840713501	2.4920568466186523
15	101.38221645355225	pulse	1	t		13.0	2.5	/experiments/Knapen_AOT/AOT_stimuli/rescaled_final/1809_rv.mp4	0.0	118.29807710647583	
15	102.69858026504517	fix_post	2		12	13.0	2.5	/experiments/Knapen_AOT/AOT_stimuli/rescaled_final/1809_rv.mp4	0.0	119.61444091796875	0.09998941421508789
16	102.79856967926025	fix_pre	0		120	14.0	2.5	/experiments/Knapen_AOT/AOT_stimuli/rescaled_final/0638_fw.mp4	0.0	119.71443033218384	1.0085153579711914
16	102.98216700553894	pulse	0	t		14.0	2.5	/experiments/Knapen_AOT/AOT_stimuli/rescaled_final/0638_fw.mp4	0.0	119.89802765846252	
16	103.80708503723145	movie	1		281	14.0	2.5	/experiments/Knapen_AOT/AOT_stimuli/rescaled_final/0638_fw.mp4	0.0	120.72294569015503	2.4921038150787354
16	104.58243012428284	pulse	1	t		14.0	2.5	/experiments/Knapen_AOT/AOT_stimuli/rescaled_final/0638_fw.mp4	0.0	121.49829077720642	
16	106.18272948265076	pulse	1	t		14.0	2.5	/experiments/Knapen_AOT/AOT_stimuli/rescaled_final/0638_fw.mp4	0.0	123.09859013557434	
16	106.29918885231018	fix_post	2		12	14.0	2.5	/experiments/Knapen_AOT/AOT_stimuli/rescaled_final/0638_fw.mp4	0.0	123.21504950523376	0.09996438026428223
17	106.39915323257446	fix_pre	0		120	15.0	2.5	/experiments/Knapen_AOT/AOT_stimuli/rescaled_final/1550_fw.mp4	0.0	123.31501388549805	1.0084502696990967
17	107.40760350227356	movie	1		276	15.0	2.5	/experiments/Knapen_AOT/AOT_stimuli/rescaled_final/1550_fw.mp4	0.0	124.32346415519714	2.4920785427093506
17	107.78218626976013	pulse	1	t		15.0	2.5	/experiments/Knapen_AOT/AOT_stimuli/rescaled_final/1550_fw.mp4	0.0	124.69804692268372	
17	109.38315725326538	pulse	1	t		15.0	2.5	/experiments/Knapen_AOT/AOT_stimuli/rescaled_final/1550_fw.mp4	0.0	126.29901790618896	
17	109.89968204498291	fix_post	2		12	15.0	2.5	/experiments/Knapen_AOT/AOT_stimuli/rescaled_final/1550_fw.mp4	0.0	126.8155426979065	0.09998226165771484
18	109.99966430664062	fix_pre	0		119	16.0	2.5	/experiments/Knapen_AOT/AOT_stimuli/rescaled_final/0571_fw.mp4	0.0	126.91552495956421	1.0002150535583496
18	110.98339104652405	pulse	0	t		16.0	2.5	/experiments/Knapen_AOT/AOT_stimuli/rescaled_final/0571_fw.mp4	0.0	127.89925169944763	
18	110.99987936019897	movie	1		283	16.0	2.5	/experiments/Knapen_AOT/AOT_stimuli/rescaled_final/0571_fw.mp4	0.0	127.91574001312256	2.5003087520599365
18	112.58278679847717	pulse	1	t		16.0	2.5	/experiments/Knapen_AOT/AOT_stimuli/rescaled_final/0571_fw.mp4	0.0	129.49864745140076	
18	113.50018811225891	fix_post	2		12	16.0	2.5	/experiments/Knapen_AOT/AOT_stimuli/rescaled_final/0571_fw.mp4	0.0	130.4160487651825	0.10013890266418457
19	113.6003270149231	fix_pre	0		120	17.0	2.5	/experiments/Knapen_AOT/AOT_stimuli/rescaled_final/0426_fw.mp4	0.0	130.51618766784668	1.008371114730835
19	114.18384408950806	pulse	0	t		17.0	2.5	/experiments/Knapen_AOT/AOT_stimuli/rescaled_final/0426_fw.mp4	0.0	131.09970474243164	
19	114.60869812965393	movie	1		278	17.0	2.5	/experiments/Knapen_AOT/AOT_stimuli/rescaled_final/0426_fw.mp4	0.0	131.52455878257751	2.4920642375946045
19	115.78202676773071	pulse	1	t		17.0	2.5	/experiments/Knapen_AOT/AOT_stimuli/rescaled_final/0426_fw.mp4	0.0	132.6978874206543	
19	117.10076236724854	fix_post	2		12	17.0	2.5	/experiments/Knapen_AOT/AOT_stimuli/rescaled_final/0426_fw.mp4	0.0	134.01662302017212	0.09999227523803711
20	117.20075464248657	fix_pre	0		120	18.0	2.5	/experiments/Knapen_AOT/AOT_stimuli/rescaled_final/1097_fw.mp4	0.0	134.11661529541016	1.0085136890411377
20	117.38434529304504	pulse	0	t		18.0	2.5	/experiments/Knapen_AOT/AOT_stimuli/rescaled_final/1097_fw.mp4	0.0	134.30020594596863	
20	118.20926833152771	movie	1		280	18.0	2.5	/experiments/Knapen_AOT/AOT_stimuli/rescaled_final/1097_fw.mp4	0.0	135.1251289844513	2.4920132160186768
20	118.98466277122498	pulse	1	t		18.0	2.5	/experiments/Knapen_AOT/AOT_stimuli/rescaled_final/1097_fw.mp4	0.0	135.90052342414856	
20	120.58293509483337	pulse	1	t		18.0	2.5	/experiments/Knapen_AOT/AOT_stimuli/rescaled_final/1097_fw.mp4	0.0	137.49879574775696	
20	120.70128154754639	fix_post	2		12	18.0	2.5	/experiments/Knapen_AOT/AOT_stimuli/rescaled_final/1097_fw.mp4	0.0	137.61714220046997	0.10003471374511719
21	120.8013162612915	fix_pre	0		120	19.0	2.5	/experiments/Knapen_AOT/AOT_stimuli/rescaled_final/0198_fw.mp4	0.0	137.7171769142151	1.008481502532959
21	121.80979776382446	movie	1		281	19.0	2.5	/experiments/Knapen_AOT/AOT_stimuli/rescaled_final/0198_fw.mp4	0.0	138.72565841674805	2.492017984390259
21	122.18503880500793	pulse	1	t		19.0	2.5	/experiments/Knapen_AOT/AOT_stimuli/rescaled_final/0198_fw.mp4	0.0	139.10089945793152	
21	123.78549885749817	pulse	1	t		19.0	2.5	/experiments/Knapen_AOT/AOT_stimuli/rescaled_final/0198_fw.mp4	0.0	140.70135951042175	
21	124.30181574821472	fix_post	2		12	19.0	2.5	/experiments/Knapen_AOT/AOT_stimuli/rescaled_final/0198_fw.mp4	0.0	141.2176764011383	0.10001373291015625
22	124.40182948112488	fix_pre	0		119	20.0	2.5	/experiments/Knapen_AOT/AOT_stimuli/rescaled_final/1074_rv.mp4	0.0	141.31769013404846	1.0001790523529053
22	125.38557744026184	pulse	0	t		20.0	2.5	/experiments/Knapen_AOT/AOT_stimuli/rescaled_final/1074_rv.mp4	0.0	142.30143809318542	
22	125.40200853347778	movie	1		288	20.0	2.5	/experiments/Knapen_AOT/AOT_stimuli/rescaled_final/1074_rv.mp4	0.0	142.31786918640137	2.5003883838653564
22	126.98428606987	pulse	1	t		20.0	2.5	/experiments/Knapen_AOT/AOT_stimuli/rescaled_final/1074_rv.mp4	0.0	143.90014672279358	
22	127.90239691734314	fix_post	2		12	20.0	2.5	/experiments/Knapen_AOT/AOT_stimuli/rescaled_final/1074_rv.mp4	0.0	144.81825757026672	0.09998941421508789
23	128.00238633155823	fix_pre	0		120	21.0	2.5	blank	1.0	144.9182469844818	1.000148057937622
23	128.58651304244995	pulse	0	t		21.0	2.5	blank	1.0	145.50237369537354	
23	129.00253438949585	movie	1		300	21.0	2.5	blank	1.0	145.91839504241943	2.500399351119995
23	130.18642234802246	pulse	1	t		21.0	2.5	blank	1.0	147.10228300094604	
23	131.50293374061584	fix_post	2		12	21.0	2.5	blank	1.0	148.41879439353943	0.09999275207519531
24	131.60292649269104	fix_pre	0		120	22.0	2.5	/experiments/Knapen_AOT/AOT_stimuli/rescaled_final/1267_fw.mp4	0.0	148.51878714561462	1.008540391921997
24	131.78655219078064	pulse	0	t		22.0	2.5	/experiments/Knapen_AOT/AOT_stimuli/rescaled_final/1267_fw.mp4	0.0	148.70241284370422	
24	132.61146688461304	movie	1		274	22.0	2.5	/experiments/Knapen_AOT/AOT_stimuli/rescaled_final/1267_fw.mp4	0.0	149.52732753753662	2.4920237064361572
24	133.38437509536743	pulse	1	t		22.0	2.5	/experiments/Knapen_AOT/AOT_stimuli/rescaled_final/1267_fw.mp4	0.0	150.30023574829102	
24	134.98500561714172	pulse	1	t		22.0	2.5	/experiments/Knapen_AOT/AOT_stimuli/rescaled_final/1267_fw.mp4	0.0	151.9008662700653	
24	135.1034905910492	fix_post	2		12	22.0	2.5	/experiments/Knapen_AOT/AOT_stimuli/rescaled_final/1267_fw.mp4	0.0	152.01935124397278	0.09997081756591797
25	135.2034614086151	fix_pre	0		120	23.0	2.5	/experiments/Knapen_AOT/AOT_stimuli/rescaled_final/1083_rv.mp4	0.0	152.1193220615387	1.0085079669952393
25	136.21196937561035	movie	1		280	23.0	2.5	/experiments/Knapen_AOT/AOT_stimuli/rescaled_final/1083_rv.mp4	0.0	153.12783002853394	2.492016077041626
25	136.5856535434723	pulse	1	t		23.0	2.5	/experiments/Knapen_AOT/AOT_stimuli/rescaled_final/1083_rv.mp4	0.0	153.50151419639587	
25	138.18623805046082	pulse	1	t		23.0	2.5	/experiments/Knapen_AOT/AOT_stimuli/rescaled_final/1083_rv.mp4	0.0	155.1020987033844	
25	138.70398545265198	fix_post	2		12	23.0	2.5	/experiments/Knapen_AOT/AOT_stimuli/rescaled_final/1083_rv.mp4	0.0	155.61984610557556	0.1000206470489502
26	138.80400609970093	fix_pre	0		119	24.0	2.5	/experiments/Knapen_AOT/AOT_stimuli/rescaled_final/0252_fw.mp4	0.0	155.7198667526245	1.0001530647277832
26	139.78761219978333	pulse	0	t		24.0	2.5	/experiments/Knapen_AOT/AOT_stimuli/rescaled_final/0252_fw.mp4	0.0	156.7034728527069	
26	139.8041591644287	movie	1		281	24.0	2.5	/experiments/Knapen_AOT/AOT_stimuli/rescaled_final/0252_fw.mp4	0.0	156.7200198173523	2.5003724098205566
26	141.38797235488892	pulse	1	t		24.0	2.5	/experiments/Knapen_AOT/AOT_stimuli/rescaled_final/0252_fw.mp4	0.0	158.3038330078125	
26	142.30453157424927	fix_post	2		12	24.0	2.5	/experiments/Knapen_AOT/AOT_stimuli/rescaled_final/0252_fw.mp4	0.0	159.22039222717285	0.1000213623046875
27	142.40455293655396	fix_pre	0		120	25.0	2.5	/experiments/Knapen_AOT/AOT_stimuli/rescaled_final/1421_rv.mp4	0.0	159.32041358947754	1.0085217952728271
27	142.98812890052795	pulse	0	t		25.0	2.5	/experiments/Knapen_AOT/AOT_stimuli/rescaled_final/1421_rv.mp4	0.0	159.90398955345154	
27	143.41307473182678	movie	1		293	25.0	2.5	/experiments/Knapen_AOT/AOT_stimuli/rescaled_final/1421_rv.mp4	0.0	160.32893538475037	2.491999626159668
27	144.5870156288147	pulse	1	t		25.0	2.5	/experiments/Knapen_AOT/AOT_stimuli/rescaled_final/1421_rv.mp4	0.0	161.50287628173828	
27	145.90507435798645	fix_post	2		12	25.0	2.5	/experiments/Knapen_AOT/AOT_stimuli/rescaled_final/1421_rv.mp4	0.0	162.82093501091003	0.10004568099975586
28	146.0051200389862	fix_pre	0		120	26.0	2.5	/experiments/Knapen_AOT/AOT_stimuli/rescaled_final/0267_fw.mp4	0.0	162.9209806919098	1.0085058212280273
28	146.18876600265503	pulse	0	t		26.0	2.5	/experiments/Knapen_AOT/AOT_stimuli/rescaled_final/0267_fw.mp4	0.0	163.1046266555786	
28	147.01362586021423	movie	1		286	26.0	2.5	/experiments/Knapen_AOT/AOT_stimuli/rescaled_final/0267_fw.mp4	0.0	163.92948651313782	2.4919896125793457
28	147.786607503891	pulse	1	t		26.0	2.5	/experiments/Knapen_AOT/AOT_stimuli/rescaled_final/0267_fw.mp4	0.0	164.70246815681458	
28	149.3871784210205	pulse	1	t		26.0	2.5	/experiments/Knapen_AOT/AOT_stimuli/rescaled_final/0267_fw.mp4	0.0	166.3030390739441	
28	149.50561547279358	fix_post	2		12	26.0	2.5	/experiments/Knapen_AOT/AOT_stimuli/rescaled_final/0267_fw.mp4	0.0	166.42147612571716	0.10001373291015625
29	149.60562920570374	fix_pre	0		120	27.0	2.5	/experiments/Knapen_AOT/AOT_stimuli/rescaled_final/0067_rv.mp4	0.0	166.52148985862732	1.0085065364837646
29	150.6141357421875	movie	1		286	27.0	2.5	/experiments/Knapen_AOT/AOT_stimuli/rescaled_final/0067_rv.mp4	0.0	167.52999639511108	2.492027997970581
29	150.98795366287231	pulse	1	t		27.0	2.5	/experiments/Knapen_AOT/AOT_stimuli/rescaled_final/0067_rv.mp4	0.0	167.9038143157959	
29	152.58942532539368	pulse	1	t		27.0	2.5	/experiments/Knapen_AOT/AOT_stimuli/rescaled_final/0067_rv.mp4	0.0	169.50528597831726	
29	153.10616374015808	fix_post	2		12	27.0	2.5	/experiments/Knapen_AOT/AOT_stimuli/rescaled_final/0067_rv.mp4	0.0	170.02202439308167	0.10001873970031738
30	153.2061824798584	fix_pre	0		118	28.0	2.5	blank	1.0	170.12204313278198	0.9835021495819092
30	154.1818187236786	pulse	0	t		28.0	2.5	blank	1.0	171.09767937660217	
30	154.1896846294403	movie	1		301	28.0	2.5	blank	1.0	171.1055452823639	2.508732795715332
30	155.78185749053955	pulse	1	t		28.0	2.5	blank	1.0	172.69771814346313	
30	156.69841742515564	fix_post	2		12	28.0	2.5	blank	1.0	173.61427807807922	0.10002899169921875
31	156.79844641685486	fix_pre	0		120	29.0	2.5	/experiments/Knapen_AOT/AOT_stimuli/rescaled_final/1360_fw.mp4	0.0	173.71430706977844	1.0084538459777832
31	157.38195872306824	pulse	0	t		29.0	2.5	/experiments/Knapen_AOT/AOT_stimuli/rescaled_final/1360_fw.mp4	0.0	174.29781937599182	
31	157.80690026283264	movie	1		273	29.0	2.5	/experiments/Knapen_AOT/AOT_stimuli/rescaled_final/1360_fw.mp4	0.0	174.72276091575623	2.4920265674591064
31	158.98231959342957	pulse	1	t		29.0	2.5	/experiments/Knapen_AOT/AOT_stimuli/rescaled_final/1360_fw.mp4	0.0	175.89818024635315	
31	160.29892683029175	fix_post	2		12	29.0	2.5	/experiments/Knapen_AOT/AOT_stimuli/rescaled_final/1360_fw.mp4	0.0	177.21478748321533	0.10001111030578613
32	160.39893794059753	fix_pre	0		120	30.0	2.5	/experiments/Knapen_AOT/AOT_stimuli/rescaled_final/0267_rv.mp4	0.0	177.31479859352112	1.0085034370422363
32	160.5824613571167	pulse	0	t		30.0	2.5	/experiments/Knapen_AOT/AOT_stimuli/rescaled_final/0267_rv.mp4	0.0	177.49832201004028	
32	161.40744137763977	movie	1		282	30.0	2.5	/experiments/Knapen_AOT/AOT_stimuli/rescaled_final/0267_rv.mp4	0.0	178.32330203056335	2.4920246601104736
32	162.18270921707153	pulse	1	t		30.0	2.5	/experiments/Knapen_AOT/AOT_stimuli/rescaled_final/0267_rv.mp4	0.0	179.09856986999512	
32	163.78306603431702	pulse	1	t		30.0	2.5	/experiments/Knapen_AOT/AOT_stimuli/rescaled_final/0267_rv.mp4	0.0	180.6989266872406	
32	163.89946603775024	fix_post	2		12	30.0	2.5	/experiments/Knapen_AOT/AOT_stimuli/rescaled_final/0267_rv.mp4	0.0	180.81532669067383	0.1000518798828125
33	163.99951791763306	fix_pre	0		120	31.0	2.5	/experiments/Knapen_AOT/AOT_stimuli/rescaled_final/1477_fw.mp4	0.0	180.91537857055664	1.0084524154663086
33	165.00797033309937	movie	1		285	31.0	2.5	/experiments/Knapen_AOT/AOT_stimuli/rescaled_final/1477_fw.mp4	0.0	181.92383098602295	2.4920310974121094
33	165.38186311721802	pulse	1	t		31.0	2.5	/experiments/Knapen_AOT/AOT_stimuli/rescaled_final/1477_fw.mp4	0.0	182.2977237701416	
33	166.9834063053131	pulse	1	t		31.0	2.5	/experiments/Knapen_AOT/AOT_stimuli/rescaled_final/1477_fw.mp4	0.0	183.8992669582367	
33	167.50000143051147	fix_post	2		12	31.0	2.5	/experiments/Knapen_AOT/AOT_stimuli/rescaled_final/1477_fw.mp4	0.0	184.41586208343506	0.1000220775604248
34	167.6000235080719	fix_pre	0		119	32.0	2.5	/experiments/Knapen_AOT/AOT_stimuli/rescaled_final/0848_rv.mp4	0.0	184.51588416099548	1.000206470489502
34	168.5837209224701	pulse	0	t		32.0	2.5	/experiments/Knapen_AOT/AOT_stimuli/rescaled_final/0848_rv.mp4	0.0	185.49958157539368	
34	168.6002299785614	movie	1		278	32.0	2.5	/experiments/Knapen_AOT/AOT_stimuli/rescaled_final/0848_rv.mp4	0.0	185.51609063148499	2.500318765640259
34	170.18346977233887	pulse	1	t		32.0	2.5	/experiments/Knapen_AOT/AOT_stimuli/rescaled_final/0848_rv.mp4	0.0	187.09933042526245	
34	171.10054874420166	fix_post	2		12	32.0	2.5	/experiments/Knapen_AOT/AOT_stimuli/rescaled_final/0848_rv.mp4	0.0	188.01640939712524	0.10006308555603027
35	171.2006118297577	fix_pre	0		120	33.0	2.5	blank	1.0	188.11647248268127	1.000195026397705
35	171.78414702415466	pulse	0	t		33.0	2.5	blank	1.0	188.70000767707825	
35	172.2008068561554	movie	1		300	33.0	2.5	blank	1.0	189.11666750907898	2.500271797180176
35	173.38445115089417	pulse	1	t		33.0	2.5	blank	1.0	190.30031180381775	
35	174.70107865333557	fix_post	2		12	33.0	2.5	blank	1.0	191.61693930625916	0.1000368595123291
36	174.8011155128479	fix_pre	0		120	34.0	2.5	/experiments/Knapen_AOT/AOT_stimuli/rescaled_final/2032_fw.mp4	0.0	191.71697616577148	1.0086767673492432
36	174.98461437225342	pulse	0	t		34.0	2.5	/experiments/Knapen_AOT/AOT_stimuli/rescaled_final/2032_fw.mp4	0.0	191.900475025177	
36	175.80979228019714	movie	1		288	34.0	2.5	/experiments/Knapen_AOT/AOT_stimuli/rescaled_final/2032_fw.mp4	0.0	192.72565293312073	2.4918770790100098
36	176.58294105529785	pulse	1	t		34.0	2.5	/experiments/Knapen_AOT/AOT_stimuli/rescaled_final/2032_fw.mp4	0.0	193.49880170822144	
36	178.18323683738708	pulse	1	t		34.0	2.5	/experiments/Knapen_AOT/AOT_stimuli/rescaled_final/2032_fw.mp4	0.0	195.09909749031067	
36	178.30166935920715	fix_post	2		12	34.0	2.5	/experiments/Knapen_AOT/AOT_stimuli/rescaled_final/2032_fw.mp4	0.0	195.21753001213074	0.10003829002380371
37	178.40170764923096	fix_pre	0		120	35.0	2.5	/experiments/Knapen_AOT/AOT_stimuli/rescaled_final/1587_rv.mp4	0.0	195.31756830215454	1.008448600769043
37	179.41015625	movie	1		278	35.0	2.5	/experiments/Knapen_AOT/AOT_stimuli/rescaled_final/1587_rv.mp4	0.0	196.32601690292358	2.4920334815979004
37	179.78385519981384	pulse	1	t		35.0	2.5	/experiments/Knapen_AOT/AOT_stimuli/rescaled_final/1587_rv.mp4	0.0	196.69971585273743	
37	181.38365077972412	pulse	1	t		35.0	2.5	/experiments/Knapen_AOT/AOT_stimuli/rescaled_final/1587_rv.mp4	0.0	198.2995114326477	
37	181.9021897315979	fix_post	2		12	35.0	2.5	/experiments/Knapen_AOT/AOT_stimuli/rescaled_final/1587_rv.mp4	0.0	198.81805038452148	0.10007190704345703
38	182.00226163864136	fix_pre	0		119	36.0	2.5	/experiments/Knapen_AOT/AOT_stimuli/rescaled_final/1298_rv.mp4	0.0	198.91812229156494	1.0001013278961182
38	182.9859013557434	pulse	0	t		36.0	2.5	/experiments/Knapen_AOT/AOT_stimuli/rescaled_final/1298_rv.mp4	0.0	199.901762008667	
38	183.00236296653748	movie	1		285	36.0	2.5	/experiments/Knapen_AOT/AOT_stimuli/rescaled_final/1298_rv.mp4	0.0	199.91822361946106	2.5003726482391357
38	184.58456468582153	pulse	1	t		36.0	2.5	/experiments/Knapen_AOT/AOT_stimuli/rescaled_final/1298_rv.mp4	0.0	201.50042533874512	
38	185.5027356147766	fix_post	2		12	36.0	2.5	/experiments/Knapen_AOT/AOT_stimuli/rescaled_final/1298_rv.mp4	0.0	202.4185962677002	0.10000419616699219
39	185.6027398109436	fix_pre	0		120	37.0	2.5	/experiments/Knapen_AOT/AOT_stimuli/rescaled_final/0823_fw.mp4	0.0	202.5186004638672	1.008514642715454
39	186.18629717826843	pulse	0	t		37.0	2.5	/experiments/Knapen_AOT/AOT_stimuli/rescaled_final/0823_fw.mp4	0.0	203.10215783119202	
39	186.61125445365906	movie	1		279	37.0	2.5	/experiments/Knapen_AOT/AOT_stimuli/rescaled_final/0823_fw.mp4	0.0	203.52711510658264	2.4921255111694336
39	187.78469467163086	pulse	1	t		37.0	2.5	/experiments/Knapen_AOT/AOT_stimuli/rescaled_final/0823_fw.mp4	0.0	204.70055532455444	
39	189.1033799648285	fix_post	2		12	37.0	2.5	/experiments/Knapen_AOT/AOT_stimuli/rescaled_final/0823_fw.mp4	0.0	206.01924061775208	0.09994363784790039
40	189.2033236026764	fix_pre	0		120	38.0	2.5	/experiments/Knapen_AOT/AOT_stimuli/rescaled_final/0870_rv.mp4	0.0	206.11918425559998	1.0084385871887207
40	189.38682317733765	pulse	0	t		38.0	2.5	/experiments/Knapen_AOT/AOT_stimuli/rescaled_final/0870_rv.mp4	0.0	206.30268383026123	
40	190.2117621898651	movie	1		272	38.0	2.5	/experiments/Knapen_AOT/AOT_stimuli/rescaled_final/0870_rv.mp4	0.0	207.1276228427887	2.4920642375946045
40	190.98518705368042	pulse	1	t		38.0	2.5	/experiments/Knapen_AOT/AOT_stimuli/rescaled_final/0870_rv.mp4	0.0	207.901047706604	
40	192.5851595401764	pulse	1	t		38.0	2.5	/experiments/Knapen_AOT/AOT_stimuli/rescaled_final/0870_rv.mp4	0.0	209.50102019309998	
40	192.70382642745972	fix_post	2		12	38.0	2.5	/experiments/Knapen_AOT/AOT_stimuli/rescaled_final/0870_rv.mp4	0.0	209.6196870803833	0.10000753402709961
41	192.80383396148682	fix_pre	0		120	39.0	2.5	/experiments/Knapen_AOT/AOT_stimuli/rescaled_final/0953_rv.mp4	0.0	209.7196946144104	1.0085034370422363
41	193.81233739852905	movie	1		280	39.0	2.5	/experiments/Knapen_AOT/AOT_stimuli/rescaled_final/0953_rv.mp4	0.0	210.72819805145264	2.4920260906219482
41	194.18759322166443	pulse	1	t		39.0	2.5	/experiments/Knapen_AOT/AOT_stimuli/rescaled_final/0953_rv.mp4	0.0	211.103453874588	
41	195.7854905128479	pulse	1	t		39.0	2.5	/experiments/Knapen_AOT/AOT_stimuli/rescaled_final/0953_rv.mp4	0.0	212.70135116577148	
41	196.304363489151	fix_post	2		12	39.0	2.5	/experiments/Knapen_AOT/AOT_stimuli/rescaled_final/0953_rv.mp4	0.0	213.22022414207458	0.10013818740844727
42	196.40450167655945	fix_pre	0		119	40.0	2.5	/experiments/Knapen_AOT/AOT_stimuli/rescaled_final/1830_fw.mp4	0.0	213.32036232948303	0.999995231628418
42	197.38801050186157	pulse	0	t		40.0	2.5	/experiments/Knapen_AOT/AOT_stimuli/rescaled_final/1830_fw.mp4	0.0	214.30387115478516	
42	197.40449690818787	movie	1		282	40.0	2.5	/experiments/Knapen_AOT/AOT_stimuli/rescaled_final/1830_fw.mp4	0.0	214.32035756111145	2.5004079341888428
42	198.98650288581848	pulse	1	t		40.0	2.5	/experiments/Knapen_AOT/AOT_stimuli/rescaled_final/1830_fw.mp4	0.0	215.90236353874207	
42	199.9049048423767	fix_post	2		12	40.0	2.5	/experiments/Knapen_AOT/AOT_stimuli/rescaled_final/1830_fw.mp4	0.0	216.8207654953003	0.09998846054077148
43	200.00489330291748	fix_pre	0		120	41.0	2.5	blank	1.0	216.92075395584106	1.0001606941223145
43	200.58848524093628	pulse	0	t		41.0	2.5	blank	1.0	217.50434589385986	
43	201.0050539970398	movie	1		300	41.0	2.5	blank	1.0	217.92091464996338	2.5003767013549805
43	202.18220329284668	pulse	1	t		41.0	2.5	blank	1.0	219.09806394577026	
43	203.50543069839478	fix_post	2		12	41.0	2.5	blank	1.0	220.42129135131836	0.10002756118774414
44	203.60545825958252	fix_pre	0		120	42.0	2.5	/experiments/Knapen_AOT/AOT_stimuli/rescaled_final/0206_fw.mp4	0.0	220.5213189125061	1.0084919929504395
44	203.78921794891357	pulse	0	t		42.0	2.5	/experiments/Knapen_AOT/AOT_stimuli/rescaled_final/0206_fw.mp4	0.0	220.70507860183716	
44	204.61395025253296	movie	1		277	42.0	2.5	/experiments/Knapen_AOT/AOT_stimuli/rescaled_final/0206_fw.mp4	0.0	221.52981090545654	2.4920601844787598
44	205.38750529289246	pulse	1	t		42.0	2.5	/experiments/Knapen_AOT/AOT_stimuli/rescaled_final/0206_fw.mp4	0.0	222.30336594581604	
44	206.98760437965393	pulse	1	t		42.0	2.5	/experiments/Knapen_AOT/AOT_stimuli/rescaled_final/0206_fw.mp4	0.0	223.90346503257751	
44	207.10601043701172	fix_post	2		12	42.0	2.5	/experiments/Knapen_AOT/AOT_stimuli/rescaled_final/0206_fw.mp4	0.0	224.0218710899353	0.09998583793640137
45	207.20599627494812	fix_pre	0		120	43.0	2.5	/experiments/Knapen_AOT/AOT_stimuli/rescaled_final/0964_rv.mp4	0.0	224.1218569278717	1.0085065364837646
45	208.21450281143188	movie	1		273	43.0	2.5	/experiments/Knapen_AOT/AOT_stimuli/rescaled_final/0964_rv.mp4	0.0	225.13036346435547	2.492020845413208
45	208.58986377716064	pulse	1	t		43.0	2.5	/experiments/Knapen_AOT/AOT_stimuli/rescaled_final/0964_rv.mp4	0.0	225.50572443008423	
45	210.18803238868713	pulse	1	t		43.0	2.5	/experiments/Knapen_AOT/AOT_stimuli/rescaled_final/0964_rv.mp4	0.0	227.10389304161072	
45	210.7065236568451	fix_post	2		12	43.0	2.5	/experiments/Knapen_AOT/AOT_stimuli/rescaled_final/0964_rv.mp4	0.0	227.62238430976868	0.10002517700195312
46	210.80654883384705	fix_pre	0		119	44.0	2.5	/experiments/Knapen_AOT/AOT_stimuli/rescaled_final/1736_fw.mp4	0.0	227.72240948677063	1.0001797676086426
46	211.78239250183105	pulse	0	t		44.0	2.5	/experiments/Knapen_AOT/AOT_stimuli/rescaled_final/1736_fw.mp4	0.0	228.69825315475464	
46	211.8067286014557	movie	1		289	44.0	2.5	/experiments/Knapen_AOT/AOT_stimuli/rescaled_final/1736_fw.mp4	0.0	228.72258925437927	2.500349760055542
46	213.38230919837952	pulse	1	t		44.0	2.5	/experiments/Knapen_AOT/AOT_stimuli/rescaled_final/1736_fw.mp4	0.0	230.2981698513031	
46	214.30707836151123	fix_post	2		12	44.0	2.5	/experiments/Knapen_AOT/AOT_stimuli/rescaled_final/1736_fw.mp4	0.0	231.22293901443481	0.10002684593200684
47	214.40710520744324	fix_pre	0		120	45.0	2.5	/experiments/Knapen_AOT/AOT_stimuli/rescaled_final/0919_rv.mp4	0.0	231.32296586036682	1.0085012912750244
47	214.98244619369507	pulse	0	t		45.0	2.5	/experiments/Knapen_AOT/AOT_stimuli/rescaled_final/0919_rv.mp4	0.0	231.89830684661865	
47	215.41560649871826	movie	1		292	45.0	2.5	/experiments/Knapen_AOT/AOT_stimuli/rescaled_final/0919_rv.mp4	0.0	232.33146715164185	2.4919917583465576
47	216.58264565467834	pulse	1	t		45.0	2.5	/experiments/Knapen_AOT/AOT_stimuli/rescaled_final/0919_rv.mp4	0.0	233.49850630760193	
47	217.90759825706482	fix_post	2		12	45.0	2.5	/experiments/Knapen_AOT/AOT_stimuli/rescaled_final/0919_rv.mp4	0.0	234.8234589099884	0.10004472732543945
48	218.00764298439026	fix_pre	0		105	46.0	2.5	/experiments/Knapen_AOT/AOT_stimuli/rescaled_final/1314_rv.mp4	0.0	234.92350363731384	1.0084888935089111
48	218.18279480934143	pulse	0	t		46.0	2.5	/experiments/Knapen_AOT/AOT_stimuli/rescaled_final/1314_rv.mp4	0.0	235.09865546226501	
48	219.01613187789917	movie	1		282	46.0	2.5	/experiments/Knapen_AOT/AOT_stimuli/rescaled_final/1314_rv.mp4	0.0	235.93199253082275	2.4920666217803955
48	219.78307390213013	pulse	1	t		46.0	2.5	/experiments/Knapen_AOT/AOT_stimuli/rescaled_final/1314_rv.mp4	0.0	236.6989345550537	
48	221.38335800170898	pulse	1	t		46.0	2.5	/experiments/Knapen_AOT/AOT_stimuli/rescaled_final/1314_rv.mp4	0.0	238.29921865463257	
48	221.50819849967957	fix_post	2		12	46.0	2.5	/experiments/Knapen_AOT/AOT_stimuli/rescaled_final/1314_rv.mp4	0.0	238.42405915260315	0.09997940063476562
49	221.60817790031433	fix_pre	0		120	47.0	2.5	blank	1.0	238.52403855323792	1.0002164840698242
49	222.60839438438416	movie	1		300	47.0	2.5	blank	1.0	239.52425503730774	2.5002992153167725
49	222.98373579978943	pulse	1	t		47.0	2.5	blank	1.0	239.899596452713	
49	224.5838327407837	pulse	1	t		47.0	2.5	blank	1.0	241.49969339370728	
49	225.10869359970093	fix_post	2		12	47.0	2.5	blank	1.0	242.0245542526245	0.10001826286315918
50	225.2087118625641	fix_pre	0		118	48.0	2.5	/experiments/Knapen_AOT/AOT_stimuli/rescaled_final/0330_rv.mp4	0.0	242.12457251548767	0.9918198585510254
50	226.18409395217896	pulse	0	t		48.0	2.5	/experiments/Knapen_AOT/AOT_stimuli/rescaled_final/0330_rv.mp4	0.0	243.09995460510254	
50	226.2005317211151	movie	1		286	48.0	2.5	/experiments/Knapen_AOT/AOT_stimuli/rescaled_final/0330_rv.mp4	0.0	243.1163923740387	2.5003607273101807
50	227.78295993804932	pulse	1	t		48.0	2.5	/experiments/Knapen_AOT/AOT_stimuli/rescaled_final/0330_rv.mp4	0.0	244.6988205909729	
50	228.7008924484253	fix_post	2		12	48.0	2.5	/experiments/Knapen_AOT/AOT_stimuli/rescaled_final/0330_rv.mp4	0.0	245.61675310134888	0.1000669002532959
51	228.8009593486786	fix_pre	0		120	49.0	2.5	/experiments/Knapen_AOT/AOT_stimuli/rescaled_final/1479_fw.mp4	0.0	245.71682000160217	1.008495569229126
51	229.38466930389404	pulse	0	t		49.0	2.5	/experiments/Knapen_AOT/AOT_stimuli/rescaled_final/1479_fw.mp4	0.0	246.30052995681763	
51	229.80945491790771	movie	1		267	49.0	2.5	/experiments/Knapen_AOT/AOT_stimuli/rescaled_final/1479_fw.mp4	0.0	246.7253155708313	2.492107629776001
51	230.98275637626648	pulse	1	t		49.0	2.5	/experiments/Knapen_AOT/AOT_stimuli/rescaled_final/1479_fw.mp4	0.0	247.89861702919006	
51	232.30156254768372	fix_post	2		12	49.0	2.5	/experiments/Knapen_AOT/AOT_stimuli/rescaled_final/1479_fw.mp4	0.0	249.2174232006073	0.0999143123626709
52	232.4014768600464	fix_pre	0		120	50.0	2.5	/experiments/Knapen_AOT/AOT_stimuli/rescaled_final/2032_fw.mp4	0.0	249.31733751296997	1.008514165878296
52	232.5852997303009	pulse	0	t		50.0	2.5	/experiments/Knapen_AOT/AOT_stimuli/rescaled_final/2032_fw.mp4	0.0	249.5011603832245	
52	233.40999102592468	movie	1		274	50.0	2.5	/experiments/Knapen_AOT/AOT_stimuli/rescaled_final/2032_fw.mp4	0.0	250.32585167884827	2.4920244216918945
52	234.18514466285706	pulse	1	t		50.0	2.5	/experiments/Knapen_AOT/AOT_stimuli/rescaled_final/2032_fw.mp4	0.0	251.10100531578064	
52	235.78369522094727	pulse	1	t		50.0	2.5	/experiments/Knapen_AOT/AOT_stimuli/rescaled_final/2032_fw.mp4	0.0	252.69955587387085	
52	235.90201544761658	fix_post	2		12	50.0	2.5	/experiments/Knapen_AOT/AOT_stimuli/rescaled_final/2032_fw.mp4	0.0	252.81787610054016	0.10004782676696777
53	236.00206327438354	fix_pre	0		120	51.0	2.5	/experiments/Knapen_AOT/AOT_stimuli/rescaled_final/0426_fw.mp4	0.0	252.91792392730713	1.0084619522094727
53	237.01052522659302	movie	1		278	51.0	2.5	/experiments/Knapen_AOT/AOT_stimuli/rescaled_final/0426_fw.mp4	0.0	253.9263858795166	2.4920055866241455
53	237.38526797294617	pulse	1	t		51.0	2.5	/experiments/Knapen_AOT/AOT_stimuli/rescaled_final/0426_fw.mp4	0.0	254.30112862586975	
53	238.98412227630615	pulse	1	t		51.0	2.5	/experiments/Knapen_AOT/AOT_stimuli/rescaled_final/0426_fw.mp4	0.0	255.89998292922974	
53	239.50253081321716	fix_post	2		12	51.0	2.5	/experiments/Knapen_AOT/AOT_stimuli/rescaled_final/0426_fw.mp4	0.0	256.41839146614075	0.10002589225769043
54	239.60255670547485	fix_pre	0		119	52.0	2.5	/experiments/Knapen_AOT/AOT_stimuli/rescaled_final/0302_fw.mp4	0.0	256.51841735839844	1.0001747608184814
54	240.58627343177795	pulse	0	t		52.0	2.5	/experiments/Knapen_AOT/AOT_stimuli/rescaled_final/0302_fw.mp4	0.0	257.50213408470154	
54	240.60273146629333	movie	1		273	52.0	2.5	/experiments/Knapen_AOT/AOT_stimuli/rescaled_final/0302_fw.mp4	0.0	257.5185921192169	2.50034761428833
54	242.18480944633484	pulse	1	t		52.0	2.5	/experiments/Knapen_AOT/AOT_stimuli/rescaled_final/0302_fw.mp4	0.0	259.1006700992584	
54	243.10307908058167	fix_post	2		12	52.0	2.5	/experiments/Knapen_AOT/AOT_stimuli/rescaled_final/0302_fw.mp4	0.0	260.01893973350525	0.10001039505004883
55	243.2030894756317	fix_pre	0		120	53.0	2.5	/experiments/Knapen_AOT/AOT_stimuli/rescaled_final/1706_fw.mp4	0.0	260.1189501285553	1.0085198879241943
55	243.78678178787231	pulse	0	t		53.0	2.5	/experiments/Knapen_AOT/AOT_stimuli/rescaled_final/1706_fw.mp4	0.0	260.7026424407959	
55	244.2116093635559	movie	1		277	53.0	2.5	/experiments/Knapen_AOT/AOT_stimuli/rescaled_final/1706_fw.mp4	0.0	261.1274700164795	2.4920430183410645
55	245.3862874507904	pulse	1	t		53.0	2.5	/experiments/Knapen_AOT/AOT_stimuli/rescaled_final/1706_fw.mp4	0.0	262.302148103714	
55	246.70365238189697	fix_post	2		12	53.0	2.5	/experiments/Knapen_AOT/AOT_stimuli/rescaled_final/1706_fw.mp4	0.0	263.61951303482056	0.10000252723693848
56	246.8036549091339	fix_pre	0		120	54.0	2.5	blank	1.0	263.7195155620575	1.0001318454742432
56	246.98718285560608	pulse	0	t		54.0	2.5	blank	1.0	263.90304350852966	
56	247.80378675460815	movie	1		300	54.0	2.5	blank	1.0	264.71964740753174	2.5003700256347656
56	248.58752036094666	pulse	1	t		54.0	2.5	blank	1.0	265.50338101387024	
56	250.18774890899658	pulse	1	t		54.0	2.5	blank	1.0	267.10360956192017	
56	250.30415678024292	fix_post	2		12	54.0	2.5	blank	1.0	267.2200174331665	0.1000218391418457
57	250.40417861938477	fix_pre	0		120	55.0	2.5	/experiments/Knapen_AOT/AOT_stimuli/rescaled_final/0388_fw.mp4	0.0	267.32003927230835	1.0085117816925049
57	251.41269040107727	movie	1		287	55.0	2.5	/experiments/Knapen_AOT/AOT_stimuli/rescaled_final/0388_fw.mp4	0.0	268.32855105400085	2.4920356273651123
57	251.78819918632507	pulse	1	t		55.0	2.5	/experiments/Knapen_AOT/AOT_stimuli/rescaled_final/0388_fw.mp4	0.0	268.70405983924866	
57	253.38628101348877	pulse	1	t		55.0	2.5	/experiments/Knapen_AOT/AOT_stimuli/rescaled_final/0388_fw.mp4	0.0	270.30214166641235	
57	253.90472602844238	fix_post	2		12	55.0	2.5	/experiments/Knapen_AOT/AOT_stimuli/rescaled_final/0388_fw.mp4	0.0	270.82058668136597	0.10003399848937988
58	254.00476002693176	fix_pre	0		119	56.0	2.5	/experiments/Knapen_AOT/AOT_stimuli/rescaled_final/0252_rv.mp4	0.0	270.92062067985535	1.0001261234283447
58	254.98845553398132	pulse	0	t		56.0	2.5	/experiments/Knapen_AOT/AOT_stimuli/rescaled_final/0252_rv.mp4	0.0	271.9043161869049	
58	255.0048861503601	movie	1		281	56.0	2.5	/experiments/Knapen_AOT/AOT_stimuli/rescaled_final/0252_rv.mp4	0.0	271.9207468032837	2.500375747680664
58	256.587144613266	pulse	1	t		56.0	2.5	/experiments/Knapen_AOT/AOT_stimuli/rescaled_final/0252_rv.mp4	0.0	273.5030052661896	
58	257.50526189804077	fix_post	2		12	56.0	2.5	/experiments/Knapen_AOT/AOT_stimuli/rescaled_final/0252_rv.mp4	0.0	274.42112255096436	0.10001349449157715
59	257.60527539253235	fix_pre	0		120	57.0	2.5	/experiments/Knapen_AOT/AOT_stimuli/rescaled_final/1298_fw.mp4	0.0	274.52113604545593	1.0085132122039795
59	258.1891589164734	pulse	0	t		57.0	2.5	/experiments/Knapen_AOT/AOT_stimuli/rescaled_final/1298_fw.mp4	0.0	275.105019569397	
59	258.6137886047363	movie	1		282	57.0	2.5	/experiments/Knapen_AOT/AOT_stimuli/rescaled_final/1298_fw.mp4	0.0	275.5296492576599	2.492072105407715
59	259.78740191459656	pulse	1	t		57.0	2.5	/experiments/Knapen_AOT/AOT_stimuli/rescaled_final/1298_fw.mp4	0.0	276.70326256752014	
59	261.10586071014404	fix_post	2		12	57.0	2.5	/experiments/Knapen_AOT/AOT_stimuli/rescaled_final/1298_fw.mp4	0.0	278.0217213630676	0.0999596118927002
60	261.20582032203674	fix_pre	0		120	58.0	2.5	/experiments/Knapen_AOT/AOT_stimuli/rescaled_final/1488_rv.mp4	0.0	278.1216809749603	1.008531093597412
60	261.38965106010437	pulse	0	t		58.0	2.5	/experiments/Knapen_AOT/AOT_stimuli/rescaled_final/1488_rv.mp4	0.0	278.30551171302795	
60	262.21435141563416	movie	1		279	58.0	2.5	/experiments/Knapen_AOT/AOT_stimuli/rescaled_final/1488_rv.mp4	0.0	279.13021206855774	2.491988182067871
60	262.98811292648315	pulse	1	t		58.0	2.5	/experiments/Knapen_AOT/AOT_stimuli/rescaled_final/1488_rv.mp4	0.0	279.90397357940674	
60	264.58184838294983	pulse	1	t		58.0	2.5	/experiments/Knapen_AOT/AOT_stimuli/rescaled_final/1488_rv.mp4	0.0	281.4977090358734	
60	264.706339597702	fix_post	2		12	58.0	2.5	/experiments/Knapen_AOT/AOT_stimuli/rescaled_final/1488_rv.mp4	0.0	281.6222002506256	0.10001826286315918
61	264.8063578605652	fix_pre	0		120	59.0	2.5	/experiments/Knapen_AOT/AOT_stimuli/rescaled_final/1263_fw.mp4	0.0	281.72221851348877	1.008481740951538
61	265.8148396015167	movie	1		273	59.0	2.5	/experiments/Knapen_AOT/AOT_stimuli/rescaled_final/1263_fw.mp4	0.0	282.7307002544403	2.4920477867126465
61	266.1821436882019	pulse	1	t		59.0	2.5	/experiments/Knapen_AOT/AOT_stimuli/rescaled_final/1263_fw.mp4	0.0	283.0980043411255	
61	267.78240847587585	pulse	1	t		59.0	2.5	/experiments/Knapen_AOT/AOT_stimuli/rescaled_final/1263_fw.mp4	0.0	284.69826912879944	
61	268.30688738822937	fix_post	2		12	59.0	2.5	/experiments/Knapen_AOT/AOT_stimuli/rescaled_final/1263_fw.mp4	0.0	285.22274804115295	0.10000729560852051
62	268.4068946838379	fix_pre	0		118	60.0	2.5	/experiments/Knapen_AOT/AOT_stimuli/rescaled_final/0647_rv.mp4	0.0	285.3227553367615	0.9918379783630371
62	269.38235425949097	pulse	0	t		60.0	2.5	/experiments/Knapen_AOT/AOT_stimuli/rescaled_final/0647_rv.mp4	0.0	286.29821491241455	
62	269.3987326622009	movie	1		276	60.0	2.5	/experiments/Knapen_AOT/AOT_stimuli/rescaled_final/0647_rv.mp4	0.0	286.3145933151245	2.500568389892578
62	270.98293709754944	pulse	1	t		60.0	2.5	/experiments/Knapen_AOT/AOT_stimuli/rescaled_final/0647_rv.mp4	0.0	287.898797750473	
62	271.8993010520935	fix_post	2		12	60.0	2.5	/experiments/Knapen_AOT/AOT_stimuli/rescaled_final/0647_rv.mp4	0.0	288.8151617050171	0.09981918334960938
63	271.9991202354431	fix_pre	0		120	61.0	2.5	blank	1.0	288.9149808883667	1.000133991241455
63	272.58277344703674	pulse	0	t		61.0	2.5	blank	1.0	289.4986340999603	
63	272.99925422668457	movie	1		300	61.0	2.5	blank	1.0	289.91511487960815	2.5003745555877686
63	274.18301796913147	pulse	1	t		61.0	2.5	blank	1.0	291.09887862205505	
63	275.49962878227234	fix_post	2		12	61.0	2.5	blank	1.0	292.4154894351959	0.10004830360412598
64	275.59967708587646	fix_pre	0		120	62.0	2.5	/experiments/Knapen_AOT/AOT_stimuli/rescaled_final/0198_rv.mp4	0.0	292.51553773880005	1.008460283279419
64	275.78315448760986	pulse	0	t		62.0	2.5	/experiments/Knapen_AOT/AOT_stimuli/rescaled_final/0198_rv.mp4	0.0	292.69901514053345	
64	276.6081373691559	movie	1		281	62.0	2.5	/experiments/Knapen_AOT/AOT_stimuli/rescaled_final/0198_rv.mp4	0.0	293.52399802207947	2.4920544624328613
64	277.38346433639526	pulse	1	t		62.0	2.5	/experiments/Knapen_AOT/AOT_stimuli/rescaled_final/0198_rv.mp4	0.0	294.29932498931885	
64	278.98210406303406	pulse	1	t		62.0	2.5	/experiments/Knapen_AOT/AOT_stimuli/rescaled_final/0198_rv.mp4	0.0	295.89796471595764	
64	279.10019183158875	fix_post	2		12	62.0	2.5	/experiments/Knapen_AOT/AOT_stimuli/rescaled_final/0198_rv.mp4	0.0	296.01605248451233	0.10003185272216797
65	279.2002236843109	fix_pre	0		120	63.0	2.5	/experiments/Knapen_AOT/AOT_stimuli/rescaled_final/1769_fw.mp4	0.0	296.1160843372345	1.008472204208374
65	280.2086958885193	movie	1		271	63.0	2.5	/experiments/Knapen_AOT/AOT_stimuli/rescaled_final/1769_fw.mp4	0.0	297.12455654144287	2.4920129776000977
65	280.5833423137665	pulse	1	t		63.0	2.5	/experiments/Knapen_AOT/AOT_stimuli/rescaled_final/1769_fw.mp4	0.0	297.49920296669006	
65	282.1823763847351	pulse	1	t		63.0	2.5	/experiments/Knapen_AOT/AOT_stimuli/rescaled_final/1769_fw.mp4	0.0	299.0982370376587	
65	282.7007088661194	fix_post	2		12	63.0	2.5	/experiments/Knapen_AOT/AOT_stimuli/rescaled_final/1769_fw.mp4	0.0	299.61656951904297	0.1000070571899414
66	282.8007159233093	fix_pre	0		119	64.0	2.5	/experiments/Knapen_AOT/AOT_stimuli/rescaled_final/1126_fw.mp4	0.0	299.7165765762329	1.0001862049102783
66	283.78452229499817	pulse	0	t		64.0	2.5	/experiments/Knapen_AOT/AOT_stimuli/rescaled_final/1126_fw.mp4	0.0	300.70038294792175	
66	283.8009021282196	movie	1		286	64.0	2.5	/experiments/Knapen_AOT/AOT_stimuli/rescaled_final/1126_fw.mp4	0.0	300.7167627811432	2.5003719329833984
66	285.38339161872864	pulse	1	t		64.0	2.5	/experiments/Knapen_AOT/AOT_stimuli/rescaled_final/1126_fw.mp4	0.0	302.2992522716522	
66	286.301274061203	fix_post	2		12	64.0	2.5	/experiments/Knapen_AOT/AOT_stimuli/rescaled_final/1126_fw.mp4	0.0	303.2171347141266	0.10000300407409668
67	286.4012770652771	fix_pre	0		120	65.0	2.5	/experiments/Knapen_AOT/AOT_stimuli/rescaled_final/1480_rv.mp4	0.0	303.3171377182007	1.0085113048553467
67	286.9849445819855	pulse	0	t		65.0	2.5	/experiments/Knapen_AOT/AOT_stimuli/rescaled_final/1480_rv.mp4	0.0	303.90080523490906	
67	287.40978837013245	movie	1		278	65.0	2.5	/experiments/Knapen_AOT/AOT_stimuli/rescaled_final/1480_rv.mp4	0.0	304.32564902305603	2.492007255554199
67	288.58378195762634	pulse	1	t		65.0	2.5	/experiments/Knapen_AOT/AOT_stimuli/rescaled_final/1480_rv.mp4	0.0	305.4996426105499	
67	289.90179562568665	fix_post	2		12	65.0	2.5	/experiments/Knapen_AOT/AOT_stimuli/rescaled_final/1480_rv.mp4	0.0	306.81765627861023	0.10004758834838867
68	290.00184321403503	fix_pre	0		120	66.0	2.5	/experiments/Knapen_AOT/AOT_stimuli/rescaled_final/1626_rv.mp4	0.0	306.9177038669586	1.008481502532959
68	290.18542218208313	pulse	0	t		66.0	2.5	/experiments/Knapen_AOT/AOT_stimuli/rescaled_final/1626_rv.mp4	0.0	307.1012828350067	
68	291.010324716568	movie	1		271	66.0	2.5	/experiments/Knapen_AOT/AOT_stimuli/rescaled_final/1626_rv.mp4	0.0	307.9261853694916	2.4920787811279297
68	291.7835988998413	pulse	1	t		66.0	2.5	/experiments/Knapen_AOT/AOT_stimuli/rescaled_final/1626_rv.mp4	0.0	308.6994595527649	
68	293.3851020336151	pulse	1	t		66.0	2.5	/experiments/Knapen_AOT/AOT_stimuli/rescaled_final/1626_rv.mp4	0.0	310.3009626865387	
68	293.5024034976959	fix_post	2		12	66.0	2.5	/experiments/Knapen_AOT/AOT_stimuli/rescaled_final/1626_rv.mp4	0.0	310.4182641506195	0.10001730918884277
69	293.60242080688477	fix_pre	0		120	67.0	2.5	/experiments/Knapen_AOT/AOT_stimuli/rescaled_final/1342_rv.mp4	0.0	310.51828145980835	1.008481740951538
69	294.6109025478363	movie	1		271	67.0	2.5	/experiments/Knapen_AOT/AOT_stimuli/rescaled_final/1342_rv.mp4	0.0	311.5267632007599	2.4919822216033936
69	294.9860906600952	pulse	1	t		67.0	2.5	/experiments/Knapen_AOT/AOT_stimuli/rescaled_final/1342_rv.mp4	0.0	311.9019513130188	
69	296.5845732688904	pulse	1	t		67.0	2.5	/experiments/Knapen_AOT/AOT_stimuli/rescaled_final/1342_rv.mp4	0.0	313.50043392181396	
69	297.1028847694397	fix_post	2		12	67.0	2.5	/experiments/Knapen_AOT/AOT_stimuli/rescaled_final/1342_rv.mp4	0.0	314.0187454223633	0.10002827644348145
70	297.2029130458832	fix_pre	0		119	68.0	2.5	/experiments/Knapen_AOT/AOT_stimuli/rescaled_final/0206_fw.mp4	0.0	314.11877369880676	1.000135898590088
70	298.1866283416748	pulse	0	t		68.0	2.5	/experiments/Knapen_AOT/AOT_stimuli/rescaled_final/0206_fw.mp4	0.0	315.1024889945984	
70	298.20304894447327	movie	1		281	68.0	2.5	/experiments/Knapen_AOT/AOT_stimuli/rescaled_final/0206_fw.mp4	0.0	315.11890959739685	2.5003793239593506
70	299.7856070995331	pulse	1	t		68.0	2.5	/experiments/Knapen_AOT/AOT_stimuli/rescaled_final/0206_fw.mp4	0.0	316.70146775245667	
70	300.7034282684326	fix_post	2		12	68.0	2.5	/experiments/Knapen_AOT/AOT_stimuli/rescaled_final/0206_fw.mp4	0.0	317.6192889213562	0.10001850128173828
71	300.80344676971436	fix_pre	0		120	69.0	2.5	blank	1.0	317.71930742263794	1.0001323223114014
71	301.38709688186646	pulse	0	t		69.0	2.5	blank	1.0	318.30295753479004	
71	301.80357909202576	movie	1		300	69.0	2.5	blank	1.0	318.71943974494934	2.500394821166992
71	302.9875838756561	pulse	1	t		69.0	2.5	blank	1.0	319.9034445285797	
71	304.30397391319275	fix_post	2		12	69.0	2.5	blank	1.0	321.21983456611633	0.10001325607299805
72	304.40398716926575	fix_pre	0		120	70.0	2.5	/experiments/Knapen_AOT/AOT_stimuli/rescaled_final/0436_fw.mp4	0.0	321.31984782218933	1.0084798336029053
72	304.58755707740784	pulse	0	t		70.0	2.5	/experiments/Knapen_AOT/AOT_stimuli/rescaled_final/0436_fw.mp4	0.0	321.5034177303314	
72	305.41246700286865	movie	1		268	70.0	2.5	/experiments/Knapen_AOT/AOT_stimuli/rescaled_final/0436_fw.mp4	0.0	322.32832765579224	2.4920451641082764
72	306.1882631778717	pulse	1	t		70.0	2.5	/experiments/Knapen_AOT/AOT_stimuli/rescaled_final/0436_fw.mp4	0.0	323.1041238307953	
72	307.7861831188202	pulse	1	t		70.0	2.5	/experiments/Knapen_AOT/AOT_stimuli/rescaled_final/0436_fw.mp4	0.0	324.7020437717438	
72	307.90451216697693	fix_post	2		12	70.0	2.5	/experiments/Knapen_AOT/AOT_stimuli/rescaled_final/0436_fw.mp4	0.0	324.8203728199005	0.10021448135375977
73	308.0047266483307	fix_pre	0		120	71.0	2.5	/experiments/Knapen_AOT/AOT_stimuli/rescaled_final/1083_rv.mp4	0.0	324.9205873012543	1.008314609527588
73	309.0130412578583	movie	1		269	71.0	2.5	/experiments/Knapen_AOT/AOT_stimuli/rescaled_final/1083_rv.mp4	0.0	325.92890191078186	2.492008924484253
73	309.3867435455322	pulse	1	t		71.0	2.5	/experiments/Knapen_AOT/AOT_stimuli/rescaled_final/1083_rv.mp4	0.0	326.3026041984558	
73	310.98674297332764	pulse	1	t		71.0	2.5	/experiments/Knapen_AOT/AOT_stimuli/rescaled_final/1083_rv.mp4	0.0	327.9026036262512	
73	311.50505018234253	fix_post	2		12	71.0	2.5	/experiments/Knapen_AOT/AOT_stimuli/rescaled_final/1083_rv.mp4	0.0	328.4209108352661	0.10011601448059082
74	311.6051661968231	fix_pre	0		119	72.0	2.5	/experiments/Knapen_AOT/AOT_stimuli/rescaled_final/2130_fw.mp4	0.0	328.5210268497467	1.0085368156433105
74	312.5888738632202	pulse	0	t		72.0	2.5	/experiments/Knapen_AOT/AOT_stimuli/rescaled_final/2130_fw.mp4	0.0	329.5047345161438	
74	312.61370301246643	movie	1		277	72.0	2.5	/experiments/Knapen_AOT/AOT_stimuli/rescaled_final/2130_fw.mp4	0.0	329.52956366539	2.491887331008911
74	314.1890754699707	pulse	1	t		72.0	2.5	/experiments/Knapen_AOT/AOT_stimuli/rescaled_final/2130_fw.mp4	0.0	331.1049361228943	
74	315.10559034347534	fix_post	2		12	72.0	2.5	/experiments/Knapen_AOT/AOT_stimuli/rescaled_final/2130_fw.mp4	0.0	332.0214509963989	0.10002350807189941
75	315.20561385154724	fix_pre	0		120	73.0	2.5	/experiments/Knapen_AOT/AOT_stimuli/rescaled_final/0571_fw.mp4	0.0	332.1214745044708	1.008516550064087
75	315.78923869132996	pulse	0	t		73.0	2.5	/experiments/Knapen_AOT/AOT_stimuli/rescaled_final/0571_fw.mp4	0.0	332.70509934425354	
75	316.2141304016113	movie	1		275	73.0	2.5	/experiments/Knapen_AOT/AOT_stimuli/rescaled_final/0571_fw.mp4	0.0	333.1299910545349	2.492018938064575
75	317.389719247818	pulse	1	t		73.0	2.5	/experiments/Knapen_AOT/AOT_stimuli/rescaled_final/0571_fw.mp4	0.0	334.3055799007416	
75	318.7061493396759	fix_post	2		12	73.0	2.5	/experiments/Knapen_AOT/AOT_stimuli/rescaled_final/0571_fw.mp4	0.0	335.6220099925995	0.10000920295715332
76	318.80615854263306	fix_pre	0		120	74.0	2.5	/experiments/Knapen_AOT/AOT_stimuli/rescaled_final/1243_fw.mp4	0.0	335.72201919555664	1.0084903240203857
76	318.9899456501007	pulse	0	t		74.0	2.5	/experiments/Knapen_AOT/AOT_stimuli/rescaled_final/1243_fw.mp4	0.0	335.9058063030243	
76	319.81464886665344	movie	1		280	74.0	2.5	/experiments/Knapen_AOT/AOT_stimuli/rescaled_final/1243_fw.mp4	0.0	336.730509519577	2.492055654525757
76	320.58819341659546	pulse	1	t		74.0	2.5	/experiments/Knapen_AOT/AOT_stimuli/rescaled_final/1243_fw.mp4	0.0	337.50405406951904	
76	322.1827063560486	pulse	1	t		74.0	2.5	/experiments/Knapen_AOT/AOT_stimuli/rescaled_final/1243_fw.mp4	0.0	339.09856700897217	
76	322.3067045211792	fix_post	2		12	74.0	2.5	/experiments/Knapen_AOT/AOT_stimuli/rescaled_final/1243_fw.mp4	0.0	339.2225651741028	0.0999906063079834
77	322.4066951274872	fix_pre	0		120	75.0	2.5	blank	1.0	339.32255578041077	1.000199556350708
77	323.4068946838379	movie	1		300	75.0	2.5	blank	1.0	340.3227553367615	2.5003244876861572
77	323.78228068351746	pulse	1	t		75.0	2.5	blank	1.0	340.69814133644104	
77	325.38248658180237	pulse	1	t		75.0	2.5	blank	1.0	342.29834723472595	
77	325.90721917152405	fix_post	2		12	75.0	2.5	blank	1.0	342.82307982444763	0.1000211238861084
78	326.00724029541016	fix_pre	0		118	76.0	2.5	/experiments/Knapen_AOT/AOT_stimuli/rescaled_final/0941_rv.mp4	0.0	342.92310094833374	0.9918878078460693
78	326.98280906677246	pulse	0	t		76.0	2.5	/experiments/Knapen_AOT/AOT_stimuli/rescaled_final/0941_rv.mp4	0.0	343.89866971969604	
78	326.9991281032562	movie	1		286	76.0	2.5	/experiments/Knapen_AOT/AOT_stimuli/rescaled_final/0941_rv.mp4	0.0	343.9149887561798	2.500304937362671
78	328.5829391479492	pulse	1	t		76.0	2.5	/experiments/Knapen_AOT/AOT_stimuli/rescaled_final/0941_rv.mp4	0.0	345.4987998008728	
78	329.4994330406189	fix_post	2		12	76.0	2.5	/experiments/Knapen_AOT/AOT_stimuli/rescaled_final/0941_rv.mp4	0.0	346.4152936935425	0.10007166862487793
79	329.5995047092438	fix_pre	0		120	77.0	2.5	/experiments/Knapen_AOT/AOT_stimuli/rescaled_final/1550_rv.mp4	0.0	346.51536536216736	1.0084407329559326
79	330.1831645965576	pulse	0	t		77.0	2.5	/experiments/Knapen_AOT/AOT_stimuli/rescaled_final/1550_rv.mp4	0.0	347.0990252494812	
79	330.6079454421997	movie	1		277	77.0	2.5	/experiments/Knapen_AOT/AOT_stimuli/rescaled_final/1550_rv.mp4	0.0	347.5238060951233	2.492020606994629
79	331.78334975242615	pulse	1	t		77.0	2.5	/experiments/Knapen_AOT/AOT_stimuli/rescaled_final/1550_rv.mp4	0.0	348.69921040534973	
79	333.09996604919434	fix_post	2		12	77.0	2.5	/experiments/Knapen_AOT/AOT_stimuli/rescaled_final/1550_rv.mp4	0.0	350.0158267021179	0.10003447532653809
80	333.2000005245209	fix_pre	0		120	78.0	2.5	/experiments/Knapen_AOT/AOT_stimuli/rescaled_final/1957_rv.mp4	0.0	350.11586117744446	1.0084750652313232
80	333.38361740112305	pulse	0	t		78.0	2.5	/experiments/Knapen_AOT/AOT_stimuli/rescaled_final/1957_rv.mp4	0.0	350.29947805404663	
80	334.2084755897522	movie	1		276	78.0	2.5	/experiments/Knapen_AOT/AOT_stimuli/rescaled_final/1957_rv.mp4	0.0	351.1243362426758	2.4920527935028076
80	334.9840679168701	pulse	1	t		78.0	2.5	/experiments/Knapen_AOT/AOT_stimuli/rescaled_final/1957_rv.mp4	0.0	351.8999285697937	
80	336.5840411186218	pulse	1	t		78.0	2.5	/experiments/Knapen_AOT/AOT_stimuli/rescaled_final/1957_rv.mp4	0.0	353.4999017715454	
80	336.700528383255	fix_post	2		12	78.0	2.5	/experiments/Knapen_AOT/AOT_stimuli/rescaled_final/1957_rv.mp4	0.0	353.6163890361786	0.09999728202819824
81	336.8005256652832	fix_pre	0		120	79.0	2.5	/experiments/Knapen_AOT/AOT_stimuli/rescaled_final/1147_fw.mp4	0.0	353.7163863182068	1.0084872245788574
81	337.80901288986206	movie	1		277	79.0	2.5	/experiments/Knapen_AOT/AOT_stimuli/rescaled_final/1147_fw.mp4	0.0	354.72487354278564	2.4922242164611816
81	338.18456077575684	pulse	1	t		79.0	2.5	/experiments/Knapen_AOT/AOT_stimuli/rescaled_final/1147_fw.mp4	0.0	355.1004214286804	
81	339.7824318408966	pulse	1	t		79.0	2.5	/experiments/Knapen_AOT/AOT_stimuli/rescaled_final/1147_fw.mp4	0.0	356.6982924938202	
81	340.30123710632324	fix_post	2		12	79.0	2.5	/experiments/Knapen_AOT/AOT_stimuli/rescaled_final/1147_fw.mp4	0.0	357.2170977592468	0.09985923767089844
82	340.40109634399414	fix_pre	0		119	80.0	2.5	/experiments/Knapen_AOT/AOT_stimuli/rescaled_final/2130_rv.mp4	0.0	357.3169569969177	1.0001637935638428
82	341.3850793838501	pulse	0	t		80.0	2.5	/experiments/Knapen_AOT/AOT_stimuli/rescaled_final/2130_rv.mp4	0.0	358.3009400367737	
82	341.401260137558	movie	1		286	80.0	2.5	/experiments/Knapen_AOT/AOT_stimuli/rescaled_final/2130_rv.mp4	0.0	358.31712079048157	2.5003223419189453
82	342.98497891426086	pulse	1	t		80.0	2.5	/experiments/Knapen_AOT/AOT_stimuli/rescaled_final/2130_rv.mp4	0.0	359.90083956718445	
82	343.90158247947693	fix_post	2		12	80.0	2.5	/experiments/Knapen_AOT/AOT_stimuli/rescaled_final/2130_rv.mp4	0.0	360.8174431324005	0.10002446174621582
83	344.00160694122314	fix_pre	0		120	81.0	2.5	/experiments/Knapen_AOT/AOT_stimuli/rescaled_final/1513_rv.mp4	0.0	360.91746759414673	1.0084984302520752
83	344.5852963924408	pulse	0	t		81.0	2.5	/experiments/Knapen_AOT/AOT_stimuli/rescaled_final/1513_rv.mp4	0.0	361.5011570453644	
83	345.0101053714752	movie	1		284	81.0	2.5	/experiments/Knapen_AOT/AOT_stimuli/rescaled_final/1513_rv.mp4	0.0	361.9259660243988	2.492043972015381
83	346.1856143474579	pulse	1	t		81.0	2.5	/experiments/Knapen_AOT/AOT_stimuli/rescaled_final/1513_rv.mp4	0.0	363.10147500038147	
83	347.5021493434906	fix_post	2		12	81.0	2.5	/experiments/Knapen_AOT/AOT_stimuli/rescaled_final/1513_rv.mp4	0.0	364.4180099964142	0.10001039505004883
84	347.60215973854065	fix_pre	0		120	82.0	2.5	blank	1.0	364.51802039146423	1.0001354217529297
84	347.78574228286743	pulse	0	t		82.0	2.5	blank	1.0	364.701602935791	
84	348.6022951602936	movie	1		300	82.0	2.5	blank	1.0	365.51815581321716	2.5003697872161865
84	349.38614439964294	pulse	1	t		82.0	2.5	blank	1.0	366.3020050525665	
84	350.98643350601196	pulse	1	t		82.0	2.5	blank	1.0	367.90229415893555	
84	351.10266494750977	fix_post	2		12	82.0	2.5	blank	1.0	368.01852560043335	0.10004878044128418
85	351.20271372795105	fix_pre	0		120	83.0	2.5	/experiments/Knapen_AOT/AOT_stimuli/rescaled_final/1360_fw.mp4	0.0	368.11857438087463	1.0084877014160156
85	352.21120142936707	movie	1		274	83.0	2.5	/experiments/Knapen_AOT/AOT_stimuli/rescaled_final/1360_fw.mp4	0.0	369.12706208229065	2.4920029640197754
85	352.58496356010437	pulse	1	t		83.0	2.5	/experiments/Knapen_AOT/AOT_stimuli/rescaled_final/1360_fw.mp4	0.0	369.50082421302795	
85	354.18485975265503	pulse	1	t		83.0	2.5	/experiments/Knapen_AOT/AOT_stimuli/rescaled_final/1360_fw.mp4	0.0	371.1007204055786	
85	354.70320439338684	fix_post	2		12	83.0	2.5	/experiments/Knapen_AOT/AOT_stimuli/rescaled_final/1360_fw.mp4	0.0	371.6190650463104	0.09997749328613281
87	354.803181886673	stim	0		1715					371.71904253959656	14.293874502182007
87	355.786926984787	pulse	0	t						372.70278763771057	
87	357.3873059749603	pulse	0	t						374.3031666278839	
87	358.9873802661896	pulse	0	t						375.90324091911316	
87	360.5876898765564	pulse	0	t						377.50355052948	
87	362.18789982795715	pulse	0	t						379.10376048088074	
87	363.78835940361023	pulse	0	t						380.7042200565338	
87	365.38847970962524	pulse	0	t						382.3043403625488	
87	366.9888243675232	pulse	0	t						383.9046850204468	
87	368.5889127254486	pulse	0	t						385.5047733783722	
