trial_nr	onset	event_type	phase	response	nr_frames	movie_index	movie_duration	movie_file	blank	onset_abs	duration
0	0.13374614715576172	stim	0		32					41.89663624763489	0.26616787910461426
0	0.39208102226257324	response	0	space						42.1549711227417	
1	0.399914026260376	stim	0		4649					42.1628041267395	38.741464138031006
1	39.13778805732727	pulse	0	t						80.9006781578064	
1	39.14137816429138	stim	1		1717					80.90426826477051	14.308292865753174
1	40.73328614234924	pulse	1	t						82.49617624282837	
1	42.33341407775879	pulse	1	t						84.09630417823792	
1	43.93315505981445	pulse	1	t						85.69604516029358	
1	45.53315806388855	pulse	1	t						87.29604816436768	
1	47.1332221031189	pulse	1	t						88.89611220359802	
1	48.733144998550415	pulse	1	t						90.49603509902954	
1	50.33315300941467	pulse	1	t						92.0960431098938	
1	51.933144092559814	pulse	1	t						93.69603419303894	
2	53.449671030044556	fix_pre	0		11	0.0	2.5	/experiments/AOT/AOT_stimuli/rescaled_final/1342_fw.mp4	0.0	95.21256113052368	0.09162116050720215
2	53.53319001197815	pulse	0	t		0.0	2.5	/experiments/AOT/AOT_stimuli/rescaled_final/1342_fw.mp4	0.0	95.29608011245728	
2	53.54129219055176	movie	1		243	0.0	2.5	/experiments/AOT/AOT_stimuli/rescaled_final/1342_fw.mp4	0.0	95.30418229103088	2.5084288120269775
2	55.1332311630249	pulse	1	t		0.0	2.5	/experiments/AOT/AOT_stimuli/rescaled_final/1342_fw.mp4	0.0	96.89612126350403	
2	56.049721002578735	fix_post	2		12	0.0	2.5	/experiments/AOT/AOT_stimuli/rescaled_final/1342_fw.mp4	0.0	97.81261110305786	0.09988117218017578
3	56.14960217475891	fix_pre	0		120	1.0	2.5	/experiments/AOT/AOT_stimuli/rescaled_final/1984_rv.mp4	0.0	97.91249227523804	1.000067949295044
3	56.733166217803955	pulse	0	t		1.0	2.5	/experiments/AOT/AOT_stimuli/rescaled_final/1984_rv.mp4	0.0	98.49605631828308	
3	57.149670124053955	movie	1		245	1.0	2.5	/experiments/AOT/AOT_stimuli/rescaled_final/1984_rv.mp4	0.0	98.91256022453308	2.499631881713867
3	58.333221197128296	pulse	1	t		1.0	2.5	/experiments/AOT/AOT_stimuli/rescaled_final/1984_rv.mp4	0.0	100.09611129760742	
3	59.64930200576782	fix_post	2		12	1.0	2.5	/experiments/AOT/AOT_stimuli/rescaled_final/1984_rv.mp4	0.0	101.41219210624695	0.10030412673950195
4	59.749606132507324	fix_pre	0		120	2.0	2.5	/experiments/AOT/AOT_stimuli/rescaled_final/0110_rv.mp4	0.0	101.51249623298645	1.000119924545288
4	59.93326711654663	pulse	0	t		2.0	2.5	/experiments/AOT/AOT_stimuli/rescaled_final/0110_rv.mp4	0.0	101.69615721702576	
4	60.74972605705261	movie	1		244	2.0	2.5	/experiments/AOT/AOT_stimuli/rescaled_final/0110_rv.mp4	0.0	102.51261615753174	2.4994871616363525
4	61.53262901306152	pulse	1	t		2.0	2.5	/experiments/AOT/AOT_stimuli/rescaled_final/0110_rv.mp4	0.0	103.29551911354065	
4	63.130845069885254	pulse	1	t		2.0	2.5	/experiments/AOT/AOT_stimuli/rescaled_final/0110_rv.mp4	0.0	104.89373517036438	
4	63.249213218688965	fix_post	2		12	2.0	2.5	/experiments/AOT/AOT_stimuli/rescaled_final/0110_rv.mp4	0.0	105.01210331916809	0.10062980651855469
5	63.34984302520752	fix_pre	0		120	3.0	2.5	/experiments/AOT/AOT_stimuli/rescaled_final/0946_rv.mp4	0.0	105.11273312568665	0.9996120929718018
5	64.34945511817932	movie	1		243	3.0	2.5	/experiments/AOT/AOT_stimuli/rescaled_final/0946_rv.mp4	0.0	106.11234521865845	2.4998059272766113
5	64.73252511024475	pulse	1	t		3.0	2.5	/experiments/AOT/AOT_stimuli/rescaled_final/0946_rv.mp4	0.0	106.49541521072388	
5	66.33313512802124	pulse	1	t		3.0	2.5	/experiments/AOT/AOT_stimuli/rescaled_final/0946_rv.mp4	0.0	108.09602522850037	
5	66.84926104545593	fix_post	2		12	3.0	2.5	/experiments/AOT/AOT_stimuli/rescaled_final/0946_rv.mp4	0.0	108.61215114593506	0.1003870964050293
6	66.94964814186096	fix_pre	0		119	4.0	2.5	/experiments/AOT/AOT_stimuli/rescaled_final/1168_fw.mp4	0.0	108.71253824234009	0.9916620254516602
6	67.9330620765686	pulse	0	t		4.0	2.5	/experiments/AOT/AOT_stimuli/rescaled_final/1168_fw.mp4	0.0	109.69595217704773	
6	67.94131016731262	movie	1		247	4.0	2.5	/experiments/AOT/AOT_stimuli/rescaled_final/1168_fw.mp4	0.0	109.70420026779175	2.5082180500030518
6	69.53318405151367	pulse	1	t		4.0	2.5	/experiments/AOT/AOT_stimuli/rescaled_final/1168_fw.mp4	0.0	111.2960741519928	
6	70.44952821731567	fix_post	2		12	4.0	2.5	/experiments/AOT/AOT_stimuli/rescaled_final/1168_fw.mp4	0.0	112.2124183177948	0.10009598731994629
7	70.54962420463562	fix_pre	0		120	5.0	2.5	blank	1.0	112.31251430511475	0.999518871307373
7	71.1331000328064	pulse	0	t		5.0	2.5	blank	1.0	112.89599013328552	
7	71.549143075943	movie	1		300	5.0	2.5	blank	1.0	113.31203317642212	2.5003910064697266
7	72.73309111595154	pulse	1	t		5.0	2.5	blank	1.0	114.49598121643066	
7	74.04953408241272	fix_post	2		12	5.0	2.5	blank	1.0	115.81242418289185	0.10008096694946289
8	74.14961504936218	fix_pre	0		120	6.0	2.5	/experiments/AOT/AOT_stimuli/rescaled_final/0926_rv.mp4	0.0	115.91250514984131	0.9999861717224121
8	74.33311915397644	pulse	0	t		6.0	2.5	/experiments/AOT/AOT_stimuli/rescaled_final/0926_rv.mp4	0.0	116.09600925445557	
8	75.1496012210846	movie	1		246	6.0	2.5	/experiments/AOT/AOT_stimuli/rescaled_final/0926_rv.mp4	0.0	116.91249132156372	2.4999728202819824
8	75.9330530166626	pulse	1	t		6.0	2.5	/experiments/AOT/AOT_stimuli/rescaled_final/0926_rv.mp4	0.0	117.69594311714172	
8	77.53149318695068	pulse	1	t		6.0	2.5	/experiments/AOT/AOT_stimuli/rescaled_final/0926_rv.mp4	0.0	119.29438328742981	
8	77.64957404136658	fix_post	2		12	6.0	2.5	/experiments/AOT/AOT_stimuli/rescaled_final/0926_rv.mp4	0.0	119.4124641418457	0.09994196891784668
9	77.74951601028442	fix_pre	0		120	7.0	2.5	/experiments/AOT/AOT_stimuli/rescaled_final/0674_rv.mp4	0.0	119.51240611076355	1.0
9	78.74951601028442	movie	1		245	7.0	2.5	/experiments/AOT/AOT_stimuli/rescaled_final/0674_rv.mp4	0.0	120.51240611076355	2.5000851154327393
9	79.13336515426636	pulse	1	t		7.0	2.5	/experiments/AOT/AOT_stimuli/rescaled_final/0674_rv.mp4	0.0	120.89625525474548	
9	80.73304510116577	pulse	1	t		7.0	2.5	/experiments/AOT/AOT_stimuli/rescaled_final/0674_rv.mp4	0.0	122.4959352016449	
9	81.24960112571716	fix_post	2		12	7.0	2.5	/experiments/AOT/AOT_stimuli/rescaled_final/0674_rv.mp4	0.0	123.01249122619629	0.099884033203125
10	81.34948515892029	fix_pre	0		119	8.0	2.5	/experiments/AOT/AOT_stimuli/rescaled_final/0823_fw.mp4	0.0	123.11237525939941	0.991628885269165
10	82.33302116394043	pulse	0	t		8.0	2.5	/experiments/AOT/AOT_stimuli/rescaled_final/0823_fw.mp4	0.0	124.09591126441956	
10	82.34111404418945	movie	1		247	8.0	2.5	/experiments/AOT/AOT_stimuli/rescaled_final/0823_fw.mp4	0.0	124.10400414466858	2.5083701610565186
10	83.9325602054596	pulse	1	t		8.0	2.5	/experiments/AOT/AOT_stimuli/rescaled_final/0823_fw.mp4	0.0	125.69545030593872	
10	84.84948420524597	fix_post	2		12	8.0	2.5	/experiments/AOT/AOT_stimuli/rescaled_final/0823_fw.mp4	0.0	126.6123743057251	0.10003995895385742
11	84.94952416419983	fix_pre	0		120	9.0	2.5	/experiments/AOT/AOT_stimuli/rescaled_final/2016_fw.mp4	0.0	126.71241426467896	1.0001640319824219
11	85.5329360961914	pulse	0	t		9.0	2.5	/experiments/AOT/AOT_stimuli/rescaled_final/2016_fw.mp4	0.0	127.29582619667053	
11	85.94968819618225	movie	1		245	9.0	2.5	/experiments/AOT/AOT_stimuli/rescaled_final/2016_fw.mp4	0.0	127.71257829666138	2.49980092048645
11	87.13304400444031	pulse	1	t		9.0	2.5	/experiments/AOT/AOT_stimuli/rescaled_final/2016_fw.mp4	0.0	128.89593410491943	
11	88.4494891166687	fix_post	2		12	9.0	2.5	/experiments/AOT/AOT_stimuli/rescaled_final/2016_fw.mp4	0.0	130.21237921714783	0.09993696212768555
12	88.54942607879639	fix_pre	0		120	10.0	2.5	/experiments/AOT/AOT_stimuli/rescaled_final/1896_rv.mp4	0.0	130.3123161792755	1.0001270771026611
12	88.73300218582153	pulse	0	t		10.0	2.5	/experiments/AOT/AOT_stimuli/rescaled_final/1896_rv.mp4	0.0	130.49589228630066	
12	89.54955315589905	movie	1		245	10.0	2.5	/experiments/AOT/AOT_stimuli/rescaled_final/1896_rv.mp4	0.0	131.31244325637817	2.4999890327453613
12	90.33306813240051	pulse	1	t		10.0	2.5	/experiments/AOT/AOT_stimuli/rescaled_final/1896_rv.mp4	0.0	132.09595823287964	
12	91.93158221244812	pulse	1	t		10.0	2.5	/experiments/AOT/AOT_stimuli/rescaled_final/1896_rv.mp4	0.0	133.69447231292725	
12	92.04954218864441	fix_post	2		12	10.0	2.5	/experiments/AOT/AOT_stimuli/rescaled_final/1896_rv.mp4	0.0	133.81243228912354	0.09992098808288574
13	92.1494631767273	fix_pre	0		120	11.0	2.5	/experiments/AOT/AOT_stimuli/rescaled_final/1936_fw.mp4	0.0	133.91235327720642	1.0000548362731934
13	93.14951801300049	movie	1		243	11.0	2.5	/experiments/AOT/AOT_stimuli/rescaled_final/1936_fw.mp4	0.0	134.91240811347961	2.4999401569366455
13	93.53320002555847	pulse	1	t		11.0	2.5	/experiments/AOT/AOT_stimuli/rescaled_final/1936_fw.mp4	0.0	135.2960901260376	
13	95.13288307189941	pulse	1	t		11.0	2.5	/experiments/AOT/AOT_stimuli/rescaled_final/1936_fw.mp4	0.0	136.89577317237854	
13	95.64945816993713	fix_post	2		12	11.0	2.5	/experiments/AOT/AOT_stimuli/rescaled_final/1936_fw.mp4	0.0	137.41234827041626	0.10000801086425781
14	95.74946618080139	fix_pre	0		119	12.0	2.5	/experiments/AOT/AOT_stimuli/rescaled_final/2109_fw.mp4	0.0	137.51235628128052	0.9917538166046143
14	96.73294711112976	pulse	0	t		12.0	2.5	/experiments/AOT/AOT_stimuli/rescaled_final/2109_fw.mp4	0.0	138.4958372116089	
14	96.741219997406	movie	1		243	12.0	2.5	/experiments/AOT/AOT_stimuli/rescaled_final/2109_fw.mp4	0.0	138.50411009788513	2.5082151889801025
14	98.33239722251892	pulse	1	t		12.0	2.5	/experiments/AOT/AOT_stimuli/rescaled_final/2109_fw.mp4	0.0	140.09528732299805	
14	99.24943518638611	fix_post	2		12	12.0	2.5	/experiments/AOT/AOT_stimuli/rescaled_final/2109_fw.mp4	0.0	141.01232528686523	0.09998893737792969
15	99.34942412376404	fix_pre	0		120	13.0	2.5	/experiments/AOT/AOT_stimuli/rescaled_final/1258_rv.mp4	0.0	141.11231422424316	1.000032901763916
15	99.9329731464386	pulse	0	t		13.0	2.5	/experiments/AOT/AOT_stimuli/rescaled_final/1258_rv.mp4	0.0	141.69586324691772	
15	100.34945702552795	movie	1		244	13.0	2.5	/experiments/AOT/AOT_stimuli/rescaled_final/1258_rv.mp4	0.0	142.11234712600708	2.4999301433563232
15	101.53301215171814	pulse	1	t		13.0	2.5	/experiments/AOT/AOT_stimuli/rescaled_final/1258_rv.mp4	0.0	143.29590225219727	
15	102.84938716888428	fix_post	2		12	13.0	2.5	/experiments/AOT/AOT_stimuli/rescaled_final/1258_rv.mp4	0.0	144.6122772693634	0.09999990463256836
16	102.94938707351685	fix_pre	0		120	14.0	2.5	blank	1.0	144.71227717399597	1.0000290870666504
16	103.13296818733215	pulse	0	t		14.0	2.5	blank	1.0	144.89585828781128	
16	103.9494161605835	movie	1		300	14.0	2.5	blank	1.0	145.71230626106262	2.4999589920043945
16	104.73294115066528	pulse	1	t		14.0	2.5	blank	1.0	146.4958312511444	
16	106.33291220664978	pulse	1	t		14.0	2.5	blank	1.0	148.0958023071289	
16	106.44937515258789	fix_post	2		12	14.0	2.5	blank	1.0	148.21226525306702	0.10006189346313477
17	106.54943704605103	fix_pre	0		120	15.0	2.5	/experiments/AOT/AOT_stimuli/rescaled_final/0981_fw.mp4	0.0	148.31232714653015	0.9996371269226074
17	107.54907417297363	movie	1		243	15.0	2.5	/experiments/AOT/AOT_stimuli/rescaled_final/0981_fw.mp4	0.0	149.31196427345276	2.499894857406616
17	107.93270802497864	pulse	1	t		15.0	2.5	/experiments/AOT/AOT_stimuli/rescaled_final/0981_fw.mp4	0.0	149.69559812545776	
17	109.53287410736084	pulse	1	t		15.0	2.5	/experiments/AOT/AOT_stimuli/rescaled_final/0981_fw.mp4	0.0	151.29576420783997	
17	110.04896903038025	fix_post	2		12	15.0	2.5	/experiments/AOT/AOT_stimuli/rescaled_final/0981_fw.mp4	0.0	151.81185913085938	0.10042715072631836
18	110.14939618110657	fix_pre	0		119	16.0	2.5	/experiments/AOT/AOT_stimuli/rescaled_final/0546_rv.mp4	0.0	151.9122862815857	0.9916729927062988
18	111.13291311264038	pulse	0	t		16.0	2.5	/experiments/AOT/AOT_stimuli/rescaled_final/0546_rv.mp4	0.0	152.8958032131195	
18	111.14106917381287	movie	1		245	16.0	2.5	/experiments/AOT/AOT_stimuli/rescaled_final/0546_rv.mp4	0.0	152.903959274292	2.5077929496765137
18	112.73244023323059	pulse	1	t		16.0	2.5	/experiments/AOT/AOT_stimuli/rescaled_final/0546_rv.mp4	0.0	154.49533033370972	
18	113.64886212348938	fix_post	2		12	16.0	2.5	/experiments/AOT/AOT_stimuli/rescaled_final/0546_rv.mp4	0.0	155.4117522239685	0.10051894187927246
19	113.74938106536865	fix_pre	0		120	17.0	2.5	/experiments/AOT/AOT_stimuli/rescaled_final/1302_fw.mp4	0.0	155.51227116584778	0.9999179840087891
19	114.33290719985962	pulse	0	t		17.0	2.5	/experiments/AOT/AOT_stimuli/rescaled_final/1302_fw.mp4	0.0	156.09579730033875	
19	114.74929904937744	movie	1		245	17.0	2.5	/experiments/AOT/AOT_stimuli/rescaled_final/1302_fw.mp4	0.0	156.51218914985657	2.500169038772583
19	115.9330542087555	pulse	1	t		17.0	2.5	/experiments/AOT/AOT_stimuli/rescaled_final/1302_fw.mp4	0.0	157.69594430923462	
19	117.24946808815002	fix_post	2		12	17.0	2.5	/experiments/AOT/AOT_stimuli/rescaled_final/1302_fw.mp4	0.0	159.01235818862915	0.09985995292663574
20	117.34932804107666	fix_pre	0		120	18.0	2.5	/experiments/AOT/AOT_stimuli/rescaled_final/0858_rv.mp4	0.0	159.1122181415558	0.9996509552001953
20	117.53289914131165	pulse	0	t		18.0	2.5	/experiments/AOT/AOT_stimuli/rescaled_final/0858_rv.mp4	0.0	159.29578924179077	
20	118.34897899627686	movie	1		243	18.0	2.5	/experiments/AOT/AOT_stimuli/rescaled_final/0858_rv.mp4	0.0	160.11186909675598	2.5002450942993164
20	119.13290500640869	pulse	1	t		18.0	2.5	/experiments/AOT/AOT_stimuli/rescaled_final/0858_rv.mp4	0.0	160.89579510688782	
20	120.7313780784607	pulse	1	t		18.0	2.5	/experiments/AOT/AOT_stimuli/rescaled_final/0858_rv.mp4	0.0	162.49426817893982	
20	120.84922409057617	fix_post	2		12	18.0	2.5	/experiments/AOT/AOT_stimuli/rescaled_final/0858_rv.mp4	0.0	162.6121141910553	0.10005497932434082
21	120.94927906990051	fix_pre	0		120	19.0	2.5	/experiments/AOT/AOT_stimuli/rescaled_final/0412_fw.mp4	0.0	162.71216917037964	1.0001020431518555
21	121.94938111305237	movie	1		244	19.0	2.5	/experiments/AOT/AOT_stimuli/rescaled_final/0412_fw.mp4	0.0	163.7122712135315	2.4999499320983887
21	122.33231210708618	pulse	1	t		19.0	2.5	/experiments/AOT/AOT_stimuli/rescaled_final/0412_fw.mp4	0.0	164.0952022075653	
21	123.9327940940857	pulse	1	t		19.0	2.5	/experiments/AOT/AOT_stimuli/rescaled_final/0412_fw.mp4	0.0	165.69568419456482	
21	124.44933104515076	fix_post	2		12	19.0	2.5	/experiments/AOT/AOT_stimuli/rescaled_final/0412_fw.mp4	0.0	166.21222114562988	0.09995603561401367
22	124.54928708076477	fix_pre	0		119	20.0	2.5	blank	1.0	166.3121771812439	0.9916660785675049
22	125.532888174057	pulse	0	t		20.0	2.5	blank	1.0	167.29577827453613	
22	125.54095315933228	movie	1		301	20.0	2.5	blank	1.0	167.3038432598114	2.508312940597534
22	127.13275909423828	pulse	1	t		20.0	2.5	blank	1.0	168.8956491947174	
22	128.0492660999298	fix_post	2		12	20.0	2.5	blank	1.0	169.81215620040894	0.10005497932434082
23	128.14932107925415	fix_pre	0		120	21.0	2.5	/experiments/AOT/AOT_stimuli/rescaled_final/0956_fw.mp4	0.0	169.91221117973328	0.9999711513519287
23	128.73283100128174	pulse	0	t		21.0	2.5	/experiments/AOT/AOT_stimuli/rescaled_final/0956_fw.mp4	0.0	170.49572110176086	
23	129.14929223060608	movie	1		245	21.0	2.5	/experiments/AOT/AOT_stimuli/rescaled_final/0956_fw.mp4	0.0	170.9121823310852	2.499889850616455
23	130.33286714553833	pulse	1	t		21.0	2.5	/experiments/AOT/AOT_stimuli/rescaled_final/0956_fw.mp4	0.0	172.09575724601746	
23	131.64918208122253	fix_post	2		12	21.0	2.5	/experiments/AOT/AOT_stimuli/rescaled_final/0956_fw.mp4	0.0	173.41207218170166	0.10008406639099121
24	131.74926614761353	fix_pre	0		120	22.0	2.5	/experiments/AOT/AOT_stimuli/rescaled_final/2016_fw.mp4	0.0	173.51215624809265	0.9999539852142334
24	131.9327690601349	pulse	0	t		22.0	2.5	/experiments/AOT/AOT_stimuli/rescaled_final/2016_fw.mp4	0.0	173.695659160614	
24	132.74922013282776	movie	1		243	22.0	2.5	/experiments/AOT/AOT_stimuli/rescaled_final/2016_fw.mp4	0.0	174.51211023330688	2.5000178813934326
24	133.53276801109314	pulse	1	t		22.0	2.5	/experiments/AOT/AOT_stimuli/rescaled_final/2016_fw.mp4	0.0	175.29565811157227	
24	135.13104820251465	pulse	1	t		22.0	2.5	/experiments/AOT/AOT_stimuli/rescaled_final/2016_fw.mp4	0.0	176.89393830299377	
24	135.2492380142212	fix_post	2		12	22.0	2.5	/experiments/AOT/AOT_stimuli/rescaled_final/2016_fw.mp4	0.0	177.01212811470032	0.09996604919433594
25	135.34920406341553	fix_pre	0		120	23.0	2.5	/experiments/AOT/AOT_stimuli/rescaled_final/1281_fw.mp4	0.0	177.11209416389465	1.0001399517059326
25	136.34934401512146	movie	1		245	23.0	2.5	/experiments/AOT/AOT_stimuli/rescaled_final/1281_fw.mp4	0.0	178.1122341156006	2.4999091625213623
25	136.7325141429901	pulse	1	t		23.0	2.5	/experiments/AOT/AOT_stimuli/rescaled_final/1281_fw.mp4	0.0	178.49540424346924	
25	138.33277916908264	pulse	1	t		23.0	2.5	/experiments/AOT/AOT_stimuli/rescaled_final/1281_fw.mp4	0.0	180.09566926956177	
25	138.84925317764282	fix_post	2		12	23.0	2.5	/experiments/AOT/AOT_stimuli/rescaled_final/1281_fw.mp4	0.0	180.61214327812195	0.09999299049377441
26	138.9492461681366	fix_pre	0		119	24.0	2.5	/experiments/AOT/AOT_stimuli/rescaled_final/1984_fw.mp4	0.0	180.71213626861572	0.9917659759521484
26	139.93279123306274	pulse	0	t		24.0	2.5	/experiments/AOT/AOT_stimuli/rescaled_final/1984_fw.mp4	0.0	181.69568133354187	
26	139.94101214408875	movie	1		245	24.0	2.5	/experiments/AOT/AOT_stimuli/rescaled_final/1984_fw.mp4	0.0	181.70390224456787	2.508178949356079
26	141.53260016441345	pulse	1	t		24.0	2.5	/experiments/AOT/AOT_stimuli/rescaled_final/1984_fw.mp4	0.0	183.29549026489258	
26	142.44919109344482	fix_post	2		12	24.0	2.5	/experiments/AOT/AOT_stimuli/rescaled_final/1984_fw.mp4	0.0	184.21208119392395	0.10000205039978027
27	142.5491931438446	fix_pre	0		120	25.0	2.5	/experiments/AOT/AOT_stimuli/rescaled_final/0317_rv.mp4	0.0	184.31208324432373	0.9996030330657959
27	143.13276600837708	pulse	0	t		25.0	2.5	/experiments/AOT/AOT_stimuli/rescaled_final/0317_rv.mp4	0.0	184.8956561088562	
27	143.5487961769104	movie	1		244	25.0	2.5	/experiments/AOT/AOT_stimuli/rescaled_final/0317_rv.mp4	0.0	185.31168627738953	2.500372886657715
27	144.7328441143036	pulse	1	t		25.0	2.5	/experiments/AOT/AOT_stimuli/rescaled_final/0317_rv.mp4	0.0	186.49573421478271	
27	146.04916906356812	fix_post	2		12	25.0	2.5	/experiments/AOT/AOT_stimuli/rescaled_final/0317_rv.mp4	0.0	187.81205916404724	0.09998607635498047
28	146.1491551399231	fix_pre	0		120	26.0	2.5	blank	1.0	187.91204524040222	1.0000479221343994
28	146.3327760696411	pulse	0	t		26.0	2.5	blank	1.0	188.09566617012024	
28	147.1492030620575	movie	1		300	26.0	2.5	blank	1.0	188.91209316253662	2.499946117401123
28	147.9327211380005	pulse	1	t		26.0	2.5	blank	1.0	189.69561123847961	
28	149.5325791835785	pulse	1	t		26.0	2.5	blank	1.0	191.29546928405762	
28	149.64914917945862	fix_post	2		12	26.0	2.5	blank	1.0	191.41203927993774	0.10003089904785156
29	149.74918007850647	fix_pre	0		120	27.0	2.5	/experiments/AOT/AOT_stimuli/rescaled_final/1991_fw.mp4	0.0	191.5120701789856	1.0000250339508057
29	150.74920511245728	movie	1		243	27.0	2.5	/experiments/AOT/AOT_stimuli/rescaled_final/1991_fw.mp4	0.0	192.5120952129364	2.4999799728393555
29	151.13274121284485	pulse	1	t		27.0	2.5	/experiments/AOT/AOT_stimuli/rescaled_final/1991_fw.mp4	0.0	192.89563131332397	
29	152.73271322250366	pulse	1	t		27.0	2.5	/experiments/AOT/AOT_stimuli/rescaled_final/1991_fw.mp4	0.0	194.4956033229828	
29	153.24918508529663	fix_post	2		12	27.0	2.5	/experiments/AOT/AOT_stimuli/rescaled_final/1991_fw.mp4	0.0	195.01207518577576	0.09999895095825195
30	153.34918403625488	fix_pre	0		119	28.0	2.5	/experiments/AOT/AOT_stimuli/rescaled_final/0311_fw.mp4	0.0	195.112074136734	0.9916820526123047
30	154.3326539993286	pulse	0	t		28.0	2.5	/experiments/AOT/AOT_stimuli/rescaled_final/0311_fw.mp4	0.0	196.09554409980774	
30	154.3408660888672	movie	1		245	28.0	2.5	/experiments/AOT/AOT_stimuli/rescaled_final/0311_fw.mp4	0.0	196.1037561893463	2.5078110694885254
30	155.93255305290222	pulse	1	t		28.0	2.5	/experiments/AOT/AOT_stimuli/rescaled_final/0311_fw.mp4	0.0	197.69544315338135	
30	156.8486771583557	fix_post	2		12	28.0	2.5	/experiments/AOT/AOT_stimuli/rescaled_final/0311_fw.mp4	0.0	198.61156725883484	0.10053706169128418
31	156.949214220047	fix_pre	0		120	29.0	2.5	/experiments/AOT/AOT_stimuli/rescaled_final/1936_fw.mp4	0.0	198.71210432052612	0.9996228218078613
31	157.532644033432	pulse	0	t		29.0	2.5	/experiments/AOT/AOT_stimuli/rescaled_final/1936_fw.mp4	0.0	199.29553413391113	
31	157.94883704185486	movie	1		244	29.0	2.5	/experiments/AOT/AOT_stimuli/rescaled_final/1936_fw.mp4	0.0	199.71172714233398	2.500307083129883
31	159.1327760219574	pulse	1	t		29.0	2.5	/experiments/AOT/AOT_stimuli/rescaled_final/1936_fw.mp4	0.0	200.89566612243652	
31	160.44914412498474	fix_post	2		12	29.0	2.5	/experiments/AOT/AOT_stimuli/rescaled_final/1936_fw.mp4	0.0	202.21203422546387	0.10001707077026367
32	160.549161195755	fix_pre	0		120	30.0	2.5	/experiments/AOT/AOT_stimuli/rescaled_final/1658_rv.mp4	0.0	202.31205129623413	0.9996819496154785
32	160.73263120651245	pulse	0	t		30.0	2.5	/experiments/AOT/AOT_stimuli/rescaled_final/1658_rv.mp4	0.0	202.49552130699158	
32	161.54884314537048	movie	1		243	30.0	2.5	/experiments/AOT/AOT_stimuli/rescaled_final/1658_rv.mp4	0.0	203.3117332458496	2.4997949600219727
32	162.33261704444885	pulse	1	t		30.0	2.5	/experiments/AOT/AOT_stimuli/rescaled_final/1658_rv.mp4	0.0	204.09550714492798	
32	163.93108105659485	pulse	1	t		30.0	2.5	/experiments/AOT/AOT_stimuli/rescaled_final/1658_rv.mp4	0.0	205.69397115707397	
32	164.04863810539246	fix_post	2		12	30.0	2.5	/experiments/AOT/AOT_stimuli/rescaled_final/1658_rv.mp4	0.0	205.81152820587158	0.10050392150878906
33	164.14914202690125	fix_pre	0		120	31.0	2.5	/experiments/AOT/AOT_stimuli/rescaled_final/1699_fw.mp4	0.0	205.91203212738037	0.9999480247497559
33	165.149090051651	movie	1		243	31.0	2.5	/experiments/AOT/AOT_stimuli/rescaled_final/1699_fw.mp4	0.0	206.91198015213013	2.500115156173706
33	165.53251600265503	pulse	1	t		31.0	2.5	/experiments/AOT/AOT_stimuli/rescaled_final/1699_fw.mp4	0.0	207.29540610313416	
33	167.13262605667114	pulse	1	t		31.0	2.5	/experiments/AOT/AOT_stimuli/rescaled_final/1699_fw.mp4	0.0	208.89551615715027	
33	167.6492052078247	fix_post	2		12	31.0	2.5	/experiments/AOT/AOT_stimuli/rescaled_final/1699_fw.mp4	0.0	209.41209530830383	0.09998083114624023
34	167.74918603897095	fix_pre	0		119	32.0	2.5	/experiments/AOT/AOT_stimuli/rescaled_final/1619_fw.mp4	0.0	209.51207613945007	0.9915540218353271
34	168.73271322250366	pulse	0	t		32.0	2.5	/experiments/AOT/AOT_stimuli/rescaled_final/1619_fw.mp4	0.0	210.4956033229828	
34	168.74074006080627	movie	1		245	32.0	2.5	/experiments/AOT/AOT_stimuli/rescaled_final/1619_fw.mp4	0.0	210.5036301612854	2.508394956588745
34	170.33219599723816	pulse	1	t		32.0	2.5	/experiments/AOT/AOT_stimuli/rescaled_final/1619_fw.mp4	0.0	212.09508609771729	
34	171.24913501739502	fix_post	2		12	32.0	2.5	/experiments/AOT/AOT_stimuli/rescaled_final/1619_fw.mp4	0.0	213.01202511787415	0.09954404830932617
35	171.34867906570435	fix_pre	0		120	33.0	2.5	/experiments/AOT/AOT_stimuli/rescaled_final/0120_fw.mp4	0.0	213.11156916618347	1.0004351139068604
35	171.93258500099182	pulse	0	t		33.0	2.5	/experiments/AOT/AOT_stimuli/rescaled_final/0120_fw.mp4	0.0	213.69547510147095	
35	172.3491141796112	movie	1		247	33.0	2.5	/experiments/AOT/AOT_stimuli/rescaled_final/0120_fw.mp4	0.0	214.11200428009033	2.499738931655884
35	173.53216314315796	pulse	1	t		33.0	2.5	/experiments/AOT/AOT_stimuli/rescaled_final/0120_fw.mp4	0.0	215.29505324363708	
35	174.8488531112671	fix_post	2		12	33.0	2.5	/experiments/AOT/AOT_stimuli/rescaled_final/0120_fw.mp4	0.0	216.61174321174622	0.09993410110473633
36	174.94878721237183	fix_pre	0		120	34.0	2.5	blank	1.0	216.71167731285095	1.0002009868621826
36	175.13231205940247	pulse	0	t		34.0	2.5	blank	1.0	216.8952021598816	
36	175.948988199234	movie	1		300	34.0	2.5	blank	1.0	217.71187829971313	2.500128984451294
36	176.73254919052124	pulse	1	t		34.0	2.5	blank	1.0	218.49543929100037	
36	178.33253121376038	pulse	1	t		34.0	2.5	blank	1.0	220.0954213142395	
36	178.4491171836853	fix_post	2		12	34.0	2.5	blank	1.0	220.21200728416443	0.09993696212768555
37	178.549054145813	fix_pre	0		120	35.0	2.5	/experiments/AOT/AOT_stimuli/rescaled_final/2166_fw.mp4	0.0	220.31194424629211	1.0000150203704834
37	179.54906916618347	movie	1		244	35.0	2.5	/experiments/AOT/AOT_stimuli/rescaled_final/2166_fw.mp4	0.0	221.3119592666626	2.4999639987945557
37	179.9323980808258	pulse	1	t		35.0	2.5	/experiments/AOT/AOT_stimuli/rescaled_final/2166_fw.mp4	0.0	221.69528818130493	
37	181.532457113266	pulse	1	t		35.0	2.5	/experiments/AOT/AOT_stimuli/rescaled_final/2166_fw.mp4	0.0	223.29534721374512	
37	182.04903316497803	fix_post	2		12	35.0	2.5	/experiments/AOT/AOT_stimuli/rescaled_final/2166_fw.mp4	0.0	223.81192326545715	0.0999460220336914
38	182.14897918701172	fix_pre	0		119	36.0	2.5	/experiments/AOT/AOT_stimuli/rescaled_final/0412_fw.mp4	0.0	223.91186928749084	0.9916749000549316
38	183.13256311416626	pulse	0	t		36.0	2.5	/experiments/AOT/AOT_stimuli/rescaled_final/0412_fw.mp4	0.0	224.89545321464539	
38	183.14065408706665	movie	1		247	36.0	2.5	/experiments/AOT/AOT_stimuli/rescaled_final/0412_fw.mp4	0.0	224.90354418754578	2.507966995239258
38	184.7322130203247	pulse	1	t		36.0	2.5	/experiments/AOT/AOT_stimuli/rescaled_final/0412_fw.mp4	0.0	226.49510312080383	
38	185.6486210823059	fix_post	2		12	36.0	2.5	/experiments/AOT/AOT_stimuli/rescaled_final/0412_fw.mp4	0.0	227.41151118278503	0.1003561019897461
39	185.74897718429565	fix_pre	0		120	37.0	2.5	/experiments/AOT/AOT_stimuli/rescaled_final/1961_rv.mp4	0.0	227.51186728477478	1.0000219345092773
39	186.33250403404236	pulse	0	t		37.0	2.5	/experiments/AOT/AOT_stimuli/rescaled_final/1961_rv.mp4	0.0	228.09539413452148	
39	186.74899911880493	movie	1		243	37.0	2.5	/experiments/AOT/AOT_stimuli/rescaled_final/1961_rv.mp4	0.0	228.51188921928406	2.500027894973755
39	187.93259406089783	pulse	1	t		37.0	2.5	/experiments/AOT/AOT_stimuli/rescaled_final/1961_rv.mp4	0.0	229.69548416137695	
39	189.2490270137787	fix_post	2		12	37.0	2.5	/experiments/AOT/AOT_stimuli/rescaled_final/1961_rv.mp4	0.0	231.0119171142578	0.09995603561401367
40	189.3489830493927	fix_pre	0		120	38.0	2.5	/experiments/AOT/AOT_stimuli/rescaled_final/0650_rv.mp4	0.0	231.11187314987183	0.9999730587005615
40	189.53244709968567	pulse	0	t		38.0	2.5	/experiments/AOT/AOT_stimuli/rescaled_final/0650_rv.mp4	0.0	231.2953372001648	
40	190.34895610809326	movie	1		244	38.0	2.5	/experiments/AOT/AOT_stimuli/rescaled_final/0650_rv.mp4	0.0	232.1118462085724	2.5000689029693604
40	191.13248205184937	pulse	1	t		38.0	2.5	/experiments/AOT/AOT_stimuli/rescaled_final/0650_rv.mp4	0.0	232.8953721523285	
40	192.7310872077942	pulse	1	t		38.0	2.5	/experiments/AOT/AOT_stimuli/rescaled_final/0650_rv.mp4	0.0	234.49397730827332	
40	192.84902501106262	fix_post	2		12	38.0	2.5	/experiments/AOT/AOT_stimuli/rescaled_final/0650_rv.mp4	0.0	234.61191511154175	0.09959220886230469
41	192.94861721992493	fix_pre	0		120	39.0	2.5	/experiments/AOT/AOT_stimuli/rescaled_final/1585_fw.mp4	0.0	234.71150732040405	1.0003747940063477
41	193.94899201393127	movie	1		245	39.0	2.5	/experiments/AOT/AOT_stimuli/rescaled_final/1585_fw.mp4	0.0	235.7118821144104	2.499937057495117
41	194.333594083786	pulse	1	t		39.0	2.5	/experiments/AOT/AOT_stimuli/rescaled_final/1585_fw.mp4	0.0	236.09648418426514	
41	195.9324221611023	pulse	1	t		39.0	2.5	/experiments/AOT/AOT_stimuli/rescaled_final/1585_fw.mp4	0.0	237.69531226158142	
41	196.4489290714264	fix_post	2		12	39.0	2.5	/experiments/AOT/AOT_stimuli/rescaled_final/1585_fw.mp4	0.0	238.21181917190552	0.10003805160522461
42	196.54896712303162	fix_pre	0		119	40.0	2.5	blank	1.0	238.31185722351074	0.9916419982910156
42	197.53247022628784	pulse	0	t		40.0	2.5	blank	1.0	239.29536032676697	
42	197.54060912132263	movie	1		301	40.0	2.5	blank	1.0	239.30349922180176	2.5083470344543457
42	199.13244915008545	pulse	1	t		40.0	2.5	blank	1.0	240.89533925056458	
42	200.04895615577698	fix_post	2		12	40.0	2.5	blank	1.0	241.8118462562561	0.10004997253417969
43	200.14900612831116	fix_pre	0		120	41.0	2.5	/experiments/AOT/AOT_stimuli/rescaled_final/1699_rv.mp4	0.0	241.91189622879028	0.999985933303833
43	200.73247909545898	pulse	0	t		41.0	2.5	/experiments/AOT/AOT_stimuli/rescaled_final/1699_rv.mp4	0.0	242.4953691959381	
43	201.148992061615	movie	1		245	41.0	2.5	/experiments/AOT/AOT_stimuli/rescaled_final/1699_rv.mp4	0.0	242.91188216209412	2.499588966369629
43	202.332533121109	pulse	1	t		41.0	2.5	/experiments/AOT/AOT_stimuli/rescaled_final/1699_rv.mp4	0.0	244.09542322158813	
43	203.64858102798462	fix_post	2		12	41.0	2.5	/experiments/AOT/AOT_stimuli/rescaled_final/1699_rv.mp4	0.0	245.41147112846375	0.10031914710998535
44	203.7489001750946	fix_pre	0		120	42.0	2.5	/experiments/AOT/AOT_stimuli/rescaled_final/2016_rv.mp4	0.0	245.51179027557373	1.0000379085540771
44	203.9324290752411	pulse	0	t		42.0	2.5	/experiments/AOT/AOT_stimuli/rescaled_final/2016_rv.mp4	0.0	245.69531917572021	
44	204.74893808364868	movie	1		243	42.0	2.5	/experiments/AOT/AOT_stimuli/rescaled_final/2016_rv.mp4	0.0	246.5118281841278	2.4995391368865967
44	205.53243207931519	pulse	1	t		42.0	2.5	/experiments/AOT/AOT_stimuli/rescaled_final/2016_rv.mp4	0.0	247.2953221797943	
44	207.13063621520996	pulse	1	t		42.0	2.5	/experiments/AOT/AOT_stimuli/rescaled_final/2016_rv.mp4	0.0	248.8935263156891	
44	207.24847722053528	fix_post	2		12	42.0	2.5	/experiments/AOT/AOT_stimuli/rescaled_final/2016_rv.mp4	0.0	249.0113673210144	0.10004091262817383
45	207.34851813316345	fix_pre	0		120	43.0	2.5	/experiments/AOT/AOT_stimuli/rescaled_final/1998_rv.mp4	0.0	249.11140823364258	1.0004160404205322
45	208.34893417358398	movie	1		243	43.0	2.5	/experiments/AOT/AOT_stimuli/rescaled_final/1998_rv.mp4	0.0	250.1118242740631	2.5000498294830322
45	208.7322130203247	pulse	1	t		43.0	2.5	/experiments/AOT/AOT_stimuli/rescaled_final/1998_rv.mp4	0.0	250.49510312080383	
45	210.3324270248413	pulse	1	t		43.0	2.5	/experiments/AOT/AOT_stimuli/rescaled_final/1998_rv.mp4	0.0	252.09531712532043	
45	210.84898400306702	fix_post	2		12	43.0	2.5	/experiments/AOT/AOT_stimuli/rescaled_final/1998_rv.mp4	0.0	252.61187410354614	0.09987711906433105
46	210.94886112213135	fix_pre	0		119	44.0	2.5	/experiments/AOT/AOT_stimuli/rescaled_final/1216_rv.mp4	0.0	252.71175122261047	0.9918138980865479
46	211.9325602054596	pulse	0	t		44.0	2.5	/experiments/AOT/AOT_stimuli/rescaled_final/1216_rv.mp4	0.0	253.69545030593872	
46	211.9406750202179	movie	1		245	44.0	2.5	/experiments/AOT/AOT_stimuli/rescaled_final/1216_rv.mp4	0.0	253.70356512069702	2.508258104324341
46	213.53200316429138	pulse	1	t		44.0	2.5	/experiments/AOT/AOT_stimuli/rescaled_final/1216_rv.mp4	0.0	255.2948932647705	
46	214.44893312454224	fix_post	2		12	44.0	2.5	/experiments/AOT/AOT_stimuli/rescaled_final/1216_rv.mp4	0.0	256.21182322502136	0.09997892379760742
47	214.54891204833984	fix_pre	0		120	45.0	2.5	/experiments/AOT/AOT_stimuli/rescaled_final/1862_rv.mp4	0.0	256.31180214881897	0.9995429515838623
47	215.13238906860352	pulse	0	t		45.0	2.5	/experiments/AOT/AOT_stimuli/rescaled_final/1862_rv.mp4	0.0	256.89527916908264	
47	215.5484549999237	movie	1		246	45.0	2.5	/experiments/AOT/AOT_stimuli/rescaled_final/1862_rv.mp4	0.0	257.31134510040283	2.4999821186065674
47	216.7323980331421	pulse	1	t		45.0	2.5	/experiments/AOT/AOT_stimuli/rescaled_final/1862_rv.mp4	0.0	258.4952881336212	
47	218.04843711853027	fix_post	2		12	45.0	2.5	/experiments/AOT/AOT_stimuli/rescaled_final/1862_rv.mp4	0.0	259.8113272190094	0.1004939079284668
48	218.14893102645874	fix_pre	0		118	46.0	2.5	/experiments/AOT/AOT_stimuli/rescaled_final/0327_rv.mp4	0.0	259.91182112693787	0.9998960494995117
48	218.33238410949707	pulse	0	t		46.0	2.5	/experiments/AOT/AOT_stimuli/rescaled_final/0327_rv.mp4	0.0	260.0952742099762	
48	219.14882707595825	movie	1		244	46.0	2.5	/experiments/AOT/AOT_stimuli/rescaled_final/0327_rv.mp4	0.0	260.9117171764374	2.500101089477539
48	219.93237614631653	pulse	1	t		46.0	2.5	/experiments/AOT/AOT_stimuli/rescaled_final/0327_rv.mp4	0.0	261.69526624679565	
48	221.53109121322632	pulse	1	t		46.0	2.5	/experiments/AOT/AOT_stimuli/rescaled_final/0327_rv.mp4	0.0	263.29398131370544	
48	221.6489281654358	fix_post	2		12	46.0	2.5	/experiments/AOT/AOT_stimuli/rescaled_final/0327_rv.mp4	0.0	263.4118182659149	0.0999288558959961
49	221.7488570213318	fix_pre	0		120	47.0	2.5	blank	1.0	263.5117471218109	0.9995601177215576
49	222.74841713905334	movie	1		300	47.0	2.5	blank	1.0	264.51130723953247	2.5003809928894043
49	223.13236117362976	pulse	1	t		47.0	2.5	blank	1.0	264.8952512741089	
49	224.7323591709137	pulse	1	t		47.0	2.5	blank	1.0	266.4952492713928	
49	225.24879813194275	fix_post	2		12	47.0	2.5	blank	1.0	267.0116882324219	0.10010600090026855
50	225.34890413284302	fix_pre	0		119	48.0	2.5	/experiments/AOT/AOT_stimuli/rescaled_final/0045_fw.mp4	0.0	267.11179423332214	0.9916279315948486
50	226.33230900764465	pulse	0	t		48.0	2.5	/experiments/AOT/AOT_stimuli/rescaled_final/0045_fw.mp4	0.0	268.0951991081238	
50	226.34053206443787	movie	1		244	48.0	2.5	/experiments/AOT/AOT_stimuli/rescaled_final/0045_fw.mp4	0.0	268.103422164917	2.5083279609680176
50	227.93184900283813	pulse	1	t		48.0	2.5	/experiments/AOT/AOT_stimuli/rescaled_final/0045_fw.mp4	0.0	269.69473910331726	
50	228.84886002540588	fix_post	2		12	48.0	2.5	/experiments/AOT/AOT_stimuli/rescaled_final/0045_fw.mp4	0.0	270.611750125885	0.09999799728393555
51	228.94885802268982	fix_pre	0		120	49.0	2.5	/experiments/AOT/AOT_stimuli/rescaled_final/1006_rv.mp4	0.0	270.71174812316895	0.9996349811553955
51	229.53182101249695	pulse	0	t		49.0	2.5	/experiments/AOT/AOT_stimuli/rescaled_final/1006_rv.mp4	0.0	271.2947111129761	
51	229.94849300384521	movie	1		244	49.0	2.5	/experiments/AOT/AOT_stimuli/rescaled_final/1006_rv.mp4	0.0	271.71138310432434	2.500237226486206
51	231.13250923156738	pulse	1	t		49.0	2.5	/experiments/AOT/AOT_stimuli/rescaled_final/1006_rv.mp4	0.0	272.8953993320465	
51	232.44873023033142	fix_post	2		12	49.0	2.5	/experiments/AOT/AOT_stimuli/rescaled_final/1006_rv.mp4	0.0	274.21162033081055	0.10045480728149414
52	232.54918503761292	fix_pre	0		120	50.0	2.5	/experiments/AOT/AOT_stimuli/rescaled_final/2175_fw.mp4	0.0	274.31207513809204	0.9996271133422852
52	232.73228406906128	pulse	0	t		50.0	2.5	/experiments/AOT/AOT_stimuli/rescaled_final/2175_fw.mp4	0.0	274.4951741695404	
52	233.5488121509552	movie	1		247	50.0	2.5	/experiments/AOT/AOT_stimuli/rescaled_final/2175_fw.mp4	0.0	275.3117022514343	2.5000860691070557
52	234.33221817016602	pulse	1	t		50.0	2.5	/experiments/AOT/AOT_stimuli/rescaled_final/2175_fw.mp4	0.0	276.09510827064514	
52	235.92833709716797	pulse	1	t		50.0	2.5	/experiments/AOT/AOT_stimuli/rescaled_final/2175_fw.mp4	0.0	277.6912271976471	
52	236.04889822006226	fix_post	2		12	50.0	2.5	/experiments/AOT/AOT_stimuli/rescaled_final/2175_fw.mp4	0.0	277.8117883205414	0.09987688064575195
53	236.148775100708	fix_pre	0		120	51.0	2.5	/experiments/AOT/AOT_stimuli/rescaled_final/1798_fw.mp4	0.0	277.91166520118713	1.0000441074371338
53	237.14881920814514	movie	1		245	51.0	2.5	/experiments/AOT/AOT_stimuli/rescaled_final/1798_fw.mp4	0.0	278.91170930862427	2.499943971633911
53	237.5335021018982	pulse	1	t		51.0	2.5	/experiments/AOT/AOT_stimuli/rescaled_final/1798_fw.mp4	0.0	279.2963922023773	
53	239.1322340965271	pulse	1	t		51.0	2.5	/experiments/AOT/AOT_stimuli/rescaled_final/1798_fw.mp4	0.0	280.8951241970062	
53	239.64876317977905	fix_post	2		12	51.0	2.5	/experiments/AOT/AOT_stimuli/rescaled_final/1798_fw.mp4	0.0	281.4116532802582	0.09999799728393555
54	239.748761177063	fix_pre	0		119	52.0	2.5	/experiments/AOT/AOT_stimuli/rescaled_final/1185_rv.mp4	0.0	281.5116512775421	0.9916789531707764
54	240.73226308822632	pulse	0	t		52.0	2.5	/experiments/AOT/AOT_stimuli/rescaled_final/1185_rv.mp4	0.0	282.49515318870544	
54	240.74044013023376	movie	1		246	52.0	2.5	/experiments/AOT/AOT_stimuli/rescaled_final/1185_rv.mp4	0.0	282.5033302307129	2.5082569122314453
54	242.33181619644165	pulse	1	t		52.0	2.5	/experiments/AOT/AOT_stimuli/rescaled_final/1185_rv.mp4	0.0	284.0947062969208	
54	243.2486970424652	fix_post	2		12	52.0	2.5	/experiments/AOT/AOT_stimuli/rescaled_final/1185_rv.mp4	0.0	285.01158714294434	0.10003805160522461
55	243.34873509407043	fix_pre	0		120	53.0	2.5	/experiments/AOT/AOT_stimuli/rescaled_final/1574_rv.mp4	0.0	285.11162519454956	0.9999740123748779
55	243.93222618103027	pulse	0	t		53.0	2.5	/experiments/AOT/AOT_stimuli/rescaled_final/1574_rv.mp4	0.0	285.6951162815094	
55	244.3487091064453	movie	1		245	53.0	2.5	/experiments/AOT/AOT_stimuli/rescaled_final/1574_rv.mp4	0.0	286.11159920692444	2.499974012374878
55	245.53229308128357	pulse	1	t		53.0	2.5	/experiments/AOT/AOT_stimuli/rescaled_final/1574_rv.mp4	0.0	287.2951831817627	
55	246.8486831188202	fix_post	2		12	53.0	2.5	/experiments/AOT/AOT_stimuli/rescaled_final/1574_rv.mp4	0.0	288.6115732192993	0.09997391700744629
56	246.94865703582764	fix_pre	0		120	54.0	2.5	blank	1.0	288.71154713630676	1.0001499652862549
56	247.13220715522766	pulse	0	t		54.0	2.5	blank	1.0	288.8950972557068	
56	247.9488070011139	movie	1		300	54.0	2.5	blank	1.0	289.711697101593	2.499946117401123
56	248.73226118087769	pulse	1	t		54.0	2.5	blank	1.0	290.4951512813568	
56	250.33221912384033	pulse	1	t		54.0	2.5	blank	1.0	292.09510922431946	
56	250.44875311851501	fix_post	2		12	54.0	2.5	blank	1.0	292.21164321899414	0.09996199607849121
57	250.5487151145935	fix_pre	0		120	55.0	2.5	/experiments/AOT/AOT_stimuli/rescaled_final/0610_rv.mp4	0.0	292.31160521507263	0.999967098236084
57	251.5486822128296	movie	1		243	55.0	2.5	/experiments/AOT/AOT_stimuli/rescaled_final/0610_rv.mp4	0.0	293.3115723133087	2.5000178813934326
57	251.93176102638245	pulse	1	t		55.0	2.5	/experiments/AOT/AOT_stimuli/rescaled_final/0610_rv.mp4	0.0	293.6946511268616	
57	253.53223299980164	pulse	1	t		55.0	2.5	/experiments/AOT/AOT_stimuli/rescaled_final/0610_rv.mp4	0.0	295.29512310028076	
57	254.04870009422302	fix_post	2		12	55.0	2.5	/experiments/AOT/AOT_stimuli/rescaled_final/0610_rv.mp4	0.0	295.81159019470215	0.09994912147521973
58	254.14864921569824	fix_pre	0		119	56.0	2.5	/experiments/AOT/AOT_stimuli/rescaled_final/1533_rv.mp4	0.0	295.91153931617737	0.9916729927062988
58	255.13222312927246	pulse	0	t		56.0	2.5	/experiments/AOT/AOT_stimuli/rescaled_final/1533_rv.mp4	0.0	296.8951132297516	
58	255.14032220840454	movie	1		245	56.0	2.5	/experiments/AOT/AOT_stimuli/rescaled_final/1533_rv.mp4	0.0	296.90321230888367	2.5083229541778564
58	256.7319061756134	pulse	1	t		56.0	2.5	/experiments/AOT/AOT_stimuli/rescaled_final/1533_rv.mp4	0.0	298.49479627609253	
58	257.6486451625824	fix_post	2		12	56.0	2.5	/experiments/AOT/AOT_stimuli/rescaled_final/1533_rv.mp4	0.0	299.4115352630615	0.10001897811889648
59	257.7486641407013	fix_pre	0		120	57.0	2.5	/experiments/AOT/AOT_stimuli/rescaled_final/0844_fw.mp4	0.0	299.5115542411804	0.9999969005584717
59	258.3321440219879	pulse	0	t		57.0	2.5	/experiments/AOT/AOT_stimuli/rescaled_final/0844_fw.mp4	0.0	300.09503412246704	
59	258.74866104125977	movie	1		248	57.0	2.5	/experiments/AOT/AOT_stimuli/rescaled_final/0844_fw.mp4	0.0	300.5115511417389	2.4995529651641846
59	259.93233013153076	pulse	1	t		57.0	2.5	/experiments/AOT/AOT_stimuli/rescaled_final/0844_fw.mp4	0.0	301.6952202320099	
59	261.24821400642395	fix_post	2		12	57.0	2.5	/experiments/AOT/AOT_stimuli/rescaled_final/0844_fw.mp4	0.0	303.0111041069031	0.10040616989135742
60	261.3486201763153	fix_pre	0		120	58.0	2.5	/experiments/AOT/AOT_stimuli/rescaled_final/1455_fw.mp4	0.0	303.11151027679443	1.0000879764556885
60	261.5321969985962	pulse	0	t		58.0	2.5	/experiments/AOT/AOT_stimuli/rescaled_final/1455_fw.mp4	0.0	303.2950870990753	
60	262.348708152771	movie	1		243	58.0	2.5	/experiments/AOT/AOT_stimuli/rescaled_final/1455_fw.mp4	0.0	304.1115982532501	2.4995598793029785
60	263.1321671009064	pulse	1	t		58.0	2.5	/experiments/AOT/AOT_stimuli/rescaled_final/1455_fw.mp4	0.0	304.8950572013855	
60	264.7304491996765	pulse	1	t		58.0	2.5	/experiments/AOT/AOT_stimuli/rescaled_final/1455_fw.mp4	0.0	306.49333930015564	
60	264.848268032074	fix_post	2		12	58.0	2.5	/experiments/AOT/AOT_stimuli/rescaled_final/1455_fw.mp4	0.0	306.6111581325531	0.10034704208374023
61	264.9486150741577	fix_pre	0		120	59.0	2.5	/experiments/AOT/AOT_stimuli/rescaled_final/0224_rv.mp4	0.0	306.71150517463684	0.9999849796295166
61	265.94860005378723	movie	1		244	59.0	2.5	/experiments/AOT/AOT_stimuli/rescaled_final/0224_rv.mp4	0.0	307.71149015426636	2.5000860691070557
61	266.3318841457367	pulse	1	t		59.0	2.5	/experiments/AOT/AOT_stimuli/rescaled_final/0224_rv.mp4	0.0	308.0947742462158	
61	267.93232011795044	pulse	1	t		59.0	2.5	/experiments/AOT/AOT_stimuli/rescaled_final/0224_rv.mp4	0.0	309.69521021842957	
61	268.4486861228943	fix_post	2		12	59.0	2.5	/experiments/AOT/AOT_stimuli/rescaled_final/0224_rv.mp4	0.0	310.2115762233734	0.10000491142272949
62	268.548691034317	fix_pre	0		119	60.0	2.5	/experiments/AOT/AOT_stimuli/rescaled_final/1145_fw.mp4	0.0	310.31158113479614	0.9916369915008545
62	269.53208923339844	pulse	0	t		60.0	2.5	/experiments/AOT/AOT_stimuli/rescaled_final/1145_fw.mp4	0.0	311.29497933387756	
62	269.54032802581787	movie	1		246	60.0	2.5	/experiments/AOT/AOT_stimuli/rescaled_final/1145_fw.mp4	0.0	311.303218126297	2.5082621574401855
62	271.13208413124084	pulse	1	t		60.0	2.5	/experiments/AOT/AOT_stimuli/rescaled_final/1145_fw.mp4	0.0	312.89497423171997	
62	272.04859018325806	fix_post	2		12	60.0	2.5	/experiments/AOT/AOT_stimuli/rescaled_final/1145_fw.mp4	0.0	313.8114802837372	0.1000218391418457
63	272.1486120223999	fix_pre	0		120	61.0	2.5	/experiments/AOT/AOT_stimuli/rescaled_final/0823_fw.mp4	0.0	313.911502122879	1.0000159740447998
63	272.73340916633606	pulse	0	t		61.0	2.5	/experiments/AOT/AOT_stimuli/rescaled_final/0823_fw.mp4	0.0	314.4962992668152	
63	273.1486279964447	movie	1		244	61.0	2.5	/experiments/AOT/AOT_stimuli/rescaled_final/0823_fw.mp4	0.0	314.9115180969238	2.499972105026245
63	274.33220505714417	pulse	1	t		61.0	2.5	/experiments/AOT/AOT_stimuli/rescaled_final/0823_fw.mp4	0.0	316.0950951576233	
63	275.64860010147095	fix_post	2		12	61.0	2.5	/experiments/AOT/AOT_stimuli/rescaled_final/0823_fw.mp4	0.0	317.4114902019501	0.09999394416809082
64	275.74859404563904	fix_pre	0		120	62.0	2.5	/experiments/AOT/AOT_stimuli/rescaled_final/0101_fw.mp4	0.0	317.51148414611816	0.9999561309814453
64	275.9320921897888	pulse	0	t		62.0	2.5	/experiments/AOT/AOT_stimuli/rescaled_final/0101_fw.mp4	0.0	317.69498229026794	
64	276.7485501766205	movie	1		242	62.0	2.5	/experiments/AOT/AOT_stimuli/rescaled_final/0101_fw.mp4	0.0	318.5114402770996	2.5000369548797607
64	277.53204917907715	pulse	1	t		62.0	2.5	/experiments/AOT/AOT_stimuli/rescaled_final/0101_fw.mp4	0.0	319.2949392795563	
64	279.1304500102997	pulse	1	t		62.0	2.5	/experiments/AOT/AOT_stimuli/rescaled_final/0101_fw.mp4	0.0	320.8933401107788	
64	279.24858713150024	fix_post	2		12	62.0	2.5	/experiments/AOT/AOT_stimuli/rescaled_final/0101_fw.mp4	0.0	321.01147723197937	0.0995950698852539
65	279.3481822013855	fix_pre	0		120	63.0	2.5	blank	1.0	321.1110723018646	1.0003869533538818
65	280.3485691547394	movie	1		300	63.0	2.5	blank	1.0	322.1114592552185	2.499997854232788
65	280.7321472167969	pulse	1	t		63.0	2.5	blank	1.0	322.495037317276	
65	282.33204102516174	pulse	1	t		63.0	2.5	blank	1.0	324.09493112564087	
65	282.84856700897217	fix_post	2		12	63.0	2.5	blank	1.0	324.6114571094513	0.10002708435058594
66	282.94859409332275	fix_pre	0		119	64.0	2.5	/experiments/AOT/AOT_stimuli/rescaled_final/1006_fw.mp4	0.0	324.7114841938019	0.9916110038757324
66	283.9321060180664	pulse	0	t		64.0	2.5	/experiments/AOT/AOT_stimuli/rescaled_final/1006_fw.mp4	0.0	325.69499611854553	
66	283.9402050971985	movie	1		248	64.0	2.5	/experiments/AOT/AOT_stimuli/rescaled_final/1006_fw.mp4	0.0	325.7030951976776	2.5084660053253174
66	285.53106904029846	pulse	1	t		64.0	2.5	/experiments/AOT/AOT_stimuli/rescaled_final/1006_fw.mp4	0.0	327.2939591407776	
66	286.4486711025238	fix_post	2		12	64.0	2.5	/experiments/AOT/AOT_stimuli/rescaled_final/1006_fw.mp4	0.0	328.21156120300293	0.09993100166320801
67	286.548602104187	fix_pre	0		120	65.0	2.5	/experiments/AOT/AOT_stimuli/rescaled_final/1369_fw.mp4	0.0	328.31149220466614	1.0001139640808105
67	287.1321921348572	pulse	0	t		65.0	2.5	/experiments/AOT/AOT_stimuli/rescaled_final/1369_fw.mp4	0.0	328.8950822353363	
67	287.5487160682678	movie	1		244	65.0	2.5	/experiments/AOT/AOT_stimuli/rescaled_final/1369_fw.mp4	0.0	329.31160616874695	2.4994449615478516
67	288.7320182323456	pulse	1	t		65.0	2.5	/experiments/AOT/AOT_stimuli/rescaled_final/1369_fw.mp4	0.0	330.4949083328247	
67	290.0481610298157	fix_post	2		12	65.0	2.5	/experiments/AOT/AOT_stimuli/rescaled_final/1369_fw.mp4	0.0	331.8110511302948	0.10038304328918457
68	290.14854407310486	fix_pre	0		120	66.0	2.5	/experiments/AOT/AOT_stimuli/rescaled_final/1815_fw.mp4	0.0	331.911434173584	1.0000109672546387
68	290.3319411277771	pulse	0	t		66.0	2.5	/experiments/AOT/AOT_stimuli/rescaled_final/1815_fw.mp4	0.0	332.0948312282562	
68	291.1485550403595	movie	1		247	66.0	2.5	/experiments/AOT/AOT_stimuli/rescaled_final/1815_fw.mp4	0.0	332.9114451408386	2.4999401569366455
68	291.9320800304413	pulse	1	t		66.0	2.5	/experiments/AOT/AOT_stimuli/rescaled_final/1815_fw.mp4	0.0	333.6949701309204	
68	293.5280342102051	pulse	1	t		66.0	2.5	/experiments/AOT/AOT_stimuli/rescaled_final/1815_fw.mp4	0.0	335.2909243106842	
68	293.64849519729614	fix_post	2		12	66.0	2.5	/experiments/AOT/AOT_stimuli/rescaled_final/1815_fw.mp4	0.0	335.41138529777527	0.1000208854675293
69	293.7485160827637	fix_pre	0		120	67.0	2.5	/experiments/AOT/AOT_stimuli/rescaled_final/2090_rv.mp4	0.0	335.5114061832428	0.9999780654907227
69	294.7484941482544	movie	1		244	67.0	2.5	/experiments/AOT/AOT_stimuli/rescaled_final/2090_rv.mp4	0.0	336.5113842487335	2.500027894973755
69	295.13165521621704	pulse	1	t		67.0	2.5	/experiments/AOT/AOT_stimuli/rescaled_final/2090_rv.mp4	0.0	336.89454531669617	
69	296.7319481372833	pulse	1	t		67.0	2.5	/experiments/AOT/AOT_stimuli/rescaled_final/2090_rv.mp4	0.0	338.49483823776245	
69	297.24852204322815	fix_post	2		12	67.0	2.5	/experiments/AOT/AOT_stimuli/rescaled_final/2090_rv.mp4	0.0	339.0114121437073	0.0999751091003418
70	297.3484971523285	fix_pre	0		119	68.0	2.5	/experiments/AOT/AOT_stimuli/rescaled_final/1445_fw.mp4	0.0	339.1113872528076	0.9916238784790039
70	298.3319330215454	pulse	0	t		68.0	2.5	/experiments/AOT/AOT_stimuli/rescaled_final/1445_fw.mp4	0.0	340.09482312202454	
70	298.3401210308075	movie	1		245	68.0	2.5	/experiments/AOT/AOT_stimuli/rescaled_final/1445_fw.mp4	0.0	340.1030111312866	2.507909059524536
70	299.93327021598816	pulse	1	t		68.0	2.5	/experiments/AOT/AOT_stimuli/rescaled_final/1445_fw.mp4	0.0	341.6961603164673	
70	300.84803009033203	fix_post	2		12	68.0	2.5	/experiments/AOT/AOT_stimuli/rescaled_final/1445_fw.mp4	0.0	342.61092019081116	0.10036802291870117
71	300.94839811325073	fix_pre	0		120	69.0	2.5	blank	1.0	342.71128821372986	1.0001211166381836
71	301.5319890975952	pulse	0	t		69.0	2.5	blank	1.0	343.29487919807434	
71	301.9485192298889	movie	1		300	69.0	2.5	blank	1.0	343.71140933036804	2.499459981918335
71	303.1319570541382	pulse	1	t		69.0	2.5	blank	1.0	344.8948471546173	
71	304.44797921180725	fix_post	2		12	69.0	2.5	blank	1.0	346.2108693122864	0.10012984275817871
72	304.54810905456543	fix_pre	0		120	70.0	2.5	/experiments/AOT/AOT_stimuli/rescaled_final/0169_rv.mp4	0.0	346.31099915504456	1.0002541542053223
72	304.7319869995117	pulse	0	t		70.0	2.5	/experiments/AOT/AOT_stimuli/rescaled_final/0169_rv.mp4	0.0	346.49487709999084	
72	305.54836320877075	movie	1		244	70.0	2.5	/experiments/AOT/AOT_stimuli/rescaled_final/0169_rv.mp4	0.0	347.3112533092499	2.4996178150177
72	306.33192110061646	pulse	1	t		70.0	2.5	/experiments/AOT/AOT_stimuli/rescaled_final/0169_rv.mp4	0.0	348.0948112010956	
72	307.9304120540619	pulse	1	t		70.0	2.5	/experiments/AOT/AOT_stimuli/rescaled_final/0169_rv.mp4	0.0	349.693302154541	
72	308.04798102378845	fix_post	2		12	70.0	2.5	/experiments/AOT/AOT_stimuli/rescaled_final/0169_rv.mp4	0.0	349.8108711242676	0.10049700736999512
73	308.14847803115845	fix_pre	0		120	71.0	2.5	/experiments/AOT/AOT_stimuli/rescaled_final/1406_rv.mp4	0.0	349.9113681316376	0.999500036239624
73	309.14797806739807	movie	1		245	71.0	2.5	/experiments/AOT/AOT_stimuli/rescaled_final/1406_rv.mp4	0.0	350.9108681678772	2.500072956085205
73	309.53310918807983	pulse	1	t		71.0	2.5	/experiments/AOT/AOT_stimuli/rescaled_final/1406_rv.mp4	0.0	351.29599928855896	
73	311.1319591999054	pulse	1	t		71.0	2.5	/experiments/AOT/AOT_stimuli/rescaled_final/1406_rv.mp4	0.0	352.8948493003845	
73	311.6480510234833	fix_post	2		12	71.0	2.5	/experiments/AOT/AOT_stimuli/rescaled_final/1406_rv.mp4	0.0	353.4109411239624	0.10037112236022949
74	311.7484221458435	fix_pre	0		119	72.0	2.5	/experiments/AOT/AOT_stimuli/rescaled_final/1256_fw.mp4	0.0	353.51131224632263	0.9916870594024658
74	312.73184514045715	pulse	0	t		72.0	2.5	/experiments/AOT/AOT_stimuli/rescaled_final/1256_fw.mp4	0.0	354.4947352409363	
74	312.740109205246	movie	1		247	72.0	2.5	/experiments/AOT/AOT_stimuli/rescaled_final/1256_fw.mp4	0.0	354.5029993057251	2.507863998413086
74	314.3317141532898	pulse	1	t		72.0	2.5	/experiments/AOT/AOT_stimuli/rescaled_final/1256_fw.mp4	0.0	356.0946042537689	
74	315.24797320365906	fix_post	2		12	72.0	2.5	/experiments/AOT/AOT_stimuli/rescaled_final/1256_fw.mp4	0.0	357.0108633041382	0.10039091110229492
75	315.34836411476135	fix_pre	0		120	73.0	2.5	/experiments/AOT/AOT_stimuli/rescaled_final/0205_rv.mp4	0.0	357.1112542152405	0.9999809265136719
75	315.9319112300873	pulse	0	t		73.0	2.5	/experiments/AOT/AOT_stimuli/rescaled_final/0205_rv.mp4	0.0	357.6948013305664	
75	316.348345041275	movie	1		245	73.0	2.5	/experiments/AOT/AOT_stimuli/rescaled_final/0205_rv.mp4	0.0	358.11123514175415	2.500035047531128
75	317.53194308280945	pulse	1	t		73.0	2.5	/experiments/AOT/AOT_stimuli/rescaled_final/0205_rv.mp4	0.0	359.2948331832886	
75	318.84838008880615	fix_post	2		12	73.0	2.5	/experiments/AOT/AOT_stimuli/rescaled_final/0205_rv.mp4	0.0	360.6112701892853	0.09997010231018066
76	318.94835019111633	fix_pre	0		120	74.0	2.5	/experiments/AOT/AOT_stimuli/rescaled_final/0250_fw.mp4	0.0	360.71124029159546	0.9999890327453613
76	319.13188910484314	pulse	0	t		74.0	2.5	/experiments/AOT/AOT_stimuli/rescaled_final/0250_fw.mp4	0.0	360.89477920532227	
76	319.9483392238617	movie	1		244	74.0	2.5	/experiments/AOT/AOT_stimuli/rescaled_final/0250_fw.mp4	0.0	361.7112293243408	2.4998018741607666
76	320.73209619522095	pulse	1	t		74.0	2.5	/experiments/AOT/AOT_stimuli/rescaled_final/0250_fw.mp4	0.0	362.4949862957001	
76	322.33034920692444	pulse	1	t		74.0	2.5	/experiments/AOT/AOT_stimuli/rescaled_final/0250_fw.mp4	0.0	364.09323930740356	
76	322.44814109802246	fix_post	2		12	74.0	2.5	/experiments/AOT/AOT_stimuli/rescaled_final/0250_fw.mp4	0.0	364.2110311985016	0.10030698776245117
77	322.5484480857849	fix_pre	0		120	75.0	2.5	blank	1.0	364.31133818626404	0.9999301433563232
77	323.54837822914124	movie	1		300	75.0	2.5	blank	1.0	365.31126832962036	2.500001907348633
77	323.93184208869934	pulse	1	t		75.0	2.5	blank	1.0	365.69473218917847	
77	325.5318422317505	pulse	1	t		75.0	2.5	blank	1.0	367.2947323322296	
77	326.04838013648987	fix_post	2		12	75.0	2.5	blank	1.0	367.811270236969	0.09996700286865234
78	326.1483471393585	fix_pre	0		119	76.0	2.5	/experiments/AOT/AOT_stimuli/rescaled_final/1620_rv.mp4	0.0	367.91123723983765	0.9916219711303711
78	327.1318361759186	pulse	0	t		76.0	2.5	/experiments/AOT/AOT_stimuli/rescaled_final/1620_rv.mp4	0.0	368.8947262763977	
78	327.1399691104889	movie	1		247	76.0	2.5	/experiments/AOT/AOT_stimuli/rescaled_final/1620_rv.mp4	0.0	368.902859210968	2.5082790851593018
78	328.73146414756775	pulse	1	t		76.0	2.5	/experiments/AOT/AOT_stimuli/rescaled_final/1620_rv.mp4	0.0	370.4943542480469	
78	329.6482481956482	fix_post	2		12	76.0	2.5	/experiments/AOT/AOT_stimuli/rescaled_final/1620_rv.mp4	0.0	371.4111382961273	0.10016703605651855
79	329.7484152317047	fix_pre	0		120	77.0	2.5	/experiments/AOT/AOT_stimuli/rescaled_final/0921_fw.mp4	0.0	371.51130533218384	0.9994478225708008
79	330.33178520202637	pulse	0	t		77.0	2.5	/experiments/AOT/AOT_stimuli/rescaled_final/0921_fw.mp4	0.0	372.0946753025055	
79	330.7478630542755	movie	1		244	77.0	2.5	/experiments/AOT/AOT_stimuli/rescaled_final/0921_fw.mp4	0.0	372.51075315475464	2.5000381469726562
79	331.9318721294403	pulse	1	t		77.0	2.5	/experiments/AOT/AOT_stimuli/rescaled_final/0921_fw.mp4	0.0	373.69476222991943	
79	333.24790120124817	fix_post	2		12	77.0	2.5	/experiments/AOT/AOT_stimuli/rescaled_final/0921_fw.mp4	0.0	375.0107913017273	0.09994196891784668
80	333.347843170166	fix_pre	0		120	78.0	2.5	/experiments/AOT/AOT_stimuli/rescaled_final/1632_rv.mp4	0.0	375.11073327064514	1.000511884689331
80	333.53175020217896	pulse	0	t		78.0	2.5	/experiments/AOT/AOT_stimuli/rescaled_final/1632_rv.mp4	0.0	375.2946403026581	
80	334.34835505485535	movie	1		246	78.0	2.5	/experiments/AOT/AOT_stimuli/rescaled_final/1632_rv.mp4	0.0	376.1112451553345	2.4998841285705566
80	335.13178515434265	pulse	1	t		78.0	2.5	/experiments/AOT/AOT_stimuli/rescaled_final/1632_rv.mp4	0.0	376.8946752548218	
80	336.7277591228485	pulse	1	t		78.0	2.5	/experiments/AOT/AOT_stimuli/rescaled_final/1632_rv.mp4	0.0	378.49064922332764	
80	336.8482391834259	fix_post	2		12	78.0	2.5	/experiments/AOT/AOT_stimuli/rescaled_final/1632_rv.mp4	0.0	378.61112928390503	0.10011482238769531
81	336.9483540058136	fix_pre	0		120	79.0	2.5	/experiments/AOT/AOT_stimuli/rescaled_final/1750_rv.mp4	0.0	378.7112441062927	0.9999191761016846
81	337.9482731819153	movie	1		244	79.0	2.5	/experiments/AOT/AOT_stimuli/rescaled_final/1750_rv.mp4	0.0	379.7111632823944	2.4996109008789062
81	338.33141803741455	pulse	1	t		79.0	2.5	/experiments/AOT/AOT_stimuli/rescaled_final/1750_rv.mp4	0.0	380.0943081378937	
81	339.9316952228546	pulse	1	t		79.0	2.5	/experiments/AOT/AOT_stimuli/rescaled_final/1750_rv.mp4	0.0	381.69458532333374	
81	340.4478840827942	fix_post	2		12	79.0	2.5	/experiments/AOT/AOT_stimuli/rescaled_final/1750_rv.mp4	0.0	382.2107741832733	0.10046195983886719
82	340.54834604263306	fix_pre	0		119	80.0	2.5	/experiments/AOT/AOT_stimuli/rescaled_final/1159_fw.mp4	0.0	382.3112361431122	0.9915599822998047
82	341.53133511543274	pulse	0	t		80.0	2.5	/experiments/AOT/AOT_stimuli/rescaled_final/1159_fw.mp4	0.0	383.29422521591187	
82	341.53990602493286	movie	1		245	80.0	2.5	/experiments/AOT/AOT_stimuli/rescaled_final/1159_fw.mp4	0.0	383.302796125412	2.5082931518554688
82	343.13265204429626	pulse	1	t		80.0	2.5	/experiments/AOT/AOT_stimuli/rescaled_final/1159_fw.mp4	0.0	384.8955421447754	
82	344.04819917678833	fix_post	2		12	80.0	2.5	/experiments/AOT/AOT_stimuli/rescaled_final/1159_fw.mp4	0.0	385.81108927726746	0.09999394416809082
83	344.1481931209564	fix_pre	0		120	81.0	2.5	/experiments/AOT/AOT_stimuli/rescaled_final/1185_fw.mp4	0.0	385.91108322143555	1.0000479221343994
83	344.7317810058594	pulse	0	t		81.0	2.5	/experiments/AOT/AOT_stimuli/rescaled_final/1185_fw.mp4	0.0	386.4946711063385	
83	345.1482410430908	movie	1		244	81.0	2.5	/experiments/AOT/AOT_stimuli/rescaled_final/1185_fw.mp4	0.0	386.91113114356995	2.4999890327453613
83	346.33175706863403	pulse	1	t		81.0	2.5	/experiments/AOT/AOT_stimuli/rescaled_final/1185_fw.mp4	0.0	388.09464716911316	
83	347.6482300758362	fix_post	2		12	81.0	2.5	/experiments/AOT/AOT_stimuli/rescaled_final/1185_fw.mp4	0.0	389.4111201763153	0.09999394416809082
84	347.7482240200043	fix_pre	0		120	82.0	2.5	blank	1.0	389.5111141204834	1.0000591278076172
84	347.93160700798035	pulse	0	t		82.0	2.5	blank	1.0	389.6944971084595	
84	348.7482831478119	movie	1		300	82.0	2.5	blank	1.0	390.511173248291	2.500030040740967
84	349.53163719177246	pulse	1	t		82.0	2.5	blank	1.0	391.2945272922516	
84	351.1317172050476	pulse	1	t		82.0	2.5	blank	1.0	392.89460730552673	
84	351.24831318855286	fix_post	2		12	82.0	2.5	blank	1.0	393.011203289032	0.09989380836486816
85	351.3482069969177	fix_pre	0		120	83.0	2.5	/experiments/AOT/AOT_stimuli/rescaled_final/0554_fw.mp4	0.0	393.11109709739685	0.9995880126953125
85	352.34779500961304	movie	1		246	83.0	2.5	/experiments/AOT/AOT_stimuli/rescaled_final/0554_fw.mp4	0.0	394.11068511009216	2.50044322013855
85	352.73119616508484	pulse	1	t		83.0	2.5	/experiments/AOT/AOT_stimuli/rescaled_final/0554_fw.mp4	0.0	394.49408626556396	
85	354.33160400390625	pulse	1	t		83.0	2.5	/experiments/AOT/AOT_stimuli/rescaled_final/0554_fw.mp4	0.0	396.0944941043854	
85	354.8482382297516	fix_post	2		12	83.0	2.5	/experiments/AOT/AOT_stimuli/rescaled_final/0554_fw.mp4	0.0	396.6111283302307	0.09992790222167969
87	354.94816613197327	stim	0		1716					396.7110562324524	14.300036907196045
87	355.93173909187317	pulse	0	t						397.6946291923523	
87	357.5315980911255	pulse	0	t						399.2944881916046	
87	359.13179206848145	pulse	0	t						400.89468216896057	
87	360.73163318634033	pulse	0	t						402.49452328681946	
87	362.331591129303	pulse	0	t						404.0944812297821	
87	363.93166303634644	pulse	0	t						405.69455313682556	
87	365.53157806396484	pulse	0	t						407.29446816444397	
87	367.1316010951996	pulse	0	t						408.8944911956787	
87	368.7315790653229	pulse	0	t						410.494469165802	
