trial_nr	onset	event_type	phase	response	nr_frames	movie_index	movie_duration	movie_file	blank	onset_abs	duration
0	0.20820212364196777	stim	0		6					26.265987157821655	0.04997396469116211
0	0.25020599365234375	response	0	space						26.30799102783203	
1	0.2581760883331299	stim	0		6351					26.315961122512817	52.942662954330444
1	53.19114112854004	pulse	0	t						79.24892616271973	
1	53.200839042663574	stim	1		1715					79.25862407684326	14.30075192451477
1	54.783154010772705	pulse	1	t						80.84093904495239	
1	56.38347601890564	pulse	1	t						82.44126105308533	
1	57.98367094993591	pulse	1	t						84.0414559841156	
1	59.576393127441406	pulse	1	t						85.6341781616211	
1	61.17661809921265	pulse	1	t						87.23440313339233	
1	62.77691411972046	pulse	1	t						88.83469915390015	
1	64.37704801559448	pulse	1	t						90.43483304977417	
1	65.97646808624268	pulse	1	t						92.03425312042236	
2	67.50159096717834	fix_pre	0		10	0.0	2.5	/experiments/knapen_AOT/AOT_stimuli/rescaled_final/0364_rv.mp4	0.0	93.55937600135803	0.08329105377197266
2	67.57673001289368	pulse	0	t		0.0	2.5	/experiments/knapen_AOT/AOT_stimuli/rescaled_final/0364_rv.mp4	0.0	93.63451504707336	
2	67.58488202095032	movie	1		242	0.0	2.5	/experiments/knapen_AOT/AOT_stimuli/rescaled_final/0364_rv.mp4	0.0	93.64266705513	2.508768081665039
2	69.1782579421997	pulse	1	t		0.0	2.5	/experiments/knapen_AOT/AOT_stimuli/rescaled_final/0364_rv.mp4	0.0	95.2360429763794	
2	70.09365010261536	fix_post	2		12	0.0	2.5	/experiments/knapen_AOT/AOT_stimuli/rescaled_final/0364_rv.mp4	0.0	96.15143513679504	0.09995603561401367
3	70.19360613822937	fix_pre	0		120	1.0	2.5	/experiments/knapen_AOT/AOT_stimuli/rescaled_final/0609_fw.mp4	0.0	96.25139117240906	1.000173807144165
3	70.77723503112793	pulse	0	t		1.0	2.5	/experiments/knapen_AOT/AOT_stimuli/rescaled_final/0609_fw.mp4	0.0	96.83502006530762	
3	71.19377994537354	movie	1		243	1.0	2.5	/experiments/knapen_AOT/AOT_stimuli/rescaled_final/0609_fw.mp4	0.0	97.25156497955322	2.5003721714019775
3	72.37756896018982	pulse	1	t		1.0	2.5	/experiments/knapen_AOT/AOT_stimuli/rescaled_final/0609_fw.mp4	0.0	98.4353539943695	
3	73.69415211677551	fix_post	2		12	1.0	2.5	/experiments/knapen_AOT/AOT_stimuli/rescaled_final/0609_fw.mp4	0.0	99.7519371509552	0.10000300407409668
4	73.79415512084961	fix_pre	0		120	2.0	2.5	/experiments/knapen_AOT/AOT_stimuli/rescaled_final/2090_rv.mp4	0.0	99.8519401550293	1.0001440048217773
4	73.97776699066162	pulse	0	t		2.0	2.5	/experiments/knapen_AOT/AOT_stimuli/rescaled_final/2090_rv.mp4	0.0	100.03555202484131	
4	74.79429912567139	movie	1		243	2.0	2.5	/experiments/knapen_AOT/AOT_stimuli/rescaled_final/2090_rv.mp4	0.0	100.85208415985107	2.5006020069122314
4	75.57802104949951	pulse	1	t		2.0	2.5	/experiments/knapen_AOT/AOT_stimuli/rescaled_final/2090_rv.mp4	0.0	101.6358060836792	
4	77.17801904678345	pulse	1	t		2.0	2.5	/experiments/knapen_AOT/AOT_stimuli/rescaled_final/2090_rv.mp4	0.0	103.23580408096313	
4	77.29490113258362	fix_post	2		12	2.0	2.5	/experiments/knapen_AOT/AOT_stimuli/rescaled_final/2090_rv.mp4	0.0	103.3526861667633	0.09981584548950195
5	77.39471697807312	fix_pre	0		120	3.0	2.5	/experiments/knapen_AOT/AOT_stimuli/rescaled_final/1569_rv.mp4	0.0	103.45250201225281	1.0001270771026611
5	78.39484405517578	movie	1		242	3.0	2.5	/experiments/knapen_AOT/AOT_stimuli/rescaled_final/1569_rv.mp4	0.0	104.45262908935547	2.492248058319092
5	78.7791690826416	pulse	1	t		3.0	2.5	/experiments/knapen_AOT/AOT_stimuli/rescaled_final/1569_rv.mp4	0.0	104.83695411682129	
5	80.37884092330933	pulse	1	t		3.0	2.5	/experiments/knapen_AOT/AOT_stimuli/rescaled_final/1569_rv.mp4	0.0	106.43662595748901	
5	80.88709211349487	fix_post	2		12	3.0	2.5	/experiments/knapen_AOT/AOT_stimuli/rescaled_final/1569_rv.mp4	0.0	106.94487714767456	0.0998070240020752
6	80.98689913749695	fix_pre	0		120	4.0	2.5	/experiments/knapen_AOT/AOT_stimuli/rescaled_final/0619_fw.mp4	0.0	107.04468417167664	1.0001487731933594
6	81.97893595695496	pulse	0	t		4.0	2.5	/experiments/knapen_AOT/AOT_stimuli/rescaled_final/0619_fw.mp4	0.0	108.03672099113464	
6	81.98704791069031	movie	1		243	4.0	2.5	/experiments/knapen_AOT/AOT_stimuli/rescaled_final/0619_fw.mp4	0.0	108.04483294487	2.508770227432251
6	83.57977795600891	pulse	1	t		4.0	2.5	/experiments/knapen_AOT/AOT_stimuli/rescaled_final/0619_fw.mp4	0.0	109.6375629901886	
6	84.49581813812256	fix_post	2		12	4.0	2.5	/experiments/knapen_AOT/AOT_stimuli/rescaled_final/0619_fw.mp4	0.0	110.55360317230225	0.09996795654296875
7	84.59578609466553	fix_pre	0		120	5.0	2.5	/experiments/knapen_AOT/AOT_stimuli/rescaled_final/0371_fw.mp4	0.0	110.65357112884521	1.0001189708709717
7	85.17928791046143	pulse	0	t		5.0	2.5	/experiments/knapen_AOT/AOT_stimuli/rescaled_final/0371_fw.mp4	0.0	111.23707294464111	
7	85.5959050655365	movie	1		243	5.0	2.5	/experiments/knapen_AOT/AOT_stimuli/rescaled_final/0371_fw.mp4	0.0	111.65369009971619	2.5003600120544434
7	86.77962398529053	pulse	1	t		5.0	2.5	/experiments/knapen_AOT/AOT_stimuli/rescaled_final/0371_fw.mp4	0.0	112.83740901947021	
7	88.09626507759094	fix_post	2		12	5.0	2.5	/experiments/knapen_AOT/AOT_stimuli/rescaled_final/0371_fw.mp4	0.0	114.15405011177063	0.10005593299865723
8	88.1963210105896	fix_pre	0		120	6.0	2.5	blank	1.0	114.25410604476929	1.000133991241455
8	88.37985897064209	pulse	0	t		6.0	2.5	blank	1.0	114.43764400482178	
8	89.19645500183105	movie	1		300	6.0	2.5	blank	1.0	115.25424003601074	2.500370979309082
8	89.98009896278381	pulse	1	t		6.0	2.5	blank	1.0	116.0378839969635	
8	91.58031010627747	pulse	1	t		6.0	2.5	blank	1.0	117.63809514045715	
8	91.69682598114014	fix_post	2		12	6.0	2.5	blank	1.0	117.75461101531982	0.10002708435058594
9	91.79685306549072	fix_pre	0		120	7.0	2.5	/experiments/knapen_AOT/AOT_stimuli/rescaled_final/0037_rv.mp4	0.0	117.85463809967041	1.000143051147461
9	92.79699611663818	movie	1		243	7.0	2.5	/experiments/knapen_AOT/AOT_stimuli/rescaled_final/0037_rv.mp4	0.0	118.85478115081787	2.4920308589935303
9	93.1810359954834	pulse	1	t		7.0	2.5	/experiments/knapen_AOT/AOT_stimuli/rescaled_final/0037_rv.mp4	0.0	119.23882102966309	
9	94.78077507019043	pulse	1	t		7.0	2.5	/experiments/knapen_AOT/AOT_stimuli/rescaled_final/0037_rv.mp4	0.0	120.83856010437012	
9	95.28902697563171	fix_post	2		12	7.0	2.5	/experiments/knapen_AOT/AOT_stimuli/rescaled_final/0037_rv.mp4	0.0	121.3468120098114	0.10004806518554688
10	95.38907504081726	fix_pre	0		120	8.0	2.5	/experiments/knapen_AOT/AOT_stimuli/rescaled_final/1728_rv.mp4	0.0	121.44686007499695	1.0001060962677002
10	96.38108491897583	pulse	0	t		8.0	2.5	/experiments/knapen_AOT/AOT_stimuli/rescaled_final/1728_rv.mp4	0.0	122.43886995315552	
10	96.38918113708496	movie	1		243	8.0	2.5	/experiments/knapen_AOT/AOT_stimuli/rescaled_final/1728_rv.mp4	0.0	122.44696617126465	2.50876784324646
10	97.9856059551239	pulse	1	t		8.0	2.5	/experiments/knapen_AOT/AOT_stimuli/rescaled_final/1728_rv.mp4	0.0	124.04339098930359	
10	98.89794898033142	fix_post	2		12	8.0	2.5	/experiments/knapen_AOT/AOT_stimuli/rescaled_final/1728_rv.mp4	0.0	124.95573401451111	0.09993696212768555
11	98.9978859424591	fix_pre	0		120	9.0	2.5	/experiments/knapen_AOT/AOT_stimuli/rescaled_final/0578_fw.mp4	0.0	125.0556709766388	1.0001959800720215
11	99.58149790763855	pulse	0	t		9.0	2.5	/experiments/knapen_AOT/AOT_stimuli/rescaled_final/0578_fw.mp4	0.0	125.63928294181824	
11	99.99808192253113	movie	1		242	9.0	2.5	/experiments/knapen_AOT/AOT_stimuli/rescaled_final/0578_fw.mp4	0.0	126.05586695671082	2.5003859996795654
11	101.18192601203918	pulse	1	t		9.0	2.5	/experiments/knapen_AOT/AOT_stimuli/rescaled_final/0578_fw.mp4	0.0	127.23971104621887	
11	102.4984679222107	fix_post	2		12	9.0	2.5	/experiments/knapen_AOT/AOT_stimuli/rescaled_final/0578_fw.mp4	0.0	128.55625295639038	0.09996509552001953
12	102.59843301773071	fix_pre	0		120	10.0	2.5	/experiments/knapen_AOT/AOT_stimuli/rescaled_final/2047_rv.mp4	0.0	128.6562180519104	1.000169038772583
12	102.78205013275146	pulse	0	t		10.0	2.5	/experiments/knapen_AOT/AOT_stimuli/rescaled_final/2047_rv.mp4	0.0	128.83983516693115	
12	103.5986020565033	movie	1		243	10.0	2.5	/experiments/knapen_AOT/AOT_stimuli/rescaled_final/2047_rv.mp4	0.0	129.65638709068298	2.5005578994750977
12	104.38228297233582	pulse	1	t		10.0	2.5	/experiments/knapen_AOT/AOT_stimuli/rescaled_final/2047_rv.mp4	0.0	130.4400680065155	
12	105.98255610466003	pulse	1	t		10.0	2.5	/experiments/knapen_AOT/AOT_stimuli/rescaled_final/2047_rv.mp4	0.0	132.04034113883972	
12	106.0991599559784	fix_post	2		12	10.0	2.5	/experiments/knapen_AOT/AOT_stimuli/rescaled_final/2047_rv.mp4	0.0	132.15694499015808	0.09983515739440918
13	106.1989951133728	fix_pre	0		120	11.0	2.5	/experiments/knapen_AOT/AOT_stimuli/rescaled_final/0227_fw.mp4	0.0	132.2567801475525	1.0001578330993652
13	107.19915294647217	movie	1		241	11.0	2.5	/experiments/knapen_AOT/AOT_stimuli/rescaled_final/0227_fw.mp4	0.0	133.25693798065186	2.4921040534973145
13	107.5834231376648	pulse	1	t		11.0	2.5	/experiments/knapen_AOT/AOT_stimuli/rescaled_final/0227_fw.mp4	0.0	133.64120817184448	
13	109.18289804458618	pulse	1	t		11.0	2.5	/experiments/knapen_AOT/AOT_stimuli/rescaled_final/0227_fw.mp4	0.0	135.24068307876587	
13	109.69125699996948	fix_post	2		12	11.0	2.5	/experiments/knapen_AOT/AOT_stimuli/rescaled_final/0227_fw.mp4	0.0	135.74904203414917	0.09992599487304688
14	109.79118299484253	fix_pre	0		120	12.0	2.5	/experiments/knapen_AOT/AOT_stimuli/rescaled_final/0780_fw.mp4	0.0	135.84896802902222	1.0001859664916992
14	110.7832260131836	pulse	0	t		12.0	2.5	/experiments/knapen_AOT/AOT_stimuli/rescaled_final/0780_fw.mp4	0.0	136.84101104736328	
14	110.79136896133423	movie	1		245	12.0	2.5	/experiments/knapen_AOT/AOT_stimuli/rescaled_final/0780_fw.mp4	0.0	136.84915399551392	2.5086801052093506
14	112.3846549987793	pulse	1	t		12.0	2.5	/experiments/knapen_AOT/AOT_stimuli/rescaled_final/0780_fw.mp4	0.0	138.44244003295898	
14	113.30004906654358	fix_post	2		12	12.0	2.5	/experiments/knapen_AOT/AOT_stimuli/rescaled_final/0780_fw.mp4	0.0	139.35783410072327	0.10000801086425781
15	113.40005707740784	fix_pre	0		120	13.0	2.5	/experiments/knapen_AOT/AOT_stimuli/rescaled_final/1075_rv.mp4	0.0	139.45784211158752	1.0001778602600098
15	113.98371601104736	pulse	0	t		13.0	2.5	/experiments/knapen_AOT/AOT_stimuli/rescaled_final/1075_rv.mp4	0.0	140.04150104522705	
15	114.40023493766785	movie	1		242	13.0	2.5	/experiments/knapen_AOT/AOT_stimuli/rescaled_final/1075_rv.mp4	0.0	140.45801997184753	2.509082078933716
15	115.5839741230011	pulse	1	t		13.0	2.5	/experiments/knapen_AOT/AOT_stimuli/rescaled_final/1075_rv.mp4	0.0	141.6417591571808	
15	116.90931701660156	fix_post	2		10	13.0	2.5	/experiments/knapen_AOT/AOT_stimuli/rescaled_final/1075_rv.mp4	0.0	142.96710205078125	0.09131312370300293
16	117.00063014030457	fix_pre	0		120	14.0	2.5	blank	1.0	143.05841517448425	1.0001049041748047
16	117.18411111831665	pulse	0	t		14.0	2.5	blank	1.0	143.24189615249634	
16	118.00073504447937	movie	1		300	14.0	2.5	blank	1.0	144.05852007865906	2.500375986099243
16	118.78439712524414	pulse	1	t		14.0	2.5	blank	1.0	144.84218215942383	
16	120.38469505310059	pulse	1	t		14.0	2.5	blank	1.0	146.44248008728027	
16	120.50111103057861	fix_post	2		12	14.0	2.5	blank	1.0	146.5588960647583	0.10004901885986328
17	120.60116004943848	fix_pre	0		120	15.0	2.5	/experiments/knapen_AOT/AOT_stimuli/rescaled_final/0594_fw.mp4	0.0	146.65894508361816	1.0001389980316162
17	121.60129904747009	movie	1		241	15.0	2.5	/experiments/knapen_AOT/AOT_stimuli/rescaled_final/0594_fw.mp4	0.0	147.65908408164978	2.4921329021453857
17	121.98609805107117	pulse	1	t		15.0	2.5	/experiments/knapen_AOT/AOT_stimuli/rescaled_final/0594_fw.mp4	0.0	148.04388308525085	
17	123.5776960849762	pulse	1	t		15.0	2.5	/experiments/knapen_AOT/AOT_stimuli/rescaled_final/0594_fw.mp4	0.0	149.63548111915588	
17	124.09343194961548	fix_post	2		12	15.0	2.5	/experiments/knapen_AOT/AOT_stimuli/rescaled_final/0594_fw.mp4	0.0	150.15121698379517	0.09992218017578125
18	124.19335412979126	fix_pre	0		120	16.0	2.5	/experiments/knapen_AOT/AOT_stimuli/rescaled_final/0796_fw.mp4	0.0	150.25113916397095	1.0001718997955322
18	125.17778611183167	pulse	0	t		16.0	2.5	/experiments/knapen_AOT/AOT_stimuli/rescaled_final/0796_fw.mp4	0.0	151.23557114601135	
18	125.19352602958679	movie	1		243	16.0	2.5	/experiments/knapen_AOT/AOT_stimuli/rescaled_final/0796_fw.mp4	0.0	151.25131106376648	2.5087149143218994
18	126.77717399597168	pulse	1	t		16.0	2.5	/experiments/knapen_AOT/AOT_stimuli/rescaled_final/0796_fw.mp4	0.0	152.83495903015137	
18	127.70224094390869	fix_post	2		12	16.0	2.5	/experiments/knapen_AOT/AOT_stimuli/rescaled_final/0796_fw.mp4	0.0	153.76002597808838	0.09997105598449707
19	127.80221199989319	fix_pre	0		120	17.0	2.5	/experiments/knapen_AOT/AOT_stimuli/rescaled_final/1290_rv.mp4	0.0	153.85999703407288	1.0001859664916992
19	128.37740898132324	pulse	0	t		17.0	2.5	/experiments/knapen_AOT/AOT_stimuli/rescaled_final/1290_rv.mp4	0.0	154.43519401550293	
19	128.8023979663849	movie	1		243	17.0	2.5	/experiments/knapen_AOT/AOT_stimuli/rescaled_final/1290_rv.mp4	0.0	154.86018300056458	2.500547170639038
19	129.9782359600067	pulse	1	t		17.0	2.5	/experiments/knapen_AOT/AOT_stimuli/rescaled_final/1290_rv.mp4	0.0	156.0360209941864	
19	131.30294513702393	fix_post	2		12	17.0	2.5	/experiments/knapen_AOT/AOT_stimuli/rescaled_final/1290_rv.mp4	0.0	157.3607301712036	0.09980487823486328
20	131.4027500152588	fix_pre	0		120	18.0	2.5	/experiments/knapen_AOT/AOT_stimuli/rescaled_final/1428_rv.mp4	0.0	157.46053504943848	1.000154972076416
20	131.57798409461975	pulse	0	t		18.0	2.5	/experiments/knapen_AOT/AOT_stimuli/rescaled_final/1428_rv.mp4	0.0	157.63576912879944	
20	132.4029049873352	movie	1		247	18.0	2.5	/experiments/knapen_AOT/AOT_stimuli/rescaled_final/1428_rv.mp4	0.0	158.4606900215149	2.500378131866455
20	133.17815113067627	pulse	1	t		18.0	2.5	/experiments/knapen_AOT/AOT_stimuli/rescaled_final/1428_rv.mp4	0.0	159.23593616485596	
20	134.77836894989014	pulse	1	t		18.0	2.5	/experiments/knapen_AOT/AOT_stimuli/rescaled_final/1428_rv.mp4	0.0	160.83615398406982	
20	134.90328311920166	fix_post	2		12	18.0	2.5	/experiments/knapen_AOT/AOT_stimuli/rescaled_final/1428_rv.mp4	0.0	160.96106815338135	0.10002779960632324
21	135.00331091880798	fix_pre	0		119	19.0	2.5	/experiments/knapen_AOT/AOT_stimuli/rescaled_final/1058_fw.mp4	0.0	161.06109595298767	0.9917871952056885
21	135.99509811401367	movie	1		243	19.0	2.5	/experiments/knapen_AOT/AOT_stimuli/rescaled_final/1058_fw.mp4	0.0	162.05288314819336	2.500609874725342
21	136.37970399856567	pulse	1	t		19.0	2.5	/experiments/knapen_AOT/AOT_stimuli/rescaled_final/1058_fw.mp4	0.0	162.43748903274536	
21	137.97892808914185	pulse	1	t		19.0	2.5	/experiments/knapen_AOT/AOT_stimuli/rescaled_final/1058_fw.mp4	0.0	164.03671312332153	
21	138.495707988739	fix_post	2		12	19.0	2.5	/experiments/knapen_AOT/AOT_stimuli/rescaled_final/1058_fw.mp4	0.0	164.5534930229187	0.09985613822937012
22	138.59556412696838	fix_pre	0		119	20.0	2.5	blank	1.0	164.65334916114807	0.9918019771575928
22	139.5791449546814	pulse	0	t		20.0	2.5	blank	1.0	165.63692998886108	
22	139.58736610412598	movie	1		301	20.0	2.5	blank	1.0	165.64515113830566	2.50870680809021
22	141.1793339252472	pulse	1	t		20.0	2.5	blank	1.0	167.23711895942688	
22	142.0960729122162	fix_post	2		12	20.0	2.5	blank	1.0	168.15385794639587	0.09995818138122559
23	142.1960310935974	fix_pre	0		120	21.0	2.5	/experiments/knapen_AOT/AOT_stimuli/rescaled_final/0627_rv.mp4	0.0	168.2538161277771	1.0001869201660156
23	142.77968311309814	pulse	0	t		21.0	2.5	/experiments/knapen_AOT/AOT_stimuli/rescaled_final/0627_rv.mp4	0.0	168.83746814727783	
23	143.19621801376343	movie	1		243	21.0	2.5	/experiments/knapen_AOT/AOT_stimuli/rescaled_final/0627_rv.mp4	0.0	169.25400304794312	2.5003299713134766
23	144.38003301620483	pulse	1	t		21.0	2.5	/experiments/knapen_AOT/AOT_stimuli/rescaled_final/0627_rv.mp4	0.0	170.43781805038452	
23	145.6965479850769	fix_post	2		12	21.0	2.5	/experiments/knapen_AOT/AOT_stimuli/rescaled_final/0627_rv.mp4	0.0	171.7543330192566	0.10005307197570801
24	145.7966010570526	fix_pre	0		120	22.0	2.5	/experiments/knapen_AOT/AOT_stimuli/rescaled_final/2048_fw.mp4	0.0	171.8543860912323	1.0001158714294434
24	145.98013401031494	pulse	0	t		22.0	2.5	/experiments/knapen_AOT/AOT_stimuli/rescaled_final/2048_fw.mp4	0.0	172.03791904449463	
24	146.79671692848206	movie	1		242	22.0	2.5	/experiments/knapen_AOT/AOT_stimuli/rescaled_final/2048_fw.mp4	0.0	172.85450196266174	2.5004770755767822
24	147.58029007911682	pulse	1	t		22.0	2.5	/experiments/knapen_AOT/AOT_stimuli/rescaled_final/2048_fw.mp4	0.0	173.6380751132965	
24	149.1803319454193	pulse	1	t		22.0	2.5	/experiments/knapen_AOT/AOT_stimuli/rescaled_final/2048_fw.mp4	0.0	175.238116979599	
24	149.29719400405884	fix_post	2		12	22.0	2.5	/experiments/knapen_AOT/AOT_stimuli/rescaled_final/2048_fw.mp4	0.0	175.35497903823853	0.10002803802490234
25	149.39722204208374	fix_pre	0		119	23.0	2.5	/experiments/knapen_AOT/AOT_stimuli/rescaled_final/1075_rv.mp4	0.0	175.45500707626343	0.9917449951171875
25	150.38896703720093	movie	1		242	23.0	2.5	/experiments/knapen_AOT/AOT_stimuli/rescaled_final/1075_rv.mp4	0.0	176.44675207138062	2.5003840923309326
25	150.7809660434723	pulse	1	t		23.0	2.5	/experiments/knapen_AOT/AOT_stimuli/rescaled_final/1075_rv.mp4	0.0	176.83875107765198	
25	152.38112092018127	pulse	1	t		23.0	2.5	/experiments/knapen_AOT/AOT_stimuli/rescaled_final/1075_rv.mp4	0.0	178.43890595436096	
25	152.88935112953186	fix_post	2		12	23.0	2.5	/experiments/knapen_AOT/AOT_stimuli/rescaled_final/1075_rv.mp4	0.0	178.94713616371155	0.09997296333312988
26	152.989324092865	fix_pre	0		120	24.0	2.5	/experiments/knapen_AOT/AOT_stimuli/rescaled_final/2102_rv.mp4	0.0	179.04710912704468	1.0001299381256104
26	153.98129796981812	pulse	0	t		24.0	2.5	/experiments/knapen_AOT/AOT_stimuli/rescaled_final/2102_rv.mp4	0.0	180.0390830039978	
26	153.9894540309906	movie	1		244	24.0	2.5	/experiments/knapen_AOT/AOT_stimuli/rescaled_final/2102_rv.mp4	0.0	180.0472390651703	2.5087029933929443
26	155.5827989578247	pulse	1	t		24.0	2.5	/experiments/knapen_AOT/AOT_stimuli/rescaled_final/2102_rv.mp4	0.0	181.6405839920044	
26	156.49815702438354	fix_post	2		12	24.0	2.5	/experiments/knapen_AOT/AOT_stimuli/rescaled_final/2102_rv.mp4	0.0	182.55594205856323	0.10002589225769043
27	156.59818291664124	fix_pre	0		120	25.0	2.5	/experiments/knapen_AOT/AOT_stimuli/rescaled_final/2095_rv.mp4	0.0	182.65596795082092	1.0001640319824219
27	157.18184113502502	pulse	0	t		25.0	2.5	/experiments/knapen_AOT/AOT_stimuli/rescaled_final/2095_rv.mp4	0.0	183.2396261692047	
27	157.59834694862366	movie	1		243	25.0	2.5	/experiments/knapen_AOT/AOT_stimuli/rescaled_final/2095_rv.mp4	0.0	183.65613198280334	2.5005509853363037
27	158.7821741104126	pulse	1	t		25.0	2.5	/experiments/knapen_AOT/AOT_stimuli/rescaled_final/2095_rv.mp4	0.0	184.83995914459229	
27	160.09889793395996	fix_post	2		12	25.0	2.5	/experiments/knapen_AOT/AOT_stimuli/rescaled_final/2095_rv.mp4	0.0	186.15668296813965	0.09983611106872559
28	160.1987340450287	fix_pre	0		120	26.0	2.5	blank	1.0	186.25651907920837	1.0001540184020996
28	160.38229894638062	pulse	0	t		26.0	2.5	blank	1.0	186.4400839805603	
28	161.1988880634308	movie	1		300	26.0	2.5	blank	1.0	187.25667309761047	2.5003468990325928
28	161.98255896568298	pulse	1	t		26.0	2.5	blank	1.0	188.04034399986267	
28	163.58270692825317	pulse	1	t		26.0	2.5	blank	1.0	189.64049196243286	
28	163.69923496246338	fix_post	2		12	26.0	2.5	blank	1.0	189.75701999664307	0.10001206398010254
29	163.79924702644348	fix_pre	0		119	27.0	2.5	/experiments/knapen_AOT/AOT_stimuli/rescaled_final/0894_fw.mp4	0.0	189.85703206062317	0.9918251037597656
29	164.79107213020325	movie	1		242	27.0	2.5	/experiments/knapen_AOT/AOT_stimuli/rescaled_final/0894_fw.mp4	0.0	190.84885716438293	2.5006020069122314
29	165.18309497833252	pulse	1	t		27.0	2.5	/experiments/knapen_AOT/AOT_stimuli/rescaled_final/0894_fw.mp4	0.0	191.2408800125122	
29	166.78328013420105	pulse	1	t		27.0	2.5	/experiments/knapen_AOT/AOT_stimuli/rescaled_final/0894_fw.mp4	0.0	192.84106516838074	
29	167.29167413711548	fix_post	2		12	27.0	2.5	/experiments/knapen_AOT/AOT_stimuli/rescaled_final/0894_fw.mp4	0.0	193.34945917129517	0.09985589981079102
30	167.39153003692627	fix_pre	0		120	28.0	2.5	/experiments/knapen_AOT/AOT_stimuli/rescaled_final/1974_fw.mp4	0.0	193.44931507110596	1.0001518726348877
30	168.38344502449036	pulse	0	t		28.0	2.5	/experiments/knapen_AOT/AOT_stimuli/rescaled_final/1974_fw.mp4	0.0	194.44123005867004	
30	168.39168190956116	movie	1		243	28.0	2.5	/experiments/knapen_AOT/AOT_stimuli/rescaled_final/1974_fw.mp4	0.0	194.44946694374084	2.5087101459503174
30	169.98442697525024	pulse	1	t		28.0	2.5	/experiments/knapen_AOT/AOT_stimuli/rescaled_final/1974_fw.mp4	0.0	196.04221200942993	
30	170.90039205551147	fix_post	2		12	28.0	2.5	/experiments/knapen_AOT/AOT_stimuli/rescaled_final/1974_fw.mp4	0.0	196.95817708969116	0.09995889663696289
31	171.00035095214844	fix_pre	0		120	29.0	2.5	/experiments/knapen_AOT/AOT_stimuli/rescaled_final/1921_fw.mp4	0.0	197.05813598632812	1.0001599788665771
31	171.5839819908142	pulse	0	t		29.0	2.5	/experiments/knapen_AOT/AOT_stimuli/rescaled_final/1921_fw.mp4	0.0	197.6417670249939	
31	172.00051093101501	movie	1		242	29.0	2.5	/experiments/knapen_AOT/AOT_stimuli/rescaled_final/1921_fw.mp4	0.0	198.0582959651947	2.5005412101745605
31	173.17713809013367	pulse	1	t		29.0	2.5	/experiments/knapen_AOT/AOT_stimuli/rescaled_final/1921_fw.mp4	0.0	199.23492312431335	
31	174.50105214118958	fix_post	2		12	29.0	2.5	/experiments/knapen_AOT/AOT_stimuli/rescaled_final/1921_fw.mp4	0.0	200.55883717536926	0.09984588623046875
32	174.60089802742004	fix_pre	0		120	30.0	2.5	/experiments/knapen_AOT/AOT_stimuli/rescaled_final/1000_rv.mp4	0.0	200.65868306159973	1.0001280307769775
32	174.77690505981445	pulse	0	t		30.0	2.5	/experiments/knapen_AOT/AOT_stimuli/rescaled_final/1000_rv.mp4	0.0	200.83469009399414	
32	175.60102605819702	movie	1		242	30.0	2.5	/experiments/knapen_AOT/AOT_stimuli/rescaled_final/1000_rv.mp4	0.0	201.6588110923767	2.49222993850708
32	176.3771710395813	pulse	1	t		30.0	2.5	/experiments/knapen_AOT/AOT_stimuli/rescaled_final/1000_rv.mp4	0.0	202.434956073761	
32	177.98550605773926	pulse	1	t		30.0	2.5	/experiments/knapen_AOT/AOT_stimuli/rescaled_final/1000_rv.mp4	0.0	204.04329109191895	
32	178.0932559967041	fix_post	2		13	30.0	2.5	/experiments/knapen_AOT/AOT_stimuli/rescaled_final/1000_rv.mp4	0.0	204.1510410308838	0.10814809799194336
33	178.20140409469604	fix_pre	0		119	31.0	2.5	/experiments/knapen_AOT/AOT_stimuli/rescaled_final/2054_fw.mp4	0.0	204.25918912887573	0.9918358325958252
33	179.19323992729187	movie	1		241	31.0	2.5	/experiments/knapen_AOT/AOT_stimuli/rescaled_final/2054_fw.mp4	0.0	205.25102496147156	2.5005650520324707
33	179.57805013656616	pulse	1	t		31.0	2.5	/experiments/knapen_AOT/AOT_stimuli/rescaled_final/2054_fw.mp4	0.0	205.63583517074585	
33	181.17704796791077	pulse	1	t		31.0	2.5	/experiments/knapen_AOT/AOT_stimuli/rescaled_final/2054_fw.mp4	0.0	207.23483300209045	
33	181.69380497932434	fix_post	2		12	31.0	2.5	/experiments/knapen_AOT/AOT_stimuli/rescaled_final/2054_fw.mp4	0.0	207.75159001350403	0.09984111785888672
34	181.79364609718323	fix_pre	0		119	32.0	2.5	/experiments/knapen_AOT/AOT_stimuli/rescaled_final/1406_rv.mp4	0.0	207.85143113136292	0.9917910099029541
34	182.77717995643616	pulse	0	t		32.0	2.5	/experiments/knapen_AOT/AOT_stimuli/rescaled_final/1406_rv.mp4	0.0	208.83496499061584	
34	182.78543710708618	movie	1		243	32.0	2.5	/experiments/knapen_AOT/AOT_stimuli/rescaled_final/1406_rv.mp4	0.0	208.84322214126587	2.5087368488311768
34	184.37809205055237	pulse	1	t		32.0	2.5	/experiments/knapen_AOT/AOT_stimuli/rescaled_final/1406_rv.mp4	0.0	210.43587708473206	
34	185.29417395591736	fix_post	2		12	32.0	2.5	/experiments/knapen_AOT/AOT_stimuli/rescaled_final/1406_rv.mp4	0.0	211.35195899009705	0.10000801086425781
35	185.39418196678162	fix_pre	0		120	33.0	2.5	/experiments/knapen_AOT/AOT_stimuli/rescaled_final/1694_rv.mp4	0.0	211.4519670009613	1.0001561641693115
35	185.97776293754578	pulse	0	t		33.0	2.5	/experiments/knapen_AOT/AOT_stimuli/rescaled_final/1694_rv.mp4	0.0	212.03554797172546	
35	186.39433813095093	movie	1		242	33.0	2.5	/experiments/knapen_AOT/AOT_stimuli/rescaled_final/1694_rv.mp4	0.0	212.45212316513062	2.5005438327789307
35	187.578115940094	pulse	1	t		33.0	2.5	/experiments/knapen_AOT/AOT_stimuli/rescaled_final/1694_rv.mp4	0.0	213.63590097427368	
35	188.89488196372986	fix_post	2		12	33.0	2.5	/experiments/knapen_AOT/AOT_stimuli/rescaled_final/1694_rv.mp4	0.0	214.95266699790955	0.09986400604248047
36	188.99474596977234	fix_pre	0		120	34.0	2.5	/experiments/knapen_AOT/AOT_stimuli/rescaled_final/1481_fw.mp4	0.0	215.05253100395203	1.0001220703125
36	189.17821192741394	pulse	0	t		34.0	2.5	/experiments/knapen_AOT/AOT_stimuli/rescaled_final/1481_fw.mp4	0.0	215.23599696159363	
36	189.99486804008484	movie	1		242	34.0	2.5	/experiments/knapen_AOT/AOT_stimuli/rescaled_final/1481_fw.mp4	0.0	216.05265307426453	2.5004889965057373
36	190.7785451412201	pulse	1	t		34.0	2.5	/experiments/knapen_AOT/AOT_stimuli/rescaled_final/1481_fw.mp4	0.0	216.83633017539978	
36	192.3798520565033	pulse	1	t		34.0	2.5	/experiments/knapen_AOT/AOT_stimuli/rescaled_final/1481_fw.mp4	0.0	218.43763709068298	
36	192.49535703659058	fix_post	2		11	34.0	2.5	/experiments/knapen_AOT/AOT_stimuli/rescaled_final/1481_fw.mp4	0.0	218.55314207077026	0.0915679931640625
37	192.58692502975464	fix_pre	0		120	35.0	2.5	blank	1.0	218.64471006393433	1.0001499652862549
37	193.5870749950409	movie	1		300	35.0	2.5	blank	1.0	219.64486002922058	2.500359058380127
37	193.97893905639648	pulse	1	t		35.0	2.5	blank	1.0	220.03672409057617	
37	195.579204082489	pulse	1	t		35.0	2.5	blank	1.0	221.6369891166687	
37	196.08743405342102	fix_post	2		12	35.0	2.5	blank	1.0	222.1452190876007	0.10002899169921875
38	196.18746304512024	fix_pre	0		120	36.0	2.5	/experiments/knapen_AOT/AOT_stimuli/rescaled_final/1902_rv.mp4	0.0	222.24524807929993	1.0001568794250488
38	197.1794729232788	pulse	0	t		36.0	2.5	/experiments/knapen_AOT/AOT_stimuli/rescaled_final/1902_rv.mp4	0.0	223.2372579574585	
38	197.1876199245453	movie	1		244	36.0	2.5	/experiments/knapen_AOT/AOT_stimuli/rescaled_final/1902_rv.mp4	0.0	223.24540495872498	2.5088582038879395
38	198.78068113327026	pulse	1	t		36.0	2.5	/experiments/knapen_AOT/AOT_stimuli/rescaled_final/1902_rv.mp4	0.0	224.83846616744995	
38	199.69647812843323	fix_post	2		12	36.0	2.5	/experiments/knapen_AOT/AOT_stimuli/rescaled_final/1902_rv.mp4	0.0	225.75426316261292	0.09985589981079102
39	199.79633402824402	fix_pre	0		120	37.0	2.5	/experiments/knapen_AOT/AOT_stimuli/rescaled_final/0316_fw.mp4	0.0	225.8541190624237	1.0001718997955322
39	200.37988591194153	pulse	0	t		37.0	2.5	/experiments/knapen_AOT/AOT_stimuli/rescaled_final/0316_fw.mp4	0.0	226.43767094612122	
39	200.79650592803955	movie	1		244	37.0	2.5	/experiments/knapen_AOT/AOT_stimuli/rescaled_final/0316_fw.mp4	0.0	226.85429096221924	2.5003600120544434
39	201.98025703430176	pulse	1	t		37.0	2.5	/experiments/knapen_AOT/AOT_stimuli/rescaled_final/0316_fw.mp4	0.0	228.03804206848145	
39	203.296865940094	fix_post	2		12	37.0	2.5	/experiments/knapen_AOT/AOT_stimuli/rescaled_final/0316_fw.mp4	0.0	229.35465097427368	0.10003399848937988
40	203.39689993858337	fix_pre	0		120	38.0	2.5	/experiments/knapen_AOT/AOT_stimuli/rescaled_final/2095_rv.mp4	0.0	229.45468497276306	1.000171184539795
40	203.58031010627747	pulse	0	t		38.0	2.5	/experiments/knapen_AOT/AOT_stimuli/rescaled_final/2095_rv.mp4	0.0	229.63809514045715	
40	204.39707112312317	movie	1		243	38.0	2.5	/experiments/knapen_AOT/AOT_stimuli/rescaled_final/2095_rv.mp4	0.0	230.45485615730286	2.500325918197632
40	205.18070912361145	pulse	1	t		38.0	2.5	/experiments/knapen_AOT/AOT_stimuli/rescaled_final/2095_rv.mp4	0.0	231.23849415779114	
40	206.78073000907898	pulse	1	t		38.0	2.5	/experiments/knapen_AOT/AOT_stimuli/rescaled_final/2095_rv.mp4	0.0	232.83851504325867	
40	206.8973970413208	fix_post	2		12	38.0	2.5	/experiments/knapen_AOT/AOT_stimuli/rescaled_final/2095_rv.mp4	0.0	232.9551820755005	0.10001301765441895
41	206.99741005897522	fix_pre	0		120	39.0	2.5	/experiments/knapen_AOT/AOT_stimuli/rescaled_final/0920_fw.mp4	0.0	233.0551950931549	1.0001220703125
41	207.99753212928772	movie	1		241	39.0	2.5	/experiments/knapen_AOT/AOT_stimuli/rescaled_final/0920_fw.mp4	0.0	234.0553171634674	2.4922068119049072
41	208.38172602653503	pulse	1	t		39.0	2.5	/experiments/knapen_AOT/AOT_stimuli/rescaled_final/0920_fw.mp4	0.0	234.43951106071472	
41	209.9813220500946	pulse	1	t		39.0	2.5	/experiments/knapen_AOT/AOT_stimuli/rescaled_final/0920_fw.mp4	0.0	236.0391070842743	
41	210.48973894119263	fix_post	2		12	39.0	2.5	/experiments/knapen_AOT/AOT_stimuli/rescaled_final/0920_fw.mp4	0.0	236.54752397537231	0.09988117218017578
42	210.5896201133728	fix_pre	0		120	40.0	2.5	/experiments/knapen_AOT/AOT_stimuli/rescaled_final/0703_fw.mp4	0.0	236.6474051475525	1.0001518726348877
42	211.5816650390625	pulse	0	t		40.0	2.5	/experiments/knapen_AOT/AOT_stimuli/rescaled_final/0703_fw.mp4	0.0	237.6394500732422	
42	211.5897719860077	movie	1		244	40.0	2.5	/experiments/knapen_AOT/AOT_stimuli/rescaled_final/0703_fw.mp4	0.0	237.64755702018738	2.508742094039917
42	213.18249607086182	pulse	1	t		40.0	2.5	/experiments/knapen_AOT/AOT_stimuli/rescaled_final/0703_fw.mp4	0.0	239.2402811050415	
42	214.0985140800476	fix_post	2		12	40.0	2.5	/experiments/knapen_AOT/AOT_stimuli/rescaled_final/0703_fw.mp4	0.0	240.1562991142273	0.09994888305664062
43	214.19846296310425	fix_pre	0		120	41.0	2.5	/experiments/knapen_AOT/AOT_stimuli/rescaled_final/1921_fw.mp4	0.0	240.25624799728394	1.000162124633789
43	214.7820861339569	pulse	0	t		41.0	2.5	/experiments/knapen_AOT/AOT_stimuli/rescaled_final/1921_fw.mp4	0.0	240.8398711681366	
43	215.19862508773804	movie	1		242	41.0	2.5	/experiments/knapen_AOT/AOT_stimuli/rescaled_final/1921_fw.mp4	0.0	241.25641012191772	2.5003678798675537
43	216.3824360370636	pulse	1	t		41.0	2.5	/experiments/knapen_AOT/AOT_stimuli/rescaled_final/1921_fw.mp4	0.0	242.4402210712433	
43	217.6989929676056	fix_post	2		12	41.0	2.5	/experiments/knapen_AOT/AOT_stimuli/rescaled_final/1921_fw.mp4	0.0	243.75677800178528	0.10002708435058594
44	217.79902005195618	fix_pre	0		120	42.0	2.5	blank	1.0	243.85680508613586	1.0001349449157715
44	217.98259711265564	pulse	0	t		42.0	2.5	blank	1.0	244.04038214683533	
44	218.79915499687195	movie	1		300	42.0	2.5	blank	1.0	244.85694003105164	2.5004160404205322
44	219.58284497261047	pulse	1	t		42.0	2.5	blank	1.0	245.64063000679016	
44	221.18304014205933	pulse	1	t		42.0	2.5	blank	1.0	247.240825176239	
44	221.29957103729248	fix_post	2		12	42.0	2.5	blank	1.0	247.35735607147217	0.0999748706817627
45	221.39954590797424	fix_pre	0		120	43.0	2.5	/experiments/knapen_AOT/AOT_stimuli/rescaled_final/0534_rv.mp4	0.0	247.45733094215393	1.0001511573791504
45	222.3996970653534	movie	1		244	43.0	2.5	/experiments/knapen_AOT/AOT_stimuli/rescaled_final/0534_rv.mp4	0.0	248.45748209953308	2.492043972015381
45	222.78438997268677	pulse	1	t		43.0	2.5	/experiments/knapen_AOT/AOT_stimuli/rescaled_final/0534_rv.mp4	0.0	248.84217500686646	
45	224.38357710838318	pulse	1	t		43.0	2.5	/experiments/knapen_AOT/AOT_stimuli/rescaled_final/0534_rv.mp4	0.0	250.44136214256287	
45	224.89174103736877	fix_post	2		12	43.0	2.5	/experiments/knapen_AOT/AOT_stimuli/rescaled_final/0534_rv.mp4	0.0	250.94952607154846	0.10001993179321289
46	224.991760969162	fix_pre	0		120	44.0	2.5	/experiments/knapen_AOT/AOT_stimuli/rescaled_final/1012_fw.mp4	0.0	251.04954600334167	1.0001640319824219
46	225.98382592201233	pulse	0	t		44.0	2.5	/experiments/knapen_AOT/AOT_stimuli/rescaled_final/1012_fw.mp4	0.0	252.04161095619202	
46	225.9919250011444	movie	1		243	44.0	2.5	/experiments/knapen_AOT/AOT_stimuli/rescaled_final/1012_fw.mp4	0.0	252.0497100353241	2.508749008178711
46	227.58887195587158	pulse	1	t		44.0	2.5	/experiments/knapen_AOT/AOT_stimuli/rescaled_final/1012_fw.mp4	0.0	253.64665699005127	
46	228.50067400932312	fix_post	2		12	44.0	2.5	/experiments/knapen_AOT/AOT_stimuli/rescaled_final/1012_fw.mp4	0.0	254.5584590435028	0.09996700286865234
47	228.60064101219177	fix_pre	0		120	45.0	2.5	/experiments/knapen_AOT/AOT_stimuli/rescaled_final/0463_fw.mp4	0.0	254.65842604637146	1.0002260208129883
47	229.17673206329346	pulse	0	t		45.0	2.5	/experiments/knapen_AOT/AOT_stimuli/rescaled_final/0463_fw.mp4	0.0	255.23451709747314	
47	229.60086703300476	movie	1		242	45.0	2.5	/experiments/knapen_AOT/AOT_stimuli/rescaled_final/0463_fw.mp4	0.0	255.65865206718445	2.5003819465637207
47	230.77726197242737	pulse	1	t		45.0	2.5	/experiments/knapen_AOT/AOT_stimuli/rescaled_final/0463_fw.mp4	0.0	256.83504700660706	
47	232.10124897956848	fix_post	2		12	45.0	2.5	/experiments/knapen_AOT/AOT_stimuli/rescaled_final/0463_fw.mp4	0.0	258.15903401374817	0.09990310668945312
48	232.20115208625793	fix_pre	0		120	46.0	2.5	/experiments/knapen_AOT/AOT_stimuli/rescaled_final/1128_rv.mp4	0.0	258.2589371204376	1.0001718997955322
48	232.37736797332764	pulse	0	t		46.0	2.5	/experiments/knapen_AOT/AOT_stimuli/rescaled_final/1128_rv.mp4	0.0	258.4351530075073	
48	233.20132398605347	movie	1		243	46.0	2.5	/experiments/knapen_AOT/AOT_stimuli/rescaled_final/1128_rv.mp4	0.0	259.25910902023315	2.5005531311035156
48	233.97677993774414	pulse	1	t		46.0	2.5	/experiments/knapen_AOT/AOT_stimuli/rescaled_final/1128_rv.mp4	0.0	260.0345649719238	
48	235.57681012153625	pulse	1	t		46.0	2.5	/experiments/knapen_AOT/AOT_stimuli/rescaled_final/1128_rv.mp4	0.0	261.63459515571594	
48	235.70187711715698	fix_post	2		12	46.0	2.5	/experiments/knapen_AOT/AOT_stimuli/rescaled_final/1128_rv.mp4	0.0	261.75966215133667	0.09982800483703613
49	235.80170512199402	fix_pre	0		120	47.0	2.5	/experiments/knapen_AOT/AOT_stimuli/rescaled_final/0627_fw.mp4	0.0	261.8594901561737	1.0001518726348877
49	236.8018569946289	movie	1		242	47.0	2.5	/experiments/knapen_AOT/AOT_stimuli/rescaled_final/0627_fw.mp4	0.0	262.8596420288086	2.492037057876587
49	237.1770269870758	pulse	1	t		47.0	2.5	/experiments/knapen_AOT/AOT_stimuli/rescaled_final/0627_fw.mp4	0.0	263.2348120212555	
49	238.77735495567322	pulse	1	t		47.0	2.5	/experiments/knapen_AOT/AOT_stimuli/rescaled_final/0627_fw.mp4	0.0	264.8351399898529	
49	239.2938940525055	fix_post	2		12	47.0	2.5	/experiments/knapen_AOT/AOT_stimuli/rescaled_final/0627_fw.mp4	0.0	265.3516790866852	0.10005998611450195
50	239.39395403862	fix_pre	0		119	48.0	2.5	blank	1.0	265.4517390727997	0.9917690753936768
50	240.37760710716248	pulse	0	t		48.0	2.5	blank	1.0	266.43539214134216	
50	240.38572311401367	movie	1		301	48.0	2.5	blank	1.0	266.44350814819336	2.508720874786377
50	241.97780513763428	pulse	1	t		48.0	2.5	blank	1.0	268.03559017181396	
50	242.89444398880005	fix_post	2		9	48.0	2.5	blank	1.0	268.95222902297974	0.10004901885986328
51	242.9944930076599	fix_pre	0		120	49.0	2.5	/experiments/knapen_AOT/AOT_stimuli/rescaled_final/0615_rv.mp4	0.0	269.0522780418396	1.0000979900360107
51	243.57799005508423	pulse	0	t		49.0	2.5	/experiments/knapen_AOT/AOT_stimuli/rescaled_final/0615_rv.mp4	0.0	269.6357750892639	
51	243.99459099769592	movie	1		242	49.0	2.5	/experiments/knapen_AOT/AOT_stimuli/rescaled_final/0615_rv.mp4	0.0	270.0523760318756	2.50062894821167
51	245.1783890724182	pulse	1	t		49.0	2.5	/experiments/knapen_AOT/AOT_stimuli/rescaled_final/0615_rv.mp4	0.0	271.2361741065979	
51	246.4952199459076	fix_post	2		12	49.0	2.5	/experiments/knapen_AOT/AOT_stimuli/rescaled_final/0615_rv.mp4	0.0	272.5530049800873	0.09977102279663086
52	246.59499096870422	fix_pre	0		120	50.0	2.5	/experiments/knapen_AOT/AOT_stimuli/rescaled_final/1653_rv.mp4	0.0	272.6527760028839	1.0001561641693115
52	246.7785849571228	pulse	0	t		50.0	2.5	/experiments/knapen_AOT/AOT_stimuli/rescaled_final/1653_rv.mp4	0.0	272.8363699913025	
52	247.59514713287354	movie	1		242	50.0	2.5	/experiments/knapen_AOT/AOT_stimuli/rescaled_final/1653_rv.mp4	0.0	273.6529321670532	2.500555992126465
52	248.3788161277771	pulse	1	t		50.0	2.5	/experiments/knapen_AOT/AOT_stimuli/rescaled_final/1653_rv.mp4	0.0	274.4366011619568	
52	249.9788200855255	pulse	1	t		50.0	2.5	/experiments/knapen_AOT/AOT_stimuli/rescaled_final/1653_rv.mp4	0.0	276.0366051197052	
52	250.095703125	fix_post	2		12	50.0	2.5	/experiments/knapen_AOT/AOT_stimuli/rescaled_final/1653_rv.mp4	0.0	276.1534881591797	0.09982490539550781
53	250.1955280303955	fix_pre	0		120	51.0	2.5	/experiments/knapen_AOT/AOT_stimuli/rescaled_final/1318_fw.mp4	0.0	276.2533130645752	1.0001308917999268
53	251.19565892219543	movie	1		241	51.0	2.5	/experiments/knapen_AOT/AOT_stimuli/rescaled_final/1318_fw.mp4	0.0	277.2534439563751	2.4921491146087646
53	251.5797700881958	pulse	1	t		51.0	2.5	/experiments/knapen_AOT/AOT_stimuli/rescaled_final/1318_fw.mp4	0.0	277.6375551223755	
53	253.17942690849304	pulse	1	t		51.0	2.5	/experiments/knapen_AOT/AOT_stimuli/rescaled_final/1318_fw.mp4	0.0	279.23721194267273	
53	253.6878080368042	fix_post	2		12	51.0	2.5	/experiments/knapen_AOT/AOT_stimuli/rescaled_final/1318_fw.mp4	0.0	279.7455930709839	0.09995198249816895
54	253.78776001930237	fix_pre	0		120	52.0	2.5	/experiments/knapen_AOT/AOT_stimuli/rescaled_final/2054_fw.mp4	0.0	279.84554505348206	1.0001599788665771
54	254.779767036438	pulse	0	t		52.0	2.5	/experiments/knapen_AOT/AOT_stimuli/rescaled_final/2054_fw.mp4	0.0	280.8375520706177	
54	254.78791999816895	movie	1		244	52.0	2.5	/experiments/knapen_AOT/AOT_stimuli/rescaled_final/2054_fw.mp4	0.0	280.84570503234863	2.5086629390716553
54	256.38109397888184	pulse	1	t		52.0	2.5	/experiments/knapen_AOT/AOT_stimuli/rescaled_final/2054_fw.mp4	0.0	282.4388790130615	
54	257.2965829372406	fix_post	2		12	52.0	2.5	/experiments/knapen_AOT/AOT_stimuli/rescaled_final/2054_fw.mp4	0.0	283.3543679714203	0.10004401206970215
55	257.3966269493103	fix_pre	0		120	53.0	2.5	/experiments/knapen_AOT/AOT_stimuli/rescaled_final/0140_rv.mp4	0.0	283.45441198349	1.000136137008667
55	257.9801959991455	pulse	0	t		53.0	2.5	/experiments/knapen_AOT/AOT_stimuli/rescaled_final/0140_rv.mp4	0.0	284.0379810333252	
55	258.39676308631897	movie	1		242	53.0	2.5	/experiments/knapen_AOT/AOT_stimuli/rescaled_final/0140_rv.mp4	0.0	284.45454812049866	2.500530958175659
55	259.5805320739746	pulse	1	t		53.0	2.5	/experiments/knapen_AOT/AOT_stimuli/rescaled_final/0140_rv.mp4	0.0	285.6383171081543	
55	260.89729404449463	fix_post	2		12	53.0	2.5	/experiments/knapen_AOT/AOT_stimuli/rescaled_final/0140_rv.mp4	0.0	286.9550790786743	0.09983587265014648
56	260.9971299171448	fix_pre	0		120	54.0	2.5	/experiments/knapen_AOT/AOT_stimuli/rescaled_final/2048_rv.mp4	0.0	287.05491495132446	1.0001602172851562
56	261.180624961853	pulse	0	t		54.0	2.5	/experiments/knapen_AOT/AOT_stimuli/rescaled_final/2048_rv.mp4	0.0	287.2384099960327	
56	261.99729013442993	movie	1		242	54.0	2.5	/experiments/knapen_AOT/AOT_stimuli/rescaled_final/2048_rv.mp4	0.0	288.0550751686096	2.5005528926849365
56	262.78094601631165	pulse	1	t		54.0	2.5	/experiments/knapen_AOT/AOT_stimuli/rescaled_final/2048_rv.mp4	0.0	288.83873105049133	
56	264.3810269832611	pulse	1	t		54.0	2.5	/experiments/knapen_AOT/AOT_stimuli/rescaled_final/2048_rv.mp4	0.0	290.4388120174408	
56	264.49784302711487	fix_post	2		12	54.0	2.5	/experiments/knapen_AOT/AOT_stimuli/rescaled_final/2048_rv.mp4	0.0	290.55562806129456	0.09985089302062988
57	264.5976939201355	fix_pre	0		120	55.0	2.5	/experiments/knapen_AOT/AOT_stimuli/rescaled_final/1915_rv.mp4	0.0	290.6554789543152	1.0001451969146729
57	265.59783911705017	movie	1		241	55.0	2.5	/experiments/knapen_AOT/AOT_stimuli/rescaled_final/1915_rv.mp4	0.0	291.65562415122986	2.4921088218688965
57	265.98199009895325	pulse	1	t		55.0	2.5	/experiments/knapen_AOT/AOT_stimuli/rescaled_final/1915_rv.mp4	0.0	292.03977513313293	
57	267.5816099643707	pulse	1	t		55.0	2.5	/experiments/knapen_AOT/AOT_stimuli/rescaled_final/1915_rv.mp4	0.0	293.6393949985504	
57	268.08994793891907	fix_post	2		12	55.0	2.5	/experiments/knapen_AOT/AOT_stimuli/rescaled_final/1915_rv.mp4	0.0	294.14773297309875	0.0999140739440918
58	268.18986201286316	fix_pre	0		120	56.0	2.5	blank	1.0	294.24764704704285	1.0001671314239502
58	269.1819200515747	pulse	0	t		56.0	2.5	blank	1.0	295.2397050857544	
58	269.1900291442871	movie	1		301	56.0	2.5	blank	1.0	295.2478141784668	2.508694887161255
58	270.7821159362793	pulse	1	t		56.0	2.5	blank	1.0	296.839900970459	
58	271.69872403144836	fix_post	2		12	56.0	2.5	blank	1.0	297.75650906562805	0.100006103515625
59	271.798730134964	fix_pre	0		120	57.0	2.5	/experiments/knapen_AOT/AOT_stimuli/rescaled_final/0891_fw.mp4	0.0	297.8565151691437	1.0001518726348877
59	272.38230991363525	pulse	0	t		57.0	2.5	/experiments/knapen_AOT/AOT_stimuli/rescaled_final/0891_fw.mp4	0.0	298.44009494781494	
59	272.7988820075989	movie	1		242	57.0	2.5	/experiments/knapen_AOT/AOT_stimuli/rescaled_final/0891_fw.mp4	0.0	298.85666704177856	2.5005409717559814
59	273.98266196250916	pulse	1	t		57.0	2.5	/experiments/knapen_AOT/AOT_stimuli/rescaled_final/0891_fw.mp4	0.0	300.04044699668884	
59	275.29942297935486	fix_post	2		12	57.0	2.5	/experiments/knapen_AOT/AOT_stimuli/rescaled_final/0891_fw.mp4	0.0	301.35720801353455	0.0998990535736084
60	275.39932203292847	fix_pre	0		120	58.0	2.5	/experiments/knapen_AOT/AOT_stimuli/rescaled_final/0227_rv.mp4	0.0	301.45710706710815	1.0001420974731445
60	275.5828170776367	pulse	0	t		58.0	2.5	/experiments/knapen_AOT/AOT_stimuli/rescaled_final/0227_rv.mp4	0.0	301.6406021118164	
60	276.3994641304016	movie	1		242	58.0	2.5	/experiments/knapen_AOT/AOT_stimuli/rescaled_final/0227_rv.mp4	0.0	302.4572491645813	2.5005037784576416
60	277.183109998703	pulse	1	t		58.0	2.5	/experiments/knapen_AOT/AOT_stimuli/rescaled_final/0227_rv.mp4	0.0	303.2408950328827	
60	278.7839479446411	pulse	1	t		58.0	2.5	/experiments/knapen_AOT/AOT_stimuli/rescaled_final/0227_rv.mp4	0.0	304.8417329788208	
60	278.89996790885925	fix_post	2		12	58.0	2.5	/experiments/knapen_AOT/AOT_stimuli/rescaled_final/0227_rv.mp4	0.0	304.95775294303894	0.09983611106872559
61	278.999804019928	fix_pre	0		120	59.0	2.5	/experiments/knapen_AOT/AOT_stimuli/rescaled_final/0163_fw.mp4	0.0	305.05758905410767	1.000216007232666
61	280.00002002716064	movie	1		242	59.0	2.5	/experiments/knapen_AOT/AOT_stimuli/rescaled_final/0163_fw.mp4	0.0	306.05780506134033	2.4919989109039307
61	280.3840219974518	pulse	1	t		59.0	2.5	/experiments/knapen_AOT/AOT_stimuli/rescaled_final/0163_fw.mp4	0.0	306.44180703163147	
61	281.983726978302	pulse	1	t		59.0	2.5	/experiments/knapen_AOT/AOT_stimuli/rescaled_final/0163_fw.mp4	0.0	308.0415120124817	
61	282.4920189380646	fix_post	2		12	59.0	2.5	/experiments/knapen_AOT/AOT_stimuli/rescaled_final/0163_fw.mp4	0.0	308.54980397224426	0.09999918937683105
62	282.5920181274414	fix_pre	0		120	60.0	2.5	/experiments/knapen_AOT/AOT_stimuli/rescaled_final/0706_fw.mp4	0.0	308.6498031616211	1.0001468658447266
62	283.5839650630951	pulse	0	t		60.0	2.5	/experiments/knapen_AOT/AOT_stimuli/rescaled_final/0706_fw.mp4	0.0	309.6417500972748	
62	283.59216499328613	movie	1		245	60.0	2.5	/experiments/knapen_AOT/AOT_stimuli/rescaled_final/0706_fw.mp4	0.0	309.6499500274658	2.5087621212005615
62	285.1854910850525	pulse	1	t		60.0	2.5	/experiments/knapen_AOT/AOT_stimuli/rescaled_final/0706_fw.mp4	0.0	311.2432761192322	
62	286.1009271144867	fix_post	2		12	60.0	2.5	/experiments/knapen_AOT/AOT_stimuli/rescaled_final/0706_fw.mp4	0.0	312.1587121486664	0.09999585151672363
63	286.2009229660034	fix_pre	0		120	61.0	2.5	blank	1.0	312.2587080001831	1.000110149383545
63	286.77711296081543	pulse	0	t		61.0	2.5	blank	1.0	312.8348979949951	
63	287.20103311538696	movie	1		300	61.0	2.5	blank	1.0	313.25881814956665	2.500412940979004
63	288.37712812423706	pulse	1	t		61.0	2.5	blank	1.0	314.43491315841675	
63	289.70144605636597	fix_post	2		12	61.0	2.5	blank	1.0	315.75923109054565	0.09999704360961914
64	289.8014430999756	fix_pre	0		120	62.0	2.5	/experiments/knapen_AOT/AOT_stimuli/rescaled_final/1216_fw.mp4	0.0	315.8592281341553	1.0001459121704102
64	289.9774601459503	pulse	0	t		62.0	2.5	/experiments/knapen_AOT/AOT_stimuli/rescaled_final/1216_fw.mp4	0.0	316.03524518013	
64	290.801589012146	movie	1		242	62.0	2.5	/experiments/knapen_AOT/AOT_stimuli/rescaled_final/1216_fw.mp4	0.0	316.8593740463257	2.5005080699920654
64	291.57775592803955	pulse	1	t		62.0	2.5	/experiments/knapen_AOT/AOT_stimuli/rescaled_final/1216_fw.mp4	0.0	317.63554096221924	
64	293.1852900981903	pulse	1	t		62.0	2.5	/experiments/knapen_AOT/AOT_stimuli/rescaled_final/1216_fw.mp4	0.0	319.24307513237	
64	293.30209708213806	fix_post	2		12	62.0	2.5	/experiments/knapen_AOT/AOT_stimuli/rescaled_final/1216_fw.mp4	0.0	319.35988211631775	0.0999000072479248
65	293.401997089386	fix_pre	0		120	63.0	2.5	/experiments/knapen_AOT/AOT_stimuli/rescaled_final/1448_fw.mp4	0.0	319.4597821235657	1.0001399517059326
65	294.4021370410919	movie	1		243	63.0	2.5	/experiments/knapen_AOT/AOT_stimuli/rescaled_final/1448_fw.mp4	0.0	320.4599220752716	2.492011070251465
65	294.77737402915955	pulse	1	t		63.0	2.5	/experiments/knapen_AOT/AOT_stimuli/rescaled_final/1448_fw.mp4	0.0	320.83515906333923	
65	296.37764406204224	pulse	1	t		63.0	2.5	/experiments/knapen_AOT/AOT_stimuli/rescaled_final/1448_fw.mp4	0.0	322.4354290962219	
65	296.8941481113434	fix_post	2		12	63.0	2.5	/experiments/knapen_AOT/AOT_stimuli/rescaled_final/1448_fw.mp4	0.0	322.95193314552307	0.1000359058380127
66	296.9941840171814	fix_pre	0		119	64.0	2.5	/experiments/knapen_AOT/AOT_stimuli/rescaled_final/2161_rv.mp4	0.0	323.0519690513611	0.9918310642242432
66	297.9777910709381	pulse	0	t		64.0	2.5	/experiments/knapen_AOT/AOT_stimuli/rescaled_final/2161_rv.mp4	0.0	324.0355761051178	
66	297.98601508140564	movie	1		244	64.0	2.5	/experiments/knapen_AOT/AOT_stimuli/rescaled_final/2161_rv.mp4	0.0	324.0438001155853	2.5086870193481445
66	299.57849311828613	pulse	1	t		64.0	2.5	/experiments/knapen_AOT/AOT_stimuli/rescaled_final/2161_rv.mp4	0.0	325.6362781524658	
66	300.4947021007538	fix_post	2		12	64.0	2.5	/experiments/knapen_AOT/AOT_stimuli/rescaled_final/2161_rv.mp4	0.0	326.5524871349335	0.10004401206970215
67	300.5947461128235	fix_pre	0		120	65.0	2.5	/experiments/knapen_AOT/AOT_stimuli/rescaled_final/2086_fw.mp4	0.0	326.6525311470032	1.0001089572906494
67	301.17823696136475	pulse	0	t		65.0	2.5	/experiments/knapen_AOT/AOT_stimuli/rescaled_final/2086_fw.mp4	0.0	327.23602199554443	
67	301.59485507011414	movie	1		243	65.0	2.5	/experiments/knapen_AOT/AOT_stimuli/rescaled_final/2086_fw.mp4	0.0	327.6526401042938	2.500515937805176
67	302.7785909175873	pulse	1	t		65.0	2.5	/experiments/knapen_AOT/AOT_stimuli/rescaled_final/2086_fw.mp4	0.0	328.83637595176697	
67	304.0953710079193	fix_post	2		12	65.0	2.5	/experiments/knapen_AOT/AOT_stimuli/rescaled_final/2086_fw.mp4	0.0	330.153156042099	0.09988093376159668
68	304.1952519416809	fix_pre	0		120	66.0	2.5	/experiments/knapen_AOT/AOT_stimuli/rescaled_final/0506_rv.mp4	0.0	330.2530369758606	1.0001630783081055
68	304.3787410259247	pulse	0	t		66.0	2.5	/experiments/knapen_AOT/AOT_stimuli/rescaled_final/0506_rv.mp4	0.0	330.43652606010437	
68	305.195415019989	movie	1		243	66.0	2.5	/experiments/knapen_AOT/AOT_stimuli/rescaled_final/0506_rv.mp4	0.0	331.2532000541687	2.5003890991210938
68	305.9790470600128	pulse	1	t		66.0	2.5	/experiments/knapen_AOT/AOT_stimuli/rescaled_final/0506_rv.mp4	0.0	332.0368320941925	
68	307.57916498184204	pulse	1	t		66.0	2.5	/experiments/knapen_AOT/AOT_stimuli/rescaled_final/0506_rv.mp4	0.0	333.63695001602173	
68	307.6958041191101	fix_post	2		8	66.0	2.5	/experiments/knapen_AOT/AOT_stimuli/rescaled_final/0506_rv.mp4	0.0	333.7535891532898	0.09998393058776855
69	307.7957880496979	fix_pre	0		119	67.0	2.5	/experiments/knapen_AOT/AOT_stimuli/rescaled_final/0240_fw.mp4	0.0	333.85357308387756	0.9918279647827148
69	308.7876160144806	movie	1		243	67.0	2.5	/experiments/knapen_AOT/AOT_stimuli/rescaled_final/0240_fw.mp4	0.0	334.8454010486603	2.5005340576171875
69	309.17960500717163	pulse	1	t		67.0	2.5	/experiments/knapen_AOT/AOT_stimuli/rescaled_final/0240_fw.mp4	0.0	335.2373900413513	
69	310.7798159122467	pulse	1	t		67.0	2.5	/experiments/knapen_AOT/AOT_stimuli/rescaled_final/0240_fw.mp4	0.0	336.8376009464264	
69	311.2881500720978	fix_post	2		12	67.0	2.5	/experiments/knapen_AOT/AOT_stimuli/rescaled_final/0240_fw.mp4	0.0	337.34593510627747	0.09987688064575195
70	311.38802695274353	fix_pre	0		120	68.0	2.5	blank	1.0	337.4458119869232	1.0001230239868164
70	312.3799879550934	pulse	0	t		68.0	2.5	blank	1.0	338.43777298927307	
70	312.38814997673035	movie	1		301	68.0	2.5	blank	1.0	338.44593501091003	2.5087430477142334
70	313.98015093803406	pulse	1	t		68.0	2.5	blank	1.0	340.03793597221375	
70	314.8968930244446	fix_post	2		12	68.0	2.5	blank	1.0	340.95467805862427	0.10000491142272949
71	314.9968979358673	fix_pre	0		120	69.0	2.5	/experiments/knapen_AOT/AOT_stimuli/rescaled_final/2051_rv.mp4	0.0	341.054682970047	1.0001261234283447
71	315.58043694496155	pulse	0	t		69.0	2.5	/experiments/knapen_AOT/AOT_stimuli/rescaled_final/2051_rv.mp4	0.0	341.63822197914124	
71	315.99702405929565	movie	1		242	69.0	2.5	/experiments/knapen_AOT/AOT_stimuli/rescaled_final/2051_rv.mp4	0.0	342.05480909347534	2.5005528926849365
71	317.18084192276	pulse	1	t		69.0	2.5	/experiments/knapen_AOT/AOT_stimuli/rescaled_final/2051_rv.mp4	0.0	343.2386269569397	
71	318.4975769519806	fix_post	2		12	69.0	2.5	/experiments/knapen_AOT/AOT_stimuli/rescaled_final/2051_rv.mp4	0.0	344.5553619861603	0.09986209869384766
72	318.59743905067444	fix_pre	0		120	70.0	2.5	/experiments/knapen_AOT/AOT_stimuli/rescaled_final/0101_fw.mp4	0.0	344.6552240848541	1.0001778602600098
72	318.781023979187	pulse	0	t		70.0	2.5	/experiments/knapen_AOT/AOT_stimuli/rescaled_final/0101_fw.mp4	0.0	344.8388090133667	
72	319.59761691093445	movie	1		243	70.0	2.5	/experiments/knapen_AOT/AOT_stimuli/rescaled_final/0101_fw.mp4	0.0	345.65540194511414	2.500373125076294
72	320.381236076355	pulse	1	t		70.0	2.5	/experiments/knapen_AOT/AOT_stimuli/rescaled_final/0101_fw.mp4	0.0	346.43902111053467	
72	321.9813370704651	pulse	1	t		70.0	2.5	/experiments/knapen_AOT/AOT_stimuli/rescaled_final/0101_fw.mp4	0.0	348.0391221046448	
72	322.09799003601074	fix_post	2		12	70.0	2.5	/experiments/knapen_AOT/AOT_stimuli/rescaled_final/0101_fw.mp4	0.0	348.15577507019043	0.09997200965881348
73	322.19796204566956	fix_pre	0		120	71.0	2.5	/experiments/knapen_AOT/AOT_stimuli/rescaled_final/0106_rv.mp4	0.0	348.25574707984924	1.0001330375671387
73	323.1980950832367	movie	1		241	71.0	2.5	/experiments/knapen_AOT/AOT_stimuli/rescaled_final/0106_rv.mp4	0.0	349.2558801174164	2.492110013961792
73	323.5829029083252	pulse	1	t		71.0	2.5	/experiments/knapen_AOT/AOT_stimuli/rescaled_final/0106_rv.mp4	0.0	349.6406879425049	
73	325.18195509910583	pulse	1	t		71.0	2.5	/experiments/knapen_AOT/AOT_stimuli/rescaled_final/0106_rv.mp4	0.0	351.2397401332855	
73	325.6902050971985	fix_post	2		12	71.0	2.5	/experiments/knapen_AOT/AOT_stimuli/rescaled_final/0106_rv.mp4	0.0	351.7479901313782	0.09994387626647949
74	325.79014897346497	fix_pre	0		120	72.0	2.5	/experiments/knapen_AOT/AOT_stimuli/rescaled_final/0480_rv.mp4	0.0	351.84793400764465	1.0001859664916992
74	326.782212972641	pulse	0	t		72.0	2.5	/experiments/knapen_AOT/AOT_stimuli/rescaled_final/0480_rv.mp4	0.0	352.8399980068207	
74	326.79033493995667	movie	1		245	72.0	2.5	/experiments/knapen_AOT/AOT_stimuli/rescaled_final/0480_rv.mp4	0.0	352.84811997413635	2.5087051391601562
74	328.38700103759766	pulse	1	t		72.0	2.5	/experiments/knapen_AOT/AOT_stimuli/rescaled_final/0480_rv.mp4	0.0	354.44478607177734	
74	329.2990400791168	fix_post	2		12	72.0	2.5	/experiments/knapen_AOT/AOT_stimuli/rescaled_final/0480_rv.mp4	0.0	355.3568251132965	0.1000208854675293
75	329.39906096458435	fix_pre	0		120	73.0	2.5	/experiments/knapen_AOT/AOT_stimuli/rescaled_final/1543_rv.mp4	0.0	355.45684599876404	1.0001070499420166
75	329.98260712623596	pulse	0	t		73.0	2.5	/experiments/knapen_AOT/AOT_stimuli/rescaled_final/1543_rv.mp4	0.0	356.04039216041565	
75	330.39916801452637	movie	1		242	73.0	2.5	/experiments/knapen_AOT/AOT_stimuli/rescaled_final/1543_rv.mp4	0.0	356.45695304870605	2.500602960586548
75	331.5830810070038	pulse	1	t		73.0	2.5	/experiments/knapen_AOT/AOT_stimuli/rescaled_final/1543_rv.mp4	0.0	357.6408660411835	
75	332.8997709751129	fix_post	2		12	73.0	2.5	/experiments/knapen_AOT/AOT_stimuli/rescaled_final/1543_rv.mp4	0.0	358.9575560092926	0.09977316856384277
76	332.99954414367676	fix_pre	0		120	74.0	2.5	/experiments/knapen_AOT/AOT_stimuli/rescaled_final/0301_fw.mp4	0.0	359.05732917785645	1.0001959800720215
76	333.1831359863281	pulse	0	t		74.0	2.5	/experiments/knapen_AOT/AOT_stimuli/rescaled_final/0301_fw.mp4	0.0	359.2409210205078	
76	333.9997401237488	movie	1		242	74.0	2.5	/experiments/knapen_AOT/AOT_stimuli/rescaled_final/0301_fw.mp4	0.0	360.05752515792847	2.5005438327789307
76	334.78336906433105	pulse	1	t		74.0	2.5	/experiments/knapen_AOT/AOT_stimuli/rescaled_final/0301_fw.mp4	0.0	360.84115409851074	
76	336.3834900856018	pulse	1	t		74.0	2.5	/experiments/knapen_AOT/AOT_stimuli/rescaled_final/0301_fw.mp4	0.0	362.4412751197815	
76	336.5002839565277	fix_post	2		12	74.0	2.5	/experiments/knapen_AOT/AOT_stimuli/rescaled_final/0301_fw.mp4	0.0	362.5580689907074	0.09981703758239746
77	336.6001009941101	fix_pre	0		120	75.0	2.5	blank	1.0	362.6578860282898	1.0001399517059326
77	337.60024094581604	movie	1		299	75.0	2.5	blank	1.0	363.6580259799957	2.4920570850372314
77	337.9838719367981	pulse	1	t		75.0	2.5	blank	1.0	364.0416569709778	
77	339.58410000801086	pulse	1	t		75.0	2.5	blank	1.0	365.64188504219055	
77	340.09229803085327	fix_post	2		12	75.0	2.5	blank	1.0	366.15008306503296	0.10001111030578613
78	340.19230914115906	fix_pre	0		120	76.0	2.5	/experiments/knapen_AOT/AOT_stimuli/rescaled_final/1438_fw.mp4	0.0	366.25009417533875	1.0001637935638428
78	341.17676401138306	pulse	0	t		76.0	2.5	/experiments/knapen_AOT/AOT_stimuli/rescaled_final/1438_fw.mp4	0.0	367.23454904556274	
78	341.1924729347229	movie	1		244	76.0	2.5	/experiments/knapen_AOT/AOT_stimuli/rescaled_final/1438_fw.mp4	0.0	367.2502579689026	2.5087690353393555
78	342.7890100479126	pulse	1	t		76.0	2.5	/experiments/knapen_AOT/AOT_stimuli/rescaled_final/1438_fw.mp4	0.0	368.8467950820923	
78	343.70124197006226	fix_post	2		12	76.0	2.5	/experiments/knapen_AOT/AOT_stimuli/rescaled_final/1438_fw.mp4	0.0	369.75902700424194	0.09995794296264648
79	343.8011999130249	fix_pre	0		120	77.0	2.5	/experiments/knapen_AOT/AOT_stimuli/rescaled_final/0832_rv.mp4	0.0	369.8589849472046	1.000162124633789
79	344.37727212905884	pulse	0	t		77.0	2.5	/experiments/knapen_AOT/AOT_stimuli/rescaled_final/0832_rv.mp4	0.0	370.4350571632385	
79	344.8013620376587	movie	1		243	77.0	2.5	/experiments/knapen_AOT/AOT_stimuli/rescaled_final/0832_rv.mp4	0.0	370.8591470718384	2.500614881515503
79	345.97721910476685	pulse	1	t		77.0	2.5	/experiments/knapen_AOT/AOT_stimuli/rescaled_final/0832_rv.mp4	0.0	372.03500413894653	
79	347.3019769191742	fix_post	2		12	77.0	2.5	/experiments/knapen_AOT/AOT_stimuli/rescaled_final/0832_rv.mp4	0.0	373.3597619533539	0.09974503517150879
80	347.4017219543457	fix_pre	0		120	78.0	2.5	/experiments/knapen_AOT/AOT_stimuli/rescaled_final/1724_fw.mp4	0.0	373.4595069885254	1.0001301765441895
80	347.5770800113678	pulse	0	t		78.0	2.5	/experiments/knapen_AOT/AOT_stimuli/rescaled_final/1724_fw.mp4	0.0	373.6348650455475	
80	348.4018521308899	movie	1		243	78.0	2.5	/experiments/knapen_AOT/AOT_stimuli/rescaled_final/1724_fw.mp4	0.0	374.4596371650696	2.500398874282837
80	349.1771900653839	pulse	1	t		78.0	2.5	/experiments/knapen_AOT/AOT_stimuli/rescaled_final/1724_fw.mp4	0.0	375.2349750995636	
80	350.7773320674896	pulse	1	t		78.0	2.5	/experiments/knapen_AOT/AOT_stimuli/rescaled_final/1724_fw.mp4	0.0	376.8351171016693	
80	350.90225100517273	fix_post	2		12	78.0	2.5	/experiments/knapen_AOT/AOT_stimuli/rescaled_final/1724_fw.mp4	0.0	376.9600360393524	0.09999799728393555
81	351.00224900245667	fix_pre	0		119	79.0	2.5	/experiments/knapen_AOT/AOT_stimuli/rescaled_final/1569_fw.mp4	0.0	377.06003403663635	0.9918091297149658
81	351.99405813217163	movie	1		243	79.0	2.5	/experiments/knapen_AOT/AOT_stimuli/rescaled_final/1569_fw.mp4	0.0	378.0518431663513	2.5005719661712646
81	352.38195610046387	pulse	1	t		79.0	2.5	/experiments/knapen_AOT/AOT_stimuli/rescaled_final/1569_fw.mp4	0.0	378.43974113464355	
81	353.9779291152954	pulse	1	t		79.0	2.5	/experiments/knapen_AOT/AOT_stimuli/rescaled_final/1569_fw.mp4	0.0	380.0357141494751	
81	354.4946300983429	fix_post	2		12	79.0	2.5	/experiments/knapen_AOT/AOT_stimuli/rescaled_final/1569_fw.mp4	0.0	380.5524151325226	0.09981393814086914
82	354.59444403648376	fix_pre	0		119	80.0	2.5	/experiments/knapen_AOT/AOT_stimuli/rescaled_final/0694_fw.mp4	0.0	380.65222907066345	0.9918398857116699
82	355.5781440734863	pulse	0	t		80.0	2.5	/experiments/knapen_AOT/AOT_stimuli/rescaled_final/0694_fw.mp4	0.0	381.635929107666	
82	355.58628392219543	movie	1		243	80.0	2.5	/experiments/knapen_AOT/AOT_stimuli/rescaled_final/0694_fw.mp4	0.0	381.6440689563751	2.5087950229644775
82	357.1788561344147	pulse	1	t		80.0	2.5	/experiments/knapen_AOT/AOT_stimuli/rescaled_final/0694_fw.mp4	0.0	383.23664116859436	
82	358.0950789451599	fix_post	2		12	80.0	2.5	/experiments/knapen_AOT/AOT_stimuli/rescaled_final/0694_fw.mp4	0.0	384.1528639793396	0.09996700286865234
83	358.19504594802856	fix_pre	0		120	81.0	2.5	/experiments/knapen_AOT/AOT_stimuli/rescaled_final/0360_fw.mp4	0.0	384.25283098220825	1.0001180171966553
83	358.77859711647034	pulse	0	t		81.0	2.5	/experiments/knapen_AOT/AOT_stimuli/rescaled_final/0360_fw.mp4	0.0	384.83638215065	
83	359.1951639652252	movie	1		244	81.0	2.5	/experiments/knapen_AOT/AOT_stimuli/rescaled_final/0360_fw.mp4	0.0	385.2529489994049	2.5003490447998047
83	360.37896513938904	pulse	1	t		81.0	2.5	/experiments/knapen_AOT/AOT_stimuli/rescaled_final/0360_fw.mp4	0.0	386.4367501735687	
83	361.695513010025	fix_post	2		12	81.0	2.5	/experiments/knapen_AOT/AOT_stimuli/rescaled_final/0360_fw.mp4	0.0	387.7532980442047	0.10002994537353516
84	361.79554295539856	fix_pre	0		120	82.0	2.5	blank	1.0	387.85332798957825	1.0001420974731445
84	361.9791040420532	pulse	0	t		82.0	2.5	blank	1.0	388.0368890762329	
84	362.7956850528717	movie	1		300	82.0	2.5	blank	1.0	388.8534700870514	2.5004160404205322
84	363.5792260169983	pulse	1	t		82.0	2.5	blank	1.0	389.637011051178	
84	365.17958092689514	pulse	1	t		82.0	2.5	blank	1.0	391.23736596107483	
84	365.29610109329224	fix_post	2		12	82.0	2.5	blank	1.0	391.3538861274719	0.09996795654296875
85	365.3960690498352	fix_pre	0		120	83.0	2.5	/experiments/knapen_AOT/AOT_stimuli/rescaled_final/0543_rv.mp4	0.0	391.4538540840149	1.0001220703125
85	366.3961911201477	movie	1		243	83.0	2.5	/experiments/knapen_AOT/AOT_stimuli/rescaled_final/0543_rv.mp4	0.0	392.4539761543274	2.4920599460601807
85	366.7802619934082	pulse	1	t		83.0	2.5	/experiments/knapen_AOT/AOT_stimuli/rescaled_final/0543_rv.mp4	0.0	392.8380470275879	
85	368.3800549507141	pulse	1	t		83.0	2.5	/experiments/knapen_AOT/AOT_stimuli/rescaled_final/0543_rv.mp4	0.0	394.4378399848938	
85	368.8882510662079	fix_post	2		12	83.0	2.5	/experiments/knapen_AOT/AOT_stimuli/rescaled_final/0543_rv.mp4	0.0	394.9460361003876	0.10002303123474121
87	368.9882740974426	stim	0		1713					395.0460591316223	14.302239894866943
87	369.9802620410919	pulse	0	t						396.0380470752716	
87	371.58046793937683	pulse	0	t						397.6382529735565	
87	373.1807539463043	pulse	0	t						399.238538980484	
87	374.7809250354767	pulse	0	t						400.8387100696564	
87	376.38120198249817	pulse	0	t						402.43898701667786	
87	377.98140692710876	pulse	0	t						404.03919196128845	
87	379.5817151069641	pulse	0	t						405.6395001411438	
87	381.1818959712982	pulse	0	t						407.2396810054779	
87	382.78214502334595	pulse	0	t						408.83993005752563	
