trial_nr	onset	event_type	phase	response	nr_frames	movie_index	movie_duration	movie_file	blank	onset_abs	duration
0	0.14992809295654297	stim	0		111					25.268879175186157	0.924962043762207
0	1.0669901371002197	response	0	space						26.185941219329834	
1	1.07489013671875	stim	0		3308					26.193841218948364	27.566597938537598
1	28.63633418083191	pulse	0	t						53.75528526306152	
1	28.641488075256348	stim	1		1717					53.76043915748596	14.308233976364136
1	30.225784063339233	pulse	1	t						55.34473514556885	
1	31.82582712173462	pulse	1	t						56.94477820396423	
1	33.43325114250183	pulse	1	t						58.552202224731445	
1	35.03288912773132	pulse	1	t						60.15184020996094	
1	36.62554907798767	pulse	1	t						61.744500160217285	
1	38.23323917388916	pulse	1	t						63.352190256118774	
1	39.83318614959717	pulse	1	t						64.95213723182678	
1	41.4332070350647	pulse	1	t						66.55215811729431	
2	42.94972205162048	fix_pre	0		11	0.0	2.5	/experiments/AOT/AOT_stimuli/rescaled_final/1891_fw.mp4	0.0	68.0686731338501	0.09161114692687988
2	43.03317713737488	pulse	0	t		0.0	2.5	/experiments/AOT/AOT_stimuli/rescaled_final/1891_fw.mp4	0.0	68.15212821960449	
2	43.04133319854736	movie	1		243	0.0	2.5	/experiments/AOT/AOT_stimuli/rescaled_final/1891_fw.mp4	0.0	68.16028428077698	2.508340835571289
2	44.632729053497314	pulse	1	t		0.0	2.5	/experiments/AOT/AOT_stimuli/rescaled_final/1891_fw.mp4	0.0	69.75168013572693	
2	45.54967403411865	fix_post	2		12	0.0	2.5	/experiments/AOT/AOT_stimuli/rescaled_final/1891_fw.mp4	0.0	70.66862511634827	0.10011911392211914
3	45.64979314804077	fix_pre	0		120	1.0	2.5	/experiments/AOT/AOT_stimuli/rescaled_final/1160_fw.mp4	0.0	70.76874423027039	0.9999229907989502
3	46.23319101333618	pulse	0	t		1.0	2.5	/experiments/AOT/AOT_stimuli/rescaled_final/1160_fw.mp4	0.0	71.3521420955658	
3	46.64971613883972	movie	1		247	1.0	2.5	/experiments/AOT/AOT_stimuli/rescaled_final/1160_fw.mp4	0.0	71.76866722106934	2.4999489784240723
3	47.83323097229004	pulse	1	t		1.0	2.5	/experiments/AOT/AOT_stimuli/rescaled_final/1160_fw.mp4	0.0	72.95218205451965	
3	49.149665117263794	fix_post	2		12	1.0	2.5	/experiments/AOT/AOT_stimuli/rescaled_final/1160_fw.mp4	0.0	74.26861619949341	0.10004305839538574
4	49.24970817565918	fix_pre	0		120	2.0	2.5	/experiments/AOT/AOT_stimuli/rescaled_final/1922_rv.mp4	0.0	74.3686592578888	0.9999258518218994
4	49.42561411857605	pulse	0	t		2.0	2.5	/experiments/AOT/AOT_stimuli/rescaled_final/1922_rv.mp4	0.0	74.54456520080566	
4	50.24963402748108	movie	1		243	2.0	2.5	/experiments/AOT/AOT_stimuli/rescaled_final/1922_rv.mp4	0.0	75.3685851097107	2.5000391006469727
4	51.02569508552551	pulse	1	t		2.0	2.5	/experiments/AOT/AOT_stimuli/rescaled_final/1922_rv.mp4	0.0	76.14464616775513	
4	52.63154911994934	pulse	1	t		2.0	2.5	/experiments/AOT/AOT_stimuli/rescaled_final/1922_rv.mp4	0.0	77.75050020217896	
4	52.74967312812805	fix_post	2		12	2.0	2.5	/experiments/AOT/AOT_stimuli/rescaled_final/1922_rv.mp4	0.0	77.86862421035767	0.0999610424041748
5	52.84963417053223	fix_pre	0		120	3.0	2.5	/experiments/AOT/AOT_stimuli/rescaled_final/0077_fw.mp4	0.0	77.96858525276184	1.0000848770141602
5	53.84971904754639	movie	1		244	3.0	2.5	/experiments/AOT/AOT_stimuli/rescaled_final/0077_fw.mp4	0.0	78.968670129776	2.500006914138794
5	54.23314309120178	pulse	1	t		3.0	2.5	/experiments/AOT/AOT_stimuli/rescaled_final/0077_fw.mp4	0.0	79.3520941734314	
5	55.833158016204834	pulse	1	t		3.0	2.5	/experiments/AOT/AOT_stimuli/rescaled_final/0077_fw.mp4	0.0	80.95210909843445	
5	56.34972596168518	fix_post	2		12	3.0	2.5	/experiments/AOT/AOT_stimuli/rescaled_final/0077_fw.mp4	0.0	81.4686770439148	0.09992814064025879
6	56.44965410232544	fix_pre	0		119	4.0	2.5	/experiments/AOT/AOT_stimuli/rescaled_final/0013_fw.mp4	0.0	81.56860518455505	0.9916200637817383
6	57.4330689907074	pulse	0	t		4.0	2.5	/experiments/AOT/AOT_stimuli/rescaled_final/0013_fw.mp4	0.0	82.55202007293701	
6	57.44127416610718	movie	1		245	4.0	2.5	/experiments/AOT/AOT_stimuli/rescaled_final/0013_fw.mp4	0.0	82.56022524833679	2.5084328651428223
6	59.03343415260315	pulse	1	t		4.0	2.5	/experiments/AOT/AOT_stimuli/rescaled_final/0013_fw.mp4	0.0	84.15238523483276	
6	59.94970703125	fix_post	2		12	4.0	2.5	/experiments/AOT/AOT_stimuli/rescaled_final/0013_fw.mp4	0.0	85.06865811347961	0.09991598129272461
7	60.049623012542725	fix_pre	0		120	5.0	2.5	/experiments/AOT/AOT_stimuli/rescaled_final/0718_fw.mp4	0.0	85.16857409477234	1.0000290870666504
7	60.633159160614014	pulse	0	t		5.0	2.5	/experiments/AOT/AOT_stimuli/rescaled_final/0718_fw.mp4	0.0	85.75211024284363	
7	61.049652099609375	movie	1		244	5.0	2.5	/experiments/AOT/AOT_stimuli/rescaled_final/0718_fw.mp4	0.0	86.16860318183899	2.4999680519104004
7	62.23332715034485	pulse	1	t		5.0	2.5	/experiments/AOT/AOT_stimuli/rescaled_final/0718_fw.mp4	0.0	87.35227823257446	
7	63.549620151519775	fix_post	2		12	5.0	2.5	/experiments/AOT/AOT_stimuli/rescaled_final/0718_fw.mp4	0.0	88.66857123374939	0.10004901885986328
8	63.64966917037964	fix_pre	0		120	6.0	2.5	blank	1.0	88.76862025260925	0.99993896484375
8	63.83314299583435	pulse	0	t		6.0	2.5	blank	1.0	88.95209407806396	
8	64.64960813522339	movie	1		300	6.0	2.5	blank	1.0	89.768559217453	2.499922037124634
8	65.4330940246582	pulse	1	t		6.0	2.5	blank	1.0	90.55204510688782	
8	67.02558398246765	pulse	1	t		6.0	2.5	blank	1.0	92.14453506469727	
8	67.14953017234802	fix_post	2		12	6.0	2.5	blank	1.0	92.26848125457764	0.10014700889587402
9	67.2496771812439	fix_pre	0		120	7.0	2.5	/experiments/AOT/AOT_stimuli/rescaled_final/1197_fw.mp4	0.0	92.36862826347351	0.9999330043792725
9	68.24961018562317	movie	1		245	7.0	2.5	/experiments/AOT/AOT_stimuli/rescaled_final/1197_fw.mp4	0.0	93.36856126785278	2.49995493888855
9	68.63284015655518	pulse	1	t		7.0	2.5	/experiments/AOT/AOT_stimuli/rescaled_final/1197_fw.mp4	0.0	93.75179123878479	
9	70.23305201530457	pulse	1	t		7.0	2.5	/experiments/AOT/AOT_stimuli/rescaled_final/1197_fw.mp4	0.0	95.35200309753418	
9	70.74956512451172	fix_post	2		12	7.0	2.5	/experiments/AOT/AOT_stimuli/rescaled_final/1197_fw.mp4	0.0	95.86851620674133	0.09999299049377441
10	70.8495581150055	fix_pre	0		119	8.0	2.5	/experiments/AOT/AOT_stimuli/rescaled_final/0916_rv.mp4	0.0	95.96850919723511	0.9918129444122314
10	71.83308506011963	pulse	0	t		8.0	2.5	/experiments/AOT/AOT_stimuli/rescaled_final/0916_rv.mp4	0.0	96.95203614234924	
10	71.84137105941772	movie	1		243	8.0	2.5	/experiments/AOT/AOT_stimuli/rescaled_final/0916_rv.mp4	0.0	96.96032214164734	2.507766008377075
10	73.43336796760559	pulse	1	t		8.0	2.5	/experiments/AOT/AOT_stimuli/rescaled_final/0916_rv.mp4	0.0	98.5523190498352	
10	74.3491370677948	fix_post	2		12	8.0	2.5	/experiments/AOT/AOT_stimuli/rescaled_final/0916_rv.mp4	0.0	99.46808815002441	0.10047602653503418
11	74.44961309432983	fix_pre	0		120	9.0	2.5	/experiments/AOT/AOT_stimuli/rescaled_final/0847_fw.mp4	0.0	99.56856417655945	0.9999699592590332
11	75.03306818008423	pulse	0	t		9.0	2.5	/experiments/AOT/AOT_stimuli/rescaled_final/0847_fw.mp4	0.0	100.15201926231384	
11	75.44958305358887	movie	1		244	9.0	2.5	/experiments/AOT/AOT_stimuli/rescaled_final/0847_fw.mp4	0.0	100.56853413581848	2.50039005279541
11	76.63309097290039	pulse	1	t		9.0	2.5	/experiments/AOT/AOT_stimuli/rescaled_final/0847_fw.mp4	0.0	101.75204205513	
11	77.94997310638428	fix_post	2		12	9.0	2.5	/experiments/AOT/AOT_stimuli/rescaled_final/0847_fw.mp4	0.0	103.06892418861389	0.09956789016723633
12	78.04954099655151	fix_pre	0		120	10.0	2.5	/experiments/AOT/AOT_stimuli/rescaled_final/0471_rv.mp4	0.0	103.16849207878113	1.0000200271606445
12	78.23304605484009	pulse	0	t		10.0	2.5	/experiments/AOT/AOT_stimuli/rescaled_final/0471_rv.mp4	0.0	103.3519971370697	
12	79.04956102371216	movie	1		245	10.0	2.5	/experiments/AOT/AOT_stimuli/rescaled_final/0471_rv.mp4	0.0	104.16851210594177	2.499917984008789
12	79.83326315879822	pulse	1	t		10.0	2.5	/experiments/AOT/AOT_stimuli/rescaled_final/0471_rv.mp4	0.0	104.95221424102783	
12	81.43176507949829	pulse	1	t		10.0	2.5	/experiments/AOT/AOT_stimuli/rescaled_final/0471_rv.mp4	0.0	106.5507161617279	
12	81.54947900772095	fix_post	2		12	10.0	2.5	/experiments/AOT/AOT_stimuli/rescaled_final/0471_rv.mp4	0.0	106.66843008995056	0.09998607635498047
13	81.64946508407593	fix_pre	0		120	11.0	2.5	/experiments/AOT/AOT_stimuli/rescaled_final/1656_fw.mp4	0.0	106.76841616630554	1.0000650882720947
13	82.64953017234802	movie	1		243	11.0	2.5	/experiments/AOT/AOT_stimuli/rescaled_final/1656_fw.mp4	0.0	107.76848125457764	2.500034809112549
13	83.03432607650757	pulse	1	t		11.0	2.5	/experiments/AOT/AOT_stimuli/rescaled_final/1656_fw.mp4	0.0	108.15327715873718	
13	84.62556505203247	pulse	1	t		11.0	2.5	/experiments/AOT/AOT_stimuli/rescaled_final/1656_fw.mp4	0.0	109.74451613426208	
13	85.14956498146057	fix_post	2		12	11.0	2.5	/experiments/AOT/AOT_stimuli/rescaled_final/1656_fw.mp4	0.0	110.26851606369019	0.09996819496154785
14	85.24953317642212	fix_pre	0		119	12.0	2.5	/experiments/AOT/AOT_stimuli/rescaled_final/0453_fw.mp4	0.0	110.36848425865173	0.9917519092559814
14	86.2331030368805	pulse	0	t		12.0	2.5	/experiments/AOT/AOT_stimuli/rescaled_final/0453_fw.mp4	0.0	111.35205411911011	
14	86.2412850856781	movie	1		245	12.0	2.5	/experiments/AOT/AOT_stimuli/rescaled_final/0453_fw.mp4	0.0	111.36023616790771	2.50826096534729
14	87.83236908912659	pulse	1	t		12.0	2.5	/experiments/AOT/AOT_stimuli/rescaled_final/0453_fw.mp4	0.0	112.9513201713562	
14	88.74954605102539	fix_post	2		12	12.0	2.5	/experiments/AOT/AOT_stimuli/rescaled_final/0453_fw.mp4	0.0	113.868497133255	0.10005497932434082
15	88.84960103034973	fix_pre	0		120	13.0	2.5	/experiments/AOT/AOT_stimuli/rescaled_final/1074_fw.mp4	0.0	113.96855211257935	0.9994640350341797
15	89.43254518508911	pulse	0	t		13.0	2.5	/experiments/AOT/AOT_stimuli/rescaled_final/1074_fw.mp4	0.0	114.55149626731873	
15	89.84906506538391	movie	1		243	13.0	2.5	/experiments/AOT/AOT_stimuli/rescaled_final/1074_fw.mp4	0.0	114.96801614761353	2.5003061294555664
15	91.0326521396637	pulse	1	t		13.0	2.5	/experiments/AOT/AOT_stimuli/rescaled_final/1074_fw.mp4	0.0	116.15160322189331	
15	92.34937119483948	fix_post	2		12	13.0	2.5	/experiments/AOT/AOT_stimuli/rescaled_final/1074_fw.mp4	0.0	117.46832227706909	0.10039281845092773
16	92.4497640132904	fix_pre	0		120	14.0	2.5	blank	1.0	117.56871509552002	0.9997379779815674
16	92.63290309906006	pulse	0	t		14.0	2.5	blank	1.0	117.75185418128967	
16	93.44950199127197	movie	1		300	14.0	2.5	blank	1.0	118.56845307350159	2.499974012374878
16	94.23301696777344	pulse	1	t		14.0	2.5	blank	1.0	119.35196805000305	
16	95.8329770565033	pulse	1	t		14.0	2.5	blank	1.0	120.95192813873291	
16	95.94947600364685	fix_post	2		12	14.0	2.5	blank	1.0	121.06842708587646	0.09998416900634766
17	96.0494601726532	fix_pre	0		120	15.0	2.5	/experiments/AOT/AOT_stimuli/rescaled_final/0184_fw.mp4	0.0	121.16841125488281	1.0000460147857666
17	97.04950618743896	movie	1		246	15.0	2.5	/experiments/AOT/AOT_stimuli/rescaled_final/0184_fw.mp4	0.0	122.16845726966858	2.4998939037323
17	97.4323091506958	pulse	1	t		15.0	2.5	/experiments/AOT/AOT_stimuli/rescaled_final/0184_fw.mp4	0.0	122.55126023292542	
17	99.03285908699036	pulse	1	t		15.0	2.5	/experiments/AOT/AOT_stimuli/rescaled_final/0184_fw.mp4	0.0	124.15181016921997	
17	99.54940009117126	fix_post	2		12	15.0	2.5	/experiments/AOT/AOT_stimuli/rescaled_final/0184_fw.mp4	0.0	124.66835117340088	0.10002803802490234
18	99.64942812919617	fix_pre	0		119	16.0	2.5	/experiments/AOT/AOT_stimuli/rescaled_final/0310_fw.mp4	0.0	124.76837921142578	0.9916439056396484
18	100.62557911872864	pulse	0	t		16.0	2.5	/experiments/AOT/AOT_stimuli/rescaled_final/0310_fw.mp4	0.0	125.74453020095825	
18	100.64107203483582	movie	1		247	16.0	2.5	/experiments/AOT/AOT_stimuli/rescaled_final/0310_fw.mp4	0.0	125.76002311706543	2.5083611011505127
18	102.23264598846436	pulse	1	t		16.0	2.5	/experiments/AOT/AOT_stimuli/rescaled_final/0310_fw.mp4	0.0	127.35159707069397	
18	103.14943313598633	fix_post	2		12	16.0	2.5	/experiments/AOT/AOT_stimuli/rescaled_final/0310_fw.mp4	0.0	128.26838421821594	0.1000218391418457
19	103.24945497512817	fix_pre	0		120	17.0	2.5	/experiments/AOT/AOT_stimuli/rescaled_final/2142_fw.mp4	0.0	128.3684060573578	0.9999771118164062
19	103.83285903930664	pulse	0	t		17.0	2.5	/experiments/AOT/AOT_stimuli/rescaled_final/2142_fw.mp4	0.0	128.95181012153625	
19	104.24943208694458	movie	1		245	17.0	2.5	/experiments/AOT/AOT_stimuli/rescaled_final/2142_fw.mp4	0.0	129.3683831691742	2.499936103820801
19	105.43295311927795	pulse	1	t		17.0	2.5	/experiments/AOT/AOT_stimuli/rescaled_final/2142_fw.mp4	0.0	130.55190420150757	
19	106.74936819076538	fix_post	2		12	17.0	2.5	/experiments/AOT/AOT_stimuli/rescaled_final/2142_fw.mp4	0.0	131.868319272995	0.10004281997680664
20	106.84941101074219	fix_pre	0		120	18.0	2.5	/experiments/AOT/AOT_stimuli/rescaled_final/1248_rv.mp4	0.0	131.9683620929718	0.9999539852142334
20	107.03293204307556	pulse	0	t		18.0	2.5	/experiments/AOT/AOT_stimuli/rescaled_final/1248_rv.mp4	0.0	132.15188312530518	
20	107.84936499595642	movie	1		245	18.0	2.5	/experiments/AOT/AOT_stimuli/rescaled_final/1248_rv.mp4	0.0	132.96831607818604	2.4997360706329346
20	108.6328501701355	pulse	1	t		18.0	2.5	/experiments/AOT/AOT_stimuli/rescaled_final/1248_rv.mp4	0.0	133.7518012523651	
20	110.23140907287598	pulse	1	t		18.0	2.5	/experiments/AOT/AOT_stimuli/rescaled_final/1248_rv.mp4	0.0	135.3503601551056	
20	110.34910106658936	fix_post	2		12	18.0	2.5	/experiments/AOT/AOT_stimuli/rescaled_final/1248_rv.mp4	0.0	135.46805214881897	0.09982490539550781
21	110.44892597198486	fix_pre	0		120	19.0	2.5	/experiments/AOT/AOT_stimuli/rescaled_final/1199_fw.mp4	0.0	135.56787705421448	1.0004510879516602
21	111.44937705993652	movie	1		244	19.0	2.5	/experiments/AOT/AOT_stimuli/rescaled_final/1199_fw.mp4	0.0	136.56832814216614	2.5000059604644775
21	111.83250117301941	pulse	1	t		19.0	2.5	/experiments/AOT/AOT_stimuli/rescaled_final/1199_fw.mp4	0.0	136.95145225524902	
21	113.43289113044739	pulse	1	t		19.0	2.5	/experiments/AOT/AOT_stimuli/rescaled_final/1199_fw.mp4	0.0	138.551842212677	
21	113.949383020401	fix_post	2		12	19.0	2.5	/experiments/AOT/AOT_stimuli/rescaled_final/1199_fw.mp4	0.0	139.06833410263062	0.09996414184570312
22	114.0493471622467	fix_pre	0		119	20.0	2.5	blank	1.0	139.16829824447632	0.9916508197784424
22	115.03288412094116	pulse	0	t		20.0	2.5	blank	1.0	140.15183520317078	
22	115.04099798202515	movie	1		301	20.0	2.5	blank	1.0	140.15994906425476	2.508406162261963
22	116.6328911781311	pulse	1	t		20.0	2.5	blank	1.0	141.75184226036072	
22	117.54940414428711	fix_post	2		12	20.0	2.5	blank	1.0	142.66835522651672	0.10000991821289062
23	117.6494140625	fix_pre	0		120	21.0	2.5	/experiments/AOT/AOT_stimuli/rescaled_final/1825_rv.mp4	0.0	142.76836514472961	0.9999160766601562
23	118.2329261302948	pulse	0	t		21.0	2.5	/experiments/AOT/AOT_stimuli/rescaled_final/1825_rv.mp4	0.0	143.3518772125244	
23	118.64933013916016	movie	1		246	21.0	2.5	/experiments/AOT/AOT_stimuli/rescaled_final/1825_rv.mp4	0.0	143.76828122138977	2.500123977661133
23	119.83292412757874	pulse	1	t		21.0	2.5	/experiments/AOT/AOT_stimuli/rescaled_final/1825_rv.mp4	0.0	144.95187520980835	
23	121.14945411682129	fix_post	2		12	21.0	2.5	/experiments/AOT/AOT_stimuli/rescaled_final/1825_rv.mp4	0.0	146.2684051990509	0.09983992576599121
24	121.24929404258728	fix_pre	0		120	22.0	2.5	/experiments/AOT/AOT_stimuli/rescaled_final/1806_fw.mp4	0.0	146.3682451248169	1.0001039505004883
24	121.4327940940857	pulse	0	t		22.0	2.5	/experiments/AOT/AOT_stimuli/rescaled_final/1806_fw.mp4	0.0	146.5517451763153	
24	122.24939799308777	movie	1		244	22.0	2.5	/experiments/AOT/AOT_stimuli/rescaled_final/1806_fw.mp4	0.0	147.36834907531738	2.49997615814209
24	123.03285002708435	pulse	1	t		22.0	2.5	/experiments/AOT/AOT_stimuli/rescaled_final/1806_fw.mp4	0.0	148.15180110931396	
24	124.63162803649902	pulse	1	t		22.0	2.5	/experiments/AOT/AOT_stimuli/rescaled_final/1806_fw.mp4	0.0	149.75057911872864	
24	124.74937415122986	fix_post	2		12	22.0	2.5	/experiments/AOT/AOT_stimuli/rescaled_final/1806_fw.mp4	0.0	149.86832523345947	0.09998703002929688
25	124.84936118125916	fix_pre	0		120	23.0	2.5	/experiments/AOT/AOT_stimuli/rescaled_final/0429_fw.mp4	0.0	149.96831226348877	1.000032901763916
25	125.84939408302307	movie	1		246	23.0	2.5	/experiments/AOT/AOT_stimuli/rescaled_final/0429_fw.mp4	0.0	150.96834516525269	2.4999659061431885
25	126.2324960231781	pulse	1	t		23.0	2.5	/experiments/AOT/AOT_stimuli/rescaled_final/0429_fw.mp4	0.0	151.35144710540771	
25	127.83281111717224	pulse	1	t		23.0	2.5	/experiments/AOT/AOT_stimuli/rescaled_final/0429_fw.mp4	0.0	152.95176219940186	
25	128.34935998916626	fix_post	2		12	23.0	2.5	/experiments/AOT/AOT_stimuli/rescaled_final/0429_fw.mp4	0.0	153.46831107139587	0.09992599487304688
26	128.4492859840393	fix_pre	0		119	24.0	2.5	/experiments/AOT/AOT_stimuli/rescaled_final/1277_fw.mp4	0.0	153.56823706626892	0.9917240142822266
26	129.43284702301025	pulse	0	t		24.0	2.5	/experiments/AOT/AOT_stimuli/rescaled_final/1277_fw.mp4	0.0	154.55179810523987	
26	129.44100999832153	movie	1		246	24.0	2.5	/experiments/AOT/AOT_stimuli/rescaled_final/1277_fw.mp4	0.0	154.55996108055115	2.5082931518554688
26	131.03305315971375	pulse	1	t		24.0	2.5	/experiments/AOT/AOT_stimuli/rescaled_final/1277_fw.mp4	0.0	156.15200424194336	
26	131.949303150177	fix_post	2		12	24.0	2.5	/experiments/AOT/AOT_stimuli/rescaled_final/1277_fw.mp4	0.0	157.06825423240662	0.10007786750793457
27	132.04938101768494	fix_pre	0		120	25.0	2.5	/experiments/AOT/AOT_stimuli/rescaled_final/0765_fw.mp4	0.0	157.16833209991455	0.9999301433563232
27	132.63282012939453	pulse	0	t		25.0	2.5	/experiments/AOT/AOT_stimuli/rescaled_final/0765_fw.mp4	0.0	157.75177121162415	
27	133.04931116104126	movie	1		246	25.0	2.5	/experiments/AOT/AOT_stimuli/rescaled_final/0765_fw.mp4	0.0	158.16826224327087	2.499905824661255
27	134.2328290939331	pulse	1	t		25.0	2.5	/experiments/AOT/AOT_stimuli/rescaled_final/0765_fw.mp4	0.0	159.35178017616272	
27	135.54921698570251	fix_post	2		12	25.0	2.5	/experiments/AOT/AOT_stimuli/rescaled_final/0765_fw.mp4	0.0	160.66816806793213	0.10000801086425781
28	135.64922499656677	fix_pre	0		120	26.0	2.5	/experiments/AOT/AOT_stimuli/rescaled_final/1064_fw.mp4	0.0	160.7681760787964	0.999967098236084
28	135.83276104927063	pulse	0	t		26.0	2.5	/experiments/AOT/AOT_stimuli/rescaled_final/1064_fw.mp4	0.0	160.95171213150024	
28	136.64919209480286	movie	1		243	26.0	2.5	/experiments/AOT/AOT_stimuli/rescaled_final/1064_fw.mp4	0.0	161.76814317703247	2.5001230239868164
28	137.4327371120453	pulse	1	t		26.0	2.5	/experiments/AOT/AOT_stimuli/rescaled_final/1064_fw.mp4	0.0	162.5516881942749	
28	139.0289921760559	pulse	1	t		26.0	2.5	/experiments/AOT/AOT_stimuli/rescaled_final/1064_fw.mp4	0.0	164.14794325828552	
28	139.14931511878967	fix_post	2		12	26.0	2.5	/experiments/AOT/AOT_stimuli/rescaled_final/1064_fw.mp4	0.0	164.2682662010193	0.09995293617248535
29	139.24926805496216	fix_pre	0		120	27.0	2.5	blank	1.0	164.36821913719177	1.000014066696167
29	140.24928212165833	movie	1		300	27.0	2.5	blank	1.0	165.36823320388794	2.5000898838043213
29	140.63277006149292	pulse	1	t		27.0	2.5	blank	1.0	165.75172114372253	
29	142.2327880859375	pulse	1	t		27.0	2.5	blank	1.0	167.35173916816711	
29	142.74937200546265	fix_post	2		12	27.0	2.5	blank	1.0	167.86832308769226	0.09995603561401367
30	142.84932804107666	fix_pre	0		119	28.0	2.5	/experiments/AOT/AOT_stimuli/rescaled_final/0523_fw.mp4	0.0	167.96827912330627	0.9916441440582275
30	143.8328959941864	pulse	0	t		28.0	2.5	/experiments/AOT/AOT_stimuli/rescaled_final/0523_fw.mp4	0.0	168.95184707641602	
30	143.8409721851349	movie	1		247	28.0	2.5	/experiments/AOT/AOT_stimuli/rescaled_final/0523_fw.mp4	0.0	168.9599232673645	2.508394956588745
30	145.43221712112427	pulse	1	t		28.0	2.5	/experiments/AOT/AOT_stimuli/rescaled_final/0523_fw.mp4	0.0	170.55116820335388	
30	146.34936714172363	fix_post	2		12	28.0	2.5	/experiments/AOT/AOT_stimuli/rescaled_final/0523_fw.mp4	0.0	171.46831822395325	0.09951090812683105
31	146.44887804985046	fix_pre	0		120	29.0	2.5	/experiments/AOT/AOT_stimuli/rescaled_final/1469_rv.mp4	0.0	171.56782913208008	1.000520944595337
31	147.0329930782318	pulse	0	t		29.0	2.5	/experiments/AOT/AOT_stimuli/rescaled_final/1469_rv.mp4	0.0	172.15194416046143	
31	147.4493989944458	movie	1		244	29.0	2.5	/experiments/AOT/AOT_stimuli/rescaled_final/1469_rv.mp4	0.0	172.56835007667542	2.4998481273651123
31	148.6326720714569	pulse	1	t		29.0	2.5	/experiments/AOT/AOT_stimuli/rescaled_final/1469_rv.mp4	0.0	173.75162315368652	
31	149.9492471218109	fix_post	2		12	29.0	2.5	/experiments/AOT/AOT_stimuli/rescaled_final/1469_rv.mp4	0.0	175.06819820404053	0.09992504119873047
32	150.04917216300964	fix_pre	0		120	30.0	2.5	/experiments/AOT/AOT_stimuli/rescaled_final/1813_fw.mp4	0.0	175.16812324523926	1.0001189708709717
32	150.23267698287964	pulse	0	t		30.0	2.5	/experiments/AOT/AOT_stimuli/rescaled_final/1813_fw.mp4	0.0	175.35162806510925	
32	151.04929113388062	movie	1		243	30.0	2.5	/experiments/AOT/AOT_stimuli/rescaled_final/1813_fw.mp4	0.0	176.16824221611023	2.499846935272217
32	151.83266496658325	pulse	1	t		30.0	2.5	/experiments/AOT/AOT_stimuli/rescaled_final/1813_fw.mp4	0.0	176.95161604881287	
32	153.43106198310852	pulse	1	t		30.0	2.5	/experiments/AOT/AOT_stimuli/rescaled_final/1813_fw.mp4	0.0	178.55001306533813	
32	153.54913806915283	fix_post	2		12	30.0	2.5	/experiments/AOT/AOT_stimuli/rescaled_final/1813_fw.mp4	0.0	178.66808915138245	0.10011792182922363
33	153.64925599098206	fix_pre	0		120	31.0	2.5	/experiments/AOT/AOT_stimuli/rescaled_final/0946_rv.mp4	0.0	178.76820707321167	0.9999799728393555
33	154.6492359638214	movie	1		244	31.0	2.5	/experiments/AOT/AOT_stimuli/rescaled_final/0946_rv.mp4	0.0	179.76818704605103	2.4999120235443115
33	155.03235411643982	pulse	1	t		31.0	2.5	/experiments/AOT/AOT_stimuli/rescaled_final/0946_rv.mp4	0.0	180.15130519866943	
33	156.63258004188538	pulse	1	t		31.0	2.5	/experiments/AOT/AOT_stimuli/rescaled_final/0946_rv.mp4	0.0	181.751531124115	
33	157.14914798736572	fix_post	2		12	31.0	2.5	/experiments/AOT/AOT_stimuli/rescaled_final/0946_rv.mp4	0.0	182.26809906959534	0.09997415542602539
34	157.24912214279175	fix_pre	0		119	32.0	2.5	/experiments/AOT/AOT_stimuli/rescaled_final/1232_fw.mp4	0.0	182.36807322502136	0.9916589260101318
34	158.23257899284363	pulse	0	t		32.0	2.5	/experiments/AOT/AOT_stimuli/rescaled_final/1232_fw.mp4	0.0	183.35153007507324	
34	158.24078106880188	movie	1		244	32.0	2.5	/experiments/AOT/AOT_stimuli/rescaled_final/1232_fw.mp4	0.0	183.3597321510315	2.508394956588745
34	159.83238816261292	pulse	1	t		32.0	2.5	/experiments/AOT/AOT_stimuli/rescaled_final/1232_fw.mp4	0.0	184.95133924484253	
34	160.74917602539062	fix_post	2		12	32.0	2.5	/experiments/AOT/AOT_stimuli/rescaled_final/1232_fw.mp4	0.0	185.86812710762024	0.09997296333312988
35	160.84914898872375	fix_pre	0		120	33.0	2.5	/experiments/AOT/AOT_stimuli/rescaled_final/1956_rv.mp4	0.0	185.96810007095337	1.0000290870666504
35	161.43265008926392	pulse	0	t		33.0	2.5	/experiments/AOT/AOT_stimuli/rescaled_final/1956_rv.mp4	0.0	186.55160117149353	
35	161.8491780757904	movie	1		243	33.0	2.5	/experiments/AOT/AOT_stimuli/rescaled_final/1956_rv.mp4	0.0	186.96812915802002	2.5000410079956055
35	163.03273510932922	pulse	1	t		33.0	2.5	/experiments/AOT/AOT_stimuli/rescaled_final/1956_rv.mp4	0.0	188.15168619155884	
35	164.349219083786	fix_post	2		12	33.0	2.5	/experiments/AOT/AOT_stimuli/rescaled_final/1956_rv.mp4	0.0	189.46817016601562	0.09992790222167969
36	164.4491469860077	fix_pre	0		120	34.0	2.5	blank	1.0	189.5680980682373	1.0000660419464111
36	164.63263511657715	pulse	0	t		34.0	2.5	blank	1.0	189.75158619880676	
36	165.4492130279541	movie	1		300	34.0	2.5	blank	1.0	190.56816411018372	2.499904155731201
36	166.2326591014862	pulse	1	t		34.0	2.5	blank	1.0	191.35161018371582	
36	167.83253407478333	pulse	1	t		34.0	2.5	blank	1.0	192.95148515701294	
36	167.9491171836853	fix_post	2		12	34.0	2.5	blank	1.0	193.06806826591492	0.10010886192321777
37	168.04922604560852	fix_pre	0		120	35.0	2.5	/experiments/AOT/AOT_stimuli/rescaled_final/0646_fw.mp4	0.0	193.16817712783813	0.9999539852142334
37	169.04918003082275	movie	1		245	35.0	2.5	/experiments/AOT/AOT_stimuli/rescaled_final/0646_fw.mp4	0.0	194.16813111305237	2.4999239444732666
37	169.43216514587402	pulse	1	t		35.0	2.5	/experiments/AOT/AOT_stimuli/rescaled_final/0646_fw.mp4	0.0	194.55111622810364	
37	171.03255319595337	pulse	1	t		35.0	2.5	/experiments/AOT/AOT_stimuli/rescaled_final/0646_fw.mp4	0.0	196.15150427818298	
37	171.54910397529602	fix_post	2		12	35.0	2.5	/experiments/AOT/AOT_stimuli/rescaled_final/0646_fw.mp4	0.0	196.66805505752563	0.10000014305114746
38	171.64910411834717	fix_pre	0		119	36.0	2.5	/experiments/AOT/AOT_stimuli/rescaled_final/1922_fw.mp4	0.0	196.76805520057678	0.9916908740997314
38	172.63265800476074	pulse	0	t		36.0	2.5	/experiments/AOT/AOT_stimuli/rescaled_final/1922_fw.mp4	0.0	197.75160908699036	
38	172.6407949924469	movie	1		245	36.0	2.5	/experiments/AOT/AOT_stimuli/rescaled_final/1922_fw.mp4	0.0	197.7597460746765	2.50822114944458
38	174.23258519172668	pulse	1	t		36.0	2.5	/experiments/AOT/AOT_stimuli/rescaled_final/1922_fw.mp4	0.0	199.3515362739563	
38	175.14901614189148	fix_post	2		12	36.0	2.5	/experiments/AOT/AOT_stimuli/rescaled_final/1922_fw.mp4	0.0	200.2679672241211	0.10010600090026855
39	175.24912214279175	fix_pre	0		120	37.0	2.5	/experiments/AOT/AOT_stimuli/rescaled_final/2167_fw.mp4	0.0	200.36807322502136	0.9998719692230225
39	175.83259415626526	pulse	0	t		37.0	2.5	/experiments/AOT/AOT_stimuli/rescaled_final/2167_fw.mp4	0.0	200.95154523849487	
39	176.24899411201477	movie	1		243	37.0	2.5	/experiments/AOT/AOT_stimuli/rescaled_final/2167_fw.mp4	0.0	201.36794519424438	2.5000438690185547
39	177.43265914916992	pulse	1	t		37.0	2.5	/experiments/AOT/AOT_stimuli/rescaled_final/2167_fw.mp4	0.0	202.55161023139954	
39	178.74903798103333	fix_post	2		12	37.0	2.5	/experiments/AOT/AOT_stimuli/rescaled_final/2167_fw.mp4	0.0	203.86798906326294	0.1000680923461914
40	178.84910607337952	fix_pre	0		120	38.0	2.5	/experiments/AOT/AOT_stimuli/rescaled_final/1956_fw.mp4	0.0	203.96805715560913	1.000040054321289
40	179.03261804580688	pulse	0	t		38.0	2.5	/experiments/AOT/AOT_stimuli/rescaled_final/1956_fw.mp4	0.0	204.1515691280365	
40	179.8491461277008	movie	1		244	38.0	2.5	/experiments/AOT/AOT_stimuli/rescaled_final/1956_fw.mp4	0.0	204.96809720993042	2.499907970428467
40	180.63254404067993	pulse	1	t		38.0	2.5	/experiments/AOT/AOT_stimuli/rescaled_final/1956_fw.mp4	0.0	205.75149512290955	
40	182.23105216026306	pulse	1	t		38.0	2.5	/experiments/AOT/AOT_stimuli/rescaled_final/1956_fw.mp4	0.0	207.35000324249268	
40	182.34905409812927	fix_post	2		12	38.0	2.5	/experiments/AOT/AOT_stimuli/rescaled_final/1956_fw.mp4	0.0	207.4680051803589	0.10000896453857422
41	182.44906306266785	fix_pre	0		120	39.0	2.5	/experiments/AOT/AOT_stimuli/rescaled_final/0325_fw.mp4	0.0	207.56801414489746	0.9999361038208008
41	183.44899916648865	movie	1		244	39.0	2.5	/experiments/AOT/AOT_stimuli/rescaled_final/0325_fw.mp4	0.0	208.56795024871826	2.500030994415283
41	183.83208012580872	pulse	1	t		39.0	2.5	/experiments/AOT/AOT_stimuli/rescaled_final/0325_fw.mp4	0.0	208.95103120803833	
41	185.43251705169678	pulse	1	t		39.0	2.5	/experiments/AOT/AOT_stimuli/rescaled_final/0325_fw.mp4	0.0	210.5514681339264	
41	185.94903016090393	fix_post	2		12	39.0	2.5	/experiments/AOT/AOT_stimuli/rescaled_final/0325_fw.mp4	0.0	211.06798124313354	0.10003089904785156
42	186.04906105995178	fix_pre	0		119	40.0	2.5	blank	1.0	211.1680121421814	0.9916090965270996
42	187.03255009651184	pulse	0	t		40.0	2.5	blank	1.0	212.15150117874146	
42	187.04067015647888	movie	1		301	40.0	2.5	blank	1.0	212.1596212387085	2.508481979370117
42	188.63257312774658	pulse	1	t		40.0	2.5	blank	1.0	213.7515242099762	
42	189.549152135849	fix_post	2		12	40.0	2.5	blank	1.0	214.6681032180786	0.0998380184173584
43	189.64899015426636	fix_pre	0		120	41.0	2.5	/experiments/AOT/AOT_stimuli/rescaled_final/1245_rv.mp4	0.0	214.76794123649597	1.000046968460083
43	190.23251104354858	pulse	0	t		41.0	2.5	/experiments/AOT/AOT_stimuli/rescaled_final/1245_rv.mp4	0.0	215.3514621257782	
43	190.64903712272644	movie	1		243	41.0	2.5	/experiments/AOT/AOT_stimuli/rescaled_final/1245_rv.mp4	0.0	215.76798820495605	2.499932050704956
43	191.83255696296692	pulse	1	t		41.0	2.5	/experiments/AOT/AOT_stimuli/rescaled_final/1245_rv.mp4	0.0	216.95150804519653	
43	193.1489691734314	fix_post	2		12	41.0	2.5	/experiments/AOT/AOT_stimuli/rescaled_final/1245_rv.mp4	0.0	218.267920255661	0.10000801086425781
44	193.24897718429565	fix_pre	0		120	42.0	2.5	/experiments/AOT/AOT_stimuli/rescaled_final/0730_rv.mp4	0.0	218.36792826652527	1.0000128746032715
44	193.4325520992279	pulse	0	t		42.0	2.5	/experiments/AOT/AOT_stimuli/rescaled_final/0730_rv.mp4	0.0	218.55150318145752	
44	194.24899005889893	movie	1		245	42.0	2.5	/experiments/AOT/AOT_stimuli/rescaled_final/0730_rv.mp4	0.0	219.36794114112854	2.500006914138794
44	195.03244400024414	pulse	1	t		42.0	2.5	/experiments/AOT/AOT_stimuli/rescaled_final/0730_rv.mp4	0.0	220.15139508247375	
44	196.63119506835938	pulse	1	t		42.0	2.5	/experiments/AOT/AOT_stimuli/rescaled_final/0730_rv.mp4	0.0	221.750146150589	
44	196.74899697303772	fix_post	2		12	42.0	2.5	/experiments/AOT/AOT_stimuli/rescaled_final/0730_rv.mp4	0.0	221.86794805526733	0.09998822212219238
45	196.8489851951599	fix_pre	0		120	43.0	2.5	/experiments/AOT/AOT_stimuli/rescaled_final/1717_rv.mp4	0.0	221.96793627738953	1.00003981590271
45	197.84902501106262	movie	1		243	43.0	2.5	/experiments/AOT/AOT_stimuli/rescaled_final/1717_rv.mp4	0.0	222.96797609329224	2.4999570846557617
45	198.23224210739136	pulse	1	t		43.0	2.5	/experiments/AOT/AOT_stimuli/rescaled_final/1717_rv.mp4	0.0	223.35119318962097	
45	199.83246302604675	pulse	1	t		43.0	2.5	/experiments/AOT/AOT_stimuli/rescaled_final/1717_rv.mp4	0.0	224.95141410827637	
45	200.34898209571838	fix_post	2		12	43.0	2.5	/experiments/AOT/AOT_stimuli/rescaled_final/1717_rv.mp4	0.0	225.467933177948	0.09997701644897461
46	200.44895911216736	fix_pre	0		119	44.0	2.5	/experiments/AOT/AOT_stimuli/rescaled_final/1646_fw.mp4	0.0	225.56791019439697	0.9916338920593262
46	201.4324381351471	pulse	0	t		44.0	2.5	/experiments/AOT/AOT_stimuli/rescaled_final/1646_fw.mp4	0.0	226.5513892173767	
46	201.44059300422668	movie	1		245	44.0	2.5	/experiments/AOT/AOT_stimuli/rescaled_final/1646_fw.mp4	0.0	226.5595440864563	2.508618116378784
46	203.03216910362244	pulse	1	t		44.0	2.5	/experiments/AOT/AOT_stimuli/rescaled_final/1646_fw.mp4	0.0	228.15112018585205	
46	203.94921112060547	fix_post	2		12	44.0	2.5	/experiments/AOT/AOT_stimuli/rescaled_final/1646_fw.mp4	0.0	229.06816220283508	0.10004091262817383
47	204.04925203323364	fix_pre	0		120	45.0	2.5	/experiments/AOT/AOT_stimuli/rescaled_final/1056_fw.mp4	0.0	229.16820311546326	0.9997029304504395
47	204.63238215446472	pulse	0	t		45.0	2.5	/experiments/AOT/AOT_stimuli/rescaled_final/1056_fw.mp4	0.0	229.75133323669434	
47	205.04895496368408	movie	1		242	45.0	2.5	/experiments/AOT/AOT_stimuli/rescaled_final/1056_fw.mp4	0.0	230.1679060459137	2.499932050704956
47	206.2325141429901	pulse	1	t		45.0	2.5	/experiments/AOT/AOT_stimuli/rescaled_final/1056_fw.mp4	0.0	231.35146522521973	
47	207.54888701438904	fix_post	2		12	45.0	2.5	/experiments/AOT/AOT_stimuli/rescaled_final/1056_fw.mp4	0.0	232.66783809661865	0.10000801086425781
48	207.6488950252533	fix_pre	0		120	46.0	2.5	/experiments/AOT/AOT_stimuli/rescaled_final/1071_fw.mp4	0.0	232.7678461074829	0.9999830722808838
48	207.83243203163147	pulse	0	t		46.0	2.5	/experiments/AOT/AOT_stimuli/rescaled_final/1071_fw.mp4	0.0	232.95138311386108	
48	208.64887809753418	movie	1		246	46.0	2.5	/experiments/AOT/AOT_stimuli/rescaled_final/1071_fw.mp4	0.0	233.7678291797638	2.5000100135803223
48	209.43227314949036	pulse	1	t		46.0	2.5	/experiments/AOT/AOT_stimuli/rescaled_final/1071_fw.mp4	0.0	234.55122423171997	
48	211.03112697601318	pulse	1	t		46.0	2.5	/experiments/AOT/AOT_stimuli/rescaled_final/1071_fw.mp4	0.0	236.1500780582428	
48	211.1488881111145	fix_post	2		12	46.0	2.5	/experiments/AOT/AOT_stimuli/rescaled_final/1071_fw.mp4	0.0	236.26783919334412	0.09994196891784668
49	211.24883008003235	fix_pre	0		120	47.0	2.5	blank	1.0	236.36778116226196	1.0000779628753662
49	212.24890804290771	movie	1		300	47.0	2.5	blank	1.0	237.36785912513733	2.49991512298584
49	212.63238215446472	pulse	1	t		47.0	2.5	blank	1.0	237.75133323669434	
49	214.23233819007874	pulse	1	t		47.0	2.5	blank	1.0	239.35128927230835	
49	214.74882316589355	fix_post	2		12	47.0	2.5	blank	1.0	239.86777424812317	0.10010600090026855
50	214.84892916679382	fix_pre	0		119	48.0	2.5	/experiments/AOT/AOT_stimuli/rescaled_final/1574_rv.mp4	0.0	239.96788024902344	0.9915688037872314
50	215.83235216140747	pulse	0	t		48.0	2.5	/experiments/AOT/AOT_stimuli/rescaled_final/1574_rv.mp4	0.0	240.95130324363708	
50	215.84049797058105	movie	1		245	48.0	2.5	/experiments/AOT/AOT_stimuli/rescaled_final/1574_rv.mp4	0.0	240.95944905281067	2.5083670616149902
50	217.43254709243774	pulse	1	t		48.0	2.5	/experiments/AOT/AOT_stimuli/rescaled_final/1574_rv.mp4	0.0	242.55149817466736	
50	218.34886503219604	fix_post	2		12	48.0	2.5	/experiments/AOT/AOT_stimuli/rescaled_final/1574_rv.mp4	0.0	243.46781611442566	0.09999513626098633
51	218.44886016845703	fix_pre	0		120	49.0	2.5	/experiments/AOT/AOT_stimuli/rescaled_final/0727_rv.mp4	0.0	243.56781125068665	1.0000050067901611
51	219.03229904174805	pulse	0	t		49.0	2.5	/experiments/AOT/AOT_stimuli/rescaled_final/0727_rv.mp4	0.0	244.15125012397766	
51	219.4488651752472	movie	1		246	49.0	2.5	/experiments/AOT/AOT_stimuli/rescaled_final/0727_rv.mp4	0.0	244.5678162574768	2.5000100135803223
51	220.63234210014343	pulse	1	t		49.0	2.5	/experiments/AOT/AOT_stimuli/rescaled_final/0727_rv.mp4	0.0	245.75129318237305	
51	221.94887518882751	fix_post	2		12	49.0	2.5	/experiments/AOT/AOT_stimuli/rescaled_final/0727_rv.mp4	0.0	247.06782627105713	0.09999799728393555
52	222.04887318611145	fix_pre	0		120	50.0	2.5	/experiments/AOT/AOT_stimuli/rescaled_final/0458_fw.mp4	0.0	247.16782426834106	1.000046968460083
52	222.23235416412354	pulse	0	t		50.0	2.5	/experiments/AOT/AOT_stimuli/rescaled_final/0458_fw.mp4	0.0	247.35130524635315	
52	223.04892015457153	movie	1		245	50.0	2.5	/experiments/AOT/AOT_stimuli/rescaled_final/0458_fw.mp4	0.0	248.16787123680115	2.499908924102783
52	223.83226418495178	pulse	1	t		50.0	2.5	/experiments/AOT/AOT_stimuli/rescaled_final/0458_fw.mp4	0.0	248.9512152671814	
52	225.42840814590454	pulse	1	t		50.0	2.5	/experiments/AOT/AOT_stimuli/rescaled_final/0458_fw.mp4	0.0	250.54735922813416	
52	225.54882907867432	fix_post	2		12	50.0	2.5	/experiments/AOT/AOT_stimuli/rescaled_final/0458_fw.mp4	0.0	250.66778016090393	0.10004496574401855
53	225.64887404441833	fix_pre	0		120	51.0	2.5	/experiments/AOT/AOT_stimuli/rescaled_final/0620_rv.mp4	0.0	250.76782512664795	0.999906063079834
53	226.64878010749817	movie	1		246	51.0	2.5	/experiments/AOT/AOT_stimuli/rescaled_final/0620_rv.mp4	0.0	251.76773118972778	2.5000619888305664
53	227.03314113616943	pulse	1	t		51.0	2.5	/experiments/AOT/AOT_stimuli/rescaled_final/0620_rv.mp4	0.0	252.15209221839905	
53	228.63219809532166	pulse	1	t		51.0	2.5	/experiments/AOT/AOT_stimuli/rescaled_final/0620_rv.mp4	0.0	253.75114917755127	
53	229.14884209632874	fix_post	2		12	51.0	2.5	/experiments/AOT/AOT_stimuli/rescaled_final/0620_rv.mp4	0.0	254.26779317855835	0.10003900527954102
54	229.24888110160828	fix_pre	0		119	52.0	2.5	/experiments/AOT/AOT_stimuli/rescaled_final/1270_fw.mp4	0.0	254.3678321838379	0.9915990829467773
54	230.2323009967804	pulse	0	t		52.0	2.5	/experiments/AOT/AOT_stimuli/rescaled_final/1270_fw.mp4	0.0	255.35125207901	
54	230.24048018455505	movie	1		247	52.0	2.5	/experiments/AOT/AOT_stimuli/rescaled_final/1270_fw.mp4	0.0	255.35943126678467	2.5083398818969727
54	231.83187198638916	pulse	1	t		52.0	2.5	/experiments/AOT/AOT_stimuli/rescaled_final/1270_fw.mp4	0.0	256.9508230686188	
54	232.74882006645203	fix_post	2		12	52.0	2.5	/experiments/AOT/AOT_stimuli/rescaled_final/1270_fw.mp4	0.0	257.86777114868164	0.09985589981079102
55	232.84867596626282	fix_pre	0		120	53.0	2.5	/experiments/AOT/AOT_stimuli/rescaled_final/0458_rv.mp4	0.0	257.96762704849243	1.0000560283660889
55	233.4322531223297	pulse	0	t		53.0	2.5	/experiments/AOT/AOT_stimuli/rescaled_final/0458_rv.mp4	0.0	258.5512042045593	
55	233.8487319946289	movie	1		245	53.0	2.5	/experiments/AOT/AOT_stimuli/rescaled_final/0458_rv.mp4	0.0	258.9676830768585	2.500054121017456
55	235.03229403495789	pulse	1	t		53.0	2.5	/experiments/AOT/AOT_stimuli/rescaled_final/0458_rv.mp4	0.0	260.1512451171875	
55	236.34878611564636	fix_post	2		12	53.0	2.5	/experiments/AOT/AOT_stimuli/rescaled_final/0458_rv.mp4	0.0	261.467737197876	0.09997892379760742
56	236.44876503944397	fix_pre	0		120	54.0	2.5	blank	1.0	261.5677161216736	1.0000190734863281
56	236.63225317001343	pulse	0	t		54.0	2.5	blank	1.0	261.75120425224304	
56	237.4487841129303	movie	1		300	54.0	2.5	blank	1.0	262.5677351951599	2.500032901763916
56	238.23230814933777	pulse	1	t		54.0	2.5	blank	1.0	263.3512592315674	
56	239.83222007751465	pulse	1	t		54.0	2.5	blank	1.0	264.95117115974426	
56	239.9488170146942	fix_post	2		12	54.0	2.5	blank	1.0	265.0677680969238	0.09990310668945312
57	240.04872012138367	fix_pre	0		120	55.0	2.5	/experiments/AOT/AOT_stimuli/rescaled_final/1670_rv.mp4	0.0	265.1676712036133	1.0000948905944824
57	241.04881501197815	movie	1		245	55.0	2.5	/experiments/AOT/AOT_stimuli/rescaled_final/1670_rv.mp4	0.0	266.16776609420776	2.4999191761016846
57	241.4319350719452	pulse	1	t		55.0	2.5	/experiments/AOT/AOT_stimuli/rescaled_final/1670_rv.mp4	0.0	266.5508861541748	
57	243.03221797943115	pulse	1	t		55.0	2.5	/experiments/AOT/AOT_stimuli/rescaled_final/1670_rv.mp4	0.0	268.15116906166077	
57	243.54873418807983	fix_post	2		12	55.0	2.5	/experiments/AOT/AOT_stimuli/rescaled_final/1670_rv.mp4	0.0	268.66768527030945	0.10000300407409668
58	243.64873719215393	fix_pre	0		119	56.0	2.5	/experiments/AOT/AOT_stimuli/rescaled_final/1574_rv.mp4	0.0	268.76768827438354	0.9917058944702148
58	244.6322741508484	pulse	0	t		56.0	2.5	/experiments/AOT/AOT_stimuli/rescaled_final/1574_rv.mp4	0.0	269.751225233078	
58	244.64044308662415	movie	1		245	56.0	2.5	/experiments/AOT/AOT_stimuli/rescaled_final/1574_rv.mp4	0.0	269.75939416885376	2.5083680152893066
58	246.23177313804626	pulse	1	t		56.0	2.5	/experiments/AOT/AOT_stimuli/rescaled_final/1574_rv.mp4	0.0	271.3507242202759	
58	247.14881110191345	fix_post	2		12	56.0	2.5	/experiments/AOT/AOT_stimuli/rescaled_final/1574_rv.mp4	0.0	272.26776218414307	0.09986686706542969
59	247.24867796897888	fix_pre	0		120	57.0	2.5	/experiments/AOT/AOT_stimuli/rescaled_final/1198_rv.mp4	0.0	272.3676290512085	1.000082015991211
59	247.83217597007751	pulse	0	t		57.0	2.5	/experiments/AOT/AOT_stimuli/rescaled_final/1198_rv.mp4	0.0	272.95112705230713	
59	248.2487599849701	movie	1		243	57.0	2.5	/experiments/AOT/AOT_stimuli/rescaled_final/1198_rv.mp4	0.0	273.3677110671997	2.4999661445617676
59	249.4322600364685	pulse	1	t		57.0	2.5	/experiments/AOT/AOT_stimuli/rescaled_final/1198_rv.mp4	0.0	274.5512111186981	
59	250.74872612953186	fix_post	2		12	57.0	2.5	/experiments/AOT/AOT_stimuli/rescaled_final/1198_rv.mp4	0.0	275.8676772117615	0.09990191459655762
60	250.84862804412842	fix_pre	0		120	58.0	2.5	/experiments/AOT/AOT_stimuli/rescaled_final/1736_rv.mp4	0.0	275.96757912635803	1.0000810623168945
60	251.0321819782257	pulse	0	t		58.0	2.5	/experiments/AOT/AOT_stimuli/rescaled_final/1736_rv.mp4	0.0	276.1511330604553	
60	251.8487091064453	movie	1		243	58.0	2.5	/experiments/AOT/AOT_stimuli/rescaled_final/1736_rv.mp4	0.0	276.9676601886749	2.5000240802764893
60	252.63219618797302	pulse	1	t		58.0	2.5	/experiments/AOT/AOT_stimuli/rescaled_final/1736_rv.mp4	0.0	277.75114727020264	
60	254.23103713989258	pulse	1	t		58.0	2.5	/experiments/AOT/AOT_stimuli/rescaled_final/1736_rv.mp4	0.0	279.3499882221222	
60	254.3487331867218	fix_post	2		12	58.0	2.5	/experiments/AOT/AOT_stimuli/rescaled_final/1736_rv.mp4	0.0	279.4676842689514	0.09998178482055664
61	254.44871497154236	fix_pre	0		120	59.0	2.5	/experiments/AOT/AOT_stimuli/rescaled_final/1106_rv.mp4	0.0	279.567666053772	1.0000331401824951
61	255.44874811172485	movie	1		245	59.0	2.5	/experiments/AOT/AOT_stimuli/rescaled_final/1106_rv.mp4	0.0	280.56769919395447	2.4996609687805176
61	255.83193707466125	pulse	1	t		59.0	2.5	/experiments/AOT/AOT_stimuli/rescaled_final/1106_rv.mp4	0.0	280.95088815689087	
61	257.4317400455475	pulse	1	t		59.0	2.5	/experiments/AOT/AOT_stimuli/rescaled_final/1106_rv.mp4	0.0	282.5506911277771	
61	257.94840908050537	fix_post	2		12	59.0	2.5	/experiments/AOT/AOT_stimuli/rescaled_final/1106_rv.mp4	0.0	283.067360162735	0.09986591339111328
62	258.0482749938965	fix_pre	0		119	60.0	2.5	/experiments/AOT/AOT_stimuli/rescaled_final/0904_rv.mp4	0.0	283.1672260761261	0.9917311668395996
62	259.0319001674652	pulse	0	t		60.0	2.5	/experiments/AOT/AOT_stimuli/rescaled_final/0904_rv.mp4	0.0	284.1508512496948	
62	259.0400061607361	movie	1		246	60.0	2.5	/experiments/AOT/AOT_stimuli/rescaled_final/0904_rv.mp4	0.0	284.1589572429657	2.5087180137634277
62	260.6321141719818	pulse	1	t		60.0	2.5	/experiments/AOT/AOT_stimuli/rescaled_final/0904_rv.mp4	0.0	285.7510652542114	
62	261.5487241744995	fix_post	2		12	60.0	2.5	/experiments/AOT/AOT_stimuli/rescaled_final/0904_rv.mp4	0.0	286.6676752567291	0.09998583793640137
63	261.6487100124359	fix_pre	0		120	61.0	2.5	/experiments/AOT/AOT_stimuli/rescaled_final/0182_fw.mp4	0.0	286.7676610946655	0.999932050704956
63	262.2321631908417	pulse	0	t		61.0	2.5	/experiments/AOT/AOT_stimuli/rescaled_final/0182_fw.mp4	0.0	287.3511142730713	
63	262.64864206314087	movie	1		243	61.0	2.5	/experiments/AOT/AOT_stimuli/rescaled_final/0182_fw.mp4	0.0	287.7675931453705	2.499936103820801
63	263.8321900367737	pulse	1	t		61.0	2.5	/experiments/AOT/AOT_stimuli/rescaled_final/0182_fw.mp4	0.0	288.9511411190033	
63	265.14857816696167	fix_post	2		12	61.0	2.5	/experiments/AOT/AOT_stimuli/rescaled_final/0182_fw.mp4	0.0	290.2675292491913	0.09994792938232422
64	265.248526096344	fix_pre	0		120	62.0	2.5	/experiments/AOT/AOT_stimuli/rescaled_final/1505_fw.mp4	0.0	290.3674771785736	1.0001120567321777
64	265.43202209472656	pulse	0	t		62.0	2.5	/experiments/AOT/AOT_stimuli/rescaled_final/1505_fw.mp4	0.0	290.5509731769562	
64	266.2486381530762	movie	1		244	62.0	2.5	/experiments/AOT/AOT_stimuli/rescaled_final/1505_fw.mp4	0.0	291.3675892353058	2.4999020099639893
64	267.0320770740509	pulse	1	t		62.0	2.5	/experiments/AOT/AOT_stimuli/rescaled_final/1505_fw.mp4	0.0	292.1510281562805	
64	268.6306941509247	pulse	1	t		62.0	2.5	/experiments/AOT/AOT_stimuli/rescaled_final/1505_fw.mp4	0.0	293.7496452331543	
64	268.74854016304016	fix_post	2		12	62.0	2.5	/experiments/AOT/AOT_stimuli/rescaled_final/1505_fw.mp4	0.0	293.8674912452698	0.10003995895385742
65	268.848580121994	fix_pre	0		120	63.0	2.5	blank	1.0	293.96753120422363	0.9999949932098389
65	269.84857511520386	movie	1		300	63.0	2.5	blank	1.0	294.9675261974335	2.500098943710327
65	270.2320420742035	pulse	1	t		63.0	2.5	blank	1.0	295.3509931564331	
65	271.8319971561432	pulse	1	t		63.0	2.5	blank	1.0	296.9509482383728	
65	272.3486740589142	fix_post	2		12	63.0	2.5	blank	1.0	297.4676251411438	0.09992194175720215
66	272.4485960006714	fix_pre	0		119	64.0	2.5	/experiments/AOT/AOT_stimuli/rescaled_final/0182_rv.mp4	0.0	297.567547082901	0.9916641712188721
66	273.4321200847626	pulse	0	t		64.0	2.5	/experiments/AOT/AOT_stimuli/rescaled_final/0182_rv.mp4	0.0	298.5510711669922	
66	273.44026017189026	movie	1		248	64.0	2.5	/experiments/AOT/AOT_stimuli/rescaled_final/0182_rv.mp4	0.0	298.5592112541199	2.5083649158477783
66	275.03178811073303	pulse	1	t		64.0	2.5	/experiments/AOT/AOT_stimuli/rescaled_final/0182_rv.mp4	0.0	300.15073919296265	
66	275.94862508773804	fix_post	2		12	64.0	2.5	/experiments/AOT/AOT_stimuli/rescaled_final/0182_rv.mp4	0.0	301.06757616996765	0.09995102882385254
67	276.0485761165619	fix_pre	0		120	65.0	2.5	/experiments/AOT/AOT_stimuli/rescaled_final/1956_rv.mp4	0.0	301.1675271987915	1.0000669956207275
67	276.63208508491516	pulse	0	t		65.0	2.5	/experiments/AOT/AOT_stimuli/rescaled_final/1956_rv.mp4	0.0	301.7510361671448	
67	277.0486431121826	movie	1		245	65.0	2.5	/experiments/AOT/AOT_stimuli/rescaled_final/1956_rv.mp4	0.0	302.16759419441223	2.4999070167541504
67	278.23215198516846	pulse	1	t		65.0	2.5	/experiments/AOT/AOT_stimuli/rescaled_final/1956_rv.mp4	0.0	303.35110306739807	
67	279.54855012893677	fix_post	2		12	65.0	2.5	/experiments/AOT/AOT_stimuli/rescaled_final/1956_rv.mp4	0.0	304.6675012111664	0.09996986389160156
68	279.64851999282837	fix_pre	0		120	66.0	2.5	/experiments/AOT/AOT_stimuli/rescaled_final/0888_fw.mp4	0.0	304.767471075058	1.0000391006469727
68	279.8320150375366	pulse	0	t		66.0	2.5	/experiments/AOT/AOT_stimuli/rescaled_final/0888_fw.mp4	0.0	304.95096611976624	
68	280.64855909347534	movie	1		242	66.0	2.5	/experiments/AOT/AOT_stimuli/rescaled_final/0888_fw.mp4	0.0	305.76751017570496	2.499985933303833
68	281.4321069717407	pulse	1	t		66.0	2.5	/experiments/AOT/AOT_stimuli/rescaled_final/0888_fw.mp4	0.0	306.55105805397034	
68	283.0303831100464	pulse	1	t		66.0	2.5	/experiments/AOT/AOT_stimuli/rescaled_final/0888_fw.mp4	0.0	308.149334192276	
68	283.1485450267792	fix_post	2		12	66.0	2.5	/experiments/AOT/AOT_stimuli/rescaled_final/0888_fw.mp4	0.0	308.2674961090088	0.1000361442565918
69	283.24858117103577	fix_pre	0		120	67.0	2.5	/experiments/AOT/AOT_stimuli/rescaled_final/0173_rv.mp4	0.0	308.3675322532654	1.0000338554382324
69	284.248615026474	movie	1		245	67.0	2.5	/experiments/AOT/AOT_stimuli/rescaled_final/0173_rv.mp4	0.0	309.3675661087036	2.5000109672546387
69	284.6316809654236	pulse	1	t		67.0	2.5	/experiments/AOT/AOT_stimuli/rescaled_final/0173_rv.mp4	0.0	309.7506320476532	
69	286.2320520877838	pulse	1	t		67.0	2.5	/experiments/AOT/AOT_stimuli/rescaled_final/0173_rv.mp4	0.0	311.3510031700134	
69	286.74862599372864	fix_post	2		12	67.0	2.5	/experiments/AOT/AOT_stimuli/rescaled_final/0173_rv.mp4	0.0	311.86757707595825	0.09995412826538086
70	286.848580121994	fix_pre	0		119	68.0	2.5	blank	1.0	311.96753120422363	0.991675853729248
70	287.83204317092896	pulse	0	t		68.0	2.5	blank	1.0	312.95099425315857	
70	287.84025597572327	movie	1		301	68.0	2.5	blank	1.0	312.9592070579529	2.5082809925079346
70	289.43204498291016	pulse	1	t		68.0	2.5	blank	1.0	314.55099606513977	
70	290.3485369682312	fix_post	2		12	68.0	2.5	blank	1.0	315.4674880504608	0.10001707077026367
71	290.44855403900146	fix_pre	0		120	69.0	2.5	/experiments/AOT/AOT_stimuli/rescaled_final/0557_fw.mp4	0.0	315.5675051212311	1.0000109672546387
71	291.0320301055908	pulse	0	t		69.0	2.5	/experiments/AOT/AOT_stimuli/rescaled_final/0557_fw.mp4	0.0	316.15098118782043	
71	291.4485650062561	movie	1		246	69.0	2.5	/experiments/AOT/AOT_stimuli/rescaled_final/0557_fw.mp4	0.0	316.5675160884857	2.4999990463256836
71	292.6320950984955	pulse	1	t		69.0	2.5	/experiments/AOT/AOT_stimuli/rescaled_final/0557_fw.mp4	0.0	317.7510461807251	
71	293.9485640525818	fix_post	2		12	69.0	2.5	/experiments/AOT/AOT_stimuli/rescaled_final/0557_fw.mp4	0.0	319.0675151348114	0.0998530387878418
72	294.04841709136963	fix_pre	0		120	70.0	2.5	/experiments/AOT/AOT_stimuli/rescaled_final/1469_fw.mp4	0.0	319.16736817359924	1.0000050067901611
72	294.23193407058716	pulse	0	t		70.0	2.5	/experiments/AOT/AOT_stimuli/rescaled_final/1469_fw.mp4	0.0	319.3508851528168	
72	295.0484220981598	movie	1		245	70.0	2.5	/experiments/AOT/AOT_stimuli/rescaled_final/1469_fw.mp4	0.0	320.1673731803894	2.50008487701416
72	295.83197712898254	pulse	1	t		70.0	2.5	/experiments/AOT/AOT_stimuli/rescaled_final/1469_fw.mp4	0.0	320.95092821121216	
72	297.43019914627075	pulse	1	t		70.0	2.5	/experiments/AOT/AOT_stimuli/rescaled_final/1469_fw.mp4	0.0	322.54915022850037	
72	297.54850697517395	fix_post	2		12	70.0	2.5	/experiments/AOT/AOT_stimuli/rescaled_final/1469_fw.mp4	0.0	322.66745805740356	0.09996604919433594
73	297.6484730243683	fix_pre	0		120	71.0	2.5	/experiments/AOT/AOT_stimuli/rescaled_final/1306_fw.mp4	0.0	322.7674241065979	1.0000319480895996
73	298.6485049724579	movie	1		246	71.0	2.5	/experiments/AOT/AOT_stimuli/rescaled_final/1306_fw.mp4	0.0	323.7674560546875	2.500040054321289
73	299.03286504745483	pulse	1	t		71.0	2.5	/experiments/AOT/AOT_stimuli/rescaled_final/1306_fw.mp4	0.0	324.15181612968445	
73	300.63215613365173	pulse	1	t		71.0	2.5	/experiments/AOT/AOT_stimuli/rescaled_final/1306_fw.mp4	0.0	325.75110721588135	
73	301.1485450267792	fix_post	2		12	71.0	2.5	/experiments/AOT/AOT_stimuli/rescaled_final/1306_fw.mp4	0.0	326.2674961090088	0.09997010231018066
74	301.24851512908936	fix_pre	0		119	72.0	2.5	/experiments/AOT/AOT_stimuli/rescaled_final/0378_fw.mp4	0.0	326.36746621131897	0.9915878772735596
74	302.2319221496582	pulse	0	t		72.0	2.5	/experiments/AOT/AOT_stimuli/rescaled_final/0378_fw.mp4	0.0	327.3508732318878	
74	302.2401030063629	movie	1		246	72.0	2.5	/experiments/AOT/AOT_stimuli/rescaled_final/0378_fw.mp4	0.0	327.35905408859253	2.5083491802215576
74	303.83139514923096	pulse	1	t		72.0	2.5	/experiments/AOT/AOT_stimuli/rescaled_final/0378_fw.mp4	0.0	328.95034623146057	
74	304.7484521865845	fix_post	2		12	72.0	2.5	/experiments/AOT/AOT_stimuli/rescaled_final/0378_fw.mp4	0.0	329.8674032688141	0.1000208854675293
75	304.848473072052	fix_pre	0		120	73.0	2.5	/experiments/AOT/AOT_stimuli/rescaled_final/2098_rv.mp4	0.0	329.9674241542816	0.9999849796295166
75	305.43193912506104	pulse	0	t		73.0	2.5	/experiments/AOT/AOT_stimuli/rescaled_final/2098_rv.mp4	0.0	330.55089020729065	
75	305.8484580516815	movie	1		246	73.0	2.5	/experiments/AOT/AOT_stimuli/rescaled_final/2098_rv.mp4	0.0	330.96740913391113	2.49993896484375
75	307.031888961792	pulse	1	t		73.0	2.5	/experiments/AOT/AOT_stimuli/rescaled_final/2098_rv.mp4	0.0	332.1508400440216	
75	308.34839701652527	fix_post	2		12	73.0	2.5	/experiments/AOT/AOT_stimuli/rescaled_final/2098_rv.mp4	0.0	333.4673480987549	0.09999608993530273
76	308.44839310646057	fix_pre	0		120	74.0	2.5	/experiments/AOT/AOT_stimuli/rescaled_final/0102_rv.mp4	0.0	333.5673441886902	1.0000290870666504
76	308.6318349838257	pulse	0	t		74.0	2.5	/experiments/AOT/AOT_stimuli/rescaled_final/0102_rv.mp4	0.0	333.7507860660553	
76	309.4484221935272	movie	1		245	74.0	2.5	/experiments/AOT/AOT_stimuli/rescaled_final/0102_rv.mp4	0.0	334.56737327575684	2.5
76	310.2319800853729	pulse	1	t		74.0	2.5	/experiments/AOT/AOT_stimuli/rescaled_final/0102_rv.mp4	0.0	335.35093116760254	
76	311.8279721736908	pulse	1	t		74.0	2.5	/experiments/AOT/AOT_stimuli/rescaled_final/0102_rv.mp4	0.0	336.9469232559204	
76	311.9484221935272	fix_post	2		12	74.0	2.5	/experiments/AOT/AOT_stimuli/rescaled_final/0102_rv.mp4	0.0	337.06737327575684	0.10004878044128418
77	312.0484709739685	fix_pre	0		120	75.0	2.5	blank	1.0	337.1674220561981	0.9994721412658691
77	313.0479431152344	movie	1		300	75.0	2.5	blank	1.0	338.166894197464	2.500732898712158
77	313.4315071105957	pulse	1	t		75.0	2.5	blank	1.0	338.5504581928253	
77	315.03168511390686	pulse	1	t		75.0	2.5	blank	1.0	340.1506361961365	
77	315.54867601394653	fix_post	2		12	75.0	2.5	blank	1.0	340.66762709617615	0.09954309463500977
78	315.64821910858154	fix_pre	0		119	76.0	2.5	/experiments/AOT/AOT_stimuli/rescaled_final/0958_rv.mp4	0.0	340.76717019081116	0.991811990737915
78	316.6319329738617	pulse	0	t		76.0	2.5	/experiments/AOT/AOT_stimuli/rescaled_final/0958_rv.mp4	0.0	341.7508840560913	
78	316.64003109931946	movie	1		247	76.0	2.5	/experiments/AOT/AOT_stimuli/rescaled_final/0958_rv.mp4	0.0	341.7589821815491	2.508394956588745
78	318.2318801879883	pulse	1	t		76.0	2.5	/experiments/AOT/AOT_stimuli/rescaled_final/0958_rv.mp4	0.0	343.3508312702179	
78	319.1484260559082	fix_post	2		12	76.0	2.5	/experiments/AOT/AOT_stimuli/rescaled_final/0958_rv.mp4	0.0	344.2673771381378	0.09998393058776855
79	319.248409986496	fix_pre	0		120	77.0	2.5	/experiments/AOT/AOT_stimuli/rescaled_final/1988_rv.mp4	0.0	344.3673610687256	1.000007152557373
79	319.83188700675964	pulse	0	t		77.0	2.5	/experiments/AOT/AOT_stimuli/rescaled_final/1988_rv.mp4	0.0	344.95083808898926	
79	320.24841713905334	movie	1		246	77.0	2.5	/experiments/AOT/AOT_stimuli/rescaled_final/1988_rv.mp4	0.0	345.36736822128296	2.499903917312622
79	321.4318480491638	pulse	1	t		77.0	2.5	/experiments/AOT/AOT_stimuli/rescaled_final/1988_rv.mp4	0.0	346.55079913139343	
79	322.74832105636597	fix_post	2		12	77.0	2.5	/experiments/AOT/AOT_stimuli/rescaled_final/1988_rv.mp4	0.0	347.8672721385956	0.10005402565002441
80	322.848375082016	fix_pre	0		120	78.0	2.5	/experiments/AOT/AOT_stimuli/rescaled_final/0906_fw.mp4	0.0	347.9673261642456	0.9999608993530273
80	323.03204917907715	pulse	0	t		78.0	2.5	/experiments/AOT/AOT_stimuli/rescaled_final/0906_fw.mp4	0.0	348.15100026130676	
80	323.848335981369	movie	1		249	78.0	2.5	/experiments/AOT/AOT_stimuli/rescaled_final/0906_fw.mp4	0.0	348.96728706359863	2.500033140182495
80	324.63177013397217	pulse	1	t		78.0	2.5	/experiments/AOT/AOT_stimuli/rescaled_final/0906_fw.mp4	0.0	349.7507212162018	
80	326.231822013855	pulse	1	t		78.0	2.5	/experiments/AOT/AOT_stimuli/rescaled_final/0906_fw.mp4	0.0	351.3507730960846	
80	326.3483691215515	fix_post	2		12	78.0	2.5	/experiments/AOT/AOT_stimuli/rescaled_final/0906_fw.mp4	0.0	351.4673202037811	0.09994387626647949
81	326.448312997818	fix_pre	0		120	79.0	2.5	/experiments/AOT/AOT_stimuli/rescaled_final/1075_fw.mp4	0.0	351.5672640800476	1.0000782012939453
81	327.44839119911194	movie	1		244	79.0	2.5	/experiments/AOT/AOT_stimuli/rescaled_final/1075_fw.mp4	0.0	352.56734228134155	2.4999327659606934
81	327.83155608177185	pulse	1	t		79.0	2.5	/experiments/AOT/AOT_stimuli/rescaled_final/1075_fw.mp4	0.0	352.95050716400146	
81	329.43176007270813	pulse	1	t		79.0	2.5	/experiments/AOT/AOT_stimuli/rescaled_final/1075_fw.mp4	0.0	354.55071115493774	
81	329.94832396507263	fix_post	2		12	79.0	2.5	/experiments/AOT/AOT_stimuli/rescaled_final/1075_fw.mp4	0.0	355.06727504730225	0.10010218620300293
82	330.04842615127563	fix_pre	0		119	80.0	2.5	/experiments/AOT/AOT_stimuli/rescaled_final/0974_rv.mp4	0.0	355.16737723350525	0.991461992263794
82	331.0318241119385	pulse	0	t		80.0	2.5	/experiments/AOT/AOT_stimuli/rescaled_final/0974_rv.mp4	0.0	356.1507751941681	
82	331.03988814353943	movie	1		246	80.0	2.5	/experiments/AOT/AOT_stimuli/rescaled_final/0974_rv.mp4	0.0	356.15883922576904	2.508427858352661
82	332.6315851211548	pulse	1	t		80.0	2.5	/experiments/AOT/AOT_stimuli/rescaled_final/0974_rv.mp4	0.0	357.7505362033844	
82	333.5483160018921	fix_post	2		12	80.0	2.5	/experiments/AOT/AOT_stimuli/rescaled_final/0974_rv.mp4	0.0	358.6672670841217	0.09998512268066406
83	333.64830112457275	fix_pre	0		120	81.0	2.5	/experiments/AOT/AOT_stimuli/rescaled_final/0946_fw.mp4	0.0	358.76725220680237	1.0000109672546387
83	334.23184418678284	pulse	0	t		81.0	2.5	/experiments/AOT/AOT_stimuli/rescaled_final/0946_fw.mp4	0.0	359.35079526901245	
83	334.6483120918274	movie	1		244	81.0	2.5	/experiments/AOT/AOT_stimuli/rescaled_final/0946_fw.mp4	0.0	359.767263174057	2.4999868869781494
83	335.83179903030396	pulse	1	t		81.0	2.5	/experiments/AOT/AOT_stimuli/rescaled_final/0946_fw.mp4	0.0	360.95075011253357	
83	337.14829897880554	fix_post	2		12	81.0	2.5	/experiments/AOT/AOT_stimuli/rescaled_final/0946_fw.mp4	0.0	362.26725006103516	0.09995508193969727
84	337.24825406074524	fix_pre	0		120	82.0	2.5	blank	1.0	362.36720514297485	1.0000789165496826
84	337.43179512023926	pulse	0	t		82.0	2.5	blank	1.0	362.5507462024689	
84	338.2483329772949	movie	1		300	82.0	2.5	blank	1.0	363.36728405952454	2.4999001026153564
84	339.0316791534424	pulse	1	t		82.0	2.5	blank	1.0	364.150630235672	
84	340.6318280696869	pulse	1	t		82.0	2.5	blank	1.0	365.7507791519165	
84	340.7482330799103	fix_post	2		12	82.0	2.5	blank	1.0	365.8671841621399	0.10001111030578613
85	340.84824419021606	fix_pre	0		120	83.0	2.5	/experiments/AOT/AOT_stimuli/rescaled_final/1306_fw.mp4	0.0	365.9671952724457	0.9999618530273438
85	341.8482060432434	movie	1		244	83.0	2.5	/experiments/AOT/AOT_stimuli/rescaled_final/1306_fw.mp4	0.0	366.967157125473	2.4999561309814453
85	342.23163414001465	pulse	1	t		83.0	2.5	/experiments/AOT/AOT_stimuli/rescaled_final/1306_fw.mp4	0.0	367.35058522224426	
85	343.8317131996155	pulse	1	t		83.0	2.5	/experiments/AOT/AOT_stimuli/rescaled_final/1306_fw.mp4	0.0	368.9506642818451	
85	344.34816217422485	fix_post	2		12	83.0	2.5	/experiments/AOT/AOT_stimuli/rescaled_final/1306_fw.mp4	0.0	369.46711325645447	0.10000300407409668
87	344.44816517829895	stim	0		1716					369.56711626052856	14.300059795379639
87	345.43178606033325	pulse	0	t						370.55073714256287	
87	347.03175616264343	pulse	0	t						372.15070724487305	
87	348.6316909790039	pulse	0	t						373.7506420612335	
87	350.2316641807556	pulse	0	t						375.35061526298523	
87	351.83168601989746	pulse	0	t						376.9506371021271	
87	353.43158197402954	pulse	0	t						378.55053305625916	
87	355.0316321849823	pulse	0	t						380.1505832672119	
87	356.63159918785095	pulse	0	t						381.75055027008057	
87	358.2316310405731	pulse	0	t						383.35058212280273	
