trial_nr	onset	event_type	phase	response	nr_frames	movie_index	movie_duration	movie_file	blank	onset_abs	duration
0	0.1333019733428955	stim	0		29					34.72470998764038	0.24167704582214355
0	0.3670480251312256	response	0	space						34.95845603942871	
1	0.37497901916503906	stim	0		4749					34.966387033462524	39.57482099533081
1	39.93974280357361	pulse	0	t						74.5311508178711	
1	39.94980001449585	stim	1		1717					74.54120802879333	14.308300971984863
1	41.53403687477112	pulse	1	t						76.1254448890686	
1	43.13406181335449	pulse	1	t						77.72546982765198	
1	44.734062910079956	pulse	1	t						79.32547092437744	
1	46.33410096168518	pulse	1	t						80.92550897598267	
1	47.93334197998047	pulse	1	t						82.52474999427795	
1	49.53335094451904	pulse	1	t						84.12475895881653	
1	51.13320994377136	pulse	1	t						85.72461795806885	
1	52.733245849609375	pulse	1	t						87.32465386390686	
2	54.25810098648071	fix_pre	0		10	0.0	2.5	/experiments/AOT/AOT_stimuli/rescaled_final/1184_rv.mp4	0.0	88.8495090007782	0.08441901206970215
2	54.33403301239014	pulse	0	t		0.0	2.5	/experiments/AOT/AOT_stimuli/rescaled_final/1184_rv.mp4	0.0	88.92544102668762	
2	54.342519998550415	movie	1		239	0.0	2.5	/experiments/AOT/AOT_stimuli/rescaled_final/1184_rv.mp4	0.0	88.9339280128479	2.506959915161133
2	55.94152593612671	pulse	1	t		0.0	2.5	/experiments/AOT/AOT_stimuli/rescaled_final/1184_rv.mp4	0.0	90.5329339504242	
2	56.84947991371155	fix_post	2		12	0.0	2.5	/experiments/AOT/AOT_stimuli/rescaled_final/1184_rv.mp4	0.0	91.44088792800903	0.10037899017333984
3	56.94985890388489	fix_pre	0		120	1.0	2.5	/experiments/AOT/AOT_stimuli/rescaled_final/0546_rv.mp4	0.0	91.54126691818237	1.0003540515899658
3	57.53402590751648	pulse	0	t		1.0	2.5	/experiments/AOT/AOT_stimuli/rescaled_final/0546_rv.mp4	0.0	92.12543392181396	
3	57.95021295547485	movie	1		243	1.0	2.5	/experiments/AOT/AOT_stimuli/rescaled_final/0546_rv.mp4	0.0	92.54162096977234	2.5004398822784424
3	59.14105987548828	pulse	1	t		1.0	2.5	/experiments/AOT/AOT_stimuli/rescaled_final/0546_rv.mp4	0.0	93.73246788978577	
3	60.450652837753296	fix_post	2		12	1.0	2.5	/experiments/AOT/AOT_stimuli/rescaled_final/0546_rv.mp4	0.0	95.04206085205078	0.09902715682983398
4	60.54967999458313	fix_pre	0		120	2.0	2.5	/experiments/AOT/AOT_stimuli/rescaled_final/1313_fw.mp4	0.0	95.14108800888062	1.000627040863037
4	60.73398494720459	pulse	0	t		2.0	2.5	/experiments/AOT/AOT_stimuli/rescaled_final/1313_fw.mp4	0.0	95.32539296150208	
4	61.55030703544617	movie	1		243	2.0	2.5	/experiments/AOT/AOT_stimuli/rescaled_final/1313_fw.mp4	0.0	96.14171504974365	2.5003998279571533
4	62.33416390419006	pulse	1	t		2.0	2.5	/experiments/AOT/AOT_stimuli/rescaled_final/1313_fw.mp4	0.0	96.92557191848755	
4	63.94170880317688	pulse	1	t		2.0	2.5	/experiments/AOT/AOT_stimuli/rescaled_final/1313_fw.mp4	0.0	98.53311681747437	
4	64.05070686340332	fix_post	2		12	2.0	2.5	/experiments/AOT/AOT_stimuli/rescaled_final/1313_fw.mp4	0.0	98.6421148777008	0.09925508499145508
5	64.14996194839478	fix_pre	0		120	3.0	2.5	/experiments/AOT/AOT_stimuli/rescaled_final/0862_fw.mp4	0.0	98.74136996269226	1.0006260871887207
5	65.1505880355835	movie	1		243	3.0	2.5	/experiments/AOT/AOT_stimuli/rescaled_final/0862_fw.mp4	0.0	99.74199604988098	2.4998137950897217
5	65.54163599014282	pulse	1	t		3.0	2.5	/experiments/AOT/AOT_stimuli/rescaled_final/0862_fw.mp4	0.0	100.13304400444031	
5	67.13397288322449	pulse	1	t		3.0	2.5	/experiments/AOT/AOT_stimuli/rescaled_final/0862_fw.mp4	0.0	101.72538089752197	
5	67.65040183067322	fix_post	2		12	3.0	2.5	/experiments/AOT/AOT_stimuli/rescaled_final/0862_fw.mp4	0.0	102.2418098449707	0.09931707382202148
6	67.74971890449524	fix_pre	0		119	4.0	2.5	/experiments/AOT/AOT_stimuli/rescaled_final/0423_rv.mp4	0.0	102.34112691879272	0.992142915725708
6	68.73360681533813	pulse	0	t		4.0	2.5	/experiments/AOT/AOT_stimuli/rescaled_final/0423_rv.mp4	0.0	103.32501482963562	
6	68.74186182022095	movie	1		246	4.0	2.5	/experiments/AOT/AOT_stimuli/rescaled_final/0423_rv.mp4	0.0	103.33326983451843	2.5083141326904297
6	70.33425092697144	pulse	1	t		4.0	2.5	/experiments/AOT/AOT_stimuli/rescaled_final/0423_rv.mp4	0.0	104.92565894126892	
6	71.25017595291138	fix_post	2		12	4.0	2.5	/experiments/AOT/AOT_stimuli/rescaled_final/0423_rv.mp4	0.0	105.84158396720886	0.09943485260009766
7	71.34961080551147	fix_pre	0		120	5.0	2.5	blank	1.0	105.94101881980896	1.0005249977111816
7	71.93458080291748	pulse	0	t		5.0	2.5	blank	1.0	106.52598881721497	
7	72.35013580322266	movie	1		300	5.0	2.5	blank	1.0	106.94154381752014	2.499500036239624
7	73.54108595848083	pulse	1	t		5.0	2.5	blank	1.0	108.13249397277832	
7	74.84963583946228	fix_post	2		12	5.0	2.5	blank	1.0	109.44104385375977	0.10044217109680176
8	74.95007801055908	fix_pre	0		120	6.0	2.5	/experiments/AOT/AOT_stimuli/rescaled_final/1750_rv.mp4	0.0	109.54148602485657	1.0006158351898193
8	75.13385796546936	pulse	0	t		6.0	2.5	/experiments/AOT/AOT_stimuli/rescaled_final/1750_rv.mp4	0.0	109.72526597976685	
8	75.9506938457489	movie	1		245	6.0	2.5	/experiments/AOT/AOT_stimuli/rescaled_final/1750_rv.mp4	0.0	110.54210186004639	2.499380111694336
8	76.73355102539062	pulse	1	t		6.0	2.5	/experiments/AOT/AOT_stimuli/rescaled_final/1750_rv.mp4	0.0	111.32495903968811	
8	78.33366894721985	pulse	1	t		6.0	2.5	/experiments/AOT/AOT_stimuli/rescaled_final/1750_rv.mp4	0.0	112.92507696151733	
8	78.45007395744324	fix_post	2		12	6.0	2.5	/experiments/AOT/AOT_stimuli/rescaled_final/1750_rv.mp4	0.0	113.04148197174072	0.09949398040771484
9	78.54956793785095	fix_pre	0		120	7.0	2.5	/experiments/AOT/AOT_stimuli/rescaled_final/0120_rv.mp4	0.0	113.14097595214844	1.0011210441589355
9	79.55068898200989	movie	1		245	7.0	2.5	/experiments/AOT/AOT_stimuli/rescaled_final/0120_rv.mp4	0.0	114.14209699630737	2.4993438720703125
9	79.93411588668823	pulse	1	t		7.0	2.5	/experiments/AOT/AOT_stimuli/rescaled_final/0120_rv.mp4	0.0	114.52552390098572	
9	81.53394794464111	pulse	1	t		7.0	2.5	/experiments/AOT/AOT_stimuli/rescaled_final/0120_rv.mp4	0.0	116.1253559589386	
9	82.0500328540802	fix_post	2		12	7.0	2.5	/experiments/AOT/AOT_stimuli/rescaled_final/0120_rv.mp4	0.0	116.64144086837769	0.09916996955871582
10	82.14920282363892	fix_pre	0		119	8.0	2.5	/experiments/AOT/AOT_stimuli/rescaled_final/0317_rv.mp4	0.0	116.7406108379364	0.9929289817810059
10	83.13413691520691	pulse	0	t		8.0	2.5	/experiments/AOT/AOT_stimuli/rescaled_final/0317_rv.mp4	0.0	117.7255449295044	
10	83.14213180541992	movie	1		247	8.0	2.5	/experiments/AOT/AOT_stimuli/rescaled_final/0317_rv.mp4	0.0	117.73353981971741	2.5083670616149902
10	84.73321890830994	pulse	1	t		8.0	2.5	/experiments/AOT/AOT_stimuli/rescaled_final/0317_rv.mp4	0.0	119.32462692260742	
10	85.65049886703491	fix_post	2		12	8.0	2.5	/experiments/AOT/AOT_stimuli/rescaled_final/0317_rv.mp4	0.0	120.2419068813324	0.09909915924072266
11	85.74959802627563	fix_pre	0		120	9.0	2.5	/experiments/AOT/AOT_stimuli/rescaled_final/1676_fw.mp4	0.0	120.34100604057312	1.0008158683776855
11	86.3337619304657	pulse	0	t		9.0	2.5	/experiments/AOT/AOT_stimuli/rescaled_final/1676_fw.mp4	0.0	120.92516994476318	
11	86.75041389465332	movie	1		244	9.0	2.5	/experiments/AOT/AOT_stimuli/rescaled_final/1676_fw.mp4	0.0	121.3418219089508	2.4987549781799316
11	87.9350688457489	pulse	1	t		9.0	2.5	/experiments/AOT/AOT_stimuli/rescaled_final/1676_fw.mp4	0.0	122.52647686004639	
11	89.24916887283325	fix_post	2		12	9.0	2.5	/experiments/AOT/AOT_stimuli/rescaled_final/1676_fw.mp4	0.0	123.84057688713074	0.10047197341918945
12	89.34964084625244	fix_pre	0		120	10.0	2.5	/experiments/AOT/AOT_stimuli/rescaled_final/0429_fw.mp4	0.0	123.94104886054993	1.0003540515899658
12	89.5338499546051	pulse	0	t		10.0	2.5	/experiments/AOT/AOT_stimuli/rescaled_final/0429_fw.mp4	0.0	124.12525796890259	
12	90.34999489784241	movie	1		243	10.0	2.5	/experiments/AOT/AOT_stimuli/rescaled_final/0429_fw.mp4	0.0	124.94140291213989	2.5000240802764893
12	91.13362097740173	pulse	1	t		10.0	2.5	/experiments/AOT/AOT_stimuli/rescaled_final/0429_fw.mp4	0.0	125.72502899169922	
12	92.74150490760803	pulse	1	t		10.0	2.5	/experiments/AOT/AOT_stimuli/rescaled_final/0429_fw.mp4	0.0	127.33291292190552	
12	92.8500189781189	fix_post	2		12	10.0	2.5	/experiments/AOT/AOT_stimuli/rescaled_final/0429_fw.mp4	0.0	127.44142699241638	0.09961891174316406
13	92.94963788986206	fix_pre	0		120	11.0	2.5	/experiments/AOT/AOT_stimuli/rescaled_final/1574_fw.mp4	0.0	127.54104590415955	1.0007591247558594
13	93.95039701461792	movie	1		244	11.0	2.5	/experiments/AOT/AOT_stimuli/rescaled_final/1574_fw.mp4	0.0	128.5418050289154	2.4995479583740234
13	94.34148287773132	pulse	1	t		11.0	2.5	/experiments/AOT/AOT_stimuli/rescaled_final/1574_fw.mp4	0.0	128.9328908920288	
13	95.9339690208435	pulse	1	t		11.0	2.5	/experiments/AOT/AOT_stimuli/rescaled_final/1574_fw.mp4	0.0	130.525377035141	
13	96.44994497299194	fix_post	2		12	11.0	2.5	/experiments/AOT/AOT_stimuli/rescaled_final/1574_fw.mp4	0.0	131.04135298728943	0.09960484504699707
14	96.54954981803894	fix_pre	0		119	12.0	2.5	/experiments/AOT/AOT_stimuli/rescaled_final/1342_rv.mp4	0.0	131.14095783233643	0.9920570850372314
14	97.53345203399658	pulse	0	t		12.0	2.5	/experiments/AOT/AOT_stimuli/rescaled_final/1342_rv.mp4	0.0	132.12486004829407	
14	97.54160690307617	movie	1		245	12.0	2.5	/experiments/AOT/AOT_stimuli/rescaled_final/1342_rv.mp4	0.0	132.13301491737366	2.508345127105713
14	99.14145588874817	pulse	1	t		12.0	2.5	/experiments/AOT/AOT_stimuli/rescaled_final/1342_rv.mp4	0.0	133.73286390304565	
14	100.04995203018188	fix_post	2		12	12.0	2.5	/experiments/AOT/AOT_stimuli/rescaled_final/1342_rv.mp4	0.0	134.64136004447937	0.09962582588195801
15	100.14957785606384	fix_pre	0		120	13.0	2.5	blank	1.0	134.74098587036133	1.0008201599121094
15	100.7339448928833	pulse	0	t		13.0	2.5	blank	1.0	135.3253529071808	
15	101.15039801597595	movie	1		300	13.0	2.5	blank	1.0	135.74180603027344	2.4987258911132812
15	102.3345959186554	pulse	1	t		13.0	2.5	blank	1.0	136.92600393295288	
15	103.64912390708923	fix_post	2		12	13.0	2.5	blank	1.0	138.24053192138672	0.10084390640258789
16	103.74996781349182	fix_pre	0		120	14.0	2.5	/experiments/AOT/AOT_stimuli/rescaled_final/1984_rv.mp4	0.0	138.3413758277893	1.0004141330718994
16	103.94127297401428	pulse	0	t		14.0	2.5	/experiments/AOT/AOT_stimuli/rescaled_final/1984_rv.mp4	0.0	138.53268098831177	
16	104.75038194656372	movie	1		245	14.0	2.5	/experiments/AOT/AOT_stimuli/rescaled_final/1984_rv.mp4	0.0	139.3417899608612	2.499105930328369
16	105.5338408946991	pulse	1	t		14.0	2.5	/experiments/AOT/AOT_stimuli/rescaled_final/1984_rv.mp4	0.0	140.12524890899658	
16	107.14142084121704	pulse	1	t		14.0	2.5	/experiments/AOT/AOT_stimuli/rescaled_final/1984_rv.mp4	0.0	141.73282885551453	
16	107.24948787689209	fix_post	2		12	14.0	2.5	/experiments/AOT/AOT_stimuli/rescaled_final/1984_rv.mp4	0.0	141.84089589118958	0.09998393058776855
17	107.34947180747986	fix_pre	0		120	15.0	2.5	/experiments/AOT/AOT_stimuli/rescaled_final/0898_fw.mp4	0.0	141.94087982177734	1.0000720024108887
17	108.34954380989075	movie	1		243	15.0	2.5	/experiments/AOT/AOT_stimuli/rescaled_final/0898_fw.mp4	0.0	142.94095182418823	2.500312089920044
17	108.74137282371521	pulse	1	t		15.0	2.5	/experiments/AOT/AOT_stimuli/rescaled_final/0898_fw.mp4	0.0	143.3327808380127	
17	110.33398699760437	pulse	1	t		15.0	2.5	/experiments/AOT/AOT_stimuli/rescaled_final/0898_fw.mp4	0.0	144.92539501190186	
17	110.84985589981079	fix_post	2		12	15.0	2.5	/experiments/AOT/AOT_stimuli/rescaled_final/0898_fw.mp4	0.0	145.44126391410828	0.09961295127868652
18	110.94946885108948	fix_pre	0		120	16.0	2.5	/experiments/AOT/AOT_stimuli/rescaled_final/0101_fw.mp4	0.0	145.54087686538696	1.0000531673431396
18	111.93372702598572	pulse	0	t		16.0	2.5	/experiments/AOT/AOT_stimuli/rescaled_final/0101_fw.mp4	0.0	146.5251350402832	
18	111.94952201843262	movie	1		244	16.0	2.5	/experiments/AOT/AOT_stimuli/rescaled_final/0101_fw.mp4	0.0	146.5409300327301	2.5086917877197266
18	113.54112982749939	pulse	1	t		16.0	2.5	/experiments/AOT/AOT_stimuli/rescaled_final/0101_fw.mp4	0.0	148.13253784179688	
18	114.45821380615234	fix_post	2		12	16.0	2.5	/experiments/AOT/AOT_stimuli/rescaled_final/0101_fw.mp4	0.0	149.04962182044983	0.09952807426452637
19	114.55774188041687	fix_pre	0		120	17.0	2.5	/experiments/AOT/AOT_stimuli/rescaled_final/1168_rv.mp4	0.0	149.14914989471436	1.0005509853363037
19	115.1337878704071	pulse	0	t		17.0	2.5	/experiments/AOT/AOT_stimuli/rescaled_final/1168_rv.mp4	0.0	149.7251958847046	
19	115.55829286575317	movie	1		245	17.0	2.5	/experiments/AOT/AOT_stimuli/rescaled_final/1168_rv.mp4	0.0	150.14970088005066	2.4997620582580566
19	116.74166083335876	pulse	1	t		17.0	2.5	/experiments/AOT/AOT_stimuli/rescaled_final/1168_rv.mp4	0.0	151.33306884765625	
19	118.05805492401123	fix_post	2		12	17.0	2.5	/experiments/AOT/AOT_stimuli/rescaled_final/1168_rv.mp4	0.0	152.64946293830872	0.09980988502502441
20	118.15786480903625	fix_pre	0		120	18.0	2.5	/experiments/AOT/AOT_stimuli/rescaled_final/0650_rv.mp4	0.0	152.74927282333374	1.0002021789550781
20	118.34090399742126	pulse	0	t		18.0	2.5	/experiments/AOT/AOT_stimuli/rescaled_final/0650_rv.mp4	0.0	152.93231201171875	
20	119.15806698799133	movie	1		243	18.0	2.5	/experiments/AOT/AOT_stimuli/rescaled_final/0650_rv.mp4	0.0	153.74947500228882	2.4998228549957275
20	119.93443703651428	pulse	1	t		18.0	2.5	/experiments/AOT/AOT_stimuli/rescaled_final/0650_rv.mp4	0.0	154.52584505081177	
20	121.5397379398346	pulse	1	t		18.0	2.5	/experiments/AOT/AOT_stimuli/rescaled_final/0650_rv.mp4	0.0	156.13114595413208	
20	121.65788984298706	fix_post	2		12	18.0	2.5	/experiments/AOT/AOT_stimuli/rescaled_final/0650_rv.mp4	0.0	156.24929785728455	0.09987115859985352
21	121.75776100158691	fix_pre	0		120	19.0	2.5	blank	1.0	156.3491690158844	1.0005548000335693
21	122.75831580162048	movie	1		300	19.0	2.5	blank	1.0	157.34972381591797	2.4995200634002686
21	123.14131283760071	pulse	1	t		19.0	2.5	blank	1.0	157.7327208518982	
21	124.73367500305176	pulse	1	t		19.0	2.5	blank	1.0	159.32508301734924	
21	125.25783586502075	fix_post	2		12	19.0	2.5	blank	1.0	159.84924387931824	0.1004190444946289
22	125.35825490951538	fix_pre	0		119	20.0	2.5	/experiments/AOT/AOT_stimuli/rescaled_final/0685_fw.mp4	0.0	159.94966292381287	0.9913129806518555
22	126.33390998840332	pulse	0	t		20.0	2.5	/experiments/AOT/AOT_stimuli/rescaled_final/0685_fw.mp4	0.0	160.9253180027008	
22	126.34956789016724	movie	1		247	20.0	2.5	/experiments/AOT/AOT_stimuli/rescaled_final/0685_fw.mp4	0.0	160.94097590446472	2.508620023727417
22	127.94113087654114	pulse	1	t		20.0	2.5	/experiments/AOT/AOT_stimuli/rescaled_final/0685_fw.mp4	0.0	162.53253889083862	
22	128.85818791389465	fix_post	2		12	20.0	2.5	/experiments/AOT/AOT_stimuli/rescaled_final/0685_fw.mp4	0.0	163.44959592819214	0.09949707984924316
23	128.9576849937439	fix_pre	0		120	21.0	2.5	/experiments/AOT/AOT_stimuli/rescaled_final/1928_rv.mp4	0.0	163.54909300804138	0.9996259212493896
23	129.53333282470703	pulse	0	t		21.0	2.5	/experiments/AOT/AOT_stimuli/rescaled_final/1928_rv.mp4	0.0	164.12474083900452	
23	129.9573109149933	movie	1		246	21.0	2.5	/experiments/AOT/AOT_stimuli/rescaled_final/1928_rv.mp4	0.0	164.54871892929077	2.500062942504883
23	131.14080381393433	pulse	1	t		21.0	2.5	/experiments/AOT/AOT_stimuli/rescaled_final/1928_rv.mp4	0.0	165.7322118282318	
23	132.45737385749817	fix_post	2		12	21.0	2.5	/experiments/AOT/AOT_stimuli/rescaled_final/1928_rv.mp4	0.0	167.04878187179565	0.10030102729797363
24	132.55767488479614	fix_pre	0		120	22.0	2.5	/experiments/AOT/AOT_stimuli/rescaled_final/0991_fw.mp4	0.0	167.14908289909363	1.0005850791931152
24	132.73362398147583	pulse	0	t		22.0	2.5	/experiments/AOT/AOT_stimuli/rescaled_final/0991_fw.mp4	0.0	167.32503199577332	
24	133.55825996398926	movie	1		244	22.0	2.5	/experiments/AOT/AOT_stimuli/rescaled_final/0991_fw.mp4	0.0	168.14966797828674	2.499464988708496
24	134.33437299728394	pulse	1	t		22.0	2.5	/experiments/AOT/AOT_stimuli/rescaled_final/0991_fw.mp4	0.0	168.92578101158142	
24	135.93961691856384	pulse	1	t		22.0	2.5	/experiments/AOT/AOT_stimuli/rescaled_final/0991_fw.mp4	0.0	170.53102493286133	
24	136.05772495269775	fix_post	2		12	22.0	2.5	/experiments/AOT/AOT_stimuli/rescaled_final/0991_fw.mp4	0.0	170.64913296699524	0.09989190101623535
25	136.157616853714	fix_pre	0		120	23.0	2.5	/experiments/AOT/AOT_stimuli/rescaled_final/0782_rv.mp4	0.0	170.74902486801147	1.0005950927734375
25	137.15821194648743	movie	1		244	23.0	2.5	/experiments/AOT/AOT_stimuli/rescaled_final/0782_rv.mp4	0.0	171.7496199607849	2.499901056289673
25	137.5409219264984	pulse	1	t		23.0	2.5	/experiments/AOT/AOT_stimuli/rescaled_final/0782_rv.mp4	0.0	172.1323299407959	
25	139.14115190505981	pulse	1	t		23.0	2.5	/experiments/AOT/AOT_stimuli/rescaled_final/0782_rv.mp4	0.0	173.7325599193573	
25	139.6581130027771	fix_post	2		12	23.0	2.5	/experiments/AOT/AOT_stimuli/rescaled_final/0782_rv.mp4	0.0	174.24952101707458	0.09961295127868652
26	139.7577259540558	fix_pre	0		119	24.0	2.5	/experiments/AOT/AOT_stimuli/rescaled_final/1973_fw.mp4	0.0	174.34913396835327	0.9916598796844482
26	140.74072790145874	pulse	0	t		24.0	2.5	/experiments/AOT/AOT_stimuli/rescaled_final/1973_fw.mp4	0.0	175.33213591575623	
26	140.74938583374023	movie	1		246	24.0	2.5	/experiments/AOT/AOT_stimuli/rescaled_final/1973_fw.mp4	0.0	175.34079384803772	2.508754014968872
26	142.34237599372864	pulse	1	t		24.0	2.5	/experiments/AOT/AOT_stimuli/rescaled_final/1973_fw.mp4	0.0	176.93378400802612	
26	143.2581398487091	fix_post	2		12	24.0	2.5	/experiments/AOT/AOT_stimuli/rescaled_final/1973_fw.mp4	0.0	177.8495478630066	0.09951901435852051
27	143.35765886306763	fix_pre	0		120	25.0	2.5	/experiments/AOT/AOT_stimuli/rescaled_final/1793_rv.mp4	0.0	177.9490668773651	0.9996099472045898
27	143.93410086631775	pulse	0	t		25.0	2.5	/experiments/AOT/AOT_stimuli/rescaled_final/1793_rv.mp4	0.0	178.52550888061523	
27	144.35726881027222	movie	1		245	25.0	2.5	/experiments/AOT/AOT_stimuli/rescaled_final/1793_rv.mp4	0.0	178.9486768245697	2.500371217727661
27	145.53382396697998	pulse	1	t		25.0	2.5	/experiments/AOT/AOT_stimuli/rescaled_final/1793_rv.mp4	0.0	180.12523198127747	
27	146.85764002799988	fix_post	2		12	25.0	2.5	/experiments/AOT/AOT_stimuli/rescaled_final/1793_rv.mp4	0.0	181.44904804229736	0.10003280639648438
28	146.95767283439636	fix_pre	0		120	26.0	2.5	/experiments/AOT/AOT_stimuli/rescaled_final/1145_rv.mp4	0.0	181.54908084869385	1.0004081726074219
28	147.1335859298706	pulse	0	t		26.0	2.5	/experiments/AOT/AOT_stimuli/rescaled_final/1145_rv.mp4	0.0	181.7249939441681	
28	147.95808100700378	movie	1		245	26.0	2.5	/experiments/AOT/AOT_stimuli/rescaled_final/1145_rv.mp4	0.0	182.54948902130127	2.4991908073425293
28	148.7336688041687	pulse	1	t		26.0	2.5	/experiments/AOT/AOT_stimuli/rescaled_final/1145_rv.mp4	0.0	183.3250768184662	
28	150.33434796333313	pulse	1	t		26.0	2.5	/experiments/AOT/AOT_stimuli/rescaled_final/1145_rv.mp4	0.0	184.92575597763062	
28	150.4572718143463	fix_post	2		12	26.0	2.5	/experiments/AOT/AOT_stimuli/rescaled_final/1145_rv.mp4	0.0	185.0486798286438	0.10037899017333984
29	150.55765080451965	fix_pre	0		120	27.0	2.5	/experiments/AOT/AOT_stimuli/rescaled_final/1742_rv.mp4	0.0	185.14905881881714	1.0008060932159424
29	151.5584568977356	movie	1		243	27.0	2.5	/experiments/AOT/AOT_stimuli/rescaled_final/1742_rv.mp4	0.0	186.14986491203308	2.4987220764160156
29	151.94046092033386	pulse	1	t		27.0	2.5	/experiments/AOT/AOT_stimuli/rescaled_final/1742_rv.mp4	0.0	186.53186893463135	
29	153.5410759449005	pulse	1	t		27.0	2.5	/experiments/AOT/AOT_stimuli/rescaled_final/1742_rv.mp4	0.0	188.132483959198	
29	154.0571789741516	fix_post	2		12	27.0	2.5	/experiments/AOT/AOT_stimuli/rescaled_final/1742_rv.mp4	0.0	188.6485869884491	0.10037088394165039
30	154.15754985809326	fix_pre	0		119	28.0	2.5	blank	1.0	188.74895787239075	0.9922540187835693
30	155.1340229511261	pulse	0	t		28.0	2.5	blank	1.0	189.72543096542358	
30	155.14980387687683	movie	1		301	28.0	2.5	blank	1.0	189.74121189117432	2.507766008377075
30	156.74118781089783	pulse	1	t		28.0	2.5	blank	1.0	191.3325958251953	
30	157.6575698852539	fix_post	2		12	28.0	2.5	blank	1.0	192.2489778995514	0.10085391998291016
31	157.75842380523682	fix_pre	0		120	29.0	2.5	/experiments/AOT/AOT_stimuli/rescaled_final/2056_rv.mp4	0.0	192.3498318195343	0.9987781047821045
31	158.34067296981812	pulse	0	t		29.0	2.5	/experiments/AOT/AOT_stimuli/rescaled_final/2056_rv.mp4	0.0	192.9320809841156	
31	158.75720191001892	movie	1		243	29.0	2.5	/experiments/AOT/AOT_stimuli/rescaled_final/2056_rv.mp4	0.0	193.3486099243164	2.501249074935913
31	159.9407320022583	pulse	1	t		29.0	2.5	/experiments/AOT/AOT_stimuli/rescaled_final/2056_rv.mp4	0.0	194.5321400165558	
31	161.25845098495483	fix_post	2		12	29.0	2.5	/experiments/AOT/AOT_stimuli/rescaled_final/2056_rv.mp4	0.0	195.84985899925232	0.09913897514343262
32	161.35758996009827	fix_pre	0		120	30.0	2.5	/experiments/AOT/AOT_stimuli/rescaled_final/0034_rv.mp4	0.0	195.94899797439575	1.0004909038543701
32	161.53369092941284	pulse	0	t		30.0	2.5	/experiments/AOT/AOT_stimuli/rescaled_final/0034_rv.mp4	0.0	196.12509894371033	
32	162.35808086395264	movie	1		242	30.0	2.5	/experiments/AOT/AOT_stimuli/rescaled_final/0034_rv.mp4	0.0	196.94948887825012	2.50034499168396
32	163.1406168937683	pulse	1	t		30.0	2.5	/experiments/AOT/AOT_stimuli/rescaled_final/0034_rv.mp4	0.0	197.7320249080658	
32	164.74048686027527	pulse	1	t		30.0	2.5	/experiments/AOT/AOT_stimuli/rescaled_final/0034_rv.mp4	0.0	199.33189487457275	
32	164.8584258556366	fix_post	2		12	30.0	2.5	/experiments/AOT/AOT_stimuli/rescaled_final/0034_rv.mp4	0.0	199.44983386993408	0.0995781421661377
33	164.95800399780273	fix_pre	0		120	31.0	2.5	/experiments/AOT/AOT_stimuli/rescaled_final/0411_fw.mp4	0.0	199.54941201210022	1.0001049041748047
33	165.95810890197754	movie	1		244	31.0	2.5	/experiments/AOT/AOT_stimuli/rescaled_final/0411_fw.mp4	0.0	200.54951691627502	2.50026798248291
33	166.34055089950562	pulse	1	t		31.0	2.5	/experiments/AOT/AOT_stimuli/rescaled_final/0411_fw.mp4	0.0	200.9319589138031	
33	167.94106888771057	pulse	1	t		31.0	2.5	/experiments/AOT/AOT_stimuli/rescaled_final/0411_fw.mp4	0.0	202.53247690200806	
33	168.45837688446045	fix_post	2		12	31.0	2.5	/experiments/AOT/AOT_stimuli/rescaled_final/0411_fw.mp4	0.0	203.04978489875793	0.09923791885375977
34	168.5576148033142	fix_pre	0		119	32.0	2.5	/experiments/AOT/AOT_stimuli/rescaled_final/0780_fw.mp4	0.0	203.1490228176117	0.992387056350708
34	169.53434586524963	pulse	0	t		32.0	2.5	/experiments/AOT/AOT_stimuli/rescaled_final/0780_fw.mp4	0.0	204.12575387954712	
34	169.55000185966492	movie	1		245	32.0	2.5	/experiments/AOT/AOT_stimuli/rescaled_final/0780_fw.mp4	0.0	204.1414098739624	2.5079591274261475
34	171.14069890975952	pulse	1	t		32.0	2.5	/experiments/AOT/AOT_stimuli/rescaled_final/0780_fw.mp4	0.0	205.732106924057	
34	172.05796098709106	fix_post	2		12	32.0	2.5	/experiments/AOT/AOT_stimuli/rescaled_final/0780_fw.mp4	0.0	206.64936900138855	0.09958195686340332
35	172.15754294395447	fix_pre	0		120	33.0	2.5	/experiments/AOT/AOT_stimuli/rescaled_final/0204_rv.mp4	0.0	206.74895095825195	1.0004899501800537
35	172.73389601707458	pulse	0	t		33.0	2.5	/experiments/AOT/AOT_stimuli/rescaled_final/0204_rv.mp4	0.0	207.32530403137207	
35	173.15803289413452	movie	1		245	33.0	2.5	/experiments/AOT/AOT_stimuli/rescaled_final/0204_rv.mp4	0.0	207.749440908432	2.5001721382141113
35	174.34062886238098	pulse	1	t		33.0	2.5	/experiments/AOT/AOT_stimuli/rescaled_final/0204_rv.mp4	0.0	208.93203687667847	
35	175.65820503234863	fix_post	2		12	33.0	2.5	/experiments/AOT/AOT_stimuli/rescaled_final/0204_rv.mp4	0.0	210.24961304664612	0.09950590133666992
36	175.7577109336853	fix_pre	0		120	34.0	2.5	/experiments/AOT/AOT_stimuli/rescaled_final/1515_fw.mp4	0.0	210.3491189479828	1.0009760856628418
36	175.93365287780762	pulse	0	t		34.0	2.5	/experiments/AOT/AOT_stimuli/rescaled_final/1515_fw.mp4	0.0	210.5250608921051	
36	176.75868701934814	movie	1		245	34.0	2.5	/experiments/AOT/AOT_stimuli/rescaled_final/1515_fw.mp4	0.0	211.35009503364563	2.49924898147583
36	177.54057002067566	pulse	1	t		34.0	2.5	/experiments/AOT/AOT_stimuli/rescaled_final/1515_fw.mp4	0.0	212.13197803497314	
36	179.13916492462158	pulse	1	t		34.0	2.5	/experiments/AOT/AOT_stimuli/rescaled_final/1515_fw.mp4	0.0	213.73057293891907	
36	179.25793600082397	fix_post	2		12	34.0	2.5	/experiments/AOT/AOT_stimuli/rescaled_final/1515_fw.mp4	0.0	213.84934401512146	0.09962797164916992
37	179.35756397247314	fix_pre	0		120	35.0	2.5	blank	1.0	213.94897198677063	1.0007438659667969
37	180.35830783843994	movie	1		300	35.0	2.5	blank	1.0	214.94971585273743	2.4991471767425537
37	180.73344087600708	pulse	1	t		35.0	2.5	blank	1.0	215.32484889030457	
37	182.33338403701782	pulse	1	t		35.0	2.5	blank	1.0	216.9247920513153	
37	182.8574550151825	fix_post	2		12	35.0	2.5	blank	1.0	217.44886302947998	0.10061192512512207
38	182.95806694030762	fix_pre	0		119	36.0	2.5	/experiments/AOT/AOT_stimuli/rescaled_final/1554_rv.mp4	0.0	217.5494749546051	0.9906129837036133
38	183.9405598640442	pulse	0	t		36.0	2.5	/experiments/AOT/AOT_stimuli/rescaled_final/1554_rv.mp4	0.0	218.53196787834167	
38	183.94867992401123	movie	1		245	36.0	2.5	/experiments/AOT/AOT_stimuli/rescaled_final/1554_rv.mp4	0.0	218.54008793830872	2.50970196723938
38	185.54039192199707	pulse	1	t		36.0	2.5	/experiments/AOT/AOT_stimuli/rescaled_final/1554_rv.mp4	0.0	220.13179993629456	
38	186.4583818912506	fix_post	2		12	36.0	2.5	/experiments/AOT/AOT_stimuli/rescaled_final/1554_rv.mp4	0.0	221.0497899055481	0.0990300178527832
39	186.5574119091034	fix_pre	0		120	37.0	2.5	/experiments/AOT/AOT_stimuli/rescaled_final/0117_rv.mp4	0.0	221.14881992340088	1.0010709762573242
39	187.1342248916626	pulse	0	t		37.0	2.5	/experiments/AOT/AOT_stimuli/rescaled_final/0117_rv.mp4	0.0	221.72563290596008	
39	187.55848288536072	movie	1		243	37.0	2.5	/experiments/AOT/AOT_stimuli/rescaled_final/0117_rv.mp4	0.0	222.1498908996582	2.499454975128174
39	188.74179196357727	pulse	1	t		37.0	2.5	/experiments/AOT/AOT_stimuli/rescaled_final/0117_rv.mp4	0.0	223.33319997787476	
39	190.0579378604889	fix_post	2		12	37.0	2.5	/experiments/AOT/AOT_stimuli/rescaled_final/0117_rv.mp4	0.0	224.64934587478638	0.09948110580444336
40	190.15741896629333	fix_pre	0		120	38.0	2.5	/experiments/AOT/AOT_stimuli/rescaled_final/0613_fw.mp4	0.0	224.74882698059082	1.000985860824585
40	190.34080386161804	pulse	0	t		38.0	2.5	/experiments/AOT/AOT_stimuli/rescaled_final/0613_fw.mp4	0.0	224.93221187591553	
40	191.15840482711792	movie	1		243	38.0	2.5	/experiments/AOT/AOT_stimuli/rescaled_final/0613_fw.mp4	0.0	225.7498128414154	2.499408006668091
40	191.9338779449463	pulse	1	t		38.0	2.5	/experiments/AOT/AOT_stimuli/rescaled_final/0613_fw.mp4	0.0	226.52528595924377	
40	193.53895783424377	pulse	1	t		38.0	2.5	/experiments/AOT/AOT_stimuli/rescaled_final/0613_fw.mp4	0.0	228.13036584854126	
40	193.657812833786	fix_post	2		12	38.0	2.5	/experiments/AOT/AOT_stimuli/rescaled_final/0613_fw.mp4	0.0	228.2492208480835	0.09952616691589355
41	193.7573390007019	fix_pre	0		120	39.0	2.5	/experiments/AOT/AOT_stimuli/rescaled_final/2018_rv.mp4	0.0	228.3487470149994	1.0003600120544434
41	194.75769901275635	movie	1		245	39.0	2.5	/experiments/AOT/AOT_stimuli/rescaled_final/2018_rv.mp4	0.0	229.34910702705383	2.4997479915618896
41	195.1406638622284	pulse	1	t		39.0	2.5	/experiments/AOT/AOT_stimuli/rescaled_final/2018_rv.mp4	0.0	229.73207187652588	
41	196.73365783691406	pulse	1	t		39.0	2.5	/experiments/AOT/AOT_stimuli/rescaled_final/2018_rv.mp4	0.0	231.32506585121155	
41	197.25744700431824	fix_post	2		12	39.0	2.5	/experiments/AOT/AOT_stimuli/rescaled_final/2018_rv.mp4	0.0	231.84885501861572	0.0999138355255127
42	197.35736083984375	fix_pre	0		119	40.0	2.5	blank	1.0	231.94876885414124	0.9921221733093262
42	198.33387994766235	pulse	0	t		40.0	2.5	blank	1.0	232.92528796195984	
42	198.34948301315308	movie	1		301	40.0	2.5	blank	1.0	232.94089102745056	2.5078728199005127
42	199.9408438205719	pulse	1	t		40.0	2.5	blank	1.0	234.53225183486938	
42	200.8573558330536	fix_post	2		12	40.0	2.5	blank	1.0	235.44876384735107	0.10056519508361816
43	200.9579210281372	fix_pre	0		120	41.0	2.5	/experiments/AOT/AOT_stimuli/rescaled_final/0301_rv.mp4	0.0	235.5493290424347	0.9997849464416504
43	201.54134893417358	pulse	0	t		41.0	2.5	/experiments/AOT/AOT_stimuli/rescaled_final/0301_rv.mp4	0.0	236.13275694847107	
43	201.95770597457886	movie	1		242	41.0	2.5	/experiments/AOT/AOT_stimuli/rescaled_final/0301_rv.mp4	0.0	236.54911398887634	2.4993598461151123
43	203.14093494415283	pulse	1	t		41.0	2.5	/experiments/AOT/AOT_stimuli/rescaled_final/0301_rv.mp4	0.0	237.73234295845032	
43	204.45706582069397	fix_post	2		12	41.0	2.5	/experiments/AOT/AOT_stimuli/rescaled_final/0301_rv.mp4	0.0	239.04847383499146	0.1003730297088623
44	204.55743885040283	fix_pre	0		120	42.0	2.5	/experiments/AOT/AOT_stimuli/rescaled_final/0548_rv.mp4	0.0	239.14884686470032	1.0004191398620605
44	204.7408549785614	pulse	0	t		42.0	2.5	/experiments/AOT/AOT_stimuli/rescaled_final/0548_rv.mp4	0.0	239.3322629928589	
44	205.5578579902649	movie	1		244	42.0	2.5	/experiments/AOT/AOT_stimuli/rescaled_final/0548_rv.mp4	0.0	240.14926600456238	2.500339984893799
44	206.3340449333191	pulse	1	t		42.0	2.5	/experiments/AOT/AOT_stimuli/rescaled_final/0548_rv.mp4	0.0	240.92545294761658	
44	207.9394609928131	pulse	1	t		42.0	2.5	/experiments/AOT/AOT_stimuli/rescaled_final/0548_rv.mp4	0.0	242.5308690071106	
44	208.0581979751587	fix_post	2		12	42.0	2.5	/experiments/AOT/AOT_stimuli/rescaled_final/0548_rv.mp4	0.0	242.64960598945618	0.09923696517944336
45	208.15743494033813	fix_pre	0		120	43.0	2.5	/experiments/AOT/AOT_stimuli/rescaled_final/0072_rv.mp4	0.0	242.74884295463562	0.9999659061431885
45	209.15740084648132	movie	1		243	43.0	2.5	/experiments/AOT/AOT_stimuli/rescaled_final/0072_rv.mp4	0.0	243.7488088607788	2.5000369548797607
45	209.5402808189392	pulse	1	t		43.0	2.5	/experiments/AOT/AOT_stimuli/rescaled_final/0072_rv.mp4	0.0	244.1316888332367	
45	211.1335368156433	pulse	1	t		43.0	2.5	/experiments/AOT/AOT_stimuli/rescaled_final/0072_rv.mp4	0.0	245.7249448299408	
45	211.65743780136108	fix_post	2		12	43.0	2.5	/experiments/AOT/AOT_stimuli/rescaled_final/0072_rv.mp4	0.0	246.24884581565857	0.09991121292114258
46	211.75734901428223	fix_pre	0		119	44.0	2.5	/experiments/AOT/AOT_stimuli/rescaled_final/1718_fw.mp4	0.0	246.3487570285797	0.9920458793640137
46	212.7335410118103	pulse	0	t		44.0	2.5	/experiments/AOT/AOT_stimuli/rescaled_final/1718_fw.mp4	0.0	247.3249490261078	
46	212.74939489364624	movie	1		245	44.0	2.5	/experiments/AOT/AOT_stimuli/rescaled_final/1718_fw.mp4	0.0	247.34080290794373	2.5075690746307373
46	214.34051084518433	pulse	1	t		44.0	2.5	/experiments/AOT/AOT_stimuli/rescaled_final/1718_fw.mp4	0.0	248.9319188594818	
46	215.25696396827698	fix_post	2		12	44.0	2.5	/experiments/AOT/AOT_stimuli/rescaled_final/1718_fw.mp4	0.0	249.84837198257446	0.10036683082580566
47	215.35733079910278	fix_pre	0		120	45.0	2.5	/experiments/AOT/AOT_stimuli/rescaled_final/1658_fw.mp4	0.0	249.94873881340027	1.0000121593475342
47	215.9408528804779	pulse	0	t		45.0	2.5	/experiments/AOT/AOT_stimuli/rescaled_final/1658_fw.mp4	0.0	250.5322608947754	
47	216.35734295845032	movie	1		246	45.0	2.5	/experiments/AOT/AOT_stimuli/rescaled_final/1658_fw.mp4	0.0	250.9487509727478	2.4997360706329346
47	217.54081988334656	pulse	1	t		45.0	2.5	/experiments/AOT/AOT_stimuli/rescaled_final/1658_fw.mp4	0.0	252.13222789764404	
47	218.85707902908325	fix_post	2		12	45.0	2.5	/experiments/AOT/AOT_stimuli/rescaled_final/1658_fw.mp4	0.0	253.44848704338074	0.10022687911987305
48	218.95730590820312	fix_pre	0		120	46.0	2.5	/experiments/AOT/AOT_stimuli/rescaled_final/1445_rv.mp4	0.0	253.5487139225006	0.9999809265136719
48	219.14082193374634	pulse	0	t		46.0	2.5	/experiments/AOT/AOT_stimuli/rescaled_final/1445_rv.mp4	0.0	253.73222994804382	
48	219.9572868347168	movie	1		243	46.0	2.5	/experiments/AOT/AOT_stimuli/rescaled_final/1445_rv.mp4	0.0	254.54869484901428	2.500046968460083
48	220.7407169342041	pulse	1	t		46.0	2.5	/experiments/AOT/AOT_stimuli/rescaled_final/1445_rv.mp4	0.0	255.3321249485016	
48	222.33930492401123	pulse	1	t		46.0	2.5	/experiments/AOT/AOT_stimuli/rescaled_final/1445_rv.mp4	0.0	256.9307129383087	
48	222.45733380317688	fix_post	2		12	46.0	2.5	/experiments/AOT/AOT_stimuli/rescaled_final/1445_rv.mp4	0.0	257.04874181747437	0.09998512268066406
49	222.55731892585754	fix_pre	0		120	47.0	2.5	blank	1.0	257.14872694015503	0.9995269775390625
49	223.5568459033966	movie	1		300	47.0	2.5	blank	1.0	258.1482539176941	2.500488042831421
49	223.94084882736206	pulse	1	t		47.0	2.5	blank	1.0	258.53225684165955	
49	225.54076886177063	pulse	1	t		47.0	2.5	blank	1.0	260.1321768760681	
49	226.05733394622803	fix_post	2		12	47.0	2.5	blank	1.0	260.6487419605255	0.09993195533752441
50	226.15726590156555	fix_pre	0		119	48.0	2.5	/experiments/AOT/AOT_stimuli/rescaled_final/1767_rv.mp4	0.0	260.74867391586304	0.9916529655456543
50	227.14079880714417	pulse	0	t		48.0	2.5	/experiments/AOT/AOT_stimuli/rescaled_final/1767_rv.mp4	0.0	261.73220682144165	
50	227.1489188671112	movie	1		247	48.0	2.5	/experiments/AOT/AOT_stimuli/rescaled_final/1767_rv.mp4	0.0	261.7403268814087	2.507918119430542
50	228.73966693878174	pulse	1	t		48.0	2.5	/experiments/AOT/AOT_stimuli/rescaled_final/1767_rv.mp4	0.0	263.3310749530792	
50	229.65683698654175	fix_post	2		12	48.0	2.5	/experiments/AOT/AOT_stimuli/rescaled_final/1767_rv.mp4	0.0	264.24824500083923	0.09997081756591797
51	229.75680780410767	fix_pre	0		120	49.0	2.5	/experiments/AOT/AOT_stimuli/rescaled_final/0679_rv.mp4	0.0	264.34821581840515	1.000169038772583
51	230.3404040336609	pulse	0	t		49.0	2.5	/experiments/AOT/AOT_stimuli/rescaled_final/0679_rv.mp4	0.0	264.9318120479584	
51	230.75697684288025	movie	1		244	49.0	2.5	/experiments/AOT/AOT_stimuli/rescaled_final/0679_rv.mp4	0.0	265.34838485717773	2.500288963317871
51	231.94072699546814	pulse	1	t		49.0	2.5	/experiments/AOT/AOT_stimuli/rescaled_final/0679_rv.mp4	0.0	266.5321350097656	
51	233.25726580619812	fix_post	2		12	49.0	2.5	/experiments/AOT/AOT_stimuli/rescaled_final/0679_rv.mp4	0.0	267.8486738204956	0.10004019737243652
52	233.35730600357056	fix_pre	0		120	50.0	2.5	/experiments/AOT/AOT_stimuli/rescaled_final/1067_rv.mp4	0.0	267.94871401786804	0.9998879432678223
52	233.54079484939575	pulse	0	t		50.0	2.5	/experiments/AOT/AOT_stimuli/rescaled_final/1067_rv.mp4	0.0	268.13220286369324	
52	234.35719394683838	movie	1		244	50.0	2.5	/experiments/AOT/AOT_stimuli/rescaled_final/1067_rv.mp4	0.0	268.94860196113586	2.500037908554077
52	235.14076280593872	pulse	1	t		50.0	2.5	/experiments/AOT/AOT_stimuli/rescaled_final/1067_rv.mp4	0.0	269.7321708202362	
52	236.73931884765625	pulse	1	t		50.0	2.5	/experiments/AOT/AOT_stimuli/rescaled_final/1067_rv.mp4	0.0	271.33072686195374	
52	236.85723185539246	fix_post	2		12	50.0	2.5	/experiments/AOT/AOT_stimuli/rescaled_final/1067_rv.mp4	0.0	271.44863986968994	0.09999513626098633
53	236.95722699165344	fix_pre	0		120	51.0	2.5	/experiments/AOT/AOT_stimuli/rescaled_final/1258_fw.mp4	0.0	271.5486350059509	0.999755859375
53	237.95698285102844	movie	1		245	51.0	2.5	/experiments/AOT/AOT_stimuli/rescaled_final/1258_fw.mp4	0.0	272.5483908653259	2.50019907951355
53	238.34006881713867	pulse	1	t		51.0	2.5	/experiments/AOT/AOT_stimuli/rescaled_final/1258_fw.mp4	0.0	272.93147683143616	
53	239.94061493873596	pulse	1	t		51.0	2.5	/experiments/AOT/AOT_stimuli/rescaled_final/1258_fw.mp4	0.0	274.53202295303345	
53	240.457181930542	fix_post	2		12	51.0	2.5	/experiments/AOT/AOT_stimuli/rescaled_final/1258_fw.mp4	0.0	275.0485899448395	0.10001087188720703
54	240.5571928024292	fix_pre	0		119	52.0	2.5	/experiments/AOT/AOT_stimuli/rescaled_final/0301_fw.mp4	0.0	275.1486008167267	0.9917600154876709
54	241.54061794281006	pulse	0	t		52.0	2.5	/experiments/AOT/AOT_stimuli/rescaled_final/0301_fw.mp4	0.0	276.13202595710754	
54	241.54895281791687	movie	1		246	52.0	2.5	/experiments/AOT/AOT_stimuli/rescaled_final/0301_fw.mp4	0.0	276.14036083221436	2.5085031986236572
54	243.14027094841003	pulse	1	t		52.0	2.5	/experiments/AOT/AOT_stimuli/rescaled_final/0301_fw.mp4	0.0	277.7316789627075	
54	244.05745601654053	fix_post	2		12	52.0	2.5	/experiments/AOT/AOT_stimuli/rescaled_final/0301_fw.mp4	0.0	278.648864030838	0.09972286224365234
55	244.15717887878418	fix_pre	0		120	53.0	2.5	/experiments/AOT/AOT_stimuli/rescaled_final/1400_rv.mp4	0.0	278.74858689308167	1.0000319480895996
55	244.740651845932	pulse	0	t		53.0	2.5	/experiments/AOT/AOT_stimuli/rescaled_final/1400_rv.mp4	0.0	279.3320598602295	
55	245.15721082687378	movie	1		246	53.0	2.5	/experiments/AOT/AOT_stimuli/rescaled_final/1400_rv.mp4	0.0	279.74861884117126	2.499591112136841
55	246.34074592590332	pulse	1	t		53.0	2.5	/experiments/AOT/AOT_stimuli/rescaled_final/1400_rv.mp4	0.0	280.9321539402008	
55	247.65680193901062	fix_post	2		12	53.0	2.5	/experiments/AOT/AOT_stimuli/rescaled_final/1400_rv.mp4	0.0	282.2482099533081	0.10040807723999023
56	247.7572100162506	fix_pre	0		120	54.0	2.5	/experiments/AOT/AOT_stimuli/rescaled_final/1902_fw.mp4	0.0	282.3486180305481	0.9999799728393555
56	247.9407069683075	pulse	0	t		54.0	2.5	/experiments/AOT/AOT_stimuli/rescaled_final/1902_fw.mp4	0.0	282.532114982605	
56	248.75718998908997	movie	1		245	54.0	2.5	/experiments/AOT/AOT_stimuli/rescaled_final/1902_fw.mp4	0.0	283.34859800338745	2.500020980834961
56	249.54064893722534	pulse	1	t		54.0	2.5	/experiments/AOT/AOT_stimuli/rescaled_final/1902_fw.mp4	0.0	284.1320569515228	
56	251.13940596580505	pulse	1	t		54.0	2.5	/experiments/AOT/AOT_stimuli/rescaled_final/1902_fw.mp4	0.0	285.73081398010254	
56	251.25721096992493	fix_post	2		12	54.0	2.5	/experiments/AOT/AOT_stimuli/rescaled_final/1902_fw.mp4	0.0	285.8486189842224	0.09993886947631836
57	251.35714983940125	fix_pre	0		120	55.0	2.5	/experiments/AOT/AOT_stimuli/rescaled_final/0055_fw.mp4	0.0	285.94855785369873	0.9999980926513672
57	252.3571479320526	movie	1		244	55.0	2.5	/experiments/AOT/AOT_stimuli/rescaled_final/0055_fw.mp4	0.0	286.9485559463501	2.499562978744507
57	252.7404179573059	pulse	1	t		55.0	2.5	/experiments/AOT/AOT_stimuli/rescaled_final/0055_fw.mp4	0.0	287.3318259716034	
57	254.3406879901886	pulse	1	t		55.0	2.5	/experiments/AOT/AOT_stimuli/rescaled_final/0055_fw.mp4	0.0	288.9320960044861	
57	254.85671091079712	fix_post	2		12	55.0	2.5	/experiments/AOT/AOT_stimuli/rescaled_final/0055_fw.mp4	0.0	289.4481189250946	0.10036897659301758
58	254.95707988739014	fix_pre	0		119	56.0	2.5	blank	1.0	289.5484879016876	0.9917490482330322
58	255.94067001342773	pulse	0	t		56.0	2.5	blank	1.0	290.5320780277252	
58	255.94882893562317	movie	1		301	56.0	2.5	blank	1.0	290.54023694992065	2.5078699588775635
58	257.54072189331055	pulse	1	t		56.0	2.5	blank	1.0	292.13212990760803	
58	258.45669889450073	fix_post	2		12	56.0	2.5	blank	1.0	293.0481069087982	0.10043811798095703
59	258.5571370124817	fix_pre	0		120	57.0	2.5	/experiments/AOT/AOT_stimuli/rescaled_final/0833_rv.mp4	0.0	293.1485450267792	0.9999608993530273
59	259.14069080352783	pulse	0	t		57.0	2.5	/experiments/AOT/AOT_stimuli/rescaled_final/0833_rv.mp4	0.0	293.7320988178253	
59	259.5570979118347	movie	1		245	57.0	2.5	/experiments/AOT/AOT_stimuli/rescaled_final/0833_rv.mp4	0.0	294.1485059261322	2.5000669956207275
59	260.7406589984894	pulse	1	t		57.0	2.5	/experiments/AOT/AOT_stimuli/rescaled_final/0833_rv.mp4	0.0	295.33206701278687	
59	262.05716490745544	fix_post	2		12	57.0	2.5	/experiments/AOT/AOT_stimuli/rescaled_final/0833_rv.mp4	0.0	296.64857292175293	0.09998106956481934
60	262.15714597702026	fix_pre	0		120	58.0	2.5	/experiments/AOT/AOT_stimuli/rescaled_final/0110_fw.mp4	0.0	296.74855399131775	0.9999279975891113
60	262.3406558036804	pulse	0	t		58.0	2.5	/experiments/AOT/AOT_stimuli/rescaled_final/0110_fw.mp4	0.0	296.9320638179779	
60	263.1570739746094	movie	1		245	58.0	2.5	/experiments/AOT/AOT_stimuli/rescaled_final/0110_fw.mp4	0.0	297.74848198890686	2.500013828277588
60	263.94065499305725	pulse	1	t		58.0	2.5	/experiments/AOT/AOT_stimuli/rescaled_final/0110_fw.mp4	0.0	298.53206300735474	
60	265.53887486457825	pulse	1	t		58.0	2.5	/experiments/AOT/AOT_stimuli/rescaled_final/0110_fw.mp4	0.0	300.13028287887573	
60	265.65708780288696	fix_post	2		12	58.0	2.5	/experiments/AOT/AOT_stimuli/rescaled_final/0110_fw.mp4	0.0	300.24849581718445	0.10005807876586914
61	265.75714588165283	fix_pre	0		120	59.0	2.5	/experiments/AOT/AOT_stimuli/rescaled_final/1200_fw.mp4	0.0	300.3485538959503	1.0000159740447998
61	266.75716185569763	movie	1		244	59.0	2.5	/experiments/AOT/AOT_stimuli/rescaled_final/1200_fw.mp4	0.0	301.3485698699951	2.4994890689849854
61	267.14177989959717	pulse	1	t		59.0	2.5	/experiments/AOT/AOT_stimuli/rescaled_final/1200_fw.mp4	0.0	301.73318791389465	
61	268.74067783355713	pulse	1	t		59.0	2.5	/experiments/AOT/AOT_stimuli/rescaled_final/1200_fw.mp4	0.0	303.3320858478546	
61	269.2566509246826	fix_post	2		12	59.0	2.5	/experiments/AOT/AOT_stimuli/rescaled_final/1200_fw.mp4	0.0	303.8480589389801	0.10042190551757812
62	269.3570728302002	fix_pre	0		119	60.0	2.5	/experiments/AOT/AOT_stimuli/rescaled_final/1673_rv.mp4	0.0	303.9484808444977	0.99167799949646
62	270.34051179885864	pulse	0	t		60.0	2.5	/experiments/AOT/AOT_stimuli/rescaled_final/1673_rv.mp4	0.0	304.9319198131561	
62	270.34875082969666	movie	1		243	60.0	2.5	/experiments/AOT/AOT_stimuli/rescaled_final/1673_rv.mp4	0.0	304.94015884399414	2.5082759857177734
62	271.94062995910645	pulse	1	t		60.0	2.5	/experiments/AOT/AOT_stimuli/rescaled_final/1673_rv.mp4	0.0	306.53203797340393	
62	272.85702681541443	fix_post	2		12	60.0	2.5	/experiments/AOT/AOT_stimuli/rescaled_final/1673_rv.mp4	0.0	307.4484348297119	0.09999513626098633
63	272.9570219516754	fix_pre	0		120	61.0	2.5	/experiments/AOT/AOT_stimuli/rescaled_final/0055_rv.mp4	0.0	307.5484299659729	1.000079870223999
63	273.5405728816986	pulse	0	t		61.0	2.5	/experiments/AOT/AOT_stimuli/rescaled_final/0055_rv.mp4	0.0	308.1319808959961	
63	273.9571018218994	movie	1		244	61.0	2.5	/experiments/AOT/AOT_stimuli/rescaled_final/0055_rv.mp4	0.0	308.5485098361969	2.4999752044677734
63	275.1405909061432	pulse	1	t		61.0	2.5	/experiments/AOT/AOT_stimuli/rescaled_final/0055_rv.mp4	0.0	309.7319989204407	
63	276.4570770263672	fix_post	2		12	61.0	2.5	/experiments/AOT/AOT_stimuli/rescaled_final/0055_rv.mp4	0.0	311.0484850406647	0.0999448299407959
64	276.557021856308	fix_pre	0		120	62.0	2.5	blank	1.0	311.14842987060547	0.9995951652526855
64	276.74048590660095	pulse	0	t		62.0	2.5	blank	1.0	311.33189392089844	
64	277.55661702156067	movie	1		300	62.0	2.5	blank	1.0	312.14802503585815	2.500382900238037
64	278.3405318260193	pulse	1	t		62.0	2.5	blank	1.0	312.9319398403168	
64	279.94052386283875	pulse	1	t		62.0	2.5	blank	1.0	314.53193187713623	
64	280.0569999217987	fix_post	2		12	62.0	2.5	blank	1.0	314.6484079360962	0.10003089904785156
65	280.15703082084656	fix_pre	0		120	63.0	2.5	/experiments/AOT/AOT_stimuli/rescaled_final/0660_rv.mp4	0.0	314.74843883514404	0.9999752044677734
65	281.15700602531433	movie	1		243	63.0	2.5	/experiments/AOT/AOT_stimuli/rescaled_final/0660_rv.mp4	0.0	315.7484140396118	2.499969005584717
65	281.5403368473053	pulse	1	t		63.0	2.5	/experiments/AOT/AOT_stimuli/rescaled_final/0660_rv.mp4	0.0	316.1317448616028	
65	283.14045095443726	pulse	1	t		63.0	2.5	/experiments/AOT/AOT_stimuli/rescaled_final/0660_rv.mp4	0.0	317.73185896873474	
65	283.65697503089905	fix_post	2		12	63.0	2.5	/experiments/AOT/AOT_stimuli/rescaled_final/0660_rv.mp4	0.0	318.24838304519653	0.10001397132873535
66	283.7569890022278	fix_pre	0		119	64.0	2.5	/experiments/AOT/AOT_stimuli/rescaled_final/2098_rv.mp4	0.0	318.34839701652527	0.9912478923797607
66	284.7406129837036	pulse	0	t		64.0	2.5	/experiments/AOT/AOT_stimuli/rescaled_final/2098_rv.mp4	0.0	319.3320209980011	
66	284.74823689460754	movie	1		248	64.0	2.5	/experiments/AOT/AOT_stimuli/rescaled_final/2098_rv.mp4	0.0	319.33964490890503	2.5085511207580566
66	286.3396258354187	pulse	1	t		64.0	2.5	/experiments/AOT/AOT_stimuli/rescaled_final/2098_rv.mp4	0.0	320.9310338497162	
66	287.2567880153656	fix_post	2		12	64.0	2.5	/experiments/AOT/AOT_stimuli/rescaled_final/2098_rv.mp4	0.0	321.8481960296631	0.10040092468261719
67	287.3571889400482	fix_pre	0		120	65.0	2.5	/experiments/AOT/AOT_stimuli/rescaled_final/0421_fw.mp4	0.0	321.9485969543457	1.0001258850097656
67	287.94079089164734	pulse	0	t		65.0	2.5	/experiments/AOT/AOT_stimuli/rescaled_final/0421_fw.mp4	0.0	322.5321989059448	
67	288.357314825058	movie	1		245	65.0	2.5	/experiments/AOT/AOT_stimuli/rescaled_final/0421_fw.mp4	0.0	322.94872283935547	2.4996349811553955
67	289.5405328273773	pulse	1	t		65.0	2.5	/experiments/AOT/AOT_stimuli/rescaled_final/0421_fw.mp4	0.0	324.1319408416748	
67	290.8569498062134	fix_post	2		12	65.0	2.5	/experiments/AOT/AOT_stimuli/rescaled_final/0421_fw.mp4	0.0	325.44835782051086	0.10001707077026367
68	290.95696687698364	fix_pre	0		120	66.0	2.5	/experiments/AOT/AOT_stimuli/rescaled_final/0311_fw.mp4	0.0	325.5483748912811	1.0000300407409668
68	291.1405220031738	pulse	0	t		66.0	2.5	/experiments/AOT/AOT_stimuli/rescaled_final/0311_fw.mp4	0.0	325.7319300174713	
68	291.9569969177246	movie	1		243	66.0	2.5	/experiments/AOT/AOT_stimuli/rescaled_final/0311_fw.mp4	0.0	326.5484049320221	2.499527931213379
68	292.74046087265015	pulse	1	t		66.0	2.5	/experiments/AOT/AOT_stimuli/rescaled_final/0311_fw.mp4	0.0	327.33186888694763	
68	294.3386688232422	pulse	1	t		66.0	2.5	/experiments/AOT/AOT_stimuli/rescaled_final/0311_fw.mp4	0.0	328.9300768375397	
68	294.456524848938	fix_post	2		12	66.0	2.5	/experiments/AOT/AOT_stimuli/rescaled_final/0311_fw.mp4	0.0	329.0479328632355	0.10038614273071289
69	294.5569109916687	fix_pre	0		120	67.0	2.5	/experiments/AOT/AOT_stimuli/rescaled_final/0679_fw.mp4	0.0	329.1483190059662	1.0000479221343994
69	295.5569589138031	movie	1		245	67.0	2.5	/experiments/AOT/AOT_stimuli/rescaled_final/0679_fw.mp4	0.0	330.1483669281006	2.4998979568481445
69	295.9398159980774	pulse	1	t		67.0	2.5	/experiments/AOT/AOT_stimuli/rescaled_final/0679_fw.mp4	0.0	330.5312240123749	
69	297.5404198169708	pulse	1	t		67.0	2.5	/experiments/AOT/AOT_stimuli/rescaled_final/0679_fw.mp4	0.0	332.1318278312683	
69	298.05685687065125	fix_post	2		12	67.0	2.5	/experiments/AOT/AOT_stimuli/rescaled_final/0679_fw.mp4	0.0	332.64826488494873	0.10004401206970215
70	298.15690088272095	fix_pre	0		119	68.0	2.5	/experiments/AOT/AOT_stimuli/rescaled_final/1662_fw.mp4	0.0	332.74830889701843	0.9916670322418213
70	299.14043402671814	pulse	0	t		68.0	2.5	/experiments/AOT/AOT_stimuli/rescaled_final/1662_fw.mp4	0.0	333.7318420410156	
70	299.14856791496277	movie	1		244	68.0	2.5	/experiments/AOT/AOT_stimuli/rescaled_final/1662_fw.mp4	0.0	333.73997592926025	2.5083069801330566
70	300.74028491973877	pulse	1	t		68.0	2.5	/experiments/AOT/AOT_stimuli/rescaled_final/1662_fw.mp4	0.0	335.33169293403625	
70	301.6568748950958	fix_post	2		12	68.0	2.5	/experiments/AOT/AOT_stimuli/rescaled_final/1662_fw.mp4	0.0	336.2482829093933	0.09956097602844238
71	301.75643587112427	fix_pre	0		120	69.0	2.5	/experiments/AOT/AOT_stimuli/rescaled_final/0720_fw.mp4	0.0	336.34784388542175	1.0004301071166992
71	302.34042596817017	pulse	0	t		69.0	2.5	/experiments/AOT/AOT_stimuli/rescaled_final/0720_fw.mp4	0.0	336.93183398246765	
71	302.75686597824097	movie	1		244	69.0	2.5	/experiments/AOT/AOT_stimuli/rescaled_final/0720_fw.mp4	0.0	337.34827399253845	2.499994993209839
71	303.9404389858246	pulse	1	t		69.0	2.5	/experiments/AOT/AOT_stimuli/rescaled_final/0720_fw.mp4	0.0	338.53184700012207	
71	305.2568609714508	fix_post	2		12	69.0	2.5	/experiments/AOT/AOT_stimuli/rescaled_final/0720_fw.mp4	0.0	339.8482689857483	0.0999748706817627
72	305.35683584213257	fix_pre	0		120	70.0	2.5	blank	1.0	339.94824385643005	1.0000760555267334
72	305.5404179096222	pulse	0	t		70.0	2.5	blank	1.0	340.1318259239197	
72	306.3569118976593	movie	1		300	70.0	2.5	blank	1.0	340.9483199119568	2.499920129776001
72	307.1404209136963	pulse	1	t		70.0	2.5	blank	1.0	341.7318289279938	
72	308.74035692214966	pulse	1	t		70.0	2.5	blank	1.0	343.33176493644714	
72	308.8568320274353	fix_post	2		12	70.0	2.5	blank	1.0	343.4482400417328	0.10001778602600098
73	308.9568498134613	fix_pre	0		120	71.0	2.5	/experiments/AOT/AOT_stimuli/rescaled_final/0045_rv.mp4	0.0	343.5482578277588	0.9996111392974854
73	309.9564609527588	movie	1		245	71.0	2.5	/experiments/AOT/AOT_stimuli/rescaled_final/0045_rv.mp4	0.0	344.5478689670563	2.500303030014038
73	310.3394889831543	pulse	1	t		71.0	2.5	/experiments/AOT/AOT_stimuli/rescaled_final/0045_rv.mp4	0.0	344.9308969974518	
73	311.94040393829346	pulse	1	t		71.0	2.5	/experiments/AOT/AOT_stimuli/rescaled_final/0045_rv.mp4	0.0	346.53181195259094	
73	312.4567639827728	fix_post	2		12	71.0	2.5	/experiments/AOT/AOT_stimuli/rescaled_final/0045_rv.mp4	0.0	347.0481719970703	0.10007500648498535
74	312.5568389892578	fix_pre	0		119	72.0	2.5	/experiments/AOT/AOT_stimuli/rescaled_final/0307_fw.mp4	0.0	347.1482470035553	0.9916439056396484
74	313.54035091400146	pulse	0	t		72.0	2.5	/experiments/AOT/AOT_stimuli/rescaled_final/0307_fw.mp4	0.0	348.13175892829895	
74	313.54848289489746	movie	1		245	72.0	2.5	/experiments/AOT/AOT_stimuli/rescaled_final/0307_fw.mp4	0.0	348.13989090919495	2.5079479217529297
74	315.14164996147156	pulse	1	t		72.0	2.5	/experiments/AOT/AOT_stimuli/rescaled_final/0307_fw.mp4	0.0	349.73305797576904	
74	316.0564308166504	fix_post	2		12	72.0	2.5	/experiments/AOT/AOT_stimuli/rescaled_final/0307_fw.mp4	0.0	350.6478388309479	0.10047411918640137
75	316.1569049358368	fix_pre	0		120	73.0	2.5	/experiments/AOT/AOT_stimuli/rescaled_final/1506_fw.mp4	0.0	350.7483129501343	1.0000059604644775
75	316.74058389663696	pulse	0	t		73.0	2.5	/experiments/AOT/AOT_stimuli/rescaled_final/1506_fw.mp4	0.0	351.33199191093445	
75	317.15691089630127	movie	1		243	73.0	2.5	/experiments/AOT/AOT_stimuli/rescaled_final/1506_fw.mp4	0.0	351.74831891059875	2.499920129776001
75	318.3403899669647	pulse	1	t		73.0	2.5	/experiments/AOT/AOT_stimuli/rescaled_final/1506_fw.mp4	0.0	352.9317979812622	
75	319.65683102607727	fix_post	2		12	73.0	2.5	/experiments/AOT/AOT_stimuli/rescaled_final/1506_fw.mp4	0.0	354.24823904037476	0.10004281997680664
76	319.7568738460541	fix_pre	0		120	74.0	2.5	/experiments/AOT/AOT_stimuli/rescaled_final/0610_fw.mp4	0.0	354.34828186035156	1.0000121593475342
76	319.9402709007263	pulse	0	t		74.0	2.5	/experiments/AOT/AOT_stimuli/rescaled_final/0610_fw.mp4	0.0	354.5316789150238	
76	320.7568860054016	movie	1		248	74.0	2.5	/experiments/AOT/AOT_stimuli/rescaled_final/0610_fw.mp4	0.0	355.3482940196991	2.499485969543457
76	321.5403308868408	pulse	1	t		74.0	2.5	/experiments/AOT/AOT_stimuli/rescaled_final/0610_fw.mp4	0.0	356.1317389011383	
76	323.140508890152	pulse	1	t		74.0	2.5	/experiments/AOT/AOT_stimuli/rescaled_final/0610_fw.mp4	0.0	357.73191690444946	
76	323.25637197494507	fix_post	2		12	74.0	2.5	/experiments/AOT/AOT_stimuli/rescaled_final/0610_fw.mp4	0.0	357.84777998924255	0.10046195983886719
77	323.35683393478394	fix_pre	0		120	75.0	2.5	blank	1.0	357.9482419490814	0.9998879432678223
77	324.35672187805176	movie	1		300	75.0	2.5	blank	1.0	358.94812989234924	2.500028133392334
77	324.74022793769836	pulse	1	t		75.0	2.5	blank	1.0	359.33163595199585	
77	326.3403480052948	pulse	1	t		75.0	2.5	blank	1.0	360.9317560195923	
77	326.8567500114441	fix_post	2		12	75.0	2.5	blank	1.0	361.4481580257416	0.09961390495300293
78	326.9563639163971	fix_pre	0		119	76.0	2.5	/experiments/AOT/AOT_stimuli/rescaled_final/1006_fw.mp4	0.0	361.5477719306946	0.9921538829803467
78	327.94041991233826	pulse	0	t		76.0	2.5	/experiments/AOT/AOT_stimuli/rescaled_final/1006_fw.mp4	0.0	362.53182792663574	
78	327.94851779937744	movie	1		248	76.0	2.5	/experiments/AOT/AOT_stimuli/rescaled_final/1006_fw.mp4	0.0	362.5399258136749	2.5077590942382812
78	329.54038190841675	pulse	1	t		76.0	2.5	/experiments/AOT/AOT_stimuli/rescaled_final/1006_fw.mp4	0.0	364.13178992271423	
78	330.4562768936157	fix_post	2		12	76.0	2.5	/experiments/AOT/AOT_stimuli/rescaled_final/1006_fw.mp4	0.0	365.0476849079132	0.10055398941040039
79	330.5568308830261	fix_pre	0		120	77.0	2.5	/experiments/AOT/AOT_stimuli/rescaled_final/1762_rv.mp4	0.0	365.1482388973236	0.999932050704956
79	331.14028000831604	pulse	0	t		77.0	2.5	/experiments/AOT/AOT_stimuli/rescaled_final/1762_rv.mp4	0.0	365.7316880226135	
79	331.5567629337311	movie	1		244	77.0	2.5	/experiments/AOT/AOT_stimuli/rescaled_final/1762_rv.mp4	0.0	366.14817094802856	2.4999499320983887
79	332.74033093452454	pulse	1	t		77.0	2.5	/experiments/AOT/AOT_stimuli/rescaled_final/1762_rv.mp4	0.0	367.331738948822	
79	334.05671286582947	fix_post	2		12	77.0	2.5	/experiments/AOT/AOT_stimuli/rescaled_final/1762_rv.mp4	0.0	368.64812088012695	0.10011410713195801
80	334.1568269729614	fix_pre	0		120	78.0	2.5	/experiments/AOT/AOT_stimuli/rescaled_final/1762_fw.mp4	0.0	368.7482349872589	0.9999380111694336
80	334.3402178287506	pulse	0	t		78.0	2.5	/experiments/AOT/AOT_stimuli/rescaled_final/1762_fw.mp4	0.0	368.9316258430481	
80	335.15676498413086	movie	1		244	78.0	2.5	/experiments/AOT/AOT_stimuli/rescaled_final/1762_fw.mp4	0.0	369.74817299842834	2.4999430179595947
80	335.94026589393616	pulse	1	t		78.0	2.5	/experiments/AOT/AOT_stimuli/rescaled_final/1762_fw.mp4	0.0	370.53167390823364	
80	337.53885102272034	pulse	1	t		78.0	2.5	/experiments/AOT/AOT_stimuli/rescaled_final/1762_fw.mp4	0.0	372.1302590370178	
80	337.65670800209045	fix_post	2		12	78.0	2.5	/experiments/AOT/AOT_stimuli/rescaled_final/1762_fw.mp4	0.0	372.24811601638794	0.10007381439208984
81	337.75678181648254	fix_pre	0		120	79.0	2.5	/experiments/AOT/AOT_stimuli/rescaled_final/1342_rv.mp4	0.0	372.34818983078003	0.9999301433563232
81	338.75671195983887	movie	1		248	79.0	2.5	/experiments/AOT/AOT_stimuli/rescaled_final/1342_rv.mp4	0.0	373.34811997413635	2.4996330738067627
81	339.1404719352722	pulse	1	t		79.0	2.5	/experiments/AOT/AOT_stimuli/rescaled_final/1342_rv.mp4	0.0	373.7318799495697	
81	340.7397828102112	pulse	1	t		79.0	2.5	/experiments/AOT/AOT_stimuli/rescaled_final/1342_rv.mp4	0.0	375.33119082450867	
81	341.25634503364563	fix_post	2		12	79.0	2.5	/experiments/AOT/AOT_stimuli/rescaled_final/1342_rv.mp4	0.0	375.8477530479431	0.09999799728393555
82	341.35634303092957	fix_pre	0		119	80.0	2.5	/experiments/AOT/AOT_stimuli/rescaled_final/1350_fw.mp4	0.0	375.94775104522705	0.992114782333374
82	342.339900970459	pulse	0	t		80.0	2.5	/experiments/AOT/AOT_stimuli/rescaled_final/1350_fw.mp4	0.0	376.93130898475647	
82	342.34845781326294	movie	1		246	80.0	2.5	/experiments/AOT/AOT_stimuli/rescaled_final/1350_fw.mp4	0.0	376.9398658275604	2.5078630447387695
82	343.940034866333	pulse	1	t		80.0	2.5	/experiments/AOT/AOT_stimuli/rescaled_final/1350_fw.mp4	0.0	378.5314428806305	
82	344.8563208580017	fix_post	2		12	80.0	2.5	/experiments/AOT/AOT_stimuli/rescaled_final/1350_fw.mp4	0.0	379.4477288722992	0.1004340648651123
83	344.9567549228668	fix_pre	0		120	81.0	2.5	/experiments/AOT/AOT_stimuli/rescaled_final/1750_fw.mp4	0.0	379.5481629371643	0.9999098777770996
83	345.5402548313141	pulse	0	t		81.0	2.5	/experiments/AOT/AOT_stimuli/rescaled_final/1750_fw.mp4	0.0	380.1316628456116	
83	345.9566648006439	movie	1		245	81.0	2.5	/experiments/AOT/AOT_stimuli/rescaled_final/1750_fw.mp4	0.0	380.5480728149414	2.4996070861816406
83	347.1402289867401	pulse	1	t		81.0	2.5	/experiments/AOT/AOT_stimuli/rescaled_final/1750_fw.mp4	0.0	381.7316370010376	
83	348.45627188682556	fix_post	2		12	81.0	2.5	/experiments/AOT/AOT_stimuli/rescaled_final/1750_fw.mp4	0.0	383.04767990112305	0.10040402412414551
84	348.5566759109497	fix_pre	0		120	82.0	2.5	/experiments/AOT/AOT_stimuli/rescaled_final/1862_fw.mp4	0.0	383.1480839252472	1.0000278949737549
84	348.74021792411804	pulse	0	t		82.0	2.5	/experiments/AOT/AOT_stimuli/rescaled_final/1862_fw.mp4	0.0	383.3316259384155	
84	349.55670380592346	movie	1		244	82.0	2.5	/experiments/AOT/AOT_stimuli/rescaled_final/1862_fw.mp4	0.0	384.14811182022095	2.4999430179595947
84	350.34009194374084	pulse	1	t		82.0	2.5	/experiments/AOT/AOT_stimuli/rescaled_final/1862_fw.mp4	0.0	384.93149995803833	
84	351.9386730194092	pulse	1	t		82.0	2.5	/experiments/AOT/AOT_stimuli/rescaled_final/1862_fw.mp4	0.0	386.53008103370667	
84	352.05664682388306	fix_post	2		12	82.0	2.5	/experiments/AOT/AOT_stimuli/rescaled_final/1862_fw.mp4	0.0	386.64805483818054	0.09997820854187012
85	352.1566250324249	fix_pre	0		120	83.0	2.5	blank	1.0	386.7480330467224	1.0000958442687988
85	353.1567208766937	movie	1		300	83.0	2.5	blank	1.0	387.7481288909912	2.499932050704956
85	353.5401120185852	pulse	1	t		83.0	2.5	blank	1.0	388.1315200328827	
85	355.14011001586914	pulse	1	t		83.0	2.5	blank	1.0	389.7315180301666	
85	355.6566529273987	fix_post	2		12	83.0	2.5	blank	1.0	390.24806094169617	0.09998106956481934
87	355.7566339969635	stim	0		1716					390.348042011261	14.3000009059906
87	356.7400748729706	pulse	0	t						391.33148288726807	
87	358.3400869369507	pulse	0	t						392.93149495124817	
87	359.9401009082794	pulse	0	t						394.5315089225769	
87	361.54011583328247	pulse	0	t						396.13152384757996	
87	363.1401069164276	pulse	0	t						397.7315149307251	
87	364.7400949001312	pulse	0	t						399.3315029144287	
87	366.3400819301605	pulse	0	t						400.931489944458	
87	367.9400498867035	pulse	0	t						402.531457901001	
87	369.5401039123535	pulse	0	t						404.131511926651	
