trial_nr	onset	event_type	phase	response	nr_frames	movie_index	movie_duration	movie_file	blank	onset_abs	duration
0	0.16653037071228027	stim	0		31					18.17185139656067	0.25821471214294434
0	0.41668272018432617	response	0	space						18.422003746032715	
1	0.4247450828552246	stim	0		4475					18.430066108703613	37.3060884475708
1	37.721155881881714	pulse	0	t						55.7264769077301	
1	37.730833530426025	stim	1		1715					55.736154556274414	14.301980972290039
1	39.314244747161865	pulse	1	t						57.319565773010254	
1	40.914395570755005	pulse	1	t						58.919716596603394	
1	42.51469540596008	pulse	1	t						60.52001643180847	
1	44.114991426467896	pulse	1	t						62.120312452316284	
1	45.715192556381226	pulse	1	t						63.720513582229614	
1	47.3154296875	pulse	1	t						65.32075071334839	
1	48.91575360298157	pulse	1	t						66.92107462882996	
1	50.51611638069153	pulse	1	t						68.52143740653992	
2	52.032814502716064	fix_pre	0		11	0.0	2.5	/experiments/knapen_AOT/AOT_stimuli/rescaled_final/1323_rv.mp4	0.0	70.03813552856445	0.10816574096679688
2	52.116220474243164	pulse	0	t		0.0	2.5	/experiments/knapen_AOT/AOT_stimuli/rescaled_final/1323_rv.mp4	0.0	70.12154150009155	
2	52.14098024368286	movie	1		285	0.0	2.5	/experiments/knapen_AOT/AOT_stimuli/rescaled_final/1323_rv.mp4	0.0	70.14630126953125	2.4921560287475586
2	53.71480655670166	pulse	1	t		0.0	2.5	/experiments/knapen_AOT/AOT_stimuli/rescaled_final/1323_rv.mp4	0.0	71.72012758255005	
2	54.63313627243042	fix_post	2		12	0.0	2.5	/experiments/knapen_AOT/AOT_stimuli/rescaled_final/1323_rv.mp4	0.0	72.63845729827881	0.09980416297912598
3	54.732940435409546	fix_pre	0		120	1.0	2.5	/experiments/knapen_AOT/AOT_stimuli/rescaled_final/0289_fw.mp4	0.0	72.73826146125793	1.008507490158081
3	55.31686234474182	pulse	0	t		1.0	2.5	/experiments/knapen_AOT/AOT_stimuli/rescaled_final/0289_fw.mp4	0.0	73.32218337059021	
3	55.74144792556763	movie	1		291	1.0	2.5	/experiments/knapen_AOT/AOT_stimuli/rescaled_final/0289_fw.mp4	0.0	73.74676895141602	2.4920742511749268
3	56.91517877578735	pulse	1	t		1.0	2.5	/experiments/knapen_AOT/AOT_stimuli/rescaled_final/0289_fw.mp4	0.0	74.92049980163574	
3	58.233522176742554	fix_post	2		12	1.0	2.5	/experiments/knapen_AOT/AOT_stimuli/rescaled_final/0289_fw.mp4	0.0	76.23884320259094	0.10002851486206055
4	58.333550691604614	fix_pre	0		120	2.0	2.5	/experiments/knapen_AOT/AOT_stimuli/rescaled_final/0464_fw.mp4	0.0	76.338871717453	1.0084755420684814
4	58.517072677612305	pulse	0	t		2.0	2.5	/experiments/knapen_AOT/AOT_stimuli/rescaled_final/0464_fw.mp4	0.0	76.5223937034607	
4	59.342026233673096	movie	1		284	2.0	2.5	/experiments/knapen_AOT/AOT_stimuli/rescaled_final/0464_fw.mp4	0.0	77.34734725952148	2.492210626602173
4	60.11558938026428	pulse	1	t		2.0	2.5	/experiments/knapen_AOT/AOT_stimuli/rescaled_final/0464_fw.mp4	0.0	78.12091040611267	
4	61.71555805206299	pulse	1	t		2.0	2.5	/experiments/knapen_AOT/AOT_stimuli/rescaled_final/0464_fw.mp4	0.0	79.72087907791138	
4	61.83423686027527	fix_post	2		12	2.0	2.5	/experiments/knapen_AOT/AOT_stimuli/rescaled_final/0464_fw.mp4	0.0	79.83955788612366	0.09978795051574707
5	61.934024810791016	fix_pre	0		120	3.0	2.5	/experiments/knapen_AOT/AOT_stimuli/rescaled_final/1120_rv.mp4	0.0	79.9393458366394	1.0085999965667725
5	62.94262480735779	movie	1		291	3.0	2.5	/experiments/knapen_AOT/AOT_stimuli/rescaled_final/1120_rv.mp4	0.0	80.94794583320618	2.4923207759857178
5	63.31616020202637	pulse	1	t		3.0	2.5	/experiments/knapen_AOT/AOT_stimuli/rescaled_final/1120_rv.mp4	0.0	81.32148122787476	
5	64.91588592529297	pulse	1	t		3.0	2.5	/experiments/knapen_AOT/AOT_stimuli/rescaled_final/1120_rv.mp4	0.0	82.92120695114136	
5	65.4349455833435	fix_post	2		12	3.0	2.5	/experiments/knapen_AOT/AOT_stimuli/rescaled_final/1120_rv.mp4	0.0	83.4402666091919	0.09965229034423828
6	65.53459787368774	fix_pre	0		119	4.0	2.5	/experiments/knapen_AOT/AOT_stimuli/rescaled_final/0744_rv.mp4	0.0	83.53991889953613	1.0002198219299316
6	66.51049399375916	pulse	0	t		4.0	2.5	/experiments/knapen_AOT/AOT_stimuli/rescaled_final/0744_rv.mp4	0.0	84.51581501960754	
6	66.53481769561768	movie	1		273	4.0	2.5	/experiments/knapen_AOT/AOT_stimuli/rescaled_final/0744_rv.mp4	0.0	84.54013872146606	2.500298500061035
6	68.11039447784424	pulse	1	t		4.0	2.5	/experiments/knapen_AOT/AOT_stimuli/rescaled_final/0744_rv.mp4	0.0	86.11571550369263	
6	69.03511619567871	fix_post	2		12	4.0	2.5	/experiments/knapen_AOT/AOT_stimuli/rescaled_final/0744_rv.mp4	0.0	87.0404372215271	0.10004758834838867
7	69.1351637840271	fix_pre	0		120	5.0	2.5	/experiments/knapen_AOT/AOT_stimuli/rescaled_final/0464_rv.mp4	0.0	87.14048480987549	1.0087900161743164
7	69.71039533615112	pulse	0	t		5.0	2.5	/experiments/knapen_AOT/AOT_stimuli/rescaled_final/0464_rv.mp4	0.0	87.71571636199951	
7	70.14395380020142	movie	1		261	5.0	2.5	/experiments/knapen_AOT/AOT_stimuli/rescaled_final/0464_rv.mp4	0.0	88.1492748260498	2.4917194843292236
7	71.3118805885315	pulse	1	t		5.0	2.5	/experiments/knapen_AOT/AOT_stimuli/rescaled_final/0464_rv.mp4	0.0	89.31720161437988	
7	72.63567328453064	fix_post	2		12	5.0	2.5	/experiments/knapen_AOT/AOT_stimuli/rescaled_final/0464_rv.mp4	0.0	90.64099431037903	0.10003018379211426
8	72.73570346832275	fix_pre	0		120	6.0	2.5	blank	1.0	90.74102449417114	1.000091552734375
8	72.91088509559631	pulse	0	t		6.0	2.5	blank	1.0	90.9162061214447	
8	73.73579502105713	movie	1		300	6.0	2.5	blank	1.0	91.74111604690552	2.5003936290740967
8	74.511150598526	pulse	1	t		6.0	2.5	blank	1.0	92.51647162437439	
8	76.11144733428955	pulse	1	t		6.0	2.5	blank	1.0	94.11676836013794	
8	76.23618865013123	fix_post	2		12	6.0	2.5	blank	1.0	94.24150967597961	0.10021233558654785
9	76.33640098571777	fix_pre	0		120	7.0	2.5	/experiments/knapen_AOT/AOT_stimuli/rescaled_final/0844_rv.mp4	0.0	94.34172201156616	1.0084924697875977
9	77.34489345550537	movie	1		263	7.0	2.5	/experiments/knapen_AOT/AOT_stimuli/rescaled_final/0844_rv.mp4	0.0	95.35021448135376	2.491827964782715
9	77.71168518066406	pulse	1	t		7.0	2.5	/experiments/knapen_AOT/AOT_stimuli/rescaled_final/0844_rv.mp4	0.0	95.71700620651245	
9	79.31191301345825	pulse	1	t		7.0	2.5	/experiments/knapen_AOT/AOT_stimuli/rescaled_final/0844_rv.mp4	0.0	97.31723403930664	
9	79.83672142028809	fix_post	2		12	7.0	2.5	/experiments/knapen_AOT/AOT_stimuli/rescaled_final/0844_rv.mp4	0.0	97.84204244613647	0.10003113746643066
10	79.93675255775452	fix_pre	0		118	8.0	2.5	/experiments/knapen_AOT/AOT_stimuli/rescaled_final/1081_rv.mp4	0.0	97.9420735836029	0.9922916889190674
10	80.9121105670929	pulse	0	t		8.0	2.5	/experiments/knapen_AOT/AOT_stimuli/rescaled_final/1081_rv.mp4	0.0	98.91743159294128	
10	80.92904424667358	movie	1		267	8.0	2.5	/experiments/knapen_AOT/AOT_stimuli/rescaled_final/1081_rv.mp4	0.0	98.93436527252197	2.4998719692230225
10	82.510995388031	pulse	1	t		8.0	2.5	/experiments/knapen_AOT/AOT_stimuli/rescaled_final/1081_rv.mp4	0.0	100.5163164138794	
10	83.4289162158966	fix_post	2		12	8.0	2.5	/experiments/knapen_AOT/AOT_stimuli/rescaled_final/1081_rv.mp4	0.0	101.434237241745	0.10003662109375
11	83.52895283699036	fix_pre	0		120	9.0	2.5	/experiments/knapen_AOT/AOT_stimuli/rescaled_final/1901_fw.mp4	0.0	101.53427386283875	1.008610486984253
11	84.11259651184082	pulse	0	t		9.0	2.5	/experiments/knapen_AOT/AOT_stimuli/rescaled_final/1901_fw.mp4	0.0	102.11791753768921	
11	84.53756332397461	movie	1		271	9.0	2.5	/experiments/knapen_AOT/AOT_stimuli/rescaled_final/1901_fw.mp4	0.0	102.542884349823	2.492095470428467
11	85.71211671829224	pulse	1	t		9.0	2.5	/experiments/knapen_AOT/AOT_stimuli/rescaled_final/1901_fw.mp4	0.0	103.71743774414062	
11	87.02965879440308	fix_post	2		12	9.0	2.5	/experiments/knapen_AOT/AOT_stimuli/rescaled_final/1901_fw.mp4	0.0	105.03497982025146	0.099884033203125
12	87.1295428276062	fix_pre	0		120	10.0	2.5	/experiments/knapen_AOT/AOT_stimuli/rescaled_final/0379_rv.mp4	0.0	105.13486385345459	1.008481502532959
12	87.31304740905762	pulse	0	t		10.0	2.5	/experiments/knapen_AOT/AOT_stimuli/rescaled_final/0379_rv.mp4	0.0	105.318368434906	
12	88.13802433013916	movie	1		278	10.0	2.5	/experiments/knapen_AOT/AOT_stimuli/rescaled_final/0379_rv.mp4	0.0	106.14334535598755	2.4923365116119385
12	88.91134333610535	pulse	1	t		10.0	2.5	/experiments/knapen_AOT/AOT_stimuli/rescaled_final/0379_rv.mp4	0.0	106.91666436195374	
12	90.51135659217834	pulse	1	t		10.0	2.5	/experiments/knapen_AOT/AOT_stimuli/rescaled_final/0379_rv.mp4	0.0	108.51667761802673	
12	90.6303608417511	fix_post	2		12	10.0	2.5	/experiments/knapen_AOT/AOT_stimuli/rescaled_final/0379_rv.mp4	0.0	108.63568186759949	0.09967780113220215
13	90.7300386428833	fix_pre	0		120	11.0	2.5	/experiments/knapen_AOT/AOT_stimuli/rescaled_final/1707_rv.mp4	0.0	108.73535966873169	1.0085644721984863
13	91.73860311508179	movie	1		259	11.0	2.5	/experiments/knapen_AOT/AOT_stimuli/rescaled_final/1707_rv.mp4	0.0	109.74392414093018	2.5004186630249023
13	92.11463451385498	pulse	1	t		11.0	2.5	/experiments/knapen_AOT/AOT_stimuli/rescaled_final/1707_rv.mp4	0.0	110.11995553970337	
13	93.71219062805176	pulse	1	t		11.0	2.5	/experiments/knapen_AOT/AOT_stimuli/rescaled_final/1707_rv.mp4	0.0	111.71751165390015	
13	94.23902177810669	fix_post	2		11	11.0	2.5	/experiments/knapen_AOT/AOT_stimuli/rescaled_final/1707_rv.mp4	0.0	112.24434280395508	0.09171772003173828
14	94.33073949813843	fix_pre	0		119	12.0	2.5	blank	1.0	112.33606052398682	0.9916210174560547
14	95.31431698799133	pulse	0	t		12.0	2.5	blank	1.0	113.31963801383972	
14	95.32236051559448	movie	1		301	12.0	2.5	blank	1.0	113.32768154144287	2.508781671524048
14	96.91454863548279	pulse	1	t		12.0	2.5	blank	1.0	114.91986966133118	
14	97.83114218711853	fix_post	2		12	12.0	2.5	blank	1.0	115.83646321296692	0.09998273849487305
15	97.9311249256134	fix_pre	0		120	13.0	2.5	/experiments/knapen_AOT/AOT_stimuli/rescaled_final/0538_rv.mp4	0.0	115.93644595146179	1.0084903240203857
15	98.5149188041687	pulse	0	t		13.0	2.5	/experiments/knapen_AOT/AOT_stimuli/rescaled_final/0538_rv.mp4	0.0	116.52023983001709	
15	98.93961524963379	movie	1		261	13.0	2.5	/experiments/knapen_AOT/AOT_stimuli/rescaled_final/0538_rv.mp4	0.0	116.94493627548218	2.492020845413208
15	100.1152241230011	pulse	1	t		13.0	2.5	/experiments/knapen_AOT/AOT_stimuli/rescaled_final/0538_rv.mp4	0.0	118.12054514884949	
15	101.431636095047	fix_post	2		12	13.0	2.5	/experiments/knapen_AOT/AOT_stimuli/rescaled_final/0538_rv.mp4	0.0	119.43695712089539	0.10003399848937988
16	101.53167009353638	fix_pre	0		120	14.0	2.5	/experiments/knapen_AOT/AOT_stimuli/rescaled_final/0589_fw.mp4	0.0	119.53699111938477	1.0085780620574951
16	101.71522045135498	pulse	0	t		14.0	2.5	/experiments/knapen_AOT/AOT_stimuli/rescaled_final/0589_fw.mp4	0.0	119.72054147720337	
16	102.54024815559387	movie	1		268	14.0	2.5	/experiments/knapen_AOT/AOT_stimuli/rescaled_final/0589_fw.mp4	0.0	120.54556918144226	2.4919495582580566
16	103.31581354141235	pulse	1	t		14.0	2.5	/experiments/knapen_AOT/AOT_stimuli/rescaled_final/0589_fw.mp4	0.0	121.32113456726074	
16	104.91607880592346	pulse	1	t		14.0	2.5	/experiments/knapen_AOT/AOT_stimuli/rescaled_final/0589_fw.mp4	0.0	122.92139983177185	
16	105.03219771385193	fix_post	2		12	14.0	2.5	/experiments/knapen_AOT/AOT_stimuli/rescaled_final/0589_fw.mp4	0.0	123.03751873970032	0.1002805233001709
17	105.1324782371521	fix_pre	0		120	15.0	2.5	/experiments/knapen_AOT/AOT_stimuli/rescaled_final/1637_fw.mp4	0.0	123.13779926300049	1.0082802772521973
17	106.1407585144043	movie	1		262	15.0	2.5	/experiments/knapen_AOT/AOT_stimuli/rescaled_final/1637_fw.mp4	0.0	124.14607954025269	2.4921112060546875
17	106.51528692245483	pulse	1	t		15.0	2.5	/experiments/knapen_AOT/AOT_stimuli/rescaled_final/1637_fw.mp4	0.0	124.52060794830322	
17	108.11542558670044	pulse	1	t		15.0	2.5	/experiments/knapen_AOT/AOT_stimuli/rescaled_final/1637_fw.mp4	0.0	126.12074661254883	
17	108.63286972045898	fix_post	2		12	15.0	2.5	/experiments/knapen_AOT/AOT_stimuli/rescaled_final/1637_fw.mp4	0.0	126.63819074630737	0.09997391700744629
18	108.73284363746643	fix_pre	0		119	16.0	2.5	/experiments/knapen_AOT/AOT_stimuli/rescaled_final/1178_rv.mp4	0.0	126.73816466331482	1.0000641345977783
18	109.7165470123291	pulse	0	t		16.0	2.5	/experiments/knapen_AOT/AOT_stimuli/rescaled_final/1178_rv.mp4	0.0	127.72186803817749	
18	109.73290777206421	movie	1		263	16.0	2.5	/experiments/knapen_AOT/AOT_stimuli/rescaled_final/1178_rv.mp4	0.0	127.7382287979126	2.5005431175231934
18	111.3155825138092	pulse	1	t		16.0	2.5	/experiments/knapen_AOT/AOT_stimuli/rescaled_final/1178_rv.mp4	0.0	129.3209035396576	
18	112.2334508895874	fix_post	2		12	16.0	2.5	/experiments/knapen_AOT/AOT_stimuli/rescaled_final/1178_rv.mp4	0.0	130.2387719154358	0.09993863105773926
19	112.33338952064514	fix_pre	0		120	17.0	2.5	/experiments/knapen_AOT/AOT_stimuli/rescaled_final/0211_fw.mp4	0.0	130.33871054649353	1.0085899829864502
19	112.91691780090332	pulse	0	t		17.0	2.5	/experiments/knapen_AOT/AOT_stimuli/rescaled_final/0211_fw.mp4	0.0	130.9222388267517	
19	113.34197950363159	movie	1		251	17.0	2.5	/experiments/knapen_AOT/AOT_stimuli/rescaled_final/0211_fw.mp4	0.0	131.34730052947998	2.491819143295288
19	114.51646709442139	pulse	1	t		17.0	2.5	/experiments/knapen_AOT/AOT_stimuli/rescaled_final/0211_fw.mp4	0.0	132.52178812026978	
19	115.83379864692688	fix_post	2		12	17.0	2.5	/experiments/knapen_AOT/AOT_stimuli/rescaled_final/0211_fw.mp4	0.0	133.83911967277527	0.10019731521606445
20	115.93399596214294	fix_pre	0		120	18.0	2.5	/experiments/knapen_AOT/AOT_stimuli/rescaled_final/0320_fw.mp4	0.0	133.93931698799133	1.0083074569702148
20	116.11740255355835	pulse	0	t		18.0	2.5	/experiments/knapen_AOT/AOT_stimuli/rescaled_final/0320_fw.mp4	0.0	134.12272357940674	
20	116.94230341911316	movie	1		260	18.0	2.5	/experiments/knapen_AOT/AOT_stimuli/rescaled_final/0320_fw.mp4	0.0	134.94762444496155	2.4921295642852783
20	117.71797680854797	pulse	1	t		18.0	2.5	/experiments/knapen_AOT/AOT_stimuli/rescaled_final/0320_fw.mp4	0.0	135.72329783439636	
20	119.31811785697937	pulse	1	t		18.0	2.5	/experiments/knapen_AOT/AOT_stimuli/rescaled_final/0320_fw.mp4	0.0	137.32343888282776	
20	119.43443298339844	fix_post	2		12	18.0	2.5	/experiments/knapen_AOT/AOT_stimuli/rescaled_final/0320_fw.mp4	0.0	137.43975400924683	0.09993338584899902
21	119.53436636924744	fix_pre	0		120	19.0	2.5	/experiments/knapen_AOT/AOT_stimuli/rescaled_final/0406_rv.mp4	0.0	137.53968739509583	1.0088129043579102
21	120.54317927360535	movie	1		259	19.0	2.5	/experiments/knapen_AOT/AOT_stimuli/rescaled_final/0406_rv.mp4	0.0	138.54850029945374	2.4919450283050537
21	120.91870188713074	pulse	1	t		19.0	2.5	/experiments/knapen_AOT/AOT_stimuli/rescaled_final/0406_rv.mp4	0.0	138.92402291297913	
21	122.51632833480835	pulse	1	t		19.0	2.5	/experiments/knapen_AOT/AOT_stimuli/rescaled_final/0406_rv.mp4	0.0	140.52164936065674	
21	123.0351243019104	fix_post	2		12	19.0	2.5	/experiments/knapen_AOT/AOT_stimuli/rescaled_final/0406_rv.mp4	0.0	141.0404453277588	0.10022878646850586
22	123.1353530883789	fix_pre	0		119	20.0	2.5	/experiments/knapen_AOT/AOT_stimuli/rescaled_final/0377_fw.mp4	0.0	141.1406741142273	0.9997200965881348
22	124.11188578605652	pulse	0	t		20.0	2.5	/experiments/knapen_AOT/AOT_stimuli/rescaled_final/0377_fw.mp4	0.0	142.1172068119049	
22	124.13507318496704	movie	1		270	20.0	2.5	/experiments/knapen_AOT/AOT_stimuli/rescaled_final/0377_fw.mp4	0.0	142.14039421081543	2.5003769397735596
22	125.7109010219574	pulse	1	t		20.0	2.5	/experiments/knapen_AOT/AOT_stimuli/rescaled_final/0377_fw.mp4	0.0	143.7162220478058	
22	126.6354501247406	fix_post	2		12	20.0	2.5	/experiments/knapen_AOT/AOT_stimuli/rescaled_final/0377_fw.mp4	0.0	144.640771150589	0.1000514030456543
23	126.73550152778625	fix_pre	0		120	21.0	2.5	blank	1.0	144.74082255363464	1.000169277191162
23	127.310800075531	pulse	0	t		21.0	2.5	blank	1.0	145.3161211013794	
23	127.73567080497742	movie	1		300	21.0	2.5	blank	1.0	145.7409918308258	2.5003089904785156
23	128.911052942276	pulse	1	t		21.0	2.5	blank	1.0	146.9163739681244	
23	130.23597979545593	fix_post	2		12	21.0	2.5	blank	1.0	148.24130082130432	0.09999895095825195
24	130.33597874641418	fix_pre	0		120	22.0	2.5	/experiments/knapen_AOT/AOT_stimuli/rescaled_final/1545_fw.mp4	0.0	148.34129977226257	1.0084891319274902
24	130.51120352745056	pulse	0	t		22.0	2.5	/experiments/knapen_AOT/AOT_stimuli/rescaled_final/1545_fw.mp4	0.0	148.51652455329895	
24	131.34446787834167	movie	1		259	22.0	2.5	/experiments/knapen_AOT/AOT_stimuli/rescaled_final/1545_fw.mp4	0.0	149.34978890419006	2.500553607940674
24	132.11149334907532	pulse	1	t		22.0	2.5	/experiments/knapen_AOT/AOT_stimuli/rescaled_final/1545_fw.mp4	0.0	150.1168143749237	
24	133.711772441864	pulse	1	t		22.0	2.5	/experiments/knapen_AOT/AOT_stimuli/rescaled_final/1545_fw.mp4	0.0	151.7170934677124	
24	133.84502148628235	fix_post	2		11	22.0	2.5	/experiments/knapen_AOT/AOT_stimuli/rescaled_final/1545_fw.mp4	0.0	151.85034251213074	0.0915992259979248
25	133.93662071228027	fix_pre	0		120	23.0	2.5	/experiments/knapen_AOT/AOT_stimuli/rescaled_final/1340_rv.mp4	0.0	151.94194173812866	1.0085194110870361
25	134.9451401233673	movie	1		271	23.0	2.5	/experiments/knapen_AOT/AOT_stimuli/rescaled_final/1340_rv.mp4	0.0	152.9504611492157	2.4923040866851807
25	135.31149888038635	pulse	1	t		23.0	2.5	/experiments/knapen_AOT/AOT_stimuli/rescaled_final/1340_rv.mp4	0.0	153.31681990623474	
25	136.91225671768188	pulse	1	t		23.0	2.5	/experiments/knapen_AOT/AOT_stimuli/rescaled_final/1340_rv.mp4	0.0	154.91757774353027	
25	137.4374442100525	fix_post	2		12	23.0	2.5	/experiments/knapen_AOT/AOT_stimuli/rescaled_final/1340_rv.mp4	0.0	155.44276523590088	0.09969401359558105
26	137.53713822364807	fix_pre	0		118	24.0	2.5	/experiments/knapen_AOT/AOT_stimuli/rescaled_final/0480_fw.mp4	0.0	155.54245924949646	0.9918491840362549
26	138.51253628730774	pulse	0	t		24.0	2.5	/experiments/knapen_AOT/AOT_stimuli/rescaled_final/0480_fw.mp4	0.0	156.51785731315613	
26	138.52898740768433	movie	1		258	24.0	2.5	/experiments/knapen_AOT/AOT_stimuli/rescaled_final/0480_fw.mp4	0.0	156.53430843353271	2.5002646446228027
26	140.11104822158813	pulse	1	t		24.0	2.5	/experiments/knapen_AOT/AOT_stimuli/rescaled_final/0480_fw.mp4	0.0	158.11636924743652	
26	141.02925205230713	fix_post	2		12	24.0	2.5	/experiments/knapen_AOT/AOT_stimuli/rescaled_final/0480_fw.mp4	0.0	159.03457307815552	0.10002398490905762
27	141.1292760372162	fix_pre	0		120	25.0	2.5	/experiments/knapen_AOT/AOT_stimuli/rescaled_final/1262_rv.mp4	0.0	159.13459706306458	1.0084829330444336
27	141.71289229393005	pulse	0	t		25.0	2.5	/experiments/knapen_AOT/AOT_stimuli/rescaled_final/1262_rv.mp4	0.0	159.71821331977844	
27	142.13775897026062	movie	1		256	25.0	2.5	/experiments/knapen_AOT/AOT_stimuli/rescaled_final/1262_rv.mp4	0.0	160.143079996109	2.4922447204589844
27	143.3113579750061	pulse	1	t		25.0	2.5	/experiments/knapen_AOT/AOT_stimuli/rescaled_final/1262_rv.mp4	0.0	161.3166790008545	
27	144.6300036907196	fix_post	2		12	25.0	2.5	/experiments/knapen_AOT/AOT_stimuli/rescaled_final/1262_rv.mp4	0.0	162.635324716568	0.09982705116271973
28	144.72983074188232	fix_pre	0		120	26.0	2.5	/experiments/knapen_AOT/AOT_stimuli/rescaled_final/0377_fw.mp4	0.0	162.7351517677307	1.0084819793701172
28	144.91338896751404	pulse	0	t		26.0	2.5	/experiments/knapen_AOT/AOT_stimuli/rescaled_final/0377_fw.mp4	0.0	162.91870999336243	
28	145.73831272125244	movie	1		283	26.0	2.5	/experiments/knapen_AOT/AOT_stimuli/rescaled_final/0377_fw.mp4	0.0	163.74363374710083	2.4920427799224854
28	146.51161789894104	pulse	1	t		26.0	2.5	/experiments/knapen_AOT/AOT_stimuli/rescaled_final/0377_fw.mp4	0.0	164.51693892478943	
28	148.1134386062622	pulse	1	t		26.0	2.5	/experiments/knapen_AOT/AOT_stimuli/rescaled_final/0377_fw.mp4	0.0	166.1187596321106	
28	148.23035550117493	fix_post	2		12	26.0	2.5	/experiments/knapen_AOT/AOT_stimuli/rescaled_final/0377_fw.mp4	0.0	166.23567652702332	0.10015988349914551
29	148.33051538467407	fix_pre	0		120	27.0	2.5	/experiments/knapen_AOT/AOT_stimuli/rescaled_final/0210_fw.mp4	0.0	166.33583641052246	1.0084314346313477
29	149.33894681930542	movie	1		271	27.0	2.5	/experiments/knapen_AOT/AOT_stimuli/rescaled_final/0210_fw.mp4	0.0	167.3442678451538	2.492051362991333
29	149.71235823631287	pulse	1	t		27.0	2.5	/experiments/knapen_AOT/AOT_stimuli/rescaled_final/0210_fw.mp4	0.0	167.71767926216125	
29	151.31572031974792	pulse	1	t		27.0	2.5	/experiments/knapen_AOT/AOT_stimuli/rescaled_final/0210_fw.mp4	0.0	169.3210413455963	
29	151.83099818229675	fix_post	2		12	27.0	2.5	/experiments/knapen_AOT/AOT_stimuli/rescaled_final/0210_fw.mp4	0.0	169.83631920814514	0.09990763664245605
30	151.9309058189392	fix_pre	0		119	28.0	2.5	blank	1.0	169.9362268447876	0.991877555847168
30	152.91476726531982	pulse	0	t		28.0	2.5	blank	1.0	170.9200882911682	
30	152.92278337478638	movie	1		301	28.0	2.5	blank	1.0	170.92810440063477	2.508639097213745
30	154.514812707901	pulse	1	t		28.0	2.5	blank	1.0	172.5201337337494	
30	155.43142247200012	fix_post	2		12	28.0	2.5	blank	1.0	173.4367434978485	0.10003161430358887
31	155.5314540863037	fix_pre	0		120	29.0	2.5	/experiments/knapen_AOT/AOT_stimuli/rescaled_final/1949_fw.mp4	0.0	173.5367751121521	1.0085563659667969
31	156.11514687538147	pulse	0	t		29.0	2.5	/experiments/knapen_AOT/AOT_stimuli/rescaled_final/1949_fw.mp4	0.0	174.12046790122986	
31	156.5400104522705	movie	1		262	29.0	2.5	/experiments/knapen_AOT/AOT_stimuli/rescaled_final/1949_fw.mp4	0.0	174.5453314781189	2.4920074939727783
31	157.7137610912323	pulse	1	t		29.0	2.5	/experiments/knapen_AOT/AOT_stimuli/rescaled_final/1949_fw.mp4	0.0	175.7190821170807	
31	159.0320179462433	fix_post	2		12	29.0	2.5	/experiments/knapen_AOT/AOT_stimuli/rescaled_final/1949_fw.mp4	0.0	177.03733897209167	0.09998536109924316
32	159.13200330734253	fix_pre	0		120	30.0	2.5	/experiments/knapen_AOT/AOT_stimuli/rescaled_final/0095_fw.mp4	0.0	177.13732433319092	1.0085625648498535
32	159.3155586719513	pulse	0	t		30.0	2.5	/experiments/knapen_AOT/AOT_stimuli/rescaled_final/0095_fw.mp4	0.0	177.32087969779968	
32	160.14056587219238	movie	1		262	30.0	2.5	/experiments/knapen_AOT/AOT_stimuli/rescaled_final/0095_fw.mp4	0.0	178.14588689804077	2.492121696472168
32	160.91352367401123	pulse	1	t		30.0	2.5	/experiments/knapen_AOT/AOT_stimuli/rescaled_final/0095_fw.mp4	0.0	178.91884469985962	
32	162.51452040672302	pulse	1	t		30.0	2.5	/experiments/knapen_AOT/AOT_stimuli/rescaled_final/0095_fw.mp4	0.0	180.5198414325714	
32	162.63268756866455	fix_post	2		12	30.0	2.5	/experiments/knapen_AOT/AOT_stimuli/rescaled_final/0095_fw.mp4	0.0	180.63800859451294	0.09995841979980469
33	162.73264598846436	fix_pre	0		120	31.0	2.5	/experiments/knapen_AOT/AOT_stimuli/rescaled_final/0917_fw.mp4	0.0	180.73796701431274	1.0084679126739502
33	163.7411139011383	movie	1		264	31.0	2.5	/experiments/knapen_AOT/AOT_stimuli/rescaled_final/0917_fw.mp4	0.0	181.7464349269867	2.4921140670776367
33	164.11599445343018	pulse	1	t		31.0	2.5	/experiments/knapen_AOT/AOT_stimuli/rescaled_final/0917_fw.mp4	0.0	182.12131547927856	
33	165.7144672870636	pulse	1	t		31.0	2.5	/experiments/knapen_AOT/AOT_stimuli/rescaled_final/0917_fw.mp4	0.0	183.719788312912	
33	166.23322796821594	fix_post	2		12	31.0	2.5	/experiments/knapen_AOT/AOT_stimuli/rescaled_final/0917_fw.mp4	0.0	184.23854899406433	0.10027575492858887
34	166.33350372314453	fix_pre	0		119	32.0	2.5	/experiments/knapen_AOT/AOT_stimuli/rescaled_final/0049_rv.mp4	0.0	184.33882474899292	0.9997239112854004
34	167.31673741340637	pulse	0	t		32.0	2.5	/experiments/knapen_AOT/AOT_stimuli/rescaled_final/0049_rv.mp4	0.0	185.32205843925476	
34	167.33322763442993	movie	1		274	32.0	2.5	/experiments/knapen_AOT/AOT_stimuli/rescaled_final/0049_rv.mp4	0.0	185.33854866027832	2.5087730884552
34	168.91560125350952	pulse	1	t		32.0	2.5	/experiments/knapen_AOT/AOT_stimuli/rescaled_final/0049_rv.mp4	0.0	186.9209222793579	
34	169.84200072288513	fix_post	2		11	32.0	2.5	/experiments/knapen_AOT/AOT_stimuli/rescaled_final/0049_rv.mp4	0.0	187.84732174873352	0.09165596961975098
35	169.93365669250488	fix_pre	0		120	33.0	2.5	/experiments/knapen_AOT/AOT_stimuli/rescaled_final/0166_rv.mp4	0.0	187.93897771835327	1.008612871170044
35	170.51729774475098	pulse	0	t		33.0	2.5	/experiments/knapen_AOT/AOT_stimuli/rescaled_final/0166_rv.mp4	0.0	188.52261877059937	
35	170.94226956367493	movie	1		268	33.0	2.5	/experiments/knapen_AOT/AOT_stimuli/rescaled_final/0166_rv.mp4	0.0	188.94759058952332	2.4922847747802734
35	172.11643242835999	pulse	1	t		33.0	2.5	/experiments/knapen_AOT/AOT_stimuli/rescaled_final/0166_rv.mp4	0.0	190.12175345420837	
35	173.4345543384552	fix_post	2		12	33.0	2.5	/experiments/knapen_AOT/AOT_stimuli/rescaled_final/0166_rv.mp4	0.0	191.4398753643036	0.0997004508972168
36	173.53425478935242	fix_pre	0		120	34.0	2.5	blank	1.0	191.5395758152008	1.0000858306884766
36	173.7178852558136	pulse	0	t		34.0	2.5	blank	1.0	191.723206281662	
36	174.5343406200409	movie	1		300	34.0	2.5	blank	1.0	192.53966164588928	2.500386953353882
36	175.3179531097412	pulse	1	t		34.0	2.5	blank	1.0	193.3232741355896	
36	176.91816544532776	pulse	1	t		34.0	2.5	blank	1.0	194.92348647117615	
36	177.03472757339478	fix_post	2		12	34.0	2.5	blank	1.0	195.04004859924316	0.09996199607849121
37	177.13468956947327	fix_pre	0		120	35.0	2.5	/experiments/knapen_AOT/AOT_stimuli/rescaled_final/1707_fw.mp4	0.0	195.14001059532166	1.0086214542388916
37	178.14331102371216	movie	1		268	35.0	2.5	/experiments/knapen_AOT/AOT_stimuli/rescaled_final/1707_fw.mp4	0.0	196.14863204956055	2.4923012256622314
37	178.51689910888672	pulse	1	t		35.0	2.5	/experiments/knapen_AOT/AOT_stimuli/rescaled_final/1707_fw.mp4	0.0	196.5222201347351	
37	180.11681628227234	pulse	1	t		35.0	2.5	/experiments/knapen_AOT/AOT_stimuli/rescaled_final/1707_fw.mp4	0.0	198.12213730812073	
37	180.6356122493744	fix_post	2		12	35.0	2.5	/experiments/knapen_AOT/AOT_stimuli/rescaled_final/1707_fw.mp4	0.0	198.64093327522278	0.09985780715942383
38	180.7354700565338	fix_pre	0		119	36.0	2.5	/experiments/knapen_AOT/AOT_stimuli/rescaled_final/1578_rv.mp4	0.0	198.7407910823822	0.9999032020568848
38	181.71115946769714	pulse	0	t		36.0	2.5	/experiments/knapen_AOT/AOT_stimuli/rescaled_final/1578_rv.mp4	0.0	199.71648049354553	
38	181.7353732585907	movie	1		275	36.0	2.5	/experiments/knapen_AOT/AOT_stimuli/rescaled_final/1578_rv.mp4	0.0	199.7406942844391	2.5004723072052
38	183.31764578819275	pulse	1	t		36.0	2.5	/experiments/knapen_AOT/AOT_stimuli/rescaled_final/1578_rv.mp4	0.0	201.32296681404114	
38	184.2358455657959	fix_post	2		12	36.0	2.5	/experiments/knapen_AOT/AOT_stimuli/rescaled_final/1578_rv.mp4	0.0	202.2411665916443	0.0999763011932373
39	184.33582186698914	fix_pre	0		120	37.0	2.5	/experiments/knapen_AOT/AOT_stimuli/rescaled_final/1590_rv.mp4	0.0	202.34114289283752	1.0084998607635498
39	184.91126608848572	pulse	0	t		37.0	2.5	/experiments/knapen_AOT/AOT_stimuli/rescaled_final/1590_rv.mp4	0.0	202.9165871143341	
39	185.34432172775269	movie	1		265	37.0	2.5	/experiments/knapen_AOT/AOT_stimuli/rescaled_final/1590_rv.mp4	0.0	203.34964275360107	2.4924423694610596
39	186.5111541748047	pulse	1	t		37.0	2.5	/experiments/knapen_AOT/AOT_stimuli/rescaled_final/1590_rv.mp4	0.0	204.51647520065308	
39	187.83676409721375	fix_post	2		12	37.0	2.5	/experiments/knapen_AOT/AOT_stimuli/rescaled_final/1590_rv.mp4	0.0	205.84208512306213	0.09969782829284668
40	187.9364619255066	fix_pre	0		120	38.0	2.5	/experiments/knapen_AOT/AOT_stimuli/rescaled_final/1949_fw.mp4	0.0	205.94178295135498	1.008453130722046
40	188.11164808273315	pulse	0	t		38.0	2.5	/experiments/knapen_AOT/AOT_stimuli/rescaled_final/1949_fw.mp4	0.0	206.11696910858154	
40	188.94491505622864	movie	1		262	38.0	2.5	/experiments/knapen_AOT/AOT_stimuli/rescaled_final/1949_fw.mp4	0.0	206.95023608207703	2.4919581413269043
40	189.71211218833923	pulse	1	t		38.0	2.5	/experiments/knapen_AOT/AOT_stimuli/rescaled_final/1949_fw.mp4	0.0	207.71743321418762	
40	191.31200909614563	pulse	1	t		38.0	2.5	/experiments/knapen_AOT/AOT_stimuli/rescaled_final/1949_fw.mp4	0.0	209.31733012199402	
40	191.43687319755554	fix_post	2		12	38.0	2.5	/experiments/knapen_AOT/AOT_stimuli/rescaled_final/1949_fw.mp4	0.0	209.44219422340393	0.1000220775604248
41	191.53689527511597	fix_pre	0		120	39.0	2.5	/experiments/knapen_AOT/AOT_stimuli/rescaled_final/1584_fw.mp4	0.0	209.54221630096436	1.0085663795471191
41	192.5454616546631	movie	1		259	39.0	2.5	/experiments/knapen_AOT/AOT_stimuli/rescaled_final/1584_fw.mp4	0.0	210.55078268051147	2.491953134536743
41	192.9123294353485	pulse	1	t		39.0	2.5	/experiments/knapen_AOT/AOT_stimuli/rescaled_final/1584_fw.mp4	0.0	210.9176504611969	
41	194.5123541355133	pulse	1	t		39.0	2.5	/experiments/knapen_AOT/AOT_stimuli/rescaled_final/1584_fw.mp4	0.0	212.5176751613617	
41	195.03741478919983	fix_post	2		12	39.0	2.5	/experiments/knapen_AOT/AOT_stimuli/rescaled_final/1584_fw.mp4	0.0	213.04273581504822	0.09998917579650879
42	195.13740396499634	fix_pre	0		118	40.0	2.5	/experiments/knapen_AOT/AOT_stimuli/rescaled_final/1607_fw.mp4	0.0	213.14272499084473	0.9918265342712402
42	196.11275601387024	pulse	0	t		40.0	2.5	/experiments/knapen_AOT/AOT_stimuli/rescaled_final/1607_fw.mp4	0.0	214.11807703971863	
42	196.12923049926758	movie	1		270	40.0	2.5	/experiments/knapen_AOT/AOT_stimuli/rescaled_final/1607_fw.mp4	0.0	214.13455152511597	2.5005955696105957
42	197.71147561073303	pulse	1	t		40.0	2.5	/experiments/knapen_AOT/AOT_stimuli/rescaled_final/1607_fw.mp4	0.0	215.71679663658142	
42	198.62982606887817	fix_post	2		12	40.0	2.5	/experiments/knapen_AOT/AOT_stimuli/rescaled_final/1607_fw.mp4	0.0	216.63514709472656	0.0998377799987793
43	198.72966384887695	fix_pre	0		120	41.0	2.5	blank	1.0	216.73498487472534	1.0001442432403564
43	199.313223361969	pulse	0	t		41.0	2.5	blank	1.0	217.31854438781738	
43	199.7298080921173	movie	1		300	41.0	2.5	blank	1.0	217.7351291179657	2.500338315963745
43	200.91365718841553	pulse	1	t		41.0	2.5	blank	1.0	218.91897821426392	
43	202.23014640808105	fix_post	2		12	41.0	2.5	blank	1.0	220.23546743392944	0.10003995895385742
44	202.3301863670349	fix_pre	0		120	42.0	2.5	/experiments/knapen_AOT/AOT_stimuli/rescaled_final/0362_fw.mp4	0.0	220.3355073928833	1.0085713863372803
44	202.5136914253235	pulse	0	t		42.0	2.5	/experiments/knapen_AOT/AOT_stimuli/rescaled_final/0362_fw.mp4	0.0	220.51901245117188	
44	203.3387577533722	movie	1		263	42.0	2.5	/experiments/knapen_AOT/AOT_stimuli/rescaled_final/0362_fw.mp4	0.0	221.34407877922058	2.492144823074341
44	204.11200714111328	pulse	1	t		42.0	2.5	/experiments/knapen_AOT/AOT_stimuli/rescaled_final/0362_fw.mp4	0.0	222.11732816696167	
44	205.71234583854675	pulse	1	t		42.0	2.5	/experiments/knapen_AOT/AOT_stimuli/rescaled_final/0362_fw.mp4	0.0	223.71766686439514	
44	205.83090257644653	fix_post	2		12	42.0	2.5	/experiments/knapen_AOT/AOT_stimuli/rescaled_final/0362_fw.mp4	0.0	223.83622360229492	0.09985971450805664
45	205.9307622909546	fix_pre	0		120	43.0	2.5	/experiments/knapen_AOT/AOT_stimuli/rescaled_final/1693_fw.mp4	0.0	223.93608331680298	1.0084452629089355
45	206.93920755386353	movie	1		279	43.0	2.5	/experiments/knapen_AOT/AOT_stimuli/rescaled_final/1693_fw.mp4	0.0	224.9445285797119	2.492035388946533
45	207.31274795532227	pulse	1	t		43.0	2.5	/experiments/knapen_AOT/AOT_stimuli/rescaled_final/1693_fw.mp4	0.0	225.31806898117065	
45	208.91285157203674	pulse	1	t		43.0	2.5	/experiments/knapen_AOT/AOT_stimuli/rescaled_final/1693_fw.mp4	0.0	226.91817259788513	
45	209.43124294281006	fix_post	2		12	43.0	2.5	/experiments/knapen_AOT/AOT_stimuli/rescaled_final/1693_fw.mp4	0.0	227.43656396865845	0.10005903244018555
46	209.53130197525024	fix_pre	0		119	44.0	2.5	/experiments/knapen_AOT/AOT_stimuli/rescaled_final/1995_fw.mp4	0.0	227.53662300109863	1.0000581741333008
46	210.51496195793152	pulse	0	t		44.0	2.5	/experiments/knapen_AOT/AOT_stimuli/rescaled_final/1995_fw.mp4	0.0	228.5202829837799	
46	210.53136014938354	movie	1		266	44.0	2.5	/experiments/knapen_AOT/AOT_stimuli/rescaled_final/1995_fw.mp4	0.0	228.53668117523193	2.5007059574127197
46	212.11341094970703	pulse	1	t		44.0	2.5	/experiments/knapen_AOT/AOT_stimuli/rescaled_final/1995_fw.mp4	0.0	230.11873197555542	
46	213.03206610679626	fix_post	2		12	44.0	2.5	/experiments/knapen_AOT/AOT_stimuli/rescaled_final/1995_fw.mp4	0.0	231.03738713264465	0.09994196891784668
47	213.1320080757141	fix_pre	0		120	45.0	2.5	/experiments/knapen_AOT/AOT_stimuli/rescaled_final/0362_rv.mp4	0.0	231.1373291015625	1.0084025859832764
47	213.71537590026855	pulse	0	t		45.0	2.5	/experiments/knapen_AOT/AOT_stimuli/rescaled_final/0362_rv.mp4	0.0	231.72069692611694	
47	214.1404106616974	movie	1		277	45.0	2.5	/experiments/knapen_AOT/AOT_stimuli/rescaled_final/0362_rv.mp4	0.0	232.14573168754578	2.4919614791870117
47	215.31395292282104	pulse	1	t		45.0	2.5	/experiments/knapen_AOT/AOT_stimuli/rescaled_final/0362_rv.mp4	0.0	233.31927394866943	
47	216.6323721408844	fix_post	2		12	45.0	2.5	/experiments/knapen_AOT/AOT_stimuli/rescaled_final/0362_rv.mp4	0.0	234.6376931667328	0.09993529319763184
48	216.73230743408203	fix_pre	0		120	46.0	2.5	/experiments/knapen_AOT/AOT_stimuli/rescaled_final/0338_rv.mp4	0.0	234.73762845993042	1.0085256099700928
48	216.9158651828766	pulse	0	t		46.0	2.5	/experiments/knapen_AOT/AOT_stimuli/rescaled_final/0338_rv.mp4	0.0	234.92118620872498	
48	217.74083304405212	movie	1		270	46.0	2.5	/experiments/knapen_AOT/AOT_stimuli/rescaled_final/0338_rv.mp4	0.0	235.7461540699005	2.492084264755249
48	218.51451134681702	pulse	1	t		46.0	2.5	/experiments/knapen_AOT/AOT_stimuli/rescaled_final/0338_rv.mp4	0.0	236.5198323726654	
48	220.1148509979248	pulse	1	t		46.0	2.5	/experiments/knapen_AOT/AOT_stimuli/rescaled_final/0338_rv.mp4	0.0	238.1201720237732	
48	220.23291730880737	fix_post	2		12	46.0	2.5	/experiments/knapen_AOT/AOT_stimuli/rescaled_final/0338_rv.mp4	0.0	238.23823833465576	0.09997820854187012
49	220.33289551734924	fix_pre	0		120	47.0	2.5	blank	1.0	238.33821654319763	1.000093936920166
49	221.3329894542694	movie	1		284	47.0	2.5	blank	1.0	239.3383104801178	2.500394105911255
49	221.71658277511597	pulse	1	t		47.0	2.5	blank	1.0	239.72190380096436	
49	223.3175241947174	pulse	1	t		47.0	2.5	blank	1.0	241.3228452205658	
49	223.83338356018066	fix_post	2		12	47.0	2.5	blank	1.0	241.83870458602905	0.10016226768493652
50	223.9335458278656	fix_pre	0		119	48.0	2.5	/experiments/knapen_AOT/AOT_stimuli/rescaled_final/1149_fw.mp4	0.0	241.938866853714	1.0000026226043701
50	224.91709733009338	pulse	0	t		48.0	2.5	/experiments/knapen_AOT/AOT_stimuli/rescaled_final/1149_fw.mp4	0.0	242.92241835594177	
50	224.93354845046997	movie	1		280	48.0	2.5	/experiments/knapen_AOT/AOT_stimuli/rescaled_final/1149_fw.mp4	0.0	242.93886947631836	2.5004003047943115
50	226.5155131816864	pulse	1	t		48.0	2.5	/experiments/knapen_AOT/AOT_stimuli/rescaled_final/1149_fw.mp4	0.0	244.5208342075348	
50	227.43394875526428	fix_post	2		12	48.0	2.5	/experiments/knapen_AOT/AOT_stimuli/rescaled_final/1149_fw.mp4	0.0	245.43926978111267	0.10007834434509277
51	227.53402709960938	fix_pre	0		120	49.0	2.5	/experiments/knapen_AOT/AOT_stimuli/rescaled_final/0385_rv.mp4	0.0	245.53934812545776	1.0085864067077637
51	228.11773872375488	pulse	0	t		49.0	2.5	/experiments/knapen_AOT/AOT_stimuli/rescaled_final/0385_rv.mp4	0.0	246.12305974960327	
51	228.54261350631714	movie	1		267	49.0	2.5	/experiments/knapen_AOT/AOT_stimuli/rescaled_final/0385_rv.mp4	0.0	246.54793453216553	2.4918715953826904
51	229.71654272079468	pulse	1	t		49.0	2.5	/experiments/knapen_AOT/AOT_stimuli/rescaled_final/0385_rv.mp4	0.0	247.72186374664307	
51	231.03448510169983	fix_post	2		12	49.0	2.5	/experiments/knapen_AOT/AOT_stimuli/rescaled_final/0385_rv.mp4	0.0	249.03980612754822	0.09999203681945801
52	231.1344771385193	fix_pre	0		120	50.0	2.5	/experiments/knapen_AOT/AOT_stimuli/rescaled_final/0991_fw.mp4	0.0	249.13979816436768	1.0085251331329346
52	231.3105697631836	pulse	0	t		50.0	2.5	/experiments/knapen_AOT/AOT_stimuli/rescaled_final/0991_fw.mp4	0.0	249.31589078903198	
52	232.14300227165222	movie	1		276	50.0	2.5	/experiments/knapen_AOT/AOT_stimuli/rescaled_final/0991_fw.mp4	0.0	250.1483232975006	2.5007236003875732
52	232.91822838783264	pulse	1	t		50.0	2.5	/experiments/knapen_AOT/AOT_stimuli/rescaled_final/0991_fw.mp4	0.0	250.92354941368103	
52	234.51652479171753	pulse	1	t		50.0	2.5	/experiments/knapen_AOT/AOT_stimuli/rescaled_final/0991_fw.mp4	0.0	252.52184581756592	
52	234.6437258720398	fix_post	2		11	50.0	2.5	/experiments/knapen_AOT/AOT_stimuli/rescaled_final/0991_fw.mp4	0.0	252.64904689788818	0.0912773609161377
53	234.73500323295593	fix_pre	0		120	51.0	2.5	/experiments/knapen_AOT/AOT_stimuli/rescaled_final/0631_fw.mp4	0.0	252.74032425880432	1.0085232257843018
53	235.74352645874023	movie	1		255	51.0	2.5	/experiments/knapen_AOT/AOT_stimuli/rescaled_final/0631_fw.mp4	0.0	253.74884748458862	2.492400646209717
53	236.110942363739	pulse	1	t		51.0	2.5	/experiments/knapen_AOT/AOT_stimuli/rescaled_final/0631_fw.mp4	0.0	254.1162633895874	
53	237.71072697639465	pulse	1	t		51.0	2.5	/experiments/knapen_AOT/AOT_stimuli/rescaled_final/0631_fw.mp4	0.0	255.71604800224304	
53	238.23592710494995	fix_post	2		12	51.0	2.5	/experiments/knapen_AOT/AOT_stimuli/rescaled_final/0631_fw.mp4	0.0	256.24124813079834	0.09988141059875488
54	238.3358085155487	fix_pre	0		118	52.0	2.5	/experiments/knapen_AOT/AOT_stimuli/rescaled_final/1081_fw.mp4	0.0	256.3411295413971	0.9915809631347656
54	239.3109896183014	pulse	0	t		52.0	2.5	/experiments/knapen_AOT/AOT_stimuli/rescaled_final/1081_fw.mp4	0.0	257.3163106441498	
54	239.32738947868347	movie	1		285	52.0	2.5	/experiments/knapen_AOT/AOT_stimuli/rescaled_final/1081_fw.mp4	0.0	257.33271050453186	2.5003538131713867
54	240.91139554977417	pulse	1	t		52.0	2.5	/experiments/knapen_AOT/AOT_stimuli/rescaled_final/1081_fw.mp4	0.0	258.91671657562256	
54	241.82774329185486	fix_post	2		12	52.0	2.5	/experiments/knapen_AOT/AOT_stimuli/rescaled_final/1081_fw.mp4	0.0	259.83306431770325	0.10025668144226074
55	241.92799997329712	fix_pre	0		120	53.0	2.5	/experiments/knapen_AOT/AOT_stimuli/rescaled_final/1702_rv.mp4	0.0	259.9333209991455	1.0085539817810059
55	242.51139187812805	pulse	0	t		53.0	2.5	/experiments/knapen_AOT/AOT_stimuli/rescaled_final/1702_rv.mp4	0.0	260.51671290397644	
55	242.93655395507812	movie	1		286	53.0	2.5	/experiments/knapen_AOT/AOT_stimuli/rescaled_final/1702_rv.mp4	0.0	260.9418749809265	2.4917590618133545
55	244.11162877082825	pulse	1	t		53.0	2.5	/experiments/knapen_AOT/AOT_stimuli/rescaled_final/1702_rv.mp4	0.0	262.11694979667664	
55	245.42831301689148	fix_post	2		12	53.0	2.5	/experiments/knapen_AOT/AOT_stimuli/rescaled_final/1702_rv.mp4	0.0	263.43363404273987	0.10002517700195312
56	245.52833819389343	fix_pre	0		120	54.0	2.5	/experiments/knapen_AOT/AOT_stimuli/rescaled_final/0633_fw.mp4	0.0	263.5336592197418	1.0085082054138184
56	245.71186685562134	pulse	0	t		54.0	2.5	/experiments/knapen_AOT/AOT_stimuli/rescaled_final/0633_fw.mp4	0.0	263.7171878814697	
56	246.53684639930725	movie	1		273	54.0	2.5	/experiments/knapen_AOT/AOT_stimuli/rescaled_final/0633_fw.mp4	0.0	264.54216742515564	2.4923088550567627
56	247.31207990646362	pulse	1	t		54.0	2.5	/experiments/knapen_AOT/AOT_stimuli/rescaled_final/0633_fw.mp4	0.0	265.317400932312	
56	248.9125361442566	pulse	1	t		54.0	2.5	/experiments/knapen_AOT/AOT_stimuli/rescaled_final/0633_fw.mp4	0.0	266.917857170105	
56	249.029155254364	fix_post	2		12	54.0	2.5	/experiments/knapen_AOT/AOT_stimuli/rescaled_final/0633_fw.mp4	0.0	267.0344762802124	0.09977936744689941
57	249.1289346218109	fix_pre	0		120	55.0	2.5	blank	1.0	267.1342556476593	1.000063180923462
57	250.12899780273438	movie	1		300	55.0	2.5	blank	1.0	268.13431882858276	2.5004703998565674
57	250.51266598701477	pulse	1	t		55.0	2.5	blank	1.0	268.51798701286316	
57	252.1128284931183	pulse	1	t		55.0	2.5	blank	1.0	270.1181495189667	
57	252.62946820259094	fix_post	2		12	55.0	2.5	blank	1.0	270.63478922843933	0.09997439384460449
58	252.72944259643555	fix_pre	0		119	56.0	2.5	/experiments/knapen_AOT/AOT_stimuli/rescaled_final/1824_fw.mp4	0.0	270.73476362228394	1.0088179111480713
58	253.71315050125122	pulse	0	t		56.0	2.5	/experiments/knapen_AOT/AOT_stimuli/rescaled_final/1824_fw.mp4	0.0	271.7184715270996	
58	253.73826050758362	movie	1		282	56.0	2.5	/experiments/knapen_AOT/AOT_stimuli/rescaled_final/1824_fw.mp4	0.0	271.743581533432	2.491950035095215
58	255.31337475776672	pulse	1	t		56.0	2.5	/experiments/knapen_AOT/AOT_stimuli/rescaled_final/1824_fw.mp4	0.0	273.3186957836151	
58	256.23021054267883	fix_post	2		12	56.0	2.5	/experiments/knapen_AOT/AOT_stimuli/rescaled_final/1824_fw.mp4	0.0	274.2355315685272	0.09972882270812988
59	256.32993936538696	fix_pre	0		120	57.0	2.5	/experiments/knapen_AOT/AOT_stimuli/rescaled_final/1938_rv.mp4	0.0	274.33526039123535	1.0084855556488037
59	256.9135637283325	pulse	0	t		57.0	2.5	/experiments/knapen_AOT/AOT_stimuli/rescaled_final/1938_rv.mp4	0.0	274.9188847541809	
59	257.33842492103577	movie	1		295	57.0	2.5	/experiments/knapen_AOT/AOT_stimuli/rescaled_final/1938_rv.mp4	0.0	275.34374594688416	2.4920895099639893
59	258.511935710907	pulse	1	t		57.0	2.5	/experiments/knapen_AOT/AOT_stimuli/rescaled_final/1938_rv.mp4	0.0	276.51725673675537	
59	259.83051443099976	fix_post	2		12	57.0	2.5	/experiments/knapen_AOT/AOT_stimuli/rescaled_final/1938_rv.mp4	0.0	277.83583545684814	0.1002199649810791
60	259.93073439598083	fix_pre	0		120	58.0	2.5	/experiments/knapen_AOT/AOT_stimuli/rescaled_final/2030_fw.mp4	0.0	277.9360554218292	1.0083787441253662
60	260.1140480041504	pulse	0	t		58.0	2.5	/experiments/knapen_AOT/AOT_stimuli/rescaled_final/2030_fw.mp4	0.0	278.1193690299988	
60	260.9391131401062	movie	1		288	58.0	2.5	/experiments/knapen_AOT/AOT_stimuli/rescaled_final/2030_fw.mp4	0.0	278.9444341659546	2.492077112197876
60	261.71241426467896	pulse	1	t		58.0	2.5	/experiments/knapen_AOT/AOT_stimuli/rescaled_final/2030_fw.mp4	0.0	279.71773529052734	
60	263.31289291381836	pulse	1	t		58.0	2.5	/experiments/knapen_AOT/AOT_stimuli/rescaled_final/2030_fw.mp4	0.0	281.31821393966675	
60	263.4311902523041	fix_post	2		12	58.0	2.5	/experiments/knapen_AOT/AOT_stimuli/rescaled_final/2030_fw.mp4	0.0	281.43651127815247	0.09982514381408691
61	263.53101539611816	fix_pre	0		120	59.0	2.5	/experiments/knapen_AOT/AOT_stimuli/rescaled_final/0968_fw.mp4	0.0	281.53633642196655	1.0086336135864258
61	264.5396490097046	movie	1		265	59.0	2.5	/experiments/knapen_AOT/AOT_stimuli/rescaled_final/0968_fw.mp4	0.0	282.544970035553	2.492013931274414
61	264.91510581970215	pulse	1	t		59.0	2.5	/experiments/knapen_AOT/AOT_stimuli/rescaled_final/0968_fw.mp4	0.0	282.92042684555054	
61	266.5128586292267	pulse	1	t		59.0	2.5	/experiments/knapen_AOT/AOT_stimuli/rescaled_final/0968_fw.mp4	0.0	284.5181796550751	
61	267.031662940979	fix_post	2		12	59.0	2.5	/experiments/knapen_AOT/AOT_stimuli/rescaled_final/0968_fw.mp4	0.0	285.0369839668274	0.09986233711242676
62	267.13152527809143	fix_pre	0		119	60.0	2.5	/experiments/knapen_AOT/AOT_stimuli/rescaled_final/0166_fw.mp4	0.0	285.1368463039398	1.0002589225769043
62	268.11568450927734	pulse	0	t		60.0	2.5	/experiments/knapen_AOT/AOT_stimuli/rescaled_final/0166_fw.mp4	0.0	286.12100553512573	
62	268.13178420066833	movie	1		286	60.0	2.5	/experiments/knapen_AOT/AOT_stimuli/rescaled_final/0166_fw.mp4	0.0	286.1371052265167	2.500424385070801
62	269.71360182762146	pulse	1	t		60.0	2.5	/experiments/knapen_AOT/AOT_stimuli/rescaled_final/0166_fw.mp4	0.0	287.71892285346985	
62	270.63220858573914	fix_post	2		12	60.0	2.5	/experiments/knapen_AOT/AOT_stimuli/rescaled_final/0166_fw.mp4	0.0	288.6375296115875	0.0999135971069336
63	270.73212218284607	fix_pre	0		120	61.0	2.5	blank	1.0	288.73744320869446	1.0001697540283203
63	271.31570649147034	pulse	0	t		61.0	2.5	blank	1.0	289.3210275173187	
63	271.7322919368744	movie	1		300	61.0	2.5	blank	1.0	289.7376129627228	2.500321865081787
63	272.9160177707672	pulse	1	t		61.0	2.5	blank	1.0	290.9213387966156	
63	274.2326138019562	fix_post	2		12	61.0	2.5	blank	1.0	292.23793482780457	0.10004377365112305
64	274.3326575756073	fix_pre	0		120	62.0	2.5	/experiments/knapen_AOT/AOT_stimuli/rescaled_final/1838_fw.mp4	0.0	292.3379786014557	1.008495807647705
64	274.516215801239	pulse	0	t		62.0	2.5	/experiments/knapen_AOT/AOT_stimuli/rescaled_final/1838_fw.mp4	0.0	292.5215368270874	
64	275.341153383255	movie	1		278	62.0	2.5	/experiments/knapen_AOT/AOT_stimuli/rescaled_final/1838_fw.mp4	0.0	293.3464744091034	2.4922068119049072
64	276.1164782047272	pulse	1	t		62.0	2.5	/experiments/knapen_AOT/AOT_stimuli/rescaled_final/1838_fw.mp4	0.0	294.12179923057556	
64	277.7164273262024	pulse	1	t		62.0	2.5	/experiments/knapen_AOT/AOT_stimuli/rescaled_final/1838_fw.mp4	0.0	295.7217483520508	
64	277.8333601951599	fix_post	2		12	62.0	2.5	/experiments/knapen_AOT/AOT_stimuli/rescaled_final/1838_fw.mp4	0.0	295.8386812210083	0.09981560707092285
65	277.93317580223083	fix_pre	0		120	63.0	2.5	/experiments/knapen_AOT/AOT_stimuli/rescaled_final/2095_fw.mp4	0.0	295.9384968280792	1.0086791515350342
65	278.94185495376587	movie	1		276	63.0	2.5	/experiments/knapen_AOT/AOT_stimuli/rescaled_final/2095_fw.mp4	0.0	296.94717597961426	2.4918408393859863
65	279.3151309490204	pulse	1	t		63.0	2.5	/experiments/knapen_AOT/AOT_stimuli/rescaled_final/2095_fw.mp4	0.0	297.3204519748688	
65	280.915326833725	pulse	1	t		63.0	2.5	/experiments/knapen_AOT/AOT_stimuli/rescaled_final/2095_fw.mp4	0.0	298.92064785957336	
65	281.43369579315186	fix_post	2		12	63.0	2.5	/experiments/knapen_AOT/AOT_stimuli/rescaled_final/2095_fw.mp4	0.0	299.43901681900024	0.10006546974182129
66	281.5337612628937	fix_pre	0		119	64.0	2.5	/experiments/knapen_AOT/AOT_stimuli/rescaled_final/0715_fw.mp4	0.0	299.53908228874207	1.0001258850097656
66	282.51745557785034	pulse	0	t		64.0	2.5	/experiments/knapen_AOT/AOT_stimuli/rescaled_final/0715_fw.mp4	0.0	300.52277660369873	
66	282.53388714790344	movie	1		276	64.0	2.5	/experiments/knapen_AOT/AOT_stimuli/rescaled_final/0715_fw.mp4	0.0	300.53920817375183	2.500598907470703
66	284.11634397506714	pulse	1	t		64.0	2.5	/experiments/knapen_AOT/AOT_stimuli/rescaled_final/0715_fw.mp4	0.0	302.1216650009155	
66	285.03448605537415	fix_post	2		12	64.0	2.5	/experiments/knapen_AOT/AOT_stimuli/rescaled_final/0715_fw.mp4	0.0	303.03980708122253	0.1000368595123291
67	285.1345229148865	fix_pre	0		120	65.0	2.5	/experiments/knapen_AOT/AOT_stimuli/rescaled_final/1824_fw.mp4	0.0	303.13984394073486	1.0087628364562988
67	285.7179505825043	pulse	0	t		65.0	2.5	/experiments/knapen_AOT/AOT_stimuli/rescaled_final/1824_fw.mp4	0.0	303.72327160835266	
67	286.1432857513428	movie	1		280	65.0	2.5	/experiments/knapen_AOT/AOT_stimuli/rescaled_final/1824_fw.mp4	0.0	304.14860677719116	2.491506814956665
67	287.3163800239563	pulse	1	t		65.0	2.5	/experiments/knapen_AOT/AOT_stimuli/rescaled_final/1824_fw.mp4	0.0	305.3217010498047	
67	288.63479256629944	fix_post	2		12	65.0	2.5	/experiments/knapen_AOT/AOT_stimuli/rescaled_final/1824_fw.mp4	0.0	306.6401135921478	0.10002398490905762
68	288.7348165512085	fix_pre	0		120	66.0	2.5	/experiments/knapen_AOT/AOT_stimuli/rescaled_final/0628_fw.mp4	0.0	306.7401375770569	1.0085794925689697
68	288.91840052604675	pulse	0	t		66.0	2.5	/experiments/knapen_AOT/AOT_stimuli/rescaled_final/0628_fw.mp4	0.0	306.92372155189514	
68	289.74339604377747	movie	1		277	66.0	2.5	/experiments/knapen_AOT/AOT_stimuli/rescaled_final/0628_fw.mp4	0.0	307.74871706962585	2.4920430183410645
68	290.51667308807373	pulse	1	t		66.0	2.5	/experiments/knapen_AOT/AOT_stimuli/rescaled_final/0628_fw.mp4	0.0	308.5219941139221	
68	292.1168224811554	pulse	1	t		66.0	2.5	/experiments/knapen_AOT/AOT_stimuli/rescaled_final/0628_fw.mp4	0.0	310.1221435070038	
68	292.23543906211853	fix_post	2		12	66.0	2.5	/experiments/knapen_AOT/AOT_stimuli/rescaled_final/0628_fw.mp4	0.0	310.2407600879669	0.09990668296813965
69	292.33534574508667	fix_pre	0		120	67.0	2.5	/experiments/knapen_AOT/AOT_stimuli/rescaled_final/0470_rv.mp4	0.0	310.34066677093506	1.0085625648498535
69	293.3439083099365	movie	1		279	67.0	2.5	/experiments/knapen_AOT/AOT_stimuli/rescaled_final/0470_rv.mp4	0.0	311.3492293357849	2.491976499557495
69	293.71102142333984	pulse	1	t		67.0	2.5	/experiments/knapen_AOT/AOT_stimuli/rescaled_final/0470_rv.mp4	0.0	311.71634244918823	
69	295.3111174106598	pulse	1	t		67.0	2.5	/experiments/knapen_AOT/AOT_stimuli/rescaled_final/0470_rv.mp4	0.0	313.3164384365082	
69	295.835884809494	fix_post	2		12	67.0	2.5	/experiments/knapen_AOT/AOT_stimuli/rescaled_final/0470_rv.mp4	0.0	313.8412058353424	0.09997081756591797
70	295.93585562705994	fix_pre	0		118	68.0	2.5	/experiments/knapen_AOT/AOT_stimuli/rescaled_final/0228_fw.mp4	0.0	313.9411766529083	0.9918813705444336
70	296.9112310409546	pulse	0	t		68.0	2.5	/experiments/knapen_AOT/AOT_stimuli/rescaled_final/0228_fw.mp4	0.0	314.916552066803	
70	296.92773699760437	movie	1		283	68.0	2.5	/experiments/knapen_AOT/AOT_stimuli/rescaled_final/0228_fw.mp4	0.0	314.93305802345276	2.500497579574585
70	298.5122420787811	pulse	1	t		68.0	2.5	/experiments/knapen_AOT/AOT_stimuli/rescaled_final/0228_fw.mp4	0.0	316.5175631046295	
70	299.42823457717896	fix_post	2		12	68.0	2.5	/experiments/knapen_AOT/AOT_stimuli/rescaled_final/0228_fw.mp4	0.0	317.43355560302734	0.10014986991882324
71	299.5283844470978	fix_pre	0		120	69.0	2.5	blank	1.0	317.53370547294617	0.9998512268066406
71	300.1116945743561	pulse	0	t		69.0	2.5	blank	1.0	318.11701560020447	
71	300.5282356739044	movie	1		300	69.0	2.5	blank	1.0	318.5335566997528	2.50040864944458
71	301.7120087146759	pulse	1	t		69.0	2.5	blank	1.0	319.7173297405243	
71	303.028644323349	fix_post	2		12	69.0	2.5	blank	1.0	321.0339653491974	0.10000872611999512
72	303.128653049469	fix_pre	0		120	70.0	2.5	/experiments/knapen_AOT/AOT_stimuli/rescaled_final/1784_fw.mp4	0.0	321.1339740753174	1.0085196495056152
72	303.31222653388977	pulse	0	t		70.0	2.5	/experiments/knapen_AOT/AOT_stimuli/rescaled_final/1784_fw.mp4	0.0	321.31754755973816	
72	304.1371726989746	movie	1		277	70.0	2.5	/experiments/knapen_AOT/AOT_stimuli/rescaled_final/1784_fw.mp4	0.0	322.142493724823	2.492126703262329
72	304.91241788864136	pulse	1	t		70.0	2.5	/experiments/knapen_AOT/AOT_stimuli/rescaled_final/1784_fw.mp4	0.0	322.91773891448975	
72	306.51285576820374	pulse	1	t		70.0	2.5	/experiments/knapen_AOT/AOT_stimuli/rescaled_final/1784_fw.mp4	0.0	324.5181767940521	
72	306.62929940223694	fix_post	2		12	70.0	2.5	/experiments/knapen_AOT/AOT_stimuli/rescaled_final/1784_fw.mp4	0.0	324.6346204280853	0.09987711906433105
73	306.72917652130127	fix_pre	0		120	71.0	2.5	/experiments/knapen_AOT/AOT_stimuli/rescaled_final/0858_rv.mp4	0.0	324.73449754714966	1.0084867477416992
73	307.73766326904297	movie	1		273	71.0	2.5	/experiments/knapen_AOT/AOT_stimuli/rescaled_final/0858_rv.mp4	0.0	325.74298429489136	2.49224853515625
73	308.11126255989075	pulse	1	t		71.0	2.5	/experiments/knapen_AOT/AOT_stimuli/rescaled_final/0858_rv.mp4	0.0	326.11658358573914	
73	309.71123361587524	pulse	1	t		71.0	2.5	/experiments/knapen_AOT/AOT_stimuli/rescaled_final/0858_rv.mp4	0.0	327.71655464172363	
73	310.2299118041992	fix_post	2		12	71.0	2.5	/experiments/knapen_AOT/AOT_stimuli/rescaled_final/0858_rv.mp4	0.0	328.2352328300476	0.10008358955383301
74	310.32999539375305	fix_pre	0		119	72.0	2.5	/experiments/knapen_AOT/AOT_stimuli/rescaled_final/0027_rv.mp4	0.0	328.33531641960144	0.9998877048492432
74	311.31340622901917	pulse	0	t		72.0	2.5	/experiments/knapen_AOT/AOT_stimuli/rescaled_final/0027_rv.mp4	0.0	329.31872725486755	
74	311.3298830986023	movie	1		274	72.0	2.5	/experiments/knapen_AOT/AOT_stimuli/rescaled_final/0027_rv.mp4	0.0	329.3352041244507	2.5006370544433594
74	312.9119474887848	pulse	1	t		72.0	2.5	/experiments/knapen_AOT/AOT_stimuli/rescaled_final/0027_rv.mp4	0.0	330.9172685146332	
74	313.83052015304565	fix_post	2		12	72.0	2.5	/experiments/knapen_AOT/AOT_stimuli/rescaled_final/0027_rv.mp4	0.0	331.83584117889404	0.09974527359008789
75	313.93026542663574	fix_pre	0		120	73.0	2.5	/experiments/knapen_AOT/AOT_stimuli/rescaled_final/0621_fw.mp4	0.0	331.93558645248413	1.008535623550415
75	314.5138998031616	pulse	0	t		73.0	2.5	/experiments/knapen_AOT/AOT_stimuli/rescaled_final/0621_fw.mp4	0.0	332.51922082901	
75	314.93880105018616	movie	1		285	73.0	2.5	/experiments/knapen_AOT/AOT_stimuli/rescaled_final/0621_fw.mp4	0.0	332.94412207603455	2.4920616149902344
75	316.1127154827118	pulse	1	t		73.0	2.5	/experiments/knapen_AOT/AOT_stimuli/rescaled_final/0621_fw.mp4	0.0	334.1180365085602	
75	317.4308626651764	fix_post	2		12	73.0	2.5	/experiments/knapen_AOT/AOT_stimuli/rescaled_final/0621_fw.mp4	0.0	335.4361836910248	0.1000521183013916
76	317.5309147834778	fix_pre	0		120	74.0	2.5	/experiments/knapen_AOT/AOT_stimuli/rescaled_final/0631_rv.mp4	0.0	335.5362358093262	1.0084805488586426
76	317.71437788009644	pulse	0	t		74.0	2.5	/experiments/knapen_AOT/AOT_stimuli/rescaled_final/0631_rv.mp4	0.0	335.7196989059448	
76	318.5393953323364	movie	1		276	74.0	2.5	/experiments/knapen_AOT/AOT_stimuli/rescaled_final/0631_rv.mp4	0.0	336.5447163581848	2.492241382598877
76	319.31268644332886	pulse	1	t		74.0	2.5	/experiments/knapen_AOT/AOT_stimuli/rescaled_final/0631_rv.mp4	0.0	337.31800746917725	
76	320.91314029693604	pulse	1	t		74.0	2.5	/experiments/knapen_AOT/AOT_stimuli/rescaled_final/0631_rv.mp4	0.0	338.9184613227844	
76	321.0316367149353	fix_post	2		12	74.0	2.5	/experiments/knapen_AOT/AOT_stimuli/rescaled_final/0631_rv.mp4	0.0	339.0369577407837	0.09974265098571777
77	321.131379365921	fix_pre	0		120	75.0	2.5	/experiments/knapen_AOT/AOT_stimuli/rescaled_final/1087_rv.mp4	0.0	339.1367003917694	1.008453130722046
77	322.13983249664307	movie	1		284	75.0	2.5	/experiments/knapen_AOT/AOT_stimuli/rescaled_final/1087_rv.mp4	0.0	340.14515352249146	2.4923834800720215
77	322.5148196220398	pulse	1	t		75.0	2.5	/experiments/knapen_AOT/AOT_stimuli/rescaled_final/1087_rv.mp4	0.0	340.5201406478882	
77	324.11307549476624	pulse	1	t		75.0	2.5	/experiments/knapen_AOT/AOT_stimuli/rescaled_final/1087_rv.mp4	0.0	342.1183965206146	
77	324.6322159767151	fix_post	2		12	75.0	2.5	/experiments/knapen_AOT/AOT_stimuli/rescaled_final/1087_rv.mp4	0.0	342.6375370025635	0.09989786148071289
78	324.7321138381958	fix_pre	0		119	76.0	2.5	blank	1.0	342.7374348640442	0.9915754795074463
78	325.71589398384094	pulse	0	t		76.0	2.5	blank	1.0	343.72121500968933	
78	325.72368931770325	movie	1		301	76.0	2.5	blank	1.0	343.72901034355164	2.5087854862213135
78	327.315860748291	pulse	1	t		76.0	2.5	blank	1.0	345.3211817741394	
78	328.23247480392456	fix_post	2		12	76.0	2.5	blank	1.0	346.23779582977295	0.10000896453857422
79	328.33248376846313	fix_pre	0		120	77.0	2.5	/experiments/knapen_AOT/AOT_stimuli/rescaled_final/1520_fw.mp4	0.0	346.3378047943115	1.0084502696990967
79	328.9160256385803	pulse	0	t		77.0	2.5	/experiments/knapen_AOT/AOT_stimuli/rescaled_final/1520_fw.mp4	0.0	346.9213466644287	
79	329.34093403816223	movie	1		278	77.0	2.5	/experiments/knapen_AOT/AOT_stimuli/rescaled_final/1520_fw.mp4	0.0	347.3462550640106	2.4920761585235596
79	330.5143449306488	pulse	1	t		77.0	2.5	/experiments/knapen_AOT/AOT_stimuli/rescaled_final/1520_fw.mp4	0.0	348.5196659564972	
79	331.8330101966858	fix_post	2		12	77.0	2.5	/experiments/knapen_AOT/AOT_stimuli/rescaled_final/1520_fw.mp4	0.0	349.8383312225342	0.09996604919433594
80	331.9329762458801	fix_pre	0		120	78.0	2.5	/experiments/knapen_AOT/AOT_stimuli/rescaled_final/1831_rv.mp4	0.0	349.9382972717285	1.008561372756958
80	332.1165223121643	pulse	0	t		78.0	2.5	/experiments/knapen_AOT/AOT_stimuli/rescaled_final/1831_rv.mp4	0.0	350.1218433380127	
80	332.9415376186371	movie	1		280	78.0	2.5	/experiments/knapen_AOT/AOT_stimuli/rescaled_final/1831_rv.mp4	0.0	350.9468586444855	2.4922573566436768
80	333.71504950523376	pulse	1	t		78.0	2.5	/experiments/knapen_AOT/AOT_stimuli/rescaled_final/1831_rv.mp4	0.0	351.72037053108215	
80	335.3151614665985	pulse	1	t		78.0	2.5	/experiments/knapen_AOT/AOT_stimuli/rescaled_final/1831_rv.mp4	0.0	353.3204824924469	
80	335.43379497528076	fix_post	2		12	78.0	2.5	/experiments/knapen_AOT/AOT_stimuli/rescaled_final/1831_rv.mp4	0.0	353.43911600112915	0.09984755516052246
81	335.5336425304413	fix_pre	0		120	79.0	2.5	/experiments/knapen_AOT/AOT_stimuli/rescaled_final/1967_rv.mp4	0.0	353.5389635562897	1.0086050033569336
81	336.5422475337982	movie	1		275	79.0	2.5	/experiments/knapen_AOT/AOT_stimuli/rescaled_final/1967_rv.mp4	0.0	354.5475685596466	2.491814136505127
81	336.91548228263855	pulse	1	t		79.0	2.5	/experiments/knapen_AOT/AOT_stimuli/rescaled_final/1967_rv.mp4	0.0	354.92080330848694	
81	338.51594495773315	pulse	1	t		79.0	2.5	/experiments/knapen_AOT/AOT_stimuli/rescaled_final/1967_rv.mp4	0.0	356.52126598358154	
81	339.03406167030334	fix_post	2		12	79.0	2.5	/experiments/knapen_AOT/AOT_stimuli/rescaled_final/1967_rv.mp4	0.0	357.03938269615173	0.1001276969909668
82	339.1341893672943	fix_pre	0		119	80.0	2.5	/experiments/knapen_AOT/AOT_stimuli/rescaled_final/2112_fw.mp4	0.0	357.1395103931427	1.00001859664917
82	340.1181559562683	pulse	0	t		80.0	2.5	/experiments/knapen_AOT/AOT_stimuli/rescaled_final/2112_fw.mp4	0.0	358.1234769821167	
82	340.1342079639435	movie	1		280	80.0	2.5	/experiments/knapen_AOT/AOT_stimuli/rescaled_final/2112_fw.mp4	0.0	358.13952898979187	2.5004940032958984
82	341.7161889076233	pulse	1	t		80.0	2.5	/experiments/knapen_AOT/AOT_stimuli/rescaled_final/2112_fw.mp4	0.0	359.7215099334717	
82	342.6347019672394	fix_post	2		12	80.0	2.5	/experiments/knapen_AOT/AOT_stimuli/rescaled_final/2112_fw.mp4	0.0	360.64002299308777	0.0999596118927002
83	342.7346615791321	fix_pre	0		120	81.0	2.5	/experiments/knapen_AOT/AOT_stimuli/rescaled_final/0547_fw.mp4	0.0	360.73998260498047	1.008617639541626
83	343.3183479309082	pulse	0	t		81.0	2.5	/experiments/knapen_AOT/AOT_stimuli/rescaled_final/0547_fw.mp4	0.0	361.3236689567566	
83	343.7432792186737	movie	1		287	81.0	2.5	/experiments/knapen_AOT/AOT_stimuli/rescaled_final/0547_fw.mp4	0.0	361.7486002445221	2.491882085800171
83	344.9166431427002	pulse	1	t		81.0	2.5	/experiments/knapen_AOT/AOT_stimuli/rescaled_final/0547_fw.mp4	0.0	362.9219641685486	
83	346.2351613044739	fix_post	2		12	81.0	2.5	/experiments/knapen_AOT/AOT_stimuli/rescaled_final/0547_fw.mp4	0.0	364.24048233032227	0.09999704360961914
84	346.3351583480835	fix_pre	0		120	82.0	2.5	/experiments/knapen_AOT/AOT_stimuli/rescaled_final/1578_fw.mp4	0.0	364.3404793739319	1.0084891319274902
84	346.518746137619	pulse	0	t		82.0	2.5	/experiments/knapen_AOT/AOT_stimuli/rescaled_final/1578_fw.mp4	0.0	364.5240671634674	
84	347.343647480011	movie	1		279	82.0	2.5	/experiments/knapen_AOT/AOT_stimuli/rescaled_final/1578_fw.mp4	0.0	365.3489685058594	2.4920272827148438
84	348.1183862686157	pulse	1	t		82.0	2.5	/experiments/knapen_AOT/AOT_stimuli/rescaled_final/1578_fw.mp4	0.0	366.1237072944641	
84	349.7173466682434	pulse	1	t		82.0	2.5	/experiments/knapen_AOT/AOT_stimuli/rescaled_final/1578_fw.mp4	0.0	367.7226676940918	
84	349.83567476272583	fix_post	2		12	82.0	2.5	/experiments/knapen_AOT/AOT_stimuli/rescaled_final/1578_fw.mp4	0.0	367.8409957885742	0.10001921653747559
85	349.9356939792633	fix_pre	0		120	83.0	2.5	blank	1.0	367.9410150051117	1.000140905380249
85	350.93583488464355	movie	1		300	83.0	2.5	blank	1.0	368.94115591049194	2.500554323196411
85	351.3115122318268	pulse	1	t		83.0	2.5	blank	1.0	369.31683325767517	
85	352.9114148616791	pulse	1	t		83.0	2.5	blank	1.0	370.91673588752747	
85	353.43638920783997	fix_post	2		12	83.0	2.5	blank	1.0	371.44171023368835	0.12485766410827637
87	353.56124687194824	stim	0		1712					371.56656789779663	14.268824815750122
87	354.5116219520569	pulse	0	t						372.5169429779053	
87	356.1118381023407	pulse	0	t						374.1171591281891	
87	357.712016582489	pulse	0	t						375.7173376083374	
87	359.31266808509827	pulse	0	t						377.31798911094666	
87	360.91252279281616	pulse	0	t						378.91784381866455	
87	362.5127761363983	pulse	0	t						380.5180971622467	
87	364.1129994392395	pulse	0	t						382.1183204650879	
87	365.71324467658997	pulse	0	t						383.71856570243835	
87	367.3134467601776	pulse	0	t						385.318767786026	
