trial_nr	onset	event_type	phase	response	nr_frames	movie_index	movie_duration	movie_file	blank	onset_abs	duration
0	0.19149303436279297	stim	0		351					67.50465106964111	2.9253549575805664
0	3.108894109725952	response	0	space						70.42205214500427	
1	3.1168479919433594	stim	0		5033					70.43000602722168	41.96712613105774
1	45.053771018981934	pulse	0	t						112.36692905426025	
1	45.0839741230011	stim	1		1716					112.39713215827942	14.299705982208252
1	46.64852213859558	pulse	1	t						113.9616801738739	
1	48.24876093864441	pulse	1	t						115.56191897392273	
1	49.84912109375	pulse	1	t						117.16227912902832	
1	51.44934701919556	pulse	1	t						118.76250505447388	
1	53.049432039260864	pulse	1	t						120.36259007453918	
1	54.649726152420044	pulse	1	t						121.96288418769836	
1	56.25000500679016	pulse	1	t						123.56316304206848	
1	57.85026812553406	pulse	1	t						125.16342616081238	
2	59.38368010520935	fix_pre	0		9	0.0	2.5	/experiments/knapen_AOT/AOT_stimuli/rescaled_final/0537_fw.mp4	0.0	126.69683814048767	0.07494902610778809
2	59.45043611526489	pulse	0	t		0.0	2.5	/experiments/knapen_AOT/AOT_stimuli/rescaled_final/0537_fw.mp4	0.0	126.76359415054321	
2	59.45862913131714	movie	1		244	0.0	2.5	/experiments/knapen_AOT/AOT_stimuli/rescaled_final/0537_fw.mp4	0.0	126.77178716659546	2.5087058544158936
2	61.05204510688782	pulse	1	t		0.0	2.5	/experiments/knapen_AOT/AOT_stimuli/rescaled_final/0537_fw.mp4	0.0	128.36520314216614	
2	61.96733498573303	fix_post	2		12	0.0	2.5	/experiments/knapen_AOT/AOT_stimuli/rescaled_final/0537_fw.mp4	0.0	129.28049302101135	0.09999513626098633
3	62.06733012199402	fix_pre	0		120	1.0	2.5	/experiments/knapen_AOT/AOT_stimuli/rescaled_final/0315_fw.mp4	0.0	129.38048815727234	1.0001699924468994
3	62.65094804763794	pulse	0	t		1.0	2.5	/experiments/knapen_AOT/AOT_stimuli/rescaled_final/0315_fw.mp4	0.0	129.96410608291626	
3	63.06750011444092	movie	1		245	1.0	2.5	/experiments/knapen_AOT/AOT_stimuli/rescaled_final/0315_fw.mp4	0.0	130.38065814971924	2.500450849533081
3	64.25126695632935	pulse	1	t		1.0	2.5	/experiments/knapen_AOT/AOT_stimuli/rescaled_final/0315_fw.mp4	0.0	131.56442499160767	
3	65.567950963974	fix_post	2		12	1.0	2.5	/experiments/knapen_AOT/AOT_stimuli/rescaled_final/0315_fw.mp4	0.0	132.88110899925232	0.09991312026977539
4	65.66786408424377	fix_pre	0		120	2.0	2.5	/experiments/knapen_AOT/AOT_stimuli/rescaled_final/1217_fw.mp4	0.0	132.9810221195221	1.0001718997955322
4	65.85146999359131	pulse	0	t		2.0	2.5	/experiments/knapen_AOT/AOT_stimuli/rescaled_final/1217_fw.mp4	0.0	133.16462802886963	
4	66.6680359840393	movie	1		243	2.0	2.5	/experiments/knapen_AOT/AOT_stimuli/rescaled_final/1217_fw.mp4	0.0	133.98119401931763	2.5003700256347656
4	67.45165014266968	pulse	1	t		2.0	2.5	/experiments/knapen_AOT/AOT_stimuli/rescaled_final/1217_fw.mp4	0.0	134.764808177948	
4	69.05248808860779	pulse	1	t		2.0	2.5	/experiments/knapen_AOT/AOT_stimuli/rescaled_final/1217_fw.mp4	0.0	136.3656461238861	
4	69.16840600967407	fix_post	2		12	2.0	2.5	/experiments/knapen_AOT/AOT_stimuli/rescaled_final/1217_fw.mp4	0.0	136.4815640449524	0.10002398490905762
5	69.26842999458313	fix_pre	0		119	3.0	2.5	/experiments/knapen_AOT/AOT_stimuli/rescaled_final/0074_fw.mp4	0.0	136.58158802986145	0.9918220043182373
5	70.26025199890137	movie	1		246	3.0	2.5	/experiments/knapen_AOT/AOT_stimuli/rescaled_final/0074_fw.mp4	0.0	137.5734100341797	2.5003249645233154
5	70.65231204032898	pulse	1	t		3.0	2.5	/experiments/knapen_AOT/AOT_stimuli/rescaled_final/0074_fw.mp4	0.0	137.9654700756073	
5	72.25241994857788	pulse	1	t		3.0	2.5	/experiments/knapen_AOT/AOT_stimuli/rescaled_final/0074_fw.mp4	0.0	139.5655779838562	
5	72.76057696342468	fix_post	2		12	3.0	2.5	/experiments/knapen_AOT/AOT_stimuli/rescaled_final/0074_fw.mp4	0.0	140.073734998703	0.10004901885986328
6	72.86062598228455	fix_pre	0		120	4.0	2.5	/experiments/knapen_AOT/AOT_stimuli/rescaled_final/1630_fw.mp4	0.0	140.17378401756287	1.000154972076416
6	73.85266494750977	pulse	0	t		4.0	2.5	/experiments/knapen_AOT/AOT_stimuli/rescaled_final/1630_fw.mp4	0.0	141.1658229827881	
6	73.86078095436096	movie	1		245	4.0	2.5	/experiments/knapen_AOT/AOT_stimuli/rescaled_final/1630_fw.mp4	0.0	141.17393898963928	2.5086891651153564
6	75.45322608947754	pulse	1	t		4.0	2.5	/experiments/knapen_AOT/AOT_stimuli/rescaled_final/1630_fw.mp4	0.0	142.76638412475586	
6	76.36947011947632	fix_post	2		12	4.0	2.5	/experiments/knapen_AOT/AOT_stimuli/rescaled_final/1630_fw.mp4	0.0	143.68262815475464	0.1000058650970459
7	76.46947598457336	fix_pre	0		120	5.0	2.5	blank	1.0	143.78263401985168	1.0001890659332275
7	77.0531849861145	pulse	0	t		5.0	2.5	blank	1.0	144.36634302139282	
7	77.46966505050659	movie	1		298	5.0	2.5	blank	1.0	144.7828230857849	2.500369071960449
7	78.65338492393494	pulse	1	t		5.0	2.5	blank	1.0	145.96654295921326	
7	79.97003412246704	fix_post	2		12	5.0	2.5	blank	1.0	147.28319215774536	0.10000300407409668
8	80.07003712654114	fix_pre	0		120	6.0	2.5	/experiments/knapen_AOT/AOT_stimuli/rescaled_final/0857_rv.mp4	0.0	147.38319516181946	1.000152826309204
8	80.25352907180786	pulse	0	t		6.0	2.5	/experiments/knapen_AOT/AOT_stimuli/rescaled_final/0857_rv.mp4	0.0	147.56668710708618	
8	81.07018995285034	movie	1		243	6.0	2.5	/experiments/knapen_AOT/AOT_stimuli/rescaled_final/0857_rv.mp4	0.0	148.38334798812866	2.5003750324249268
8	81.85393500328064	pulse	1	t		6.0	2.5	/experiments/knapen_AOT/AOT_stimuli/rescaled_final/0857_rv.mp4	0.0	149.16709303855896	
8	83.4539840221405	pulse	1	t		6.0	2.5	/experiments/knapen_AOT/AOT_stimuli/rescaled_final/0857_rv.mp4	0.0	150.76714205741882	
8	83.57056498527527	fix_post	2		12	6.0	2.5	/experiments/knapen_AOT/AOT_stimuli/rescaled_final/0857_rv.mp4	0.0	150.8837230205536	0.10001111030578613
9	83.67057609558105	fix_pre	0		120	7.0	2.5	/experiments/knapen_AOT/AOT_stimuli/rescaled_final/0828_fw.mp4	0.0	150.98373413085938	1.0001518726348877
9	84.67072796821594	movie	1		243	7.0	2.5	/experiments/knapen_AOT/AOT_stimuli/rescaled_final/0828_fw.mp4	0.0	151.98388600349426	2.4920079708099365
9	85.05501103401184	pulse	1	t		7.0	2.5	/experiments/knapen_AOT/AOT_stimuli/rescaled_final/0828_fw.mp4	0.0	152.36816906929016	
9	86.65448808670044	pulse	1	t		7.0	2.5	/experiments/knapen_AOT/AOT_stimuli/rescaled_final/0828_fw.mp4	0.0	153.96764612197876	
9	87.16273593902588	fix_post	2		12	7.0	2.5	/experiments/knapen_AOT/AOT_stimuli/rescaled_final/0828_fw.mp4	0.0	154.4758939743042	0.10003519058227539
10	87.26277112960815	fix_pre	0		120	8.0	2.5	/experiments/knapen_AOT/AOT_stimuli/rescaled_final/1409_fw.mp4	0.0	154.57592916488647	1.0002458095550537
10	88.25481009483337	pulse	0	t		8.0	2.5	/experiments/knapen_AOT/AOT_stimuli/rescaled_final/1409_fw.mp4	0.0	155.5679681301117	
10	88.26301693916321	movie	1		244	8.0	2.5	/experiments/knapen_AOT/AOT_stimuli/rescaled_final/1409_fw.mp4	0.0	155.57617497444153	2.5086162090301514
10	89.85979294776917	pulse	1	t		8.0	2.5	/experiments/knapen_AOT/AOT_stimuli/rescaled_final/1409_fw.mp4	0.0	157.17295098304749	
10	90.77163314819336	fix_post	2		12	8.0	2.5	/experiments/knapen_AOT/AOT_stimuli/rescaled_final/1409_fw.mp4	0.0	158.08479118347168	0.10004377365112305
11	90.87167692184448	fix_pre	0		120	9.0	2.5	/experiments/knapen_AOT/AOT_stimuli/rescaled_final/1888_rv.mp4	0.0	158.1848349571228	1.0001251697540283
11	91.45529413223267	pulse	0	t		9.0	2.5	/experiments/knapen_AOT/AOT_stimuli/rescaled_final/1888_rv.mp4	0.0	158.768452167511	
11	91.87180209159851	movie	1		244	9.0	2.5	/experiments/knapen_AOT/AOT_stimuli/rescaled_final/1888_rv.mp4	0.0	159.18496012687683	2.5003650188446045
11	93.04886603355408	pulse	1	t		9.0	2.5	/experiments/knapen_AOT/AOT_stimuli/rescaled_final/1888_rv.mp4	0.0	160.3620240688324	
11	94.37216711044312	fix_post	2		12	9.0	2.5	/experiments/knapen_AOT/AOT_stimuli/rescaled_final/1888_rv.mp4	0.0	161.68532514572144	0.10007786750793457
12	94.47224497795105	fix_pre	0		120	10.0	2.5	/experiments/knapen_AOT/AOT_stimuli/rescaled_final/1297_rv.mp4	0.0	161.78540301322937	1.0001111030578613
12	94.65582013130188	pulse	0	t		10.0	2.5	/experiments/knapen_AOT/AOT_stimuli/rescaled_final/1297_rv.mp4	0.0	161.9689781665802	
12	95.47235608100891	movie	1		243	10.0	2.5	/experiments/knapen_AOT/AOT_stimuli/rescaled_final/1297_rv.mp4	0.0	162.78551411628723	2.5003299713134766
12	96.256019115448	pulse	1	t		10.0	2.5	/experiments/knapen_AOT/AOT_stimuli/rescaled_final/1297_rv.mp4	0.0	163.56917715072632	
12	97.85624694824219	pulse	1	t		10.0	2.5	/experiments/knapen_AOT/AOT_stimuli/rescaled_final/1297_rv.mp4	0.0	165.1694049835205	
12	97.97268605232239	fix_post	2		12	10.0	2.5	/experiments/knapen_AOT/AOT_stimuli/rescaled_final/1297_rv.mp4	0.0	165.2858440876007	0.10003089904785156
13	98.07271695137024	fix_pre	0		120	11.0	2.5	/experiments/knapen_AOT/AOT_stimuli/rescaled_final/0277_fw.mp4	0.0	165.38587498664856	1.0001280307769775
13	99.07284498214722	movie	1		242	11.0	2.5	/experiments/knapen_AOT/AOT_stimuli/rescaled_final/0277_fw.mp4	0.0	166.38600301742554	2.4920780658721924
13	99.45721411705017	pulse	1	t		11.0	2.5	/experiments/knapen_AOT/AOT_stimuli/rescaled_final/0277_fw.mp4	0.0	166.7703721523285	
13	101.04939198493958	pulse	1	t		11.0	2.5	/experiments/knapen_AOT/AOT_stimuli/rescaled_final/0277_fw.mp4	0.0	168.3625500202179	
13	101.56492304801941	fix_post	2		12	11.0	2.5	/experiments/knapen_AOT/AOT_stimuli/rescaled_final/0277_fw.mp4	0.0	168.87808108329773	0.10003495216369629
14	101.6649580001831	fix_pre	0		120	12.0	2.5	blank	1.0	168.97811603546143	1.0001280307769775
14	102.64942502975464	pulse	0	t		12.0	2.5	blank	1.0	169.96258306503296	
14	102.66508603096008	movie	1		301	12.0	2.5	blank	1.0	169.9782440662384	2.5086779594421387
14	104.24961400032043	pulse	1	t		12.0	2.5	blank	1.0	171.56277203559875	
14	105.17376399040222	fix_post	2		12	12.0	2.5	blank	1.0	172.48692202568054	0.10009002685546875
15	105.27385401725769	fix_pre	0		120	13.0	2.5	/experiments/knapen_AOT/AOT_stimuli/rescaled_final/1235_rv.mp4	0.0	172.587012052536	1.0000629425048828
15	105.84917092323303	pulse	0	t		13.0	2.5	/experiments/knapen_AOT/AOT_stimuli/rescaled_final/1235_rv.mp4	0.0	173.16232895851135	
15	106.27391695976257	movie	1		244	13.0	2.5	/experiments/knapen_AOT/AOT_stimuli/rescaled_final/1235_rv.mp4	0.0	173.5870749950409	2.5003910064697266
15	107.44992899894714	pulse	1	t		13.0	2.5	/experiments/knapen_AOT/AOT_stimuli/rescaled_final/1235_rv.mp4	0.0	174.76308703422546	
15	108.7743079662323	fix_post	2		12	13.0	2.5	/experiments/knapen_AOT/AOT_stimuli/rescaled_final/1235_rv.mp4	0.0	176.08746600151062	0.10001015663146973
16	108.87431812286377	fix_pre	0		120	14.0	2.5	/experiments/knapen_AOT/AOT_stimuli/rescaled_final/0012_rv.mp4	0.0	176.1874761581421	1.000180959701538
16	109.04947900772095	pulse	0	t		14.0	2.5	/experiments/knapen_AOT/AOT_stimuli/rescaled_final/0012_rv.mp4	0.0	176.36263704299927	
16	109.87449908256531	movie	1		244	14.0	2.5	/experiments/knapen_AOT/AOT_stimuli/rescaled_final/0012_rv.mp4	0.0	177.18765711784363	2.5003929138183594
16	110.64983797073364	pulse	1	t		14.0	2.5	/experiments/knapen_AOT/AOT_stimuli/rescaled_final/0012_rv.mp4	0.0	177.96299600601196	
16	112.25010108947754	pulse	1	t		14.0	2.5	/experiments/knapen_AOT/AOT_stimuli/rescaled_final/0012_rv.mp4	0.0	179.56325912475586	
16	112.37489199638367	fix_post	2		12	14.0	2.5	/experiments/knapen_AOT/AOT_stimuli/rescaled_final/0012_rv.mp4	0.0	179.688050031662	0.09998393058776855
17	112.47487592697144	fix_pre	0		120	15.0	2.5	/experiments/knapen_AOT/AOT_stimuli/rescaled_final/2068_rv.mp4	0.0	179.78803396224976	1.0001580715179443
17	113.47503399848938	movie	1		243	15.0	2.5	/experiments/knapen_AOT/AOT_stimuli/rescaled_final/2068_rv.mp4	0.0	180.7881920337677	2.492018938064575
17	113.85024094581604	pulse	1	t		15.0	2.5	/experiments/knapen_AOT/AOT_stimuli/rescaled_final/2068_rv.mp4	0.0	181.16339898109436	
17	115.4505090713501	pulse	1	t		15.0	2.5	/experiments/knapen_AOT/AOT_stimuli/rescaled_final/2068_rv.mp4	0.0	182.76366710662842	
17	115.96705293655396	fix_post	2		12	15.0	2.5	/experiments/knapen_AOT/AOT_stimuli/rescaled_final/2068_rv.mp4	0.0	183.28021097183228	0.10006999969482422
18	116.06712293624878	fix_pre	0		119	16.0	2.5	/experiments/knapen_AOT/AOT_stimuli/rescaled_final/1763_fw.mp4	0.0	183.3802809715271	0.9917590618133545
18	117.05075311660767	pulse	0	t		16.0	2.5	/experiments/knapen_AOT/AOT_stimuli/rescaled_final/1763_fw.mp4	0.0	184.363911151886	
18	117.05888199806213	movie	1		245	16.0	2.5	/experiments/knapen_AOT/AOT_stimuli/rescaled_final/1763_fw.mp4	0.0	184.37204003334045	2.508700132369995
18	118.6514151096344	pulse	1	t		16.0	2.5	/experiments/knapen_AOT/AOT_stimuli/rescaled_final/1763_fw.mp4	0.0	185.96457314491272	
18	119.56758213043213	fix_post	2		12	16.0	2.5	/experiments/knapen_AOT/AOT_stimuli/rescaled_final/1763_fw.mp4	0.0	186.88074016571045	0.10006999969482422
19	119.66765213012695	fix_pre	0		120	17.0	2.5	/experiments/knapen_AOT/AOT_stimuli/rescaled_final/0833_fw.mp4	0.0	186.98081016540527	1.0001139640808105
19	120.25131702423096	pulse	0	t		17.0	2.5	/experiments/knapen_AOT/AOT_stimuli/rescaled_final/0833_fw.mp4	0.0	187.56447505950928	
19	120.66776609420776	movie	1		243	17.0	2.5	/experiments/knapen_AOT/AOT_stimuli/rescaled_final/0833_fw.mp4	0.0	187.98092412948608	2.5005078315734863
19	121.85152697563171	pulse	1	t		17.0	2.5	/experiments/knapen_AOT/AOT_stimuli/rescaled_final/0833_fw.mp4	0.0	189.16468501091003	
19	123.16827392578125	fix_post	2		12	17.0	2.5	/experiments/knapen_AOT/AOT_stimuli/rescaled_final/0833_fw.mp4	0.0	190.48143196105957	0.09991312026977539
20	123.26818704605103	fix_pre	0		120	18.0	2.5	/experiments/knapen_AOT/AOT_stimuli/rescaled_final/0629_rv.mp4	0.0	190.58134508132935	1.0001029968261719
20	123.45170903205872	pulse	0	t		18.0	2.5	/experiments/knapen_AOT/AOT_stimuli/rescaled_final/0629_rv.mp4	0.0	190.76486706733704	
20	124.2682900428772	movie	1		245	18.0	2.5	/experiments/knapen_AOT/AOT_stimuli/rescaled_final/0629_rv.mp4	0.0	191.58144807815552	2.500369071960449
20	125.0520179271698	pulse	1	t		18.0	2.5	/experiments/knapen_AOT/AOT_stimuli/rescaled_final/0629_rv.mp4	0.0	192.36517596244812	
20	126.64970993995667	pulse	1	t		18.0	2.5	/experiments/knapen_AOT/AOT_stimuli/rescaled_final/0629_rv.mp4	0.0	193.96286797523499	
20	126.76865911483765	fix_post	2		12	18.0	2.5	/experiments/knapen_AOT/AOT_stimuli/rescaled_final/0629_rv.mp4	0.0	194.08181715011597	0.10001683235168457
21	126.86867594718933	fix_pre	0		120	19.0	2.5	/experiments/knapen_AOT/AOT_stimuli/rescaled_final/1847_rv.mp4	0.0	194.18183398246765	1.0001461505889893
21	127.86882209777832	movie	1		242	19.0	2.5	/experiments/knapen_AOT/AOT_stimuli/rescaled_final/1847_rv.mp4	0.0	195.18198013305664	2.4920549392700195
21	128.2529740333557	pulse	1	t		19.0	2.5	/experiments/knapen_AOT/AOT_stimuli/rescaled_final/1847_rv.mp4	0.0	195.56613206863403	
21	129.85262799263	pulse	1	t		19.0	2.5	/experiments/knapen_AOT/AOT_stimuli/rescaled_final/1847_rv.mp4	0.0	197.16578602790833	
21	130.36087703704834	fix_post	2		12	19.0	2.5	/experiments/knapen_AOT/AOT_stimuli/rescaled_final/1847_rv.mp4	0.0	197.67403507232666	0.10004806518554688
22	130.4609251022339	fix_pre	0		120	20.0	2.5	/experiments/knapen_AOT/AOT_stimuli/rescaled_final/1918_rv.mp4	0.0	197.7740831375122	1.0001089572906494
22	131.45303010940552	pulse	0	t		20.0	2.5	/experiments/knapen_AOT/AOT_stimuli/rescaled_final/1918_rv.mp4	0.0	198.76618814468384	
22	131.46103405952454	movie	1		244	20.0	2.5	/experiments/knapen_AOT/AOT_stimuli/rescaled_final/1918_rv.mp4	0.0	198.77419209480286	2.508733034133911
22	133.05437898635864	pulse	1	t		20.0	2.5	/experiments/knapen_AOT/AOT_stimuli/rescaled_final/1918_rv.mp4	0.0	200.36753702163696	
22	133.96976709365845	fix_post	2		10	20.0	2.5	/experiments/knapen_AOT/AOT_stimuli/rescaled_final/1918_rv.mp4	0.0	201.28292512893677	0.1000528335571289
23	134.06981992721558	fix_pre	0		120	21.0	2.5	blank	1.0	201.3829779624939	1.0000851154327393
23	134.65338397026062	pulse	0	t		21.0	2.5	blank	1.0	201.96654200553894	
23	135.06990504264832	movie	1		300	21.0	2.5	blank	1.0	202.38306307792664	2.5003678798675537
23	136.25355792045593	pulse	1	t		21.0	2.5	blank	1.0	203.56671595573425	
23	137.57027292251587	fix_post	2		12	21.0	2.5	blank	1.0	204.8834309577942	0.10001111030578613
24	137.67028403282166	fix_pre	0		120	22.0	2.5	/experiments/knapen_AOT/AOT_stimuli/rescaled_final/0614_fw.mp4	0.0	204.98344206809998	1.000133991241455
24	137.85385394096375	pulse	0	t		22.0	2.5	/experiments/knapen_AOT/AOT_stimuli/rescaled_final/0614_fw.mp4	0.0	205.16701197624207	
24	138.6704180240631	movie	1		244	22.0	2.5	/experiments/knapen_AOT/AOT_stimuli/rescaled_final/0614_fw.mp4	0.0	205.98357605934143	2.5004310607910156
24	139.45420813560486	pulse	1	t		22.0	2.5	/experiments/knapen_AOT/AOT_stimuli/rescaled_final/0614_fw.mp4	0.0	206.76736617088318	
24	141.0543930530548	pulse	1	t		22.0	2.5	/experiments/knapen_AOT/AOT_stimuli/rescaled_final/0614_fw.mp4	0.0	208.36755108833313	
24	141.17084908485413	fix_post	2		12	22.0	2.5	/experiments/knapen_AOT/AOT_stimuli/rescaled_final/0614_fw.mp4	0.0	208.48400712013245	0.09996700286865234
25	141.27081608772278	fix_pre	0		120	23.0	2.5	/experiments/knapen_AOT/AOT_stimuli/rescaled_final/1617_rv.mp4	0.0	208.5839741230011	1.0001718997955322
25	142.2709879875183	movie	1		242	23.0	2.5	/experiments/knapen_AOT/AOT_stimuli/rescaled_final/1617_rv.mp4	0.0	209.58414602279663	2.492156982421875
25	142.65912294387817	pulse	1	t		23.0	2.5	/experiments/knapen_AOT/AOT_stimuli/rescaled_final/1617_rv.mp4	0.0	209.9722809791565	
25	144.25480008125305	pulse	1	t		23.0	2.5	/experiments/knapen_AOT/AOT_stimuli/rescaled_final/1617_rv.mp4	0.0	211.56795811653137	
25	144.76314496994019	fix_post	2		12	23.0	2.5	/experiments/knapen_AOT/AOT_stimuli/rescaled_final/1617_rv.mp4	0.0	212.0763030052185	0.09990406036376953
26	144.86304903030396	fix_pre	0		120	24.0	2.5	/experiments/knapen_AOT/AOT_stimuli/rescaled_final/1134_rv.mp4	0.0	212.17620706558228	1.0001139640808105
26	145.85519003868103	pulse	0	t		24.0	2.5	/experiments/knapen_AOT/AOT_stimuli/rescaled_final/1134_rv.mp4	0.0	213.16834807395935	
26	145.86316299438477	movie	1		246	24.0	2.5	/experiments/knapen_AOT/AOT_stimuli/rescaled_final/1134_rv.mp4	0.0	213.1763210296631	2.5087151527404785
26	147.45973896980286	pulse	1	t		24.0	2.5	/experiments/knapen_AOT/AOT_stimuli/rescaled_final/1134_rv.mp4	0.0	214.77289700508118	
26	148.37187814712524	fix_post	2		12	24.0	2.5	/experiments/knapen_AOT/AOT_stimuli/rescaled_final/1134_rv.mp4	0.0	215.68503618240356	0.10004591941833496
27	148.47192406654358	fix_pre	0		120	25.0	2.5	/experiments/knapen_AOT/AOT_stimuli/rescaled_final/0188_rv.mp4	0.0	215.7850821018219	1.0001280307769775
27	149.05546307563782	pulse	0	t		25.0	2.5	/experiments/knapen_AOT/AOT_stimuli/rescaled_final/0188_rv.mp4	0.0	216.36862111091614	
27	149.47205209732056	movie	1		245	25.0	2.5	/experiments/knapen_AOT/AOT_stimuli/rescaled_final/0188_rv.mp4	0.0	216.78521013259888	2.5003559589385986
27	150.65166997909546	pulse	1	t		25.0	2.5	/experiments/knapen_AOT/AOT_stimuli/rescaled_final/0188_rv.mp4	0.0	217.96482801437378	
27	151.97240805625916	fix_post	2		12	25.0	2.5	/experiments/knapen_AOT/AOT_stimuli/rescaled_final/0188_rv.mp4	0.0	219.28556609153748	0.10000991821289062
28	152.07241797447205	fix_pre	0		120	26.0	2.5	/experiments/knapen_AOT/AOT_stimuli/rescaled_final/0767_rv.mp4	0.0	219.38557600975037	1.000190019607544
28	152.25612998008728	pulse	0	t		26.0	2.5	/experiments/knapen_AOT/AOT_stimuli/rescaled_final/0767_rv.mp4	0.0	219.5692880153656	
28	153.0726079940796	movie	1		244	26.0	2.5	/experiments/knapen_AOT/AOT_stimuli/rescaled_final/0767_rv.mp4	0.0	220.3857660293579	2.5003530979156494
28	153.84880995750427	pulse	1	t		26.0	2.5	/experiments/knapen_AOT/AOT_stimuli/rescaled_final/0767_rv.mp4	0.0	221.1619679927826	
28	155.45651006698608	pulse	1	t		26.0	2.5	/experiments/knapen_AOT/AOT_stimuli/rescaled_final/0767_rv.mp4	0.0	222.7696681022644	
28	155.57296109199524	fix_post	2		12	26.0	2.5	/experiments/knapen_AOT/AOT_stimuli/rescaled_final/0767_rv.mp4	0.0	222.88611912727356	0.10000085830688477
29	155.67296195030212	fix_pre	0		120	27.0	2.5	blank	1.0	222.98611998558044	1.000204086303711
29	156.67316603660583	movie	1		299	27.0	2.5	blank	1.0	223.98632407188416	2.4920129776000977
29	157.04918599128723	pulse	1	t		27.0	2.5	blank	1.0	224.36234402656555	
29	158.64854192733765	pulse	1	t		27.0	2.5	blank	1.0	225.96169996261597	
29	159.16517901420593	fix_post	2		12	27.0	2.5	blank	1.0	226.47833704948425	0.09998607635498047
30	159.2651650905609	fix_pre	0		119	28.0	2.5	/experiments/knapen_AOT/AOT_stimuli/rescaled_final/1869_rv.mp4	0.0	226.57832312583923	0.9919369220733643
30	160.2488031387329	pulse	0	t		28.0	2.5	/experiments/knapen_AOT/AOT_stimuli/rescaled_final/1869_rv.mp4	0.0	227.56196117401123	
30	160.25710201263428	movie	1		244	28.0	2.5	/experiments/knapen_AOT/AOT_stimuli/rescaled_final/1869_rv.mp4	0.0	227.5702600479126	2.508636951446533
30	161.85369110107422	pulse	1	t		28.0	2.5	/experiments/knapen_AOT/AOT_stimuli/rescaled_final/1869_rv.mp4	0.0	229.16684913635254	
30	162.7657389640808	fix_post	2		12	28.0	2.5	/experiments/knapen_AOT/AOT_stimuli/rescaled_final/1869_rv.mp4	0.0	230.07889699935913	0.09996318817138672
31	162.8657021522522	fix_pre	0		120	29.0	2.5	/experiments/knapen_AOT/AOT_stimuli/rescaled_final/0875_fw.mp4	0.0	230.17886018753052	1.0001559257507324
31	163.44935393333435	pulse	0	t		29.0	2.5	/experiments/knapen_AOT/AOT_stimuli/rescaled_final/0875_fw.mp4	0.0	230.76251196861267	
31	163.86585807800293	movie	1		243	29.0	2.5	/experiments/knapen_AOT/AOT_stimuli/rescaled_final/0875_fw.mp4	0.0	231.17901611328125	2.500375986099243
31	165.04961109161377	pulse	1	t		29.0	2.5	/experiments/knapen_AOT/AOT_stimuli/rescaled_final/0875_fw.mp4	0.0	232.3627691268921	
31	166.36623406410217	fix_post	2		12	29.0	2.5	/experiments/knapen_AOT/AOT_stimuli/rescaled_final/0875_fw.mp4	0.0	233.6793920993805	0.10003209114074707
32	166.46626615524292	fix_pre	0		120	30.0	2.5	/experiments/knapen_AOT/AOT_stimuli/rescaled_final/2141_rv.mp4	0.0	233.77942419052124	1.0001389980316162
32	166.64982104301453	pulse	0	t		30.0	2.5	/experiments/knapen_AOT/AOT_stimuli/rescaled_final/2141_rv.mp4	0.0	233.96297907829285	
32	167.46640515327454	movie	1		243	30.0	2.5	/experiments/knapen_AOT/AOT_stimuli/rescaled_final/2141_rv.mp4	0.0	234.77956318855286	2.500382900238037
32	168.250009059906	pulse	1	t		30.0	2.5	/experiments/knapen_AOT/AOT_stimuli/rescaled_final/2141_rv.mp4	0.0	235.56316709518433	
32	169.85019207000732	pulse	1	t		30.0	2.5	/experiments/knapen_AOT/AOT_stimuli/rescaled_final/2141_rv.mp4	0.0	237.16335010528564	
32	169.96678805351257	fix_post	2		12	30.0	2.5	/experiments/knapen_AOT/AOT_stimuli/rescaled_final/2141_rv.mp4	0.0	237.2799460887909	0.09999608993530273
33	170.06678414344788	fix_pre	0		120	31.0	2.5	/experiments/knapen_AOT/AOT_stimuli/rescaled_final/2020_fw.mp4	0.0	237.3799421787262	1.0002567768096924
33	171.06704092025757	movie	1		242	31.0	2.5	/experiments/knapen_AOT/AOT_stimuli/rescaled_final/2020_fw.mp4	0.0	238.3801989555359	2.491915225982666
33	171.45114707946777	pulse	1	t		31.0	2.5	/experiments/knapen_AOT/AOT_stimuli/rescaled_final/2020_fw.mp4	0.0	238.7643051147461	
33	173.05083203315735	pulse	1	t		31.0	2.5	/experiments/knapen_AOT/AOT_stimuli/rescaled_final/2020_fw.mp4	0.0	240.36399006843567	
33	173.55895614624023	fix_post	2		12	31.0	2.5	/experiments/knapen_AOT/AOT_stimuli/rescaled_final/2020_fw.mp4	0.0	240.87211418151855	0.10009479522705078
34	173.65905094146729	fix_pre	0		120	32.0	2.5	/experiments/knapen_AOT/AOT_stimuli/rescaled_final/0962_rv.mp4	0.0	240.9722089767456	1.0001330375671387
34	174.65100002288818	pulse	0	t		32.0	2.5	/experiments/knapen_AOT/AOT_stimuli/rescaled_final/0962_rv.mp4	0.0	241.9641580581665	
34	174.65918397903442	movie	1		247	32.0	2.5	/experiments/knapen_AOT/AOT_stimuli/rescaled_final/0962_rv.mp4	0.0	241.97234201431274	2.5086591243743896
34	176.25182700157166	pulse	1	t		32.0	2.5	/experiments/knapen_AOT/AOT_stimuli/rescaled_final/0962_rv.mp4	0.0	243.56498503684998	
34	177.1678431034088	fix_post	2		12	32.0	2.5	/experiments/knapen_AOT/AOT_stimuli/rescaled_final/0962_rv.mp4	0.0	244.48100113868713	0.10005593299865723
35	177.26789903640747	fix_pre	0		120	33.0	2.5	blank	1.0	244.5810570716858	1.0001740455627441
35	177.8514289855957	pulse	0	t		33.0	2.5	blank	1.0	245.16458702087402	
35	178.26807308197021	movie	1		300	33.0	2.5	blank	1.0	245.58123111724854	2.5002970695495605
35	179.45173692703247	pulse	1	t		33.0	2.5	blank	1.0	246.7648949623108	
35	180.76837015151978	fix_post	2		12	33.0	2.5	blank	1.0	248.0815281867981	0.10003781318664551
36	180.86840796470642	fix_pre	0		120	34.0	2.5	/experiments/knapen_AOT/AOT_stimuli/rescaled_final/0552_rv.mp4	0.0	248.18156599998474	1.0001780986785889
36	181.05203104019165	pulse	0	t		34.0	2.5	/experiments/knapen_AOT/AOT_stimuli/rescaled_final/0552_rv.mp4	0.0	248.36518907546997	
36	181.868586063385	movie	1		244	34.0	2.5	/experiments/knapen_AOT/AOT_stimuli/rescaled_final/0552_rv.mp4	0.0	249.18174409866333	2.500339984893799
36	182.65220093727112	pulse	1	t		34.0	2.5	/experiments/knapen_AOT/AOT_stimuli/rescaled_final/0552_rv.mp4	0.0	249.96535897254944	
36	184.25263810157776	pulse	1	t		34.0	2.5	/experiments/knapen_AOT/AOT_stimuli/rescaled_final/0552_rv.mp4	0.0	251.56579613685608	
36	184.3689260482788	fix_post	2		12	34.0	2.5	/experiments/knapen_AOT/AOT_stimuli/rescaled_final/0552_rv.mp4	0.0	251.68208408355713	0.10004305839538574
37	184.4689691066742	fix_pre	0		120	35.0	2.5	/experiments/knapen_AOT/AOT_stimuli/rescaled_final/0400_rv.mp4	0.0	251.78212714195251	1.0001189708709717
37	185.46908807754517	movie	1		244	35.0	2.5	/experiments/knapen_AOT/AOT_stimuli/rescaled_final/0400_rv.mp4	0.0	252.7822461128235	2.49202299118042
37	185.85353207588196	pulse	1	t		35.0	2.5	/experiments/knapen_AOT/AOT_stimuli/rescaled_final/0400_rv.mp4	0.0	253.16669011116028	
37	187.45303201675415	pulse	1	t		35.0	2.5	/experiments/knapen_AOT/AOT_stimuli/rescaled_final/0400_rv.mp4	0.0	254.76619005203247	
37	187.9611110687256	fix_post	2		12	35.0	2.5	/experiments/knapen_AOT/AOT_stimuli/rescaled_final/0400_rv.mp4	0.0	255.2742691040039	0.10003304481506348
38	188.06114411354065	fix_pre	0		120	36.0	2.5	/experiments/knapen_AOT/AOT_stimuli/rescaled_final/2068_rv.mp4	0.0	255.37430214881897	1.000190019607544
38	189.05314993858337	pulse	0	t		36.0	2.5	/experiments/knapen_AOT/AOT_stimuli/rescaled_final/2068_rv.mp4	0.0	256.3663079738617	
38	189.0613341331482	movie	1		245	36.0	2.5	/experiments/knapen_AOT/AOT_stimuli/rescaled_final/2068_rv.mp4	0.0	256.3744921684265	2.5086798667907715
38	190.65471005439758	pulse	1	t		36.0	2.5	/experiments/knapen_AOT/AOT_stimuli/rescaled_final/2068_rv.mp4	0.0	257.9678680896759	
38	191.57001399993896	fix_post	2		12	36.0	2.5	/experiments/knapen_AOT/AOT_stimuli/rescaled_final/2068_rv.mp4	0.0	258.8831720352173	0.10001707077026367
39	191.67003107070923	fix_pre	0		120	37.0	2.5	/experiments/knapen_AOT/AOT_stimuli/rescaled_final/0416_rv.mp4	0.0	258.98318910598755	1.0001728534698486
39	192.25360202789307	pulse	0	t		37.0	2.5	/experiments/knapen_AOT/AOT_stimuli/rescaled_final/0416_rv.mp4	0.0	259.5667600631714	
39	192.67020392417908	movie	1		244	37.0	2.5	/experiments/knapen_AOT/AOT_stimuli/rescaled_final/0416_rv.mp4	0.0	259.9833619594574	2.5003151893615723
39	193.84999799728394	pulse	1	t		37.0	2.5	/experiments/knapen_AOT/AOT_stimuli/rescaled_final/0416_rv.mp4	0.0	261.16315603256226	
39	195.17051911354065	fix_post	2		9	37.0	2.5	/experiments/knapen_AOT/AOT_stimuli/rescaled_final/0416_rv.mp4	0.0	262.48367714881897	0.10008788108825684
40	195.2706069946289	fix_pre	0		120	38.0	2.5	/experiments/knapen_AOT/AOT_stimuli/rescaled_final/1899_rv.mp4	0.0	262.5837650299072	1.0001270771026611
40	195.45418214797974	pulse	0	t		38.0	2.5	/experiments/knapen_AOT/AOT_stimuli/rescaled_final/1899_rv.mp4	0.0	262.76734018325806	
40	196.27073407173157	movie	1		243	38.0	2.5	/experiments/knapen_AOT/AOT_stimuli/rescaled_final/1899_rv.mp4	0.0	263.5838921070099	2.5003159046173096
40	197.0543920993805	pulse	1	t		38.0	2.5	/experiments/knapen_AOT/AOT_stimuli/rescaled_final/1899_rv.mp4	0.0	264.3675501346588	
40	198.65437412261963	pulse	1	t		38.0	2.5	/experiments/knapen_AOT/AOT_stimuli/rescaled_final/1899_rv.mp4	0.0	265.96753215789795	
40	198.77104997634888	fix_post	2		12	38.0	2.5	/experiments/knapen_AOT/AOT_stimuli/rescaled_final/1899_rv.mp4	0.0	266.0842080116272	0.10007095336914062
41	198.87112092971802	fix_pre	0		119	39.0	2.5	/experiments/knapen_AOT/AOT_stimuli/rescaled_final/1918_rv.mp4	0.0	266.18427896499634	0.9918110370635986
41	199.86293196678162	movie	1		243	39.0	2.5	/experiments/knapen_AOT/AOT_stimuli/rescaled_final/1918_rv.mp4	0.0	267.17609000205994	2.500336170196533
41	200.25494599342346	pulse	1	t		39.0	2.5	/experiments/knapen_AOT/AOT_stimuli/rescaled_final/1918_rv.mp4	0.0	267.5681040287018	
41	201.8551721572876	pulse	1	t		39.0	2.5	/experiments/knapen_AOT/AOT_stimuli/rescaled_final/1918_rv.mp4	0.0	269.1683301925659	
41	202.36326813697815	fix_post	2		12	39.0	2.5	/experiments/knapen_AOT/AOT_stimuli/rescaled_final/1918_rv.mp4	0.0	269.67642617225647	0.10004496574401855
42	202.46331310272217	fix_pre	0		120	40.0	2.5	blank	1.0	269.7764711380005	1.0001180171966553
42	203.45529294013977	pulse	0	t		40.0	2.5	blank	1.0	270.7684509754181	
42	203.46343111991882	movie	1		301	40.0	2.5	blank	1.0	270.77658915519714	2.5087289810180664
42	205.05554914474487	pulse	1	t		40.0	2.5	blank	1.0	272.3687071800232	
42	205.9721601009369	fix_post	2		12	40.0	2.5	blank	1.0	273.2853181362152	0.09999299049377441
43	206.07215309143066	fix_pre	0		120	41.0	2.5	/experiments/knapen_AOT/AOT_stimuli/rescaled_final/1818_rv.mp4	0.0	273.385311126709	1.0001790523529053
43	206.65587902069092	pulse	0	t		41.0	2.5	/experiments/knapen_AOT/AOT_stimuli/rescaled_final/1818_rv.mp4	0.0	273.96903705596924	
43	207.07233214378357	movie	1		243	41.0	2.5	/experiments/knapen_AOT/AOT_stimuli/rescaled_final/1818_rv.mp4	0.0	274.3854901790619	2.5003318786621094
43	208.2562370300293	pulse	1	t		41.0	2.5	/experiments/knapen_AOT/AOT_stimuli/rescaled_final/1818_rv.mp4	0.0	275.5693950653076	
43	209.57266402244568	fix_post	2		12	41.0	2.5	/experiments/knapen_AOT/AOT_stimuli/rescaled_final/1818_rv.mp4	0.0	276.885822057724	0.10005307197570801
44	209.6727170944214	fix_pre	0		120	42.0	2.5	/experiments/knapen_AOT/AOT_stimuli/rescaled_final/0929_fw.mp4	0.0	276.9858751296997	1.0001740455627441
44	209.85629415512085	pulse	0	t		42.0	2.5	/experiments/knapen_AOT/AOT_stimuli/rescaled_final/0929_fw.mp4	0.0	277.16945219039917	
44	210.67289113998413	movie	1		246	42.0	2.5	/experiments/knapen_AOT/AOT_stimuli/rescaled_final/0929_fw.mp4	0.0	277.98604917526245	2.500321865081787
44	211.45647811889648	pulse	1	t		42.0	2.5	/experiments/knapen_AOT/AOT_stimuli/rescaled_final/0929_fw.mp4	0.0	278.7696361541748	
44	213.0492730140686	pulse	1	t		42.0	2.5	/experiments/knapen_AOT/AOT_stimuli/rescaled_final/0929_fw.mp4	0.0	280.3624310493469	
44	213.17321300506592	fix_post	2		12	42.0	2.5	/experiments/knapen_AOT/AOT_stimuli/rescaled_final/0929_fw.mp4	0.0	280.48637104034424	0.1000370979309082
45	213.27325010299683	fix_pre	0		119	43.0	2.5	/experiments/knapen_AOT/AOT_stimuli/rescaled_final/0925_fw.mp4	0.0	280.58640813827515	0.9918270111083984
45	214.26507711410522	movie	1		244	43.0	2.5	/experiments/knapen_AOT/AOT_stimuli/rescaled_final/0925_fw.mp4	0.0	281.57823514938354	2.500356912612915
45	214.6571500301361	pulse	1	t		43.0	2.5	/experiments/knapen_AOT/AOT_stimuli/rescaled_final/0925_fw.mp4	0.0	281.97030806541443	
45	216.24987196922302	pulse	1	t		43.0	2.5	/experiments/knapen_AOT/AOT_stimuli/rescaled_final/0925_fw.mp4	0.0	283.56303000450134	
45	216.76543402671814	fix_post	2		12	43.0	2.5	/experiments/knapen_AOT/AOT_stimuli/rescaled_final/0925_fw.mp4	0.0	284.07859206199646	0.09999608993530273
46	216.86543011665344	fix_pre	0		120	44.0	2.5	/experiments/knapen_AOT/AOT_stimuli/rescaled_final/0547_rv.mp4	0.0	284.17858815193176	1.0002188682556152
46	217.84992098808289	pulse	0	t		44.0	2.5	/experiments/knapen_AOT/AOT_stimuli/rescaled_final/0547_rv.mp4	0.0	285.1630790233612	
46	217.86564898490906	movie	1		245	44.0	2.5	/experiments/knapen_AOT/AOT_stimuli/rescaled_final/0547_rv.mp4	0.0	285.1788070201874	2.50864315032959
46	219.45808506011963	pulse	1	t		44.0	2.5	/experiments/knapen_AOT/AOT_stimuli/rescaled_final/0547_rv.mp4	0.0	286.77124309539795	
46	220.37429213523865	fix_post	2		12	44.0	2.5	/experiments/knapen_AOT/AOT_stimuli/rescaled_final/0547_rv.mp4	0.0	287.68745017051697	0.10001683235168457
47	220.47430896759033	fix_pre	0		120	45.0	2.5	/experiments/knapen_AOT/AOT_stimuli/rescaled_final/0828_rv.mp4	0.0	287.78746700286865	1.00018310546875
47	221.0495409965515	pulse	0	t		45.0	2.5	/experiments/knapen_AOT/AOT_stimuli/rescaled_final/0828_rv.mp4	0.0	288.36269903182983	
47	221.47449207305908	movie	1		244	45.0	2.5	/experiments/knapen_AOT/AOT_stimuli/rescaled_final/0828_rv.mp4	0.0	288.7876501083374	2.5003600120544434
47	222.6502330303192	pulse	1	t		45.0	2.5	/experiments/knapen_AOT/AOT_stimuli/rescaled_final/0828_rv.mp4	0.0	289.96339106559753	
47	223.97485208511353	fix_post	2		12	45.0	2.5	/experiments/knapen_AOT/AOT_stimuli/rescaled_final/0828_rv.mp4	0.0	291.28801012039185	0.10000300407409668
48	224.07485508918762	fix_pre	0		120	46.0	2.5	/experiments/knapen_AOT/AOT_stimuli/rescaled_final/1020_rv.mp4	0.0	291.38801312446594	1.0001530647277832
48	224.25015807151794	pulse	0	t		46.0	2.5	/experiments/knapen_AOT/AOT_stimuli/rescaled_final/1020_rv.mp4	0.0	291.56331610679626	
48	225.0750081539154	movie	1		244	46.0	2.5	/experiments/knapen_AOT/AOT_stimuli/rescaled_final/1020_rv.mp4	0.0	292.3881661891937	2.492029905319214
48	225.85032510757446	pulse	1	t		46.0	2.5	/experiments/knapen_AOT/AOT_stimuli/rescaled_final/1020_rv.mp4	0.0	293.1634831428528	
48	227.45048594474792	pulse	1	t		46.0	2.5	/experiments/knapen_AOT/AOT_stimuli/rescaled_final/1020_rv.mp4	0.0	294.76364398002625	
48	227.56703805923462	fix_post	2		12	46.0	2.5	/experiments/knapen_AOT/AOT_stimuli/rescaled_final/1020_rv.mp4	0.0	294.88019609451294	0.10003399848937988
49	227.667072057724	fix_pre	0		120	47.0	2.5	/experiments/knapen_AOT/AOT_stimuli/rescaled_final/0136_rv.mp4	0.0	294.9802300930023	1.0001640319824219
49	228.66723608970642	movie	1		243	47.0	2.5	/experiments/knapen_AOT/AOT_stimuli/rescaled_final/0136_rv.mp4	0.0	295.98039412498474	2.500361919403076
49	229.0514039993286	pulse	1	t		47.0	2.5	/experiments/knapen_AOT/AOT_stimuli/rescaled_final/0136_rv.mp4	0.0	296.36456203460693	
49	230.65101194381714	pulse	1	t		47.0	2.5	/experiments/knapen_AOT/AOT_stimuli/rescaled_final/0136_rv.mp4	0.0	297.96416997909546	
49	231.1675980091095	fix_post	2		12	47.0	2.5	/experiments/knapen_AOT/AOT_stimuli/rescaled_final/0136_rv.mp4	0.0	298.4807560443878	0.09999704360961914
50	231.26759505271912	fix_pre	0		119	48.0	2.5	blank	1.0	298.58075308799744	0.9917809963226318
50	232.25133204460144	pulse	0	t		48.0	2.5	blank	1.0	299.56449007987976	
50	232.25937604904175	movie	1		301	48.0	2.5	blank	1.0	299.57253408432007	2.508758068084717
50	233.85146403312683	pulse	1	t		48.0	2.5	blank	1.0	301.16462206840515	
50	234.76813411712646	fix_post	2		12	48.0	2.5	blank	1.0	302.0812921524048	0.10000181198120117
51	234.86813592910767	fix_pre	0		120	49.0	2.5	/experiments/knapen_AOT/AOT_stimuli/rescaled_final/0950_fw.mp4	0.0	302.181293964386	1.0001370906829834
51	235.45173907279968	pulse	0	t		49.0	2.5	/experiments/knapen_AOT/AOT_stimuli/rescaled_final/0950_fw.mp4	0.0	302.764897108078	
51	235.86827301979065	movie	1		243	49.0	2.5	/experiments/knapen_AOT/AOT_stimuli/rescaled_final/0950_fw.mp4	0.0	303.18143105506897	2.5004401206970215
51	237.05213403701782	pulse	1	t		49.0	2.5	/experiments/knapen_AOT/AOT_stimuli/rescaled_final/0950_fw.mp4	0.0	304.36529207229614	
51	238.36871314048767	fix_post	2		12	49.0	2.5	/experiments/knapen_AOT/AOT_stimuli/rescaled_final/0950_fw.mp4	0.0	305.681871175766	0.10005998611450195
52	238.46877312660217	fix_pre	0		120	50.0	2.5	/experiments/knapen_AOT/AOT_stimuli/rescaled_final/0315_rv.mp4	0.0	305.7819311618805	1.0000979900360107
52	238.6523311138153	pulse	0	t		50.0	2.5	/experiments/knapen_AOT/AOT_stimuli/rescaled_final/0315_rv.mp4	0.0	305.9654891490936	
52	239.46887111663818	movie	1		245	50.0	2.5	/experiments/knapen_AOT/AOT_stimuli/rescaled_final/0315_rv.mp4	0.0	306.7820291519165	2.500316858291626
52	240.2524881362915	pulse	1	t		50.0	2.5	/experiments/knapen_AOT/AOT_stimuli/rescaled_final/0315_rv.mp4	0.0	307.5656461715698	
52	241.8504500389099	pulse	1	t		50.0	2.5	/experiments/knapen_AOT/AOT_stimuli/rescaled_final/0315_rv.mp4	0.0	309.16360807418823	
52	241.9691879749298	fix_post	2		12	50.0	2.5	/experiments/knapen_AOT/AOT_stimuli/rescaled_final/0315_rv.mp4	0.0	309.28234601020813	0.1000521183013916
53	242.0692400932312	fix_pre	0		120	51.0	2.5	/experiments/knapen_AOT/AOT_stimuli/rescaled_final/1217_rv.mp4	0.0	309.3823981285095	1.0001139640808105
53	243.069354057312	movie	1		243	51.0	2.5	/experiments/knapen_AOT/AOT_stimuli/rescaled_final/1217_rv.mp4	0.0	310.38251209259033	2.4920198917388916
53	243.45426392555237	pulse	1	t		51.0	2.5	/experiments/knapen_AOT/AOT_stimuli/rescaled_final/1217_rv.mp4	0.0	310.7674219608307	
53	245.053297996521	pulse	1	t		51.0	2.5	/experiments/knapen_AOT/AOT_stimuli/rescaled_final/1217_rv.mp4	0.0	312.3664560317993	
53	245.5613739490509	fix_post	2		12	51.0	2.5	/experiments/knapen_AOT/AOT_stimuli/rescaled_final/1217_rv.mp4	0.0	312.8745319843292	0.10003399848937988
54	245.66140794754028	fix_pre	0		120	52.0	2.5	/experiments/knapen_AOT/AOT_stimuli/rescaled_final/1502_fw.mp4	0.0	312.9745659828186	1.0001871585845947
54	246.65341711044312	pulse	0	t		52.0	2.5	/experiments/knapen_AOT/AOT_stimuli/rescaled_final/1502_fw.mp4	0.0	313.96657514572144	
54	246.66159510612488	movie	1		247	52.0	2.5	/experiments/knapen_AOT/AOT_stimuli/rescaled_final/1502_fw.mp4	0.0	313.9747531414032	2.508638858795166
54	248.25452399253845	pulse	1	t		52.0	2.5	/experiments/knapen_AOT/AOT_stimuli/rescaled_final/1502_fw.mp4	0.0	315.5676820278168	
54	249.17023396492004	fix_post	2		12	52.0	2.5	/experiments/knapen_AOT/AOT_stimuli/rescaled_final/1502_fw.mp4	0.0	316.48339200019836	0.10005497932434082
55	249.27028894424438	fix_pre	0		120	53.0	2.5	/experiments/knapen_AOT/AOT_stimuli/rescaled_final/1379_rv.mp4	0.0	316.5834469795227	1.0001380443572998
55	249.85387015342712	pulse	0	t		53.0	2.5	/experiments/knapen_AOT/AOT_stimuli/rescaled_final/1379_rv.mp4	0.0	317.16702818870544	
55	250.27042698860168	movie	1		244	53.0	2.5	/experiments/knapen_AOT/AOT_stimuli/rescaled_final/1379_rv.mp4	0.0	317.58358502388	2.5004520416259766
55	251.4542920589447	pulse	1	t		53.0	2.5	/experiments/knapen_AOT/AOT_stimuli/rescaled_final/1379_rv.mp4	0.0	318.767450094223	
55	252.77087903022766	fix_post	2		12	53.0	2.5	/experiments/knapen_AOT/AOT_stimuli/rescaled_final/1379_rv.mp4	0.0	320.084037065506	0.09998297691345215
56	252.8708620071411	fix_pre	0		120	54.0	2.5	blank	1.0	320.18402004241943	1.0001370906829834
56	253.0544240474701	pulse	0	t		54.0	2.5	blank	1.0	320.3675820827484	
56	253.8709990978241	movie	1		295	54.0	2.5	blank	1.0	321.1841571331024	2.500361919403076
56	254.6546130180359	pulse	1	t		54.0	2.5	blank	1.0	321.9677710533142	
56	256.254919052124	pulse	1	t		54.0	2.5	blank	1.0	323.56807708740234	
56	256.3713610172272	fix_post	2		12	54.0	2.5	blank	1.0	323.6845190525055	0.1000211238861084
57	256.4713821411133	fix_pre	0		120	55.0	2.5	/experiments/knapen_AOT/AOT_stimuli/rescaled_final/0280_fw.mp4	0.0	323.7845401763916	1.0001189708709717
57	257.47150111198425	movie	1		242	55.0	2.5	/experiments/knapen_AOT/AOT_stimuli/rescaled_final/0280_fw.mp4	0.0	324.7846591472626	2.4920270442962646
57	257.85605907440186	pulse	1	t		55.0	2.5	/experiments/knapen_AOT/AOT_stimuli/rescaled_final/0280_fw.mp4	0.0	325.1692171096802	
57	259.45534896850586	pulse	1	t		55.0	2.5	/experiments/knapen_AOT/AOT_stimuli/rescaled_final/0280_fw.mp4	0.0	326.7685070037842	
57	259.9635281562805	fix_post	2		12	55.0	2.5	/experiments/knapen_AOT/AOT_stimuli/rescaled_final/0280_fw.mp4	0.0	327.27668619155884	0.10007596015930176
58	260.0636041164398	fix_pre	0		120	56.0	2.5	/experiments/knapen_AOT/AOT_stimuli/rescaled_final/2071_rv.mp4	0.0	327.37676215171814	1.0000889301300049
58	261.0555319786072	pulse	0	t		56.0	2.5	/experiments/knapen_AOT/AOT_stimuli/rescaled_final/2071_rv.mp4	0.0	328.3686900138855	
58	261.0636930465698	movie	1		244	56.0	2.5	/experiments/knapen_AOT/AOT_stimuli/rescaled_final/2071_rv.mp4	0.0	328.37685108184814	2.50872802734375
58	262.6604449748993	pulse	1	t		56.0	2.5	/experiments/knapen_AOT/AOT_stimuli/rescaled_final/2071_rv.mp4	0.0	329.9736030101776	
58	263.5724210739136	fix_post	2		12	56.0	2.5	/experiments/knapen_AOT/AOT_stimuli/rescaled_final/2071_rv.mp4	0.0	330.8855791091919	0.10000395774841309
59	263.672425031662	fix_pre	0		120	57.0	2.5	/experiments/knapen_AOT/AOT_stimuli/rescaled_final/1850_fw.mp4	0.0	330.9855830669403	1.0001749992370605
59	264.2560350894928	pulse	0	t		57.0	2.5	/experiments/knapen_AOT/AOT_stimuli/rescaled_final/1850_fw.mp4	0.0	331.5691931247711	
59	264.67260003089905	movie	1		243	57.0	2.5	/experiments/knapen_AOT/AOT_stimuli/rescaled_final/1850_fw.mp4	0.0	331.98575806617737	2.5003509521484375
59	265.85639095306396	pulse	1	t		57.0	2.5	/experiments/knapen_AOT/AOT_stimuli/rescaled_final/1850_fw.mp4	0.0	333.1695489883423	
59	267.1729509830475	fix_post	2		12	57.0	2.5	/experiments/knapen_AOT/AOT_stimuli/rescaled_final/1850_fw.mp4	0.0	334.4861090183258	0.1000211238861084
60	267.2729721069336	fix_pre	0		120	58.0	2.5	/experiments/knapen_AOT/AOT_stimuli/rescaled_final/0450_rv.mp4	0.0	334.5861301422119	1.0001769065856934
60	267.4490261077881	pulse	0	t		58.0	2.5	/experiments/knapen_AOT/AOT_stimuli/rescaled_final/0450_rv.mp4	0.0	334.7621841430664	
60	268.2731490135193	movie	1		245	58.0	2.5	/experiments/knapen_AOT/AOT_stimuli/rescaled_final/0450_rv.mp4	0.0	335.5863070487976	2.500347137451172
60	269.0494210720062	pulse	1	t		58.0	2.5	/experiments/knapen_AOT/AOT_stimuli/rescaled_final/0450_rv.mp4	0.0	336.36257910728455	
60	270.6545650959015	pulse	1	t		58.0	2.5	/experiments/knapen_AOT/AOT_stimuli/rescaled_final/0450_rv.mp4	0.0	337.9677231311798	
60	270.77349615097046	fix_post	2		12	58.0	2.5	/experiments/knapen_AOT/AOT_stimuli/rescaled_final/0450_rv.mp4	0.0	338.0866541862488	0.09998679161071777
61	270.8734829425812	fix_pre	0		120	59.0	2.5	/experiments/knapen_AOT/AOT_stimuli/rescaled_final/0726_fw.mp4	0.0	338.1866409778595	1.0001981258392334
61	271.8736810684204	movie	1		245	59.0	2.5	/experiments/knapen_AOT/AOT_stimuli/rescaled_final/0726_fw.mp4	0.0	339.18683910369873	2.492021083831787
61	272.25782203674316	pulse	1	t		59.0	2.5	/experiments/knapen_AOT/AOT_stimuli/rescaled_final/0726_fw.mp4	0.0	339.5709800720215	
61	273.84928607940674	pulse	1	t		59.0	2.5	/experiments/knapen_AOT/AOT_stimuli/rescaled_final/0726_fw.mp4	0.0	341.16244411468506	
61	274.3657021522522	fix_post	2		12	59.0	2.5	/experiments/knapen_AOT/AOT_stimuli/rescaled_final/0726_fw.mp4	0.0	341.6788601875305	0.0999898910522461
62	274.46569204330444	fix_pre	0		119	60.0	2.5	/experiments/knapen_AOT/AOT_stimuli/rescaled_final/0602_fw.mp4	0.0	341.77885007858276	0.9918460845947266
62	275.4493019580841	pulse	0	t		60.0	2.5	/experiments/knapen_AOT/AOT_stimuli/rescaled_final/0602_fw.mp4	0.0	342.7624599933624	
62	275.45753812789917	movie	1		246	60.0	2.5	/experiments/knapen_AOT/AOT_stimuli/rescaled_final/0602_fw.mp4	0.0	342.7706961631775	2.508685827255249
62	277.0509560108185	pulse	1	t		60.0	2.5	/experiments/knapen_AOT/AOT_stimuli/rescaled_final/0602_fw.mp4	0.0	344.3641140460968	
62	277.9662239551544	fix_post	2		12	60.0	2.5	/experiments/knapen_AOT/AOT_stimuli/rescaled_final/0602_fw.mp4	0.0	345.27938199043274	0.09999704360961914
63	278.06622099876404	fix_pre	0		120	61.0	2.5	/experiments/knapen_AOT/AOT_stimuli/rescaled_final/1755_rv.mp4	0.0	345.37937903404236	1.000180959701538
63	278.6499321460724	pulse	0	t		61.0	2.5	/experiments/knapen_AOT/AOT_stimuli/rescaled_final/1755_rv.mp4	0.0	345.9630901813507	
63	279.0664019584656	movie	1		243	61.0	2.5	/experiments/knapen_AOT/AOT_stimuli/rescaled_final/1755_rv.mp4	0.0	346.3795599937439	2.5004031658172607
63	280.250226020813	pulse	1	t		61.0	2.5	/experiments/knapen_AOT/AOT_stimuli/rescaled_final/1755_rv.mp4	0.0	347.5633840560913	
63	281.56680512428284	fix_post	2		12	61.0	2.5	/experiments/knapen_AOT/AOT_stimuli/rescaled_final/1755_rv.mp4	0.0	348.87996315956116	0.09995102882385254
64	281.6667561531067	fix_pre	0		120	62.0	2.5	blank	1.0	348.979914188385	1.000182867050171
64	281.85033893585205	pulse	0	t		62.0	2.5	blank	1.0	349.16349697113037	
64	282.66693902015686	movie	1		300	62.0	2.5	blank	1.0	349.9800970554352	2.500378131866455
64	283.45055198669434	pulse	1	t		62.0	2.5	blank	1.0	350.76371002197266	
64	285.0508840084076	pulse	1	t		62.0	2.5	blank	1.0	352.3640420436859	
64	285.1673171520233	fix_post	2		12	62.0	2.5	blank	1.0	352.48047518730164	0.10004186630249023
65	285.2673590183258	fix_pre	0		119	63.0	2.5	/experiments/knapen_AOT/AOT_stimuli/rescaled_final/0136_fw.mp4	0.0	352.5805170536041	0.9917819499969482
65	286.25914096832275	movie	1		243	63.0	2.5	/experiments/knapen_AOT/AOT_stimuli/rescaled_final/0136_fw.mp4	0.0	353.5722990036011	2.50034499168396
65	286.65118408203125	pulse	1	t		63.0	2.5	/experiments/knapen_AOT/AOT_stimuli/rescaled_final/0136_fw.mp4	0.0	353.96434211730957	
65	288.25126099586487	pulse	1	t		63.0	2.5	/experiments/knapen_AOT/AOT_stimuli/rescaled_final/0136_fw.mp4	0.0	355.5644190311432	
65	288.7594859600067	fix_post	2		12	63.0	2.5	/experiments/knapen_AOT/AOT_stimuli/rescaled_final/0136_fw.mp4	0.0	356.07264399528503	0.10002517700195312
66	288.85951113700867	fix_pre	0		120	64.0	2.5	/experiments/knapen_AOT/AOT_stimuli/rescaled_final/1134_fw.mp4	0.0	356.172669172287	1.0002009868621826
66	289.8516380786896	pulse	0	t		64.0	2.5	/experiments/knapen_AOT/AOT_stimuli/rescaled_final/1134_fw.mp4	0.0	357.1647961139679	
66	289.85971212387085	movie	1		246	64.0	2.5	/experiments/knapen_AOT/AOT_stimuli/rescaled_final/1134_fw.mp4	0.0	357.17287015914917	2.5086379051208496
66	291.4530370235443	pulse	1	t		64.0	2.5	/experiments/knapen_AOT/AOT_stimuli/rescaled_final/1134_fw.mp4	0.0	358.76619505882263	
66	292.3683500289917	fix_post	2		12	64.0	2.5	/experiments/knapen_AOT/AOT_stimuli/rescaled_final/1134_fw.mp4	0.0	359.68150806427	0.10009193420410156
67	292.4684419631958	fix_pre	0		120	65.0	2.5	/experiments/knapen_AOT/AOT_stimuli/rescaled_final/1400_fw.mp4	0.0	359.7815999984741	1.0001180171966553
67	293.052127122879	pulse	0	t		65.0	2.5	/experiments/knapen_AOT/AOT_stimuli/rescaled_final/1400_fw.mp4	0.0	360.36528515815735	
67	293.46855998039246	movie	1		245	65.0	2.5	/experiments/knapen_AOT/AOT_stimuli/rescaled_final/1400_fw.mp4	0.0	360.7817180156708	2.5003750324249268
67	294.6522879600525	pulse	1	t		65.0	2.5	/experiments/knapen_AOT/AOT_stimuli/rescaled_final/1400_fw.mp4	0.0	361.9654459953308	
67	295.9689350128174	fix_post	2		12	65.0	2.5	/experiments/knapen_AOT/AOT_stimuli/rescaled_final/1400_fw.mp4	0.0	363.2820930480957	0.10003399848937988
68	296.06896901130676	fix_pre	0		120	66.0	2.5	/experiments/knapen_AOT/AOT_stimuli/rescaled_final/0880_fw.mp4	0.0	363.3821270465851	1.000096082687378
68	296.25246500968933	pulse	0	t		66.0	2.5	/experiments/knapen_AOT/AOT_stimuli/rescaled_final/0880_fw.mp4	0.0	363.56562304496765	
68	297.06906509399414	movie	1		244	66.0	2.5	/experiments/knapen_AOT/AOT_stimuli/rescaled_final/0880_fw.mp4	0.0	364.38222312927246	2.500480890274048
68	297.8527879714966	pulse	1	t		66.0	2.5	/experiments/knapen_AOT/AOT_stimuli/rescaled_final/0880_fw.mp4	0.0	365.1659460067749	
68	299.45298409461975	pulse	1	t		66.0	2.5	/experiments/knapen_AOT/AOT_stimuli/rescaled_final/0880_fw.mp4	0.0	366.76614212989807	
68	299.5695459842682	fix_post	2		12	66.0	2.5	/experiments/knapen_AOT/AOT_stimuli/rescaled_final/0880_fw.mp4	0.0	366.8827040195465	0.09990310668945312
69	299.66944909095764	fix_pre	0		120	67.0	2.5	/experiments/knapen_AOT/AOT_stimuli/rescaled_final/0952_fw.mp4	0.0	366.98260712623596	1.0001859664916992
69	300.66963505744934	movie	1		245	67.0	2.5	/experiments/knapen_AOT/AOT_stimuli/rescaled_final/0952_fw.mp4	0.0	367.98279309272766	2.4920358657836914
69	301.053808927536	pulse	1	t		67.0	2.5	/experiments/knapen_AOT/AOT_stimuli/rescaled_final/0952_fw.mp4	0.0	368.36696696281433	
69	302.65342807769775	pulse	1	t		67.0	2.5	/experiments/knapen_AOT/AOT_stimuli/rescaled_final/0952_fw.mp4	0.0	369.9665861129761	
69	303.16167092323303	fix_post	2		12	67.0	2.5	/experiments/knapen_AOT/AOT_stimuli/rescaled_final/0952_fw.mp4	0.0	370.47482895851135	0.10002923011779785
70	303.26170015335083	fix_pre	0		120	68.0	2.5	/experiments/knapen_AOT/AOT_stimuli/rescaled_final/0270_rv.mp4	0.0	370.57485818862915	1.0001389980316162
70	304.2536871433258	pulse	0	t		68.0	2.5	/experiments/knapen_AOT/AOT_stimuli/rescaled_final/0270_rv.mp4	0.0	371.5668451786041	
70	304.26183915138245	movie	1		245	68.0	2.5	/experiments/knapen_AOT/AOT_stimuli/rescaled_final/0270_rv.mp4	0.0	371.57499718666077	2.508659839630127
70	305.8543219566345	pulse	1	t		68.0	2.5	/experiments/knapen_AOT/AOT_stimuli/rescaled_final/0270_rv.mp4	0.0	373.16747999191284	
70	306.7704989910126	fix_post	2		12	68.0	2.5	/experiments/knapen_AOT/AOT_stimuli/rescaled_final/0270_rv.mp4	0.0	374.0836570262909	0.10009312629699707
71	306.87059211730957	fix_pre	0		120	69.0	2.5	blank	1.0	374.1837501525879	1.000087022781372
71	307.45423197746277	pulse	0	t		69.0	2.5	blank	1.0	374.7673900127411	
71	307.87067914009094	movie	1		300	69.0	2.5	blank	1.0	375.18383717536926	2.500408887863159
71	309.05444502830505	pulse	1	t		69.0	2.5	blank	1.0	376.3676030635834	
71	310.3710880279541	fix_post	2		12	69.0	2.5	blank	1.0	377.6842460632324	0.10003900527954102
72	310.47112703323364	fix_pre	0		120	70.0	2.5	/experiments/knapen_AOT/AOT_stimuli/rescaled_final/2035_rv.mp4	0.0	377.78428506851196	1.0001170635223389
72	310.6546289920807	pulse	0	t		70.0	2.5	/experiments/knapen_AOT/AOT_stimuli/rescaled_final/2035_rv.mp4	0.0	377.967787027359	
72	311.471244096756	movie	1		244	70.0	2.5	/experiments/knapen_AOT/AOT_stimuli/rescaled_final/2035_rv.mp4	0.0	378.7844021320343	2.500335931777954
72	312.25498700141907	pulse	1	t		70.0	2.5	/experiments/knapen_AOT/AOT_stimuli/rescaled_final/2035_rv.mp4	0.0	379.5681450366974	
72	313.855211019516	pulse	1	t		70.0	2.5	/experiments/knapen_AOT/AOT_stimuli/rescaled_final/2035_rv.mp4	0.0	381.1683690547943	
72	313.97158002853394	fix_post	2		12	70.0	2.5	/experiments/knapen_AOT/AOT_stimuli/rescaled_final/2035_rv.mp4	0.0	381.28473806381226	0.10001611709594727
73	314.0715961456299	fix_pre	0		116	71.0	2.5	/experiments/knapen_AOT/AOT_stimuli/rescaled_final/0733_rv.mp4	0.0	381.3847541809082	1.0001869201660156
73	315.0717830657959	movie	1		244	71.0	2.5	/experiments/knapen_AOT/AOT_stimuli/rescaled_final/0733_rv.mp4	0.0	382.3849411010742	2.492037057876587
73	315.4565839767456	pulse	1	t		71.0	2.5	/experiments/knapen_AOT/AOT_stimuli/rescaled_final/0733_rv.mp4	0.0	382.7697420120239	
73	317.05555510520935	pulse	1	t		71.0	2.5	/experiments/knapen_AOT/AOT_stimuli/rescaled_final/0733_rv.mp4	0.0	384.36871314048767	
73	317.5638201236725	fix_post	2		12	71.0	2.5	/experiments/knapen_AOT/AOT_stimuli/rescaled_final/0733_rv.mp4	0.0	384.8769781589508	0.09999895095825195
74	317.66381907463074	fix_pre	0		120	72.0	2.5	/experiments/knapen_AOT/AOT_stimuli/rescaled_final/0435_fw.mp4	0.0	384.97697710990906	1.000190019607544
74	318.65588092803955	pulse	0	t		72.0	2.5	/experiments/knapen_AOT/AOT_stimuli/rescaled_final/0435_fw.mp4	0.0	385.96903896331787	
74	318.6640090942383	movie	1		245	72.0	2.5	/experiments/knapen_AOT/AOT_stimuli/rescaled_final/0435_fw.mp4	0.0	385.9771671295166	2.5086450576782227
74	320.25668692588806	pulse	1	t		72.0	2.5	/experiments/knapen_AOT/AOT_stimuli/rescaled_final/0435_fw.mp4	0.0	387.5698449611664	
74	321.1726541519165	fix_post	2		12	72.0	2.5	/experiments/knapen_AOT/AOT_stimuli/rescaled_final/0435_fw.mp4	0.0	388.4858121871948	0.10002899169921875
75	321.2726831436157	fix_pre	0		120	73.0	2.5	/experiments/knapen_AOT/AOT_stimuli/rescaled_final/0450_rv.mp4	0.0	388.58584117889404	1.0001928806304932
75	321.8563959598541	pulse	0	t		73.0	2.5	/experiments/knapen_AOT/AOT_stimuli/rescaled_final/0450_rv.mp4	0.0	389.16955399513245	
75	322.2728760242462	movie	1		245	73.0	2.5	/experiments/knapen_AOT/AOT_stimuli/rescaled_final/0450_rv.mp4	0.0	389.58603405952454	2.500369071960449
75	323.45666003227234	pulse	1	t		73.0	2.5	/experiments/knapen_AOT/AOT_stimuli/rescaled_final/0450_rv.mp4	0.0	390.76981806755066	
75	324.77324509620667	fix_post	2		12	73.0	2.5	/experiments/knapen_AOT/AOT_stimuli/rescaled_final/0450_rv.mp4	0.0	392.086403131485	0.10000085830688477
76	324.87324595451355	fix_pre	0		120	74.0	2.5	/experiments/knapen_AOT/AOT_stimuli/rescaled_final/0370_fw.mp4	0.0	392.18640398979187	1.000115156173706
76	325.05682396888733	pulse	0	t		74.0	2.5	/experiments/knapen_AOT/AOT_stimuli/rescaled_final/0370_fw.mp4	0.0	392.36998200416565	
76	325.87336111068726	movie	1		244	74.0	2.5	/experiments/knapen_AOT/AOT_stimuli/rescaled_final/0370_fw.mp4	0.0	393.1865191459656	2.500375986099243
76	326.6495659351349	pulse	1	t		74.0	2.5	/experiments/knapen_AOT/AOT_stimuli/rescaled_final/0370_fw.mp4	0.0	393.9627239704132	
76	328.25514793395996	pulse	1	t		74.0	2.5	/experiments/knapen_AOT/AOT_stimuli/rescaled_final/0370_fw.mp4	0.0	395.5683059692383	
76	328.3737370967865	fix_post	2		12	74.0	2.5	/experiments/knapen_AOT/AOT_stimuli/rescaled_final/0370_fw.mp4	0.0	395.6868951320648	0.1000070571899414
77	328.47374415397644	fix_pre	0		120	75.0	2.5	blank	1.0	395.78690218925476	1.0001709461212158
77	329.47391510009766	movie	1		299	75.0	2.5	blank	1.0	396.787073135376	2.4920220375061035
77	329.85001492500305	pulse	1	t		75.0	2.5	blank	1.0	397.1631729602814	
77	331.45028495788574	pulse	1	t		75.0	2.5	blank	1.0	398.76344299316406	
77	331.96593713760376	fix_post	2		12	75.0	2.5	blank	1.0	399.2790951728821	0.10002994537353516
78	332.0659670829773	fix_pre	0		119	76.0	2.5	/experiments/knapen_AOT/AOT_stimuli/rescaled_final/1888_rv.mp4	0.0	399.3791251182556	0.9918708801269531
78	333.0495979785919	pulse	0	t		76.0	2.5	/experiments/knapen_AOT/AOT_stimuli/rescaled_final/1888_rv.mp4	0.0	400.36275601387024	
78	333.05783796310425	movie	1		245	76.0	2.5	/experiments/knapen_AOT/AOT_stimuli/rescaled_final/1888_rv.mp4	0.0	400.37099599838257	2.508650064468384
78	334.6504831314087	pulse	1	t		76.0	2.5	/experiments/knapen_AOT/AOT_stimuli/rescaled_final/1888_rv.mp4	0.0	401.963641166687	
78	335.56648802757263	fix_post	2		12	76.0	2.5	/experiments/knapen_AOT/AOT_stimuli/rescaled_final/1888_rv.mp4	0.0	402.87964606285095	0.09999203681945801
79	335.6664800643921	fix_pre	0		120	77.0	2.5	/experiments/knapen_AOT/AOT_stimuli/rescaled_final/1687_fw.mp4	0.0	402.9796380996704	1.0001859664916992
79	336.2501199245453	pulse	0	t		77.0	2.5	/experiments/knapen_AOT/AOT_stimuli/rescaled_final/1687_fw.mp4	0.0	403.5632779598236	
79	336.6666660308838	movie	1		245	77.0	2.5	/experiments/knapen_AOT/AOT_stimuli/rescaled_final/1687_fw.mp4	0.0	403.9798240661621	2.5003769397735596
79	337.85040307044983	pulse	1	t		77.0	2.5	/experiments/knapen_AOT/AOT_stimuli/rescaled_final/1687_fw.mp4	0.0	405.16356110572815	
79	339.16704297065735	fix_post	2		12	77.0	2.5	/experiments/knapen_AOT/AOT_stimuli/rescaled_final/1687_fw.mp4	0.0	406.48020100593567	0.09998607635498047
80	339.26702904701233	fix_pre	0		120	78.0	2.5	/experiments/knapen_AOT/AOT_stimuli/rescaled_final/0590_rv.mp4	0.0	406.58018708229065	1.0001459121704102
80	339.4505789279938	pulse	0	t		78.0	2.5	/experiments/knapen_AOT/AOT_stimuli/rescaled_final/0590_rv.mp4	0.0	406.7637369632721	
80	340.26717495918274	movie	1		244	78.0	2.5	/experiments/knapen_AOT/AOT_stimuli/rescaled_final/0590_rv.mp4	0.0	407.58033299446106	2.5003881454467773
80	341.05085611343384	pulse	1	t		78.0	2.5	/experiments/knapen_AOT/AOT_stimuli/rescaled_final/0590_rv.mp4	0.0	408.36401414871216	
80	342.6531870365143	pulse	1	t		78.0	2.5	/experiments/knapen_AOT/AOT_stimuli/rescaled_final/0590_rv.mp4	0.0	409.9663450717926	
80	342.7675631046295	fix_post	2		12	78.0	2.5	/experiments/knapen_AOT/AOT_stimuli/rescaled_final/0590_rv.mp4	0.0	410.08072113990784	0.10001897811889648
81	342.8675820827484	fix_pre	0		119	79.0	2.5	/experiments/knapen_AOT/AOT_stimuli/rescaled_final/1833_rv.mp4	0.0	410.18074011802673	0.9918198585510254
81	343.85940194129944	movie	1		243	79.0	2.5	/experiments/knapen_AOT/AOT_stimuli/rescaled_final/1833_rv.mp4	0.0	411.17255997657776	2.5003931522369385
81	344.25140500068665	pulse	1	t		79.0	2.5	/experiments/knapen_AOT/AOT_stimuli/rescaled_final/1833_rv.mp4	0.0	411.56456303596497	
81	345.8515250682831	pulse	1	t		79.0	2.5	/experiments/knapen_AOT/AOT_stimuli/rescaled_final/1833_rv.mp4	0.0	413.1646831035614	
81	346.3597950935364	fix_post	2		12	79.0	2.5	/experiments/knapen_AOT/AOT_stimuli/rescaled_final/1833_rv.mp4	0.0	413.6729531288147	0.09999895095825195
82	346.45979404449463	fix_pre	0		120	80.0	2.5	/experiments/knapen_AOT/AOT_stimuli/rescaled_final/0151_fw.mp4	0.0	413.77295207977295	1.0002410411834717
82	347.45184803009033	pulse	0	t		80.0	2.5	/experiments/knapen_AOT/AOT_stimuli/rescaled_final/0151_fw.mp4	0.0	414.76500606536865	
82	347.4600350856781	movie	1		244	80.0	2.5	/experiments/knapen_AOT/AOT_stimuli/rescaled_final/0151_fw.mp4	0.0	414.7731931209564	2.508586883544922
82	349.0526180267334	pulse	1	t		80.0	2.5	/experiments/knapen_AOT/AOT_stimuli/rescaled_final/0151_fw.mp4	0.0	416.3657760620117	
82	349.968621969223	fix_post	2		12	80.0	2.5	/experiments/knapen_AOT/AOT_stimuli/rescaled_final/0151_fw.mp4	0.0	417.28178000450134	0.1000070571899414
83	350.06862902641296	fix_pre	0		120	81.0	2.5	/experiments/knapen_AOT/AOT_stimuli/rescaled_final/0151_rv.mp4	0.0	417.3817870616913	1.0002079010009766
83	350.6523561477661	pulse	0	t		81.0	2.5	/experiments/knapen_AOT/AOT_stimuli/rescaled_final/0151_rv.mp4	0.0	417.96551418304443	
83	351.06883692741394	movie	1		243	81.0	2.5	/experiments/knapen_AOT/AOT_stimuli/rescaled_final/0151_rv.mp4	0.0	418.38199496269226	2.50032114982605
83	352.2526800632477	pulse	1	t		81.0	2.5	/experiments/knapen_AOT/AOT_stimuli/rescaled_final/0151_rv.mp4	0.0	419.565838098526	
83	353.56915807724	fix_post	2		12	81.0	2.5	/experiments/knapen_AOT/AOT_stimuli/rescaled_final/0151_rv.mp4	0.0	420.8823161125183	0.10003399848937988
84	353.66919207572937	fix_pre	0		120	82.0	2.5	blank	1.0	420.9823501110077	1.0001518726348877
84	353.85282492637634	pulse	0	t		82.0	2.5	blank	1.0	421.16598296165466	
84	354.66934394836426	movie	1		300	82.0	2.5	blank	1.0	421.9825019836426	2.500373125076294
84	355.452938079834	pulse	1	t		82.0	2.5	blank	1.0	422.7660961151123	
84	357.05321407318115	pulse	1	t		82.0	2.5	blank	1.0	424.3663721084595	
84	357.16971707344055	fix_post	2		12	82.0	2.5	blank	1.0	424.4828751087189	0.10000300407409668
85	357.26972007751465	fix_pre	0		120	83.0	2.5	/experiments/knapen_AOT/AOT_stimuli/rescaled_final/0451_rv.mp4	0.0	424.58287811279297	1.00016188621521
85	358.26988196372986	movie	1		242	83.0	2.5	/experiments/knapen_AOT/AOT_stimuli/rescaled_final/0451_rv.mp4	0.0	425.5830399990082	2.492002010345459
85	358.6540250778198	pulse	1	t		83.0	2.5	/experiments/knapen_AOT/AOT_stimuli/rescaled_final/0451_rv.mp4	0.0	425.96718311309814	
85	360.2537569999695	pulse	1	t		83.0	2.5	/experiments/knapen_AOT/AOT_stimuli/rescaled_final/0451_rv.mp4	0.0	427.5669150352478	
85	360.7618839740753	fix_post	2		12	83.0	2.5	/experiments/knapen_AOT/AOT_stimuli/rescaled_final/0451_rv.mp4	0.0	428.07504200935364	0.10004115104675293
87	360.86192512512207	stim	0		1716					428.1750831604004	14.30214786529541
87	361.85405111312866	pulse	0	t						429.167209148407	
87	363.45415902137756	pulse	0	t						430.7673170566559	
87	365.0543739795685	pulse	0	t						432.3675320148468	
87	366.65469098091125	pulse	0	t						433.9678490161896	
87	368.2549719810486	pulse	0	t						435.5681300163269	
87	369.85508394241333	pulse	0	t						437.16824197769165	
87	371.45536398887634	pulse	0	t						438.76852202415466	
87	373.05560398101807	pulse	0	t						440.3687620162964	
87	374.6558771133423	pulse	0	t						441.9690351486206	
