trial_nr	onset	event_type	phase	response	nr_frames	movie_index	movie_duration	movie_file	blank	onset_abs	duration
0	0.15818309783935547	stim	0		214					28.38651704788208	1.7833499908447266
0	1.933570146560669	response	0	space						30.161904096603394	
1	1.941533088684082	stim	0		4799					30.169867038726807	39.99148392677307
1	41.91778111457825	pulse	0	t						70.14611506462097	
1	41.93301701545715	stim	1		1717					70.16135096549988	14.308258056640625
1	43.5173020362854	pulse	1	t						71.74563598632812	
1	45.117311000823975	pulse	1	t						73.3456449508667	
1	46.71741604804993	pulse	1	t						74.94574999809265	
1	48.317363023757935	pulse	1	t						76.54569697380066	
1	49.91658401489258	pulse	1	t						78.1449179649353	
1	51.52482509613037	pulse	1	t						79.7531590461731	
1	53.11724615097046	pulse	1	t						81.34558010101318	
1	54.71721601486206	pulse	1	t						82.94554996490479	
2	56.24127507209778	fix_pre	0		12	0.0	2.5	/experiments/AOT/AOT_stimuli/rescaled_final/1718_fw.mp4	0.0	84.4696090221405	0.10005593299865723
2	56.33367609977722	pulse	0	t		0.0	2.5	/experiments/AOT/AOT_stimuli/rescaled_final/1718_fw.mp4	0.0	84.56201004981995	
2	56.341331005096436	movie	1		242	0.0	2.5	/experiments/AOT/AOT_stimuli/rescaled_final/1718_fw.mp4	0.0	84.56966495513916	2.508327007293701
2	57.917508125305176	pulse	1	t		0.0	2.5	/experiments/AOT/AOT_stimuli/rescaled_final/1718_fw.mp4	0.0	86.1458420753479	
2	58.84965801239014	fix_post	2		12	0.0	2.5	/experiments/AOT/AOT_stimuli/rescaled_final/1718_fw.mp4	0.0	87.07799196243286	0.10002899169921875
3	58.949687004089355	fix_pre	0		120	1.0	2.5	/experiments/AOT/AOT_stimuli/rescaled_final/0428_fw.mp4	0.0	87.17802095413208	0.9999241828918457
3	59.517372131347656	pulse	0	t		1.0	2.5	/experiments/AOT/AOT_stimuli/rescaled_final/0428_fw.mp4	0.0	87.74570608139038	
3	59.9496111869812	movie	1		245	1.0	2.5	/experiments/AOT/AOT_stimuli/rescaled_final/0428_fw.mp4	0.0	88.17794513702393	2.5001139640808105
3	61.124152183532715	pulse	1	t		1.0	2.5	/experiments/AOT/AOT_stimuli/rescaled_final/0428_fw.mp4	0.0	89.35248613357544	
3	62.44972515106201	fix_post	2		12	1.0	2.5	/experiments/AOT/AOT_stimuli/rescaled_final/0428_fw.mp4	0.0	90.67805910110474	0.09990286827087402
4	62.549628019332886	fix_pre	0		120	2.0	2.5	/experiments/AOT/AOT_stimuli/rescaled_final/0958_fw.mp4	0.0	90.77796196937561	0.9999680519104004
4	62.71726608276367	pulse	0	t		2.0	2.5	/experiments/AOT/AOT_stimuli/rescaled_final/0958_fw.mp4	0.0	90.9456000328064	
4	63.549596071243286	movie	1		245	2.0	2.5	/experiments/AOT/AOT_stimuli/rescaled_final/0958_fw.mp4	0.0	91.77793002128601	2.5000691413879395
4	64.31812405586243	pulse	1	t		2.0	2.5	/experiments/AOT/AOT_stimuli/rescaled_final/0958_fw.mp4	0.0	92.54645800590515	
4	65.91648316383362	pulse	1	t		2.0	2.5	/experiments/AOT/AOT_stimuli/rescaled_final/0958_fw.mp4	0.0	94.14481711387634	
4	66.04966521263123	fix_post	2		12	2.0	2.5	/experiments/AOT/AOT_stimuli/rescaled_final/0958_fw.mp4	0.0	94.27799916267395	0.09994792938232422
5	66.14961314201355	fix_pre	0		120	3.0	2.5	/experiments/AOT/AOT_stimuli/rescaled_final/1864_fw.mp4	0.0	94.37794709205627	0.9999380111694336
5	67.14955115318298	movie	1		243	3.0	2.5	/experiments/AOT/AOT_stimuli/rescaled_final/1864_fw.mp4	0.0	95.37788510322571	2.5001108646392822
5	67.52476811408997	pulse	1	t		3.0	2.5	/experiments/AOT/AOT_stimuli/rescaled_final/1864_fw.mp4	0.0	95.75310206413269	
5	69.12480115890503	pulse	1	t		3.0	2.5	/experiments/AOT/AOT_stimuli/rescaled_final/1864_fw.mp4	0.0	97.35313510894775	
5	69.64966201782227	fix_post	2		12	3.0	2.5	/experiments/AOT/AOT_stimuli/rescaled_final/1864_fw.mp4	0.0	97.87799596786499	0.10005903244018555
6	69.74972105026245	fix_pre	0		118	4.0	2.5	/experiments/AOT/AOT_stimuli/rescaled_final/0705_fw.mp4	0.0	97.97805500030518	0.9832370281219482
6	70.71720004081726	pulse	0	t		4.0	2.5	/experiments/AOT/AOT_stimuli/rescaled_final/0705_fw.mp4	0.0	98.94553399085999	
6	70.7329580783844	movie	1		244	4.0	2.5	/experiments/AOT/AOT_stimuli/rescaled_final/0705_fw.mp4	0.0	98.96129202842712	2.508352041244507
6	72.32442212104797	pulse	1	t		4.0	2.5	/experiments/AOT/AOT_stimuli/rescaled_final/0705_fw.mp4	0.0	100.5527560710907	
6	73.2413101196289	fix_post	2		12	4.0	2.5	/experiments/AOT/AOT_stimuli/rescaled_final/0705_fw.mp4	0.0	101.46964406967163	0.09995293617248535
7	73.34126305580139	fix_pre	0		120	5.0	2.5	blank	1.0	101.56959700584412	1.000025987625122
7	73.91724514961243	pulse	0	t		5.0	2.5	blank	1.0	102.14557909965515	
7	74.34128904342651	movie	1		300	5.0	2.5	blank	1.0	102.56962299346924	2.499983072280884
7	75.5172472000122	pulse	1	t		5.0	2.5	blank	1.0	103.74558115005493	
7	76.8412721157074	fix_post	2		12	5.0	2.5	blank	1.0	105.06960606575012	0.09997200965881348
8	76.94124412536621	fix_pre	0		120	6.0	2.5	/experiments/AOT/AOT_stimuli/rescaled_final/1826_fw.mp4	0.0	105.16957807540894	0.9999818801879883
8	77.1170961856842	pulse	0	t		6.0	2.5	/experiments/AOT/AOT_stimuli/rescaled_final/1826_fw.mp4	0.0	105.34543013572693	
8	77.9412260055542	movie	1		244	6.0	2.5	/experiments/AOT/AOT_stimuli/rescaled_final/1826_fw.mp4	0.0	106.16955995559692	2.5000250339508057
8	78.71734714508057	pulse	1	t		6.0	2.5	/experiments/AOT/AOT_stimuli/rescaled_final/1826_fw.mp4	0.0	106.94568109512329	
8	80.3232409954071	pulse	1	t		6.0	2.5	/experiments/AOT/AOT_stimuli/rescaled_final/1826_fw.mp4	0.0	108.55157494544983	
8	80.441251039505	fix_post	2		12	6.0	2.5	/experiments/AOT/AOT_stimuli/rescaled_final/1826_fw.mp4	0.0	108.66958498954773	0.09963202476501465
9	80.54088306427002	fix_pre	0		120	7.0	2.5	/experiments/AOT/AOT_stimuli/rescaled_final/1577_rv.mp4	0.0	108.76921701431274	1.000319004058838
9	81.54120206832886	movie	1		243	7.0	2.5	/experiments/AOT/AOT_stimuli/rescaled_final/1577_rv.mp4	0.0	109.76953601837158	2.5000650882720947
9	81.92572402954102	pulse	1	t		7.0	2.5	/experiments/AOT/AOT_stimuli/rescaled_final/1577_rv.mp4	0.0	110.15405797958374	
9	83.52465009689331	pulse	1	t		7.0	2.5	/experiments/AOT/AOT_stimuli/rescaled_final/1577_rv.mp4	0.0	111.75298404693604	
9	84.04126715660095	fix_post	2		12	7.0	2.5	/experiments/AOT/AOT_stimuli/rescaled_final/1577_rv.mp4	0.0	112.26960110664368	0.09989094734191895
10	84.14115810394287	fix_pre	0		119	8.0	2.5	/experiments/AOT/AOT_stimuli/rescaled_final/1685_fw.mp4	0.0	112.3694920539856	0.9917409420013428
10	85.12485599517822	pulse	0	t		8.0	2.5	/experiments/AOT/AOT_stimuli/rescaled_final/1685_fw.mp4	0.0	113.35318994522095	
10	85.13289904594421	movie	1		246	8.0	2.5	/experiments/AOT/AOT_stimuli/rescaled_final/1685_fw.mp4	0.0	113.36123299598694	2.5082039833068848
10	86.72424006462097	pulse	1	t		8.0	2.5	/experiments/AOT/AOT_stimuli/rescaled_final/1685_fw.mp4	0.0	114.9525740146637	
10	87.6411030292511	fix_post	2		12	8.0	2.5	/experiments/AOT/AOT_stimuli/rescaled_final/1685_fw.mp4	0.0	115.86943697929382	0.10016417503356934
11	87.74126720428467	fix_pre	0		120	9.0	2.5	/experiments/AOT/AOT_stimuli/rescaled_final/1115_rv.mp4	0.0	115.96960115432739	0.9994959831237793
11	88.32423400878906	pulse	0	t		9.0	2.5	/experiments/AOT/AOT_stimuli/rescaled_final/1115_rv.mp4	0.0	116.55256795883179	
11	88.74076318740845	movie	1		243	9.0	2.5	/experiments/AOT/AOT_stimuli/rescaled_final/1115_rv.mp4	0.0	116.96909713745117	2.500356912612915
11	89.92445421218872	pulse	1	t		9.0	2.5	/experiments/AOT/AOT_stimuli/rescaled_final/1115_rv.mp4	0.0	118.15278816223145	
11	91.24112010002136	fix_post	2		12	9.0	2.5	/experiments/AOT/AOT_stimuli/rescaled_final/1115_rv.mp4	0.0	119.46945405006409	0.10036492347717285
12	91.34148502349854	fix_pre	0		120	10.0	2.5	/experiments/AOT/AOT_stimuli/rescaled_final/1826_rv.mp4	0.0	119.56981897354126	0.9997801780700684
12	91.51714015007019	pulse	0	t		10.0	2.5	/experiments/AOT/AOT_stimuli/rescaled_final/1826_rv.mp4	0.0	119.74547410011292	
12	92.3412652015686	movie	1		244	10.0	2.5	/experiments/AOT/AOT_stimuli/rescaled_final/1826_rv.mp4	0.0	120.56959915161133	2.4994728565216064
12	93.11712718009949	pulse	1	t		10.0	2.5	/experiments/AOT/AOT_stimuli/rescaled_final/1826_rv.mp4	0.0	121.34546113014221	
12	94.72494602203369	pulse	1	t		10.0	2.5	/experiments/AOT/AOT_stimuli/rescaled_final/1826_rv.mp4	0.0	122.95327997207642	
12	94.84073805809021	fix_post	2		12	10.0	2.5	/experiments/AOT/AOT_stimuli/rescaled_final/1826_rv.mp4	0.0	123.06907200813293	0.10040807723999023
13	94.9411461353302	fix_pre	0		120	11.0	2.5	/experiments/AOT/AOT_stimuli/rescaled_final/1906_rv.mp4	0.0	123.16948008537292	0.9999539852142334
13	95.94110012054443	movie	1		247	11.0	2.5	/experiments/AOT/AOT_stimuli/rescaled_final/1906_rv.mp4	0.0	124.16943407058716	2.5000340938568115
13	96.32454514503479	pulse	1	t		11.0	2.5	/experiments/AOT/AOT_stimuli/rescaled_final/1906_rv.mp4	0.0	124.55287909507751	
13	97.91732406616211	pulse	1	t		11.0	2.5	/experiments/AOT/AOT_stimuli/rescaled_final/1906_rv.mp4	0.0	126.14565801620483	
13	98.44113421440125	fix_post	2		12	11.0	2.5	/experiments/AOT/AOT_stimuli/rescaled_final/1906_rv.mp4	0.0	126.66946816444397	0.09991788864135742
14	98.5410521030426	fix_pre	0		119	12.0	2.5	blank	1.0	126.76938605308533	0.9917519092559814
14	99.52463603019714	pulse	0	t		12.0	2.5	blank	1.0	127.75296998023987	
14	99.53280401229858	movie	1		301	12.0	2.5	blank	1.0	127.76113796234131	2.5082430839538574
14	101.12455916404724	pulse	1	t		12.0	2.5	blank	1.0	129.35289311408997	
14	102.04104709625244	fix_post	2		12	12.0	2.5	blank	1.0	130.26938104629517	0.10003995895385742
15	102.1410870552063	fix_pre	0		120	13.0	2.5	/experiments/AOT/AOT_stimuli/rescaled_final/1623_rv.mp4	0.0	130.36942100524902	0.9999470710754395
15	102.72461104393005	pulse	0	t		13.0	2.5	/experiments/AOT/AOT_stimuli/rescaled_final/1623_rv.mp4	0.0	130.95294499397278	
15	103.14103412628174	movie	1		246	13.0	2.5	/experiments/AOT/AOT_stimuli/rescaled_final/1623_rv.mp4	0.0	131.36936807632446	2.4995548725128174
15	104.32463121414185	pulse	1	t		13.0	2.5	/experiments/AOT/AOT_stimuli/rescaled_final/1623_rv.mp4	0.0	132.55296516418457	
15	105.64058899879456	fix_post	2		12	13.0	2.5	/experiments/AOT/AOT_stimuli/rescaled_final/1623_rv.mp4	0.0	133.86892294883728	0.10048317909240723
16	105.74107217788696	fix_pre	0		120	14.0	2.5	/experiments/AOT/AOT_stimuli/rescaled_final/0358_fw.mp4	0.0	133.9694061279297	0.9999430179595947
16	105.92456912994385	pulse	0	t		14.0	2.5	/experiments/AOT/AOT_stimuli/rescaled_final/0358_fw.mp4	0.0	134.15290307998657	
16	106.74101519584656	movie	1		244	14.0	2.5	/experiments/AOT/AOT_stimuli/rescaled_final/0358_fw.mp4	0.0	134.96934914588928	2.4996209144592285
16	107.51710605621338	pulse	1	t		14.0	2.5	/experiments/AOT/AOT_stimuli/rescaled_final/0358_fw.mp4	0.0	135.7454400062561	
16	109.1230080127716	pulse	1	t		14.0	2.5	/experiments/AOT/AOT_stimuli/rescaled_final/0358_fw.mp4	0.0	137.35134196281433	
16	109.24063611030579	fix_post	2		12	14.0	2.5	/experiments/AOT/AOT_stimuli/rescaled_final/0358_fw.mp4	0.0	137.4689700603485	0.10042691230773926
17	109.34106302261353	fix_pre	0		120	15.0	2.5	/experiments/AOT/AOT_stimuli/rescaled_final/0684_rv.mp4	0.0	137.56939697265625	0.9999840259552002
17	110.34104704856873	movie	1		243	15.0	2.5	/experiments/AOT/AOT_stimuli/rescaled_final/0684_rv.mp4	0.0	138.56938099861145	2.4996161460876465
17	110.72430610656738	pulse	1	t		15.0	2.5	/experiments/AOT/AOT_stimuli/rescaled_final/0684_rv.mp4	0.0	138.9526400566101	
17	112.31712007522583	pulse	1	t		15.0	2.5	/experiments/AOT/AOT_stimuli/rescaled_final/0684_rv.mp4	0.0	140.54545402526855	
17	112.84066319465637	fix_post	2		12	15.0	2.5	/experiments/AOT/AOT_stimuli/rescaled_final/0684_rv.mp4	0.0	141.0689971446991	0.10033893585205078
18	112.94100213050842	fix_pre	0		119	16.0	2.5	/experiments/AOT/AOT_stimuli/rescaled_final/0509_fw.mp4	0.0	141.16933608055115	0.9916849136352539
18	113.91696119308472	pulse	0	t		16.0	2.5	/experiments/AOT/AOT_stimuli/rescaled_final/0509_fw.mp4	0.0	142.14529514312744	
18	113.93268704414368	movie	1		246	16.0	2.5	/experiments/AOT/AOT_stimuli/rescaled_final/0509_fw.mp4	0.0	142.1610209941864	2.5083060264587402
18	115.52423000335693	pulse	1	t		16.0	2.5	/experiments/AOT/AOT_stimuli/rescaled_final/0509_fw.mp4	0.0	143.75256395339966	
18	116.44099307060242	fix_post	2		12	16.0	2.5	/experiments/AOT/AOT_stimuli/rescaled_final/0509_fw.mp4	0.0	144.66932702064514	0.10004115104675293
19	116.54103422164917	fix_pre	0		120	17.0	2.5	/experiments/AOT/AOT_stimuli/rescaled_final/1244_fw.mp4	0.0	144.7693681716919	0.9999539852142334
19	117.11754012107849	pulse	0	t		17.0	2.5	/experiments/AOT/AOT_stimuli/rescaled_final/1244_fw.mp4	0.0	145.34587407112122	
19	117.5409882068634	movie	1		244	17.0	2.5	/experiments/AOT/AOT_stimuli/rescaled_final/1244_fw.mp4	0.0	145.76932215690613	2.4999959468841553
19	118.72459721565247	pulse	1	t		17.0	2.5	/experiments/AOT/AOT_stimuli/rescaled_final/1244_fw.mp4	0.0	146.9529311656952	
19	120.04098415374756	fix_post	2		12	17.0	2.5	/experiments/AOT/AOT_stimuli/rescaled_final/1244_fw.mp4	0.0	148.26931810379028	0.10005307197570801
20	120.14103722572327	fix_pre	0		120	18.0	2.5	/experiments/AOT/AOT_stimuli/rescaled_final/0276_fw.mp4	0.0	148.369371175766	0.9999737739562988
20	120.32449913024902	pulse	0	t		18.0	2.5	/experiments/AOT/AOT_stimuli/rescaled_final/0276_fw.mp4	0.0	148.55283308029175	
20	121.14101099967957	movie	1		243	18.0	2.5	/experiments/AOT/AOT_stimuli/rescaled_final/0276_fw.mp4	0.0	149.3693449497223	2.5000391006469727
20	121.92447113990784	pulse	1	t		18.0	2.5	/experiments/AOT/AOT_stimuli/rescaled_final/0276_fw.mp4	0.0	150.15280508995056	
20	123.52283310890198	pulse	1	t		18.0	2.5	/experiments/AOT/AOT_stimuli/rescaled_final/0276_fw.mp4	0.0	151.7511670589447	
20	123.64105010032654	fix_post	2		12	18.0	2.5	/experiments/AOT/AOT_stimuli/rescaled_final/0276_fw.mp4	0.0	151.86938405036926	0.0999600887298584
21	123.7410101890564	fix_pre	0		120	19.0	2.5	blank	1.0	151.96934413909912	0.9999909400939941
21	124.74100112915039	movie	1		300	19.0	2.5	blank	1.0	152.96933507919312	2.5000319480895996
21	125.11700320243835	pulse	1	t		19.0	2.5	blank	1.0	153.34533715248108	
21	126.71690917015076	pulse	1	t		19.0	2.5	blank	1.0	154.94524312019348	
21	127.24103307723999	fix_post	2		12	19.0	2.5	blank	1.0	155.46936702728271	0.09993505477905273
22	127.34096813201904	fix_pre	0		119	20.0	2.5	/experiments/AOT/AOT_stimuli/rescaled_final/1823_fw.mp4	0.0	155.56930208206177	0.9916338920593262
22	128.31698203086853	pulse	0	t		20.0	2.5	/experiments/AOT/AOT_stimuli/rescaled_final/1823_fw.mp4	0.0	156.54531598091125	
22	128.33260202407837	movie	1		247	20.0	2.5	/experiments/AOT/AOT_stimuli/rescaled_final/1823_fw.mp4	0.0	156.5609359741211	2.5083789825439453
22	129.92417407035828	pulse	1	t		20.0	2.5	/experiments/AOT/AOT_stimuli/rescaled_final/1823_fw.mp4	0.0	158.152508020401	
22	130.84098100662231	fix_post	2		12	20.0	2.5	/experiments/AOT/AOT_stimuli/rescaled_final/1823_fw.mp4	0.0	159.06931495666504	0.09996914863586426
23	130.94095015525818	fix_pre	0		120	21.0	2.5	/experiments/AOT/AOT_stimuli/rescaled_final/0699_fw.mp4	0.0	159.1692841053009	1.000032901763916
23	131.52443718910217	pulse	0	t		21.0	2.5	/experiments/AOT/AOT_stimuli/rescaled_final/0699_fw.mp4	0.0	159.7527711391449	
23	131.9409830570221	movie	1		245	21.0	2.5	/experiments/AOT/AOT_stimuli/rescaled_final/0699_fw.mp4	0.0	160.16931700706482	2.4999279975891113
23	133.1244921684265	pulse	1	t		21.0	2.5	/experiments/AOT/AOT_stimuli/rescaled_final/0699_fw.mp4	0.0	161.35282611846924	
23	134.4409110546112	fix_post	2		12	21.0	2.5	/experiments/AOT/AOT_stimuli/rescaled_final/0699_fw.mp4	0.0	162.66924500465393	0.10004806518554688
24	134.54095911979675	fix_pre	0		120	22.0	2.5	/experiments/AOT/AOT_stimuli/rescaled_final/1058_rv.mp4	0.0	162.76929306983948	0.9999990463256836
24	134.72448420524597	pulse	0	t		22.0	2.5	/experiments/AOT/AOT_stimuli/rescaled_final/1058_rv.mp4	0.0	162.9528181552887	
24	135.54095816612244	movie	1		243	22.0	2.5	/experiments/AOT/AOT_stimuli/rescaled_final/1058_rv.mp4	0.0	163.76929211616516	2.499948024749756
24	136.3245952129364	pulse	1	t		22.0	2.5	/experiments/AOT/AOT_stimuli/rescaled_final/1058_rv.mp4	0.0	164.55292916297913	
24	137.9230601787567	pulse	1	t		22.0	2.5	/experiments/AOT/AOT_stimuli/rescaled_final/1058_rv.mp4	0.0	166.15139412879944	
24	138.0409061908722	fix_post	2		12	22.0	2.5	/experiments/AOT/AOT_stimuli/rescaled_final/1058_rv.mp4	0.0	166.26924014091492	0.10001587867736816
25	138.14092206954956	fix_pre	0		120	23.0	2.5	/experiments/AOT/AOT_stimuli/rescaled_final/0795_rv.mp4	0.0	166.36925601959229	1.0000131130218506
25	139.1409351825714	movie	1		244	23.0	2.5	/experiments/AOT/AOT_stimuli/rescaled_final/0795_rv.mp4	0.0	167.36926913261414	2.4999589920043945
25	139.52576804161072	pulse	1	t		23.0	2.5	/experiments/AOT/AOT_stimuli/rescaled_final/0795_rv.mp4	0.0	167.75410199165344	
25	141.1170530319214	pulse	1	t		23.0	2.5	/experiments/AOT/AOT_stimuli/rescaled_final/0795_rv.mp4	0.0	169.3453869819641	
25	141.6408941745758	fix_post	2		12	23.0	2.5	/experiments/AOT/AOT_stimuli/rescaled_final/0795_rv.mp4	0.0	169.86922812461853	0.10013890266418457
26	141.74103307724	fix_pre	0		119	24.0	2.5	/experiments/AOT/AOT_stimuli/rescaled_final/1974_rv.mp4	0.0	169.96936702728271	0.9915640354156494
26	142.71682906150818	pulse	0	t		24.0	2.5	/experiments/AOT/AOT_stimuli/rescaled_final/1974_rv.mp4	0.0	170.9451630115509	
26	142.73259711265564	movie	1		246	24.0	2.5	/experiments/AOT/AOT_stimuli/rescaled_final/1974_rv.mp4	0.0	170.96093106269836	2.5079660415649414
26	144.32388615608215	pulse	1	t		24.0	2.5	/experiments/AOT/AOT_stimuli/rescaled_final/1974_rv.mp4	0.0	172.55222010612488	
26	145.24056315422058	fix_post	2		12	24.0	2.5	/experiments/AOT/AOT_stimuli/rescaled_final/1974_rv.mp4	0.0	173.4688971042633	0.10044598579406738
27	145.34100914001465	fix_pre	0		120	25.0	2.5	/experiments/AOT/AOT_stimuli/rescaled_final/0699_rv.mp4	0.0	173.56934309005737	1.000114917755127
27	145.92461013793945	pulse	0	t		25.0	2.5	/experiments/AOT/AOT_stimuli/rescaled_final/0699_rv.mp4	0.0	174.15294408798218	
27	146.34112405776978	movie	1		244	25.0	2.5	/experiments/AOT/AOT_stimuli/rescaled_final/0699_rv.mp4	0.0	174.5694580078125	2.4997291564941406
27	147.52458500862122	pulse	1	t		25.0	2.5	/experiments/AOT/AOT_stimuli/rescaled_final/0699_rv.mp4	0.0	175.75291895866394	
27	148.84085321426392	fix_post	2		12	25.0	2.5	/experiments/AOT/AOT_stimuli/rescaled_final/0699_rv.mp4	0.0	177.06918716430664	0.10003495216369629
28	148.9408881664276	fix_pre	0		120	26.0	2.5	/experiments/AOT/AOT_stimuli/rescaled_final/1108_fw.mp4	0.0	177.16922211647034	1.000058889389038
28	149.12442803382874	pulse	0	t		26.0	2.5	/experiments/AOT/AOT_stimuli/rescaled_final/1108_fw.mp4	0.0	177.35276198387146	
28	149.94094705581665	movie	1		244	26.0	2.5	/experiments/AOT/AOT_stimuli/rescaled_final/1108_fw.mp4	0.0	178.16928100585938	2.4999630451202393
28	150.72437620162964	pulse	1	t		26.0	2.5	/experiments/AOT/AOT_stimuli/rescaled_final/1108_fw.mp4	0.0	178.95271015167236	
28	152.32257914543152	pulse	1	t		26.0	2.5	/experiments/AOT/AOT_stimuli/rescaled_final/1108_fw.mp4	0.0	180.55091309547424	
28	152.4409101009369	fix_post	2		12	26.0	2.5	/experiments/AOT/AOT_stimuli/rescaled_final/1108_fw.mp4	0.0	180.66924405097961	0.09996390342712402
29	152.540874004364	fix_pre	0		120	27.0	2.5	/experiments/AOT/AOT_stimuli/rescaled_final/1347_rv.mp4	0.0	180.76920795440674	0.9999740123748779
29	153.5408480167389	movie	1		247	27.0	2.5	/experiments/AOT/AOT_stimuli/rescaled_final/1347_rv.mp4	0.0	181.76918196678162	2.499958038330078
29	153.9239730834961	pulse	1	t		27.0	2.5	/experiments/AOT/AOT_stimuli/rescaled_final/1347_rv.mp4	0.0	182.15230703353882	
29	155.52440810203552	pulse	1	t		27.0	2.5	/experiments/AOT/AOT_stimuli/rescaled_final/1347_rv.mp4	0.0	183.75274205207825	
29	156.04080605506897	fix_post	2		12	27.0	2.5	/experiments/AOT/AOT_stimuli/rescaled_final/1347_rv.mp4	0.0	184.2691400051117	0.10001897811889648
30	156.14082503318787	fix_pre	0		119	28.0	2.5	blank	1.0	184.3691589832306	0.9917221069335938
30	157.11689519882202	pulse	0	t		28.0	2.5	blank	1.0	185.34522914886475	
30	157.13254714012146	movie	1		301	28.0	2.5	blank	1.0	185.36088109016418	2.508341073989868
30	158.72440814971924	pulse	1	t		28.0	2.5	blank	1.0	186.95274209976196	
30	159.64088821411133	fix_post	2		12	28.0	2.5	blank	1.0	187.86922216415405	0.09992480278015137
31	159.74081301689148	fix_pre	0		120	29.0	2.5	/experiments/AOT/AOT_stimuli/rescaled_final/0721_rv.mp4	0.0	187.9691469669342	1.0000190734863281
31	160.31688714027405	pulse	0	t		29.0	2.5	/experiments/AOT/AOT_stimuli/rescaled_final/0721_rv.mp4	0.0	188.54522109031677	
31	160.7408320903778	movie	1		244	29.0	2.5	/experiments/AOT/AOT_stimuli/rescaled_final/0721_rv.mp4	0.0	188.96916604042053	2.5000369548797607
31	161.92437410354614	pulse	1	t		29.0	2.5	/experiments/AOT/AOT_stimuli/rescaled_final/0721_rv.mp4	0.0	190.15270805358887	
31	163.24086904525757	fix_post	2		12	29.0	2.5	/experiments/AOT/AOT_stimuli/rescaled_final/0721_rv.mp4	0.0	191.4692029953003	0.10003805160522461
32	163.3409070968628	fix_pre	0		120	30.0	2.5	/experiments/AOT/AOT_stimuli/rescaled_final/1685_fw.mp4	0.0	191.56924104690552	0.9999380111694336
32	163.52432417869568	pulse	0	t		30.0	2.5	/experiments/AOT/AOT_stimuli/rescaled_final/1685_fw.mp4	0.0	191.7526581287384	
32	164.34084510803223	movie	1		244	30.0	2.5	/experiments/AOT/AOT_stimuli/rescaled_final/1685_fw.mp4	0.0	192.56917905807495	2.4999589920043945
32	165.12425112724304	pulse	1	t		30.0	2.5	/experiments/AOT/AOT_stimuli/rescaled_final/1685_fw.mp4	0.0	193.35258507728577	
32	166.72244215011597	pulse	1	t		30.0	2.5	/experiments/AOT/AOT_stimuli/rescaled_final/1685_fw.mp4	0.0	194.9507761001587	
32	166.84080410003662	fix_post	2		12	30.0	2.5	/experiments/AOT/AOT_stimuli/rescaled_final/1685_fw.mp4	0.0	195.06913805007935	0.09990501403808594
33	166.9407091140747	fix_pre	0		120	31.0	2.5	/experiments/AOT/AOT_stimuli/rescaled_final/1490_fw.mp4	0.0	195.16904306411743	1.000108003616333
33	167.94081711769104	movie	1		243	31.0	2.5	/experiments/AOT/AOT_stimuli/rescaled_final/1490_fw.mp4	0.0	196.16915106773376	2.5000860691070557
33	168.32384514808655	pulse	1	t		31.0	2.5	/experiments/AOT/AOT_stimuli/rescaled_final/1490_fw.mp4	0.0	196.55217909812927	
33	169.92423820495605	pulse	1	t		31.0	2.5	/experiments/AOT/AOT_stimuli/rescaled_final/1490_fw.mp4	0.0	198.15257215499878	
33	170.4409031867981	fix_post	2		12	31.0	2.5	/experiments/AOT/AOT_stimuli/rescaled_final/1490_fw.mp4	0.0	198.66923713684082	0.09985899925231934
34	170.54076218605042	fix_pre	0		119	32.0	2.5	/experiments/AOT/AOT_stimuli/rescaled_final/1279_rv.mp4	0.0	198.76909613609314	0.9916279315948486
34	171.5242531299591	pulse	0	t		32.0	2.5	/experiments/AOT/AOT_stimuli/rescaled_final/1279_rv.mp4	0.0	199.75258708000183	
34	171.53239011764526	movie	1		244	32.0	2.5	/experiments/AOT/AOT_stimuli/rescaled_final/1279_rv.mp4	0.0	199.760724067688	2.508301019668579
34	173.12438011169434	pulse	1	t		32.0	2.5	/experiments/AOT/AOT_stimuli/rescaled_final/1279_rv.mp4	0.0	201.35271406173706	
34	174.04069113731384	fix_post	2		12	32.0	2.5	/experiments/AOT/AOT_stimuli/rescaled_final/1279_rv.mp4	0.0	202.26902508735657	0.1000969409942627
35	174.1407880783081	fix_pre	0		120	33.0	2.5	blank	1.0	202.36912202835083	0.9999039173126221
35	174.7242021560669	pulse	0	t		33.0	2.5	blank	1.0	202.95253610610962	
35	175.14069199562073	movie	1		300	33.0	2.5	blank	1.0	203.36902594566345	2.500101089477539
35	176.32420802116394	pulse	1	t		33.0	2.5	blank	1.0	204.55254197120667	
35	177.64079308509827	fix_post	2		12	33.0	2.5	blank	1.0	205.869127035141	0.09993100166320801
36	177.74072408676147	fix_pre	0		120	34.0	2.5	/experiments/AOT/AOT_stimuli/rescaled_final/1135_fw.mp4	0.0	205.9690580368042	1.0002899169921875
36	177.92421412467957	pulse	0	t		34.0	2.5	/experiments/AOT/AOT_stimuli/rescaled_final/1135_fw.mp4	0.0	206.1525480747223	
36	178.74101400375366	movie	1		245	34.0	2.5	/experiments/AOT/AOT_stimuli/rescaled_final/1135_fw.mp4	0.0	206.9693479537964	2.499699115753174
36	179.52417421340942	pulse	1	t		34.0	2.5	/experiments/AOT/AOT_stimuli/rescaled_final/1135_fw.mp4	0.0	207.75250816345215	
36	181.122789144516	pulse	1	t		34.0	2.5	/experiments/AOT/AOT_stimuli/rescaled_final/1135_fw.mp4	0.0	209.35112309455872	
36	181.24071311950684	fix_post	2		12	34.0	2.5	/experiments/AOT/AOT_stimuli/rescaled_final/1135_fw.mp4	0.0	209.46904706954956	0.09999990463256836
37	181.3407130241394	fix_pre	0		120	35.0	2.5	/experiments/AOT/AOT_stimuli/rescaled_final/1823_rv.mp4	0.0	209.56904697418213	1.0000550746917725
37	182.34076809883118	movie	1		245	35.0	2.5	/experiments/AOT/AOT_stimuli/rescaled_final/1823_rv.mp4	0.0	210.5691020488739	2.5000391006469727
37	182.72375917434692	pulse	1	t		35.0	2.5	/experiments/AOT/AOT_stimuli/rescaled_final/1823_rv.mp4	0.0	210.95209312438965	
37	184.32422709465027	pulse	1	t		35.0	2.5	/experiments/AOT/AOT_stimuli/rescaled_final/1823_rv.mp4	0.0	212.552561044693	
37	184.84080719947815	fix_post	2		12	35.0	2.5	/experiments/AOT/AOT_stimuli/rescaled_final/1823_rv.mp4	0.0	213.06914114952087	0.09986090660095215
38	184.9406681060791	fix_pre	0		119	36.0	2.5	/experiments/AOT/AOT_stimuli/rescaled_final/0595_rv.mp4	0.0	213.16900205612183	0.991663932800293
38	185.9242880344391	pulse	0	t		36.0	2.5	/experiments/AOT/AOT_stimuli/rescaled_final/0595_rv.mp4	0.0	214.1526219844818	
38	185.9323320388794	movie	1		242	36.0	2.5	/experiments/AOT/AOT_stimuli/rescaled_final/0595_rv.mp4	0.0	214.16066598892212	2.5084261894226074
38	187.52510809898376	pulse	1	t		36.0	2.5	/experiments/AOT/AOT_stimuli/rescaled_final/0595_rv.mp4	0.0	215.7534420490265	
38	188.440758228302	fix_post	2		12	36.0	2.5	/experiments/AOT/AOT_stimuli/rescaled_final/0595_rv.mp4	0.0	216.66909217834473	0.09990596771240234
39	188.5406641960144	fix_pre	0		120	37.0	2.5	/experiments/AOT/AOT_stimuli/rescaled_final/0706_fw.mp4	0.0	216.76899814605713	1.0000908374786377
39	189.12419199943542	pulse	0	t		37.0	2.5	/experiments/AOT/AOT_stimuli/rescaled_final/0706_fw.mp4	0.0	217.35252594947815	
39	189.54075503349304	movie	1		245	37.0	2.5	/experiments/AOT/AOT_stimuli/rescaled_final/0706_fw.mp4	0.0	217.76908898353577	2.4999430179595947
39	190.7170422077179	pulse	1	t		37.0	2.5	/experiments/AOT/AOT_stimuli/rescaled_final/0706_fw.mp4	0.0	218.94537615776062	
39	192.04069805145264	fix_post	2		12	37.0	2.5	/experiments/AOT/AOT_stimuli/rescaled_final/0706_fw.mp4	0.0	220.26903200149536	0.10001802444458008
40	192.14071607589722	fix_pre	0		120	38.0	2.5	/experiments/AOT/AOT_stimuli/rescaled_final/0056_fw.mp4	0.0	220.36905002593994	1.0000200271606445
40	192.3240921497345	pulse	0	t		38.0	2.5	/experiments/AOT/AOT_stimuli/rescaled_final/0056_fw.mp4	0.0	220.55242609977722	
40	193.14073610305786	movie	1		243	38.0	2.5	/experiments/AOT/AOT_stimuli/rescaled_final/0056_fw.mp4	0.0	221.3690700531006	2.499866008758545
40	193.92408418655396	pulse	1	t		38.0	2.5	/experiments/AOT/AOT_stimuli/rescaled_final/0056_fw.mp4	0.0	222.15241813659668	
40	195.5203640460968	pulse	1	t		38.0	2.5	/experiments/AOT/AOT_stimuli/rescaled_final/0056_fw.mp4	0.0	223.74869799613953	
40	195.6406021118164	fix_post	2		12	38.0	2.5	/experiments/AOT/AOT_stimuli/rescaled_final/0056_fw.mp4	0.0	223.86893606185913	0.10010409355163574
41	195.74070620536804	fix_pre	0		120	39.0	2.5	/experiments/AOT/AOT_stimuli/rescaled_final/0201_rv.mp4	0.0	223.96904015541077	0.9999949932098389
41	196.74070119857788	movie	1		245	39.0	2.5	/experiments/AOT/AOT_stimuli/rescaled_final/0201_rv.mp4	0.0	224.9690351486206	2.499506950378418
41	197.12510204315186	pulse	1	t		39.0	2.5	/experiments/AOT/AOT_stimuli/rescaled_final/0201_rv.mp4	0.0	225.35343599319458	
41	198.72412514686584	pulse	1	t		39.0	2.5	/experiments/AOT/AOT_stimuli/rescaled_final/0201_rv.mp4	0.0	226.95245909690857	
41	199.2402081489563	fix_post	2		12	39.0	2.5	/experiments/AOT/AOT_stimuli/rescaled_final/0201_rv.mp4	0.0	227.46854209899902	0.10049986839294434
42	199.34070801734924	fix_pre	0		119	40.0	2.5	/experiments/AOT/AOT_stimuli/rescaled_final/0677_fw.mp4	0.0	227.56904196739197	0.991657018661499
42	200.32387614250183	pulse	0	t		40.0	2.5	/experiments/AOT/AOT_stimuli/rescaled_final/0677_fw.mp4	0.0	228.55221009254456	
42	200.33236503601074	movie	1		246	40.0	2.5	/experiments/AOT/AOT_stimuli/rescaled_final/0677_fw.mp4	0.0	228.56069898605347	2.5082881450653076
42	201.9242331981659	pulse	1	t		40.0	2.5	/experiments/AOT/AOT_stimuli/rescaled_final/0677_fw.mp4	0.0	230.15256714820862	
42	202.84065318107605	fix_post	2		12	40.0	2.5	/experiments/AOT/AOT_stimuli/rescaled_final/0677_fw.mp4	0.0	231.06898713111877	0.1000058650970459
43	202.9406590461731	fix_pre	0		120	41.0	2.5	/experiments/AOT/AOT_stimuli/rescaled_final/1780_fw.mp4	0.0	231.16899299621582	1.0000309944152832
43	203.5241620540619	pulse	0	t		41.0	2.5	/experiments/AOT/AOT_stimuli/rescaled_final/1780_fw.mp4	0.0	231.75249600410461	
43	203.94069004058838	movie	1		246	41.0	2.5	/experiments/AOT/AOT_stimuli/rescaled_final/1780_fw.mp4	0.0	232.1690239906311	2.5000221729278564
43	205.12417817115784	pulse	1	t		41.0	2.5	/experiments/AOT/AOT_stimuli/rescaled_final/1780_fw.mp4	0.0	233.35251212120056	
43	206.44071221351624	fix_post	2		12	41.0	2.5	/experiments/AOT/AOT_stimuli/rescaled_final/1780_fw.mp4	0.0	234.66904616355896	0.09989500045776367
44	206.540607213974	fix_pre	0		120	42.0	2.5	blank	1.0	234.76894116401672	1.0001378059387207
44	206.72404313087463	pulse	0	t		42.0	2.5	blank	1.0	234.95237708091736	
44	207.54074501991272	movie	1		300	42.0	2.5	blank	1.0	235.76907896995544	2.499819040298462
44	208.3240191936493	pulse	1	t		42.0	2.5	blank	1.0	236.55235314369202	
44	209.92413711547852	pulse	1	t		42.0	2.5	blank	1.0	238.15247106552124	
44	210.04056406021118	fix_post	2		12	42.0	2.5	blank	1.0	238.2688980102539	0.09995102882385254
45	210.14051508903503	fix_pre	0		120	43.0	2.5	/experiments/AOT/AOT_stimuli/rescaled_final/1717_rv.mp4	0.0	238.36884903907776	1.0000391006469727
45	211.140554189682	movie	1		244	43.0	2.5	/experiments/AOT/AOT_stimuli/rescaled_final/1717_rv.mp4	0.0	239.36888813972473	2.500005006790161
45	211.52372002601624	pulse	1	t		43.0	2.5	/experiments/AOT/AOT_stimuli/rescaled_final/1717_rv.mp4	0.0	239.75205397605896	
45	213.12410020828247	pulse	1	t		43.0	2.5	/experiments/AOT/AOT_stimuli/rescaled_final/1717_rv.mp4	0.0	241.3524341583252	
45	213.64055919647217	fix_post	2		12	43.0	2.5	/experiments/AOT/AOT_stimuli/rescaled_final/1717_rv.mp4	0.0	241.8688931465149	0.09999990463256836
46	213.74055910110474	fix_pre	0		119	44.0	2.5	/experiments/AOT/AOT_stimuli/rescaled_final/0567_fw.mp4	0.0	241.96889305114746	0.9916379451751709
46	214.72408413887024	pulse	0	t		44.0	2.5	/experiments/AOT/AOT_stimuli/rescaled_final/0567_fw.mp4	0.0	242.95241808891296	
46	214.7321970462799	movie	1		245	44.0	2.5	/experiments/AOT/AOT_stimuli/rescaled_final/0567_fw.mp4	0.0	242.96053099632263	2.5084049701690674
46	216.32361912727356	pulse	1	t		44.0	2.5	/experiments/AOT/AOT_stimuli/rescaled_final/0567_fw.mp4	0.0	244.55195307731628	
46	217.24060201644897	fix_post	2		12	44.0	2.5	/experiments/AOT/AOT_stimuli/rescaled_final/0567_fw.mp4	0.0	245.4689359664917	0.0999290943145752
47	217.34053111076355	fix_pre	0		120	45.0	2.5	/experiments/AOT/AOT_stimuli/rescaled_final/1956_fw.mp4	0.0	245.56886506080627	0.9999840259552002
47	217.92411303520203	pulse	0	t		45.0	2.5	/experiments/AOT/AOT_stimuli/rescaled_final/1956_fw.mp4	0.0	246.15244698524475	
47	218.34051513671875	movie	1		244	45.0	2.5	/experiments/AOT/AOT_stimuli/rescaled_final/1956_fw.mp4	0.0	246.56884908676147	2.5000360012054443
47	219.52419114112854	pulse	1	t		45.0	2.5	/experiments/AOT/AOT_stimuli/rescaled_final/1956_fw.mp4	0.0	247.75252509117126	
47	220.8405511379242	fix_post	2		12	45.0	2.5	/experiments/AOT/AOT_stimuli/rescaled_final/1956_fw.mp4	0.0	249.06888508796692	0.1000208854675293
48	220.94057202339172	fix_pre	0		120	46.0	2.5	/experiments/AOT/AOT_stimuli/rescaled_final/0778_rv.mp4	0.0	249.16890597343445	1.0000410079956055
48	221.12411212921143	pulse	0	t		46.0	2.5	/experiments/AOT/AOT_stimuli/rescaled_final/0778_rv.mp4	0.0	249.35244607925415	
48	221.94061303138733	movie	1		244	46.0	2.5	/experiments/AOT/AOT_stimuli/rescaled_final/0778_rv.mp4	0.0	250.16894698143005	2.4999191761016846
48	222.7240650653839	pulse	1	t		46.0	2.5	/experiments/AOT/AOT_stimuli/rescaled_final/0778_rv.mp4	0.0	250.95239901542664	
48	224.32264018058777	pulse	1	t		46.0	2.5	/experiments/AOT/AOT_stimuli/rescaled_final/0778_rv.mp4	0.0	252.5509741306305	
48	224.440532207489	fix_post	2		12	46.0	2.5	/experiments/AOT/AOT_stimuli/rescaled_final/0778_rv.mp4	0.0	252.66886615753174	0.09999394416809082
49	224.5405261516571	fix_pre	0		120	47.0	2.5	/experiments/AOT/AOT_stimuli/rescaled_final/1913_rv.mp4	0.0	252.76886010169983	1.0000510215759277
49	225.54057717323303	movie	1		245	47.0	2.5	/experiments/AOT/AOT_stimuli/rescaled_final/1913_rv.mp4	0.0	253.76891112327576	2.499966859817505
49	225.92371320724487	pulse	1	t		47.0	2.5	/experiments/AOT/AOT_stimuli/rescaled_final/1913_rv.mp4	0.0	254.1520471572876	
49	227.52406406402588	pulse	1	t		47.0	2.5	/experiments/AOT/AOT_stimuli/rescaled_final/1913_rv.mp4	0.0	255.7523980140686	
49	228.04054403305054	fix_post	2		12	47.0	2.5	/experiments/AOT/AOT_stimuli/rescaled_final/1913_rv.mp4	0.0	256.26887798309326	0.09992814064025879
50	228.1404721736908	fix_pre	0		119	48.0	2.5	blank	1.0	256.3688061237335	0.9916548728942871
50	229.12398505210876	pulse	0	t		48.0	2.5	blank	1.0	257.3523190021515	
50	229.13212704658508	movie	1		300	48.0	2.5	blank	1.0	257.3604609966278	2.50832200050354
50	230.72403621673584	pulse	1	t		48.0	2.5	blank	1.0	258.95237016677856	
50	231.64044904708862	fix_post	2		12	48.0	2.5	blank	1.0	259.86878299713135	0.10007309913635254
51	231.74052214622498	fix_pre	0		120	49.0	2.5	/experiments/AOT/AOT_stimuli/rescaled_final/1060_rv.mp4	0.0	259.9688560962677	0.9999868869781494
51	232.32393312454224	pulse	0	t		49.0	2.5	/experiments/AOT/AOT_stimuli/rescaled_final/1060_rv.mp4	0.0	260.55226707458496	
51	232.74050903320312	movie	1		244	49.0	2.5	/experiments/AOT/AOT_stimuli/rescaled_final/1060_rv.mp4	0.0	260.96884298324585	2.4998700618743896
51	233.92402410507202	pulse	1	t		49.0	2.5	/experiments/AOT/AOT_stimuli/rescaled_final/1060_rv.mp4	0.0	262.15235805511475	
51	235.24037909507751	fix_post	2		12	49.0	2.5	/experiments/AOT/AOT_stimuli/rescaled_final/1060_rv.mp4	0.0	263.46871304512024	0.10001611709594727
52	235.34039521217346	fix_pre	0		120	50.0	2.5	/experiments/AOT/AOT_stimuli/rescaled_final/0581_fw.mp4	0.0	263.5687291622162	1.0000967979431152
52	235.52395510673523	pulse	0	t		50.0	2.5	/experiments/AOT/AOT_stimuli/rescaled_final/0581_fw.mp4	0.0	263.75228905677795	
52	236.34049201011658	movie	1		243	50.0	2.5	/experiments/AOT/AOT_stimuli/rescaled_final/0581_fw.mp4	0.0	264.5688259601593	2.5000081062316895
52	237.12399005889893	pulse	1	t		50.0	2.5	/experiments/AOT/AOT_stimuli/rescaled_final/0581_fw.mp4	0.0	265.35232400894165	
52	238.7224202156067	pulse	1	t		50.0	2.5	/experiments/AOT/AOT_stimuli/rescaled_final/0581_fw.mp4	0.0	266.9507541656494	
52	238.84050011634827	fix_post	2		12	50.0	2.5	/experiments/AOT/AOT_stimuli/rescaled_final/0581_fw.mp4	0.0	267.068834066391	0.09999489784240723
53	238.94049501419067	fix_pre	0		120	51.0	2.5	/experiments/AOT/AOT_stimuli/rescaled_final/1519_rv.mp4	0.0	267.1688289642334	0.9999279975891113
53	239.94042301177979	movie	1		244	51.0	2.5	/experiments/AOT/AOT_stimuli/rescaled_final/1519_rv.mp4	0.0	268.1687569618225	2.500070095062256
53	240.32342100143433	pulse	1	t		51.0	2.5	/experiments/AOT/AOT_stimuli/rescaled_final/1519_rv.mp4	0.0	268.55175495147705	
53	241.92382502555847	pulse	1	t		51.0	2.5	/experiments/AOT/AOT_stimuli/rescaled_final/1519_rv.mp4	0.0	270.1521589756012	
53	242.44049310684204	fix_post	2		12	51.0	2.5	/experiments/AOT/AOT_stimuli/rescaled_final/1519_rv.mp4	0.0	270.66882705688477	0.09991788864135742
54	242.5404109954834	fix_pre	0		119	52.0	2.5	/experiments/AOT/AOT_stimuli/rescaled_final/0784_rv.mp4	0.0	270.7687449455261	0.9917380809783936
54	243.52389001846313	pulse	0	t		52.0	2.5	/experiments/AOT/AOT_stimuli/rescaled_final/0784_rv.mp4	0.0	271.75222396850586	
54	243.5321490764618	movie	1		245	52.0	2.5	/experiments/AOT/AOT_stimuli/rescaled_final/0784_rv.mp4	0.0	271.7604830265045	2.5083069801330566
54	245.12366914749146	pulse	1	t		52.0	2.5	/experiments/AOT/AOT_stimuli/rescaled_final/0784_rv.mp4	0.0	273.3520030975342	
54	246.04045605659485	fix_post	2		12	52.0	2.5	/experiments/AOT/AOT_stimuli/rescaled_final/0784_rv.mp4	0.0	274.2687900066376	0.09991598129272461
55	246.14037203788757	fix_pre	0		120	53.0	2.5	/experiments/AOT/AOT_stimuli/rescaled_final/1242_fw.mp4	0.0	274.3687059879303	1.0000810623168945
55	246.7238450050354	pulse	0	t		53.0	2.5	/experiments/AOT/AOT_stimuli/rescaled_final/1242_fw.mp4	0.0	274.9521789550781	
55	247.14045310020447	movie	1		244	53.0	2.5	/experiments/AOT/AOT_stimuli/rescaled_final/1242_fw.mp4	0.0	275.3687870502472	2.499885082244873
55	248.3239941596985	pulse	1	t		53.0	2.5	/experiments/AOT/AOT_stimuli/rescaled_final/1242_fw.mp4	0.0	276.5523281097412	
55	249.64033818244934	fix_post	2		12	53.0	2.5	/experiments/AOT/AOT_stimuli/rescaled_final/1242_fw.mp4	0.0	277.86867213249207	0.10006403923034668
56	249.7404022216797	fix_pre	0		120	54.0	2.5	/experiments/AOT/AOT_stimuli/rescaled_final/1114_rv.mp4	0.0	277.9687361717224	0.9999709129333496
56	249.9239580631256	pulse	0	t		54.0	2.5	/experiments/AOT/AOT_stimuli/rescaled_final/1114_rv.mp4	0.0	278.15229201316833	
56	250.74037313461304	movie	1		243	54.0	2.5	/experiments/AOT/AOT_stimuli/rescaled_final/1114_rv.mp4	0.0	278.96870708465576	2.5000500679016113
56	251.5239062309265	pulse	1	t		54.0	2.5	/experiments/AOT/AOT_stimuli/rescaled_final/1114_rv.mp4	0.0	279.75224018096924	
56	253.12219214439392	pulse	1	t		54.0	2.5	/experiments/AOT/AOT_stimuli/rescaled_final/1114_rv.mp4	0.0	281.35052609443665	
56	253.24042320251465	fix_post	2		12	54.0	2.5	/experiments/AOT/AOT_stimuli/rescaled_final/1114_rv.mp4	0.0	281.4687571525574	0.09996891021728516
57	253.34039211273193	fix_pre	0		120	55.0	2.5	blank	1.0	281.56872606277466	1.0000100135803223
57	254.34040212631226	movie	1		300	55.0	2.5	blank	1.0	282.568736076355	2.5000510215759277
57	254.72389101982117	pulse	1	t		55.0	2.5	blank	1.0	282.9522249698639	
57	256.32388520240784	pulse	1	t		55.0	2.5	blank	1.0	284.55221915245056	
57	256.8404531478882	fix_post	2		12	55.0	2.5	blank	1.0	285.0687870979309	0.09958004951477051
58	256.94003319740295	fix_pre	0		119	56.0	2.5	/experiments/AOT/AOT_stimuli/rescaled_final/1210_rv.mp4	0.0	285.1683671474457	0.9922208786010742
58	257.92366123199463	pulse	0	t		56.0	2.5	/experiments/AOT/AOT_stimuli/rescaled_final/1210_rv.mp4	0.0	286.15199518203735	
58	257.932254076004	movie	1		244	56.0	2.5	/experiments/AOT/AOT_stimuli/rescaled_final/1210_rv.mp4	0.0	286.16058802604675	2.5081300735473633
58	259.5234441757202	pulse	1	t		56.0	2.5	/experiments/AOT/AOT_stimuli/rescaled_final/1210_rv.mp4	0.0	287.75177812576294	
58	260.4403841495514	fix_post	2		12	56.0	2.5	/experiments/AOT/AOT_stimuli/rescaled_final/1210_rv.mp4	0.0	288.6687180995941	0.09996294975280762
59	260.5403470993042	fix_pre	0		120	57.0	2.5	/experiments/AOT/AOT_stimuli/rescaled_final/2166_fw.mp4	0.0	288.7686810493469	1.000006914138794
59	261.1238830089569	pulse	0	t		57.0	2.5	/experiments/AOT/AOT_stimuli/rescaled_final/2166_fw.mp4	0.0	289.35221695899963	
59	261.540354013443	movie	1		247	57.0	2.5	/experiments/AOT/AOT_stimuli/rescaled_final/2166_fw.mp4	0.0	289.7686879634857	2.4999091625213623
59	262.723904132843	pulse	1	t		57.0	2.5	/experiments/AOT/AOT_stimuli/rescaled_final/2166_fw.mp4	0.0	290.95223808288574	
59	264.04026317596436	fix_post	2		12	57.0	2.5	/experiments/AOT/AOT_stimuli/rescaled_final/2166_fw.mp4	0.0	292.2685971260071	0.09999990463256836
60	264.1402630805969	fix_pre	0		120	58.0	2.5	/experiments/AOT/AOT_stimuli/rescaled_final/0283_rv.mp4	0.0	292.36859703063965	1.000046968460083
60	264.3237910270691	pulse	0	t		58.0	2.5	/experiments/AOT/AOT_stimuli/rescaled_final/0283_rv.mp4	0.0	292.5521249771118	
60	265.140310049057	movie	1		246	58.0	2.5	/experiments/AOT/AOT_stimuli/rescaled_final/0283_rv.mp4	0.0	293.36864399909973	2.500056028366089
60	265.92379212379456	pulse	1	t		58.0	2.5	/experiments/AOT/AOT_stimuli/rescaled_final/0283_rv.mp4	0.0	294.1521260738373	
60	267.52233719825745	pulse	1	t		58.0	2.5	/experiments/AOT/AOT_stimuli/rescaled_final/0283_rv.mp4	0.0	295.75067114830017	
60	267.6403660774231	fix_post	2		12	58.0	2.5	/experiments/AOT/AOT_stimuli/rescaled_final/0283_rv.mp4	0.0	295.8687000274658	0.09988808631896973
61	267.74025416374207	fix_pre	0		120	59.0	2.5	/experiments/AOT/AOT_stimuli/rescaled_final/2155_fw.mp4	0.0	295.9685881137848	1.0001318454742432
61	268.7403860092163	movie	1		246	59.0	2.5	/experiments/AOT/AOT_stimuli/rescaled_final/2155_fw.mp4	0.0	296.96871995925903	2.4999821186065674
61	269.12306118011475	pulse	1	t		59.0	2.5	/experiments/AOT/AOT_stimuli/rescaled_final/2155_fw.mp4	0.0	297.35139513015747	
61	270.7237341403961	pulse	1	t		59.0	2.5	/experiments/AOT/AOT_stimuli/rescaled_final/2155_fw.mp4	0.0	298.95206809043884	
61	271.2403681278229	fix_post	2		12	59.0	2.5	/experiments/AOT/AOT_stimuli/rescaled_final/2155_fw.mp4	0.0	299.4687020778656	0.10006308555603027
62	271.3404312133789	fix_pre	0		119	60.0	2.5	/experiments/AOT/AOT_stimuli/rescaled_final/2085_fw.mp4	0.0	299.56876516342163	0.9915299415588379
62	272.3238151073456	pulse	0	t		60.0	2.5	/experiments/AOT/AOT_stimuli/rescaled_final/2085_fw.mp4	0.0	300.5521490573883	
62	272.33196115493774	movie	1		245	60.0	2.5	/experiments/AOT/AOT_stimuli/rescaled_final/2085_fw.mp4	0.0	300.56029510498047	2.5083670616149902
62	273.92389702796936	pulse	1	t		60.0	2.5	/experiments/AOT/AOT_stimuli/rescaled_final/2085_fw.mp4	0.0	302.1522309780121	
62	274.84032821655273	fix_post	2		12	60.0	2.5	/experiments/AOT/AOT_stimuli/rescaled_final/2085_fw.mp4	0.0	303.06866216659546	0.09997391700744629
63	274.9403021335602	fix_pre	0		120	61.0	2.5	blank	1.0	303.1686360836029	1.0000500679016113
63	275.5237991809845	pulse	0	t		61.0	2.5	blank	1.0	303.7521331310272	
63	275.9403522014618	movie	1		300	61.0	2.5	blank	1.0	304.1686861515045	2.4999349117279053
63	277.12382221221924	pulse	1	t		61.0	2.5	blank	1.0	305.35215616226196	
63	278.4402871131897	fix_post	2		12	61.0	2.5	blank	1.0	306.6686210632324	0.09998798370361328
64	278.5402750968933	fix_pre	0		120	62.0	2.5	/experiments/AOT/AOT_stimuli/rescaled_final/1959_fw.mp4	0.0	306.76860904693604	1.0000360012054443
64	278.7238030433655	pulse	0	t		62.0	2.5	/experiments/AOT/AOT_stimuli/rescaled_final/1959_fw.mp4	0.0	306.9521369934082	
64	279.54031109809875	movie	1		243	62.0	2.5	/experiments/AOT/AOT_stimuli/rescaled_final/1959_fw.mp4	0.0	307.7686450481415	2.499994993209839
64	280.3237450122833	pulse	1	t		62.0	2.5	/experiments/AOT/AOT_stimuli/rescaled_final/1959_fw.mp4	0.0	308.55207896232605	
64	281.92221307754517	pulse	1	t		62.0	2.5	/experiments/AOT/AOT_stimuli/rescaled_final/1959_fw.mp4	0.0	310.1505470275879	
64	282.0403060913086	fix_post	2		12	62.0	2.5	/experiments/AOT/AOT_stimuli/rescaled_final/1959_fw.mp4	0.0	310.2686400413513	0.09987902641296387
65	282.14018511772156	fix_pre	0		120	63.0	2.5	/experiments/AOT/AOT_stimuli/rescaled_final/1191_rv.mp4	0.0	310.3685190677643	1.000093936920166
65	283.1402790546417	movie	1		248	63.0	2.5	/experiments/AOT/AOT_stimuli/rescaled_final/1191_rv.mp4	0.0	311.36861300468445	2.49991512298584
65	283.5238571166992	pulse	1	t		63.0	2.5	/experiments/AOT/AOT_stimuli/rescaled_final/1191_rv.mp4	0.0	311.75219106674194	
65	285.12374114990234	pulse	1	t		63.0	2.5	/experiments/AOT/AOT_stimuli/rescaled_final/1191_rv.mp4	0.0	313.35207509994507	
65	285.64019417762756	fix_post	2		12	63.0	2.5	/experiments/AOT/AOT_stimuli/rescaled_final/1191_rv.mp4	0.0	313.8685281276703	0.10003805160522461
66	285.7402322292328	fix_pre	0		119	64.0	2.5	/experiments/AOT/AOT_stimuli/rescaled_final/1827_fw.mp4	0.0	313.9685661792755	0.9916229248046875
66	286.72375202178955	pulse	0	t		64.0	2.5	/experiments/AOT/AOT_stimuli/rescaled_final/1827_fw.mp4	0.0	314.9520859718323	
66	286.7318551540375	movie	1		247	64.0	2.5	/experiments/AOT/AOT_stimuli/rescaled_final/1827_fw.mp4	0.0	314.9601891040802	2.5082778930664062
66	288.323890209198	pulse	1	t		64.0	2.5	/experiments/AOT/AOT_stimuli/rescaled_final/1827_fw.mp4	0.0	316.5522241592407	
66	289.2401330471039	fix_post	2		12	64.0	2.5	/experiments/AOT/AOT_stimuli/rescaled_final/1827_fw.mp4	0.0	317.4684669971466	0.10005617141723633
67	289.3401892185211	fix_pre	0		120	65.0	2.5	/experiments/AOT/AOT_stimuli/rescaled_final/2058_fw.mp4	0.0	317.56852316856384	0.999992847442627
67	289.92371010780334	pulse	0	t		65.0	2.5	/experiments/AOT/AOT_stimuli/rescaled_final/2058_fw.mp4	0.0	318.15204405784607	
67	290.34018206596375	movie	1		245	65.0	2.5	/experiments/AOT/AOT_stimuli/rescaled_final/2058_fw.mp4	0.0	318.56851601600647	2.500007152557373
67	291.52377009391785	pulse	1	t		65.0	2.5	/experiments/AOT/AOT_stimuli/rescaled_final/2058_fw.mp4	0.0	319.75210404396057	
67	292.8401892185211	fix_post	2		12	65.0	2.5	/experiments/AOT/AOT_stimuli/rescaled_final/2058_fw.mp4	0.0	321.06852316856384	0.10001683235168457
68	292.9402060508728	fix_pre	0		120	66.0	2.5	/experiments/AOT/AOT_stimuli/rescaled_final/0201_fw.mp4	0.0	321.1685400009155	0.9999711513519287
68	293.1237621307373	pulse	0	t		66.0	2.5	/experiments/AOT/AOT_stimuli/rescaled_final/0201_fw.mp4	0.0	321.35209608078003	
68	293.94017720222473	movie	1		246	66.0	2.5	/experiments/AOT/AOT_stimuli/rescaled_final/0201_fw.mp4	0.0	322.16851115226746	2.500053882598877
68	294.72368001937866	pulse	1	t		66.0	2.5	/experiments/AOT/AOT_stimuli/rescaled_final/0201_fw.mp4	0.0	322.9520139694214	
68	296.322368144989	pulse	1	t		66.0	2.5	/experiments/AOT/AOT_stimuli/rescaled_final/0201_fw.mp4	0.0	324.55070209503174	
68	296.4402310848236	fix_post	2		12	66.0	2.5	/experiments/AOT/AOT_stimuli/rescaled_final/0201_fw.mp4	0.0	324.66856503486633	0.10005497932434082
69	296.54028606414795	fix_pre	0		120	67.0	2.5	/experiments/AOT/AOT_stimuli/rescaled_final/1401_rv.mp4	0.0	324.7686200141907	0.9998631477355957
69	297.54014921188354	movie	1		244	67.0	2.5	/experiments/AOT/AOT_stimuli/rescaled_final/1401_rv.mp4	0.0	325.76848316192627	2.5001368522644043
69	297.92336106300354	pulse	1	t		67.0	2.5	/experiments/AOT/AOT_stimuli/rescaled_final/1401_rv.mp4	0.0	326.15169501304626	
69	299.52373123168945	pulse	1	t		67.0	2.5	/experiments/AOT/AOT_stimuli/rescaled_final/1401_rv.mp4	0.0	327.7520651817322	
69	300.04028606414795	fix_post	2		12	67.0	2.5	/experiments/AOT/AOT_stimuli/rescaled_final/1401_rv.mp4	0.0	328.2686200141907	0.09987115859985352
70	300.1401572227478	fix_pre	0		119	68.0	2.5	/experiments/AOT/AOT_stimuli/rescaled_final/0277_rv.mp4	0.0	328.3684911727905	0.9917337894439697
70	301.12363719940186	pulse	0	t		68.0	2.5	/experiments/AOT/AOT_stimuli/rescaled_final/0277_rv.mp4	0.0	329.3519711494446	
70	301.1318910121918	movie	1		244	68.0	2.5	/experiments/AOT/AOT_stimuli/rescaled_final/0277_rv.mp4	0.0	329.3602249622345	2.5082390308380127
70	302.7234802246094	pulse	1	t		68.0	2.5	/experiments/AOT/AOT_stimuli/rescaled_final/0277_rv.mp4	0.0	330.9518141746521	
70	303.6401300430298	fix_post	2		12	68.0	2.5	/experiments/AOT/AOT_stimuli/rescaled_final/0277_rv.mp4	0.0	331.8684639930725	0.09999704360961914
71	303.7401270866394	fix_pre	0		120	69.0	2.5	blank	1.0	331.96846103668213	1.0000720024108887
71	304.32362604141235	pulse	0	t		69.0	2.5	blank	1.0	332.5519599914551	
71	304.7401990890503	movie	1		300	69.0	2.5	blank	1.0	332.968533039093	2.500006914138794
71	305.9236271381378	pulse	1	t		69.0	2.5	blank	1.0	334.15196108818054	
71	307.2402060031891	fix_post	2		12	69.0	2.5	blank	1.0	335.4685399532318	0.09995222091674805
72	307.34015822410583	fix_pre	0		120	70.0	2.5	/experiments/AOT/AOT_stimuli/rescaled_final/1279_fw.mp4	0.0	335.56849217414856	0.9999668598175049
72	307.5235900878906	pulse	0	t		70.0	2.5	/experiments/AOT/AOT_stimuli/rescaled_final/1279_fw.mp4	0.0	335.75192403793335	
72	308.34012508392334	movie	1		244	70.0	2.5	/experiments/AOT/AOT_stimuli/rescaled_final/1279_fw.mp4	0.0	336.56845903396606	2.5000789165496826
72	309.12379217147827	pulse	1	t		70.0	2.5	/experiments/AOT/AOT_stimuli/rescaled_final/1279_fw.mp4	0.0	337.352126121521	
72	310.72231101989746	pulse	1	t		70.0	2.5	/experiments/AOT/AOT_stimuli/rescaled_final/1279_fw.mp4	0.0	338.9506449699402	
72	310.840204000473	fix_post	2		12	70.0	2.5	/experiments/AOT/AOT_stimuli/rescaled_final/1279_fw.mp4	0.0	339.06853795051575	0.09996509552001953
73	310.94016909599304	fix_pre	0		120	71.0	2.5	/experiments/AOT/AOT_stimuli/rescaled_final/1283_rv.mp4	0.0	339.16850304603577	0.999553918838501
73	311.93972301483154	movie	1		242	71.0	2.5	/experiments/AOT/AOT_stimuli/rescaled_final/1283_rv.mp4	0.0	340.16805696487427	2.5007541179656982
73	312.32318019866943	pulse	1	t		71.0	2.5	/experiments/AOT/AOT_stimuli/rescaled_final/1283_rv.mp4	0.0	340.55151414871216	
73	313.92379117012024	pulse	1	t		71.0	2.5	/experiments/AOT/AOT_stimuli/rescaled_final/1283_rv.mp4	0.0	342.15212512016296	
73	314.44047713279724	fix_post	2		12	71.0	2.5	/experiments/AOT/AOT_stimuli/rescaled_final/1283_rv.mp4	0.0	342.66881108283997	0.09960794448852539
74	314.54008507728577	fix_pre	0		119	72.0	2.5	/experiments/AOT/AOT_stimuli/rescaled_final/2142_rv.mp4	0.0	342.7684190273285	0.991718053817749
74	315.52360105514526	pulse	0	t		72.0	2.5	/experiments/AOT/AOT_stimuli/rescaled_final/2142_rv.mp4	0.0	343.751935005188	
74	315.5318031311035	movie	1		245	72.0	2.5	/experiments/AOT/AOT_stimuli/rescaled_final/2142_rv.mp4	0.0	343.76013708114624	2.508296012878418
74	317.123309135437	pulse	1	t		72.0	2.5	/experiments/AOT/AOT_stimuli/rescaled_final/2142_rv.mp4	0.0	345.35164308547974	
74	318.04009914398193	fix_post	2		12	72.0	2.5	/experiments/AOT/AOT_stimuli/rescaled_final/2142_rv.mp4	0.0	346.26843309402466	0.09999299049377441
75	318.1400921344757	fix_pre	0		120	73.0	2.5	/experiments/AOT/AOT_stimuli/rescaled_final/0651_rv.mp4	0.0	346.36842608451843	1.0000438690185547
75	318.7236981391907	pulse	0	t		73.0	2.5	/experiments/AOT/AOT_stimuli/rescaled_final/0651_rv.mp4	0.0	346.9520320892334	
75	319.14013600349426	movie	1		245	73.0	2.5	/experiments/AOT/AOT_stimuli/rescaled_final/0651_rv.mp4	0.0	347.368469953537	2.4999210834503174
75	320.3236310482025	pulse	1	t		73.0	2.5	/experiments/AOT/AOT_stimuli/rescaled_final/0651_rv.mp4	0.0	348.55196499824524	
75	321.6400570869446	fix_post	2		12	73.0	2.5	/experiments/AOT/AOT_stimuli/rescaled_final/0651_rv.mp4	0.0	349.8683910369873	0.1000211238861084
76	321.7400782108307	fix_pre	0		120	74.0	2.5	/experiments/AOT/AOT_stimuli/rescaled_final/1184_fw.mp4	0.0	349.9684121608734	0.9999818801879883
76	321.9235761165619	pulse	0	t		74.0	2.5	/experiments/AOT/AOT_stimuli/rescaled_final/1184_fw.mp4	0.0	350.1519100666046	
76	322.7400600910187	movie	1		243	74.0	2.5	/experiments/AOT/AOT_stimuli/rescaled_final/1184_fw.mp4	0.0	350.9683940410614	2.49993896484375
76	323.52349519729614	pulse	1	t		74.0	2.5	/experiments/AOT/AOT_stimuli/rescaled_final/1184_fw.mp4	0.0	351.75182914733887	
76	325.1221179962158	pulse	1	t		74.0	2.5	/experiments/AOT/AOT_stimuli/rescaled_final/1184_fw.mp4	0.0	353.35045194625854	
76	325.2399990558624	fix_post	2		12	74.0	2.5	/experiments/AOT/AOT_stimuli/rescaled_final/1184_fw.mp4	0.0	353.46833300590515	0.09998798370361328
77	325.33998703956604	fix_pre	0		120	75.0	2.5	/experiments/AOT/AOT_stimuli/rescaled_final/1577_rv.mp4	0.0	353.56832098960876	1.000020980834961
77	326.340008020401	movie	1		243	75.0	2.5	/experiments/AOT/AOT_stimuli/rescaled_final/1577_rv.mp4	0.0	354.5683419704437	2.499969005584717
77	326.7231411933899	pulse	1	t		75.0	2.5	/experiments/AOT/AOT_stimuli/rescaled_final/1577_rv.mp4	0.0	354.9514751434326	
77	328.32344603538513	pulse	1	t		75.0	2.5	/experiments/AOT/AOT_stimuli/rescaled_final/1577_rv.mp4	0.0	356.55177998542786	
77	328.8399770259857	fix_post	2		12	75.0	2.5	/experiments/AOT/AOT_stimuli/rescaled_final/1577_rv.mp4	0.0	357.06831097602844	0.10003805160522461
78	328.94001507759094	fix_pre	0		119	76.0	2.5	blank	1.0	357.16834902763367	0.9916391372680664
78	329.9235541820526	pulse	0	t		76.0	2.5	blank	1.0	358.15188813209534	
78	329.931654214859	movie	1		301	76.0	2.5	blank	1.0	358.15998816490173	2.50833797454834
78	331.5236120223999	pulse	1	t		76.0	2.5	blank	1.0	359.7519459724426	
78	332.43999218940735	fix_post	2		12	76.0	2.5	blank	1.0	360.6683261394501	0.1000208854675293
79	332.5400130748749	fix_pre	0		120	77.0	2.5	/experiments/AOT/AOT_stimuli/rescaled_final/1319_rv.mp4	0.0	360.7683470249176	0.9999971389770508
79	333.12348914146423	pulse	0	t		77.0	2.5	/experiments/AOT/AOT_stimuli/rescaled_final/1319_rv.mp4	0.0	361.35182309150696	
79	333.54001021385193	movie	1		246	77.0	2.5	/experiments/AOT/AOT_stimuli/rescaled_final/1319_rv.mp4	0.0	361.76834416389465	2.499985933303833
79	334.7236850261688	pulse	1	t		77.0	2.5	/experiments/AOT/AOT_stimuli/rescaled_final/1319_rv.mp4	0.0	362.95201897621155	
79	336.03999614715576	fix_post	2		12	77.0	2.5	/experiments/AOT/AOT_stimuli/rescaled_final/1319_rv.mp4	0.0	364.2683300971985	0.10001802444458008
80	336.14001417160034	fix_pre	0		120	78.0	2.5	/experiments/AOT/AOT_stimuli/rescaled_final/0739_rv.mp4	0.0	364.36834812164307	0.9999580383300781
80	336.3234350681305	pulse	0	t		78.0	2.5	/experiments/AOT/AOT_stimuli/rescaled_final/0739_rv.mp4	0.0	364.5517690181732	
80	337.1399722099304	movie	1		246	78.0	2.5	/experiments/AOT/AOT_stimuli/rescaled_final/0739_rv.mp4	0.0	365.36830615997314	2.499912977218628
80	337.9234850406647	pulse	1	t		78.0	2.5	/experiments/AOT/AOT_stimuli/rescaled_final/0739_rv.mp4	0.0	366.1518189907074	
80	339.52196621894836	pulse	1	t		78.0	2.5	/experiments/AOT/AOT_stimuli/rescaled_final/0739_rv.mp4	0.0	367.7503001689911	
80	339.63988518714905	fix_post	2		12	78.0	2.5	/experiments/AOT/AOT_stimuli/rescaled_final/0739_rv.mp4	0.0	367.8682191371918	0.10000300407409668
81	339.73988819122314	fix_pre	0		120	79.0	2.5	/experiments/AOT/AOT_stimuli/rescaled_final/1052_fw.mp4	0.0	367.96822214126587	1.0001130104064941
81	340.74000120162964	movie	1		244	79.0	2.5	/experiments/AOT/AOT_stimuli/rescaled_final/1052_fw.mp4	0.0	368.96833515167236	2.4999120235443115
81	341.12306904792786	pulse	1	t		79.0	2.5	/experiments/AOT/AOT_stimuli/rescaled_final/1052_fw.mp4	0.0	369.3514029979706	
81	342.72347617149353	pulse	1	t		79.0	2.5	/experiments/AOT/AOT_stimuli/rescaled_final/1052_fw.mp4	0.0	370.95181012153625	
81	343.23991322517395	fix_post	2		12	79.0	2.5	/experiments/AOT/AOT_stimuli/rescaled_final/1052_fw.mp4	0.0	371.4682471752167	0.10004687309265137
82	343.3399600982666	fix_pre	0		119	80.0	2.5	/experiments/AOT/AOT_stimuli/rescaled_final/1415_fw.mp4	0.0	371.5682940483093	0.9917271137237549
82	344.3234341144562	pulse	0	t		80.0	2.5	/experiments/AOT/AOT_stimuli/rescaled_final/1415_fw.mp4	0.0	372.5517680644989	
82	344.33168721199036	movie	1		244	80.0	2.5	/experiments/AOT/AOT_stimuli/rescaled_final/1415_fw.mp4	0.0	372.5600211620331	2.5082027912139893
82	345.9233810901642	pulse	1	t		80.0	2.5	/experiments/AOT/AOT_stimuli/rescaled_final/1415_fw.mp4	0.0	374.1517150402069	
82	346.83989000320435	fix_post	2		12	80.0	2.5	/experiments/AOT/AOT_stimuli/rescaled_final/1415_fw.mp4	0.0	375.06822395324707	0.10004520416259766
83	346.93993520736694	fix_pre	0		120	81.0	2.5	/experiments/AOT/AOT_stimuli/rescaled_final/1271_fw.mp4	0.0	375.16826915740967	1.0000269412994385
83	347.52357506752014	pulse	0	t		81.0	2.5	/experiments/AOT/AOT_stimuli/rescaled_final/1271_fw.mp4	0.0	375.75190901756287	
83	347.9399621486664	movie	1		244	81.0	2.5	/experiments/AOT/AOT_stimuli/rescaled_final/1271_fw.mp4	0.0	376.1682960987091	2.499948024749756
83	349.12346720695496	pulse	1	t		81.0	2.5	/experiments/AOT/AOT_stimuli/rescaled_final/1271_fw.mp4	0.0	377.3518011569977	
83	350.43991017341614	fix_post	2		12	81.0	2.5	/experiments/AOT/AOT_stimuli/rescaled_final/1271_fw.mp4	0.0	378.66824412345886	0.09997987747192383
84	350.53989005088806	fix_pre	0		120	82.0	2.5	blank	1.0	378.7682240009308	1.0000059604644775
84	350.7234151363373	pulse	0	t		82.0	2.5	blank	1.0	378.95174908638	
84	351.53989601135254	movie	1		300	82.0	2.5	blank	1.0	379.76822996139526	2.500033140182495
84	352.32340002059937	pulse	1	t		82.0	2.5	blank	1.0	380.5517339706421	
84	353.92335414886475	pulse	1	t		82.0	2.5	blank	1.0	382.15168809890747	
84	354.03992915153503	fix_post	2		12	82.0	2.5	blank	1.0	382.26826310157776	0.09999585151672363
85	354.13992500305176	fix_pre	0		120	83.0	2.5	/experiments/AOT/AOT_stimuli/rescaled_final/0598_rv.mp4	0.0	382.3682589530945	1.0000121593475342
85	355.1399371623993	movie	1		247	83.0	2.5	/experiments/AOT/AOT_stimuli/rescaled_final/0598_rv.mp4	0.0	383.368271112442	2.4999539852142334
85	355.5241801738739	pulse	1	t		83.0	2.5	/experiments/AOT/AOT_stimuli/rescaled_final/0598_rv.mp4	0.0	383.7525141239166	
85	357.12341117858887	pulse	1	t		83.0	2.5	/experiments/AOT/AOT_stimuli/rescaled_final/0598_rv.mp4	0.0	385.3517451286316	
85	357.6398911476135	fix_post	2		12	83.0	2.5	/experiments/AOT/AOT_stimuli/rescaled_final/0598_rv.mp4	0.0	385.86822509765625	0.10006594657897949
87	357.7399570941925	stim	0		1716					385.96829104423523	14.299932956695557
87	358.7234311103821	pulse	0	t						386.9517650604248	
87	360.3233060836792	pulse	0	t						388.5516400337219	
87	361.9233431816101	pulse	0	t						390.15167713165283	
87	363.52350306510925	pulse	0	t						391.751837015152	
87	365.12328004837036	pulse	0	t						393.3516139984131	
87	366.72332406044006	pulse	0	t						394.9516580104828	
87	368.32334208488464	pulse	0	t						396.55167603492737	
87	369.9235951900482	pulse	0	t						398.15192914009094	
87	371.5232951641083	pulse	0	t						399.751629114151	
