trial_nr	onset	event_type	phase	response	nr_frames	movie_index	movie_duration	movie_file	blank	onset_abs	duration
0	0.14165377616882324	stim	0		20					16.793192625045776	0.16654515266418457
0	0.3000926971435547	response	0	space						16.951631546020508	
1	0.3081989288330078	stim	0		4697					16.95973777770996	39.159093618392944
1	39.457115173339844	pulse	0	t						56.1086540222168	
1	39.46729254722595	stim	1		1716					56.118831396102905	14.307334184646606
1	41.048033237457275	pulse	1	t						57.69957208633423	
1	42.64103364944458	pulse	1	t						59.29257249832153	
1	44.240532636642456	pulse	1	t						60.89207148551941	
1	45.84086489677429	pulse	1	t						62.492403745651245	
1	47.44096612930298	pulse	1	t						64.09250497817993	
1	49.040735483169556	pulse	1	t						65.69227433204651	
1	50.64119100570679	pulse	1	t						67.29272985458374	
1	52.241233110427856	pulse	1	t						68.89277195930481	
2	53.77462673187256	fix_pre	0		9	0.0	2.5	/experiments/Knapen_AOT/AOT_stimuli/rescaled_final/1646_fw.mp4	0.0	70.42616558074951	0.09173846244812012
2	53.84151601791382	pulse	0	t		0.0	2.5	/experiments/Knapen_AOT/AOT_stimuli/rescaled_final/1646_fw.mp4	0.0	70.49305486679077	
2	53.86636519432068	movie	1		289	0.0	2.5	/experiments/Knapen_AOT/AOT_stimuli/rescaled_final/1646_fw.mp4	0.0	70.51790404319763	2.4919631481170654
2	55.44181418418884	pulse	1	t		0.0	2.5	/experiments/Knapen_AOT/AOT_stimuli/rescaled_final/1646_fw.mp4	0.0	72.0933530330658	
2	56.358328342437744	fix_post	2		12	0.0	2.5	/experiments/Knapen_AOT/AOT_stimuli/rescaled_final/1646_fw.mp4	0.0	73.0098671913147	0.10019326210021973
3	56.458521604537964	fix_pre	0		120	1.0	2.5	/experiments/Knapen_AOT/AOT_stimuli/rescaled_final/0776_fw.mp4	0.0	73.11006045341492	1.0083308219909668
3	57.042072057724	pulse	0	t		1.0	2.5	/experiments/Knapen_AOT/AOT_stimuli/rescaled_final/0776_fw.mp4	0.0	73.69361090660095	
3	57.46685242652893	movie	1		295	1.0	2.5	/experiments/Knapen_AOT/AOT_stimuli/rescaled_final/0776_fw.mp4	0.0	74.11839127540588	2.492021083831787
3	58.642292737960815	pulse	1	t		1.0	2.5	/experiments/Knapen_AOT/AOT_stimuli/rescaled_final/0776_fw.mp4	0.0	75.29383158683777	
3	59.95887351036072	fix_post	2		12	1.0	2.5	/experiments/Knapen_AOT/AOT_stimuli/rescaled_final/0776_fw.mp4	0.0	76.61041235923767	0.10002255439758301
4	60.0588960647583	fix_pre	0		120	2.0	2.5	/experiments/Knapen_AOT/AOT_stimuli/rescaled_final/1262_fw.mp4	0.0	76.71043491363525	1.0085701942443848
4	60.24248504638672	pulse	0	t		2.0	2.5	/experiments/Knapen_AOT/AOT_stimuli/rescaled_final/1262_fw.mp4	0.0	76.89402389526367	
4	61.067466259002686	movie	1		292	2.0	2.5	/experiments/Knapen_AOT/AOT_stimuli/rescaled_final/1262_fw.mp4	0.0	77.71900510787964	2.4919419288635254
4	61.840900897979736	pulse	1	t		2.0	2.5	/experiments/Knapen_AOT/AOT_stimuli/rescaled_final/1262_fw.mp4	0.0	78.49243974685669	
4	63.441365003585815	pulse	1	t		2.0	2.5	/experiments/Knapen_AOT/AOT_stimuli/rescaled_final/1262_fw.mp4	0.0	80.09290385246277	
4	63.55940818786621	fix_post	2		12	2.0	2.5	/experiments/Knapen_AOT/AOT_stimuli/rescaled_final/1262_fw.mp4	0.0	80.21094703674316	0.10003447532653809
5	63.65944266319275	fix_pre	0		120	3.0	2.5	/experiments/Knapen_AOT/AOT_stimuli/rescaled_final/1315_rv.mp4	0.0	80.3109815120697	1.0085530281066895
5	64.66799569129944	movie	1		293	3.0	2.5	/experiments/Knapen_AOT/AOT_stimuli/rescaled_final/1315_rv.mp4	0.0	81.31953454017639	2.4919559955596924
5	65.0415313243866	pulse	1	t		3.0	2.5	/experiments/Knapen_AOT/AOT_stimuli/rescaled_final/1315_rv.mp4	0.0	81.69307017326355	
5	66.64111089706421	pulse	1	t		3.0	2.5	/experiments/Knapen_AOT/AOT_stimuli/rescaled_final/1315_rv.mp4	0.0	83.29264974594116	
5	67.15995168685913	fix_post	2		12	3.0	2.5	/experiments/Knapen_AOT/AOT_stimuli/rescaled_final/1315_rv.mp4	0.0	83.81149053573608	0.10003471374511719
6	67.25998640060425	fix_pre	0		119	4.0	2.5	/experiments/Knapen_AOT/AOT_stimuli/rescaled_final/0021_rv.mp4	0.0	83.9115252494812	1.0002119541168213
6	68.2437481880188	pulse	0	t		4.0	2.5	/experiments/Knapen_AOT/AOT_stimuli/rescaled_final/0021_rv.mp4	0.0	84.89528703689575	
6	68.26019835472107	movie	1		293	4.0	2.5	/experiments/Knapen_AOT/AOT_stimuli/rescaled_final/0021_rv.mp4	0.0	84.91173720359802	2.5002970695495605
6	69.84217691421509	pulse	1	t		4.0	2.5	/experiments/Knapen_AOT/AOT_stimuli/rescaled_final/0021_rv.mp4	0.0	86.49371576309204	
6	70.76049542427063	fix_post	2		12	4.0	2.5	/experiments/Knapen_AOT/AOT_stimuli/rescaled_final/0021_rv.mp4	0.0	87.41203427314758	0.10013556480407715
7	70.8606309890747	fix_pre	0		120	5.0	2.5	/experiments/Knapen_AOT/AOT_stimuli/rescaled_final/2117_rv.mp4	0.0	87.51216983795166	1.0084195137023926
7	71.44416856765747	pulse	0	t		5.0	2.5	/experiments/Knapen_AOT/AOT_stimuli/rescaled_final/2117_rv.mp4	0.0	88.09570741653442	
7	71.8690505027771	movie	1		288	5.0	2.5	/experiments/Knapen_AOT/AOT_stimuli/rescaled_final/2117_rv.mp4	0.0	88.52058935165405	2.4919965267181396
7	73.04255223274231	pulse	1	t		5.0	2.5	/experiments/Knapen_AOT/AOT_stimuli/rescaled_final/2117_rv.mp4	0.0	89.69409108161926	
7	74.36104702949524	fix_post	2		12	5.0	2.5	/experiments/Knapen_AOT/AOT_stimuli/rescaled_final/2117_rv.mp4	0.0	91.01258587837219	0.1001424789428711
8	74.46118950843811	fix_pre	0		120	6.0	2.5	blank	1.0	91.11272835731506	1.0000262260437012
8	74.64464497566223	pulse	0	t		6.0	2.5	blank	1.0	91.29618382453918	
8	75.46121573448181	movie	1		300	6.0	2.5	blank	1.0	92.11275458335876	2.500354766845703
8	76.24497199058533	pulse	1	t		6.0	2.5	blank	1.0	92.89651083946228	
8	77.84512257575989	pulse	1	t		6.0	2.5	blank	1.0	94.49666142463684	
8	77.96157050132751	fix_post	2		12	6.0	2.5	blank	1.0	94.61310935020447	0.10012149810791016
9	78.06169199943542	fix_pre	0		120	7.0	2.5	/experiments/Knapen_AOT/AOT_stimuli/rescaled_final/0757_rv.mp4	0.0	94.71323084831238	1.00844144821167
9	79.0701334476471	movie	1		291	7.0	2.5	/experiments/Knapen_AOT/AOT_stimuli/rescaled_final/0757_rv.mp4	0.0	95.72167229652405	2.4919910430908203
9	79.44392204284668	pulse	1	t		7.0	2.5	/experiments/Knapen_AOT/AOT_stimuli/rescaled_final/0757_rv.mp4	0.0	96.09546089172363	
9	81.04354810714722	pulse	1	t		7.0	2.5	/experiments/Knapen_AOT/AOT_stimuli/rescaled_final/0757_rv.mp4	0.0	97.69508695602417	
9	81.56212449073792	fix_post	2		12	7.0	2.5	/experiments/Knapen_AOT/AOT_stimuli/rescaled_final/0757_rv.mp4	0.0	98.21366333961487	0.10006928443908691
10	81.662193775177	fix_pre	0		119	8.0	2.5	/experiments/Knapen_AOT/AOT_stimuli/rescaled_final/1455_rv.mp4	0.0	98.31373262405396	1.0001227855682373
10	82.64588332176208	pulse	0	t		8.0	2.5	/experiments/Knapen_AOT/AOT_stimuli/rescaled_final/1455_rv.mp4	0.0	99.29742217063904	
10	82.66231656074524	movie	1		291	8.0	2.5	/experiments/Knapen_AOT/AOT_stimuli/rescaled_final/1455_rv.mp4	0.0	99.31385540962219	2.500389575958252
10	84.2446608543396	pulse	1	t		8.0	2.5	/experiments/Knapen_AOT/AOT_stimuli/rescaled_final/1455_rv.mp4	0.0	100.89619970321655	
10	85.16270613670349	fix_post	2		12	8.0	2.5	/experiments/Knapen_AOT/AOT_stimuli/rescaled_final/1455_rv.mp4	0.0	101.81424498558044	0.09996533393859863
11	85.26267147064209	fix_pre	0		120	9.0	2.5	/experiments/Knapen_AOT/AOT_stimuli/rescaled_final/0774_fw.mp4	0.0	101.91421031951904	1.0085313320159912
11	85.84634065628052	pulse	0	t		9.0	2.5	/experiments/Knapen_AOT/AOT_stimuli/rescaled_final/0774_fw.mp4	0.0	102.49787950515747	
11	86.27120280265808	movie	1		289	9.0	2.5	/experiments/Knapen_AOT/AOT_stimuli/rescaled_final/0774_fw.mp4	0.0	102.92274165153503	2.492013931274414
11	87.44539856910706	pulse	1	t		9.0	2.5	/experiments/Knapen_AOT/AOT_stimuli/rescaled_final/0774_fw.mp4	0.0	104.09693741798401	
11	88.7632167339325	fix_post	2		12	9.0	2.5	/experiments/Knapen_AOT/AOT_stimuli/rescaled_final/0774_fw.mp4	0.0	105.41475558280945	0.10002303123474121
12	88.86323976516724	fix_pre	0		120	10.0	2.5	/experiments/Knapen_AOT/AOT_stimuli/rescaled_final/1102_fw.mp4	0.0	105.51477861404419	1.0085577964782715
12	89.0468361377716	pulse	0	t		10.0	2.5	/experiments/Knapen_AOT/AOT_stimuli/rescaled_final/1102_fw.mp4	0.0	105.69837498664856	
12	89.87179756164551	movie	1		290	10.0	2.5	/experiments/Knapen_AOT/AOT_stimuli/rescaled_final/1102_fw.mp4	0.0	106.52333641052246	2.4919605255126953
12	90.64512515068054	pulse	1	t		10.0	2.5	/experiments/Knapen_AOT/AOT_stimuli/rescaled_final/1102_fw.mp4	0.0	107.2966639995575	
12	92.24505853652954	pulse	1	t		10.0	2.5	/experiments/Knapen_AOT/AOT_stimuli/rescaled_final/1102_fw.mp4	0.0	108.8965973854065	
12	92.3637580871582	fix_post	2		12	10.0	2.5	/experiments/Knapen_AOT/AOT_stimuli/rescaled_final/1102_fw.mp4	0.0	109.01529693603516	0.09999442100524902
13	92.46375250816345	fix_pre	0		120	11.0	2.5	/experiments/Knapen_AOT/AOT_stimuli/rescaled_final/1514_fw.mp4	0.0	109.1152913570404	1.0085034370422363
13	93.47225594520569	movie	1		285	11.0	2.5	/experiments/Knapen_AOT/AOT_stimuli/rescaled_final/1514_fw.mp4	0.0	110.12379479408264	2.4920432567596436
13	93.84689211845398	pulse	1	t		11.0	2.5	/experiments/Knapen_AOT/AOT_stimuli/rescaled_final/1514_fw.mp4	0.0	110.49843096733093	
13	95.44633936882019	pulse	1	t		11.0	2.5	/experiments/Knapen_AOT/AOT_stimuli/rescaled_final/1514_fw.mp4	0.0	112.09787821769714	
13	95.96429920196533	fix_post	2		12	11.0	2.5	/experiments/Knapen_AOT/AOT_stimuli/rescaled_final/1514_fw.mp4	0.0	112.61583805084229	0.1000514030456543
14	96.06435060501099	fix_pre	0		119	12.0	2.5	/experiments/Knapen_AOT/AOT_stimuli/rescaled_final/1031_fw.mp4	0.0	112.71588945388794	1.0001835823059082
14	97.04803586006165	pulse	0	t		12.0	2.5	/experiments/Knapen_AOT/AOT_stimuli/rescaled_final/1031_fw.mp4	0.0	113.6995747089386	
14	97.0645341873169	movie	1		291	12.0	2.5	/experiments/Knapen_AOT/AOT_stimuli/rescaled_final/1031_fw.mp4	0.0	113.71607303619385	2.5002951622009277
14	98.64666700363159	pulse	1	t		12.0	2.5	/experiments/Knapen_AOT/AOT_stimuli/rescaled_final/1031_fw.mp4	0.0	115.29820585250854	
14	99.56482934951782	fix_post	2		12	12.0	2.5	/experiments/Knapen_AOT/AOT_stimuli/rescaled_final/1031_fw.mp4	0.0	116.21636819839478	0.10007739067077637
15	99.6649067401886	fix_pre	0		120	13.0	2.5	blank	1.0	116.31644558906555	1.0001616477966309
15	100.24102663993835	pulse	0	t		13.0	2.5	blank	1.0	116.89256548881531	
15	100.66506838798523	movie	1		300	13.0	2.5	blank	1.0	117.31660723686218	2.5003058910369873
15	101.84107875823975	pulse	1	t		13.0	2.5	blank	1.0	118.4926176071167	
15	103.16537427902222	fix_post	2		12	13.0	2.5	blank	1.0	119.81691312789917	0.10002827644348145
16	103.2654025554657	fix_pre	0		120	14.0	2.5	/experiments/Knapen_AOT/AOT_stimuli/rescaled_final/1131_fw.mp4	0.0	119.91694140434265	1.0084877014160156
16	103.44126653671265	pulse	0	t		14.0	2.5	/experiments/Knapen_AOT/AOT_stimuli/rescaled_final/1131_fw.mp4	0.0	120.0928053855896	
16	104.27389025688171	movie	1		292	14.0	2.5	/experiments/Knapen_AOT/AOT_stimuli/rescaled_final/1131_fw.mp4	0.0	120.92542910575867	2.4920191764831543
16	105.04108333587646	pulse	1	t		14.0	2.5	/experiments/Knapen_AOT/AOT_stimuli/rescaled_final/1131_fw.mp4	0.0	121.69262218475342	
16	106.64114212989807	pulse	1	t		14.0	2.5	/experiments/Knapen_AOT/AOT_stimuli/rescaled_final/1131_fw.mp4	0.0	123.29268097877502	
16	106.76590943336487	fix_post	2		12	14.0	2.5	/experiments/Knapen_AOT/AOT_stimuli/rescaled_final/1131_fw.mp4	0.0	123.41744828224182	0.10002732276916504
17	106.86593675613403	fix_pre	0		120	15.0	2.5	/experiments/Knapen_AOT/AOT_stimuli/rescaled_final/0959_fw.mp4	0.0	123.51747560501099	1.008570671081543
17	107.87450742721558	movie	1		290	15.0	2.5	/experiments/Knapen_AOT/AOT_stimuli/rescaled_final/0959_fw.mp4	0.0	124.52604627609253	2.491978168487549
17	108.24156999588013	pulse	1	t		15.0	2.5	/experiments/Knapen_AOT/AOT_stimuli/rescaled_final/0959_fw.mp4	0.0	124.89310884475708	
17	109.84160685539246	pulse	1	t		15.0	2.5	/experiments/Knapen_AOT/AOT_stimuli/rescaled_final/0959_fw.mp4	0.0	126.49314570426941	
17	110.36648559570312	fix_post	2		12	15.0	2.5	/experiments/Knapen_AOT/AOT_stimuli/rescaled_final/0959_fw.mp4	0.0	127.01802444458008	0.10004472732543945
18	110.46653032302856	fix_pre	0		118	16.0	2.5	/experiments/Knapen_AOT/AOT_stimuli/rescaled_final/1950_fw.mp4	0.0	127.11806917190552	0.9917960166931152
18	111.44183421134949	pulse	0	t		16.0	2.5	/experiments/Knapen_AOT/AOT_stimuli/rescaled_final/1950_fw.mp4	0.0	128.09337306022644	
18	111.45832633972168	movie	1		292	16.0	2.5	/experiments/Knapen_AOT/AOT_stimuli/rescaled_final/1950_fw.mp4	0.0	128.10986518859863	2.500471353530884
18	113.04152727127075	pulse	1	t		16.0	2.5	/experiments/Knapen_AOT/AOT_stimuli/rescaled_final/1950_fw.mp4	0.0	129.6930661201477	
18	113.95879769325256	fix_post	2		12	16.0	2.5	/experiments/Knapen_AOT/AOT_stimuli/rescaled_final/1950_fw.mp4	0.0	130.61033654212952	0.09995603561401367
19	114.05875372886658	fix_pre	0		120	17.0	2.5	/experiments/Knapen_AOT/AOT_stimuli/rescaled_final/0939_rv.mp4	0.0	130.71029257774353	1.0084707736968994
19	114.64234948158264	pulse	0	t		17.0	2.5	/experiments/Knapen_AOT/AOT_stimuli/rescaled_final/0939_rv.mp4	0.0	131.2938883304596	
19	115.06722450256348	movie	1		290	17.0	2.5	/experiments/Knapen_AOT/AOT_stimuli/rescaled_final/0939_rv.mp4	0.0	131.71876335144043	2.4920363426208496
19	116.24261569976807	pulse	1	t		17.0	2.5	/experiments/Knapen_AOT/AOT_stimuli/rescaled_final/0939_rv.mp4	0.0	132.89415454864502	
19	117.55926084518433	fix_post	2		12	17.0	2.5	/experiments/Knapen_AOT/AOT_stimuli/rescaled_final/0939_rv.mp4	0.0	134.21079969406128	0.1000204086303711
20	117.6592812538147	fix_pre	0		120	18.0	2.5	/experiments/Knapen_AOT/AOT_stimuli/rescaled_final/0180_rv.mp4	0.0	134.31082010269165	1.0084569454193115
20	117.84277820587158	pulse	0	t		18.0	2.5	/experiments/Knapen_AOT/AOT_stimuli/rescaled_final/0180_rv.mp4	0.0	134.49431705474854	
20	118.66773819923401	movie	1		291	18.0	2.5	/experiments/Knapen_AOT/AOT_stimuli/rescaled_final/0180_rv.mp4	0.0	135.31927704811096	2.4920144081115723
20	119.44125318527222	pulse	1	t		18.0	2.5	/experiments/Knapen_AOT/AOT_stimuli/rescaled_final/0180_rv.mp4	0.0	136.09279203414917	
20	121.04103684425354	pulse	1	t		18.0	2.5	/experiments/Knapen_AOT/AOT_stimuli/rescaled_final/0180_rv.mp4	0.0	137.6925756931305	
20	121.15975260734558	fix_post	2		12	18.0	2.5	/experiments/Knapen_AOT/AOT_stimuli/rescaled_final/0180_rv.mp4	0.0	137.81129145622253	0.10003829002380371
21	121.25979089736938	fix_pre	0		120	19.0	2.5	blank	1.0	137.91132974624634	1.0001716613769531
21	122.25996255874634	movie	1		300	19.0	2.5	blank	1.0	138.9115014076233	2.5003280639648438
21	122.64349508285522	pulse	1	t		19.0	2.5	blank	1.0	139.29503393173218	
21	124.2437572479248	pulse	1	t		19.0	2.5	blank	1.0	140.89529609680176	
21	124.76029062271118	fix_post	2		12	19.0	2.5	blank	1.0	141.41182947158813	0.10006499290466309
22	124.86035561561584	fix_pre	0		119	20.0	2.5	/experiments/Knapen_AOT/AOT_stimuli/rescaled_final/0445_rv.mp4	0.0	141.5118944644928	1.0001606941223145
22	125.84407830238342	pulse	0	t		20.0	2.5	/experiments/Knapen_AOT/AOT_stimuli/rescaled_final/0445_rv.mp4	0.0	142.49561715126038	
22	125.86051630973816	movie	1		290	20.0	2.5	/experiments/Knapen_AOT/AOT_stimuli/rescaled_final/0445_rv.mp4	0.0	142.5120551586151	2.5003459453582764
22	127.44288301467896	pulse	1	t		20.0	2.5	/experiments/Knapen_AOT/AOT_stimuli/rescaled_final/0445_rv.mp4	0.0	144.0944218635559	
22	128.36086225509644	fix_post	2		12	20.0	2.5	/experiments/Knapen_AOT/AOT_stimuli/rescaled_final/0445_rv.mp4	0.0	145.0124011039734	0.10002779960632324
23	128.46089005470276	fix_pre	0		120	21.0	2.5	/experiments/Knapen_AOT/AOT_stimuli/rescaled_final/1875_rv.mp4	0.0	145.1124289035797	1.008512020111084
23	129.044588804245	pulse	0	t		21.0	2.5	/experiments/Knapen_AOT/AOT_stimuli/rescaled_final/1875_rv.mp4	0.0	145.69612765312195	
23	129.46940207481384	movie	1		291	21.0	2.5	/experiments/Knapen_AOT/AOT_stimuli/rescaled_final/1875_rv.mp4	0.0	146.1209409236908	2.4920082092285156
23	130.6432168483734	pulse	1	t		21.0	2.5	/experiments/Knapen_AOT/AOT_stimuli/rescaled_final/1875_rv.mp4	0.0	147.29475569725037	
23	131.96141028404236	fix_post	2		12	21.0	2.5	/experiments/Knapen_AOT/AOT_stimuli/rescaled_final/1875_rv.mp4	0.0	148.6129491329193	0.1000068187713623
24	132.06141710281372	fix_pre	0		120	22.0	2.5	/experiments/Knapen_AOT/AOT_stimuli/rescaled_final/2037_fw.mp4	0.0	148.71295595169067	1.0085234642028809
24	132.24497985839844	pulse	0	t		22.0	2.5	/experiments/Knapen_AOT/AOT_stimuli/rescaled_final/2037_fw.mp4	0.0	148.8965187072754	
24	133.0699405670166	movie	1		289	22.0	2.5	/experiments/Knapen_AOT/AOT_stimuli/rescaled_final/2037_fw.mp4	0.0	149.72147941589355	2.492016553878784
24	133.8434956073761	pulse	1	t		22.0	2.5	/experiments/Knapen_AOT/AOT_stimuli/rescaled_final/2037_fw.mp4	0.0	150.49503445625305	
24	135.4435544013977	pulse	1	t		22.0	2.5	/experiments/Knapen_AOT/AOT_stimuli/rescaled_final/2037_fw.mp4	0.0	152.09509325027466	
24	135.56195712089539	fix_post	2		12	22.0	2.5	/experiments/Knapen_AOT/AOT_stimuli/rescaled_final/2037_fw.mp4	0.0	152.21349596977234	0.09999966621398926
25	135.66195678710938	fix_pre	0		120	23.0	2.5	/experiments/Knapen_AOT/AOT_stimuli/rescaled_final/1494_rv.mp4	0.0	152.31349563598633	1.0084660053253174
25	136.6704227924347	movie	1		293	23.0	2.5	/experiments/Knapen_AOT/AOT_stimuli/rescaled_final/1494_rv.mp4	0.0	153.32196164131165	2.4920358657836914
25	137.04408597946167	pulse	1	t		23.0	2.5	/experiments/Knapen_AOT/AOT_stimuli/rescaled_final/1494_rv.mp4	0.0	153.69562482833862	
25	138.64438271522522	pulse	1	t		23.0	2.5	/experiments/Knapen_AOT/AOT_stimuli/rescaled_final/1494_rv.mp4	0.0	155.29592156410217	
25	139.16245865821838	fix_post	2		12	23.0	2.5	/experiments/Knapen_AOT/AOT_stimuli/rescaled_final/1494_rv.mp4	0.0	155.81399750709534	0.1001291275024414
26	139.26258778572083	fix_pre	0		119	24.0	2.5	/experiments/Knapen_AOT/AOT_stimuli/rescaled_final/0668_fw.mp4	0.0	155.91412663459778	1.0000765323638916
26	140.2464563846588	pulse	0	t		24.0	2.5	/experiments/Knapen_AOT/AOT_stimuli/rescaled_final/0668_fw.mp4	0.0	156.89799523353577	
26	140.26266431808472	movie	1		293	24.0	2.5	/experiments/Knapen_AOT/AOT_stimuli/rescaled_final/0668_fw.mp4	0.0	156.91420316696167	2.5002939701080322
26	141.84507036209106	pulse	1	t		24.0	2.5	/experiments/Knapen_AOT/AOT_stimuli/rescaled_final/0668_fw.mp4	0.0	158.49660921096802	
26	142.76295828819275	fix_post	2		12	24.0	2.5	/experiments/Knapen_AOT/AOT_stimuli/rescaled_final/0668_fw.mp4	0.0	159.4144971370697	0.1000664234161377
27	142.8630247116089	fix_pre	0		120	25.0	2.5	/experiments/Knapen_AOT/AOT_stimuli/rescaled_final/0709_fw.mp4	0.0	159.51456356048584	1.0085258483886719
27	143.44654321670532	pulse	0	t		25.0	2.5	/experiments/Knapen_AOT/AOT_stimuli/rescaled_final/0709_fw.mp4	0.0	160.09808206558228	
27	143.87155055999756	movie	1		296	25.0	2.5	/experiments/Knapen_AOT/AOT_stimuli/rescaled_final/0709_fw.mp4	0.0	160.5230894088745	2.491955041885376
27	145.0427839756012	pulse	1	t		25.0	2.5	/experiments/Knapen_AOT/AOT_stimuli/rescaled_final/0709_fw.mp4	0.0	161.69432282447815	
27	146.36350560188293	fix_post	2		12	25.0	2.5	/experiments/Knapen_AOT/AOT_stimuli/rescaled_final/0709_fw.mp4	0.0	163.0150444507599	0.10004234313964844
28	146.46354794502258	fix_pre	0		120	26.0	2.5	/experiments/Knapen_AOT/AOT_stimuli/rescaled_final/0438_fw.mp4	0.0	163.11508679389954	1.0001506805419922
28	146.64738273620605	pulse	0	t		26.0	2.5	/experiments/Knapen_AOT/AOT_stimuli/rescaled_final/0438_fw.mp4	0.0	163.298921585083	
28	147.46369862556458	movie	1		297	26.0	2.5	/experiments/Knapen_AOT/AOT_stimuli/rescaled_final/0438_fw.mp4	0.0	164.11523747444153	2.5003905296325684
28	148.244886636734	pulse	1	t		26.0	2.5	/experiments/Knapen_AOT/AOT_stimuli/rescaled_final/0438_fw.mp4	0.0	164.89642548561096	
28	149.84476709365845	pulse	1	t		26.0	2.5	/experiments/Knapen_AOT/AOT_stimuli/rescaled_final/0438_fw.mp4	0.0	166.4963059425354	
28	149.96408915519714	fix_post	2		12	26.0	2.5	/experiments/Knapen_AOT/AOT_stimuli/rescaled_final/0438_fw.mp4	0.0	166.6156280040741	0.10003137588500977
29	150.06412053108215	fix_pre	0		120	27.0	2.5	/experiments/Knapen_AOT/AOT_stimuli/rescaled_final/2066_rv.mp4	0.0	166.7156593799591	1.0084595680236816
29	151.07258009910583	movie	1		298	27.0	2.5	/experiments/Knapen_AOT/AOT_stimuli/rescaled_final/2066_rv.mp4	0.0	167.7241189479828	2.4920265674591064
29	151.44528102874756	pulse	1	t		27.0	2.5	/experiments/Knapen_AOT/AOT_stimuli/rescaled_final/2066_rv.mp4	0.0	168.0968198776245	
29	153.04354119300842	pulse	1	t		27.0	2.5	/experiments/Knapen_AOT/AOT_stimuli/rescaled_final/2066_rv.mp4	0.0	169.69508004188538	
29	153.56460666656494	fix_post	2		12	27.0	2.5	/experiments/Knapen_AOT/AOT_stimuli/rescaled_final/2066_rv.mp4	0.0	170.2161455154419	0.10005331039428711
30	153.66465997695923	fix_pre	0		119	28.0	2.5	blank	1.0	170.31619882583618	0.991757869720459
30	154.6482093334198	pulse	0	t		28.0	2.5	blank	1.0	171.29974818229675	
30	154.6564178466797	movie	1		301	28.0	2.5	blank	1.0	171.30795669555664	2.5087361335754395
30	156.24855494499207	pulse	1	t		28.0	2.5	blank	1.0	172.90009379386902	
30	157.16515398025513	fix_post	2		12	28.0	2.5	blank	1.0	173.81669282913208	0.10002255439758301
31	157.2651765346527	fix_pre	0		120	29.0	2.5	/experiments/Knapen_AOT/AOT_stimuli/rescaled_final/1137_fw.mp4	0.0	173.91671538352966	1.0085315704345703
31	157.84129333496094	pulse	0	t		29.0	2.5	/experiments/Knapen_AOT/AOT_stimuli/rescaled_final/1137_fw.mp4	0.0	174.4928321838379	
31	158.27370810508728	movie	1		296	29.0	2.5	/experiments/Knapen_AOT/AOT_stimuli/rescaled_final/1137_fw.mp4	0.0	174.92524695396423	2.4919989109039307
31	159.44669651985168	pulse	1	t		29.0	2.5	/experiments/Knapen_AOT/AOT_stimuli/rescaled_final/1137_fw.mp4	0.0	176.09823536872864	
31	160.7657070159912	fix_post	2		12	29.0	2.5	/experiments/Knapen_AOT/AOT_stimuli/rescaled_final/1137_fw.mp4	0.0	177.41724586486816	0.09998750686645508
32	160.86569452285767	fix_pre	0		120	30.0	2.5	/experiments/Knapen_AOT/AOT_stimuli/rescaled_final/2115_fw.mp4	0.0	177.51723337173462	1.0085532665252686
32	161.04203343391418	pulse	0	t		30.0	2.5	/experiments/Knapen_AOT/AOT_stimuli/rescaled_final/2115_fw.mp4	0.0	177.69357228279114	
32	161.87424778938293	movie	1		297	30.0	2.5	/experiments/Knapen_AOT/AOT_stimuli/rescaled_final/2115_fw.mp4	0.0	178.5257866382599	2.4919800758361816
32	162.6413495540619	pulse	1	t		30.0	2.5	/experiments/Knapen_AOT/AOT_stimuli/rescaled_final/2115_fw.mp4	0.0	179.29288840293884	
32	164.2414996623993	pulse	1	t		30.0	2.5	/experiments/Knapen_AOT/AOT_stimuli/rescaled_final/2115_fw.mp4	0.0	180.89303851127625	
32	164.36622786521912	fix_post	2		12	30.0	2.5	/experiments/Knapen_AOT/AOT_stimuli/rescaled_final/2115_fw.mp4	0.0	181.01776671409607	0.10000824928283691
33	164.46623611450195	fix_pre	0		120	31.0	2.5	/experiments/Knapen_AOT/AOT_stimuli/rescaled_final/1608_rv.mp4	0.0	181.1177749633789	1.0085062980651855
33	165.47474241256714	movie	1		295	31.0	2.5	/experiments/Knapen_AOT/AOT_stimuli/rescaled_final/1608_rv.mp4	0.0	182.1262812614441	2.483699321746826
33	165.84159135818481	pulse	1	t		31.0	2.5	/experiments/Knapen_AOT/AOT_stimuli/rescaled_final/1608_rv.mp4	0.0	182.49313020706177	
33	167.44186878204346	pulse	1	t		31.0	2.5	/experiments/Knapen_AOT/AOT_stimuli/rescaled_final/1608_rv.mp4	0.0	184.0934076309204	
33	167.95844173431396	fix_post	2		12	31.0	2.5	/experiments/Knapen_AOT/AOT_stimuli/rescaled_final/1608_rv.mp4	0.0	184.60998058319092	0.1000070571899414
34	168.0584487915039	fix_pre	0		119	32.0	2.5	/experiments/Knapen_AOT/AOT_stimuli/rescaled_final/1799_rv.mp4	0.0	184.70998764038086	1.0001826286315918
34	169.04210591316223	pulse	0	t		32.0	2.5	/experiments/Knapen_AOT/AOT_stimuli/rescaled_final/1799_rv.mp4	0.0	185.69364476203918	
34	169.0586314201355	movie	1		297	32.0	2.5	/experiments/Knapen_AOT/AOT_stimuli/rescaled_final/1799_rv.mp4	0.0	185.71017026901245	2.5003445148468018
34	170.64234352111816	pulse	1	t		32.0	2.5	/experiments/Knapen_AOT/AOT_stimuli/rescaled_final/1799_rv.mp4	0.0	187.29388236999512	
34	171.5589759349823	fix_post	2		12	32.0	2.5	/experiments/Knapen_AOT/AOT_stimuli/rescaled_final/1799_rv.mp4	0.0	188.21051478385925	0.10004019737243652
35	171.65901613235474	fix_pre	0		120	33.0	2.5	/experiments/Knapen_AOT/AOT_stimuli/rescaled_final/0528_rv.mp4	0.0	188.3105549812317	1.0084922313690186
35	172.24261665344238	pulse	0	t		33.0	2.5	/experiments/Knapen_AOT/AOT_stimuli/rescaled_final/0528_rv.mp4	0.0	188.89415550231934	
35	172.66750836372375	movie	1		293	33.0	2.5	/experiments/Knapen_AOT/AOT_stimuli/rescaled_final/0528_rv.mp4	0.0	189.3190472126007	2.492199420928955
35	173.84288787841797	pulse	1	t		33.0	2.5	/experiments/Knapen_AOT/AOT_stimuli/rescaled_final/0528_rv.mp4	0.0	190.49442672729492	
35	175.1597077846527	fix_post	2		12	33.0	2.5	/experiments/Knapen_AOT/AOT_stimuli/rescaled_final/0528_rv.mp4	0.0	191.81124663352966	0.09985780715942383
36	175.25956559181213	fix_pre	0		120	34.0	2.5	/experiments/Knapen_AOT/AOT_stimuli/rescaled_final/1824_rv.mp4	0.0	191.9111044406891	1.0001072883605957
36	175.4431414604187	pulse	0	t		34.0	2.5	/experiments/Knapen_AOT/AOT_stimuli/rescaled_final/1824_rv.mp4	0.0	192.09468030929565	
36	176.25967288017273	movie	1		296	34.0	2.5	/experiments/Knapen_AOT/AOT_stimuli/rescaled_final/1824_rv.mp4	0.0	192.91121172904968	2.5004351139068604
36	177.04328227043152	pulse	1	t		34.0	2.5	/experiments/Knapen_AOT/AOT_stimuli/rescaled_final/1824_rv.mp4	0.0	193.69482111930847	
36	178.64354610443115	pulse	1	t		34.0	2.5	/experiments/Knapen_AOT/AOT_stimuli/rescaled_final/1824_rv.mp4	0.0	195.2950849533081	
36	178.7601079940796	fix_post	2		12	34.0	2.5	/experiments/Knapen_AOT/AOT_stimuli/rescaled_final/1824_rv.mp4	0.0	195.41164684295654	0.10001182556152344
37	178.8601198196411	fix_pre	0		120	35.0	2.5	blank	1.0	195.51165866851807	1.0001258850097656
37	179.86024570465088	movie	1		299	35.0	2.5	blank	1.0	196.51178455352783	2.4920332431793213
37	180.24388027191162	pulse	1	t		35.0	2.5	blank	1.0	196.89541912078857	
37	181.84399890899658	pulse	1	t		35.0	2.5	blank	1.0	198.49553775787354	
37	182.3522789478302	fix_post	2		12	35.0	2.5	blank	1.0	199.00381779670715	0.10007524490356445
38	182.45235419273376	fix_pre	0		120	36.0	2.5	/experiments/Knapen_AOT/AOT_stimuli/rescaled_final/1929_rv.mp4	0.0	199.10389304161072	1.0084559917449951
38	183.44432640075684	pulse	0	t		36.0	2.5	/experiments/Knapen_AOT/AOT_stimuli/rescaled_final/1929_rv.mp4	0.0	200.0958652496338	
38	183.46081018447876	movie	1		292	36.0	2.5	/experiments/Knapen_AOT/AOT_stimuli/rescaled_final/1929_rv.mp4	0.0	200.1123490333557	2.500369071960449
38	185.04335141181946	pulse	1	t		36.0	2.5	/experiments/Knapen_AOT/AOT_stimuli/rescaled_final/1929_rv.mp4	0.0	201.6948902606964	
38	185.9611792564392	fix_post	2		12	36.0	2.5	/experiments/Knapen_AOT/AOT_stimuli/rescaled_final/1929_rv.mp4	0.0	202.61271810531616	0.10006427764892578
39	186.06124353408813	fix_pre	0		120	37.0	2.5	/experiments/Knapen_AOT/AOT_stimuli/rescaled_final/0287_fw.mp4	0.0	202.7127823829651	1.0084762573242188
39	186.64482975006104	pulse	0	t		37.0	2.5	/experiments/Knapen_AOT/AOT_stimuli/rescaled_final/0287_fw.mp4	0.0	203.296368598938	
39	187.06971979141235	movie	1		291	37.0	2.5	/experiments/Knapen_AOT/AOT_stimuli/rescaled_final/0287_fw.mp4	0.0	203.7212586402893	2.4919981956481934
39	188.24361896514893	pulse	1	t		37.0	2.5	/experiments/Knapen_AOT/AOT_stimuli/rescaled_final/0287_fw.mp4	0.0	204.89515781402588	
39	189.56171798706055	fix_post	2		12	37.0	2.5	/experiments/Knapen_AOT/AOT_stimuli/rescaled_final/0287_fw.mp4	0.0	206.2132568359375	0.10002398490905762
40	189.6617419719696	fix_pre	0		120	38.0	2.5	/experiments/Knapen_AOT/AOT_stimuli/rescaled_final/1360_fw.mp4	0.0	206.31328082084656	1.0085017681121826
40	189.8456621170044	pulse	0	t		38.0	2.5	/experiments/Knapen_AOT/AOT_stimuli/rescaled_final/1360_fw.mp4	0.0	206.49720096588135	
40	190.6702437400818	movie	1		289	38.0	2.5	/experiments/Knapen_AOT/AOT_stimuli/rescaled_final/1360_fw.mp4	0.0	207.32178258895874	2.4920034408569336
40	191.44382548332214	pulse	1	t		38.0	2.5	/experiments/Knapen_AOT/AOT_stimuli/rescaled_final/1360_fw.mp4	0.0	208.0953643321991	
40	193.0436782836914	pulse	1	t		38.0	2.5	/experiments/Knapen_AOT/AOT_stimuli/rescaled_final/1360_fw.mp4	0.0	209.69521713256836	
40	193.16224718093872	fix_post	2		12	38.0	2.5	/experiments/Knapen_AOT/AOT_stimuli/rescaled_final/1360_fw.mp4	0.0	209.81378602981567	0.10002970695495605
41	193.26227688789368	fix_pre	0		120	39.0	2.5	/experiments/Knapen_AOT/AOT_stimuli/rescaled_final/1875_fw.mp4	0.0	209.91381573677063	1.0086195468902588
41	194.27089643478394	movie	1		286	39.0	2.5	/experiments/Knapen_AOT/AOT_stimuli/rescaled_final/1875_fw.mp4	0.0	210.9224352836609	2.491892099380493
41	194.64419555664062	pulse	1	t		39.0	2.5	/experiments/Knapen_AOT/AOT_stimuli/rescaled_final/1875_fw.mp4	0.0	211.29573440551758	
41	196.24409794807434	pulse	1	t		39.0	2.5	/experiments/Knapen_AOT/AOT_stimuli/rescaled_final/1875_fw.mp4	0.0	212.8956367969513	
41	196.76278853416443	fix_post	2		12	39.0	2.5	/experiments/Knapen_AOT/AOT_stimuli/rescaled_final/1875_fw.mp4	0.0	213.41432738304138	0.10009384155273438
42	196.86288237571716	fix_pre	0		119	40.0	2.5	blank	1.0	213.51442122459412	0.9917662143707275
42	197.84662413597107	pulse	0	t		40.0	2.5	blank	1.0	214.49816298484802	
42	197.8546485900879	movie	1		301	40.0	2.5	blank	1.0	214.50618743896484	2.5087060928344727
42	199.44695806503296	pulse	1	t		40.0	2.5	blank	1.0	216.0984969139099	
42	200.36335468292236	fix_post	2		12	40.0	2.5	blank	1.0	217.01489353179932	0.10004329681396484
43	200.46339797973633	fix_pre	0		120	41.0	2.5	/experiments/Knapen_AOT/AOT_stimuli/rescaled_final/0509_fw.mp4	0.0	217.11493682861328	1.008453369140625
43	201.0470712184906	pulse	0	t		41.0	2.5	/experiments/Knapen_AOT/AOT_stimuli/rescaled_final/0509_fw.mp4	0.0	217.69861006736755	
43	201.47185134887695	movie	1		292	41.0	2.5	/experiments/Knapen_AOT/AOT_stimuli/rescaled_final/0509_fw.mp4	0.0	218.1233901977539	2.492053747177124
43	202.6456983089447	pulse	1	t		41.0	2.5	/experiments/Knapen_AOT/AOT_stimuli/rescaled_final/0509_fw.mp4	0.0	219.29723715782166	
43	203.96390509605408	fix_post	2		12	41.0	2.5	/experiments/Knapen_AOT/AOT_stimuli/rescaled_final/0509_fw.mp4	0.0	220.61544394493103	0.10001206398010254
44	204.06391716003418	fix_pre	0		120	42.0	2.5	/experiments/Knapen_AOT/AOT_stimuli/rescaled_final/0547_fw.mp4	0.0	220.71545600891113	1.0085248947143555
44	204.24748277664185	pulse	0	t		42.0	2.5	/experiments/Knapen_AOT/AOT_stimuli/rescaled_final/0547_fw.mp4	0.0	220.8990216255188	
44	205.07244205474854	movie	1		290	42.0	2.5	/experiments/Knapen_AOT/AOT_stimuli/rescaled_final/0547_fw.mp4	0.0	221.7239809036255	2.491981029510498
44	205.8462097644806	pulse	1	t		42.0	2.5	/experiments/Knapen_AOT/AOT_stimuli/rescaled_final/0547_fw.mp4	0.0	222.49774861335754	
44	207.44591903686523	pulse	1	t		42.0	2.5	/experiments/Knapen_AOT/AOT_stimuli/rescaled_final/0547_fw.mp4	0.0	224.0974578857422	
44	207.56442308425903	fix_post	2		12	42.0	2.5	/experiments/Knapen_AOT/AOT_stimuli/rescaled_final/0547_fw.mp4	0.0	224.215961933136	0.10007238388061523
45	207.66449546813965	fix_pre	0		120	43.0	2.5	/experiments/Knapen_AOT/AOT_stimuli/rescaled_final/1947_rv.mp4	0.0	224.3160343170166	1.008481740951538
45	208.6729772090912	movie	1		291	43.0	2.5	/experiments/Knapen_AOT/AOT_stimuli/rescaled_final/1947_rv.mp4	0.0	225.32451605796814	2.4919798374176025
45	209.04770970344543	pulse	1	t		43.0	2.5	/experiments/Knapen_AOT/AOT_stimuli/rescaled_final/1947_rv.mp4	0.0	225.6992485523224	
45	210.6464388370514	pulse	1	t		43.0	2.5	/experiments/Knapen_AOT/AOT_stimuli/rescaled_final/1947_rv.mp4	0.0	227.29797768592834	
45	211.1649570465088	fix_post	2		12	43.0	2.5	/experiments/Knapen_AOT/AOT_stimuli/rescaled_final/1947_rv.mp4	0.0	227.81649589538574	0.10006403923034668
46	211.26502108573914	fix_pre	0		119	44.0	2.5	/experiments/Knapen_AOT/AOT_stimuli/rescaled_final/0749_rv.mp4	0.0	227.9165599346161	1.0001130104064941
46	212.24087595939636	pulse	0	t		44.0	2.5	/experiments/Knapen_AOT/AOT_stimuli/rescaled_final/0749_rv.mp4	0.0	228.89241480827332	
46	212.26513409614563	movie	1		286	44.0	2.5	/experiments/Knapen_AOT/AOT_stimuli/rescaled_final/0749_rv.mp4	0.0	228.91667294502258	2.5004100799560547
46	213.84105563163757	pulse	1	t		44.0	2.5	/experiments/Knapen_AOT/AOT_stimuli/rescaled_final/0749_rv.mp4	0.0	230.49259448051453	
46	214.76554417610168	fix_post	2		1	44.0	2.5	/experiments/Knapen_AOT/AOT_stimuli/rescaled_final/0749_rv.mp4	0.0	231.41708302497864	0.14999818801879883
47	214.91554236412048	fix_pre	0		114	45.0	2.5	/experiments/Knapen_AOT/AOT_stimuli/rescaled_final/1950_fw.mp4	0.0	231.56708121299744	0.9585204124450684
47	215.44089889526367	pulse	0	t		45.0	2.5	/experiments/Knapen_AOT/AOT_stimuli/rescaled_final/1950_fw.mp4	0.0	232.09243774414062	
47	215.87406277656555	movie	1		288	45.0	2.5	/experiments/Knapen_AOT/AOT_stimuli/rescaled_final/1950_fw.mp4	0.0	232.5256016254425	2.491978168487549
47	217.0411777496338	pulse	1	t		45.0	2.5	/experiments/Knapen_AOT/AOT_stimuli/rescaled_final/1950_fw.mp4	0.0	233.69271659851074	
47	218.3660409450531	fix_post	2		12	45.0	2.5	/experiments/Knapen_AOT/AOT_stimuli/rescaled_final/1950_fw.mp4	0.0	235.01757979393005	0.10007643699645996
48	218.46611738204956	fix_pre	0		120	46.0	2.5	/experiments/Knapen_AOT/AOT_stimuli/rescaled_final/0402_rv.mp4	0.0	235.1176562309265	1.008441686630249
48	218.64145064353943	pulse	0	t		46.0	2.5	/experiments/Knapen_AOT/AOT_stimuli/rescaled_final/0402_rv.mp4	0.0	235.29298949241638	
48	219.4745590686798	movie	1		287	46.0	2.5	/experiments/Knapen_AOT/AOT_stimuli/rescaled_final/0402_rv.mp4	0.0	236.12609791755676	2.4920291900634766
48	220.24158835411072	pulse	1	t		46.0	2.5	/experiments/Knapen_AOT/AOT_stimuli/rescaled_final/0402_rv.mp4	0.0	236.89312720298767	
48	221.8417956829071	pulse	1	t		46.0	2.5	/experiments/Knapen_AOT/AOT_stimuli/rescaled_final/0402_rv.mp4	0.0	238.49333453178406	
48	221.9665882587433	fix_post	2		12	46.0	2.5	/experiments/Knapen_AOT/AOT_stimuli/rescaled_final/0402_rv.mp4	0.0	238.61812710762024	0.10005617141723633
49	222.06664443016052	fix_pre	0		120	47.0	2.5	/experiments/Knapen_AOT/AOT_stimuli/rescaled_final/2125_rv.mp4	0.0	238.71818327903748	1.0084989070892334
49	223.07514333724976	movie	1		284	47.0	2.5	/experiments/Knapen_AOT/AOT_stimuli/rescaled_final/2125_rv.mp4	0.0	239.7266821861267	2.4920313358306885
49	223.4414942264557	pulse	1	t		47.0	2.5	/experiments/Knapen_AOT/AOT_stimuli/rescaled_final/2125_rv.mp4	0.0	240.09303307533264	
49	225.04221749305725	pulse	1	t		47.0	2.5	/experiments/Knapen_AOT/AOT_stimuli/rescaled_final/2125_rv.mp4	0.0	241.6937563419342	
49	225.56717467308044	fix_post	2		12	47.0	2.5	/experiments/Knapen_AOT/AOT_stimuli/rescaled_final/2125_rv.mp4	0.0	242.2187135219574	0.10007190704345703
50	225.6672465801239	fix_pre	0		118	48.0	2.5	blank	1.0	242.31878542900085	0.9834048748016357
50	226.64264273643494	pulse	0	t		48.0	2.5	blank	1.0	243.2941815853119	
50	226.65065145492554	movie	1		301	48.0	2.5	blank	1.0	243.3021903038025	2.508692502975464
50	228.24274039268494	pulse	1	t		48.0	2.5	blank	1.0	244.8942792415619	
50	229.159343957901	fix_post	2		12	48.0	2.5	blank	1.0	245.81088280677795	0.1000056266784668
51	229.25934958457947	fix_pre	0		120	49.0	2.5	/experiments/Knapen_AOT/AOT_stimuli/rescaled_final/1170_fw.mp4	0.0	245.91088843345642	1.0085692405700684
51	229.84315991401672	pulse	0	t		49.0	2.5	/experiments/Knapen_AOT/AOT_stimuli/rescaled_final/1170_fw.mp4	0.0	246.49469876289368	
51	230.26791882514954	movie	1		284	49.0	2.5	/experiments/Knapen_AOT/AOT_stimuli/rescaled_final/1170_fw.mp4	0.0	246.9194576740265	2.491968870162964
51	231.4427843093872	pulse	1	t		49.0	2.5	/experiments/Knapen_AOT/AOT_stimuli/rescaled_final/1170_fw.mp4	0.0	248.09432315826416	
51	232.7598876953125	fix_post	2		12	49.0	2.5	/experiments/Knapen_AOT/AOT_stimuli/rescaled_final/1170_fw.mp4	0.0	249.41142654418945	0.10002017021179199
52	232.8599078655243	fix_pre	0		120	50.0	2.5	/experiments/Knapen_AOT/AOT_stimuli/rescaled_final/0842_fw.mp4	0.0	249.51144671440125	1.0084807872772217
52	233.04345297813416	pulse	0	t		50.0	2.5	/experiments/Knapen_AOT/AOT_stimuli/rescaled_final/0842_fw.mp4	0.0	249.6949918270111	
52	233.8683886528015	movie	1		280	50.0	2.5	/experiments/Knapen_AOT/AOT_stimuli/rescaled_final/0842_fw.mp4	0.0	250.51992750167847	2.4920361042022705
52	234.6419699192047	pulse	1	t		50.0	2.5	/experiments/Knapen_AOT/AOT_stimuli/rescaled_final/0842_fw.mp4	0.0	251.29350876808167	
52	236.24332475662231	pulse	1	t		50.0	2.5	/experiments/Knapen_AOT/AOT_stimuli/rescaled_final/0842_fw.mp4	0.0	252.89486360549927	
52	236.36042475700378	fix_post	2		12	50.0	2.5	/experiments/Knapen_AOT/AOT_stimuli/rescaled_final/0842_fw.mp4	0.0	253.01196360588074	0.10012078285217285
53	236.46054553985596	fix_pre	0		120	51.0	2.5	/experiments/Knapen_AOT/AOT_stimuli/rescaled_final/0551_rv.mp4	0.0	253.1120843887329	1.0084443092346191
53	237.46898984909058	movie	1		276	51.0	2.5	/experiments/Knapen_AOT/AOT_stimuli/rescaled_final/0551_rv.mp4	0.0	254.12052869796753	2.491997003555298
53	237.8435094356537	pulse	1	t		51.0	2.5	/experiments/Knapen_AOT/AOT_stimuli/rescaled_final/0551_rv.mp4	0.0	254.49504828453064	
53	239.44257712364197	pulse	1	t		51.0	2.5	/experiments/Knapen_AOT/AOT_stimuli/rescaled_final/0551_rv.mp4	0.0	256.0941159725189	
53	239.96098685264587	fix_post	2		12	51.0	2.5	/experiments/Knapen_AOT/AOT_stimuli/rescaled_final/0551_rv.mp4	0.0	256.6125257015228	0.10001254081726074
54	240.06099939346313	fix_pre	0		119	52.0	2.5	/experiments/Knapen_AOT/AOT_stimuli/rescaled_final/0494_rv.mp4	0.0	256.7125382423401	1.0001435279846191
54	241.04482913017273	pulse	0	t		52.0	2.5	/experiments/Knapen_AOT/AOT_stimuli/rescaled_final/0494_rv.mp4	0.0	257.6963679790497	
54	241.06114292144775	movie	1		281	52.0	2.5	/experiments/Knapen_AOT/AOT_stimuli/rescaled_final/0494_rv.mp4	0.0	257.7126817703247	2.5003607273101807
54	242.64353013038635	pulse	1	t		52.0	2.5	/experiments/Knapen_AOT/AOT_stimuli/rescaled_final/0494_rv.mp4	0.0	259.2950689792633	
54	243.56150364875793	fix_post	2		12	52.0	2.5	/experiments/Knapen_AOT/AOT_stimuli/rescaled_final/0494_rv.mp4	0.0	260.2130424976349	0.10004591941833496
55	243.66154956817627	fix_pre	0		120	53.0	2.5	/experiments/Knapen_AOT/AOT_stimuli/rescaled_final/1697_rv.mp4	0.0	260.3130884170532	1.008512258529663
55	244.24529671669006	pulse	0	t		53.0	2.5	/experiments/Knapen_AOT/AOT_stimuli/rescaled_final/1697_rv.mp4	0.0	260.896835565567	
55	244.67006182670593	movie	1		285	53.0	2.5	/experiments/Knapen_AOT/AOT_stimuli/rescaled_final/1697_rv.mp4	0.0	261.3216006755829	2.4920268058776855
55	245.84422159194946	pulse	1	t		53.0	2.5	/experiments/Knapen_AOT/AOT_stimuli/rescaled_final/1697_rv.mp4	0.0	262.4957604408264	
55	247.16208863258362	fix_post	2		12	53.0	2.5	/experiments/Knapen_AOT/AOT_stimuli/rescaled_final/1697_rv.mp4	0.0	263.81362748146057	0.10006952285766602
56	247.26215815544128	fix_pre	0		120	54.0	2.5	/experiments/Knapen_AOT/AOT_stimuli/rescaled_final/1484_fw.mp4	0.0	263.91369700431824	1.0084097385406494
56	247.4456558227539	pulse	0	t		54.0	2.5	/experiments/Knapen_AOT/AOT_stimuli/rescaled_final/1484_fw.mp4	0.0	264.09719467163086	
56	248.27056789398193	movie	1		285	54.0	2.5	/experiments/Knapen_AOT/AOT_stimuli/rescaled_final/1484_fw.mp4	0.0	264.9221067428589	2.492039918899536
56	249.04404520988464	pulse	1	t		54.0	2.5	/experiments/Knapen_AOT/AOT_stimuli/rescaled_final/1484_fw.mp4	0.0	265.6955840587616	
56	250.64436507225037	pulse	1	t		54.0	2.5	/experiments/Knapen_AOT/AOT_stimuli/rescaled_final/1484_fw.mp4	0.0	267.2959039211273	
56	250.76260781288147	fix_post	2		12	54.0	2.5	/experiments/Knapen_AOT/AOT_stimuli/rescaled_final/1484_fw.mp4	0.0	267.4141466617584	0.10005807876586914
57	250.86266589164734	fix_pre	0		120	55.0	2.5	blank	1.0	267.5142047405243	1.0001602172851562
57	251.8628261089325	movie	1		300	55.0	2.5	blank	1.0	268.51436495780945	2.5003538131713867
57	252.24637651443481	pulse	1	t		55.0	2.5	blank	1.0	268.89791536331177	
57	253.8466191291809	pulse	1	t		55.0	2.5	blank	1.0	270.49815797805786	
57	254.36317992210388	fix_post	2		12	55.0	2.5	blank	1.0	271.01471877098083	0.10002255439758301
58	254.46320247650146	fix_pre	0		119	56.0	2.5	/experiments/Knapen_AOT/AOT_stimuli/rescaled_final/1046_rv.mp4	0.0	271.1147413253784	1.0084853172302246
58	255.44688320159912	pulse	0	t		56.0	2.5	/experiments/Knapen_AOT/AOT_stimuli/rescaled_final/1046_rv.mp4	0.0	272.0984220504761	
58	255.4716877937317	movie	1		280	56.0	2.5	/experiments/Knapen_AOT/AOT_stimuli/rescaled_final/1046_rv.mp4	0.0	272.12322664260864	2.4919965267181396
58	257.04583501815796	pulse	1	t		56.0	2.5	/experiments/Knapen_AOT/AOT_stimuli/rescaled_final/1046_rv.mp4	0.0	273.6973738670349	
58	257.96368432044983	fix_post	2		12	56.0	2.5	/experiments/Knapen_AOT/AOT_stimuli/rescaled_final/1046_rv.mp4	0.0	274.6152231693268	0.10016417503356934
59	258.0638484954834	fix_pre	0		120	57.0	2.5	/experiments/Knapen_AOT/AOT_stimuli/rescaled_final/0097_rv.mp4	0.0	274.71538734436035	1.0083229541778564
59	258.6476492881775	pulse	0	t		57.0	2.5	/experiments/Knapen_AOT/AOT_stimuli/rescaled_final/0097_rv.mp4	0.0	275.29918813705444	
59	259.07217144966125	movie	1		290	57.0	2.5	/experiments/Knapen_AOT/AOT_stimuli/rescaled_final/0097_rv.mp4	0.0	275.7237102985382	2.4920427799224854
59	260.24574518203735	pulse	1	t		57.0	2.5	/experiments/Knapen_AOT/AOT_stimuli/rescaled_final/0097_rv.mp4	0.0	276.8972840309143	
59	261.56421422958374	fix_post	2		12	57.0	2.5	/experiments/Knapen_AOT/AOT_stimuli/rescaled_final/0097_rv.mp4	0.0	278.2157530784607	0.10007214546203613
60	261.6642863750458	fix_pre	0		120	58.0	2.5	/experiments/Knapen_AOT/AOT_stimuli/rescaled_final/1284_fw.mp4	0.0	278.31582522392273	1.008538007736206
60	261.8478624820709	pulse	0	t		58.0	2.5	/experiments/Knapen_AOT/AOT_stimuli/rescaled_final/1284_fw.mp4	0.0	278.4994013309479	
60	262.672824382782	movie	1		283	58.0	2.5	/experiments/Knapen_AOT/AOT_stimuli/rescaled_final/1284_fw.mp4	0.0	279.32436323165894	2.491938829421997
60	263.4461522102356	pulse	1	t		58.0	2.5	/experiments/Knapen_AOT/AOT_stimuli/rescaled_final/1284_fw.mp4	0.0	280.09769105911255	
60	265.04636096954346	pulse	1	t		58.0	2.5	/experiments/Knapen_AOT/AOT_stimuli/rescaled_final/1284_fw.mp4	0.0	281.6978998184204	
60	265.164763212204	fix_post	2		12	58.0	2.5	/experiments/Knapen_AOT/AOT_stimuli/rescaled_final/1284_fw.mp4	0.0	281.81630206108093	0.10004830360412598
61	265.2648115158081	fix_pre	0		120	59.0	2.5	/experiments/Knapen_AOT/AOT_stimuli/rescaled_final/0771_rv.mp4	0.0	281.91635036468506	1.0084545612335205
61	266.2732660770416	movie	1		286	59.0	2.5	/experiments/Knapen_AOT/AOT_stimuli/rescaled_final/0771_rv.mp4	0.0	282.9248049259186	2.492035388946533
61	266.6468825340271	pulse	1	t		59.0	2.5	/experiments/Knapen_AOT/AOT_stimuli/rescaled_final/0771_rv.mp4	0.0	283.29842138290405	
61	268.24731183052063	pulse	1	t		59.0	2.5	/experiments/Knapen_AOT/AOT_stimuli/rescaled_final/0771_rv.mp4	0.0	284.8988506793976	
61	268.76530146598816	fix_post	2		12	59.0	2.5	/experiments/Knapen_AOT/AOT_stimuli/rescaled_final/0771_rv.mp4	0.0	285.4168403148651	0.1000969409942627
62	268.8653984069824	fix_pre	0		119	60.0	2.5	/experiments/Knapen_AOT/AOT_stimuli/rescaled_final/1601_rv.mp4	0.0	285.5169372558594	1.0084564685821533
62	269.84131026268005	pulse	0	t		60.0	2.5	/experiments/Knapen_AOT/AOT_stimuli/rescaled_final/1601_rv.mp4	0.0	286.492849111557	
62	269.8738548755646	movie	1		287	60.0	2.5	/experiments/Knapen_AOT/AOT_stimuli/rescaled_final/1601_rv.mp4	0.0	286.5253937244415	2.492037534713745
62	271.44895005226135	pulse	1	t		60.0	2.5	/experiments/Knapen_AOT/AOT_stimuli/rescaled_final/1601_rv.mp4	0.0	288.1004889011383	
62	272.3658924102783	fix_post	2		12	60.0	2.5	/experiments/Knapen_AOT/AOT_stimuli/rescaled_final/1601_rv.mp4	0.0	289.0174312591553	0.10002875328063965
63	272.46592116355896	fix_pre	0		120	61.0	2.5	/experiments/Knapen_AOT/AOT_stimuli/rescaled_final/1700_rv.mp4	0.0	289.1174600124359	1.0084707736968994
63	273.04123640060425	pulse	0	t		61.0	2.5	/experiments/Knapen_AOT/AOT_stimuli/rescaled_final/1700_rv.mp4	0.0	289.6927752494812	
63	273.47439193725586	movie	1		285	61.0	2.5	/experiments/Knapen_AOT/AOT_stimuli/rescaled_final/1700_rv.mp4	0.0	290.1259307861328	2.4920074939727783
63	274.64168882369995	pulse	1	t		61.0	2.5	/experiments/Knapen_AOT/AOT_stimuli/rescaled_final/1700_rv.mp4	0.0	291.2932276725769	
63	275.96639943122864	fix_post	2		12	61.0	2.5	/experiments/Knapen_AOT/AOT_stimuli/rescaled_final/1700_rv.mp4	0.0	292.6179382801056	0.10005068778991699
64	276.06645011901855	fix_pre	0		120	62.0	2.5	/experiments/Knapen_AOT/AOT_stimuli/rescaled_final/0833_fw.mp4	0.0	292.7179889678955	1.0084409713745117
64	276.2417652606964	pulse	0	t		62.0	2.5	/experiments/Knapen_AOT/AOT_stimuli/rescaled_final/0833_fw.mp4	0.0	292.89330410957336	
64	277.07489109039307	movie	1		283	62.0	2.5	/experiments/Knapen_AOT/AOT_stimuli/rescaled_final/0833_fw.mp4	0.0	293.72642993927	2.4920496940612793
64	277.8419659137726	pulse	1	t		62.0	2.5	/experiments/Knapen_AOT/AOT_stimuli/rescaled_final/0833_fw.mp4	0.0	294.49350476264954	
64	279.4421634674072	pulse	1	t		62.0	2.5	/experiments/Knapen_AOT/AOT_stimuli/rescaled_final/0833_fw.mp4	0.0	296.0937023162842	
64	279.56694078445435	fix_post	2		12	62.0	2.5	/experiments/Knapen_AOT/AOT_stimuli/rescaled_final/0833_fw.mp4	0.0	296.2184796333313	0.10010576248168945
65	279.66704654693604	fix_pre	0		120	63.0	2.5	blank	1.0	296.318585395813	1.000077247619629
65	280.66712379455566	movie	1		300	63.0	2.5	blank	1.0	297.3186626434326	2.5003817081451416
65	281.04235768318176	pulse	1	t		63.0	2.5	blank	1.0	297.6938965320587	
65	282.64290165901184	pulse	1	t		63.0	2.5	blank	1.0	299.2944405078888	
65	283.1675055027008	fix_post	2		12	63.0	2.5	blank	1.0	299.81904435157776	0.1000206470489502
66	283.26752614974976	fix_pre	0		118	64.0	2.5	/experiments/Knapen_AOT/AOT_stimuli/rescaled_final/1947_fw.mp4	0.0	299.9190649986267	1.0001356601715088
66	284.24280166625977	pulse	0	t		64.0	2.5	/experiments/Knapen_AOT/AOT_stimuli/rescaled_final/1947_fw.mp4	0.0	300.8943405151367	
66	284.26766180992126	movie	1		288	64.0	2.5	/experiments/Knapen_AOT/AOT_stimuli/rescaled_final/1947_fw.mp4	0.0	300.9192006587982	2.492011308670044
66	285.8416998386383	pulse	1	t		64.0	2.5	/experiments/Knapen_AOT/AOT_stimuli/rescaled_final/1947_fw.mp4	0.0	302.49323868751526	
66	286.7596731185913	fix_post	2		12	64.0	2.5	/experiments/Knapen_AOT/AOT_stimuli/rescaled_final/1947_fw.mp4	0.0	303.41121196746826	0.10018348693847656
67	286.8598566055298	fix_pre	0		120	65.0	2.5	/experiments/Knapen_AOT/AOT_stimuli/rescaled_final/0180_rv.mp4	0.0	303.51139545440674	1.008373737335205
67	287.4435062408447	pulse	0	t		65.0	2.5	/experiments/Knapen_AOT/AOT_stimuli/rescaled_final/0180_rv.mp4	0.0	304.0950450897217	
67	287.868230342865	movie	1		281	65.0	2.5	/experiments/Knapen_AOT/AOT_stimuli/rescaled_final/0180_rv.mp4	0.0	304.51976919174194	2.4920401573181152
67	289.04262256622314	pulse	1	t		65.0	2.5	/experiments/Knapen_AOT/AOT_stimuli/rescaled_final/0180_rv.mp4	0.0	305.6941614151001	
67	290.3602705001831	fix_post	2		12	65.0	2.5	/experiments/Knapen_AOT/AOT_stimuli/rescaled_final/0180_rv.mp4	0.0	307.01180934906006	0.10003852844238281
68	290.4603090286255	fix_pre	0		120	66.0	2.5	/experiments/Knapen_AOT/AOT_stimuli/rescaled_final/1170_rv.mp4	0.0	307.11184787750244	1.0084364414215088
68	290.643794298172	pulse	0	t		66.0	2.5	/experiments/Knapen_AOT/AOT_stimuli/rescaled_final/1170_rv.mp4	0.0	307.29533314704895	
68	291.468745470047	movie	1		282	66.0	2.5	/experiments/Knapen_AOT/AOT_stimuli/rescaled_final/1170_rv.mp4	0.0	308.12028431892395	2.492009162902832
68	292.2422115802765	pulse	1	t		66.0	2.5	/experiments/Knapen_AOT/AOT_stimuli/rescaled_final/1170_rv.mp4	0.0	308.89375042915344	
68	293.84391736984253	pulse	1	t		66.0	2.5	/experiments/Knapen_AOT/AOT_stimuli/rescaled_final/1170_rv.mp4	0.0	310.4954562187195	
68	293.96075463294983	fix_post	2		12	66.0	2.5	/experiments/Knapen_AOT/AOT_stimuli/rescaled_final/1170_rv.mp4	0.0	310.6122934818268	0.10015511512756348
69	294.0609097480774	fix_pre	0		120	67.0	2.5	/experiments/Knapen_AOT/AOT_stimuli/rescaled_final/0429_fw.mp4	0.0	310.71244859695435	1.008408546447754
69	295.06931829452515	movie	1		286	67.0	2.5	/experiments/Knapen_AOT/AOT_stimuli/rescaled_final/0429_fw.mp4	0.0	311.7208571434021	2.4919838905334473
69	295.44345116615295	pulse	1	t		67.0	2.5	/experiments/Knapen_AOT/AOT_stimuli/rescaled_final/0429_fw.mp4	0.0	312.0949900150299	
69	297.0427870750427	pulse	1	t		67.0	2.5	/experiments/Knapen_AOT/AOT_stimuli/rescaled_final/0429_fw.mp4	0.0	313.6943259239197	
69	297.5613021850586	fix_post	2		12	67.0	2.5	/experiments/Knapen_AOT/AOT_stimuli/rescaled_final/0429_fw.mp4	0.0	314.21284103393555	0.10005998611450195
70	297.6613621711731	fix_pre	0		119	68.0	2.5	/experiments/Knapen_AOT/AOT_stimuli/rescaled_final/0494_rv.mp4	0.0	314.31290102005005	1.0084822177886963
70	298.6452360153198	pulse	0	t		68.0	2.5	/experiments/Knapen_AOT/AOT_stimuli/rescaled_final/0494_rv.mp4	0.0	315.2967748641968	
70	298.6698443889618	movie	1		287	68.0	2.5	/experiments/Knapen_AOT/AOT_stimuli/rescaled_final/0494_rv.mp4	0.0	315.32138323783875	2.492002010345459
70	300.2438967227936	pulse	1	t		68.0	2.5	/experiments/Knapen_AOT/AOT_stimuli/rescaled_final/0494_rv.mp4	0.0	316.89543557167053	
70	301.16184639930725	fix_post	2		12	68.0	2.5	/experiments/Knapen_AOT/AOT_stimuli/rescaled_final/0494_rv.mp4	0.0	317.8133852481842	0.1000664234161377
71	301.2619128227234	fix_pre	0		120	69.0	2.5	/experiments/Knapen_AOT/AOT_stimuli/rescaled_final/0449_rv.mp4	0.0	317.91345167160034	1.0084478855133057
71	301.84559059143066	pulse	0	t		69.0	2.5	/experiments/Knapen_AOT/AOT_stimuli/rescaled_final/0449_rv.mp4	0.0	318.4971294403076	
71	302.2703607082367	movie	1		282	69.0	2.5	/experiments/Knapen_AOT/AOT_stimuli/rescaled_final/0449_rv.mp4	0.0	318.92189955711365	2.4920194149017334
71	303.444210767746	pulse	1	t		69.0	2.5	/experiments/Knapen_AOT/AOT_stimuli/rescaled_final/0449_rv.mp4	0.0	320.0957496166229	
71	304.7623801231384	fix_post	2		12	69.0	2.5	/experiments/Knapen_AOT/AOT_stimuli/rescaled_final/0449_rv.mp4	0.0	321.4139189720154	0.10015535354614258
72	304.86253547668457	fix_pre	0		120	70.0	2.5	blank	1.0	321.5140743255615	1.0000619888305664
72	305.04686069488525	pulse	0	t		70.0	2.5	blank	1.0	321.6983995437622	
72	305.86259746551514	movie	1		300	70.0	2.5	blank	1.0	322.5141363143921	2.5003256797790527
72	306.6465530395508	pulse	1	t		70.0	2.5	blank	1.0	323.29809188842773	
72	308.2471532821655	pulse	1	t		70.0	2.5	blank	1.0	324.8986921310425	
72	308.3629231452942	fix_post	2		12	70.0	2.5	blank	1.0	325.01446199417114	0.10013651847839355
73	308.4630596637726	fix_pre	0		120	71.0	2.5	/experiments/Knapen_AOT/AOT_stimuli/rescaled_final/0200_fw.mp4	0.0	325.11459851264954	1.0083811283111572
73	309.47144079208374	movie	1		283	71.0	2.5	/experiments/Knapen_AOT/AOT_stimuli/rescaled_final/0200_fw.mp4	0.0	326.1229796409607	2.49204421043396
73	309.8460373878479	pulse	1	t		71.0	2.5	/experiments/Knapen_AOT/AOT_stimuli/rescaled_final/0200_fw.mp4	0.0	326.49757623672485	
73	311.44723892211914	pulse	1	t		71.0	2.5	/experiments/Knapen_AOT/AOT_stimuli/rescaled_final/0200_fw.mp4	0.0	328.0987777709961	
73	311.9634850025177	fix_post	2		12	71.0	2.5	/experiments/Knapen_AOT/AOT_stimuli/rescaled_final/0200_fw.mp4	0.0	328.61502385139465	0.1000218391418457
74	312.06350684165955	fix_pre	0		119	72.0	2.5	/experiments/Knapen_AOT/AOT_stimuli/rescaled_final/1677_rv.mp4	0.0	328.7150456905365	1.0001423358917236
74	313.0472869873047	pulse	0	t		72.0	2.5	/experiments/Knapen_AOT/AOT_stimuli/rescaled_final/1677_rv.mp4	0.0	329.69882583618164	
74	313.06364917755127	movie	1		291	72.0	2.5	/experiments/Knapen_AOT/AOT_stimuli/rescaled_final/1677_rv.mp4	0.0	329.7151880264282	2.5003581047058105
74	314.64721965789795	pulse	1	t		72.0	2.5	/experiments/Knapen_AOT/AOT_stimuli/rescaled_final/1677_rv.mp4	0.0	331.2987585067749	
74	315.5640072822571	fix_post	2		12	72.0	2.5	/experiments/Knapen_AOT/AOT_stimuli/rescaled_final/1677_rv.mp4	0.0	332.21554613113403	0.10005664825439453
75	315.6640639305115	fix_pre	0		120	73.0	2.5	/experiments/Knapen_AOT/AOT_stimuli/rescaled_final/1318_rv.mp4	0.0	332.3156027793884	1.008476972579956
75	316.2478668689728	pulse	0	t		73.0	2.5	/experiments/Knapen_AOT/AOT_stimuli/rescaled_final/1318_rv.mp4	0.0	332.89940571784973	
75	316.67254090309143	movie	1		272	73.0	2.5	/experiments/Knapen_AOT/AOT_stimuli/rescaled_final/1318_rv.mp4	0.0	333.3240797519684	2.4920494556427
75	317.8481788635254	pulse	1	t		73.0	2.5	/experiments/Knapen_AOT/AOT_stimuli/rescaled_final/1318_rv.mp4	0.0	334.49971771240234	
75	319.16459035873413	fix_post	2		12	73.0	2.5	/experiments/Knapen_AOT/AOT_stimuli/rescaled_final/1318_rv.mp4	0.0	335.8161292076111	0.10000324249267578
76	319.2645936012268	fix_pre	0		120	74.0	2.5	/experiments/Knapen_AOT/AOT_stimuli/rescaled_final/0740_fw.mp4	0.0	335.91613245010376	1.0084705352783203
76	319.44811630249023	pulse	0	t		74.0	2.5	/experiments/Knapen_AOT/AOT_stimuli/rescaled_final/0740_fw.mp4	0.0	336.0996551513672	
76	320.2730641365051	movie	1		288	74.0	2.5	/experiments/Knapen_AOT/AOT_stimuli/rescaled_final/0740_fw.mp4	0.0	336.9246029853821	2.4920923709869385
76	321.04661321640015	pulse	1	t		74.0	2.5	/experiments/Knapen_AOT/AOT_stimuli/rescaled_final/0740_fw.mp4	0.0	337.6981520652771	
76	322.64696288108826	pulse	1	t		74.0	2.5	/experiments/Knapen_AOT/AOT_stimuli/rescaled_final/0740_fw.mp4	0.0	339.2985017299652	
76	322.76515650749207	fix_post	2		12	74.0	2.5	/experiments/Knapen_AOT/AOT_stimuli/rescaled_final/0740_fw.mp4	0.0	339.416695356369	0.09998798370361328
77	322.8651444911957	fix_pre	0		120	75.0	2.5	/experiments/Knapen_AOT/AOT_stimuli/rescaled_final/0180_fw.mp4	0.0	339.51668334007263	1.008472204208374
77	323.87361669540405	movie	1		281	75.0	2.5	/experiments/Knapen_AOT/AOT_stimuli/rescaled_final/0180_fw.mp4	0.0	340.525155544281	2.4920198917388916
77	324.2472925186157	pulse	1	t		75.0	2.5	/experiments/Knapen_AOT/AOT_stimuli/rescaled_final/0180_fw.mp4	0.0	340.8988313674927	
77	325.84725427627563	pulse	1	t		75.0	2.5	/experiments/Knapen_AOT/AOT_stimuli/rescaled_final/0180_fw.mp4	0.0	342.4987931251526	
77	326.36563658714294	fix_post	2		12	75.0	2.5	/experiments/Knapen_AOT/AOT_stimuli/rescaled_final/0180_fw.mp4	0.0	343.0171754360199	0.10004258155822754
78	326.4656791687012	fix_pre	0		119	76.0	2.5	/experiments/Knapen_AOT/AOT_stimuli/rescaled_final/0747_rv.mp4	0.0	343.1172180175781	1.00014066696167
78	327.4423213005066	pulse	0	t		76.0	2.5	/experiments/Knapen_AOT/AOT_stimuli/rescaled_final/0747_rv.mp4	0.0	344.09386014938354	
78	327.46581983566284	movie	1		281	76.0	2.5	/experiments/Knapen_AOT/AOT_stimuli/rescaled_final/0747_rv.mp4	0.0	344.1173586845398	2.5003888607025146
78	329.04820799827576	pulse	1	t		76.0	2.5	/experiments/Knapen_AOT/AOT_stimuli/rescaled_final/0747_rv.mp4	0.0	345.6997468471527	
78	329.96620869636536	fix_post	2		12	76.0	2.5	/experiments/Knapen_AOT/AOT_stimuli/rescaled_final/0747_rv.mp4	0.0	346.6177475452423	0.10000801086425781
79	330.0662167072296	fix_pre	0		120	77.0	2.5	blank	1.0	346.71775555610657	1.0002422332763672
79	330.6417307853699	pulse	0	t		77.0	2.5	blank	1.0	347.2932696342468	
79	331.066458940506	movie	1		300	77.0	2.5	blank	1.0	347.71799778938293	2.5002782344818115
79	332.24195671081543	pulse	1	t		77.0	2.5	blank	1.0	348.8934955596924	
79	333.5667371749878	fix_post	2		12	77.0	2.5	blank	1.0	350.21827602386475	0.10013341903686523
80	333.66687059402466	fix_pre	0		120	78.0	2.5	/experiments/Knapen_AOT/AOT_stimuli/rescaled_final/1791_fw.mp4	0.0	350.3184094429016	1.0084590911865234
80	333.8421223163605	pulse	0	t		78.0	2.5	/experiments/Knapen_AOT/AOT_stimuli/rescaled_final/1791_fw.mp4	0.0	350.4936611652374	
80	334.6753296852112	movie	1		269	78.0	2.5	/experiments/Knapen_AOT/AOT_stimuli/rescaled_final/1791_fw.mp4	0.0	351.32686853408813	2.4920239448547363
80	335.4422731399536	pulse	1	t		78.0	2.5	/experiments/Knapen_AOT/AOT_stimuli/rescaled_final/1791_fw.mp4	0.0	352.09381198883057	
80	337.04256677627563	pulse	1	t		78.0	2.5	/experiments/Knapen_AOT/AOT_stimuli/rescaled_final/1791_fw.mp4	0.0	353.6941056251526	
80	337.1673536300659	fix_post	2		12	78.0	2.5	/experiments/Knapen_AOT/AOT_stimuli/rescaled_final/1791_fw.mp4	0.0	353.81889247894287	0.0999758243560791
81	337.267329454422	fix_pre	0		120	79.0	2.5	/experiments/Knapen_AOT/AOT_stimuli/rescaled_final/0150_rv.mp4	0.0	353.91886830329895	1.0085117816925049
81	338.2758412361145	movie	1		280	79.0	2.5	/experiments/Knapen_AOT/AOT_stimuli/rescaled_final/0150_rv.mp4	0.0	354.92738008499146	2.4919581413269043
81	338.64271879196167	pulse	1	t		79.0	2.5	/experiments/Knapen_AOT/AOT_stimuli/rescaled_final/0150_rv.mp4	0.0	355.2942576408386	
81	340.24309515953064	pulse	1	t		79.0	2.5	/experiments/Knapen_AOT/AOT_stimuli/rescaled_final/0150_rv.mp4	0.0	356.8946340084076	
81	340.7677993774414	fix_post	2		12	79.0	2.5	/experiments/Knapen_AOT/AOT_stimuli/rescaled_final/0150_rv.mp4	0.0	357.41933822631836	0.10012984275817871
82	340.8679292201996	fix_pre	0		118	80.0	2.5	/experiments/Knapen_AOT/AOT_stimuli/rescaled_final/1308_fw.mp4	0.0	357.51946806907654	0.9917476177215576
82	341.8432149887085	pulse	0	t		80.0	2.5	/experiments/Knapen_AOT/AOT_stimuli/rescaled_final/1308_fw.mp4	0.0	358.49475383758545	
82	341.85967683792114	movie	1		281	80.0	2.5	/experiments/Knapen_AOT/AOT_stimuli/rescaled_final/1308_fw.mp4	0.0	358.5112156867981	2.5003788471221924
82	343.4421260356903	pulse	1	t		80.0	2.5	/experiments/Knapen_AOT/AOT_stimuli/rescaled_final/1308_fw.mp4	0.0	360.09366488456726	
82	344.36005568504333	fix_post	2		12	80.0	2.5	/experiments/Knapen_AOT/AOT_stimuli/rescaled_final/1308_fw.mp4	0.0	361.0115945339203	0.09996390342712402
83	344.46001958847046	fix_pre	0		120	81.0	2.5	/experiments/Knapen_AOT/AOT_stimuli/rescaled_final/1608_fw.mp4	0.0	361.1115584373474	1.0085279941558838
83	345.0437252521515	pulse	0	t		81.0	2.5	/experiments/Knapen_AOT/AOT_stimuli/rescaled_final/1608_fw.mp4	0.0	361.69526410102844	
83	345.46854758262634	movie	1		287	81.0	2.5	/experiments/Knapen_AOT/AOT_stimuli/rescaled_final/1608_fw.mp4	0.0	362.1200864315033	2.492007255554199
83	346.64214992523193	pulse	1	t		81.0	2.5	/experiments/Knapen_AOT/AOT_stimuli/rescaled_final/1608_fw.mp4	0.0	363.2936887741089	
83	347.96055483818054	fix_post	2		12	81.0	2.5	/experiments/Knapen_AOT/AOT_stimuli/rescaled_final/1608_fw.mp4	0.0	364.6120936870575	0.10002422332763672
84	348.0605790615082	fix_pre	0		120	82.0	2.5	/experiments/Knapen_AOT/AOT_stimuli/rescaled_final/0686_rv.mp4	0.0	364.71211791038513	1.0084893703460693
84	348.2441601753235	pulse	0	t		82.0	2.5	/experiments/Knapen_AOT/AOT_stimuli/rescaled_final/0686_rv.mp4	0.0	364.89569902420044	
84	349.06906843185425	movie	1		291	82.0	2.5	/experiments/Knapen_AOT/AOT_stimuli/rescaled_final/0686_rv.mp4	0.0	365.7206072807312	2.492055654525757
84	349.84351778030396	pulse	1	t		82.0	2.5	/experiments/Knapen_AOT/AOT_stimuli/rescaled_final/0686_rv.mp4	0.0	366.4950566291809	
84	351.44284558296204	pulse	1	t		82.0	2.5	/experiments/Knapen_AOT/AOT_stimuli/rescaled_final/0686_rv.mp4	0.0	368.094384431839	
84	351.56112408638	fix_post	2		12	82.0	2.5	/experiments/Knapen_AOT/AOT_stimuli/rescaled_final/0686_rv.mp4	0.0	368.21266293525696	0.10014629364013672
85	351.66127038002014	fix_pre	0		120	83.0	2.5	blank	1.0	368.3128092288971	1.000086784362793
85	352.66135716438293	movie	1		300	83.0	2.5	blank	1.0	369.3128960132599	2.5002801418304443
85	353.0448246002197	pulse	1	t		83.0	2.5	blank	1.0	369.6963634490967	
85	354.64519143104553	pulse	1	t		83.0	2.5	blank	1.0	371.2967302799225	
85	355.1616373062134	fix_post	2		12	83.0	2.5	blank	1.0	371.81317615509033	0.1250154972076416
87	355.286652803421	stim	0		1712					371.938191652298	14.26882791519165
87	356.2454979419708	pulse	0	t						372.8970367908478	
87	357.84558296203613	pulse	0	t						374.4971218109131	
87	359.44583678245544	pulse	0	t						376.0973756313324	
87	361.0461308956146	pulse	0	t						377.6976697444916	
87	362.646360874176	pulse	0	t						379.297899723053	
87	364.24659752845764	pulse	0	t						380.8981363773346	
87	365.8467493057251	pulse	0	t						382.49828815460205	
87	367.4470293521881	pulse	0	t						384.09856820106506	
87	369.0472674369812	pulse	0	t						385.69880628585815	
