trial_nr	onset	event_type	phase	response	nr_frames	movie_index	movie_duration	movie_file	blank	onset_abs	duration
0	0.13283801078796387	stim	0		19					41.69189500808716	0.1586611270904541
0	0.28347301483154297	response	0	space						41.84253001213074	
1	0.29149913787841797	stim	0		4666					41.85055613517761	38.882709980010986
1	39.171184062957764	pulse	0	t						80.73024106025696	
1	39.174209117889404	stim	1		1717					80.7332661151886	14.308753967285156
1	40.76661705970764	pulse	1	t						82.32567405700684	
1	42.36648416519165	pulse	1	t						83.92554116249084	
1	43.9664351940155	pulse	1	t						85.5254921913147	
1	45.56649708747864	pulse	1	t						87.12555408477783	
1	47.16641902923584	pulse	1	t						88.72547602653503	
1	48.76642918586731	pulse	1	t						90.3254861831665	
1	50.366446018218994	pulse	1	t						91.92550301551819	
1	51.96639108657837	pulse	1	t						93.52544808387756	
2	53.48296308517456	fix_pre	0		11	0.0	2.5	/experiments/AOT/AOT_stimuli/rescaled_final/0276_fw.mp4	0.0	95.04202008247375	0.09167098999023438
2	53.566450119018555	pulse	0	t		0.0	2.5	/experiments/AOT/AOT_stimuli/rescaled_final/0276_fw.mp4	0.0	95.12550711631775	
2	53.574634075164795	movie	1		241	0.0	2.5	/experiments/AOT/AOT_stimuli/rescaled_final/0276_fw.mp4	0.0	95.13369107246399	2.507904052734375
2	55.16597604751587	pulse	1	t		0.0	2.5	/experiments/AOT/AOT_stimuli/rescaled_final/0276_fw.mp4	0.0	96.72503304481506	
2	56.08253812789917	fix_post	2		12	0.0	2.5	/experiments/AOT/AOT_stimuli/rescaled_final/0276_fw.mp4	0.0	97.64159512519836	0.10046005249023438
3	56.182998180389404	fix_pre	0		120	1.0	2.5	/experiments/AOT/AOT_stimuli/rescaled_final/1971_fw.mp4	0.0	97.7420551776886	0.999924898147583
3	56.766542196273804	pulse	0	t		1.0	2.5	/experiments/AOT/AOT_stimuli/rescaled_final/1971_fw.mp4	0.0	98.325599193573	
3	57.18292307853699	movie	1		244	1.0	2.5	/experiments/AOT/AOT_stimuli/rescaled_final/1971_fw.mp4	0.0	98.74198007583618	2.4996120929718018
3	58.36674118041992	pulse	1	t		1.0	2.5	/experiments/AOT/AOT_stimuli/rescaled_final/1971_fw.mp4	0.0	99.92579817771912	
3	59.68253517150879	fix_post	2		12	1.0	2.5	/experiments/AOT/AOT_stimuli/rescaled_final/1971_fw.mp4	0.0	101.24159216880798	0.10040879249572754
4	59.78294396400452	fix_pre	0		120	2.0	2.5	/experiments/AOT/AOT_stimuli/rescaled_final/0975_rv.mp4	0.0	101.34200096130371	0.9996180534362793
4	59.96598815917969	pulse	0	t		2.0	2.5	/experiments/AOT/AOT_stimuli/rescaled_final/0975_rv.mp4	0.0	101.52504515647888	
4	60.782562017440796	movie	1		242	2.0	2.5	/experiments/AOT/AOT_stimuli/rescaled_final/0975_rv.mp4	0.0	102.34161901473999	2.500286102294922
4	61.56602716445923	pulse	1	t		2.0	2.5	/experiments/AOT/AOT_stimuli/rescaled_final/0975_rv.mp4	0.0	103.12508416175842	
4	63.16500210762024	pulse	1	t		2.0	2.5	/experiments/AOT/AOT_stimuli/rescaled_final/0975_rv.mp4	0.0	104.72405910491943	
4	63.28284811973572	fix_post	2		12	2.0	2.5	/experiments/AOT/AOT_stimuli/rescaled_final/0975_rv.mp4	0.0	104.84190511703491	0.10011100769042969
5	63.38295912742615	fix_pre	0		120	3.0	2.5	/experiments/AOT/AOT_stimuli/rescaled_final/1922_rv.mp4	0.0	104.94201612472534	0.9999949932098389
5	64.38295412063599	movie	1		243	3.0	2.5	/experiments/AOT/AOT_stimuli/rescaled_final/1922_rv.mp4	0.0	105.94201111793518	2.4995079040527344
5	64.76629400253296	pulse	1	t		3.0	2.5	/experiments/AOT/AOT_stimuli/rescaled_final/1922_rv.mp4	0.0	106.32535099983215	
5	66.36638712882996	pulse	1	t		3.0	2.5	/experiments/AOT/AOT_stimuli/rescaled_final/1922_rv.mp4	0.0	107.92544412612915	
5	66.88246202468872	fix_post	2		12	3.0	2.5	/experiments/AOT/AOT_stimuli/rescaled_final/1922_rv.mp4	0.0	108.44151902198792	0.10001206398010254
6	66.98247408866882	fix_pre	0		119	4.0	2.5	/experiments/AOT/AOT_stimuli/rescaled_final/1716_rv.mp4	0.0	108.54153108596802	0.9921009540557861
6	67.96647500991821	pulse	0	t		4.0	2.5	/experiments/AOT/AOT_stimuli/rescaled_final/1716_rv.mp4	0.0	109.52553200721741	
6	67.97457504272461	movie	1		244	4.0	2.5	/experiments/AOT/AOT_stimuli/rescaled_final/1716_rv.mp4	0.0	109.5336320400238	2.5079519748687744
6	69.56749510765076	pulse	1	t		4.0	2.5	/experiments/AOT/AOT_stimuli/rescaled_final/1716_rv.mp4	0.0	111.12655210494995	
6	70.48252701759338	fix_post	2		12	4.0	2.5	/experiments/AOT/AOT_stimuli/rescaled_final/1716_rv.mp4	0.0	112.04158401489258	0.1003410816192627
7	70.58286809921265	fix_pre	0		120	5.0	2.5	/experiments/AOT/AOT_stimuli/rescaled_final/1312_fw.mp4	0.0	112.14192509651184	1.000006914138794
7	71.16637706756592	pulse	0	t		5.0	2.5	/experiments/AOT/AOT_stimuli/rescaled_final/1312_fw.mp4	0.0	112.72543406486511	
7	71.58287501335144	movie	1		244	5.0	2.5	/experiments/AOT/AOT_stimuli/rescaled_final/1312_fw.mp4	0.0	113.14193201065063	2.4995579719543457
7	72.76639914512634	pulse	1	t		5.0	2.5	/experiments/AOT/AOT_stimuli/rescaled_final/1312_fw.mp4	0.0	114.32545614242554	
7	74.08243298530579	fix_post	2		12	5.0	2.5	/experiments/AOT/AOT_stimuli/rescaled_final/1312_fw.mp4	0.0	115.64148998260498	0.10002517700195312
8	74.18245816230774	fix_pre	0		120	6.0	2.5	/experiments/AOT/AOT_stimuli/rescaled_final/1964_rv.mp4	0.0	115.74151515960693	1.0003798007965088
8	74.36641716957092	pulse	0	t		6.0	2.5	/experiments/AOT/AOT_stimuli/rescaled_final/1964_rv.mp4	0.0	115.92547416687012	
8	75.18283796310425	movie	1		246	6.0	2.5	/experiments/AOT/AOT_stimuli/rescaled_final/1964_rv.mp4	0.0	116.74189496040344	2.4996531009674072
8	75.96635007858276	pulse	1	t		6.0	2.5	/experiments/AOT/AOT_stimuli/rescaled_final/1964_rv.mp4	0.0	117.52540707588196	
8	77.56494402885437	pulse	1	t		6.0	2.5	/experiments/AOT/AOT_stimuli/rescaled_final/1964_rv.mp4	0.0	119.12400102615356	
8	77.68249106407166	fix_post	2		12	6.0	2.5	/experiments/AOT/AOT_stimuli/rescaled_final/1964_rv.mp4	0.0	119.24154806137085	0.10033512115478516
9	77.78282618522644	fix_pre	0		120	7.0	2.5	blank	1.0	119.34188318252563	0.9996597766876221
9	78.78248596191406	movie	1		300	7.0	2.5	blank	1.0	120.34154295921326	2.5003130435943604
9	79.16641998291016	pulse	1	t		7.0	2.5	blank	1.0	120.72547698020935	
9	80.76637005805969	pulse	1	t		7.0	2.5	blank	1.0	122.32542705535889	
9	81.28279900550842	fix_post	2		12	7.0	2.5	blank	1.0	122.84185600280762	0.10008406639099121
10	81.38288307189941	fix_pre	0		119	8.0	2.5	/experiments/AOT/AOT_stimuli/rescaled_final/2014_fw.mp4	0.0	122.94194006919861	0.9916191101074219
10	82.36634802818298	pulse	0	t		8.0	2.5	/experiments/AOT/AOT_stimuli/rescaled_final/2014_fw.mp4	0.0	123.92540502548218	
10	82.37450218200684	movie	1		247	8.0	2.5	/experiments/AOT/AOT_stimuli/rescaled_final/2014_fw.mp4	0.0	123.93355917930603	2.5078959465026855
10	83.96809005737305	pulse	1	t		8.0	2.5	/experiments/AOT/AOT_stimuli/rescaled_final/2014_fw.mp4	0.0	125.52714705467224	
10	84.88239812850952	fix_post	2		12	8.0	2.5	/experiments/AOT/AOT_stimuli/rescaled_final/2014_fw.mp4	0.0	126.44145512580872	0.10040998458862305
11	84.98280811309814	fix_pre	0		120	9.0	2.5	/experiments/AOT/AOT_stimuli/rescaled_final/1044_rv.mp4	0.0	126.54186511039734	1.0000710487365723
11	85.56633114814758	pulse	0	t		9.0	2.5	/experiments/AOT/AOT_stimuli/rescaled_final/1044_rv.mp4	0.0	127.12538814544678	
11	85.98287916183472	movie	1		246	9.0	2.5	/experiments/AOT/AOT_stimuli/rescaled_final/1044_rv.mp4	0.0	127.54193615913391	2.4998779296875
11	87.16640496253967	pulse	1	t		9.0	2.5	/experiments/AOT/AOT_stimuli/rescaled_final/1044_rv.mp4	0.0	128.72546195983887	
11	88.48275709152222	fix_post	2		12	9.0	2.5	/experiments/AOT/AOT_stimuli/rescaled_final/1044_rv.mp4	0.0	130.0418140888214	0.10002994537353516
12	88.58278703689575	fix_pre	0		120	10.0	2.5	/experiments/AOT/AOT_stimuli/rescaled_final/0820_fw.mp4	0.0	130.14184403419495	0.9999730587005615
12	88.7663140296936	pulse	0	t		10.0	2.5	/experiments/AOT/AOT_stimuli/rescaled_final/0820_fw.mp4	0.0	130.3253710269928	
12	89.58276009559631	movie	1		243	10.0	2.5	/experiments/AOT/AOT_stimuli/rescaled_final/0820_fw.mp4	0.0	131.1418170928955	2.4995839595794678
12	90.36633896827698	pulse	1	t		10.0	2.5	/experiments/AOT/AOT_stimuli/rescaled_final/0820_fw.mp4	0.0	131.92539596557617	
12	91.96450614929199	pulse	1	t		10.0	2.5	/experiments/AOT/AOT_stimuli/rescaled_final/0820_fw.mp4	0.0	133.5235631465912	
12	92.08234405517578	fix_post	2		12	10.0	2.5	/experiments/AOT/AOT_stimuli/rescaled_final/0820_fw.mp4	0.0	133.64140105247498	0.1004021167755127
13	92.1827461719513	fix_pre	0		120	11.0	2.5	/experiments/AOT/AOT_stimuli/rescaled_final/1362_fw.mp4	0.0	133.7418031692505	1.0000269412994385
13	93.18277311325073	movie	1		243	11.0	2.5	/experiments/AOT/AOT_stimuli/rescaled_final/1362_fw.mp4	0.0	134.74183011054993	2.5000240802764893
13	93.56580996513367	pulse	1	t		11.0	2.5	/experiments/AOT/AOT_stimuli/rescaled_final/1362_fw.mp4	0.0	135.12486696243286	
13	95.16629099845886	pulse	1	t		11.0	2.5	/experiments/AOT/AOT_stimuli/rescaled_final/1362_fw.mp4	0.0	136.72534799575806	
13	95.68279719352722	fix_post	2		12	11.0	2.5	/experiments/AOT/AOT_stimuli/rescaled_final/1362_fw.mp4	0.0	137.24185419082642	0.09996891021728516
14	95.7827661037445	fix_pre	0		119	12.0	2.5	blank	1.0	137.3418231010437	0.9916269779205322
14	96.76628303527832	pulse	0	t		12.0	2.5	blank	1.0	138.32534003257751	
14	96.77439308166504	movie	1		301	12.0	2.5	blank	1.0	138.33345007896423	2.5083088874816895
14	98.36626601219177	pulse	1	t		12.0	2.5	blank	1.0	139.92532300949097	
14	99.28270196914673	fix_post	2		12	12.0	2.5	blank	1.0	140.84175896644592	0.1000051498413086
15	99.38270711898804	fix_pre	0		120	13.0	2.5	/experiments/AOT/AOT_stimuli/rescaled_final/0939_rv.mp4	0.0	140.94176411628723	1.0001139640808105
15	99.96623802185059	pulse	0	t		13.0	2.5	/experiments/AOT/AOT_stimuli/rescaled_final/0939_rv.mp4	0.0	141.52529501914978	
15	100.38282108306885	movie	1		244	13.0	2.5	/experiments/AOT/AOT_stimuli/rescaled_final/0939_rv.mp4	0.0	141.94187808036804	2.4994280338287354
15	101.5663480758667	pulse	1	t		13.0	2.5	/experiments/AOT/AOT_stimuli/rescaled_final/0939_rv.mp4	0.0	143.1254050731659	
15	102.88224911689758	fix_post	2		12	13.0	2.5	/experiments/AOT/AOT_stimuli/rescaled_final/0939_rv.mp4	0.0	144.44130611419678	0.10003185272216797
16	102.98228096961975	fix_pre	0		120	14.0	2.5	/experiments/AOT/AOT_stimuli/rescaled_final/1647_rv.mp4	0.0	144.54133796691895	1.0003721714019775
16	103.16627311706543	pulse	0	t		14.0	2.5	/experiments/AOT/AOT_stimuli/rescaled_final/1647_rv.mp4	0.0	144.72533011436462	
16	103.98265314102173	movie	1		243	14.0	2.5	/experiments/AOT/AOT_stimuli/rescaled_final/1647_rv.mp4	0.0	145.54171013832092	2.4996328353881836
16	104.7662341594696	pulse	1	t		14.0	2.5	/experiments/AOT/AOT_stimuli/rescaled_final/1647_rv.mp4	0.0	146.3252911567688	
16	106.36488008499146	pulse	1	t		14.0	2.5	/experiments/AOT/AOT_stimuli/rescaled_final/1647_rv.mp4	0.0	147.92393708229065	
16	106.48228597640991	fix_post	2		12	14.0	2.5	/experiments/AOT/AOT_stimuli/rescaled_final/1647_rv.mp4	0.0	148.0413429737091	0.10001015663146973
17	106.58229613304138	fix_pre	0		120	15.0	2.5	/experiments/AOT/AOT_stimuli/rescaled_final/1856_rv.mp4	0.0	148.14135313034058	1.0003900527954102
17	107.58268618583679	movie	1		243	15.0	2.5	/experiments/AOT/AOT_stimuli/rescaled_final/1856_rv.mp4	0.0	149.141743183136	2.499964952468872
17	107.96626210212708	pulse	1	t		15.0	2.5	/experiments/AOT/AOT_stimuli/rescaled_final/1856_rv.mp4	0.0	149.52531909942627	
17	109.56620907783508	pulse	1	t		15.0	2.5	/experiments/AOT/AOT_stimuli/rescaled_final/1856_rv.mp4	0.0	151.12526607513428	
17	110.08265113830566	fix_post	2		12	15.0	2.5	/experiments/AOT/AOT_stimuli/rescaled_final/1856_rv.mp4	0.0	151.64170813560486	0.09972596168518066
18	110.18237709999084	fix_pre	0		119	16.0	2.5	/experiments/AOT/AOT_stimuli/rescaled_final/2025_fw.mp4	0.0	151.74143409729004	0.991966962814331
18	111.16618704795837	pulse	0	t		16.0	2.5	/experiments/AOT/AOT_stimuli/rescaled_final/2025_fw.mp4	0.0	152.72524404525757	
18	111.17434406280518	movie	1		244	16.0	2.5	/experiments/AOT/AOT_stimuli/rescaled_final/2025_fw.mp4	0.0	152.73340106010437	2.508388042449951
18	112.76592016220093	pulse	1	t		16.0	2.5	/experiments/AOT/AOT_stimuli/rescaled_final/2025_fw.mp4	0.0	154.32497715950012	
18	113.68273210525513	fix_post	2		12	16.0	2.5	/experiments/AOT/AOT_stimuli/rescaled_final/2025_fw.mp4	0.0	155.24178910255432	0.10001587867736816
19	113.7827479839325	fix_pre	0		120	17.0	2.5	/experiments/AOT/AOT_stimuli/rescaled_final/1195_fw.mp4	0.0	155.3418049812317	0.9999241828918457
19	114.36622619628906	pulse	0	t		17.0	2.5	/experiments/AOT/AOT_stimuli/rescaled_final/1195_fw.mp4	0.0	155.92528319358826	
19	114.78267216682434	movie	1		245	17.0	2.5	/experiments/AOT/AOT_stimuli/rescaled_final/1195_fw.mp4	0.0	156.34172916412354	2.499985933303833
19	115.96574306488037	pulse	1	t		17.0	2.5	/experiments/AOT/AOT_stimuli/rescaled_final/1195_fw.mp4	0.0	157.52480006217957	
19	117.28265810012817	fix_post	2		12	17.0	2.5	/experiments/AOT/AOT_stimuli/rescaled_final/1195_fw.mp4	0.0	158.84171509742737	0.09969305992126465
20	117.38235116004944	fix_pre	0		120	18.0	2.5	/experiments/AOT/AOT_stimuli/rescaled_final/1828_fw.mp4	0.0	158.94140815734863	1.0000758171081543
20	117.56580114364624	pulse	0	t		18.0	2.5	/experiments/AOT/AOT_stimuli/rescaled_final/1828_fw.mp4	0.0	159.12485814094543	
20	118.38242697715759	movie	1		245	18.0	2.5	/experiments/AOT/AOT_stimuli/rescaled_final/1828_fw.mp4	0.0	159.9414839744568	2.5002260208129883
20	119.16597604751587	pulse	1	t		18.0	2.5	/experiments/AOT/AOT_stimuli/rescaled_final/1828_fw.mp4	0.0	160.72503304481506	
20	120.76475715637207	pulse	1	t		18.0	2.5	/experiments/AOT/AOT_stimuli/rescaled_final/1828_fw.mp4	0.0	162.32381415367126	
20	120.88265299797058	fix_post	2		12	18.0	2.5	/experiments/AOT/AOT_stimuli/rescaled_final/1828_fw.mp4	0.0	162.44170999526978	0.10005617141723633
21	120.98270916938782	fix_pre	0		120	19.0	2.5	/experiments/AOT/AOT_stimuli/rescaled_final/2096_fw.mp4	0.0	162.541766166687	0.9999089241027832
21	121.9826180934906	movie	1		247	19.0	2.5	/experiments/AOT/AOT_stimuli/rescaled_final/2096_fw.mp4	0.0	163.5416750907898	2.499988079071045
21	122.36581301689148	pulse	1	t		19.0	2.5	/experiments/AOT/AOT_stimuli/rescaled_final/2096_fw.mp4	0.0	163.92487001419067	
21	123.96620106697083	pulse	1	t		19.0	2.5	/experiments/AOT/AOT_stimuli/rescaled_final/2096_fw.mp4	0.0	165.52525806427002	
21	124.48260617256165	fix_post	2		12	19.0	2.5	/experiments/AOT/AOT_stimuli/rescaled_final/2096_fw.mp4	0.0	166.04166316986084	0.09999990463256836
22	124.58260607719421	fix_pre	0		119	20.0	2.5	blank	1.0	166.1416630744934	0.9916388988494873
22	125.56605195999146	pulse	0	t		20.0	2.5	blank	1.0	167.12510895729065	
22	125.5742449760437	movie	1		301	20.0	2.5	blank	1.0	167.1333019733429	2.508327007293701
22	127.16609406471252	pulse	1	t		20.0	2.5	blank	1.0	168.72515106201172	
22	128.0825719833374	fix_post	2		12	20.0	2.5	blank	1.0	169.6416289806366	0.10000300407409668
23	128.1825749874115	fix_pre	0		120	21.0	2.5	/experiments/AOT/AOT_stimuli/rescaled_final/0779_fw.mp4	0.0	169.7416319847107	0.9999830722808838
23	128.76607298851013	pulse	0	t		21.0	2.5	/experiments/AOT/AOT_stimuli/rescaled_final/0779_fw.mp4	0.0	170.32512998580933	
23	129.18255805969238	movie	1		247	21.0	2.5	/experiments/AOT/AOT_stimuli/rescaled_final/0779_fw.mp4	0.0	170.74161505699158	2.5000250339508057
23	130.36609601974487	pulse	1	t		21.0	2.5	/experiments/AOT/AOT_stimuli/rescaled_final/0779_fw.mp4	0.0	171.92515301704407	
23	131.6825830936432	fix_post	2		12	21.0	2.5	/experiments/AOT/AOT_stimuli/rescaled_final/0779_fw.mp4	0.0	173.24164009094238	0.10004186630249023
24	131.78262495994568	fix_pre	0		120	22.0	2.5	/experiments/AOT/AOT_stimuli/rescaled_final/0678_rv.mp4	0.0	173.34168195724487	0.9999241828918457
24	131.96608114242554	pulse	0	t		22.0	2.5	/experiments/AOT/AOT_stimuli/rescaled_final/0678_rv.mp4	0.0	173.52513813972473	
24	132.78254914283752	movie	1		243	22.0	2.5	/experiments/AOT/AOT_stimuli/rescaled_final/0678_rv.mp4	0.0	174.34160614013672	2.500011920928955
24	133.56603503227234	pulse	1	t		22.0	2.5	/experiments/AOT/AOT_stimuli/rescaled_final/0678_rv.mp4	0.0	175.12509202957153	
24	135.16439509391785	pulse	1	t		22.0	2.5	/experiments/AOT/AOT_stimuli/rescaled_final/0678_rv.mp4	0.0	176.72345209121704	
24	135.28256106376648	fix_post	2		12	22.0	2.5	/experiments/AOT/AOT_stimuli/rescaled_final/0678_rv.mp4	0.0	176.84161806106567	0.10005712509155273
25	135.38261818885803	fix_pre	0		120	23.0	2.5	/experiments/AOT/AOT_stimuli/rescaled_final/0235_fw.mp4	0.0	176.94167518615723	1.000006914138794
25	136.38262510299683	movie	1		244	23.0	2.5	/experiments/AOT/AOT_stimuli/rescaled_final/0235_fw.mp4	0.0	177.94168210029602	2.4998910427093506
25	136.76601219177246	pulse	1	t		23.0	2.5	/experiments/AOT/AOT_stimuli/rescaled_final/0235_fw.mp4	0.0	178.32506918907166	
25	138.3660111427307	pulse	1	t		23.0	2.5	/experiments/AOT/AOT_stimuli/rescaled_final/0235_fw.mp4	0.0	179.9250681400299	
25	138.88251614570618	fix_post	2		12	23.0	2.5	/experiments/AOT/AOT_stimuli/rescaled_final/0235_fw.mp4	0.0	180.44157314300537	0.10008883476257324
26	138.98260498046875	fix_pre	0		119	24.0	2.5	/experiments/AOT/AOT_stimuli/rescaled_final/0819_rv.mp4	0.0	180.54166197776794	0.9915821552276611
26	139.966078042984	pulse	0	t		24.0	2.5	/experiments/AOT/AOT_stimuli/rescaled_final/0819_rv.mp4	0.0	181.5251350402832	
26	139.9741871356964	movie	1		245	24.0	2.5	/experiments/AOT/AOT_stimuli/rescaled_final/0819_rv.mp4	0.0	181.5332441329956	2.508347988128662
26	141.5656759738922	pulse	1	t		24.0	2.5	/experiments/AOT/AOT_stimuli/rescaled_final/0819_rv.mp4	0.0	183.1247329711914	
26	142.48253512382507	fix_post	2		12	24.0	2.5	/experiments/AOT/AOT_stimuli/rescaled_final/0819_rv.mp4	0.0	184.04159212112427	0.09998583793640137
27	142.58252096176147	fix_pre	0		120	25.0	2.5	/experiments/AOT/AOT_stimuli/rescaled_final/2058_rv.mp4	0.0	184.14157795906067	0.9999780654907227
27	143.1660361289978	pulse	0	t		25.0	2.5	/experiments/AOT/AOT_stimuli/rescaled_final/2058_rv.mp4	0.0	184.725093126297	
27	143.5824990272522	movie	1		245	25.0	2.5	/experiments/AOT/AOT_stimuli/rescaled_final/2058_rv.mp4	0.0	185.1415560245514	2.4996840953826904
27	144.76610207557678	pulse	1	t		25.0	2.5	/experiments/AOT/AOT_stimuli/rescaled_final/2058_rv.mp4	0.0	186.32515907287598	
27	146.0821831226349	fix_post	2		12	25.0	2.5	/experiments/AOT/AOT_stimuli/rescaled_final/2058_rv.mp4	0.0	187.64124011993408	0.10036897659301758
28	146.1825520992279	fix_pre	0		120	26.0	2.5	/experiments/AOT/AOT_stimuli/rescaled_final/0530_rv.mp4	0.0	187.7416090965271	0.9999918937683105
28	146.36612796783447	pulse	0	t		26.0	2.5	/experiments/AOT/AOT_stimuli/rescaled_final/0530_rv.mp4	0.0	187.92518496513367	
28	147.18254399299622	movie	1		243	26.0	2.5	/experiments/AOT/AOT_stimuli/rescaled_final/0530_rv.mp4	0.0	188.7416009902954	2.499939203262329
28	147.9659571647644	pulse	1	t		26.0	2.5	/experiments/AOT/AOT_stimuli/rescaled_final/0530_rv.mp4	0.0	189.5250141620636	
28	149.56516003608704	pulse	1	t		26.0	2.5	/experiments/AOT/AOT_stimuli/rescaled_final/0530_rv.mp4	0.0	191.12421703338623	
28	149.68248319625854	fix_post	2		12	26.0	2.5	/experiments/AOT/AOT_stimuli/rescaled_final/0530_rv.mp4	0.0	191.24154019355774	0.09962081909179688
29	149.78210401535034	fix_pre	0		120	27.0	2.5	/experiments/AOT/AOT_stimuli/rescaled_final/1157_rv.mp4	0.0	191.34116101264954	1.0005271434783936
29	150.78263115882874	movie	1		244	27.0	2.5	/experiments/AOT/AOT_stimuli/rescaled_final/1157_rv.mp4	0.0	192.34168815612793	2.4998419284820557
29	151.16567707061768	pulse	1	t		27.0	2.5	/experiments/AOT/AOT_stimuli/rescaled_final/1157_rv.mp4	0.0	192.72473406791687	
29	152.76601314544678	pulse	1	t		27.0	2.5	/experiments/AOT/AOT_stimuli/rescaled_final/1157_rv.mp4	0.0	194.32507014274597	
29	153.2824730873108	fix_post	2		12	27.0	2.5	/experiments/AOT/AOT_stimuli/rescaled_final/1157_rv.mp4	0.0	194.84153008460999	0.09999895095825195
30	153.38247203826904	fix_pre	0		119	28.0	2.5	blank	1.0	194.94152903556824	0.9916460514068604
30	154.36603808403015	pulse	0	t		28.0	2.5	blank	1.0	195.92509508132935	
30	154.3741180896759	movie	1		301	28.0	2.5	blank	1.0	195.9331750869751	2.508333921432495
30	155.96601605415344	pulse	1	t		28.0	2.5	blank	1.0	197.52507305145264	
30	156.8824520111084	fix_post	2		12	28.0	2.5	blank	1.0	198.4415090084076	0.10003113746643066
31	156.98248314857483	fix_pre	0		120	29.0	2.5	/experiments/AOT/AOT_stimuli/rescaled_final/0519_fw.mp4	0.0	198.54154014587402	0.9999349117279053
31	157.56597900390625	pulse	0	t		29.0	2.5	/experiments/AOT/AOT_stimuli/rescaled_final/0519_fw.mp4	0.0	199.12503600120544	
31	157.98241806030273	movie	1		244	29.0	2.5	/experiments/AOT/AOT_stimuli/rescaled_final/0519_fw.mp4	0.0	199.54147505760193	2.5000410079956055
31	159.16604900360107	pulse	1	t		29.0	2.5	/experiments/AOT/AOT_stimuli/rescaled_final/0519_fw.mp4	0.0	200.72510600090027	
31	160.48245906829834	fix_post	2		12	29.0	2.5	/experiments/AOT/AOT_stimuli/rescaled_final/0519_fw.mp4	0.0	202.04151606559753	0.10004496574401855
32	160.58250403404236	fix_pre	0		120	30.0	2.5	/experiments/AOT/AOT_stimuli/rescaled_final/1707_rv.mp4	0.0	202.14156103134155	0.9999520778656006
32	160.7659740447998	pulse	0	t		30.0	2.5	/experiments/AOT/AOT_stimuli/rescaled_final/1707_rv.mp4	0.0	202.325031042099	
32	161.58245611190796	movie	1		243	30.0	2.5	/experiments/AOT/AOT_stimuli/rescaled_final/1707_rv.mp4	0.0	203.14151310920715	2.4999659061431885
32	162.365905046463	pulse	1	t		30.0	2.5	/experiments/AOT/AOT_stimuli/rescaled_final/1707_rv.mp4	0.0	203.9249620437622	
32	163.9643530845642	pulse	1	t		30.0	2.5	/experiments/AOT/AOT_stimuli/rescaled_final/1707_rv.mp4	0.0	205.5234100818634	
32	164.08242201805115	fix_post	2		12	30.0	2.5	/experiments/AOT/AOT_stimuli/rescaled_final/1707_rv.mp4	0.0	205.64147901535034	0.09999608993530273
33	164.18241810798645	fix_pre	0		120	31.0	2.5	/experiments/AOT/AOT_stimuli/rescaled_final/0873_fw.mp4	0.0	205.74147510528564	0.999579906463623
33	165.18199801445007	movie	1		244	31.0	2.5	/experiments/AOT/AOT_stimuli/rescaled_final/0873_fw.mp4	0.0	206.74105501174927	2.50004506111145
33	165.56567215919495	pulse	1	t		31.0	2.5	/experiments/AOT/AOT_stimuli/rescaled_final/0873_fw.mp4	0.0	207.12472915649414	
33	167.16604614257812	pulse	1	t		31.0	2.5	/experiments/AOT/AOT_stimuli/rescaled_final/0873_fw.mp4	0.0	208.72510313987732	
33	167.68204307556152	fix_post	2		12	31.0	2.5	/experiments/AOT/AOT_stimuli/rescaled_final/0873_fw.mp4	0.0	209.24110007286072	0.10037803649902344
34	167.78242111206055	fix_pre	0		119	32.0	2.5	/experiments/AOT/AOT_stimuli/rescaled_final/0438_fw.mp4	0.0	209.34147810935974	0.9916520118713379
34	168.76596999168396	pulse	0	t		32.0	2.5	/experiments/AOT/AOT_stimuli/rescaled_final/0438_fw.mp4	0.0	210.32502698898315	
34	168.77407312393188	movie	1		245	32.0	2.5	/experiments/AOT/AOT_stimuli/rescaled_final/0438_fw.mp4	0.0	210.33313012123108	2.508331060409546
34	170.3655071258545	pulse	1	t		32.0	2.5	/experiments/AOT/AOT_stimuli/rescaled_final/0438_fw.mp4	0.0	211.9245641231537	
34	171.28240418434143	fix_post	2		12	32.0	2.5	/experiments/AOT/AOT_stimuli/rescaled_final/0438_fw.mp4	0.0	212.84146118164062	0.0999917984008789
35	171.3823959827423	fix_pre	0		120	33.0	2.5	/experiments/AOT/AOT_stimuli/rescaled_final/0838_rv.mp4	0.0	212.9414529800415	1.0000131130218506
35	171.96545910835266	pulse	0	t		33.0	2.5	/experiments/AOT/AOT_stimuli/rescaled_final/0838_rv.mp4	0.0	213.52451610565186	
35	172.38240909576416	movie	1		243	33.0	2.5	/experiments/AOT/AOT_stimuli/rescaled_final/0838_rv.mp4	0.0	213.94146609306335	2.5002689361572266
35	173.56559801101685	pulse	1	t		33.0	2.5	/experiments/AOT/AOT_stimuli/rescaled_final/0838_rv.mp4	0.0	215.12465500831604	
35	174.8826780319214	fix_post	2		12	33.0	2.5	/experiments/AOT/AOT_stimuli/rescaled_final/0838_rv.mp4	0.0	216.44173502922058	0.09959912300109863
36	174.98227715492249	fix_pre	0		120	34.0	2.5	/experiments/AOT/AOT_stimuli/rescaled_final/0114_rv.mp4	0.0	216.54133415222168	1.0001258850097656
36	175.1658079624176	pulse	0	t		34.0	2.5	/experiments/AOT/AOT_stimuli/rescaled_final/0114_rv.mp4	0.0	216.7248649597168	
36	175.98240303993225	movie	1		246	34.0	2.5	/experiments/AOT/AOT_stimuli/rescaled_final/0114_rv.mp4	0.0	217.54146003723145	2.4999899864196777
36	176.7658030986786	pulse	1	t		34.0	2.5	/experiments/AOT/AOT_stimuli/rescaled_final/0114_rv.mp4	0.0	218.32486009597778	
36	178.3644461631775	pulse	1	t		34.0	2.5	/experiments/AOT/AOT_stimuli/rescaled_final/0114_rv.mp4	0.0	219.92350316047668	
36	178.48239302635193	fix_post	2		12	34.0	2.5	/experiments/AOT/AOT_stimuli/rescaled_final/0114_rv.mp4	0.0	220.04145002365112	0.09996199607849121
37	178.58235502243042	fix_pre	0		120	35.0	2.5	blank	1.0	220.14141201972961	1.000014066696167
37	179.5823690891266	movie	1		300	35.0	2.5	blank	1.0	221.14142608642578	2.500032901763916
37	179.9659869670868	pulse	1	t		35.0	2.5	blank	1.0	221.525043964386	
37	181.56577897071838	pulse	1	t		35.0	2.5	blank	1.0	223.12483596801758	
37	182.0824019908905	fix_post	2		12	35.0	2.5	blank	1.0	223.6414589881897	0.09986305236816406
38	182.18226504325867	fix_pre	0		119	36.0	2.5	/experiments/AOT/AOT_stimuli/rescaled_final/2087_fw.mp4	0.0	223.74132204055786	0.9917230606079102
38	183.1657919883728	pulse	0	t		36.0	2.5	/experiments/AOT/AOT_stimuli/rescaled_final/2087_fw.mp4	0.0	224.724848985672	
38	183.17398810386658	movie	1		246	36.0	2.5	/experiments/AOT/AOT_stimuli/rescaled_final/2087_fw.mp4	0.0	224.73304510116577	2.5082778930664062
38	184.76540207862854	pulse	1	t		36.0	2.5	/experiments/AOT/AOT_stimuli/rescaled_final/2087_fw.mp4	0.0	226.32445907592773	
38	185.68226599693298	fix_post	2		12	36.0	2.5	/experiments/AOT/AOT_stimuli/rescaled_final/2087_fw.mp4	0.0	227.24132299423218	0.10004305839538574
39	185.78230905532837	fix_pre	0		120	37.0	2.5	/experiments/AOT/AOT_stimuli/rescaled_final/0422_fw.mp4	0.0	227.34136605262756	0.9999470710754395
39	186.36581015586853	pulse	0	t		37.0	2.5	/experiments/AOT/AOT_stimuli/rescaled_final/0422_fw.mp4	0.0	227.92486715316772	
39	186.7822561264038	movie	1		244	37.0	2.5	/experiments/AOT/AOT_stimuli/rescaled_final/0422_fw.mp4	0.0	228.341313123703	2.5000929832458496
39	187.96581411361694	pulse	1	t		37.0	2.5	/experiments/AOT/AOT_stimuli/rescaled_final/0422_fw.mp4	0.0	229.52487111091614	
39	189.28234910964966	fix_post	2		12	37.0	2.5	/experiments/AOT/AOT_stimuli/rescaled_final/0422_fw.mp4	0.0	230.84140610694885	0.09990286827087402
40	189.38225197792053	fix_pre	0		120	38.0	2.5	/experiments/AOT/AOT_stimuli/rescaled_final/0303_rv.mp4	0.0	230.94130897521973	1.0000460147857666
40	189.56577897071838	pulse	0	t		38.0	2.5	/experiments/AOT/AOT_stimuli/rescaled_final/0303_rv.mp4	0.0	231.12483596801758	
40	190.3822979927063	movie	1		243	38.0	2.5	/experiments/AOT/AOT_stimuli/rescaled_final/0303_rv.mp4	0.0	231.9413549900055	2.499953031539917
40	191.16578102111816	pulse	1	t		38.0	2.5	/experiments/AOT/AOT_stimuli/rescaled_final/0303_rv.mp4	0.0	232.72483801841736	
40	192.76437616348267	pulse	1	t		38.0	2.5	/experiments/AOT/AOT_stimuli/rescaled_final/0303_rv.mp4	0.0	234.32343316078186	
40	192.88225102424622	fix_post	2		12	38.0	2.5	/experiments/AOT/AOT_stimuli/rescaled_final/0303_rv.mp4	0.0	234.4413080215454	0.10002303123474121
41	192.98227405548096	fix_pre	0		120	39.0	2.5	/experiments/AOT/AOT_stimuli/rescaled_final/1162_rv.mp4	0.0	234.54133105278015	1.000011920928955
41	193.9822859764099	movie	1		244	39.0	2.5	/experiments/AOT/AOT_stimuli/rescaled_final/1162_rv.mp4	0.0	235.5413429737091	2.4999639987945557
41	194.36701798439026	pulse	1	t		39.0	2.5	/experiments/AOT/AOT_stimuli/rescaled_final/1162_rv.mp4	0.0	235.92607498168945	
41	195.96578097343445	pulse	1	t		39.0	2.5	/experiments/AOT/AOT_stimuli/rescaled_final/1162_rv.mp4	0.0	237.52483797073364	
41	196.48224997520447	fix_post	2		12	39.0	2.5	/experiments/AOT/AOT_stimuli/rescaled_final/1162_rv.mp4	0.0	238.04130697250366	0.09996414184570312
42	196.58221411705017	fix_pre	0		119	40.0	2.5	/experiments/AOT/AOT_stimuli/rescaled_final/1321_fw.mp4	0.0	238.14127111434937	0.9917130470275879
42	197.5657720565796	pulse	0	t		40.0	2.5	/experiments/AOT/AOT_stimuli/rescaled_final/1321_fw.mp4	0.0	239.12482905387878	
42	197.57392716407776	movie	1		245	40.0	2.5	/experiments/AOT/AOT_stimuli/rescaled_final/1321_fw.mp4	0.0	239.13298416137695	2.5078628063201904
42	199.1654930114746	pulse	1	t		40.0	2.5	/experiments/AOT/AOT_stimuli/rescaled_final/1321_fw.mp4	0.0	240.7245500087738	
42	200.08178997039795	fix_post	2		12	40.0	2.5	/experiments/AOT/AOT_stimuli/rescaled_final/1321_fw.mp4	0.0	241.64084696769714	0.10044312477111816
43	200.18223309516907	fix_pre	0		120	41.0	2.5	blank	1.0	241.74129009246826	1.0000689029693604
43	200.765771150589	pulse	0	t		41.0	2.5	blank	1.0	242.32482814788818	
43	201.18230199813843	movie	1		300	41.0	2.5	blank	1.0	242.74135899543762	2.4999570846557617
43	202.36578512191772	pulse	1	t		41.0	2.5	blank	1.0	243.92484211921692	
43	203.6822590827942	fix_post	2		12	41.0	2.5	blank	1.0	245.24131608009338	0.09996700286865234
44	203.78222608566284	fix_pre	0		120	42.0	2.5	/experiments/AOT/AOT_stimuli/rescaled_final/2025_rv.mp4	0.0	245.34128308296204	0.9999790191650391
44	203.96581315994263	pulse	0	t		42.0	2.5	/experiments/AOT/AOT_stimuli/rescaled_final/2025_rv.mp4	0.0	245.52487015724182	
44	204.78220510482788	movie	1		245	42.0	2.5	/experiments/AOT/AOT_stimuli/rescaled_final/2025_rv.mp4	0.0	246.34126210212708	2.499976873397827
44	205.56572318077087	pulse	1	t		42.0	2.5	/experiments/AOT/AOT_stimuli/rescaled_final/2025_rv.mp4	0.0	247.12478017807007	
44	207.16419315338135	pulse	1	t		42.0	2.5	/experiments/AOT/AOT_stimuli/rescaled_final/2025_rv.mp4	0.0	248.72325015068054	
44	207.2821819782257	fix_post	2		12	42.0	2.5	/experiments/AOT/AOT_stimuli/rescaled_final/2025_rv.mp4	0.0	248.8412389755249	0.0999610424041748
45	207.38214302062988	fix_pre	0		120	43.0	2.5	/experiments/AOT/AOT_stimuli/rescaled_final/0315_rv.mp4	0.0	248.94120001792908	0.9996330738067627
45	208.38177609443665	movie	1		245	43.0	2.5	/experiments/AOT/AOT_stimuli/rescaled_final/0315_rv.mp4	0.0	249.94083309173584	2.5003468990325928
45	208.76535296440125	pulse	1	t		43.0	2.5	/experiments/AOT/AOT_stimuli/rescaled_final/0315_rv.mp4	0.0	250.32440996170044	
45	210.36578512191772	pulse	1	t		43.0	2.5	/experiments/AOT/AOT_stimuli/rescaled_final/0315_rv.mp4	0.0	251.92484211921692	
45	210.88212299346924	fix_post	2		12	43.0	2.5	/experiments/AOT/AOT_stimuli/rescaled_final/0315_rv.mp4	0.0	252.44117999076843	0.09970402717590332
46	210.98182702064514	fix_pre	0		119	44.0	2.5	/experiments/AOT/AOT_stimuli/rescaled_final/0622_rv.mp4	0.0	252.54088401794434	0.9920821189880371
46	211.96568703651428	pulse	0	t		44.0	2.5	/experiments/AOT/AOT_stimuli/rescaled_final/0622_rv.mp4	0.0	253.52474403381348	
46	211.97390913963318	movie	1		245	44.0	2.5	/experiments/AOT/AOT_stimuli/rescaled_final/0622_rv.mp4	0.0	253.53296613693237	2.508223056793213
46	213.56569910049438	pulse	1	t		44.0	2.5	/experiments/AOT/AOT_stimuli/rescaled_final/0622_rv.mp4	0.0	255.12475609779358	
46	214.4821321964264	fix_post	2		12	44.0	2.5	/experiments/AOT/AOT_stimuli/rescaled_final/0622_rv.mp4	0.0	256.0411891937256	0.10008096694946289
47	214.58221316337585	fix_pre	0		120	45.0	2.5	/experiments/AOT/AOT_stimuli/rescaled_final/0270_fw.mp4	0.0	256.14127016067505	1.0000419616699219
47	215.165696144104	pulse	0	t		45.0	2.5	/experiments/AOT/AOT_stimuli/rescaled_final/0270_fw.mp4	0.0	256.7247531414032	
47	215.58225512504578	movie	1		243	45.0	2.5	/experiments/AOT/AOT_stimuli/rescaled_final/0270_fw.mp4	0.0	257.14131212234497	2.4994399547576904
47	216.7656750679016	pulse	1	t		45.0	2.5	/experiments/AOT/AOT_stimuli/rescaled_final/0270_fw.mp4	0.0	258.3247320652008	
47	218.08169507980347	fix_post	2		12	45.0	2.5	/experiments/AOT/AOT_stimuli/rescaled_final/0270_fw.mp4	0.0	259.64075207710266	0.1004490852355957
48	218.18214416503906	fix_pre	0		120	46.0	2.5	/experiments/AOT/AOT_stimuli/rescaled_final/1887_rv.mp4	0.0	259.74120116233826	1.0000319480895996
48	218.36570501327515	pulse	0	t		46.0	2.5	/experiments/AOT/AOT_stimuli/rescaled_final/1887_rv.mp4	0.0	259.92476201057434	
48	219.18217611312866	movie	1		245	46.0	2.5	/experiments/AOT/AOT_stimuli/rescaled_final/1887_rv.mp4	0.0	260.74123311042786	2.5000178813934326
48	219.96566009521484	pulse	1	t		46.0	2.5	/experiments/AOT/AOT_stimuli/rescaled_final/1887_rv.mp4	0.0	261.52471709251404	
48	221.564138174057	pulse	1	t		46.0	2.5	/experiments/AOT/AOT_stimuli/rescaled_final/1887_rv.mp4	0.0	263.1231951713562	
48	221.6821939945221	fix_post	2		12	46.0	2.5	/experiments/AOT/AOT_stimuli/rescaled_final/1887_rv.mp4	0.0	263.2412509918213	0.0999441146850586
49	221.78213810920715	fix_pre	0		120	47.0	2.5	/experiments/AOT/AOT_stimuli/rescaled_final/0777_rv.mp4	0.0	263.34119510650635	1.000006914138794
49	222.78214502334595	movie	1		244	47.0	2.5	/experiments/AOT/AOT_stimuli/rescaled_final/0777_rv.mp4	0.0	264.34120202064514	2.4995131492614746
49	223.16532015800476	pulse	1	t		47.0	2.5	/experiments/AOT/AOT_stimuli/rescaled_final/0777_rv.mp4	0.0	264.72437715530396	
49	224.76593804359436	pulse	1	t		47.0	2.5	/experiments/AOT/AOT_stimuli/rescaled_final/0777_rv.mp4	0.0	266.32499504089355	
49	225.28165817260742	fix_post	2		12	47.0	2.5	/experiments/AOT/AOT_stimuli/rescaled_final/0777_rv.mp4	0.0	266.8407151699066	0.10043001174926758
50	225.3820881843567	fix_pre	0		119	48.0	2.5	/experiments/AOT/AOT_stimuli/rescaled_final/2021_fw.mp4	0.0	266.9411451816559	0.991786003112793
50	226.36577606201172	pulse	0	t		48.0	2.5	/experiments/AOT/AOT_stimuli/rescaled_final/2021_fw.mp4	0.0	267.9248330593109	
50	226.37387418746948	movie	1		247	48.0	2.5	/experiments/AOT/AOT_stimuli/rescaled_final/2021_fw.mp4	0.0	267.9329311847687	2.5078439712524414
50	227.9654471874237	pulse	1	t		48.0	2.5	/experiments/AOT/AOT_stimuli/rescaled_final/2021_fw.mp4	0.0	269.5245041847229	
50	228.88171815872192	fix_post	2		12	48.0	2.5	/experiments/AOT/AOT_stimuli/rescaled_final/2021_fw.mp4	0.0	270.4407751560211	0.09996891021728516
51	228.9816870689392	fix_pre	0		120	49.0	2.5	blank	1.0	270.5407440662384	1.0002820491790771
51	229.56567406654358	pulse	0	t		49.0	2.5	blank	1.0	271.1247310638428	
51	229.9819691181183	movie	1		300	49.0	2.5	blank	1.0	271.5410261154175	2.5001509189605713
51	231.16551804542542	pulse	1	t		49.0	2.5	blank	1.0	272.7245750427246	
51	232.48212003707886	fix_post	2		12	49.0	2.5	blank	1.0	274.04117703437805	0.10005593299865723
52	232.58217597007751	fix_pre	0		120	50.0	2.5	/experiments/AOT/AOT_stimuli/rescaled_final/1563_fw.mp4	0.0	274.1412329673767	0.9994831085205078
52	232.76563096046448	pulse	0	t		50.0	2.5	/experiments/AOT/AOT_stimuli/rescaled_final/1563_fw.mp4	0.0	274.3246879577637	
52	233.58165907859802	movie	1		246	50.0	2.5	/experiments/AOT/AOT_stimuli/rescaled_final/1563_fw.mp4	0.0	275.1407160758972	2.500333070755005
52	234.36548805236816	pulse	1	t		50.0	2.5	/experiments/AOT/AOT_stimuli/rescaled_final/1563_fw.mp4	0.0	275.92454504966736	
52	235.96379208564758	pulse	1	t		50.0	2.5	/experiments/AOT/AOT_stimuli/rescaled_final/1563_fw.mp4	0.0	277.5228490829468	
52	236.08199214935303	fix_post	2		12	50.0	2.5	/experiments/AOT/AOT_stimuli/rescaled_final/1563_fw.mp4	0.0	277.6410491466522	0.10004496574401855
53	236.18203711509705	fix_pre	0		120	51.0	2.5	/experiments/AOT/AOT_stimuli/rescaled_final/2138_rv.mp4	0.0	277.74109411239624	1.0000309944152832
53	237.18206810951233	movie	1		246	51.0	2.5	/experiments/AOT/AOT_stimuli/rescaled_final/2138_rv.mp4	0.0	278.7411251068115	2.499969959259033
53	237.56527614593506	pulse	1	t		51.0	2.5	/experiments/AOT/AOT_stimuli/rescaled_final/2138_rv.mp4	0.0	279.12433314323425	
53	239.16549396514893	pulse	1	t		51.0	2.5	/experiments/AOT/AOT_stimuli/rescaled_final/2138_rv.mp4	0.0	280.7245509624481	
53	239.68203806877136	fix_post	2		12	51.0	2.5	/experiments/AOT/AOT_stimuli/rescaled_final/2138_rv.mp4	0.0	281.24109506607056	0.0999910831451416
54	239.7820291519165	fix_pre	0		119	52.0	2.5	/experiments/AOT/AOT_stimuli/rescaled_final/1765_fw.mp4	0.0	281.3410861492157	0.9917018413543701
54	240.76560711860657	pulse	0	t		52.0	2.5	/experiments/AOT/AOT_stimuli/rescaled_final/1765_fw.mp4	0.0	282.32466411590576	
54	240.77373099327087	movie	1		244	52.0	2.5	/experiments/AOT/AOT_stimuli/rescaled_final/1765_fw.mp4	0.0	282.33278799057007	2.508134126663208
54	242.36499404907227	pulse	1	t		52.0	2.5	/experiments/AOT/AOT_stimuli/rescaled_final/1765_fw.mp4	0.0	283.92405104637146	
54	243.28186511993408	fix_post	2		12	52.0	2.5	/experiments/AOT/AOT_stimuli/rescaled_final/1765_fw.mp4	0.0	284.8409221172333	0.0997769832611084
55	243.3816421031952	fix_pre	0		120	53.0	2.5	/experiments/AOT/AOT_stimuli/rescaled_final/1511_fw.mp4	0.0	284.9406991004944	1.0004100799560547
55	243.96551299095154	pulse	0	t		53.0	2.5	/experiments/AOT/AOT_stimuli/rescaled_final/1511_fw.mp4	0.0	285.52456998825073	
55	244.38205218315125	movie	1		243	53.0	2.5	/experiments/AOT/AOT_stimuli/rescaled_final/1511_fw.mp4	0.0	285.94110918045044	2.4995369911193848
55	245.56562519073486	pulse	1	t		53.0	2.5	/experiments/AOT/AOT_stimuli/rescaled_final/1511_fw.mp4	0.0	287.12468218803406	
55	246.88158917427063	fix_post	2		12	53.0	2.5	/experiments/AOT/AOT_stimuli/rescaled_final/1511_fw.mp4	0.0	288.4406461715698	0.1003878116607666
56	246.9819769859314	fix_pre	0		120	54.0	2.5	/experiments/AOT/AOT_stimuli/rescaled_final/1360_fw.mp4	0.0	288.5410339832306	1.000096082687378
56	247.16556811332703	pulse	0	t		54.0	2.5	/experiments/AOT/AOT_stimuli/rescaled_final/1360_fw.mp4	0.0	288.7246251106262	
56	247.98207306861877	movie	1		243	54.0	2.5	/experiments/AOT/AOT_stimuli/rescaled_final/1360_fw.mp4	0.0	289.54113006591797	2.4995100498199463
56	248.76555013656616	pulse	1	t		54.0	2.5	/experiments/AOT/AOT_stimuli/rescaled_final/1360_fw.mp4	0.0	290.32460713386536	
56	250.3639280796051	pulse	1	t		54.0	2.5	/experiments/AOT/AOT_stimuli/rescaled_final/1360_fw.mp4	0.0	291.9229850769043	
56	250.48158311843872	fix_post	2		12	54.0	2.5	/experiments/AOT/AOT_stimuli/rescaled_final/1360_fw.mp4	0.0	292.0406401157379	0.10042285919189453
57	250.58200597763062	fix_pre	0		120	55.0	2.5	blank	1.0	292.1410629749298	1.0000231266021729
57	251.5820291042328	movie	1		300	55.0	2.5	blank	1.0	293.141086101532	2.5000040531158447
57	251.9654450416565	pulse	1	t		55.0	2.5	blank	1.0	293.5245020389557	
57	253.5654821395874	pulse	1	t		55.0	2.5	blank	1.0	295.1245391368866	
57	254.08203315734863	fix_post	2		12	55.0	2.5	blank	1.0	295.6410901546478	0.09997797012329102
58	254.18201112747192	fix_pre	0		119	56.0	2.5	/experiments/AOT/AOT_stimuli/rescaled_final/0097_rv.mp4	0.0	295.7410681247711	0.9916179180145264
58	255.1655249595642	pulse	0	t		56.0	2.5	/experiments/AOT/AOT_stimuli/rescaled_final/0097_rv.mp4	0.0	296.7245819568634	
58	255.17362904548645	movie	1		248	56.0	2.5	/experiments/AOT/AOT_stimuli/rescaled_final/0097_rv.mp4	0.0	296.73268604278564	2.5079100131988525
58	256.76566100120544	pulse	1	t		56.0	2.5	/experiments/AOT/AOT_stimuli/rescaled_final/0097_rv.mp4	0.0	298.32471799850464	
58	257.6815390586853	fix_post	2		12	56.0	2.5	/experiments/AOT/AOT_stimuli/rescaled_final/0097_rv.mp4	0.0	299.2405960559845	0.10048413276672363
59	257.782023191452	fix_pre	0		120	57.0	2.5	/experiments/AOT/AOT_stimuli/rescaled_final/1563_rv.mp4	0.0	299.3410801887512	0.9999239444732666
59	258.3667311668396	pulse	0	t		57.0	2.5	/experiments/AOT/AOT_stimuli/rescaled_final/1563_rv.mp4	0.0	299.9257881641388	
59	258.7819471359253	movie	1		244	57.0	2.5	/experiments/AOT/AOT_stimuli/rescaled_final/1563_rv.mp4	0.0	300.3410041332245	2.499932050704956
59	259.9655251502991	pulse	1	t		57.0	2.5	/experiments/AOT/AOT_stimuli/rescaled_final/1563_rv.mp4	0.0	301.52458214759827	
59	261.28187918663025	fix_post	2		12	57.0	2.5	/experiments/AOT/AOT_stimuli/rescaled_final/1563_rv.mp4	0.0	302.84093618392944	0.10013699531555176
60	261.3820161819458	fix_pre	0		120	58.0	2.5	/experiments/AOT/AOT_stimuli/rescaled_final/1860_rv.mp4	0.0	302.941073179245	0.9999837875366211
60	261.5654549598694	pulse	0	t		58.0	2.5	/experiments/AOT/AOT_stimuli/rescaled_final/1860_rv.mp4	0.0	303.1245119571686	
60	262.3819999694824	movie	1		244	58.0	2.5	/experiments/AOT/AOT_stimuli/rescaled_final/1860_rv.mp4	0.0	303.9410569667816	2.4998650550842285
60	263.1654620170593	pulse	1	t		58.0	2.5	/experiments/AOT/AOT_stimuli/rescaled_final/1860_rv.mp4	0.0	304.7245190143585	
60	264.7642471790314	pulse	1	t		58.0	2.5	/experiments/AOT/AOT_stimuli/rescaled_final/1860_rv.mp4	0.0	306.32330417633057	
60	264.88186502456665	fix_post	2		12	58.0	2.5	/experiments/AOT/AOT_stimuli/rescaled_final/1860_rv.mp4	0.0	306.44092202186584	0.1000680923461914
61	264.98193311691284	fix_pre	0		120	59.0	2.5	/experiments/AOT/AOT_stimuli/rescaled_final/0767_rv.mp4	0.0	306.54099011421204	0.9999849796295166
61	265.98191809654236	movie	1		246	59.0	2.5	/experiments/AOT/AOT_stimuli/rescaled_final/0767_rv.mp4	0.0	307.54097509384155	2.50006103515625
61	266.36522698402405	pulse	1	t		59.0	2.5	/experiments/AOT/AOT_stimuli/rescaled_final/0767_rv.mp4	0.0	307.92428398132324	
61	267.96542096138	pulse	1	t		59.0	2.5	/experiments/AOT/AOT_stimuli/rescaled_final/0767_rv.mp4	0.0	309.5244779586792	
61	268.4819791316986	fix_post	2		12	59.0	2.5	/experiments/AOT/AOT_stimuli/rescaled_final/0767_rv.mp4	0.0	310.0410361289978	0.09991788864135742
62	268.58189702033997	fix_pre	0		119	60.0	2.5	/experiments/AOT/AOT_stimuli/rescaled_final/0140_rv.mp4	0.0	310.14095401763916	0.9916470050811768
62	269.5654001235962	pulse	0	t		60.0	2.5	/experiments/AOT/AOT_stimuli/rescaled_final/0140_rv.mp4	0.0	311.1244571208954	
62	269.57354402542114	movie	1		244	60.0	2.5	/experiments/AOT/AOT_stimuli/rescaled_final/0140_rv.mp4	0.0	311.13260102272034	2.5079381465911865
62	271.16568517684937	pulse	1	t		60.0	2.5	/experiments/AOT/AOT_stimuli/rescaled_final/0140_rv.mp4	0.0	312.72474217414856	
62	272.08148217201233	fix_post	2		12	60.0	2.5	/experiments/AOT/AOT_stimuli/rescaled_final/0140_rv.mp4	0.0	313.6405391693115	0.10039496421813965
63	272.18187713623047	fix_pre	0		120	61.0	2.5	/experiments/AOT/AOT_stimuli/rescaled_final/0578_fw.mp4	0.0	313.74093413352966	0.9996099472045898
63	272.7654011249542	pulse	0	t		61.0	2.5	/experiments/AOT/AOT_stimuli/rescaled_final/0578_fw.mp4	0.0	314.3244581222534	
63	273.18148708343506	movie	1		242	61.0	2.5	/experiments/AOT/AOT_stimuli/rescaled_final/0578_fw.mp4	0.0	314.74054408073425	2.4999969005584717
63	274.36547017097473	pulse	1	t		61.0	2.5	/experiments/AOT/AOT_stimuli/rescaled_final/0578_fw.mp4	0.0	315.9245271682739	
63	275.68148398399353	fix_post	2		12	61.0	2.5	/experiments/AOT/AOT_stimuli/rescaled_final/0578_fw.mp4	0.0	317.2405409812927	0.10043215751647949
64	275.78191614151	fix_pre	0		120	62.0	2.5	/experiments/AOT/AOT_stimuli/rescaled_final/1311_rv.mp4	0.0	317.3409731388092	0.9999899864196777
64	275.96539306640625	pulse	0	t		62.0	2.5	/experiments/AOT/AOT_stimuli/rescaled_final/1311_rv.mp4	0.0	317.52445006370544	
64	276.7819061279297	movie	1		244	62.0	2.5	/experiments/AOT/AOT_stimuli/rescaled_final/1311_rv.mp4	0.0	318.3409631252289	2.4999349117279053
64	277.56534910202026	pulse	1	t		62.0	2.5	/experiments/AOT/AOT_stimuli/rescaled_final/1311_rv.mp4	0.0	319.12440609931946	
64	279.16383814811707	pulse	1	t		62.0	2.5	/experiments/AOT/AOT_stimuli/rescaled_final/1311_rv.mp4	0.0	320.72289514541626	
64	279.2818410396576	fix_post	2		12	62.0	2.5	/experiments/AOT/AOT_stimuli/rescaled_final/1311_rv.mp4	0.0	320.8408980369568	0.09996795654296875
65	279.38180899620056	fix_pre	0		120	63.0	2.5	blank	1.0	320.94086599349976	0.9996299743652344
65	280.3814389705658	movie	1		300	63.0	2.5	blank	1.0	321.940495967865	2.5004642009735107
65	280.76543617248535	pulse	1	t		63.0	2.5	blank	1.0	322.32449316978455	
65	282.3653030395508	pulse	1	t		63.0	2.5	blank	1.0	323.92436003685	
65	282.8819031715393	fix_post	2		12	63.0	2.5	blank	1.0	324.4409601688385	0.10001492500305176
66	282.98191809654236	fix_pre	0		119	64.0	2.5	/experiments/AOT/AOT_stimuli/rescaled_final/0152_rv.mp4	0.0	324.54097509384155	0.9912099838256836
66	283.9649531841278	pulse	0	t		64.0	2.5	/experiments/AOT/AOT_stimuli/rescaled_final/0152_rv.mp4	0.0	325.524010181427	
66	283.97312808036804	movie	1		246	64.0	2.5	/experiments/AOT/AOT_stimuli/rescaled_final/0152_rv.mp4	0.0	325.53218507766724	2.508702039718628
66	285.5650141239166	pulse	1	t		64.0	2.5	/experiments/AOT/AOT_stimuli/rescaled_final/0152_rv.mp4	0.0	327.1240711212158	
66	286.48183012008667	fix_post	2		12	64.0	2.5	/experiments/AOT/AOT_stimuli/rescaled_final/0152_rv.mp4	0.0	328.04088711738586	0.09988689422607422
67	286.58171701431274	fix_pre	0		120	65.0	2.5	/experiments/AOT/AOT_stimuli/rescaled_final/1692_rv.mp4	0.0	328.14077401161194	1.000148057937622
67	287.1653661727905	pulse	0	t		65.0	2.5	/experiments/AOT/AOT_stimuli/rescaled_final/1692_rv.mp4	0.0	328.7244231700897	
67	287.58186507225037	movie	1		243	65.0	2.5	/experiments/AOT/AOT_stimuli/rescaled_final/1692_rv.mp4	0.0	329.14092206954956	2.4995439052581787
67	288.76541209220886	pulse	1	t		65.0	2.5	/experiments/AOT/AOT_stimuli/rescaled_final/1692_rv.mp4	0.0	330.32446908950806	
67	290.08140897750854	fix_post	2		12	65.0	2.5	/experiments/AOT/AOT_stimuli/rescaled_final/1692_rv.mp4	0.0	331.64046597480774	0.1004021167755127
68	290.18181109428406	fix_pre	0		120	66.0	2.5	/experiments/AOT/AOT_stimuli/rescaled_final/1922_fw.mp4	0.0	331.74086809158325	1.0001108646392822
68	290.36530113220215	pulse	0	t		66.0	2.5	/experiments/AOT/AOT_stimuli/rescaled_final/1922_fw.mp4	0.0	331.92435812950134	
68	291.18192195892334	movie	1		243	66.0	2.5	/experiments/AOT/AOT_stimuli/rescaled_final/1922_fw.mp4	0.0	332.74097895622253	2.499826192855835
68	291.9652650356293	pulse	1	t		66.0	2.5	/experiments/AOT/AOT_stimuli/rescaled_final/1922_fw.mp4	0.0	333.52432203292847	
68	293.5635561943054	pulse	1	t		66.0	2.5	/experiments/AOT/AOT_stimuli/rescaled_final/1922_fw.mp4	0.0	335.1226131916046	
68	293.6817481517792	fix_post	2		12	66.0	2.5	/experiments/AOT/AOT_stimuli/rescaled_final/1922_fw.mp4	0.0	335.24080514907837	0.09967899322509766
69	293.7814271450043	fix_pre	0		120	67.0	2.5	/experiments/AOT/AOT_stimuli/rescaled_final/0773_rv.mp4	0.0	335.34048414230347	1.0003759860992432
69	294.7818031311035	movie	1		244	67.0	2.5	/experiments/AOT/AOT_stimuli/rescaled_final/0773_rv.mp4	0.0	336.3408601284027	2.500170946121216
69	295.1650071144104	pulse	1	t		67.0	2.5	/experiments/AOT/AOT_stimuli/rescaled_final/0773_rv.mp4	0.0	336.7240641117096	
69	296.7653250694275	pulse	1	t		67.0	2.5	/experiments/AOT/AOT_stimuli/rescaled_final/0773_rv.mp4	0.0	338.3243820667267	
69	297.28197407722473	fix_post	2		12	67.0	2.5	/experiments/AOT/AOT_stimuli/rescaled_final/0773_rv.mp4	0.0	338.8410310745239	0.09980201721191406
70	297.38177609443665	fix_pre	0		119	68.0	2.5	/experiments/AOT/AOT_stimuli/rescaled_final/1459_fw.mp4	0.0	338.94083309173584	0.9916338920593262
70	298.3652939796448	pulse	0	t		68.0	2.5	/experiments/AOT/AOT_stimuli/rescaled_final/1459_fw.mp4	0.0	339.92435097694397	
70	298.373409986496	movie	1		247	68.0	2.5	/experiments/AOT/AOT_stimuli/rescaled_final/1459_fw.mp4	0.0	339.93246698379517	2.508336067199707
70	299.96516704559326	pulse	1	t		68.0	2.5	/experiments/AOT/AOT_stimuli/rescaled_final/1459_fw.mp4	0.0	341.52422404289246	
70	300.8817460536957	fix_post	2		12	68.0	2.5	/experiments/AOT/AOT_stimuli/rescaled_final/1459_fw.mp4	0.0	342.4408030509949	0.09998798370361328
71	300.9817340373993	fix_pre	0		120	69.0	2.5	blank	1.0	342.5407910346985	1.0000340938568115
71	301.5652551651001	pulse	0	t		69.0	2.5	blank	1.0	343.1243121623993	
71	301.9817681312561	movie	1		300	69.0	2.5	blank	1.0	343.5408251285553	2.500037908554077
71	303.1652410030365	pulse	1	t		69.0	2.5	blank	1.0	344.7242980003357	
71	304.4818060398102	fix_post	2		12	69.0	2.5	blank	1.0	346.0408630371094	0.09991097450256348
72	304.58171701431274	fix_pre	0		120	70.0	2.5	/experiments/AOT/AOT_stimuli/rescaled_final/1935_rv.mp4	0.0	346.14077401161194	1.0001461505889893
72	304.7651720046997	pulse	0	t		70.0	2.5	/experiments/AOT/AOT_stimuli/rescaled_final/1935_rv.mp4	0.0	346.3242290019989	
72	305.58186316490173	movie	1		244	70.0	2.5	/experiments/AOT/AOT_stimuli/rescaled_final/1935_rv.mp4	0.0	347.1409201622009	2.4998598098754883
72	306.3652341365814	pulse	1	t		70.0	2.5	/experiments/AOT/AOT_stimuli/rescaled_final/1935_rv.mp4	0.0	347.9242911338806	
72	307.96405506134033	pulse	1	t		70.0	2.5	/experiments/AOT/AOT_stimuli/rescaled_final/1935_rv.mp4	0.0	349.5231120586395	
72	308.0817229747772	fix_post	2		12	70.0	2.5	/experiments/AOT/AOT_stimuli/rescaled_final/1935_rv.mp4	0.0	349.6407799720764	0.10011410713195801
73	308.1818370819092	fix_pre	0		120	71.0	2.5	/experiments/AOT/AOT_stimuli/rescaled_final/0939_fw.mp4	0.0	349.7408940792084	0.999830961227417
73	309.1816680431366	movie	1		244	71.0	2.5	/experiments/AOT/AOT_stimuli/rescaled_final/0939_fw.mp4	0.0	350.7407250404358	2.500054121017456
73	309.5653250217438	pulse	1	t		71.0	2.5	/experiments/AOT/AOT_stimuli/rescaled_final/0939_fw.mp4	0.0	351.12438201904297	
73	311.1652271747589	pulse	1	t		71.0	2.5	/experiments/AOT/AOT_stimuli/rescaled_final/0939_fw.mp4	0.0	352.7242841720581	
73	311.68172216415405	fix_post	2		12	71.0	2.5	/experiments/AOT/AOT_stimuli/rescaled_final/0939_fw.mp4	0.0	353.24077916145325	0.09991884231567383
74	311.7816410064697	fix_pre	0		119	72.0	2.5	/experiments/AOT/AOT_stimuli/rescaled_final/1958_rv.mp4	0.0	353.3406980037689	0.991703987121582
74	312.76520895957947	pulse	0	t		72.0	2.5	/experiments/AOT/AOT_stimuli/rescaled_final/1958_rv.mp4	0.0	354.32426595687866	
74	312.7733449935913	movie	1		244	72.0	2.5	/experiments/AOT/AOT_stimuli/rescaled_final/1958_rv.mp4	0.0	354.3324019908905	2.5082790851593018
74	314.3650391101837	pulse	1	t		72.0	2.5	/experiments/AOT/AOT_stimuli/rescaled_final/1958_rv.mp4	0.0	355.9240961074829	
74	315.2816240787506	fix_post	2		12	72.0	2.5	/experiments/AOT/AOT_stimuli/rescaled_final/1958_rv.mp4	0.0	356.8406810760498	0.10002589225769043
75	315.3816499710083	fix_pre	0		120	73.0	2.5	/experiments/AOT/AOT_stimuli/rescaled_final/1685_fw.mp4	0.0	356.9407069683075	0.9999511241912842
75	315.9651861190796	pulse	0	t		73.0	2.5	/experiments/AOT/AOT_stimuli/rescaled_final/1685_fw.mp4	0.0	357.5242431163788	
75	316.3816010951996	movie	1		243	73.0	2.5	/experiments/AOT/AOT_stimuli/rescaled_final/1685_fw.mp4	0.0	357.9406580924988	2.499687910079956
75	317.565229177475	pulse	1	t		73.0	2.5	/experiments/AOT/AOT_stimuli/rescaled_final/1685_fw.mp4	0.0	359.12428617477417	
75	318.88128900527954	fix_post	2		12	73.0	2.5	/experiments/AOT/AOT_stimuli/rescaled_final/1685_fw.mp4	0.0	360.44034600257874	0.10036897659301758
76	318.98165798187256	fix_pre	0		120	74.0	2.5	/experiments/AOT/AOT_stimuli/rescaled_final/1248_rv.mp4	0.0	360.54071497917175	1.000148057937622
76	319.16512799263	pulse	0	t		74.0	2.5	/experiments/AOT/AOT_stimuli/rescaled_final/1248_rv.mp4	0.0	360.7241849899292	
76	319.9818060398102	movie	1		246	74.0	2.5	/experiments/AOT/AOT_stimuli/rescaled_final/1248_rv.mp4	0.0	361.5408630371094	2.499833106994629
76	320.7652599811554	pulse	1	t		74.0	2.5	/experiments/AOT/AOT_stimuli/rescaled_final/1248_rv.mp4	0.0	362.3243169784546	
76	322.3639919757843	pulse	1	t		74.0	2.5	/experiments/AOT/AOT_stimuli/rescaled_final/1248_rv.mp4	0.0	363.9230489730835	
76	322.4816391468048	fix_post	2		12	74.0	2.5	/experiments/AOT/AOT_stimuli/rescaled_final/1248_rv.mp4	0.0	364.040696144104	0.0995948314666748
77	322.5812339782715	fix_pre	0		120	75.0	2.5	/experiments/AOT/AOT_stimuli/rescaled_final/0530_rv.mp4	0.0	364.1402909755707	1.0004692077636719
77	323.58170318603516	movie	1		244	75.0	2.5	/experiments/AOT/AOT_stimuli/rescaled_final/0530_rv.mp4	0.0	365.14076018333435	2.4999349117279053
77	323.96583700180054	pulse	1	t		75.0	2.5	/experiments/AOT/AOT_stimuli/rescaled_final/0530_rv.mp4	0.0	365.52489399909973	
77	325.5650939941406	pulse	1	t		75.0	2.5	/experiments/AOT/AOT_stimuli/rescaled_final/0530_rv.mp4	0.0	367.1241509914398	
77	326.08163809776306	fix_post	2		12	75.0	2.5	/experiments/AOT/AOT_stimuli/rescaled_final/0530_rv.mp4	0.0	367.64069509506226	0.0999600887298584
78	326.1815981864929	fix_pre	0		119	76.0	2.5	/experiments/AOT/AOT_stimuli/rescaled_final/0607_fw.mp4	0.0	367.7406551837921	0.9916679859161377
78	327.1651439666748	pulse	0	t		76.0	2.5	/experiments/AOT/AOT_stimuli/rescaled_final/0607_fw.mp4	0.0	368.724200963974	
78	327.17326617240906	movie	1		246	76.0	2.5	/experiments/AOT/AOT_stimuli/rescaled_final/0607_fw.mp4	0.0	368.73232316970825	2.507943868637085
78	328.76484203338623	pulse	1	t		76.0	2.5	/experiments/AOT/AOT_stimuli/rescaled_final/0607_fw.mp4	0.0	370.3238990306854	
78	329.68121004104614	fix_post	2		12	76.0	2.5	/experiments/AOT/AOT_stimuli/rescaled_final/0607_fw.mp4	0.0	371.24026703834534	0.10038304328918457
79	329.7815930843353	fix_pre	0		120	77.0	2.5	blank	1.0	371.3406500816345	1.000046968460083
79	330.3651010990143	pulse	0	t		77.0	2.5	blank	1.0	371.9241580963135	
79	330.7816400527954	movie	1		300	77.0	2.5	blank	1.0	372.3406970500946	2.500020980834961
79	331.96513509750366	pulse	1	t		77.0	2.5	blank	1.0	373.52419209480286	
79	333.28166103363037	fix_post	2		12	77.0	2.5	blank	1.0	374.84071803092957	0.09991097450256348
80	333.38157200813293	fix_pre	0		120	78.0	2.5	/experiments/AOT/AOT_stimuli/rescaled_final/0578_rv.mp4	0.0	374.94062900543213	0.9997310638427734
80	333.5650579929352	pulse	0	t		78.0	2.5	/experiments/AOT/AOT_stimuli/rescaled_final/0578_rv.mp4	0.0	375.1241149902344	
80	334.3813030719757	movie	1		243	78.0	2.5	/experiments/AOT/AOT_stimuli/rescaled_final/0578_rv.mp4	0.0	375.9403600692749	2.5003139972686768
80	335.1651179790497	pulse	1	t		78.0	2.5	/experiments/AOT/AOT_stimuli/rescaled_final/0578_rv.mp4	0.0	376.7241749763489	
80	336.7635450363159	pulse	1	t		78.0	2.5	/experiments/AOT/AOT_stimuli/rescaled_final/0578_rv.mp4	0.0	378.3226020336151	
80	336.8816170692444	fix_post	2		12	78.0	2.5	/experiments/AOT/AOT_stimuli/rescaled_final/0578_rv.mp4	0.0	378.4406740665436	0.09999990463256836
81	336.98161697387695	fix_pre	0		120	79.0	2.5	/experiments/AOT/AOT_stimuli/rescaled_final/1545_rv.mp4	0.0	378.54067397117615	0.999946117401123
81	337.9815630912781	movie	1		244	79.0	2.5	/experiments/AOT/AOT_stimuli/rescaled_final/1545_rv.mp4	0.0	379.54062008857727	2.499924898147583
81	338.3659281730652	pulse	1	t		79.0	2.5	/experiments/AOT/AOT_stimuli/rescaled_final/1545_rv.mp4	0.0	379.9249851703644	
81	339.9645869731903	pulse	1	t		79.0	2.5	/experiments/AOT/AOT_stimuli/rescaled_final/1545_rv.mp4	0.0	381.5236439704895	
81	340.48148798942566	fix_post	2		12	79.0	2.5	/experiments/AOT/AOT_stimuli/rescaled_final/1545_rv.mp4	0.0	382.04054498672485	0.09975099563598633
82	340.58123898506165	fix_pre	0		119	80.0	2.5	/experiments/AOT/AOT_stimuli/rescaled_final/1526_rv.mp4	0.0	382.14029598236084	0.992185115814209
82	341.56532311439514	pulse	0	t		80.0	2.5	/experiments/AOT/AOT_stimuli/rescaled_final/1526_rv.mp4	0.0	383.12438011169434	
82	341.57342410087585	movie	1		248	80.0	2.5	/experiments/AOT/AOT_stimuli/rescaled_final/1526_rv.mp4	0.0	383.13248109817505	2.508152961730957
82	343.16466307640076	pulse	1	t		80.0	2.5	/experiments/AOT/AOT_stimuli/rescaled_final/1526_rv.mp4	0.0	384.72372007369995	
82	344.0815770626068	fix_post	2		12	80.0	2.5	/experiments/AOT/AOT_stimuli/rescaled_final/1526_rv.mp4	0.0	385.640634059906	0.0999901294708252
83	344.18156719207764	fix_pre	0		120	81.0	2.5	/experiments/AOT/AOT_stimuli/rescaled_final/1095_rv.mp4	0.0	385.74062418937683	0.9999659061431885
83	344.76508712768555	pulse	0	t		81.0	2.5	/experiments/AOT/AOT_stimuli/rescaled_final/1095_rv.mp4	0.0	386.32414412498474	
83	345.1815330982208	movie	1		246	81.0	2.5	/experiments/AOT/AOT_stimuli/rescaled_final/1095_rv.mp4	0.0	386.74059009552	2.49995493888855
83	346.36512899398804	pulse	1	t		81.0	2.5	/experiments/AOT/AOT_stimuli/rescaled_final/1095_rv.mp4	0.0	387.92418599128723	
83	347.6814880371094	fix_post	2		12	81.0	2.5	/experiments/AOT/AOT_stimuli/rescaled_final/1095_rv.mp4	0.0	389.24054503440857	0.09998798370361328
84	347.781476020813	fix_pre	0		120	82.0	2.5	/experiments/AOT/AOT_stimuli/rescaled_final/0678_fw.mp4	0.0	389.3405330181122	1.000054121017456
84	347.9649679660797	pulse	0	t		82.0	2.5	/experiments/AOT/AOT_stimuli/rescaled_final/0678_fw.mp4	0.0	389.5240249633789	
84	348.78153014183044	movie	1		247	82.0	2.5	/experiments/AOT/AOT_stimuli/rescaled_final/0678_fw.mp4	0.0	390.34058713912964	2.499924898147583
84	349.5649251937866	pulse	1	t		82.0	2.5	/experiments/AOT/AOT_stimuli/rescaled_final/0678_fw.mp4	0.0	391.1239821910858	
84	351.163211107254	pulse	1	t		82.0	2.5	/experiments/AOT/AOT_stimuli/rescaled_final/0678_fw.mp4	0.0	392.7222681045532	
84	351.281455039978	fix_post	2		12	82.0	2.5	/experiments/AOT/AOT_stimuli/rescaled_final/0678_fw.mp4	0.0	392.8405120372772	0.10004401206970215
85	351.38149905204773	fix_pre	0		120	83.0	2.5	blank	1.0	392.9405560493469	0.9995849132537842
85	352.3810839653015	movie	1		300	83.0	2.5	blank	1.0	393.9401409626007	2.5004050731658936
85	352.7649359703064	pulse	1	t		83.0	2.5	blank	1.0	394.3239929676056	
85	354.3649730682373	pulse	1	t		83.0	2.5	blank	1.0	395.9240300655365	
85	354.8814890384674	fix_post	2		12	83.0	2.5	blank	1.0	396.4405460357666	0.0999760627746582
87	354.98146510124207	stim	0		1716					396.54052209854126	14.300018072128296
87	355.9649930000305	pulse	0	t						397.5240499973297	
87	357.5650751590729	pulse	0	t						399.12413215637207	
87	359.1650390625	pulse	0	t						400.7240960597992	
87	360.7649509906769	pulse	0	t						402.3240079879761	
87	362.3649580478668	pulse	0	t						403.924015045166	
87	363.9649610519409	pulse	0	t						405.5240180492401	
87	365.56491112709045	pulse	0	t						407.12396812438965	
87	367.16488313674927	pulse	0	t						408.72394013404846	
87	368.7649099826813	pulse	0	t						410.32396697998047	
