trial_nr	onset	event_type	phase	response	nr_frames	movie_index	movie_duration	movie_file	blank	onset_abs	duration
0	0.16660475730895996	stim	0		3					30.05291438102722	0.04989767074584961
0	0.20532751083374023	response	0	space						30.091637134552002	
1	0.21650242805480957	stim	0		4659					30.10281205177307	38.841190338134766
1	39.0479679107666	pulse	0	t						68.93427753448486	
1	39.057692766189575	stim	1		1716					68.94400238990784	14.308443307876587
1	40.631489515304565	pulse	1	t						70.51779913902283	
1	42.23151969909668	pulse	1	t						72.11782932281494	
1	43.83153581619263	pulse	1	t						73.71784543991089	
1	45.43190884590149	pulse	1	t						75.31821846961975	
1	47.03203630447388	pulse	1	t						76.91834592819214	
1	48.63250184059143	pulse	1	t						78.51881146430969	
1	50.232523918151855	pulse	1	t						80.11883354187012	
1	51.8329598903656	pulse	1	t						81.71926951408386	
2	53.36613607406616	fix_pre	0		9	0.0	2.5	/experiments/knapen_AOT/AOT_stimuli/rescaled_final/1657_fw.mp4	0.0	83.25244569778442	0.1001899242401123
2	53.433008909225464	pulse	0	t		0.0	2.5	/experiments/knapen_AOT/AOT_stimuli/rescaled_final/1657_fw.mp4	0.0	83.31931853294373	
2	53.466325998306274	movie	1		276	0.0	2.5	/experiments/knapen_AOT/AOT_stimuli/rescaled_final/1657_fw.mp4	0.0	83.35263562202454	2.4835383892059326
2	55.031646966934204	pulse	1	t		0.0	2.5	/experiments/knapen_AOT/AOT_stimuli/rescaled_final/1657_fw.mp4	0.0	84.91795659065247	
2	55.94986438751221	fix_post	2		12	0.0	2.5	/experiments/knapen_AOT/AOT_stimuli/rescaled_final/1657_fw.mp4	0.0	85.83617401123047	0.1000220775604248
3	56.04988646507263	fix_pre	0		120	1.0	2.5	/experiments/knapen_AOT/AOT_stimuli/rescaled_final/1269_rv.mp4	0.0	85.9361960887909	1.0084803104400635
3	56.63350963592529	pulse	0	t		1.0	2.5	/experiments/knapen_AOT/AOT_stimuli/rescaled_final/1269_rv.mp4	0.0	86.51981925964355	
3	57.058366775512695	movie	1		280	1.0	2.5	/experiments/knapen_AOT/AOT_stimuli/rescaled_final/1269_rv.mp4	0.0	86.94467639923096	2.492048501968384
3	58.23184585571289	pulse	1	t		1.0	2.5	/experiments/knapen_AOT/AOT_stimuli/rescaled_final/1269_rv.mp4	0.0	88.11815547943115	
3	59.55041527748108	fix_post	2		12	1.0	2.5	/experiments/knapen_AOT/AOT_stimuli/rescaled_final/1269_rv.mp4	0.0	89.43672490119934	0.10004997253417969
4	59.65046525001526	fix_pre	0		120	2.0	2.5	/experiments/knapen_AOT/AOT_stimuli/rescaled_final/1179_rv.mp4	0.0	89.53677487373352	1.0084364414215088
4	59.8339581489563	pulse	0	t		2.0	2.5	/experiments/knapen_AOT/AOT_stimuli/rescaled_final/1179_rv.mp4	0.0	89.72026777267456	
4	60.65890169143677	movie	1		287	2.0	2.5	/experiments/knapen_AOT/AOT_stimuli/rescaled_final/1179_rv.mp4	0.0	90.54521131515503	2.4920382499694824
4	61.432111501693726	pulse	1	t		2.0	2.5	/experiments/knapen_AOT/AOT_stimuli/rescaled_final/1179_rv.mp4	0.0	91.31842112541199	
4	63.03239440917969	pulse	1	t		2.0	2.5	/experiments/knapen_AOT/AOT_stimuli/rescaled_final/1179_rv.mp4	0.0	92.91870403289795	
4	63.15093994140625	fix_post	2		12	2.0	2.5	/experiments/knapen_AOT/AOT_stimuli/rescaled_final/1179_rv.mp4	0.0	93.03724956512451	0.10002446174621582
5	63.250964403152466	fix_pre	0		120	3.0	2.5	/experiments/knapen_AOT/AOT_stimuli/rescaled_final/2044_fw.mp4	0.0	93.13727402687073	1.0085065364837646
5	64.25947093963623	movie	1		281	3.0	2.5	/experiments/knapen_AOT/AOT_stimuli/rescaled_final/2044_fw.mp4	0.0	94.14578056335449	2.4919967651367188
5	64.63271927833557	pulse	1	t		3.0	2.5	/experiments/knapen_AOT/AOT_stimuli/rescaled_final/2044_fw.mp4	0.0	94.51902890205383	
5	66.2339997291565	pulse	1	t		3.0	2.5	/experiments/knapen_AOT/AOT_stimuli/rescaled_final/2044_fw.mp4	0.0	96.12030935287476	
5	66.75146770477295	fix_post	2		12	3.0	2.5	/experiments/knapen_AOT/AOT_stimuli/rescaled_final/2044_fw.mp4	0.0	96.63777732849121	0.10002279281616211
6	66.85149049758911	fix_pre	0		119	4.0	2.5	/experiments/knapen_AOT/AOT_stimuli/rescaled_final/1395_fw.mp4	0.0	96.73780012130737	1.0001709461212158
6	67.83514881134033	pulse	0	t		4.0	2.5	/experiments/knapen_AOT/AOT_stimuli/rescaled_final/1395_fw.mp4	0.0	97.7214584350586	
6	67.85166144371033	movie	1		277	4.0	2.5	/experiments/knapen_AOT/AOT_stimuli/rescaled_final/1395_fw.mp4	0.0	97.73797106742859	2.5003597736358643
6	69.43417501449585	pulse	1	t		4.0	2.5	/experiments/knapen_AOT/AOT_stimuli/rescaled_final/1395_fw.mp4	0.0	99.32048463821411	
6	70.35202121734619	fix_post	2		12	4.0	2.5	/experiments/knapen_AOT/AOT_stimuli/rescaled_final/1395_fw.mp4	0.0	100.23833084106445	0.10002708435058594
7	70.45204830169678	fix_pre	0		120	5.0	2.5	/experiments/knapen_AOT/AOT_stimuli/rescaled_final/1526_fw.mp4	0.0	100.33835792541504	1.0085153579711914
7	71.03575158119202	pulse	0	t		5.0	2.5	/experiments/knapen_AOT/AOT_stimuli/rescaled_final/1526_fw.mp4	0.0	100.92206120491028	
7	71.46056365966797	movie	1		285	5.0	2.5	/experiments/knapen_AOT/AOT_stimuli/rescaled_final/1526_fw.mp4	0.0	101.34687328338623	2.4919893741607666
7	72.63418316841125	pulse	1	t		5.0	2.5	/experiments/knapen_AOT/AOT_stimuli/rescaled_final/1526_fw.mp4	0.0	102.52049279212952	
7	73.95255303382874	fix_post	2		12	5.0	2.5	/experiments/knapen_AOT/AOT_stimuli/rescaled_final/1526_fw.mp4	0.0	103.838862657547	0.10001611709594727
8	74.05256915092468	fix_pre	0		120	6.0	2.5	blank	1.0	103.93887877464294	1.0001482963562012
8	74.23612546920776	pulse	0	t		6.0	2.5	blank	1.0	104.12243509292603	
8	75.05271744728088	movie	1		300	6.0	2.5	blank	1.0	104.93902707099915	2.5003814697265625
8	75.83641648292542	pulse	1	t		6.0	2.5	blank	1.0	105.72272610664368	
8	77.43662428855896	pulse	1	t		6.0	2.5	blank	1.0	107.32293391227722	
8	77.55309891700745	fix_post	2		12	6.0	2.5	blank	1.0	107.43940854072571	0.10004901885986328
9	77.65314793586731	fix_pre	0		120	7.0	2.5	/experiments/knapen_AOT/AOT_stimuli/rescaled_final/0618_fw.mp4	0.0	107.53945755958557	1.0084638595581055
9	78.66161179542542	movie	1		268	7.0	2.5	/experiments/knapen_AOT/AOT_stimuli/rescaled_final/0618_fw.mp4	0.0	108.54792141914368	2.492102861404419
9	79.03505182266235	pulse	1	t		7.0	2.5	/experiments/knapen_AOT/AOT_stimuli/rescaled_final/0618_fw.mp4	0.0	108.92136144638062	
9	80.63703060150146	pulse	1	t		7.0	2.5	/experiments/knapen_AOT/AOT_stimuli/rescaled_final/0618_fw.mp4	0.0	110.52334022521973	
9	81.15371465682983	fix_post	2		12	7.0	2.5	/experiments/knapen_AOT/AOT_stimuli/rescaled_final/0618_fw.mp4	0.0	111.0400242805481	0.09996414184570312
10	81.25367879867554	fix_pre	0		119	8.0	2.5	/experiments/knapen_AOT/AOT_stimuli/rescaled_final/0698_rv.mp4	0.0	111.1399884223938	1.000166893005371
10	82.23758578300476	pulse	0	t		8.0	2.5	/experiments/knapen_AOT/AOT_stimuli/rescaled_final/0698_rv.mp4	0.0	112.12389540672302	
10	82.25384569168091	movie	1		269	8.0	2.5	/experiments/knapen_AOT/AOT_stimuli/rescaled_final/0698_rv.mp4	0.0	112.14015531539917	2.500347375869751
10	83.83619904518127	pulse	1	t		8.0	2.5	/experiments/knapen_AOT/AOT_stimuli/rescaled_final/0698_rv.mp4	0.0	113.72250866889954	
10	84.75419306755066	fix_post	2		12	8.0	2.5	/experiments/knapen_AOT/AOT_stimuli/rescaled_final/0698_rv.mp4	0.0	114.64050269126892	0.10011076927185059
11	84.85430383682251	fix_pre	0		120	9.0	2.5	/experiments/knapen_AOT/AOT_stimuli/rescaled_final/0712_fw.mp4	0.0	114.74061346054077	1.0083887577056885
11	85.43789410591125	pulse	0	t		9.0	2.5	/experiments/knapen_AOT/AOT_stimuli/rescaled_final/0712_fw.mp4	0.0	115.32420372962952	
11	85.8626925945282	movie	1		274	9.0	2.5	/experiments/knapen_AOT/AOT_stimuli/rescaled_final/0712_fw.mp4	0.0	115.74900221824646	2.492022752761841
11	87.03607630729675	pulse	1	t		9.0	2.5	/experiments/knapen_AOT/AOT_stimuli/rescaled_final/0712_fw.mp4	0.0	116.92238593101501	
11	88.35471534729004	fix_post	2		12	9.0	2.5	/experiments/knapen_AOT/AOT_stimuli/rescaled_final/0712_fw.mp4	0.0	118.2410249710083	0.10001969337463379
12	88.45473504066467	fix_pre	0		120	10.0	2.5	/experiments/knapen_AOT/AOT_stimuli/rescaled_final/0413_rv.mp4	0.0	118.34104466438293	1.008518934249878
12	88.63839101791382	pulse	0	t		10.0	2.5	/experiments/knapen_AOT/AOT_stimuli/rescaled_final/0413_rv.mp4	0.0	118.52470064163208	
12	89.46325397491455	movie	1		284	10.0	2.5	/experiments/knapen_AOT/AOT_stimuli/rescaled_final/0413_rv.mp4	0.0	119.34956359863281	2.4920175075531006
12	90.23638844490051	pulse	1	t		10.0	2.5	/experiments/knapen_AOT/AOT_stimuli/rescaled_final/0413_rv.mp4	0.0	120.12269806861877	
12	91.8366060256958	pulse	1	t		10.0	2.5	/experiments/knapen_AOT/AOT_stimuli/rescaled_final/0413_rv.mp4	0.0	121.72291564941406	
12	91.95527148246765	fix_post	2		12	10.0	2.5	/experiments/knapen_AOT/AOT_stimuli/rescaled_final/0413_rv.mp4	0.0	121.84158110618591	0.10001373291015625
13	92.05528521537781	fix_pre	0		120	11.0	2.5	/experiments/knapen_AOT/AOT_stimuli/rescaled_final/0866_rv.mp4	0.0	121.94159483909607	1.008509874343872
13	93.06379508972168	movie	1		283	11.0	2.5	/experiments/knapen_AOT/AOT_stimuli/rescaled_final/0866_rv.mp4	0.0	122.95010471343994	2.49202299118042
13	93.43089199066162	pulse	1	t		11.0	2.5	/experiments/knapen_AOT/AOT_stimuli/rescaled_final/0866_rv.mp4	0.0	123.31720161437988	
13	95.0393316745758	pulse	1	t		11.0	2.5	/experiments/knapen_AOT/AOT_stimuli/rescaled_final/0866_rv.mp4	0.0	124.92564129829407	
13	95.5558180809021	fix_post	2		12	11.0	2.5	/experiments/knapen_AOT/AOT_stimuli/rescaled_final/0866_rv.mp4	0.0	125.44212770462036	0.10004091262817383
14	95.65585899353027	fix_pre	0		118	12.0	2.5	blank	1.0	125.54216861724854	0.9834327697753906
14	96.63146376609802	pulse	0	t		12.0	2.5	blank	1.0	126.51777338981628	
14	96.63929176330566	movie	1		301	12.0	2.5	blank	1.0	126.52560138702393	2.508728265762329
14	98.23148083686829	pulse	1	t		12.0	2.5	blank	1.0	128.11779046058655	
14	99.148020029068	fix_post	2		12	12.0	2.5	blank	1.0	129.03432965278625	0.10007238388061523
15	99.24809241294861	fix_pre	0		120	13.0	2.5	/experiments/knapen_AOT/AOT_stimuli/rescaled_final/1121_fw.mp4	0.0	129.13440203666687	1.008448839187622
15	99.83167791366577	pulse	0	t		13.0	2.5	/experiments/knapen_AOT/AOT_stimuli/rescaled_final/1121_fw.mp4	0.0	129.71798753738403	
15	100.25654125213623	movie	1		287	13.0	2.5	/experiments/knapen_AOT/AOT_stimuli/rescaled_final/1121_fw.mp4	0.0	130.1428508758545	2.492067813873291
15	101.43199300765991	pulse	1	t		13.0	2.5	/experiments/knapen_AOT/AOT_stimuli/rescaled_final/1121_fw.mp4	0.0	131.31830263137817	
15	102.74860906600952	fix_post	2		12	13.0	2.5	/experiments/knapen_AOT/AOT_stimuli/rescaled_final/1121_fw.mp4	0.0	132.63491868972778	0.10000467300415039
16	102.84861373901367	fix_pre	0		120	14.0	2.5	/experiments/knapen_AOT/AOT_stimuli/rescaled_final/0953_fw.mp4	0.0	132.73492336273193	1.0084342956542969
16	103.03220295906067	pulse	0	t		14.0	2.5	/experiments/knapen_AOT/AOT_stimuli/rescaled_final/0953_fw.mp4	0.0	132.91851258277893	
16	103.85704803466797	movie	1		281	14.0	2.5	/experiments/knapen_AOT/AOT_stimuli/rescaled_final/0953_fw.mp4	0.0	133.74335765838623	2.4920289516448975
16	104.63283658027649	pulse	1	t		14.0	2.5	/experiments/knapen_AOT/AOT_stimuli/rescaled_final/0953_fw.mp4	0.0	134.51914620399475	
16	106.23260426521301	pulse	1	t		14.0	2.5	/experiments/knapen_AOT/AOT_stimuli/rescaled_final/0953_fw.mp4	0.0	136.11891388893127	
16	106.34907698631287	fix_post	2		12	14.0	2.5	/experiments/knapen_AOT/AOT_stimuli/rescaled_final/0953_fw.mp4	0.0	136.23538661003113	0.10004115104675293
17	106.44911813735962	fix_pre	0		120	15.0	2.5	/experiments/knapen_AOT/AOT_stimuli/rescaled_final/1713_fw.mp4	0.0	136.33542776107788	1.0085153579711914
17	107.45763349533081	movie	1		269	15.0	2.5	/experiments/knapen_AOT/AOT_stimuli/rescaled_final/1713_fw.mp4	0.0	137.34394311904907	2.4920339584350586
17	107.83291816711426	pulse	1	t		15.0	2.5	/experiments/knapen_AOT/AOT_stimuli/rescaled_final/1713_fw.mp4	0.0	137.71922779083252	
17	109.43183636665344	pulse	1	t		15.0	2.5	/experiments/knapen_AOT/AOT_stimuli/rescaled_final/1713_fw.mp4	0.0	139.3181459903717	
17	109.94966745376587	fix_post	2		12	15.0	2.5	/experiments/knapen_AOT/AOT_stimuli/rescaled_final/1713_fw.mp4	0.0	139.83597707748413	0.10006976127624512
18	110.04973721504211	fix_pre	0		119	16.0	2.5	/experiments/knapen_AOT/AOT_stimuli/rescaled_final/1798_rv.mp4	0.0	139.93604683876038	1.0000712871551514
18	111.03334927558899	pulse	0	t		16.0	2.5	/experiments/knapen_AOT/AOT_stimuli/rescaled_final/1798_rv.mp4	0.0	140.91965889930725	
18	111.04980850219727	movie	1		278	16.0	2.5	/experiments/knapen_AOT/AOT_stimuli/rescaled_final/1798_rv.mp4	0.0	140.93611812591553	2.5003838539123535
18	112.63267874717712	pulse	1	t		16.0	2.5	/experiments/knapen_AOT/AOT_stimuli/rescaled_final/1798_rv.mp4	0.0	142.51898837089539	
18	113.55019235610962	fix_post	2		12	16.0	2.5	/experiments/knapen_AOT/AOT_stimuli/rescaled_final/1798_rv.mp4	0.0	143.43650197982788	0.10004615783691406
19	113.65023851394653	fix_pre	0		120	17.0	2.5	/experiments/knapen_AOT/AOT_stimuli/rescaled_final/0949_rv.mp4	0.0	143.5365481376648	1.0084540843963623
19	114.23382568359375	pulse	0	t		17.0	2.5	/experiments/knapen_AOT/AOT_stimuli/rescaled_final/0949_rv.mp4	0.0	144.120135307312	
19	114.6586925983429	movie	1		286	17.0	2.5	/experiments/knapen_AOT/AOT_stimuli/rescaled_final/0949_rv.mp4	0.0	144.54500222206116	2.492152214050293
19	115.83199143409729	pulse	1	t		17.0	2.5	/experiments/knapen_AOT/AOT_stimuli/rescaled_final/0949_rv.mp4	0.0	145.71830105781555	
19	117.15084481239319	fix_post	2		12	17.0	2.5	/experiments/knapen_AOT/AOT_stimuli/rescaled_final/0949_rv.mp4	0.0	147.03715443611145	0.09994864463806152
20	117.25079345703125	fix_pre	0		120	18.0	2.5	/experiments/knapen_AOT/AOT_stimuli/rescaled_final/0358_fw.mp4	0.0	147.1371030807495	1.0085182189941406
20	117.43427848815918	pulse	0	t		18.0	2.5	/experiments/knapen_AOT/AOT_stimuli/rescaled_final/0358_fw.mp4	0.0	147.32058811187744	
20	118.25931167602539	movie	1		276	18.0	2.5	/experiments/knapen_AOT/AOT_stimuli/rescaled_final/0358_fw.mp4	0.0	148.14562129974365	2.491962194442749
20	119.03244090080261	pulse	1	t		18.0	2.5	/experiments/knapen_AOT/AOT_stimuli/rescaled_final/0358_fw.mp4	0.0	148.91875052452087	
20	120.6326220035553	pulse	1	t		18.0	2.5	/experiments/knapen_AOT/AOT_stimuli/rescaled_final/0358_fw.mp4	0.0	150.51893162727356	
20	120.75127387046814	fix_post	2		12	18.0	2.5	/experiments/knapen_AOT/AOT_stimuli/rescaled_final/0358_fw.mp4	0.0	150.6375834941864	0.09998822212219238
21	120.85126209259033	fix_pre	0		120	19.0	2.5	/experiments/knapen_AOT/AOT_stimuli/rescaled_final/2102_fw.mp4	0.0	150.7375717163086	1.0085031986236572
21	121.85976529121399	movie	1		267	19.0	2.5	/experiments/knapen_AOT/AOT_stimuli/rescaled_final/2102_fw.mp4	0.0	151.74607491493225	2.4920814037323
21	122.2334635257721	pulse	1	t		19.0	2.5	/experiments/knapen_AOT/AOT_stimuli/rescaled_final/2102_fw.mp4	0.0	152.11977314949036	
21	123.83316683769226	pulse	1	t		19.0	2.5	/experiments/knapen_AOT/AOT_stimuli/rescaled_final/2102_fw.mp4	0.0	153.71947646141052	
21	124.35184669494629	fix_post	2		12	19.0	2.5	/experiments/knapen_AOT/AOT_stimuli/rescaled_final/2102_fw.mp4	0.0	154.23815631866455	0.09995412826538086
22	124.45180082321167	fix_pre	0		119	20.0	2.5	blank	1.0	154.33811044692993	0.9918851852416992
22	125.43552851676941	pulse	0	t		20.0	2.5	blank	1.0	155.32183814048767	
22	125.44368600845337	movie	1		301	20.0	2.5	blank	1.0	155.32999563217163	2.508646249771118
22	127.03569769859314	pulse	1	t		20.0	2.5	blank	1.0	156.9220073223114	
22	127.95233225822449	fix_post	2		12	20.0	2.5	blank	1.0	157.83864188194275	0.10004472732543945
23	128.05237698554993	fix_pre	0		120	21.0	2.5	/experiments/knapen_AOT/AOT_stimuli/rescaled_final/0102_rv.mp4	0.0	157.9386866092682	1.008469820022583
23	128.63605308532715	pulse	0	t		21.0	2.5	/experiments/knapen_AOT/AOT_stimuli/rescaled_final/0102_rv.mp4	0.0	158.5223627090454	
23	129.0608468055725	movie	1		284	21.0	2.5	/experiments/knapen_AOT/AOT_stimuli/rescaled_final/0102_rv.mp4	0.0	158.94715642929077	2.4920990467071533
23	130.23421716690063	pulse	1	t		21.0	2.5	/experiments/knapen_AOT/AOT_stimuli/rescaled_final/0102_rv.mp4	0.0	160.1205267906189	
23	131.55294585227966	fix_post	2		12	21.0	2.5	/experiments/knapen_AOT/AOT_stimuli/rescaled_final/0102_rv.mp4	0.0	161.43925547599792	0.09999823570251465
24	131.65294408798218	fix_pre	0		120	22.0	2.5	/experiments/knapen_AOT/AOT_stimuli/rescaled_final/1281_rv.mp4	0.0	161.53925371170044	1.0084590911865234
24	131.8364691734314	pulse	0	t		22.0	2.5	/experiments/knapen_AOT/AOT_stimuli/rescaled_final/1281_rv.mp4	0.0	161.72277879714966	
24	132.6614031791687	movie	1		284	22.0	2.5	/experiments/knapen_AOT/AOT_stimuli/rescaled_final/1281_rv.mp4	0.0	162.54771280288696	2.4920589923858643
24	133.4346957206726	pulse	1	t		22.0	2.5	/experiments/knapen_AOT/AOT_stimuli/rescaled_final/1281_rv.mp4	0.0	163.32100534439087	
24	135.03487753868103	pulse	1	t		22.0	2.5	/experiments/knapen_AOT/AOT_stimuli/rescaled_final/1281_rv.mp4	0.0	164.9211871623993	
24	135.15346217155457	fix_post	2		12	22.0	2.5	/experiments/knapen_AOT/AOT_stimuli/rescaled_final/1281_rv.mp4	0.0	165.03977179527283	0.10003781318664551
25	135.2534999847412	fix_pre	0		120	23.0	2.5	/experiments/knapen_AOT/AOT_stimuli/rescaled_final/1908_fw.mp4	0.0	165.13980960845947	1.0084209442138672
25	136.26192092895508	movie	1		282	23.0	2.5	/experiments/knapen_AOT/AOT_stimuli/rescaled_final/1908_fw.mp4	0.0	166.14823055267334	2.4920334815979004
25	136.63567423820496	pulse	1	t		23.0	2.5	/experiments/knapen_AOT/AOT_stimuli/rescaled_final/1908_fw.mp4	0.0	166.52198386192322	
25	138.23527574539185	pulse	1	t		23.0	2.5	/experiments/knapen_AOT/AOT_stimuli/rescaled_final/1908_fw.mp4	0.0	168.1215853691101	
25	138.75395441055298	fix_post	2		12	23.0	2.5	/experiments/knapen_AOT/AOT_stimuli/rescaled_final/1908_fw.mp4	0.0	168.64026403427124	0.10014033317565918
26	138.85409474372864	fix_pre	0		119	24.0	2.5	/experiments/knapen_AOT/AOT_stimuli/rescaled_final/1269_rv.mp4	0.0	168.7404043674469	1.0000669956207275
26	139.83778429031372	pulse	0	t		24.0	2.5	/experiments/knapen_AOT/AOT_stimuli/rescaled_final/1269_rv.mp4	0.0	169.72409391403198	
26	139.85416173934937	movie	1		291	24.0	2.5	/experiments/knapen_AOT/AOT_stimuli/rescaled_final/1269_rv.mp4	0.0	169.74047136306763	2.5003416538238525
26	141.43609952926636	pulse	1	t		24.0	2.5	/experiments/knapen_AOT/AOT_stimuli/rescaled_final/1269_rv.mp4	0.0	171.32240915298462	
26	142.35450339317322	fix_post	2		12	24.0	2.5	/experiments/knapen_AOT/AOT_stimuli/rescaled_final/1269_rv.mp4	0.0	172.24081301689148	0.09999680519104004
27	142.45450019836426	fix_pre	0		120	25.0	2.5	/experiments/knapen_AOT/AOT_stimuli/rescaled_final/1006_fw.mp4	0.0	172.34080982208252	1.0085268020629883
27	143.0381543636322	pulse	0	t		25.0	2.5	/experiments/knapen_AOT/AOT_stimuli/rescaled_final/1006_fw.mp4	0.0	172.92446398735046	
27	143.46302700042725	movie	1		276	25.0	2.5	/experiments/knapen_AOT/AOT_stimuli/rescaled_final/1006_fw.mp4	0.0	173.3493366241455	2.4920170307159424
27	144.63859176635742	pulse	1	t		25.0	2.5	/experiments/knapen_AOT/AOT_stimuli/rescaled_final/1006_fw.mp4	0.0	174.52490139007568	
27	145.9550440311432	fix_post	2		12	25.0	2.5	/experiments/knapen_AOT/AOT_stimuli/rescaled_final/1006_fw.mp4	0.0	175.84135365486145	0.10011434555053711
28	146.05515837669373	fix_pre	0		120	26.0	2.5	/experiments/knapen_AOT/AOT_stimuli/rescaled_final/1383_fw.mp4	0.0	175.941468000412	1.0084102153778076
28	146.23861384391785	pulse	0	t		26.0	2.5	/experiments/knapen_AOT/AOT_stimuli/rescaled_final/1383_fw.mp4	0.0	176.1249234676361	
28	147.06356859207153	movie	1		284	26.0	2.5	/experiments/knapen_AOT/AOT_stimuli/rescaled_final/1383_fw.mp4	0.0	176.9498782157898	2.4920079708099365
28	147.83675265312195	pulse	1	t		26.0	2.5	/experiments/knapen_AOT/AOT_stimuli/rescaled_final/1383_fw.mp4	0.0	177.7230622768402	
28	149.43720865249634	pulse	1	t		26.0	2.5	/experiments/knapen_AOT/AOT_stimuli/rescaled_final/1383_fw.mp4	0.0	179.3235182762146	
28	149.55557656288147	fix_post	2		12	26.0	2.5	/experiments/knapen_AOT/AOT_stimuli/rescaled_final/1383_fw.mp4	0.0	179.44188618659973	0.10001254081726074
29	149.65558910369873	fix_pre	0		120	27.0	2.5	/experiments/knapen_AOT/AOT_stimuli/rescaled_final/1242_fw.mp4	0.0	179.541898727417	1.0084972381591797
29	150.6640863418579	movie	1		291	27.0	2.5	/experiments/knapen_AOT/AOT_stimuli/rescaled_final/1242_fw.mp4	0.0	180.55039596557617	2.492105722427368
29	151.03134894371033	pulse	1	t		27.0	2.5	/experiments/knapen_AOT/AOT_stimuli/rescaled_final/1242_fw.mp4	0.0	180.9176585674286	
29	152.63133788108826	pulse	1	t		27.0	2.5	/experiments/knapen_AOT/AOT_stimuli/rescaled_final/1242_fw.mp4	0.0	182.51764750480652	
29	153.15619206428528	fix_post	2		12	27.0	2.5	/experiments/knapen_AOT/AOT_stimuli/rescaled_final/1242_fw.mp4	0.0	183.04250168800354	0.10002350807189941
30	153.25621557235718	fix_pre	0		118	28.0	2.5	blank	1.0	183.14252519607544	0.98337721824646
30	154.23148012161255	pulse	0	t		28.0	2.5	blank	1.0	184.1177897453308	
30	154.23959279060364	movie	1		301	28.0	2.5	blank	1.0	184.1259024143219	2.5087268352508545
30	155.8317849636078	pulse	1	t		28.0	2.5	blank	1.0	185.71809458732605	
30	156.7483196258545	fix_post	2		12	28.0	2.5	blank	1.0	186.63462924957275	0.10001945495605469
31	156.84833908081055	fix_pre	0		120	29.0	2.5	/experiments/knapen_AOT/AOT_stimuli/rescaled_final/1777_fw.mp4	0.0	186.7346487045288	1.008490800857544
31	157.43202233314514	pulse	0	t		29.0	2.5	/experiments/knapen_AOT/AOT_stimuli/rescaled_final/1777_fw.mp4	0.0	187.3183319568634	
31	157.8568298816681	movie	1		285	29.0	2.5	/experiments/knapen_AOT/AOT_stimuli/rescaled_final/1777_fw.mp4	0.0	187.74313950538635	2.4921624660491943
31	159.0312967300415	pulse	1	t		29.0	2.5	/experiments/knapen_AOT/AOT_stimuli/rescaled_final/1777_fw.mp4	0.0	188.91760635375977	
31	160.34899234771729	fix_post	2		12	29.0	2.5	/experiments/knapen_AOT/AOT_stimuli/rescaled_final/1777_fw.mp4	0.0	190.23530197143555	0.09989142417907715
32	160.44888377189636	fix_pre	0		120	30.0	2.5	/experiments/knapen_AOT/AOT_stimuli/rescaled_final/1681_rv.mp4	0.0	190.33519339561462	1.0085160732269287
32	160.63251900672913	pulse	0	t		30.0	2.5	/experiments/knapen_AOT/AOT_stimuli/rescaled_final/1681_rv.mp4	0.0	190.5188286304474	
32	161.4573998451233	movie	1		282	30.0	2.5	/experiments/knapen_AOT/AOT_stimuli/rescaled_final/1681_rv.mp4	0.0	191.34370946884155	2.492041826248169
32	162.2326831817627	pulse	1	t		30.0	2.5	/experiments/knapen_AOT/AOT_stimuli/rescaled_final/1681_rv.mp4	0.0	192.11899280548096	
32	163.833110332489	pulse	1	t		30.0	2.5	/experiments/knapen_AOT/AOT_stimuli/rescaled_final/1681_rv.mp4	0.0	193.71941995620728	
32	163.94944167137146	fix_post	2		12	30.0	2.5	/experiments/knapen_AOT/AOT_stimuli/rescaled_final/1681_rv.mp4	0.0	193.83575129508972	0.0999915599822998
33	164.04943323135376	fix_pre	0		120	31.0	2.5	/experiments/knapen_AOT/AOT_stimuli/rescaled_final/1138_fw.mp4	0.0	193.93574285507202	1.0085694789886475
33	165.0580027103424	movie	1		286	31.0	2.5	/experiments/knapen_AOT/AOT_stimuli/rescaled_final/1138_fw.mp4	0.0	194.94431233406067	2.491988182067871
33	165.43173551559448	pulse	1	t		31.0	2.5	/experiments/knapen_AOT/AOT_stimuli/rescaled_final/1138_fw.mp4	0.0	195.31804513931274	
33	167.0312623977661	pulse	1	t		31.0	2.5	/experiments/knapen_AOT/AOT_stimuli/rescaled_final/1138_fw.mp4	0.0	196.91757202148438	
33	167.54999089241028	fix_post	2		12	31.0	2.5	/experiments/knapen_AOT/AOT_stimuli/rescaled_final/1138_fw.mp4	0.0	197.43630051612854	0.09998011589050293
34	167.64997100830078	fix_pre	0		119	32.0	2.5	/experiments/knapen_AOT/AOT_stimuli/rescaled_final/0423_rv.mp4	0.0	197.53628063201904	1.000152587890625
34	168.6337161064148	pulse	0	t		32.0	2.5	/experiments/knapen_AOT/AOT_stimuli/rescaled_final/0423_rv.mp4	0.0	198.52002573013306	
34	168.6501235961914	movie	1		280	32.0	2.5	/experiments/knapen_AOT/AOT_stimuli/rescaled_final/0423_rv.mp4	0.0	198.53643321990967	2.500429153442383
34	170.23228406906128	pulse	1	t		32.0	2.5	/experiments/knapen_AOT/AOT_stimuli/rescaled_final/0423_rv.mp4	0.0	200.11859369277954	
34	171.1505527496338	fix_post	2		12	32.0	2.5	/experiments/knapen_AOT/AOT_stimuli/rescaled_final/0423_rv.mp4	0.0	201.03686237335205	0.0999600887298584
35	171.25051283836365	fix_pre	0		120	33.0	2.5	blank	1.0	201.1368224620819	1.0001378059387207
35	171.83411192893982	pulse	0	t		33.0	2.5	blank	1.0	201.72042155265808	
35	172.25065064430237	movie	1		300	33.0	2.5	blank	1.0	202.13696026802063	2.500369071960449
35	173.4344367980957	pulse	1	t		33.0	2.5	blank	1.0	203.32074642181396	
35	174.75101971626282	fix_post	2		12	33.0	2.5	blank	1.0	204.63732933998108	0.10003185272216797
36	174.85105156898499	fix_pre	0		120	34.0	2.5	/experiments/knapen_AOT/AOT_stimuli/rescaled_final/1004_fw.mp4	0.0	204.73736119270325	1.0084805488586426
36	175.03469371795654	pulse	0	t		34.0	2.5	/experiments/knapen_AOT/AOT_stimuli/rescaled_final/1004_fw.mp4	0.0	204.9210033416748	
36	175.85953211784363	movie	1		286	34.0	2.5	/experiments/knapen_AOT/AOT_stimuli/rescaled_final/1004_fw.mp4	0.0	205.7458417415619	2.4920332431793213
36	176.6341359615326	pulse	1	t		34.0	2.5	/experiments/knapen_AOT/AOT_stimuli/rescaled_final/1004_fw.mp4	0.0	206.52044558525085	
36	178.2331826686859	pulse	1	t		34.0	2.5	/experiments/knapen_AOT/AOT_stimuli/rescaled_final/1004_fw.mp4	0.0	208.11949229240417	
36	178.35156536102295	fix_post	2		12	34.0	2.5	/experiments/knapen_AOT/AOT_stimuli/rescaled_final/1004_fw.mp4	0.0	208.2378749847412	0.10002255439758301
37	178.45158791542053	fix_pre	0		120	35.0	2.5	/experiments/knapen_AOT/AOT_stimuli/rescaled_final/0843_fw.mp4	0.0	208.3378975391388	1.0085062980651855
37	179.46009421348572	movie	1		280	35.0	2.5	/experiments/knapen_AOT/AOT_stimuli/rescaled_final/0843_fw.mp4	0.0	209.34640383720398	2.4920217990875244
37	179.8335475921631	pulse	1	t		35.0	2.5	/experiments/knapen_AOT/AOT_stimuli/rescaled_final/0843_fw.mp4	0.0	209.71985721588135	
37	181.43330550193787	pulse	1	t		35.0	2.5	/experiments/knapen_AOT/AOT_stimuli/rescaled_final/0843_fw.mp4	0.0	211.31961512565613	
37	181.95211601257324	fix_post	2		12	35.0	2.5	/experiments/knapen_AOT/AOT_stimuli/rescaled_final/0843_fw.mp4	0.0	211.8384256362915	0.10000944137573242
38	182.05212545394897	fix_pre	0		119	36.0	2.5	/experiments/knapen_AOT/AOT_stimuli/rescaled_final/0039_fw.mp4	0.0	211.93843507766724	1.0001473426818848
38	183.03602719306946	pulse	0	t		36.0	2.5	/experiments/knapen_AOT/AOT_stimuli/rescaled_final/0039_fw.mp4	0.0	212.92233681678772	
38	183.05227279663086	movie	1		292	36.0	2.5	/experiments/knapen_AOT/AOT_stimuli/rescaled_final/0039_fw.mp4	0.0	212.93858242034912	2.5003855228424072
38	184.63413166999817	pulse	1	t		36.0	2.5	/experiments/knapen_AOT/AOT_stimuli/rescaled_final/0039_fw.mp4	0.0	214.52044129371643	
38	185.55265831947327	fix_post	2		12	36.0	2.5	/experiments/knapen_AOT/AOT_stimuli/rescaled_final/0039_fw.mp4	0.0	215.43896794319153	0.10001158714294434
39	185.6526699066162	fix_pre	0		120	37.0	2.5	/experiments/knapen_AOT/AOT_stimuli/rescaled_final/0030_fw.mp4	0.0	215.53897953033447	1.0085031986236572
39	186.23624300956726	pulse	0	t		37.0	2.5	/experiments/knapen_AOT/AOT_stimuli/rescaled_final/0030_fw.mp4	0.0	216.12255263328552	
39	186.66117310523987	movie	1		284	37.0	2.5	/experiments/knapen_AOT/AOT_stimuli/rescaled_final/0030_fw.mp4	0.0	216.54748272895813	2.4920101165771484
39	187.83476090431213	pulse	1	t		37.0	2.5	/experiments/knapen_AOT/AOT_stimuli/rescaled_final/0030_fw.mp4	0.0	217.7210705280304	
39	189.15318322181702	fix_post	2		12	37.0	2.5	/experiments/knapen_AOT/AOT_stimuli/rescaled_final/0030_fw.mp4	0.0	219.03949284553528	0.10003805160522461
40	189.25322127342224	fix_pre	0		120	38.0	2.5	/experiments/knapen_AOT/AOT_stimuli/rescaled_final/1661_fw.mp4	0.0	219.1395308971405	1.0085041522979736
40	189.43683052062988	pulse	0	t		38.0	2.5	/experiments/knapen_AOT/AOT_stimuli/rescaled_final/1661_fw.mp4	0.0	219.32314014434814	
40	190.26172542572021	movie	1		281	38.0	2.5	/experiments/knapen_AOT/AOT_stimuli/rescaled_final/1661_fw.mp4	0.0	220.14803504943848	2.5003421306610107
40	191.03496766090393	pulse	1	t		38.0	2.5	/experiments/knapen_AOT/AOT_stimuli/rescaled_final/1661_fw.mp4	0.0	220.9212772846222	
40	192.63520169258118	pulse	1	t		38.0	2.5	/experiments/knapen_AOT/AOT_stimuli/rescaled_final/1661_fw.mp4	0.0	222.52151131629944	
40	192.76206755638123	fix_post	2		11	38.0	2.5	/experiments/knapen_AOT/AOT_stimuli/rescaled_final/1661_fw.mp4	0.0	222.6483771800995	0.09168720245361328
41	192.85375475883484	fix_pre	0		120	39.0	2.5	/experiments/knapen_AOT/AOT_stimuli/rescaled_final/1568_fw.mp4	0.0	222.7400643825531	1.0085251331329346
41	193.86227989196777	movie	1		289	39.0	2.5	/experiments/knapen_AOT/AOT_stimuli/rescaled_final/1568_fw.mp4	0.0	223.74858951568604	2.491992950439453
41	194.23606419563293	pulse	1	t		39.0	2.5	/experiments/knapen_AOT/AOT_stimuli/rescaled_final/1568_fw.mp4	0.0	224.1223738193512	
41	195.83563232421875	pulse	1	t		39.0	2.5	/experiments/knapen_AOT/AOT_stimuli/rescaled_final/1568_fw.mp4	0.0	225.721941947937	
41	196.35427284240723	fix_post	2		12	39.0	2.5	/experiments/knapen_AOT/AOT_stimuli/rescaled_final/1568_fw.mp4	0.0	226.2405824661255	0.10001230239868164
42	196.4542851448059	fix_pre	0		119	40.0	2.5	/experiments/knapen_AOT/AOT_stimuli/rescaled_final/1356_rv.mp4	0.0	226.34059476852417	1.0002532005310059
42	197.43804740905762	pulse	0	t		40.0	2.5	/experiments/knapen_AOT/AOT_stimuli/rescaled_final/1356_rv.mp4	0.0	227.32435703277588	
42	197.4545383453369	movie	1		291	40.0	2.5	/experiments/knapen_AOT/AOT_stimuli/rescaled_final/1356_rv.mp4	0.0	227.34084796905518	2.500291109085083
42	199.0365343093872	pulse	1	t		40.0	2.5	/experiments/knapen_AOT/AOT_stimuli/rescaled_final/1356_rv.mp4	0.0	228.92284393310547	
42	199.954829454422	fix_post	2		12	40.0	2.5	/experiments/knapen_AOT/AOT_stimuli/rescaled_final/1356_rv.mp4	0.0	229.84113907814026	0.09997749328613281
43	200.05480694770813	fix_pre	0		120	41.0	2.5	/experiments/knapen_AOT/AOT_stimuli/rescaled_final/1227_fw.mp4	0.0	229.9411165714264	1.0001397132873535
43	200.63839721679688	pulse	0	t		41.0	2.5	/experiments/knapen_AOT/AOT_stimuli/rescaled_final/1227_fw.mp4	0.0	230.52470684051514	
43	201.05494666099548	movie	1		296	41.0	2.5	/experiments/knapen_AOT/AOT_stimuli/rescaled_final/1227_fw.mp4	0.0	230.94125628471375	2.500440835952759
43	202.23447346687317	pulse	1	t		41.0	2.5	/experiments/knapen_AOT/AOT_stimuli/rescaled_final/1227_fw.mp4	0.0	232.12078309059143	
43	203.55538749694824	fix_post	2		12	41.0	2.5	/experiments/knapen_AOT/AOT_stimuli/rescaled_final/1227_fw.mp4	0.0	233.4416971206665	0.09999537467956543
44	203.6553828716278	fix_pre	0		120	42.0	2.5	blank	1.0	233.54169249534607	1.000117540359497
44	203.8390073776245	pulse	0	t		42.0	2.5	blank	1.0	233.72531700134277	
44	204.6555004119873	movie	1		300	42.0	2.5	blank	1.0	234.54181003570557	2.5003902912139893
44	205.43917417526245	pulse	1	t		42.0	2.5	blank	1.0	235.3254837989807	
44	207.03187775611877	pulse	1	t		42.0	2.5	blank	1.0	236.91818737983704	
44	207.1558907032013	fix_post	2		12	42.0	2.5	blank	1.0	237.04220032691956	0.10002255439758301
45	207.25591325759888	fix_pre	0		120	43.0	2.5	/experiments/knapen_AOT/AOT_stimuli/rescaled_final/0113_rv.mp4	0.0	237.14222288131714	1.0085346698760986
45	208.26444792747498	movie	1		287	43.0	2.5	/experiments/knapen_AOT/AOT_stimuli/rescaled_final/0113_rv.mp4	0.0	238.15075755119324	2.4920058250427246
45	208.63784313201904	pulse	1	t		43.0	2.5	/experiments/knapen_AOT/AOT_stimuli/rescaled_final/0113_rv.mp4	0.0	238.5241527557373	
45	210.23184418678284	pulse	1	t		43.0	2.5	/experiments/knapen_AOT/AOT_stimuli/rescaled_final/0113_rv.mp4	0.0	240.1181538105011	
45	210.7564537525177	fix_post	2		12	43.0	2.5	/experiments/knapen_AOT/AOT_stimuli/rescaled_final/0113_rv.mp4	0.0	240.64276337623596	0.10002565383911133
46	210.8564794063568	fix_pre	0		118	44.0	2.5	/experiments/knapen_AOT/AOT_stimuli/rescaled_final/0654_rv.mp4	0.0	240.74278903007507	0.9918031692504883
46	211.83195638656616	pulse	0	t		44.0	2.5	/experiments/knapen_AOT/AOT_stimuli/rescaled_final/0654_rv.mp4	0.0	241.71826601028442	
46	211.8482825756073	movie	1		283	44.0	2.5	/experiments/knapen_AOT/AOT_stimuli/rescaled_final/0654_rv.mp4	0.0	241.73459219932556	2.5003821849823
46	213.43214201927185	pulse	1	t		44.0	2.5	/experiments/knapen_AOT/AOT_stimuli/rescaled_final/0654_rv.mp4	0.0	243.3184516429901	
46	214.3486647605896	fix_post	2		12	44.0	2.5	/experiments/knapen_AOT/AOT_stimuli/rescaled_final/0654_rv.mp4	0.0	244.23497438430786	0.09999513626098633
47	214.4486598968506	fix_pre	0		120	45.0	2.5	/experiments/knapen_AOT/AOT_stimuli/rescaled_final/0598_fw.mp4	0.0	244.33496952056885	1.0084905624389648
47	215.0322778224945	pulse	0	t		45.0	2.5	/experiments/knapen_AOT/AOT_stimuli/rescaled_final/0598_fw.mp4	0.0	244.91858744621277	
47	215.45715045928955	movie	1		284	45.0	2.5	/experiments/knapen_AOT/AOT_stimuli/rescaled_final/0598_fw.mp4	0.0	245.3434600830078	2.492027759552002
47	216.6325273513794	pulse	1	t		45.0	2.5	/experiments/knapen_AOT/AOT_stimuli/rescaled_final/0598_fw.mp4	0.0	246.51883697509766	
47	217.94917821884155	fix_post	2		12	45.0	2.5	/experiments/knapen_AOT/AOT_stimuli/rescaled_final/0598_fw.mp4	0.0	247.83548784255981	0.1000218391418457
48	218.0492000579834	fix_pre	0		84	46.0	2.5	/experiments/knapen_AOT/AOT_stimuli/rescaled_final/0253_fw.mp4	0.0	247.93550968170166	1.0085089206695557
48	218.40877652168274	pulse	0	t		46.0	2.5	/experiments/knapen_AOT/AOT_stimuli/rescaled_final/0253_fw.mp4	0.0	248.295086145401	
48	219.05770897865295	movie	1		282	46.0	2.5	/experiments/knapen_AOT/AOT_stimuli/rescaled_final/0253_fw.mp4	0.0	248.94401860237122	2.4920430183410645
48	219.83244371414185	pulse	1	t		46.0	2.5	/experiments/knapen_AOT/AOT_stimuli/rescaled_final/0253_fw.mp4	0.0	249.7187533378601	
48	221.43366956710815	pulse	1	t		46.0	2.5	/experiments/knapen_AOT/AOT_stimuli/rescaled_final/0253_fw.mp4	0.0	251.31997919082642	
48	221.54975199699402	fix_post	2		12	46.0	2.5	/experiments/knapen_AOT/AOT_stimuli/rescaled_final/0253_fw.mp4	0.0	251.43606162071228	0.1000211238861084
49	221.64977312088013	fix_pre	0		120	47.0	2.5	/experiments/knapen_AOT/AOT_stimuli/rescaled_final/1622_rv.mp4	0.0	251.5360827445984	1.0085036754608154
49	222.65827679634094	movie	1		273	47.0	2.5	/experiments/knapen_AOT/AOT_stimuli/rescaled_final/1622_rv.mp4	0.0	252.5445864200592	2.491976022720337
49	223.0318911075592	pulse	1	t		47.0	2.5	/experiments/knapen_AOT/AOT_stimuli/rescaled_final/1622_rv.mp4	0.0	252.91820073127747	
49	224.63417196273804	pulse	1	t		47.0	2.5	/experiments/knapen_AOT/AOT_stimuli/rescaled_final/1622_rv.mp4	0.0	254.5204815864563	
49	225.15025281906128	fix_post	2		12	47.0	2.5	/experiments/knapen_AOT/AOT_stimuli/rescaled_final/1622_rv.mp4	0.0	255.03656244277954	0.10003471374511719
50	225.2502875328064	fix_pre	0		119	48.0	2.5	blank	1.0	255.13659715652466	0.9918215274810791
50	226.23399567604065	pulse	0	t		48.0	2.5	blank	1.0	256.1203052997589	
50	226.24210906028748	movie	1		301	48.0	2.5	blank	1.0	256.12841868400574	2.508690118789673
50	227.8342800140381	pulse	1	t		48.0	2.5	blank	1.0	257.72058963775635	
50	228.75079917907715	fix_post	2		12	48.0	2.5	blank	1.0	258.6371088027954	0.10003495216369629
51	228.85083413124084	fix_pre	0		120	49.0	2.5	/experiments/knapen_AOT/AOT_stimuli/rescaled_final/1309_fw.mp4	0.0	258.7371437549591	1.0084960460662842
51	229.43479657173157	pulse	0	t		49.0	2.5	/experiments/knapen_AOT/AOT_stimuli/rescaled_final/1309_fw.mp4	0.0	259.32110619544983	
51	229.85933017730713	movie	1		281	49.0	2.5	/experiments/knapen_AOT/AOT_stimuli/rescaled_final/1309_fw.mp4	0.0	259.7456398010254	2.4920525550842285
51	231.03299760818481	pulse	1	t		49.0	2.5	/experiments/knapen_AOT/AOT_stimuli/rescaled_final/1309_fw.mp4	0.0	260.9193072319031	
51	232.35138273239136	fix_post	2		12	49.0	2.5	/experiments/knapen_AOT/AOT_stimuli/rescaled_final/1309_fw.mp4	0.0	262.2376923561096	0.10001826286315918
52	232.45140099525452	fix_pre	0		120	50.0	2.5	/experiments/knapen_AOT/AOT_stimuli/rescaled_final/0880_rv.mp4	0.0	262.3377106189728	1.0084824562072754
52	232.63491868972778	pulse	0	t		50.0	2.5	/experiments/knapen_AOT/AOT_stimuli/rescaled_final/0880_rv.mp4	0.0	262.52122831344604	
52	233.4598834514618	movie	1		287	50.0	2.5	/experiments/knapen_AOT/AOT_stimuli/rescaled_final/0880_rv.mp4	0.0	263.34619307518005	2.492013692855835
52	234.23294186592102	pulse	1	t		50.0	2.5	/experiments/knapen_AOT/AOT_stimuli/rescaled_final/0880_rv.mp4	0.0	264.1192514896393	
52	235.83352327346802	pulse	1	t		50.0	2.5	/experiments/knapen_AOT/AOT_stimuli/rescaled_final/0880_rv.mp4	0.0	265.7198328971863	
52	235.95189714431763	fix_post	2		12	50.0	2.5	/experiments/knapen_AOT/AOT_stimuli/rescaled_final/0880_rv.mp4	0.0	265.8382067680359	0.09998703002929688
53	236.05188417434692	fix_pre	0		120	51.0	2.5	/experiments/knapen_AOT/AOT_stimuli/rescaled_final/1145_rv.mp4	0.0	265.9381937980652	1.0085442066192627
53	237.0604283809662	movie	1		288	51.0	2.5	/experiments/knapen_AOT/AOT_stimuli/rescaled_final/1145_rv.mp4	0.0	266.94673800468445	2.492065906524658
53	237.43418192863464	pulse	1	t		51.0	2.5	/experiments/knapen_AOT/AOT_stimuli/rescaled_final/1145_rv.mp4	0.0	267.3204915523529	
53	239.03382515907288	pulse	1	t		51.0	2.5	/experiments/knapen_AOT/AOT_stimuli/rescaled_final/1145_rv.mp4	0.0	268.92013478279114	
53	239.55249428749084	fix_post	2		12	51.0	2.5	/experiments/knapen_AOT/AOT_stimuli/rescaled_final/1145_rv.mp4	0.0	269.4388039112091	0.10002017021179199
54	239.65251445770264	fix_pre	0		119	52.0	2.5	/experiments/knapen_AOT/AOT_stimuli/rescaled_final/1138_rv.mp4	0.0	269.5388240814209	1.0000686645507812
54	240.63628506660461	pulse	0	t		52.0	2.5	/experiments/knapen_AOT/AOT_stimuli/rescaled_final/1138_rv.mp4	0.0	270.5225946903229	
54	240.65258312225342	movie	1		278	52.0	2.5	/experiments/knapen_AOT/AOT_stimuli/rescaled_final/1138_rv.mp4	0.0	270.5388927459717	2.5003864765167236
54	242.2351303100586	pulse	1	t		52.0	2.5	/experiments/knapen_AOT/AOT_stimuli/rescaled_final/1138_rv.mp4	0.0	272.12143993377686	
54	243.15296959877014	fix_post	2		12	52.0	2.5	/experiments/knapen_AOT/AOT_stimuli/rescaled_final/1138_rv.mp4	0.0	273.0392792224884	0.10004186630249023
55	243.25301146507263	fix_pre	0		120	53.0	2.5	/experiments/knapen_AOT/AOT_stimuli/rescaled_final/1535_rv.mp4	0.0	273.1393210887909	1.0085139274597168
55	243.83661031723022	pulse	0	t		53.0	2.5	/experiments/knapen_AOT/AOT_stimuli/rescaled_final/1535_rv.mp4	0.0	273.7229199409485	
55	244.26152539253235	movie	1		283	53.0	2.5	/experiments/knapen_AOT/AOT_stimuli/rescaled_final/1535_rv.mp4	0.0	274.1478350162506	2.4919893741607666
55	245.43536615371704	pulse	1	t		53.0	2.5	/experiments/knapen_AOT/AOT_stimuli/rescaled_final/1535_rv.mp4	0.0	275.3216757774353	
55	246.75351476669312	fix_post	2		12	53.0	2.5	/experiments/knapen_AOT/AOT_stimuli/rescaled_final/1535_rv.mp4	0.0	276.6398243904114	0.10001039505004883
56	246.85352516174316	fix_pre	0		120	54.0	2.5	blank	1.0	276.7398347854614	1.0001466274261475
56	247.0370762348175	pulse	0	t		54.0	2.5	blank	1.0	276.92338585853577	
56	247.8536717891693	movie	1		300	54.0	2.5	blank	1.0	277.7399814128876	2.5003743171691895
56	248.63759446144104	pulse	1	t		54.0	2.5	blank	1.0	278.5239040851593	
56	250.23785042762756	pulse	1	t		54.0	2.5	blank	1.0	280.1241600513458	
56	250.3540461063385	fix_post	2		12	54.0	2.5	blank	1.0	280.24035573005676	0.10010099411010742
57	250.4541471004486	fix_pre	0		120	55.0	2.5	/experiments/knapen_AOT/AOT_stimuli/rescaled_final/0598_rv.mp4	0.0	280.34045672416687	1.0084009170532227
57	251.46254801750183	movie	1		286	55.0	2.5	/experiments/knapen_AOT/AOT_stimuli/rescaled_final/0598_rv.mp4	0.0	281.3488576412201	2.492034673690796
57	251.83656692504883	pulse	1	t		55.0	2.5	/experiments/knapen_AOT/AOT_stimuli/rescaled_final/0598_rv.mp4	0.0	281.7228765487671	
57	253.4359426498413	pulse	1	t		55.0	2.5	/experiments/knapen_AOT/AOT_stimuli/rescaled_final/0598_rv.mp4	0.0	283.32225227355957	
57	253.95458269119263	fix_post	2		12	55.0	2.5	/experiments/knapen_AOT/AOT_stimuli/rescaled_final/0598_rv.mp4	0.0	283.8408923149109	0.10003948211669922
58	254.05462217330933	fix_pre	0		119	56.0	2.5	/experiments/knapen_AOT/AOT_stimuli/rescaled_final/0618_fw.mp4	0.0	283.9409317970276	1.0001938343048096
58	255.03838777542114	pulse	0	t		56.0	2.5	/experiments/knapen_AOT/AOT_stimuli/rescaled_final/0618_fw.mp4	0.0	284.9246973991394	
58	255.05481600761414	movie	1		290	56.0	2.5	/experiments/knapen_AOT/AOT_stimuli/rescaled_final/0618_fw.mp4	0.0	284.9411256313324	2.5003116130828857
58	256.63692808151245	pulse	1	t		56.0	2.5	/experiments/knapen_AOT/AOT_stimuli/rescaled_final/0618_fw.mp4	0.0	286.5232377052307	
58	257.555127620697	fix_post	2		12	56.0	2.5	/experiments/knapen_AOT/AOT_stimuli/rescaled_final/0618_fw.mp4	0.0	287.4414372444153	0.10005331039428711
59	257.6551809310913	fix_pre	0		120	57.0	2.5	/experiments/knapen_AOT/AOT_stimuli/rescaled_final/2165_rv.mp4	0.0	287.54149055480957	1.0084691047668457
59	258.2387671470642	pulse	0	t		57.0	2.5	/experiments/knapen_AOT/AOT_stimuli/rescaled_final/2165_rv.mp4	0.0	288.12507677078247	
59	258.66365003585815	movie	1		287	57.0	2.5	/experiments/knapen_AOT/AOT_stimuli/rescaled_final/2165_rv.mp4	0.0	288.5499596595764	2.4920246601104736
59	259.8375926017761	pulse	1	t		57.0	2.5	/experiments/knapen_AOT/AOT_stimuli/rescaled_final/2165_rv.mp4	0.0	289.7239022254944	
59	261.1556746959686	fix_post	2		12	57.0	2.5	/experiments/knapen_AOT/AOT_stimuli/rescaled_final/2165_rv.mp4	0.0	291.0419843196869	0.10005545616149902
60	261.2557301521301	fix_pre	0		120	58.0	2.5	/experiments/knapen_AOT/AOT_stimuli/rescaled_final/1655_rv.mp4	0.0	291.1420397758484	1.0084550380706787
60	261.43954253196716	pulse	0	t		58.0	2.5	/experiments/knapen_AOT/AOT_stimuli/rescaled_final/1655_rv.mp4	0.0	291.3258521556854	
60	262.2641851902008	movie	1		284	58.0	2.5	/experiments/knapen_AOT/AOT_stimuli/rescaled_final/1655_rv.mp4	0.0	292.15049481391907	2.492025852203369
60	263.03772139549255	pulse	1	t		58.0	2.5	/experiments/knapen_AOT/AOT_stimuli/rescaled_final/1655_rv.mp4	0.0	292.9240310192108	
60	264.6385335922241	pulse	1	t		58.0	2.5	/experiments/knapen_AOT/AOT_stimuli/rescaled_final/1655_rv.mp4	0.0	294.5248432159424	
60	264.7562110424042	fix_post	2		12	58.0	2.5	/experiments/knapen_AOT/AOT_stimuli/rescaled_final/1655_rv.mp4	0.0	294.64252066612244	0.10001850128173828
61	264.8562295436859	fix_pre	0		120	59.0	2.5	/experiments/knapen_AOT/AOT_stimuli/rescaled_final/0132_fw.mp4	0.0	294.7425391674042	1.0085279941558838
61	265.8647575378418	movie	1		274	59.0	2.5	/experiments/knapen_AOT/AOT_stimuli/rescaled_final/0132_fw.mp4	0.0	295.75106716156006	2.492016553878784
61	266.23841381073	pulse	1	t		59.0	2.5	/experiments/knapen_AOT/AOT_stimuli/rescaled_final/0132_fw.mp4	0.0	296.12472343444824	
61	267.83187890052795	pulse	1	t		59.0	2.5	/experiments/knapen_AOT/AOT_stimuli/rescaled_final/0132_fw.mp4	0.0	297.7181885242462	
61	268.3567740917206	fix_post	2		12	59.0	2.5	/experiments/knapen_AOT/AOT_stimuli/rescaled_final/0132_fw.mp4	0.0	298.24308371543884	0.10002517700195312
62	268.45679926872253	fix_pre	0		118	60.0	2.5	/experiments/knapen_AOT/AOT_stimuli/rescaled_final/1257_rv.mp4	0.0	298.3431088924408	1.0001561641693115
62	269.43223237991333	pulse	0	t		60.0	2.5	/experiments/knapen_AOT/AOT_stimuli/rescaled_final/1257_rv.mp4	0.0	299.3185420036316	
62	269.45695543289185	movie	1		280	60.0	2.5	/experiments/knapen_AOT/AOT_stimuli/rescaled_final/1257_rv.mp4	0.0	299.3432650566101	2.4919919967651367
62	271.0327458381653	pulse	1	t		60.0	2.5	/experiments/knapen_AOT/AOT_stimuli/rescaled_final/1257_rv.mp4	0.0	300.91905546188354	
62	271.948947429657	fix_post	2		12	60.0	2.5	/experiments/knapen_AOT/AOT_stimuli/rescaled_final/1257_rv.mp4	0.0	301.83525705337524	0.1000359058380127
63	272.048983335495	fix_pre	0		120	61.0	2.5	/experiments/knapen_AOT/AOT_stimuli/rescaled_final/0548_fw.mp4	0.0	301.93529295921326	1.0085198879241943
63	272.63273787498474	pulse	0	t		61.0	2.5	/experiments/knapen_AOT/AOT_stimuli/rescaled_final/0548_fw.mp4	0.0	302.519047498703	
63	273.0575032234192	movie	1		285	61.0	2.5	/experiments/knapen_AOT/AOT_stimuli/rescaled_final/0548_fw.mp4	0.0	302.94381284713745	2.4920101165771484
63	274.2312889099121	pulse	1	t		61.0	2.5	/experiments/knapen_AOT/AOT_stimuli/rescaled_final/0548_fw.mp4	0.0	304.11759853363037	
63	275.54951333999634	fix_post	2		12	61.0	2.5	/experiments/knapen_AOT/AOT_stimuli/rescaled_final/0548_fw.mp4	0.0	305.4358229637146	0.10000991821289062
64	275.64952325820923	fix_pre	0		120	62.0	2.5	blank	1.0	305.5358328819275	1.0002048015594482
64	275.83309388160706	pulse	0	t		62.0	2.5	blank	1.0	305.7194035053253	
64	276.6497280597687	movie	1		300	62.0	2.5	blank	1.0	306.53603768348694	2.500328779220581
64	277.4333248138428	pulse	1	t		62.0	2.5	blank	1.0	307.31963443756104	
64	279.03356885910034	pulse	1	t		62.0	2.5	blank	1.0	308.9198784828186	
64	279.15005683898926	fix_post	2		12	62.0	2.5	blank	1.0	309.0363664627075	0.10008072853088379
65	279.25013756752014	fix_pre	0		120	63.0	2.5	/experiments/knapen_AOT/AOT_stimuli/rescaled_final/1765_rv.mp4	0.0	309.1364471912384	1.0084025859832764
65	280.2585401535034	movie	1		279	63.0	2.5	/experiments/knapen_AOT/AOT_stimuli/rescaled_final/1765_rv.mp4	0.0	310.1448497772217	2.49206805229187
65	280.63188648223877	pulse	1	t		63.0	2.5	/experiments/knapen_AOT/AOT_stimuli/rescaled_final/1765_rv.mp4	0.0	310.51819610595703	
65	282.2335464954376	pulse	1	t		63.0	2.5	/experiments/knapen_AOT/AOT_stimuli/rescaled_final/1765_rv.mp4	0.0	312.1198561191559	
65	282.7506082057953	fix_post	2		12	63.0	2.5	/experiments/knapen_AOT/AOT_stimuli/rescaled_final/1765_rv.mp4	0.0	312.63691782951355	0.09999823570251465
66	282.8506064414978	fix_pre	0		119	64.0	2.5	/experiments/knapen_AOT/AOT_stimuli/rescaled_final/0823_fw.mp4	0.0	312.73691606521606	1.0001294612884521
66	283.8344566822052	pulse	0	t		64.0	2.5	/experiments/knapen_AOT/AOT_stimuli/rescaled_final/0823_fw.mp4	0.0	313.72076630592346	
66	283.85073590278625	movie	1		274	64.0	2.5	/experiments/knapen_AOT/AOT_stimuli/rescaled_final/0823_fw.mp4	0.0	313.7370455265045	2.5003902912139893
66	285.4341390132904	pulse	1	t		64.0	2.5	/experiments/knapen_AOT/AOT_stimuli/rescaled_final/0823_fw.mp4	0.0	315.32044863700867	
66	286.35112619400024	fix_post	2		12	64.0	2.5	/experiments/knapen_AOT/AOT_stimuli/rescaled_final/0823_fw.mp4	0.0	316.2374358177185	0.10001802444458008
67	286.4511442184448	fix_pre	0		120	65.0	2.5	/experiments/knapen_AOT/AOT_stimuli/rescaled_final/1475_rv.mp4	0.0	316.3374538421631	1.0085649490356445
67	287.03480792045593	pulse	0	t		65.0	2.5	/experiments/knapen_AOT/AOT_stimuli/rescaled_final/1475_rv.mp4	0.0	316.9211175441742	
67	287.45970916748047	movie	1		274	65.0	2.5	/experiments/knapen_AOT/AOT_stimuli/rescaled_final/1475_rv.mp4	0.0	317.34601879119873	2.4919593334198
67	288.6332607269287	pulse	1	t		65.0	2.5	/experiments/knapen_AOT/AOT_stimuli/rescaled_final/1475_rv.mp4	0.0	318.519570350647	
67	289.95166850090027	fix_post	2		12	65.0	2.5	/experiments/knapen_AOT/AOT_stimuli/rescaled_final/1475_rv.mp4	0.0	319.83797812461853	0.10001659393310547
68	290.0516850948334	fix_pre	0		120	66.0	2.5	/experiments/knapen_AOT/AOT_stimuli/rescaled_final/0900_rv.mp4	0.0	319.93799471855164	1.0084974765777588
68	290.2354645729065	pulse	0	t		66.0	2.5	/experiments/knapen_AOT/AOT_stimuli/rescaled_final/0900_rv.mp4	0.0	320.12177419662476	
68	291.06018257141113	movie	1		286	66.0	2.5	/experiments/knapen_AOT/AOT_stimuli/rescaled_final/0900_rv.mp4	0.0	320.9464921951294	2.4920108318328857
68	291.83348393440247	pulse	1	t		66.0	2.5	/experiments/knapen_AOT/AOT_stimuli/rescaled_final/0900_rv.mp4	0.0	321.7197935581207	
68	293.43377161026	pulse	1	t		66.0	2.5	/experiments/knapen_AOT/AOT_stimuli/rescaled_final/0900_rv.mp4	0.0	323.32008123397827	
68	293.552193403244	fix_post	2		12	66.0	2.5	/experiments/knapen_AOT/AOT_stimuli/rescaled_final/0900_rv.mp4	0.0	323.4385030269623	0.10002517700195312
69	293.652218580246	fix_pre	0		120	67.0	2.5	/experiments/knapen_AOT/AOT_stimuli/rescaled_final/1757_rv.mp4	0.0	323.53852820396423	1.0086348056793213
69	294.6608533859253	movie	1		285	67.0	2.5	/experiments/knapen_AOT/AOT_stimuli/rescaled_final/1757_rv.mp4	0.0	324.54716300964355	2.4919049739837646
69	295.03466796875	pulse	1	t		67.0	2.5	/experiments/knapen_AOT/AOT_stimuli/rescaled_final/1757_rv.mp4	0.0	324.92097759246826	
69	296.6341907978058	pulse	1	t		67.0	2.5	/experiments/knapen_AOT/AOT_stimuli/rescaled_final/1757_rv.mp4	0.0	326.52050042152405	
69	297.15275835990906	fix_post	2		12	67.0	2.5	/experiments/knapen_AOT/AOT_stimuli/rescaled_final/1757_rv.mp4	0.0	327.0390679836273	0.0999898910522461
70	297.2527482509613	fix_pre	0		119	68.0	2.5	/experiments/knapen_AOT/AOT_stimuli/rescaled_final/2033_fw.mp4	0.0	327.13905787467957	1.0001673698425293
70	298.23657417297363	pulse	0	t		68.0	2.5	/experiments/knapen_AOT/AOT_stimuli/rescaled_final/2033_fw.mp4	0.0	328.1228837966919	
70	298.25291562080383	movie	1		264	68.0	2.5	/experiments/knapen_AOT/AOT_stimuli/rescaled_final/2033_fw.mp4	0.0	328.1392252445221	2.500375986099243
70	299.8369426727295	pulse	1	t		68.0	2.5	/experiments/knapen_AOT/AOT_stimuli/rescaled_final/2033_fw.mp4	0.0	329.72325229644775	
70	300.7532916069031	fix_post	2		12	68.0	2.5	/experiments/knapen_AOT/AOT_stimuli/rescaled_final/2033_fw.mp4	0.0	330.63960123062134	0.10000038146972656
71	300.8532919883728	fix_pre	0		120	69.0	2.5	/experiments/knapen_AOT/AOT_stimuli/rescaled_final/1475_rv.mp4	0.0	330.73960161209106	1.008519172668457
71	301.43692994117737	pulse	0	t		69.0	2.5	/experiments/knapen_AOT/AOT_stimuli/rescaled_final/1475_rv.mp4	0.0	331.32323956489563	
71	301.86181116104126	movie	1		281	69.0	2.5	/experiments/knapen_AOT/AOT_stimuli/rescaled_final/1475_rv.mp4	0.0	331.7481207847595	2.492030620574951
71	303.03538942337036	pulse	1	t		69.0	2.5	/experiments/knapen_AOT/AOT_stimuli/rescaled_final/1475_rv.mp4	0.0	332.9216990470886	
71	304.3538417816162	fix_post	2		12	69.0	2.5	/experiments/knapen_AOT/AOT_stimuli/rescaled_final/1475_rv.mp4	0.0	334.2401514053345	0.10001420974731445
72	304.4538559913635	fix_pre	0		120	70.0	2.5	blank	1.0	334.3401656150818	1.0001637935638428
72	304.63761496543884	pulse	0	t		70.0	2.5	blank	1.0	334.5239245891571	
72	305.45401978492737	movie	1		300	70.0	2.5	blank	1.0	335.34032940864563	2.500368595123291
72	306.23766231536865	pulse	1	t		70.0	2.5	blank	1.0	336.1239719390869	
72	307.8378677368164	pulse	1	t		70.0	2.5	blank	1.0	337.72417736053467	
72	307.95438838005066	fix_post	2		12	70.0	2.5	blank	1.0	337.8406980037689	0.10009431838989258
73	308.05448269844055	fix_pre	0		120	71.0	2.5	/experiments/knapen_AOT/AOT_stimuli/rescaled_final/0263_fw.mp4	0.0	337.9407923221588	1.0084285736083984
73	309.06291127204895	movie	1		275	71.0	2.5	/experiments/knapen_AOT/AOT_stimuli/rescaled_final/0263_fw.mp4	0.0	338.9492208957672	2.492023229598999
73	309.4384615421295	pulse	1	t		71.0	2.5	/experiments/knapen_AOT/AOT_stimuli/rescaled_final/0263_fw.mp4	0.0	339.3247711658478	
73	311.0361008644104	pulse	1	t		71.0	2.5	/experiments/knapen_AOT/AOT_stimuli/rescaled_final/0263_fw.mp4	0.0	340.92241048812866	
73	311.55493450164795	fix_post	2		12	71.0	2.5	/experiments/knapen_AOT/AOT_stimuli/rescaled_final/0263_fw.mp4	0.0	341.4412441253662	0.09999585151672363
74	311.6549303531647	fix_pre	0		119	72.0	2.5	/experiments/knapen_AOT/AOT_stimuli/rescaled_final/0511_fw.mp4	0.0	341.54123997688293	1.0001461505889893
74	312.6386413574219	pulse	0	t		72.0	2.5	/experiments/knapen_AOT/AOT_stimuli/rescaled_final/0511_fw.mp4	0.0	342.52495098114014	
74	312.65507650375366	movie	1		286	72.0	2.5	/experiments/knapen_AOT/AOT_stimuli/rescaled_final/0511_fw.mp4	0.0	342.5413861274719	2.5005743503570557
74	314.237265586853	pulse	1	t		72.0	2.5	/experiments/knapen_AOT/AOT_stimuli/rescaled_final/0511_fw.mp4	0.0	344.1235752105713	
74	315.1556508541107	fix_post	2		12	72.0	2.5	/experiments/knapen_AOT/AOT_stimuli/rescaled_final/0511_fw.mp4	0.0	345.041960477829	0.09984326362609863
75	315.2554941177368	fix_pre	0		120	73.0	2.5	/experiments/knapen_AOT/AOT_stimuli/rescaled_final/0118_rv.mp4	0.0	345.1418037414551	1.0084915161132812
75	315.8390748500824	pulse	0	t		73.0	2.5	/experiments/knapen_AOT/AOT_stimuli/rescaled_final/0118_rv.mp4	0.0	345.72538447380066	
75	316.2639856338501	movie	1		272	73.0	2.5	/experiments/knapen_AOT/AOT_stimuli/rescaled_final/0118_rv.mp4	0.0	346.15029525756836	2.4920175075531006
75	317.43774580955505	pulse	1	t		73.0	2.5	/experiments/knapen_AOT/AOT_stimuli/rescaled_final/0118_rv.mp4	0.0	347.3240554332733	
75	318.7560031414032	fix_post	2		12	73.0	2.5	/experiments/knapen_AOT/AOT_stimuli/rescaled_final/0118_rv.mp4	0.0	348.64231276512146	0.10001850128173828
76	318.85602164268494	fix_pre	0		120	74.0	2.5	/experiments/knapen_AOT/AOT_stimuli/rescaled_final/0084_fw.mp4	0.0	348.7423312664032	1.0084762573242188
76	319.03165769577026	pulse	0	t		74.0	2.5	/experiments/knapen_AOT/AOT_stimuli/rescaled_final/0084_fw.mp4	0.0	348.9179673194885	
76	319.86449790000916	movie	1		285	74.0	2.5	/experiments/knapen_AOT/AOT_stimuli/rescaled_final/0084_fw.mp4	0.0	349.7508075237274	2.4920337200164795
76	320.6316866874695	pulse	1	t		74.0	2.5	/experiments/knapen_AOT/AOT_stimuli/rescaled_final/0084_fw.mp4	0.0	350.51799631118774	
76	322.231746673584	pulse	1	t		74.0	2.5	/experiments/knapen_AOT/AOT_stimuli/rescaled_final/0084_fw.mp4	0.0	352.11805629730225	
76	322.35653162002563	fix_post	2		12	74.0	2.5	/experiments/knapen_AOT/AOT_stimuli/rescaled_final/0084_fw.mp4	0.0	352.2428412437439	0.1000969409942627
77	322.4566285610199	fix_pre	0		120	75.0	2.5	blank	1.0	352.34293818473816	1.0001347064971924
77	323.4567632675171	movie	1		300	75.0	2.5	blank	1.0	353.34307289123535	2.5003089904785156
77	323.83195400238037	pulse	1	t		75.0	2.5	blank	1.0	353.71826362609863	
77	325.4323618412018	pulse	1	t		75.0	2.5	blank	1.0	355.31867146492004	
77	325.9570722579956	fix_post	2		12	75.0	2.5	blank	1.0	355.84338188171387	0.1000220775604248
78	326.05709433555603	fix_pre	0		118	76.0	2.5	/experiments/knapen_AOT/AOT_stimuli/rescaled_final/0813_rv.mp4	0.0	355.9434039592743	0.991823673248291
78	327.03250312805176	pulse	0	t		76.0	2.5	/experiments/knapen_AOT/AOT_stimuli/rescaled_final/0813_rv.mp4	0.0	356.91881275177	
78	327.0489180088043	movie	1		269	76.0	2.5	/experiments/knapen_AOT/AOT_stimuli/rescaled_final/0813_rv.mp4	0.0	356.9352276325226	2.500361442565918
78	328.63301610946655	pulse	1	t		76.0	2.5	/experiments/knapen_AOT/AOT_stimuli/rescaled_final/0813_rv.mp4	0.0	358.5193257331848	
78	329.54927945137024	fix_post	2		12	76.0	2.5	/experiments/knapen_AOT/AOT_stimuli/rescaled_final/0813_rv.mp4	0.0	359.4355890750885	0.10003089904785156
79	329.6493103504181	fix_pre	0		120	77.0	2.5	/experiments/knapen_AOT/AOT_stimuli/rescaled_final/1713_rv.mp4	0.0	359.53561997413635	1.0084741115570068
79	330.23299288749695	pulse	0	t		77.0	2.5	/experiments/knapen_AOT/AOT_stimuli/rescaled_final/1713_rv.mp4	0.0	360.1193025112152	
79	330.6577844619751	movie	1		284	77.0	2.5	/experiments/knapen_AOT/AOT_stimuli/rescaled_final/1713_rv.mp4	0.0	360.54409408569336	2.492035388946533
79	331.8318316936493	pulse	1	t		77.0	2.5	/experiments/knapen_AOT/AOT_stimuli/rescaled_final/1713_rv.mp4	0.0	361.71814131736755	
79	333.14981985092163	fix_post	2		12	77.0	2.5	/experiments/knapen_AOT/AOT_stimuli/rescaled_final/1713_rv.mp4	0.0	363.0361294746399	0.10001730918884277
80	333.2498371601105	fix_pre	0		120	78.0	2.5	/experiments/knapen_AOT/AOT_stimuli/rescaled_final/1681_rv.mp4	0.0	363.13614678382874	1.0085124969482422
80	333.4335124492645	pulse	0	t		78.0	2.5	/experiments/knapen_AOT/AOT_stimuli/rescaled_final/1681_rv.mp4	0.0	363.3198220729828	
80	334.2583496570587	movie	1		281	78.0	2.5	/experiments/knapen_AOT/AOT_stimuli/rescaled_final/1681_rv.mp4	0.0	364.144659280777	2.4920196533203125
80	335.03169441223145	pulse	1	t		78.0	2.5	/experiments/knapen_AOT/AOT_stimuli/rescaled_final/1681_rv.mp4	0.0	364.9180040359497	
80	336.63188004493713	pulse	1	t		78.0	2.5	/experiments/knapen_AOT/AOT_stimuli/rescaled_final/1681_rv.mp4	0.0	366.5181896686554	
80	336.750369310379	fix_post	2		12	78.0	2.5	/experiments/knapen_AOT/AOT_stimuli/rescaled_final/1681_rv.mp4	0.0	366.6366789340973	0.10001659393310547
81	336.85038590431213	fix_pre	0		120	79.0	2.5	/experiments/knapen_AOT/AOT_stimuli/rescaled_final/1681_fw.mp4	0.0	366.7366955280304	1.0084724426269531
81	337.8588583469391	movie	1		275	79.0	2.5	/experiments/knapen_AOT/AOT_stimuli/rescaled_final/1681_fw.mp4	0.0	367.74516797065735	2.4921960830688477
81	338.2328004837036	pulse	1	t		79.0	2.5	/experiments/knapen_AOT/AOT_stimuli/rescaled_final/1681_fw.mp4	0.0	368.1191101074219	
81	339.83250617980957	pulse	1	t		79.0	2.5	/experiments/knapen_AOT/AOT_stimuli/rescaled_final/1681_fw.mp4	0.0	369.71881580352783	
81	340.35105443000793	fix_post	2		12	79.0	2.5	/experiments/knapen_AOT/AOT_stimuli/rescaled_final/1681_fw.mp4	0.0	370.2373640537262	0.0999143123626709
82	340.4509687423706	fix_pre	0		119	80.0	2.5	/experiments/knapen_AOT/AOT_stimuli/rescaled_final/1612_rv.mp4	0.0	370.33727836608887	1.0001113414764404
82	341.4346442222595	pulse	0	t		80.0	2.5	/experiments/knapen_AOT/AOT_stimuli/rescaled_final/1612_rv.mp4	0.0	371.3209538459778	
82	341.45108008384705	movie	1		289	80.0	2.5	/experiments/knapen_AOT/AOT_stimuli/rescaled_final/1612_rv.mp4	0.0	371.3373897075653	2.5003623962402344
82	343.03341341018677	pulse	1	t		80.0	2.5	/experiments/knapen_AOT/AOT_stimuli/rescaled_final/1612_rv.mp4	0.0	372.91972303390503	
82	343.9514424800873	fix_post	2		12	80.0	2.5	/experiments/knapen_AOT/AOT_stimuli/rescaled_final/1612_rv.mp4	0.0	373.83775210380554	0.10008001327514648
83	344.0515224933624	fix_pre	0		120	81.0	2.5	/experiments/knapen_AOT/AOT_stimuli/rescaled_final/1945_fw.mp4	0.0	373.9378321170807	1.0084021091461182
83	344.63512563705444	pulse	0	t		81.0	2.5	/experiments/knapen_AOT/AOT_stimuli/rescaled_final/1945_fw.mp4	0.0	374.5214352607727	
83	345.05992460250854	movie	1		282	81.0	2.5	/experiments/knapen_AOT/AOT_stimuli/rescaled_final/1945_fw.mp4	0.0	374.9462342262268	2.4920692443847656
83	346.2331871986389	pulse	1	t		81.0	2.5	/experiments/knapen_AOT/AOT_stimuli/rescaled_final/1945_fw.mp4	0.0	376.1194968223572	
83	347.5519938468933	fix_post	2		12	81.0	2.5	/experiments/knapen_AOT/AOT_stimuli/rescaled_final/1945_fw.mp4	0.0	377.4383034706116	0.1000373363494873
84	347.6520311832428	fix_pre	0		120	82.0	2.5	blank	1.0	377.53834080696106	1.0001540184020996
84	347.8357286453247	pulse	0	t		82.0	2.5	blank	1.0	377.72203826904297	
84	348.6521852016449	movie	1		300	82.0	2.5	blank	1.0	378.53849482536316	2.5003325939178467
84	349.4358100891113	pulse	1	t		82.0	2.5	blank	1.0	379.3221197128296	
84	351.036128282547	pulse	1	t		82.0	2.5	blank	1.0	380.92243790626526	
84	351.15251779556274	fix_post	2		12	82.0	2.5	blank	1.0	381.038827419281	0.10012483596801758
85	351.25264263153076	fix_pre	0		120	83.0	2.5	/experiments/knapen_AOT/AOT_stimuli/rescaled_final/1854_fw.mp4	0.0	381.138952255249	1.0084068775177002
85	352.26104950904846	movie	1		270	83.0	2.5	/experiments/knapen_AOT/AOT_stimuli/rescaled_final/1854_fw.mp4	0.0	382.1473591327667	2.4920520782470703
85	352.6352508068085	pulse	1	t		83.0	2.5	/experiments/knapen_AOT/AOT_stimuli/rescaled_final/1854_fw.mp4	0.0	382.52156043052673	
85	354.23556208610535	pulse	1	t		83.0	2.5	/experiments/knapen_AOT/AOT_stimuli/rescaled_final/1854_fw.mp4	0.0	384.1218717098236	
85	354.75310158729553	fix_post	2		12	83.0	2.5	/experiments/knapen_AOT/AOT_stimuli/rescaled_final/1854_fw.mp4	0.0	384.6394112110138	0.09993791580200195
87	354.85303950309753	stim	0		1715					384.7393491268158	14.293866872787476
87	355.83680963516235	pulse	0	t						385.7231192588806	
87	357.43699383735657	pulse	0	t						387.32330346107483	
87	359.03740429878235	pulse	0	t						388.9237139225006	
87	360.63752269744873	pulse	0	t						390.523832321167	
87	362.23777508735657	pulse	0	t						392.12408471107483	
87	363.8380711078644	pulse	0	t						393.72438073158264	
87	365.4381868839264	pulse	0	t						395.32449650764465	
87	367.0320966243744	pulse	0	t						396.91840624809265	
87	368.638774394989	pulse	0	t						398.5250840187073	
