trial_nr	onset	event_type	phase	response	nr_frames	movie_index	movie_duration	movie_file	blank	onset_abs	duration
0	0.12494421005249023	stim	0		154					88.18765497207642	1.2833898067474365
0	1.400160551071167	response	0	space						89.46287131309509	
1	1.4083340167999268	stim	0		6582					89.47104477882385	54.866671323776245
1	56.265413999557495	pulse	0	t						144.32812476158142	
1	56.27500534057617	stim	1		1715					144.3377161026001	14.302152633666992
1	57.85900616645813	pulse	1	t						145.92171692848206	
1	59.45897722244263	pulse	1	t						147.52168798446655	
1	61.05919170379639	pulse	1	t						149.1219024658203	
1	62.65956950187683	pulse	1	t						150.72228026390076	
1	64.25986242294312	pulse	1	t						152.32257318496704	
1	65.85996770858765	pulse	1	t						153.92267847061157	
1	67.46048355102539	pulse	1	t						155.52319431304932	
1	69.06042408943176	pulse	1	t						157.1231348514557	
2	70.57715797424316	fix_pre	0		11	0.0	2.5	/experiments/knapen_AOT/AOT_stimuli/rescaled_final/0807_fw.mp4	0.0	158.6398687362671	0.1083219051361084
2	70.66063165664673	pulse	0	t		0.0	2.5	/experiments/knapen_AOT/AOT_stimuli/rescaled_final/0807_fw.mp4	0.0	158.72334241867065	
2	70.68547987937927	movie	1		258	0.0	2.5	/experiments/knapen_AOT/AOT_stimuli/rescaled_final/0807_fw.mp4	0.0	158.7481906414032	2.492081880569458
2	72.2607421875	pulse	1	t		0.0	2.5	/experiments/knapen_AOT/AOT_stimuli/rescaled_final/0807_fw.mp4	0.0	160.32345294952393	
2	73.17756175994873	fix_post	2		12	0.0	2.5	/experiments/knapen_AOT/AOT_stimuli/rescaled_final/0807_fw.mp4	0.0	161.24027252197266	0.10006117820739746
3	73.27762293815613	fix_pre	0		120	1.0	2.5	/experiments/knapen_AOT/AOT_stimuli/rescaled_final/2010_fw.mp4	0.0	161.34033370018005	1.0083706378936768
3	73.86107301712036	pulse	0	t		1.0	2.5	/experiments/knapen_AOT/AOT_stimuli/rescaled_final/2010_fw.mp4	0.0	161.9237837791443	
3	74.2859935760498	movie	1		271	1.0	2.5	/experiments/knapen_AOT/AOT_stimuli/rescaled_final/2010_fw.mp4	0.0	162.34870433807373	2.492210865020752
3	75.46091628074646	pulse	1	t		1.0	2.5	/experiments/knapen_AOT/AOT_stimuli/rescaled_final/2010_fw.mp4	0.0	163.52362704277039	
3	76.77820444107056	fix_post	2		12	1.0	2.5	/experiments/knapen_AOT/AOT_stimuli/rescaled_final/2010_fw.mp4	0.0	164.84091520309448	0.0999605655670166
4	76.87816500663757	fix_pre	0		120	2.0	2.5	/experiments/knapen_AOT/AOT_stimuli/rescaled_final/1693_rv.mp4	0.0	164.9408757686615	1.0085768699645996
4	77.05497145652771	pulse	0	t		2.0	2.5	/experiments/knapen_AOT/AOT_stimuli/rescaled_final/1693_rv.mp4	0.0	165.11768221855164	
4	77.88674187660217	movie	1		256	2.0	2.5	/experiments/knapen_AOT/AOT_stimuli/rescaled_final/1693_rv.mp4	0.0	165.9494526386261	2.4918041229248047
4	78.66200423240662	pulse	1	t		2.0	2.5	/experiments/knapen_AOT/AOT_stimuli/rescaled_final/1693_rv.mp4	0.0	166.72471499443054	
4	80.26030826568604	pulse	1	t		2.0	2.5	/experiments/knapen_AOT/AOT_stimuli/rescaled_final/1693_rv.mp4	0.0	168.32301902770996	
4	80.37854599952698	fix_post	2		12	2.0	2.5	/experiments/knapen_AOT/AOT_stimuli/rescaled_final/1693_rv.mp4	0.0	168.4412567615509	0.10022783279418945
5	80.47877383232117	fix_pre	0		120	3.0	2.5	/experiments/knapen_AOT/AOT_stimuli/rescaled_final/0585_fw.mp4	0.0	168.5414845943451	1.0085875988006592
5	81.48736143112183	movie	1		273	3.0	2.5	/experiments/knapen_AOT/AOT_stimuli/rescaled_final/0585_fw.mp4	0.0	169.55007219314575	2.4919471740722656
5	81.86268925666809	pulse	1	t		3.0	2.5	/experiments/knapen_AOT/AOT_stimuli/rescaled_final/0585_fw.mp4	0.0	169.92540001869202	
5	83.45487904548645	pulse	1	t		3.0	2.5	/experiments/knapen_AOT/AOT_stimuli/rescaled_final/0585_fw.mp4	0.0	171.51758980751038	
5	83.97930860519409	fix_post	2		12	3.0	2.5	/experiments/knapen_AOT/AOT_stimuli/rescaled_final/0585_fw.mp4	0.0	172.04201936721802	0.09984350204467773
6	84.07915210723877	fix_pre	0		119	4.0	2.5	/experiments/knapen_AOT/AOT_stimuli/rescaled_final/1835_rv.mp4	0.0	172.1418628692627	1.0001964569091797
6	85.05520534515381	pulse	0	t		4.0	2.5	/experiments/knapen_AOT/AOT_stimuli/rescaled_final/1835_rv.mp4	0.0	173.11791610717773	
6	85.07934856414795	movie	1		252	4.0	2.5	/experiments/knapen_AOT/AOT_stimuli/rescaled_final/1835_rv.mp4	0.0	173.14205932617188	2.500706911087036
6	86.66371941566467	pulse	1	t		4.0	2.5	/experiments/knapen_AOT/AOT_stimuli/rescaled_final/1835_rv.mp4	0.0	174.7264301776886	
6	87.58005547523499	fix_post	2		12	4.0	2.5	/experiments/knapen_AOT/AOT_stimuli/rescaled_final/1835_rv.mp4	0.0	175.6427662372589	0.09961485862731934
7	87.6796703338623	fix_pre	0		120	5.0	2.5	/experiments/knapen_AOT/AOT_stimuli/rescaled_final/1949_rv.mp4	0.0	175.74238109588623	1.0085773468017578
7	88.25495147705078	pulse	0	t		5.0	2.5	/experiments/knapen_AOT/AOT_stimuli/rescaled_final/1949_rv.mp4	0.0	176.3176622390747	
7	88.68824768066406	movie	1		266	5.0	2.5	/experiments/knapen_AOT/AOT_stimuli/rescaled_final/1949_rv.mp4	0.0	176.750958442688	2.4921624660491943
7	89.85518336296082	pulse	1	t		5.0	2.5	/experiments/knapen_AOT/AOT_stimuli/rescaled_final/1949_rv.mp4	0.0	177.91789412498474	
7	91.18041014671326	fix_post	2		12	5.0	2.5	/experiments/knapen_AOT/AOT_stimuli/rescaled_final/1949_rv.mp4	0.0	179.24312090873718	0.1001138687133789
8	91.28052401542664	fix_pre	0		120	6.0	2.5	blank	1.0	179.34323477745056	0.9998784065246582
8	91.45544862747192	pulse	0	t		6.0	2.5	blank	1.0	179.51815938949585	
8	92.2804024219513	movie	1		300	6.0	2.5	blank	1.0	180.34311318397522	2.5003042221069336
8	93.05567741394043	pulse	1	t		6.0	2.5	blank	1.0	181.11838817596436	
8	94.65596222877502	pulse	1	t		6.0	2.5	blank	1.0	182.71867299079895	
8	94.78070664405823	fix_post	2		12	6.0	2.5	blank	1.0	182.84341740608215	0.10036706924438477
9	94.88107371330261	fix_pre	0		120	7.0	2.5	/experiments/knapen_AOT/AOT_stimuli/rescaled_final/0230_rv.mp4	0.0	182.94378447532654	1.0081846714019775
9	95.88925838470459	movie	1		264	7.0	2.5	/experiments/knapen_AOT/AOT_stimuli/rescaled_final/0230_rv.mp4	0.0	183.95196914672852	2.4922807216644287
9	96.25472497940063	pulse	1	t		7.0	2.5	/experiments/knapen_AOT/AOT_stimuli/rescaled_final/0230_rv.mp4	0.0	184.31743574142456	
9	97.85636734962463	pulse	1	t		7.0	2.5	/experiments/knapen_AOT/AOT_stimuli/rescaled_final/0230_rv.mp4	0.0	185.91907811164856	
9	98.38153910636902	fix_post	2		12	7.0	2.5	/experiments/knapen_AOT/AOT_stimuli/rescaled_final/0230_rv.mp4	0.0	186.44424986839294	0.09974813461303711
10	98.48128724098206	fix_pre	0		118	8.0	2.5	/experiments/knapen_AOT/AOT_stimuli/rescaled_final/0544_fw.mp4	0.0	186.54399800300598	0.9917819499969482
10	99.45666742324829	pulse	0	t		8.0	2.5	/experiments/knapen_AOT/AOT_stimuli/rescaled_final/0544_fw.mp4	0.0	187.51937818527222	
10	99.473069190979	movie	1		269	8.0	2.5	/experiments/knapen_AOT/AOT_stimuli/rescaled_final/0544_fw.mp4	0.0	187.53577995300293	2.500398635864258
10	101.05555701255798	pulse	1	t		8.0	2.5	/experiments/knapen_AOT/AOT_stimuli/rescaled_final/0544_fw.mp4	0.0	189.1182677745819	
10	101.97346782684326	fix_post	2		12	8.0	2.5	/experiments/knapen_AOT/AOT_stimuli/rescaled_final/0544_fw.mp4	0.0	190.0361785888672	0.10014724731445312
11	102.07361507415771	fix_pre	0		120	9.0	2.5	/experiments/knapen_AOT/AOT_stimuli/rescaled_final/1323_fw.mp4	0.0	190.13632583618164	1.0085039138793945
11	102.65711808204651	pulse	0	t		9.0	2.5	/experiments/knapen_AOT/AOT_stimuli/rescaled_final/1323_fw.mp4	0.0	190.71982884407043	
11	103.08211898803711	movie	1		264	9.0	2.5	/experiments/knapen_AOT/AOT_stimuli/rescaled_final/1323_fw.mp4	0.0	191.14482975006104	2.4922382831573486
11	104.25713777542114	pulse	1	t		9.0	2.5	/experiments/knapen_AOT/AOT_stimuli/rescaled_final/1323_fw.mp4	0.0	192.31984853744507	
11	105.57435727119446	fix_post	2		12	9.0	2.5	/experiments/knapen_AOT/AOT_stimuli/rescaled_final/1323_fw.mp4	0.0	193.63706803321838	0.0997476577758789
12	105.67410492897034	fix_pre	0		120	10.0	2.5	/experiments/knapen_AOT/AOT_stimuli/rescaled_final/0039_fw.mp4	0.0	193.73681569099426	1.008500337600708
12	105.85764980316162	pulse	0	t		10.0	2.5	/experiments/knapen_AOT/AOT_stimuli/rescaled_final/0039_fw.mp4	0.0	193.92036056518555	
12	106.68260526657104	movie	1		270	10.0	2.5	/experiments/knapen_AOT/AOT_stimuli/rescaled_final/0039_fw.mp4	0.0	194.74531602859497	2.4921109676361084
12	107.45574069023132	pulse	1	t		10.0	2.5	/experiments/knapen_AOT/AOT_stimuli/rescaled_final/0039_fw.mp4	0.0	195.51845145225525	
12	109.05833745002747	pulse	1	t		10.0	2.5	/experiments/knapen_AOT/AOT_stimuli/rescaled_final/0039_fw.mp4	0.0	197.1210482120514	
12	109.17471623420715	fix_post	2		12	10.0	2.5	/experiments/knapen_AOT/AOT_stimuli/rescaled_final/0039_fw.mp4	0.0	197.23742699623108	0.09986448287963867
13	109.27458071708679	fix_pre	0		120	11.0	2.5	/experiments/knapen_AOT/AOT_stimuli/rescaled_final/0152_fw.mp4	0.0	197.33729147911072	1.0086860656738281
13	110.28326678276062	movie	1		261	11.0	2.5	/experiments/knapen_AOT/AOT_stimuli/rescaled_final/0152_fw.mp4	0.0	198.34597754478455	2.492093563079834
13	110.65840482711792	pulse	1	t		11.0	2.5	/experiments/knapen_AOT/AOT_stimuli/rescaled_final/0152_fw.mp4	0.0	198.72111558914185	
13	112.25706434249878	pulse	1	t		11.0	2.5	/experiments/knapen_AOT/AOT_stimuli/rescaled_final/0152_fw.mp4	0.0	200.3197751045227	
13	112.77536034584045	fix_post	2		12	11.0	2.5	/experiments/knapen_AOT/AOT_stimuli/rescaled_final/0152_fw.mp4	0.0	200.83807110786438	0.09990167617797852
14	112.87526202201843	fix_pre	0		119	12.0	2.5	/experiments/knapen_AOT/AOT_stimuli/rescaled_final/1995_rv.mp4	0.0	200.93797278404236	1.0000572204589844
14	113.85881876945496	pulse	0	t		12.0	2.5	/experiments/knapen_AOT/AOT_stimuli/rescaled_final/1995_rv.mp4	0.0	201.92152953147888	
14	113.87531924247742	movie	1		267	12.0	2.5	/experiments/knapen_AOT/AOT_stimuli/rescaled_final/1995_rv.mp4	0.0	201.93803000450134	2.500406265258789
14	115.4571692943573	pulse	1	t		12.0	2.5	/experiments/knapen_AOT/AOT_stimuli/rescaled_final/1995_rv.mp4	0.0	203.51988005638123	
14	116.3757255077362	fix_post	2		12	12.0	2.5	/experiments/knapen_AOT/AOT_stimuli/rescaled_final/1995_rv.mp4	0.0	204.43843626976013	0.09994006156921387
15	116.47566556930542	fix_pre	0		120	13.0	2.5	blank	1.0	204.53837633132935	1.0001168251037598
15	117.05923223495483	pulse	0	t		13.0	2.5	blank	1.0	205.12194299697876	
15	117.47578239440918	movie	1		300	13.0	2.5	blank	1.0	205.5384931564331	2.500385284423828
15	118.65993118286133	pulse	1	t		13.0	2.5	blank	1.0	206.72264194488525	
15	119.97616767883301	fix_post	2		12	13.0	2.5	blank	1.0	208.03887844085693	0.10002398490905762
16	120.07619166374207	fix_pre	0		120	14.0	2.5	/experiments/knapen_AOT/AOT_stimuli/rescaled_final/0043_rv.mp4	0.0	208.138902425766	1.0086090564727783
16	120.25979661941528	pulse	0	t		14.0	2.5	/experiments/knapen_AOT/AOT_stimuli/rescaled_final/0043_rv.mp4	0.0	208.3225073814392	
16	121.08480072021484	movie	1		260	14.0	2.5	/experiments/knapen_AOT/AOT_stimuli/rescaled_final/0043_rv.mp4	0.0	209.14751148223877	2.492063045501709
16	121.86010527610779	pulse	1	t		14.0	2.5	/experiments/knapen_AOT/AOT_stimuli/rescaled_final/0043_rv.mp4	0.0	209.9228160381317	
16	123.4608678817749	pulse	1	t		14.0	2.5	/experiments/knapen_AOT/AOT_stimuli/rescaled_final/0043_rv.mp4	0.0	211.52357864379883	
16	123.57686376571655	fix_post	2		12	14.0	2.5	/experiments/knapen_AOT/AOT_stimuli/rescaled_final/0043_rv.mp4	0.0	211.63957452774048	0.09987068176269531
17	123.67673444747925	fix_pre	0		120	15.0	2.5	/experiments/knapen_AOT/AOT_stimuli/rescaled_final/1545_fw.mp4	0.0	211.73944520950317	1.0084724426269531
17	124.6852068901062	movie	1		271	15.0	2.5	/experiments/knapen_AOT/AOT_stimuli/rescaled_final/1545_fw.mp4	0.0	212.74791765213013	2.492605686187744
17	125.05956721305847	pulse	1	t		15.0	2.5	/experiments/knapen_AOT/AOT_stimuli/rescaled_final/1545_fw.mp4	0.0	213.1222779750824	
17	126.66084265708923	pulse	1	t		15.0	2.5	/experiments/knapen_AOT/AOT_stimuli/rescaled_final/1545_fw.mp4	0.0	214.72355341911316	
17	127.17781257629395	fix_post	2		12	15.0	2.5	/experiments/knapen_AOT/AOT_stimuli/rescaled_final/1545_fw.mp4	0.0	215.24052333831787	0.09953022003173828
18	127.27734279632568	fix_pre	0		119	16.0	2.5	/experiments/knapen_AOT/AOT_stimuli/rescaled_final/1515_rv.mp4	0.0	215.3400535583496	1.0001702308654785
18	128.2609395980835	pulse	0	t		16.0	2.5	/experiments/knapen_AOT/AOT_stimuli/rescaled_final/1515_rv.mp4	0.0	216.32365036010742	
18	128.27751302719116	movie	1		276	16.0	2.5	/experiments/knapen_AOT/AOT_stimuli/rescaled_final/1515_rv.mp4	0.0	216.3402237892151	2.5007834434509277
18	129.8597023487091	pulse	1	t		16.0	2.5	/experiments/knapen_AOT/AOT_stimuli/rescaled_final/1515_rv.mp4	0.0	217.92241311073303	
18	130.7782964706421	fix_post	2		12	16.0	2.5	/experiments/knapen_AOT/AOT_stimuli/rescaled_final/1515_rv.mp4	0.0	218.84100723266602	0.09951233863830566
19	130.8778088092804	fix_pre	0		120	17.0	2.5	/experiments/knapen_AOT/AOT_stimuli/rescaled_final/0883_rv.mp4	0.0	218.94051957130432	1.008507490158081
19	131.46149015426636	pulse	0	t		17.0	2.5	/experiments/knapen_AOT/AOT_stimuli/rescaled_final/0883_rv.mp4	0.0	219.52420091629028	
19	131.88631629943848	movie	1		258	17.0	2.5	/experiments/knapen_AOT/AOT_stimuli/rescaled_final/0883_rv.mp4	0.0	219.9490270614624	2.492218017578125
19	133.06235265731812	pulse	1	t		17.0	2.5	/experiments/knapen_AOT/AOT_stimuli/rescaled_final/0883_rv.mp4	0.0	221.12506341934204	
19	134.3785343170166	fix_post	2		12	17.0	2.5	/experiments/knapen_AOT/AOT_stimuli/rescaled_final/0883_rv.mp4	0.0	222.44124507904053	0.09983539581298828
20	134.4783697128296	fix_pre	0		120	18.0	2.5	/experiments/knapen_AOT/AOT_stimuli/rescaled_final/0289_rv.mp4	0.0	222.54108047485352	1.008516550064087
20	134.6554892063141	pulse	0	t		18.0	2.5	/experiments/knapen_AOT/AOT_stimuli/rescaled_final/0289_rv.mp4	0.0	222.718199968338	
20	135.48688626289368	movie	1		265	18.0	2.5	/experiments/knapen_AOT/AOT_stimuli/rescaled_final/0289_rv.mp4	0.0	223.5495970249176	2.492311954498291
20	136.26246285438538	pulse	1	t		18.0	2.5	/experiments/knapen_AOT/AOT_stimuli/rescaled_final/0289_rv.mp4	0.0	224.3251736164093	
20	137.86055636405945	pulse	1	t		18.0	2.5	/experiments/knapen_AOT/AOT_stimuli/rescaled_final/0289_rv.mp4	0.0	225.92326712608337	
20	137.97919821739197	fix_post	2		12	18.0	2.5	/experiments/knapen_AOT/AOT_stimuli/rescaled_final/0289_rv.mp4	0.0	226.0419089794159	0.09972000122070312
21	138.07891821861267	fix_pre	0		120	19.0	2.5	/experiments/knapen_AOT/AOT_stimuli/rescaled_final/0744_fw.mp4	0.0	226.1416289806366	1.0087106227874756
21	139.08762884140015	movie	1		258	19.0	2.5	/experiments/knapen_AOT/AOT_stimuli/rescaled_final/0744_fw.mp4	0.0	227.15033960342407	2.491788625717163
21	139.46243691444397	pulse	1	t		19.0	2.5	/experiments/knapen_AOT/AOT_stimuli/rescaled_final/0744_fw.mp4	0.0	227.5251476764679	
21	141.0608184337616	pulse	1	t		19.0	2.5	/experiments/knapen_AOT/AOT_stimuli/rescaled_final/0744_fw.mp4	0.0	229.12352919578552	
21	141.5794174671173	fix_post	2		12	19.0	2.5	/experiments/knapen_AOT/AOT_stimuli/rescaled_final/0744_fw.mp4	0.0	229.64212822914124	0.10002732276916504
22	141.67944478988647	fix_pre	0		119	20.0	2.5	/experiments/knapen_AOT/AOT_stimuli/rescaled_final/1278_fw.mp4	0.0	229.7421555519104	1.0002729892730713
22	142.65544080734253	pulse	0	t		20.0	2.5	/experiments/knapen_AOT/AOT_stimuli/rescaled_final/1278_fw.mp4	0.0	230.71815156936646	
22	142.67971777915955	movie	1		260	20.0	2.5	/experiments/knapen_AOT/AOT_stimuli/rescaled_final/1278_fw.mp4	0.0	230.74242854118347	2.500251531600952
22	144.2555432319641	pulse	1	t		20.0	2.5	/experiments/knapen_AOT/AOT_stimuli/rescaled_final/1278_fw.mp4	0.0	232.31825399398804	
22	145.1799693107605	fix_post	2		12	20.0	2.5	/experiments/knapen_AOT/AOT_stimuli/rescaled_final/1278_fw.mp4	0.0	233.24268007278442	0.10004687309265137
23	145.28001618385315	fix_pre	0		120	21.0	2.5	blank	1.0	233.34272694587708	1.000117301940918
23	145.85548424720764	pulse	0	t		21.0	2.5	blank	1.0	233.91819500923157	
23	146.28013348579407	movie	1		300	21.0	2.5	blank	1.0	234.342844247818	2.500565528869629
23	147.4555504322052	pulse	1	t		21.0	2.5	blank	1.0	235.51826119422913	
23	148.7806990146637	fix_post	2		12	21.0	2.5	blank	1.0	236.84340977668762	0.0998227596282959
24	148.880521774292	fix_pre	0		120	22.0	2.5	/experiments/knapen_AOT/AOT_stimuli/rescaled_final/0255_fw.mp4	0.0	236.94323253631592	1.0090768337249756
24	149.05577731132507	pulse	0	t		22.0	2.5	/experiments/knapen_AOT/AOT_stimuli/rescaled_final/0255_fw.mp4	0.0	237.118488073349	
24	149.88959860801697	movie	1		253	22.0	2.5	/experiments/knapen_AOT/AOT_stimuli/rescaled_final/0255_fw.mp4	0.0	237.9523093700409	2.4914820194244385
24	150.65628480911255	pulse	1	t		22.0	2.5	/experiments/knapen_AOT/AOT_stimuli/rescaled_final/0255_fw.mp4	0.0	238.71899557113647	
24	152.25643110275269	pulse	1	t		22.0	2.5	/experiments/knapen_AOT/AOT_stimuli/rescaled_final/0255_fw.mp4	0.0	240.3191418647766	
24	152.3810806274414	fix_post	2		12	22.0	2.5	/experiments/knapen_AOT/AOT_stimuli/rescaled_final/0255_fw.mp4	0.0	240.44379138946533	0.10005521774291992
25	152.48113584518433	fix_pre	0		120	23.0	2.5	/experiments/knapen_AOT/AOT_stimuli/rescaled_final/0538_fw.mp4	0.0	240.54384660720825	1.008589506149292
25	153.48972535133362	movie	1		274	23.0	2.5	/experiments/knapen_AOT/AOT_stimuli/rescaled_final/0538_fw.mp4	0.0	241.55243611335754	2.492152690887451
25	153.8565833568573	pulse	1	t		23.0	2.5	/experiments/knapen_AOT/AOT_stimuli/rescaled_final/0538_fw.mp4	0.0	241.91929411888123	
25	155.4568169116974	pulse	1	t		23.0	2.5	/experiments/knapen_AOT/AOT_stimuli/rescaled_final/0538_fw.mp4	0.0	243.5195276737213	
25	155.98187804222107	fix_post	2		12	23.0	2.5	/experiments/knapen_AOT/AOT_stimuli/rescaled_final/0538_fw.mp4	0.0	244.044588804245	0.09994864463806152
26	156.08182668685913	fix_pre	0		118	24.0	2.5	/experiments/knapen_AOT/AOT_stimuli/rescaled_final/0470_fw.mp4	0.0	244.14453744888306	0.9915821552276611
26	157.05699920654297	pulse	0	t		24.0	2.5	/experiments/knapen_AOT/AOT_stimuli/rescaled_final/0470_fw.mp4	0.0	245.1197099685669	
26	157.0734088420868	movie	1		273	24.0	2.5	/experiments/knapen_AOT/AOT_stimuli/rescaled_final/0470_fw.mp4	0.0	245.13611960411072	2.500497817993164
26	158.65559458732605	pulse	1	t		24.0	2.5	/experiments/knapen_AOT/AOT_stimuli/rescaled_final/0470_fw.mp4	0.0	246.71830534934998	
26	159.57390666007996	fix_post	2		12	24.0	2.5	/experiments/knapen_AOT/AOT_stimuli/rescaled_final/0470_fw.mp4	0.0	247.63661742210388	0.09990787506103516
27	159.673814535141	fix_pre	0		120	25.0	2.5	/experiments/knapen_AOT/AOT_stimuli/rescaled_final/0039_fw.mp4	0.0	247.73652529716492	1.0085322856903076
27	160.25745725631714	pulse	0	t		25.0	2.5	/experiments/knapen_AOT/AOT_stimuli/rescaled_final/0039_fw.mp4	0.0	248.32016801834106	
27	160.6823468208313	movie	1		269	25.0	2.5	/experiments/knapen_AOT/AOT_stimuli/rescaled_final/0039_fw.mp4	0.0	248.74505758285522	2.492058515548706
27	161.85603880882263	pulse	1	t		25.0	2.5	/experiments/knapen_AOT/AOT_stimuli/rescaled_final/0039_fw.mp4	0.0	249.91874957084656	
27	163.17440533638	fix_post	2		12	25.0	2.5	/experiments/knapen_AOT/AOT_stimuli/rescaled_final/0039_fw.mp4	0.0	251.23711609840393	0.10000181198120117
28	163.2744071483612	fix_pre	0		120	26.0	2.5	/experiments/knapen_AOT/AOT_stimuli/rescaled_final/0451_rv.mp4	0.0	251.33711791038513	1.0084466934204102
28	163.45792055130005	pulse	0	t		26.0	2.5	/experiments/knapen_AOT/AOT_stimuli/rescaled_final/0451_rv.mp4	0.0	251.52063131332397	
28	164.28285384178162	movie	1		271	26.0	2.5	/experiments/knapen_AOT/AOT_stimuli/rescaled_final/0451_rv.mp4	0.0	252.34556460380554	2.4924705028533936
28	165.05629205703735	pulse	1	t		26.0	2.5	/experiments/knapen_AOT/AOT_stimuli/rescaled_final/0451_rv.mp4	0.0	253.11900281906128	
28	166.65852904319763	pulse	1	t		26.0	2.5	/experiments/knapen_AOT/AOT_stimuli/rescaled_final/0451_rv.mp4	0.0	254.72123980522156	
28	166.775324344635	fix_post	2		12	26.0	2.5	/experiments/knapen_AOT/AOT_stimuli/rescaled_final/0451_rv.mp4	0.0	254.83803510665894	0.09956645965576172
29	166.87489080429077	fix_pre	0		120	27.0	2.5	blank	1.0	254.9376015663147	1.0001568794250488
29	167.87504768371582	movie	1		300	27.0	2.5	blank	1.0	255.93775844573975	2.500380516052246
29	168.25865244865417	pulse	1	t		27.0	2.5	blank	1.0	256.3213632106781	
29	169.85889291763306	pulse	1	t		27.0	2.5	blank	1.0	257.921603679657	
29	170.37542819976807	fix_post	2		12	27.0	2.5	blank	1.0	258.438138961792	0.0999755859375
30	170.47540378570557	fix_pre	0		119	28.0	2.5	/experiments/knapen_AOT/AOT_stimuli/rescaled_final/1916_rv.mp4	0.0	258.5381145477295	1.0002052783966064
30	171.45914340019226	pulse	0	t		28.0	2.5	/experiments/knapen_AOT/AOT_stimuli/rescaled_final/1916_rv.mp4	0.0	259.5218541622162	
30	171.47560906410217	movie	1		282	28.0	2.5	/experiments/knapen_AOT/AOT_stimuli/rescaled_final/1916_rv.mp4	0.0	259.5383198261261	2.5004279613494873
30	173.0584056377411	pulse	1	t		28.0	2.5	/experiments/knapen_AOT/AOT_stimuli/rescaled_final/1916_rv.mp4	0.0	261.121116399765	
30	173.97603702545166	fix_post	2		12	28.0	2.5	/experiments/knapen_AOT/AOT_stimuli/rescaled_final/1916_rv.mp4	0.0	262.0387477874756	0.09994792938232422
31	174.07598495483398	fix_pre	0		120	29.0	2.5	/experiments/knapen_AOT/AOT_stimuli/rescaled_final/0807_rv.mp4	0.0	262.1386957168579	1.0086560249328613
31	174.65961599349976	pulse	0	t		29.0	2.5	/experiments/knapen_AOT/AOT_stimuli/rescaled_final/0807_rv.mp4	0.0	262.7223267555237	
31	175.08464097976685	movie	1		259	29.0	2.5	/experiments/knapen_AOT/AOT_stimuli/rescaled_final/0807_rv.mp4	0.0	263.14735174179077	2.500220775604248
31	176.2606086730957	pulse	1	t		29.0	2.5	/experiments/knapen_AOT/AOT_stimuli/rescaled_final/0807_rv.mp4	0.0	264.32331943511963	
31	177.5848617553711	fix_post	2		11	29.0	2.5	/experiments/knapen_AOT/AOT_stimuli/rescaled_final/0807_rv.mp4	0.0	265.647572517395	0.09187960624694824
32	177.67674136161804	fix_pre	0		120	30.0	2.5	/experiments/knapen_AOT/AOT_stimuli/rescaled_final/1154_fw.mp4	0.0	265.73945212364197	1.0083134174346924
32	177.86009669303894	pulse	0	t		30.0	2.5	/experiments/knapen_AOT/AOT_stimuli/rescaled_final/1154_fw.mp4	0.0	265.92280745506287	
32	178.68505477905273	movie	1		268	30.0	2.5	/experiments/knapen_AOT/AOT_stimuli/rescaled_final/1154_fw.mp4	0.0	266.74776554107666	2.4923462867736816
32	179.45871686935425	pulse	1	t		30.0	2.5	/experiments/knapen_AOT/AOT_stimuli/rescaled_final/1154_fw.mp4	0.0	267.5214276313782	
32	181.0595633983612	pulse	1	t		30.0	2.5	/experiments/knapen_AOT/AOT_stimuli/rescaled_final/1154_fw.mp4	0.0	269.12227416038513	
32	181.17740106582642	fix_post	2		12	30.0	2.5	/experiments/knapen_AOT/AOT_stimuli/rescaled_final/1154_fw.mp4	0.0	269.24011182785034	0.09967947006225586
33	181.27708053588867	fix_pre	0		120	31.0	2.5	/experiments/knapen_AOT/AOT_stimuli/rescaled_final/1997_rv.mp4	0.0	269.3397912979126	1.0085995197296143
33	182.2856800556183	movie	1		255	31.0	2.5	/experiments/knapen_AOT/AOT_stimuli/rescaled_final/1997_rv.mp4	0.0	270.3483908176422	2.4923038482666016
33	182.66017198562622	pulse	1	t		31.0	2.5	/experiments/knapen_AOT/AOT_stimuli/rescaled_final/1997_rv.mp4	0.0	270.72288274765015	
33	184.2586395740509	pulse	1	t		31.0	2.5	/experiments/knapen_AOT/AOT_stimuli/rescaled_final/1997_rv.mp4	0.0	272.32135033607483	
33	184.7779839038849	fix_post	2		12	31.0	2.5	/experiments/knapen_AOT/AOT_stimuli/rescaled_final/1997_rv.mp4	0.0	272.8406946659088	0.09961843490600586
34	184.8776023387909	fix_pre	0		119	32.0	2.5	/experiments/knapen_AOT/AOT_stimuli/rescaled_final/2136_fw.mp4	0.0	272.9403131008148	1.0001392364501953
34	185.86128997802734	pulse	0	t		32.0	2.5	/experiments/knapen_AOT/AOT_stimuli/rescaled_final/2136_fw.mp4	0.0	273.92400074005127	
34	185.8777415752411	movie	1		272	32.0	2.5	/experiments/knapen_AOT/AOT_stimuli/rescaled_final/2136_fw.mp4	0.0	273.940452337265	2.5009028911590576
34	187.46191573143005	pulse	1	t		32.0	2.5	/experiments/knapen_AOT/AOT_stimuli/rescaled_final/2136_fw.mp4	0.0	275.524626493454	
34	188.37864446640015	fix_post	2		12	32.0	2.5	/experiments/knapen_AOT/AOT_stimuli/rescaled_final/2136_fw.mp4	0.0	276.4413552284241	0.09966278076171875
35	188.47830724716187	fix_pre	0		120	33.0	2.5	/experiments/knapen_AOT/AOT_stimuli/rescaled_final/1074_fw.mp4	0.0	276.5410180091858	1.0083036422729492
35	189.06177639961243	pulse	0	t		33.0	2.5	/experiments/knapen_AOT/AOT_stimuli/rescaled_final/1074_fw.mp4	0.0	277.12448716163635	
35	189.48661088943481	movie	1		275	33.0	2.5	/experiments/knapen_AOT/AOT_stimuli/rescaled_final/1074_fw.mp4	0.0	277.54932165145874	2.492260217666626
35	190.66085529327393	pulse	1	t		33.0	2.5	/experiments/knapen_AOT/AOT_stimuli/rescaled_final/1074_fw.mp4	0.0	278.72356605529785	
35	191.97887110710144	fix_post	2		12	33.0	2.5	/experiments/knapen_AOT/AOT_stimuli/rescaled_final/1074_fw.mp4	0.0	280.04158186912537	0.10007357597351074
36	192.07894468307495	fix_pre	0		120	34.0	2.5	blank	1.0	280.1416554450989	0.9999098777770996
36	192.26225590705872	pulse	0	t		34.0	2.5	blank	1.0	280.32496666908264	
36	193.07885456085205	movie	1		300	34.0	2.5	blank	1.0	281.141565322876	2.5004618167877197
36	193.8548138141632	pulse	1	t		34.0	2.5	blank	1.0	281.91752457618713	
36	195.4547200202942	pulse	1	t		34.0	2.5	blank	1.0	283.5174307823181	
36	195.57931637763977	fix_post	2		12	34.0	2.5	blank	1.0	283.6420271396637	0.09991168975830078
37	195.67922806739807	fix_pre	0		120	35.0	2.5	/experiments/knapen_AOT/AOT_stimuli/rescaled_final/0438_rv.mp4	0.0	283.741938829422	1.0087478160858154
37	196.6879758834839	movie	1		258	35.0	2.5	/experiments/knapen_AOT/AOT_stimuli/rescaled_final/0438_rv.mp4	0.0	284.7506866455078	2.4918203353881836
37	197.0547604560852	pulse	1	t		35.0	2.5	/experiments/knapen_AOT/AOT_stimuli/rescaled_final/0438_rv.mp4	0.0	285.11747121810913	
37	198.65496587753296	pulse	1	t		35.0	2.5	/experiments/knapen_AOT/AOT_stimuli/rescaled_final/0438_rv.mp4	0.0	286.7176766395569	
37	199.17979621887207	fix_post	2		12	35.0	2.5	/experiments/knapen_AOT/AOT_stimuli/rescaled_final/0438_rv.mp4	0.0	287.242506980896	0.09999632835388184
38	199.27979254722595	fix_pre	0		118	36.0	2.5	/experiments/knapen_AOT/AOT_stimuli/rescaled_final/1562_fw.mp4	0.0	287.3425033092499	0.9917800426483154
38	200.25514554977417	pulse	0	t		36.0	2.5	/experiments/knapen_AOT/AOT_stimuli/rescaled_final/1562_fw.mp4	0.0	288.3178563117981	
38	200.27157258987427	movie	1		275	36.0	2.5	/experiments/knapen_AOT/AOT_stimuli/rescaled_final/1562_fw.mp4	0.0	288.3342833518982	2.500581741333008
38	201.85635232925415	pulse	1	t		36.0	2.5	/experiments/knapen_AOT/AOT_stimuli/rescaled_final/1562_fw.mp4	0.0	289.9190630912781	
38	202.77215433120728	fix_post	2		12	36.0	2.5	/experiments/knapen_AOT/AOT_stimuli/rescaled_final/1562_fw.mp4	0.0	290.8348650932312	0.09991669654846191
39	202.87207102775574	fix_pre	0		120	37.0	2.5	/experiments/knapen_AOT/AOT_stimuli/rescaled_final/1110_fw.mp4	0.0	290.93478178977966	1.0084044933319092
39	203.45574474334717	pulse	0	t		37.0	2.5	/experiments/knapen_AOT/AOT_stimuli/rescaled_final/1110_fw.mp4	0.0	291.5184555053711	
39	203.88047552108765	movie	1		250	37.0	2.5	/experiments/knapen_AOT/AOT_stimuli/rescaled_final/1110_fw.mp4	0.0	291.9431862831116	2.500382661819458
39	205.0558521747589	pulse	1	t		37.0	2.5	/experiments/knapen_AOT/AOT_stimuli/rescaled_final/1110_fw.mp4	0.0	293.11856293678284	
39	206.3808581829071	fix_post	2		11	37.0	2.5	/experiments/knapen_AOT/AOT_stimuli/rescaled_final/1110_fw.mp4	0.0	294.44356894493103	0.09178972244262695
40	206.47264790534973	fix_pre	0		120	38.0	2.5	/experiments/knapen_AOT/AOT_stimuli/rescaled_final/1637_rv.mp4	0.0	294.53535866737366	1.0083727836608887
40	206.65625381469727	pulse	0	t		38.0	2.5	/experiments/knapen_AOT/AOT_stimuli/rescaled_final/1637_rv.mp4	0.0	294.7189645767212	
40	207.48102068901062	movie	1		279	38.0	2.5	/experiments/knapen_AOT/AOT_stimuli/rescaled_final/1637_rv.mp4	0.0	295.54373145103455	2.492187023162842
40	208.25652623176575	pulse	1	t		38.0	2.5	/experiments/knapen_AOT/AOT_stimuli/rescaled_final/1637_rv.mp4	0.0	296.3192369937897	
40	209.85540986061096	pulse	1	t		38.0	2.5	/experiments/knapen_AOT/AOT_stimuli/rescaled_final/1637_rv.mp4	0.0	297.9181206226349	
40	209.97320771217346	fix_post	2		12	38.0	2.5	/experiments/knapen_AOT/AOT_stimuli/rescaled_final/1637_rv.mp4	0.0	298.0359184741974	0.09986281394958496
41	210.07307052612305	fix_pre	0		120	39.0	2.5	/experiments/knapen_AOT/AOT_stimuli/rescaled_final/1580_rv.mp4	0.0	298.135781288147	1.0084781646728516
41	211.0815486907959	movie	1		257	39.0	2.5	/experiments/knapen_AOT/AOT_stimuli/rescaled_final/1580_rv.mp4	0.0	299.1442594528198	2.4921979904174805
41	211.45513653755188	pulse	1	t		39.0	2.5	/experiments/knapen_AOT/AOT_stimuli/rescaled_final/1580_rv.mp4	0.0	299.5178472995758	
41	213.05540943145752	pulse	1	t		39.0	2.5	/experiments/knapen_AOT/AOT_stimuli/rescaled_final/1580_rv.mp4	0.0	301.11812019348145	
41	213.57374668121338	fix_post	2		12	39.0	2.5	/experiments/knapen_AOT/AOT_stimuli/rescaled_final/1580_rv.mp4	0.0	301.6364574432373	0.09985017776489258
42	213.67359685897827	fix_pre	0		119	40.0	2.5	/experiments/knapen_AOT/AOT_stimuli/rescaled_final/1952_fw.mp4	0.0	301.7363076210022	1.0001745223999023
42	214.65753555297852	pulse	0	t		40.0	2.5	/experiments/knapen_AOT/AOT_stimuli/rescaled_final/1952_fw.mp4	0.0	302.72024631500244	
42	214.67377138137817	movie	1		265	40.0	2.5	/experiments/knapen_AOT/AOT_stimuli/rescaled_final/1952_fw.mp4	0.0	302.7364821434021	2.50050950050354
42	216.25617480278015	pulse	1	t		40.0	2.5	/experiments/knapen_AOT/AOT_stimuli/rescaled_final/1952_fw.mp4	0.0	304.3188855648041	
42	217.1742808818817	fix_post	2		12	40.0	2.5	/experiments/knapen_AOT/AOT_stimuli/rescaled_final/1952_fw.mp4	0.0	305.23699164390564	0.09991836547851562
43	217.27419924736023	fix_pre	0		120	41.0	2.5	blank	1.0	305.33691000938416	1.0001471042633057
43	217.8578462600708	pulse	0	t		41.0	2.5	blank	1.0	305.9205570220947	
43	218.27434635162354	movie	1		283	41.0	2.5	blank	1.0	306.33705711364746	2.5003442764282227
43	219.46940875053406	pulse	1	t		41.0	2.5	blank	1.0	307.532119512558	
43	220.77469062805176	fix_post	2		12	41.0	2.5	blank	1.0	308.8374013900757	0.10003352165222168
44	220.87472414970398	fix_pre	0		120	42.0	2.5	/experiments/knapen_AOT/AOT_stimuli/rescaled_final/0844_fw.mp4	0.0	308.9374349117279	1.0085201263427734
44	221.05826377868652	pulse	0	t		42.0	2.5	/experiments/knapen_AOT/AOT_stimuli/rescaled_final/0844_fw.mp4	0.0	309.12097454071045	
44	221.88324427604675	movie	1		262	42.0	2.5	/experiments/knapen_AOT/AOT_stimuli/rescaled_final/0844_fw.mp4	0.0	309.9459550380707	2.4920051097869873
44	222.65665698051453	pulse	1	t		42.0	2.5	/experiments/knapen_AOT/AOT_stimuli/rescaled_final/0844_fw.mp4	0.0	310.71936774253845	
44	224.25904083251953	pulse	1	t		42.0	2.5	/experiments/knapen_AOT/AOT_stimuli/rescaled_final/0844_fw.mp4	0.0	312.32175159454346	
44	224.37524938583374	fix_post	2		12	42.0	2.5	/experiments/knapen_AOT/AOT_stimuli/rescaled_final/0844_fw.mp4	0.0	312.43796014785767	0.09999513626098633
45	224.47524452209473	fix_pre	0		120	43.0	2.5	/experiments/knapen_AOT/AOT_stimuli/rescaled_final/1329_rv.mp4	0.0	312.53795528411865	1.0085670948028564
45	225.48381161689758	movie	1		257	43.0	2.5	/experiments/knapen_AOT/AOT_stimuli/rescaled_final/1329_rv.mp4	0.0	313.5465223789215	2.500352382659912
45	225.85739278793335	pulse	1	t		43.0	2.5	/experiments/knapen_AOT/AOT_stimuli/rescaled_final/1329_rv.mp4	0.0	313.9201035499573	
45	227.4573814868927	pulse	1	t		43.0	2.5	/experiments/knapen_AOT/AOT_stimuli/rescaled_final/1329_rv.mp4	0.0	315.5200922489166	
45	227.9841639995575	fix_post	2		11	43.0	2.5	/experiments/knapen_AOT/AOT_stimuli/rescaled_final/1329_rv.mp4	0.0	316.0468747615814	0.09169912338256836
46	228.07586312294006	fix_pre	0		119	44.0	2.5	/experiments/knapen_AOT/AOT_stimuli/rescaled_final/1938_fw.mp4	0.0	316.138573884964	1.008603811264038
46	229.05948543548584	pulse	0	t		44.0	2.5	/experiments/knapen_AOT/AOT_stimuli/rescaled_final/1938_fw.mp4	0.0	317.12219619750977	
46	229.0844669342041	movie	1		264	44.0	2.5	/experiments/knapen_AOT/AOT_stimuli/rescaled_final/1938_fw.mp4	0.0	317.147177696228	2.4918417930603027
46	230.65783548355103	pulse	1	t		44.0	2.5	/experiments/knapen_AOT/AOT_stimuli/rescaled_final/1938_fw.mp4	0.0	318.72054624557495	
46	231.5763087272644	fix_post	2		12	44.0	2.5	/experiments/knapen_AOT/AOT_stimuli/rescaled_final/1938_fw.mp4	0.0	319.63901948928833	0.10016417503356934
47	231.67647290229797	fix_pre	0		120	45.0	2.5	/experiments/knapen_AOT/AOT_stimuli/rescaled_final/0480_rv.mp4	0.0	319.7391836643219	1.0085182189941406
47	232.25993728637695	pulse	0	t		45.0	2.5	/experiments/knapen_AOT/AOT_stimuli/rescaled_final/0480_rv.mp4	0.0	320.3226480484009	
47	232.68499112129211	movie	1		270	45.0	2.5	/experiments/knapen_AOT/AOT_stimuli/rescaled_final/0480_rv.mp4	0.0	320.74770188331604	2.4919865131378174
47	233.85840678215027	pulse	1	t		45.0	2.5	/experiments/knapen_AOT/AOT_stimuli/rescaled_final/0480_rv.mp4	0.0	321.9211175441742	
47	235.17697763442993	fix_post	2		12	45.0	2.5	/experiments/knapen_AOT/AOT_stimuli/rescaled_final/0480_rv.mp4	0.0	323.23968839645386	0.09989094734191895
48	235.27686858177185	fix_pre	0		120	46.0	2.5	/experiments/knapen_AOT/AOT_stimuli/rescaled_final/0292_fw.mp4	0.0	323.3395793437958	1.008634328842163
48	235.4604766368866	pulse	0	t		46.0	2.5	/experiments/knapen_AOT/AOT_stimuli/rescaled_final/0292_fw.mp4	0.0	323.5231873989105	
48	236.285502910614	movie	1		265	46.0	2.5	/experiments/knapen_AOT/AOT_stimuli/rescaled_final/0292_fw.mp4	0.0	324.34821367263794	2.492032527923584
48	237.0585482120514	pulse	1	t		46.0	2.5	/experiments/knapen_AOT/AOT_stimuli/rescaled_final/0292_fw.mp4	0.0	325.1212589740753	
48	238.66110610961914	pulse	1	t		46.0	2.5	/experiments/knapen_AOT/AOT_stimuli/rescaled_final/0292_fw.mp4	0.0	326.72381687164307	
48	238.7775354385376	fix_post	2		12	46.0	2.5	/experiments/knapen_AOT/AOT_stimuli/rescaled_final/0292_fw.mp4	0.0	326.8402462005615	0.0999000072479248
49	238.87743544578552	fix_pre	0		120	47.0	2.5	/experiments/knapen_AOT/AOT_stimuli/rescaled_final/0303_fw.mp4	0.0	326.94014620780945	1.008669137954712
49	239.88610458374023	movie	1		276	47.0	2.5	/experiments/knapen_AOT/AOT_stimuli/rescaled_final/0303_fw.mp4	0.0	327.94881534576416	2.492023229598999
49	240.26030135154724	pulse	1	t		47.0	2.5	/experiments/knapen_AOT/AOT_stimuli/rescaled_final/0303_fw.mp4	0.0	328.32301211357117	
49	241.8592619895935	pulse	1	t		47.0	2.5	/experiments/knapen_AOT/AOT_stimuli/rescaled_final/0303_fw.mp4	0.0	329.92197275161743	
49	242.37812781333923	fix_post	2		12	47.0	2.5	/experiments/knapen_AOT/AOT_stimuli/rescaled_final/0303_fw.mp4	0.0	330.44083857536316	0.0998384952545166
50	242.47796630859375	fix_pre	0		119	48.0	2.5	/experiments/knapen_AOT/AOT_stimuli/rescaled_final/1849_rv.mp4	0.0	330.5406770706177	1.0002007484436035
50	243.4616072177887	pulse	0	t		48.0	2.5	/experiments/knapen_AOT/AOT_stimuli/rescaled_final/1849_rv.mp4	0.0	331.5243179798126	
50	243.47816705703735	movie	1		273	48.0	2.5	/experiments/knapen_AOT/AOT_stimuli/rescaled_final/1849_rv.mp4	0.0	331.5408778190613	2.500476837158203
50	245.06020855903625	pulse	1	t		48.0	2.5	/experiments/knapen_AOT/AOT_stimuli/rescaled_final/1849_rv.mp4	0.0	333.1229193210602	
50	245.97864389419556	fix_post	2		12	48.0	2.5	/experiments/knapen_AOT/AOT_stimuli/rescaled_final/1849_rv.mp4	0.0	334.0413546562195	0.10009479522705078
51	246.0787386894226	fix_pre	0		120	49.0	2.5	blank	1.0	334.14144945144653	0.9999127388000488
51	246.66218256950378	pulse	0	t		49.0	2.5	blank	1.0	334.7248933315277	
51	247.07865142822266	movie	1		300	49.0	2.5	blank	1.0	335.1413621902466	2.5005035400390625
51	248.26249408721924	pulse	1	t		49.0	2.5	blank	1.0	336.32520484924316	
51	249.57915496826172	fix_post	2		12	49.0	2.5	blank	1.0	337.64186573028564	0.09990596771240234
52	249.67906093597412	fix_pre	0		120	50.0	2.5	/experiments/knapen_AOT/AOT_stimuli/rescaled_final/0362_fw.mp4	0.0	337.74177169799805	1.008436918258667
52	249.86257100105286	pulse	0	t		50.0	2.5	/experiments/knapen_AOT/AOT_stimuli/rescaled_final/0362_fw.mp4	0.0	337.9252817630768	
52	250.6874978542328	movie	1		275	50.0	2.5	/experiments/knapen_AOT/AOT_stimuli/rescaled_final/0362_fw.mp4	0.0	338.7502086162567	2.492194652557373
52	251.46110010147095	pulse	1	t		50.0	2.5	/experiments/knapen_AOT/AOT_stimuli/rescaled_final/0362_fw.mp4	0.0	339.5238108634949	
52	253.06136870384216	pulse	1	t		50.0	2.5	/experiments/knapen_AOT/AOT_stimuli/rescaled_final/0362_fw.mp4	0.0	341.1240794658661	
52	253.17969250679016	fix_post	2		12	50.0	2.5	/experiments/knapen_AOT/AOT_stimuli/rescaled_final/0362_fw.mp4	0.0	341.2424032688141	0.10003209114074707
53	253.2797245979309	fix_pre	0		120	51.0	2.5	/experiments/knapen_AOT/AOT_stimuli/rescaled_final/1120_fw.mp4	0.0	341.34243535995483	1.0083799362182617
53	254.28810453414917	movie	1		276	51.0	2.5	/experiments/knapen_AOT/AOT_stimuli/rescaled_final/1120_fw.mp4	0.0	342.3508152961731	2.492366313934326
53	254.65555119514465	pulse	1	t		51.0	2.5	/experiments/knapen_AOT/AOT_stimuli/rescaled_final/1120_fw.mp4	0.0	342.7182619571686	
53	256.25546622276306	pulse	1	t		51.0	2.5	/experiments/knapen_AOT/AOT_stimuli/rescaled_final/1120_fw.mp4	0.0	344.318176984787	
53	256.7804708480835	fix_post	2		12	51.0	2.5	/experiments/knapen_AOT/AOT_stimuli/rescaled_final/1120_fw.mp4	0.0	344.8431816101074	0.0996541976928711
54	256.88012504577637	fix_pre	0		118	52.0	2.5	/experiments/knapen_AOT/AOT_stimuli/rescaled_final/1154_fw.mp4	0.0	344.9428358078003	0.9917776584625244
54	257.85558104515076	pulse	0	t		52.0	2.5	/experiments/knapen_AOT/AOT_stimuli/rescaled_final/1154_fw.mp4	0.0	345.9182918071747	
54	257.8719027042389	movie	1		278	52.0	2.5	/experiments/knapen_AOT/AOT_stimuli/rescaled_final/1154_fw.mp4	0.0	345.9346134662628	2.5006442070007324
54	259.4558217525482	pulse	1	t		52.0	2.5	/experiments/knapen_AOT/AOT_stimuli/rescaled_final/1154_fw.mp4	0.0	347.51853251457214	
54	260.3725469112396	fix_post	2		12	52.0	2.5	/experiments/knapen_AOT/AOT_stimuli/rescaled_final/1154_fw.mp4	0.0	348.43525767326355	0.09999728202819824
55	260.4725441932678	fix_pre	0		120	53.0	2.5	/experiments/knapen_AOT/AOT_stimuli/rescaled_final/1590_rv.mp4	0.0	348.53525495529175	1.008531093597412
55	261.0559329986572	pulse	0	t		53.0	2.5	/experiments/knapen_AOT/AOT_stimuli/rescaled_final/1590_rv.mp4	0.0	349.11864376068115	
55	261.48107528686523	movie	1		276	53.0	2.5	/experiments/knapen_AOT/AOT_stimuli/rescaled_final/1590_rv.mp4	0.0	349.54378604888916	2.491950511932373
55	262.6562662124634	pulse	1	t		53.0	2.5	/experiments/knapen_AOT/AOT_stimuli/rescaled_final/1590_rv.mp4	0.0	350.7189769744873	
55	263.9730257987976	fix_post	2		12	53.0	2.5	/experiments/knapen_AOT/AOT_stimuli/rescaled_final/1590_rv.mp4	0.0	352.03573656082153	0.09982609748840332
56	264.072851896286	fix_pre	0		120	54.0	2.5	/experiments/knapen_AOT/AOT_stimuli/rescaled_final/0049_fw.mp4	0.0	352.13556265830994	1.008587121963501
56	264.25652027130127	pulse	0	t		54.0	2.5	/experiments/knapen_AOT/AOT_stimuli/rescaled_final/0049_fw.mp4	0.0	352.3192310333252	
56	265.0814390182495	movie	1		289	54.0	2.5	/experiments/knapen_AOT/AOT_stimuli/rescaled_final/0049_fw.mp4	0.0	353.14414978027344	2.492182493209839
56	265.8567373752594	pulse	1	t		54.0	2.5	/experiments/knapen_AOT/AOT_stimuli/rescaled_final/0049_fw.mp4	0.0	353.9194481372833	
56	267.45677185058594	pulse	1	t		54.0	2.5	/experiments/knapen_AOT/AOT_stimuli/rescaled_final/0049_fw.mp4	0.0	355.51948261260986	
56	267.57362151145935	fix_post	2		12	54.0	2.5	/experiments/knapen_AOT/AOT_stimuli/rescaled_final/0049_fw.mp4	0.0	355.6363322734833	0.0998528003692627
57	267.6734743118286	fix_pre	0		120	55.0	2.5	/experiments/knapen_AOT/AOT_stimuli/rescaled_final/0230_fw.mp4	0.0	355.73618507385254	1.0084319114685059
57	268.6819062232971	movie	1		279	55.0	2.5	/experiments/knapen_AOT/AOT_stimuli/rescaled_final/0230_fw.mp4	0.0	356.74461698532104	2.492314100265503
57	269.0552034378052	pulse	1	t		55.0	2.5	/experiments/knapen_AOT/AOT_stimuli/rescaled_final/0230_fw.mp4	0.0	357.1179141998291	
57	270.65524983406067	pulse	1	t		55.0	2.5	/experiments/knapen_AOT/AOT_stimuli/rescaled_final/0230_fw.mp4	0.0	358.7179605960846	
57	271.1742203235626	fix_post	2		12	55.0	2.5	/experiments/knapen_AOT/AOT_stimuli/rescaled_final/0230_fw.mp4	0.0	359.23693108558655	0.09994864463806152
58	271.2741689682007	fix_pre	0		119	56.0	2.5	blank	1.0	359.3368797302246	0.9916536808013916
58	272.2577614784241	pulse	0	t		56.0	2.5	blank	1.0	360.320472240448	
58	272.2658226490021	movie	1		301	56.0	2.5	blank	1.0	360.328533411026	2.508662700653076
58	273.8578598499298	pulse	1	t		56.0	2.5	blank	1.0	361.92057061195374	
58	274.77448534965515	fix_post	2		12	56.0	2.5	blank	1.0	362.8371961116791	0.09997320175170898
59	274.87445855140686	fix_pre	0		120	57.0	2.5	/experiments/knapen_AOT/AOT_stimuli/rescaled_final/0585_rv.mp4	0.0	362.9371693134308	1.0085172653198242
59	275.45812034606934	pulse	0	t		57.0	2.5	/experiments/knapen_AOT/AOT_stimuli/rescaled_final/0585_rv.mp4	0.0	363.52083110809326	
59	275.8829758167267	movie	1		286	57.0	2.5	/experiments/knapen_AOT/AOT_stimuli/rescaled_final/0585_rv.mp4	0.0	363.9456865787506	2.4923288822174072
59	277.0587191581726	pulse	1	t		57.0	2.5	/experiments/knapen_AOT/AOT_stimuli/rescaled_final/0585_rv.mp4	0.0	365.12142992019653	
59	278.3753046989441	fix_post	2		12	57.0	2.5	/experiments/knapen_AOT/AOT_stimuli/rescaled_final/0585_rv.mp4	0.0	366.438015460968	0.09972190856933594
60	278.4750266075134	fix_pre	0		120	58.0	2.5	/experiments/knapen_AOT/AOT_stimuli/rescaled_final/0175_rv.mp4	0.0	366.53773736953735	1.0086095333099365
60	278.6585717201233	pulse	0	t		58.0	2.5	/experiments/knapen_AOT/AOT_stimuli/rescaled_final/0175_rv.mp4	0.0	366.7212824821472	
60	279.48363614082336	movie	1		275	58.0	2.5	/experiments/knapen_AOT/AOT_stimuli/rescaled_final/0175_rv.mp4	0.0	367.5463469028473	2.492288112640381
60	280.25681042671204	pulse	1	t		58.0	2.5	/experiments/knapen_AOT/AOT_stimuli/rescaled_final/0175_rv.mp4	0.0	368.31952118873596	
60	281.8572311401367	pulse	1	t		58.0	2.5	/experiments/knapen_AOT/AOT_stimuli/rescaled_final/0175_rv.mp4	0.0	369.91994190216064	
60	281.97592425346375	fix_post	2		12	58.0	2.5	/experiments/knapen_AOT/AOT_stimuli/rescaled_final/0175_rv.mp4	0.0	370.03863501548767	0.09981298446655273
61	282.0757372379303	fix_pre	0		120	59.0	2.5	/experiments/knapen_AOT/AOT_stimuli/rescaled_final/0211_rv.mp4	0.0	370.1384479999542	1.0083184242248535
61	283.08405566215515	movie	1		284	59.0	2.5	/experiments/knapen_AOT/AOT_stimuli/rescaled_final/0211_rv.mp4	0.0	371.1467664241791	2.492032051086426
61	283.45740151405334	pulse	1	t		59.0	2.5	/experiments/knapen_AOT/AOT_stimuli/rescaled_final/0211_rv.mp4	0.0	371.52011227607727	
61	285.05774688720703	pulse	1	t		59.0	2.5	/experiments/knapen_AOT/AOT_stimuli/rescaled_final/0211_rv.mp4	0.0	373.12045764923096	
61	285.5760877132416	fix_post	2		12	59.0	2.5	/experiments/knapen_AOT/AOT_stimuli/rescaled_final/0211_rv.mp4	0.0	373.6387984752655	0.10003185272216797
62	285.67611956596375	fix_pre	0		119	60.0	2.5	/experiments/knapen_AOT/AOT_stimuli/rescaled_final/0230_fw.mp4	0.0	373.73883032798767	1.0002241134643555
62	286.66008281707764	pulse	0	t		60.0	2.5	/experiments/knapen_AOT/AOT_stimuli/rescaled_final/0230_fw.mp4	0.0	374.72279357910156	
62	286.6763436794281	movie	1		278	60.0	2.5	/experiments/knapen_AOT/AOT_stimuli/rescaled_final/0230_fw.mp4	0.0	374.739054441452	2.508650541305542
62	288.25838899612427	pulse	1	t		60.0	2.5	/experiments/knapen_AOT/AOT_stimuli/rescaled_final/0230_fw.mp4	0.0	376.3210997581482	
62	289.18499422073364	fix_post	2		11	60.0	2.5	/experiments/knapen_AOT/AOT_stimuli/rescaled_final/0230_fw.mp4	0.0	377.24770498275757	0.09175896644592285
63	289.27675318717957	fix_pre	0		120	61.0	2.5	blank	1.0	377.3394639492035	1.0000381469726562
63	289.8602511882782	pulse	0	t		61.0	2.5	blank	1.0	377.9229619503021	
63	290.2767913341522	movie	1		300	61.0	2.5	blank	1.0	378.33950209617615	2.5003819465637207
63	291.4606440067291	pulse	1	t		61.0	2.5	blank	1.0	379.52335476875305	
63	292.77717328071594	fix_post	2		12	61.0	2.5	blank	1.0	380.83988404273987	0.10001397132873535
64	292.8771872520447	fix_pre	0		120	62.0	2.5	/experiments/knapen_AOT/AOT_stimuli/rescaled_final/2076_fw.mp4	0.0	380.9398980140686	1.0087296962738037
64	293.0607759952545	pulse	0	t		62.0	2.5	/experiments/knapen_AOT/AOT_stimuli/rescaled_final/2076_fw.mp4	0.0	381.12348675727844	
64	293.8859169483185	movie	1		279	62.0	2.5	/experiments/knapen_AOT/AOT_stimuli/rescaled_final/2076_fw.mp4	0.0	381.9486277103424	2.491997480392456
64	294.66107511520386	pulse	1	t		62.0	2.5	/experiments/knapen_AOT/AOT_stimuli/rescaled_final/2076_fw.mp4	0.0	382.7237858772278	
64	296.2591042518616	pulse	1	t		62.0	2.5	/experiments/knapen_AOT/AOT_stimuli/rescaled_final/2076_fw.mp4	0.0	384.3218150138855	
64	296.37791442871094	fix_post	2		12	62.0	2.5	/experiments/knapen_AOT/AOT_stimuli/rescaled_final/2076_fw.mp4	0.0	384.44062519073486	0.09990453720092773
65	296.47781896591187	fix_pre	0		120	63.0	2.5	/experiments/knapen_AOT/AOT_stimuli/rescaled_final/0715_rv.mp4	0.0	384.5405297279358	1.0087769031524658
65	297.48659586906433	movie	1		272	63.0	2.5	/experiments/knapen_AOT/AOT_stimuli/rescaled_final/0715_rv.mp4	0.0	385.54930663108826	2.491872549057007
65	297.8627362251282	pulse	1	t		63.0	2.5	/experiments/knapen_AOT/AOT_stimuli/rescaled_final/0715_rv.mp4	0.0	385.9254469871521	
65	299.46312379837036	pulse	1	t		63.0	2.5	/experiments/knapen_AOT/AOT_stimuli/rescaled_final/0715_rv.mp4	0.0	387.5258345603943	
65	299.97846841812134	fix_post	2		12	63.0	2.5	/experiments/knapen_AOT/AOT_stimuli/rescaled_final/0715_rv.mp4	0.0	388.04117918014526	0.09979605674743652
66	300.0782644748688	fix_pre	0		119	64.0	2.5	/experiments/knapen_AOT/AOT_stimuli/rescaled_final/0883_fw.mp4	0.0	388.1409752368927	1.0002002716064453
66	301.062020778656	pulse	0	t		64.0	2.5	/experiments/knapen_AOT/AOT_stimuli/rescaled_final/0883_fw.mp4	0.0	389.12473154067993	
66	301.0784647464752	movie	1		277	64.0	2.5	/experiments/knapen_AOT/AOT_stimuli/rescaled_final/0883_fw.mp4	0.0	389.14117550849915	2.500368356704712
66	302.6609036922455	pulse	1	t		64.0	2.5	/experiments/knapen_AOT/AOT_stimuli/rescaled_final/0883_fw.mp4	0.0	390.7236144542694	
66	303.57883310317993	fix_post	2		12	64.0	2.5	/experiments/knapen_AOT/AOT_stimuli/rescaled_final/0883_fw.mp4	0.0	391.64154386520386	0.10004687309265137
67	303.6788799762726	fix_pre	0		120	65.0	2.5	/experiments/knapen_AOT/AOT_stimuli/rescaled_final/2071_fw.mp4	0.0	391.7415907382965	1.00872802734375
67	304.2625069618225	pulse	0	t		65.0	2.5	/experiments/knapen_AOT/AOT_stimuli/rescaled_final/2071_fw.mp4	0.0	392.32521772384644	
67	304.68760800361633	movie	1		281	65.0	2.5	/experiments/knapen_AOT/AOT_stimuli/rescaled_final/2071_fw.mp4	0.0	392.75031876564026	2.491833448410034
67	305.8609471321106	pulse	1	t		65.0	2.5	/experiments/knapen_AOT/AOT_stimuli/rescaled_final/2071_fw.mp4	0.0	393.9236578941345	
67	307.17944145202637	fix_post	2		12	65.0	2.5	/experiments/knapen_AOT/AOT_stimuli/rescaled_final/2071_fw.mp4	0.0	395.2421522140503	0.09993743896484375
68	307.2793788909912	fix_pre	0		120	66.0	2.5	/experiments/knapen_AOT/AOT_stimuli/rescaled_final/0362_rv.mp4	0.0	395.34208965301514	1.00846529006958
68	307.4629237651825	pulse	0	t		66.0	2.5	/experiments/knapen_AOT/AOT_stimuli/rescaled_final/0362_rv.mp4	0.0	395.5256345272064	
68	308.2878441810608	movie	1		274	66.0	2.5	/experiments/knapen_AOT/AOT_stimuli/rescaled_final/0362_rv.mp4	0.0	396.3505549430847	2.492448568344116
68	309.06123065948486	pulse	1	t		66.0	2.5	/experiments/knapen_AOT/AOT_stimuli/rescaled_final/0362_rv.mp4	0.0	397.1239414215088	
68	310.6613042354584	pulse	1	t		66.0	2.5	/experiments/knapen_AOT/AOT_stimuli/rescaled_final/0362_rv.mp4	0.0	398.7240149974823	
68	310.7802927494049	fix_post	2		12	66.0	2.5	/experiments/knapen_AOT/AOT_stimuli/rescaled_final/0362_rv.mp4	0.0	398.84300351142883	0.0996701717376709
69	310.8799629211426	fix_pre	0		120	67.0	2.5	/experiments/knapen_AOT/AOT_stimuli/rescaled_final/1831_rv.mp4	0.0	398.9426736831665	1.0084474086761475
69	311.8884103298187	movie	1		274	67.0	2.5	/experiments/knapen_AOT/AOT_stimuli/rescaled_final/1831_rv.mp4	0.0	399.95112109184265	2.4920196533203125
69	312.2556059360504	pulse	1	t		67.0	2.5	/experiments/knapen_AOT/AOT_stimuli/rescaled_final/1831_rv.mp4	0.0	400.31831669807434	
69	313.8555693626404	pulse	1	t		67.0	2.5	/experiments/knapen_AOT/AOT_stimuli/rescaled_final/1831_rv.mp4	0.0	401.9182801246643	
69	314.38042998313904	fix_post	2		12	67.0	2.5	/experiments/knapen_AOT/AOT_stimuli/rescaled_final/1831_rv.mp4	0.0	402.44314074516296	0.10004353523254395
70	314.4804735183716	fix_pre	0		118	68.0	2.5	/experiments/knapen_AOT/AOT_stimuli/rescaled_final/0038_rv.mp4	0.0	402.5431842803955	0.9917941093444824
70	315.4560492038727	pulse	0	t		68.0	2.5	/experiments/knapen_AOT/AOT_stimuli/rescaled_final/0038_rv.mp4	0.0	403.5187599658966	
70	315.47226762771606	movie	1		290	68.0	2.5	/experiments/knapen_AOT/AOT_stimuli/rescaled_final/0038_rv.mp4	0.0	403.53497838974	2.5006906986236572
70	317.05606150627136	pulse	1	t		68.0	2.5	/experiments/knapen_AOT/AOT_stimuli/rescaled_final/0038_rv.mp4	0.0	405.1187722682953	
70	317.9729583263397	fix_post	2		12	68.0	2.5	/experiments/knapen_AOT/AOT_stimuli/rescaled_final/0038_rv.mp4	0.0	406.03566908836365	0.09972977638244629
71	318.07268810272217	fix_pre	0		120	69.0	2.5	/experiments/knapen_AOT/AOT_stimuli/rescaled_final/0421_rv.mp4	0.0	406.1353988647461	1.0085647106170654
71	318.6565716266632	pulse	0	t		69.0	2.5	/experiments/knapen_AOT/AOT_stimuli/rescaled_final/0421_rv.mp4	0.0	406.71928238868713	
71	319.08125281333923	movie	1		267	69.0	2.5	/experiments/knapen_AOT/AOT_stimuli/rescaled_final/0421_rv.mp4	0.0	407.14396357536316	2.4920082092285156
71	320.2565014362335	pulse	1	t		69.0	2.5	/experiments/knapen_AOT/AOT_stimuli/rescaled_final/0421_rv.mp4	0.0	408.31921219825745	
71	321.57326102256775	fix_post	2		12	69.0	2.5	/experiments/knapen_AOT/AOT_stimuli/rescaled_final/0421_rv.mp4	0.0	409.6359717845917	0.10004472732543945
72	321.6733057498932	fix_pre	0		120	70.0	2.5	blank	1.0	409.7360165119171	1.0000555515289307
72	321.85685086250305	pulse	0	t		70.0	2.5	blank	1.0	409.919561624527	
72	322.6733613014221	movie	1		300	70.0	2.5	blank	1.0	410.73607206344604	2.5003647804260254
72	323.45694518089294	pulse	1	t		70.0	2.5	blank	1.0	411.51965594291687	
72	325.05719089508057	pulse	1	t		70.0	2.5	blank	1.0	413.1199016571045	
72	325.17372608184814	fix_post	2		12	70.0	2.5	blank	1.0	413.23643684387207	0.09997749328613281
73	325.2737035751343	fix_pre	0		120	71.0	2.5	/experiments/knapen_AOT/AOT_stimuli/rescaled_final/1390_fw.mp4	0.0	413.3364143371582	1.0085289478302002
73	326.2822325229645	movie	1		262	71.0	2.5	/experiments/knapen_AOT/AOT_stimuli/rescaled_final/1390_fw.mp4	0.0	414.3449432849884	2.4924612045288086
73	326.655748128891	pulse	1	t		71.0	2.5	/experiments/knapen_AOT/AOT_stimuli/rescaled_final/1390_fw.mp4	0.0	414.7184588909149	
73	328.25614643096924	pulse	1	t		71.0	2.5	/experiments/knapen_AOT/AOT_stimuli/rescaled_final/1390_fw.mp4	0.0	416.31885719299316	
73	328.7746937274933	fix_post	2		12	71.0	2.5	/experiments/knapen_AOT/AOT_stimuli/rescaled_final/1390_fw.mp4	0.0	416.8374044895172	0.0995934009552002
74	328.8742871284485	fix_pre	0		119	72.0	2.5	/experiments/knapen_AOT/AOT_stimuli/rescaled_final/0464_fw.mp4	0.0	416.9369978904724	1.0002903938293457
74	329.8580939769745	pulse	0	t		72.0	2.5	/experiments/knapen_AOT/AOT_stimuli/rescaled_final/0464_fw.mp4	0.0	417.9208047389984	
74	329.87457752227783	movie	1		272	72.0	2.5	/experiments/knapen_AOT/AOT_stimuli/rescaled_final/0464_fw.mp4	0.0	417.93728828430176	2.500586986541748
74	331.4566226005554	pulse	1	t		72.0	2.5	/experiments/knapen_AOT/AOT_stimuli/rescaled_final/0464_fw.mp4	0.0	419.51933336257935	
74	332.3751645088196	fix_post	2		12	72.0	2.5	/experiments/knapen_AOT/AOT_stimuli/rescaled_final/0464_fw.mp4	0.0	420.4378752708435	0.09964966773986816
75	332.47481417655945	fix_pre	0		120	73.0	2.5	/experiments/knapen_AOT/AOT_stimuli/rescaled_final/1322_fw.mp4	0.0	420.5375249385834	1.0087080001831055
75	333.058650970459	pulse	0	t		73.0	2.5	/experiments/knapen_AOT/AOT_stimuli/rescaled_final/1322_fw.mp4	0.0	421.1213617324829	
75	333.48352217674255	movie	1		270	73.0	2.5	/experiments/knapen_AOT/AOT_stimuli/rescaled_final/1322_fw.mp4	0.0	421.5462329387665	2.4918346405029297
75	334.6577305793762	pulse	1	t		73.0	2.5	/experiments/knapen_AOT/AOT_stimuli/rescaled_final/1322_fw.mp4	0.0	422.72044134140015	
75	335.9753568172455	fix_post	2		12	73.0	2.5	/experiments/knapen_AOT/AOT_stimuli/rescaled_final/1322_fw.mp4	0.0	424.0380675792694	0.10014843940734863
76	336.07550525665283	fix_pre	0		120	74.0	2.5	/experiments/knapen_AOT/AOT_stimuli/rescaled_final/1607_fw.mp4	0.0	424.13821601867676	1.0083630084991455
76	336.25894355773926	pulse	0	t		74.0	2.5	/experiments/knapen_AOT/AOT_stimuli/rescaled_final/1607_fw.mp4	0.0	424.3216543197632	
76	337.083868265152	movie	1		277	74.0	2.5	/experiments/knapen_AOT/AOT_stimuli/rescaled_final/1607_fw.mp4	0.0	425.1465790271759	2.4921977519989014
76	337.85733795166016	pulse	1	t		74.0	2.5	/experiments/knapen_AOT/AOT_stimuli/rescaled_final/1607_fw.mp4	0.0	425.9200487136841	
76	339.4574384689331	pulse	1	t		74.0	2.5	/experiments/knapen_AOT/AOT_stimuli/rescaled_final/1607_fw.mp4	0.0	427.52014923095703	
76	339.5760660171509	fix_post	2		12	74.0	2.5	/experiments/knapen_AOT/AOT_stimuli/rescaled_final/1607_fw.mp4	0.0	427.6387767791748	0.09983181953430176
77	339.6758978366852	fix_pre	0		120	75.0	2.5	/experiments/knapen_AOT/AOT_stimuli/rescaled_final/1224_fw.mp4	0.0	427.7386085987091	1.0085244178771973
77	340.6844222545624	movie	1		255	75.0	2.5	/experiments/knapen_AOT/AOT_stimuli/rescaled_final/1224_fw.mp4	0.0	428.7471330165863	2.492048740386963
77	341.0576856136322	pulse	1	t		75.0	2.5	/experiments/knapen_AOT/AOT_stimuli/rescaled_final/1224_fw.mp4	0.0	429.1203963756561	
77	342.6584224700928	pulse	1	t		75.0	2.5	/experiments/knapen_AOT/AOT_stimuli/rescaled_final/1224_fw.mp4	0.0	430.7211332321167	
77	343.17647099494934	fix_post	2		12	75.0	2.5	/experiments/knapen_AOT/AOT_stimuli/rescaled_final/1224_fw.mp4	0.0	431.23918175697327	0.09997034072875977
78	343.2764413356781	fix_pre	0		119	76.0	2.5	blank	1.0	431.339152097702	0.9918153285980225
78	344.26008582115173	pulse	0	t		76.0	2.5	blank	1.0	432.32279658317566	
78	344.2682566642761	movie	1		301	76.0	2.5	blank	1.0	432.33096742630005	2.5087125301361084
78	345.860347032547	pulse	1	t		76.0	2.5	blank	1.0	433.9230577945709	
78	346.77696919441223	fix_post	2		12	76.0	2.5	blank	1.0	434.83967995643616	0.10001206398010254
79	346.87698125839233	fix_pre	0		120	77.0	2.5	/experiments/knapen_AOT/AOT_stimuli/rescaled_final/0001_rv.mp4	0.0	434.93969202041626	1.0085277557373047
79	347.46067452430725	pulse	0	t		77.0	2.5	/experiments/knapen_AOT/AOT_stimuli/rescaled_final/0001_rv.mp4	0.0	435.5233852863312	
79	347.88550901412964	movie	1		267	77.0	2.5	/experiments/knapen_AOT/AOT_stimuli/rescaled_final/0001_rv.mp4	0.0	435.94821977615356	2.4921557903289795
79	349.061354637146	pulse	1	t		77.0	2.5	/experiments/knapen_AOT/AOT_stimuli/rescaled_final/0001_rv.mp4	0.0	437.1240653991699	
79	350.3776648044586	fix_post	2		12	77.0	2.5	/experiments/knapen_AOT/AOT_stimuli/rescaled_final/0001_rv.mp4	0.0	438.44037556648254	0.10001993179321289
80	350.47768473625183	fix_pre	0		120	78.0	2.5	/experiments/knapen_AOT/AOT_stimuli/rescaled_final/1545_rv.mp4	0.0	438.54039549827576	1.0168378353118896
80	350.66156792640686	pulse	0	t		78.0	2.5	/experiments/knapen_AOT/AOT_stimuli/rescaled_final/1545_rv.mp4	0.0	438.7242786884308	
80	351.4945225715637	movie	1		268	78.0	2.5	/experiments/knapen_AOT/AOT_stimuli/rescaled_final/1545_rv.mp4	0.0	439.55723333358765	2.4838314056396484
80	352.25902915000916	pulse	1	t		78.0	2.5	/experiments/knapen_AOT/AOT_stimuli/rescaled_final/1545_rv.mp4	0.0	440.3217399120331	
80	353.85963010787964	pulse	1	t		78.0	2.5	/experiments/knapen_AOT/AOT_stimuli/rescaled_final/1545_rv.mp4	0.0	441.92234086990356	
80	353.97835397720337	fix_post	2		12	78.0	2.5	/experiments/knapen_AOT/AOT_stimuli/rescaled_final/1545_rv.mp4	0.0	442.0410647392273	0.09971332550048828
81	354.07806730270386	fix_pre	0		120	79.0	2.5	/experiments/knapen_AOT/AOT_stimuli/rescaled_final/0027_fw.mp4	0.0	442.1407780647278	1.0085134506225586
81	355.0865807533264	movie	1		267	79.0	2.5	/experiments/knapen_AOT/AOT_stimuli/rescaled_final/0027_fw.mp4	0.0	443.14929151535034	2.4920907020568848
81	355.4602749347687	pulse	1	t		79.0	2.5	/experiments/knapen_AOT/AOT_stimuli/rescaled_final/0027_fw.mp4	0.0	443.5229856967926	
81	357.0600926876068	pulse	1	t		79.0	2.5	/experiments/knapen_AOT/AOT_stimuli/rescaled_final/0027_fw.mp4	0.0	445.12280344963074	
81	357.5786714553833	fix_post	2		12	79.0	2.5	/experiments/knapen_AOT/AOT_stimuli/rescaled_final/0027_fw.mp4	0.0	445.6413822174072	0.09995222091674805
82	357.67862367630005	fix_pre	0		119	80.0	2.5	/experiments/knapen_AOT/AOT_stimuli/rescaled_final/0228_rv.mp4	0.0	445.741334438324	1.0001142024993896
82	358.66238260269165	pulse	0	t		80.0	2.5	/experiments/knapen_AOT/AOT_stimuli/rescaled_final/0228_rv.mp4	0.0	446.7250933647156	
82	358.67873787879944	movie	1		275	80.0	2.5	/experiments/knapen_AOT/AOT_stimuli/rescaled_final/0228_rv.mp4	0.0	446.74144864082336	2.5007548332214355
82	360.2612552642822	pulse	1	t		80.0	2.5	/experiments/knapen_AOT/AOT_stimuli/rescaled_final/0228_rv.mp4	0.0	448.32396602630615	
82	361.1794927120209	fix_post	2		12	80.0	2.5	/experiments/knapen_AOT/AOT_stimuli/rescaled_final/0228_rv.mp4	0.0	449.2422034740448	0.09971094131469727
83	361.27920365333557	fix_pre	0		120	81.0	2.5	/experiments/knapen_AOT/AOT_stimuli/rescaled_final/1987_rv.mp4	0.0	449.3419144153595	1.0084681510925293
83	361.86282753944397	pulse	0	t		81.0	2.5	/experiments/knapen_AOT/AOT_stimuli/rescaled_final/1987_rv.mp4	0.0	449.9255383014679	
83	362.2876718044281	movie	1		272	81.0	2.5	/experiments/knapen_AOT/AOT_stimuli/rescaled_final/1987_rv.mp4	0.0	450.350382566452	2.492199659347534
83	363.46232771873474	pulse	1	t		81.0	2.5	/experiments/knapen_AOT/AOT_stimuli/rescaled_final/1987_rv.mp4	0.0	451.52503848075867	
83	364.77987146377563	fix_post	2		11	81.0	2.5	/experiments/knapen_AOT/AOT_stimuli/rescaled_final/1987_rv.mp4	0.0	452.84258222579956	0.09983229637145996
84	364.8797037601471	fix_pre	0		120	82.0	2.5	/experiments/knapen_AOT/AOT_stimuli/rescaled_final/1580_rv.mp4	0.0	452.942414522171	1.0084669589996338
84	365.06318712234497	pulse	0	t		82.0	2.5	/experiments/knapen_AOT/AOT_stimuli/rescaled_final/1580_rv.mp4	0.0	453.1258978843689	
84	365.88817071914673	movie	1		253	82.0	2.5	/experiments/knapen_AOT/AOT_stimuli/rescaled_final/1580_rv.mp4	0.0	453.95088148117065	2.492044448852539
84	366.6619553565979	pulse	1	t		82.0	2.5	/experiments/knapen_AOT/AOT_stimuli/rescaled_final/1580_rv.mp4	0.0	454.7246661186218	
84	368.2640542984009	pulse	1	t		82.0	2.5	/experiments/knapen_AOT/AOT_stimuli/rescaled_final/1580_rv.mp4	0.0	456.3267650604248	
84	368.38021516799927	fix_post	2		12	82.0	2.5	/experiments/knapen_AOT/AOT_stimuli/rescaled_final/1580_rv.mp4	0.0	456.4429259300232	0.09999585151672363
85	368.480211019516	fix_pre	0		120	83.0	2.5	blank	1.0	456.5429217815399	1.0002055168151855
85	369.4804165363312	movie	1		300	83.0	2.5	blank	1.0	457.5431272983551	2.5003724098205566
85	369.85589146614075	pulse	1	t		83.0	2.5	blank	1.0	457.9186022281647	
85	371.4558832645416	pulse	1	t		83.0	2.5	blank	1.0	459.51859402656555	
85	371.98078894615173	fix_post	2		12	83.0	2.5	blank	1.0	460.04349970817566	0.12522649765014648
87	372.1060154438019	stim	0		1712					460.1687262058258	14.268590211868286
87	373.05615162849426	pulse	0	t						461.1188623905182	
87	374.6563527584076	pulse	0	t						462.7190635204315	
87	376.2565884590149	pulse	0	t						464.3192992210388	
87	377.85687279701233	pulse	0	t						465.91958355903625	
87	379.45708322525024	pulse	0	t						467.51979398727417	
87	381.0573887825012	pulse	0	t						469.12009954452515	
87	382.65761160850525	pulse	0	t						470.7203223705292	
87	384.2578191757202	pulse	0	t						472.32052993774414	
87	385.85810112953186	pulse	0	t						473.9208118915558	
