trial_nr	onset	event_type	phase	response	nr_frames	movie_index	movie_duration	movie_file	blank	onset_abs	duration
0	0.13327884674072266	stim	0		110					22.045414924621582	0.9165210723876953
0	1.0418198108673096	response	0	space						22.95395588874817	
1	1.049799919128418	stim	0		3216					22.961935997009277	26.799880027770996
1	27.842979907989502	pulse	0	t						49.75511598587036	
1	27.849679946899414	stim	1		1717					49.76181602478027	14.308331966400146
1	29.441565990447998	pulse	1	t						51.35370206832886	
1	31.04154896736145	pulse	1	t						52.95368504524231	
1	32.64149188995361	pulse	1	t						54.55362796783447	
1	34.2415189743042	pulse	1	t						56.15365505218506	
1	35.84149980545044	pulse	1	t						57.7536358833313	
1	37.441462993621826	pulse	1	t						59.353599071502686	
1	39.04141879081726	pulse	1	t						60.95355486869812	
1	40.641443967819214	pulse	1	t						62.55358004570007	
2	42.15801191329956	fix_pre	0		11	0.0	2.5	/experiments/AOT/AOT_stimuli/rescaled_final/0582_fw.mp4	0.0	64.07014799118042	0.09159088134765625
2	42.24144196510315	pulse	0	t		0.0	2.5	/experiments/AOT/AOT_stimuli/rescaled_final/0582_fw.mp4	0.0	64.15357804298401	
2	42.24960279464722	movie	1		244	0.0	2.5	/experiments/AOT/AOT_stimuli/rescaled_final/0582_fw.mp4	0.0	64.16173887252808	2.5083022117614746
2	43.840831995010376	pulse	1	t		0.0	2.5	/experiments/AOT/AOT_stimuli/rescaled_final/0582_fw.mp4	0.0	65.75296807289124	
2	44.75790500640869	fix_post	2		12	0.0	2.5	/experiments/AOT/AOT_stimuli/rescaled_final/0582_fw.mp4	0.0	66.67004108428955	0.10004591941833496
3	44.857950925827026	fix_pre	0		120	1.0	2.5	/experiments/AOT/AOT_stimuli/rescaled_final/0070_fw.mp4	0.0	66.77008700370789	1.0000190734863281
3	45.441476821899414	pulse	0	t		1.0	2.5	/experiments/AOT/AOT_stimuli/rescaled_final/0070_fw.mp4	0.0	67.35361289978027	
3	45.857969999313354	movie	1		246	1.0	2.5	/experiments/AOT/AOT_stimuli/rescaled_final/0070_fw.mp4	0.0	67.77010607719421	2.49995493888855
3	47.0415198802948	pulse	1	t		1.0	2.5	/experiments/AOT/AOT_stimuli/rescaled_final/0070_fw.mp4	0.0	68.95365595817566	
3	48.357924938201904	fix_post	2		12	1.0	2.5	/experiments/AOT/AOT_stimuli/rescaled_final/0070_fw.mp4	0.0	70.27006101608276	0.10011792182922363
4	48.45804286003113	fix_pre	0		120	2.0	2.5	/experiments/AOT/AOT_stimuli/rescaled_final/0483_fw.mp4	0.0	70.37017893791199	0.9998741149902344
4	48.641488790512085	pulse	0	t		2.0	2.5	/experiments/AOT/AOT_stimuli/rescaled_final/0483_fw.mp4	0.0	70.55362486839294	
4	49.45791697502136	movie	1		244	2.0	2.5	/experiments/AOT/AOT_stimuli/rescaled_final/0483_fw.mp4	0.0	71.37005305290222	2.50006103515625
4	50.24142098426819	pulse	1	t		2.0	2.5	/experiments/AOT/AOT_stimuli/rescaled_final/0483_fw.mp4	0.0	72.15355706214905	
4	51.84002184867859	pulse	1	t		2.0	2.5	/experiments/AOT/AOT_stimuli/rescaled_final/0483_fw.mp4	0.0	73.75215792655945	
4	51.95797801017761	fix_post	2		12	2.0	2.5	/experiments/AOT/AOT_stimuli/rescaled_final/0483_fw.mp4	0.0	73.87011408805847	0.10001778602600098
5	52.05799579620361	fix_pre	0		120	3.0	2.5	/experiments/AOT/AOT_stimuli/rescaled_final/0548_rv.mp4	0.0	73.97013187408447	0.9999911785125732
5	53.05798697471619	movie	1		244	3.0	2.5	/experiments/AOT/AOT_stimuli/rescaled_final/0548_rv.mp4	0.0	74.97012305259705	2.500041961669922
5	53.44103193283081	pulse	1	t		3.0	2.5	/experiments/AOT/AOT_stimuli/rescaled_final/0548_rv.mp4	0.0	75.35316801071167	
5	55.041364908218384	pulse	1	t		3.0	2.5	/experiments/AOT/AOT_stimuli/rescaled_final/0548_rv.mp4	0.0	76.95350098609924	
5	55.55802893638611	fix_post	2		12	3.0	2.5	/experiments/AOT/AOT_stimuli/rescaled_final/0548_rv.mp4	0.0	77.47016501426697	0.09990596771240234
6	55.65793490409851	fix_pre	0		119	4.0	2.5	/experiments/AOT/AOT_stimuli/rescaled_final/1231_fw.mp4	0.0	77.57007098197937	0.9911420345306396
6	56.64099192619324	pulse	0	t		4.0	2.5	/experiments/AOT/AOT_stimuli/rescaled_final/1231_fw.mp4	0.0	78.5531280040741	
6	56.64907693862915	movie	1		245	4.0	2.5	/experiments/AOT/AOT_stimuli/rescaled_final/1231_fw.mp4	0.0	78.56121301651001	2.5086288452148438
6	58.24115800857544	pulse	1	t		4.0	2.5	/experiments/AOT/AOT_stimuli/rescaled_final/1231_fw.mp4	0.0	80.1532940864563	
6	59.157705783843994	fix_post	2		12	4.0	2.5	/experiments/AOT/AOT_stimuli/rescaled_final/1231_fw.mp4	0.0	81.06984186172485	0.10001611709594727
7	59.25772190093994	fix_pre	0		120	5.0	2.5	blank	1.0	81.1698579788208	1.0001249313354492
7	59.84123492240906	pulse	0	t		5.0	2.5	blank	1.0	81.75337100028992	
7	60.25784683227539	movie	1		300	5.0	2.5	blank	1.0	82.16998291015625	2.5000159740448
7	61.441410779953	pulse	1	t		5.0	2.5	blank	1.0	83.35354685783386	
7	62.75786280632019	fix_post	2		12	5.0	2.5	blank	1.0	84.66999888420105	0.10000801086425781
8	62.85787081718445	fix_pre	0		120	6.0	2.5	/experiments/AOT/AOT_stimuli/rescaled_final/1243_fw.mp4	0.0	84.77000689506531	0.9999761581420898
8	63.04141688346863	pulse	0	t		6.0	2.5	/experiments/AOT/AOT_stimuli/rescaled_final/1243_fw.mp4	0.0	84.95355296134949	
8	63.85784697532654	movie	1		244	6.0	2.5	/experiments/AOT/AOT_stimuli/rescaled_final/1243_fw.mp4	0.0	85.7699830532074	2.50003981590271
8	64.64129495620728	pulse	1	t		6.0	2.5	/experiments/AOT/AOT_stimuli/rescaled_final/1243_fw.mp4	0.0	86.55343103408813	
8	66.23723196983337	pulse	1	t		6.0	2.5	/experiments/AOT/AOT_stimuli/rescaled_final/1243_fw.mp4	0.0	88.14936804771423	
8	66.35788679122925	fix_post	2		12	6.0	2.5	/experiments/AOT/AOT_stimuli/rescaled_final/1243_fw.mp4	0.0	88.27002286911011	0.09989619255065918
9	66.45778298377991	fix_pre	0		120	7.0	2.5	/experiments/AOT/AOT_stimuli/rescaled_final/0775_fw.mp4	0.0	88.36991906166077	1.0000858306884766
9	67.45786881446838	movie	1		247	7.0	2.5	/experiments/AOT/AOT_stimuli/rescaled_final/0775_fw.mp4	0.0	89.37000489234924	2.4999451637268066
9	67.84093499183655	pulse	1	t		7.0	2.5	/experiments/AOT/AOT_stimuli/rescaled_final/0775_fw.mp4	0.0	89.75307106971741	
9	69.44123792648315	pulse	1	t		7.0	2.5	/experiments/AOT/AOT_stimuli/rescaled_final/0775_fw.mp4	0.0	91.35337400436401	
9	69.95781397819519	fix_post	2		12	7.0	2.5	/experiments/AOT/AOT_stimuli/rescaled_final/0775_fw.mp4	0.0	91.86995005607605	0.09995484352111816
10	70.05776882171631	fix_pre	0		119	8.0	2.5	/experiments/AOT/AOT_stimuli/rescaled_final/1054_rv.mp4	0.0	91.96990489959717	0.9916191101074219
10	71.04127788543701	pulse	0	t		8.0	2.5	/experiments/AOT/AOT_stimuli/rescaled_final/1054_rv.mp4	0.0	92.95341396331787	
10	71.04938793182373	movie	1		246	8.0	2.5	/experiments/AOT/AOT_stimuli/rescaled_final/1054_rv.mp4	0.0	92.96152400970459	2.508336067199707
10	72.64088487625122	pulse	1	t		8.0	2.5	/experiments/AOT/AOT_stimuli/rescaled_final/1054_rv.mp4	0.0	94.55302095413208	
10	73.55772399902344	fix_post	2		12	8.0	2.5	/experiments/AOT/AOT_stimuli/rescaled_final/1054_rv.mp4	0.0	95.4698600769043	0.10004591941833496
11	73.65776991844177	fix_pre	0		120	9.0	2.5	/experiments/AOT/AOT_stimuli/rescaled_final/0170_fw.mp4	0.0	95.56990599632263	0.9999358654022217
11	74.24137687683105	pulse	0	t		9.0	2.5	/experiments/AOT/AOT_stimuli/rescaled_final/0170_fw.mp4	0.0	96.15351295471191	
11	74.657705783844	movie	1		244	9.0	2.5	/experiments/AOT/AOT_stimuli/rescaled_final/0170_fw.mp4	0.0	96.56984186172485	2.5000669956207275
11	75.84141993522644	pulse	1	t		9.0	2.5	/experiments/AOT/AOT_stimuli/rescaled_final/0170_fw.mp4	0.0	97.7535560131073	
11	77.15777277946472	fix_post	2		12	9.0	2.5	/experiments/AOT/AOT_stimuli/rescaled_final/0170_fw.mp4	0.0	99.06990885734558	0.09996914863586426
12	77.25774192810059	fix_pre	0		120	10.0	2.5	/experiments/AOT/AOT_stimuli/rescaled_final/0052_rv.mp4	0.0	99.16987800598145	1.0001258850097656
12	77.44128489494324	pulse	0	t		10.0	2.5	/experiments/AOT/AOT_stimuli/rescaled_final/0052_rv.mp4	0.0	99.3534209728241	
12	78.25786781311035	movie	1		245	10.0	2.5	/experiments/AOT/AOT_stimuli/rescaled_final/0052_rv.mp4	0.0	100.17000389099121	2.4999101161956787
12	79.04124593734741	pulse	1	t		10.0	2.5	/experiments/AOT/AOT_stimuli/rescaled_final/0052_rv.mp4	0.0	100.95338201522827	
12	80.63987183570862	pulse	1	t		10.0	2.5	/experiments/AOT/AOT_stimuli/rescaled_final/0052_rv.mp4	0.0	102.55200791358948	
12	80.75777792930603	fix_post	2		12	10.0	2.5	/experiments/AOT/AOT_stimuli/rescaled_final/0052_rv.mp4	0.0	102.66991400718689	0.09996986389160156
13	80.85774779319763	fix_pre	0		120	11.0	2.5	/experiments/AOT/AOT_stimuli/rescaled_final/0059_fw.mp4	0.0	102.76988387107849	1.000157117843628
13	81.85790491104126	movie	1		244	11.0	2.5	/experiments/AOT/AOT_stimuli/rescaled_final/0059_fw.mp4	0.0	103.77004098892212	2.4998960494995117
13	82.2422149181366	pulse	1	t		11.0	2.5	/experiments/AOT/AOT_stimuli/rescaled_final/0059_fw.mp4	0.0	104.15435099601746	
13	83.84121799468994	pulse	1	t		11.0	2.5	/experiments/AOT/AOT_stimuli/rescaled_final/0059_fw.mp4	0.0	105.7533540725708	
13	84.35780096054077	fix_post	2		12	11.0	2.5	/experiments/AOT/AOT_stimuli/rescaled_final/0059_fw.mp4	0.0	106.26993703842163	0.10010695457458496
14	84.45790791511536	fix_pre	0		119	12.0	2.5	/experiments/AOT/AOT_stimuli/rescaled_final/0195_fw.mp4	0.0	106.37004399299622	0.9915030002593994
14	85.44127988815308	pulse	0	t		12.0	2.5	/experiments/AOT/AOT_stimuli/rescaled_final/0195_fw.mp4	0.0	107.35341596603394	
14	85.44941091537476	movie	1		244	12.0	2.5	/experiments/AOT/AOT_stimuli/rescaled_final/0195_fw.mp4	0.0	107.36154699325562	2.508347988128662
14	87.04138994216919	pulse	1	t		12.0	2.5	/experiments/AOT/AOT_stimuli/rescaled_final/0195_fw.mp4	0.0	108.95352602005005	
14	87.95775890350342	fix_post	2		12	12.0	2.5	/experiments/AOT/AOT_stimuli/rescaled_final/0195_fw.mp4	0.0	109.86989498138428	0.10001301765441895
15	88.05777192115784	fix_pre	0		120	13.0	2.5	/experiments/AOT/AOT_stimuli/rescaled_final/1051_rv.mp4	0.0	109.9699079990387	0.9999599456787109
15	88.64127278327942	pulse	0	t		13.0	2.5	/experiments/AOT/AOT_stimuli/rescaled_final/1051_rv.mp4	0.0	110.55340886116028	
15	89.05773186683655	movie	1		242	13.0	2.5	/experiments/AOT/AOT_stimuli/rescaled_final/1051_rv.mp4	0.0	110.96986794471741	2.4999470710754395
15	90.24125385284424	pulse	1	t		13.0	2.5	/experiments/AOT/AOT_stimuli/rescaled_final/1051_rv.mp4	0.0	112.1533899307251	
15	91.55767893791199	fix_post	2		12	13.0	2.5	/experiments/AOT/AOT_stimuli/rescaled_final/1051_rv.mp4	0.0	113.46981501579285	0.10007691383361816
16	91.6577558517456	fix_pre	0		120	14.0	2.5	blank	1.0	113.56989192962646	0.99989914894104
16	91.84123492240906	pulse	0	t		14.0	2.5	blank	1.0	113.75337100028992	
16	92.65765500068665	movie	1		300	14.0	2.5	blank	1.0	114.5697910785675	2.500034809112549
16	93.4412407875061	pulse	1	t		14.0	2.5	blank	1.0	115.35337686538696	
16	95.04129981994629	pulse	1	t		14.0	2.5	blank	1.0	116.95343589782715	
16	95.1576898097992	fix_post	2		12	14.0	2.5	blank	1.0	117.06982588768005	0.09995317459106445
17	95.25764298439026	fix_pre	0		120	15.0	2.5	/experiments/AOT/AOT_stimuli/rescaled_final/1931_rv.mp4	0.0	117.16977906227112	0.9999809265136719
17	96.25762391090393	movie	1		245	15.0	2.5	/experiments/AOT/AOT_stimuli/rescaled_final/1931_rv.mp4	0.0	118.16975998878479	2.500143051147461
17	96.6406397819519	pulse	1	t		15.0	2.5	/experiments/AOT/AOT_stimuli/rescaled_final/1931_rv.mp4	0.0	118.55277585983276	
17	98.24106097221375	pulse	1	t		15.0	2.5	/experiments/AOT/AOT_stimuli/rescaled_final/1931_rv.mp4	0.0	120.1531970500946	
17	98.75776696205139	fix_post	2		12	15.0	2.5	/experiments/AOT/AOT_stimuli/rescaled_final/1931_rv.mp4	0.0	120.66990303993225	0.09989190101623535
18	98.85765886306763	fix_pre	0		119	16.0	2.5	/experiments/AOT/AOT_stimuli/rescaled_final/1284_fw.mp4	0.0	120.76979494094849	0.9916789531707764
18	99.84120583534241	pulse	0	t		16.0	2.5	/experiments/AOT/AOT_stimuli/rescaled_final/1284_fw.mp4	0.0	121.75334191322327	
18	99.8493378162384	movie	1		245	16.0	2.5	/experiments/AOT/AOT_stimuli/rescaled_final/1284_fw.mp4	0.0	121.76147389411926	2.5082600116729736
18	101.44071197509766	pulse	1	t		16.0	2.5	/experiments/AOT/AOT_stimuli/rescaled_final/1284_fw.mp4	0.0	123.35284805297852	
18	102.35759782791138	fix_post	2		12	16.0	2.5	/experiments/AOT/AOT_stimuli/rescaled_final/1284_fw.mp4	0.0	124.26973390579224	0.10005998611450195
19	102.45765781402588	fix_pre	0		120	17.0	2.5	/experiments/AOT/AOT_stimuli/rescaled_final/1861_fw.mp4	0.0	124.36979389190674	1.0000600814819336
19	103.04123187065125	pulse	0	t		17.0	2.5	/experiments/AOT/AOT_stimuli/rescaled_final/1861_fw.mp4	0.0	124.9533679485321	
19	103.45771789550781	movie	1		243	17.0	2.5	/experiments/AOT/AOT_stimuli/rescaled_final/1861_fw.mp4	0.0	125.36985397338867	2.4999430179595947
19	104.64120197296143	pulse	1	t		17.0	2.5	/experiments/AOT/AOT_stimuli/rescaled_final/1861_fw.mp4	0.0	126.55333805084229	
19	105.95766091346741	fix_post	2		12	17.0	2.5	/experiments/AOT/AOT_stimuli/rescaled_final/1861_fw.mp4	0.0	127.86979699134827	0.09996199607849121
20	106.0576229095459	fix_pre	0		120	18.0	2.5	/experiments/AOT/AOT_stimuli/rescaled_final/1773_fw.mp4	0.0	127.96975898742676	1.000087022781372
20	106.24109983444214	pulse	0	t		18.0	2.5	/experiments/AOT/AOT_stimuli/rescaled_final/1773_fw.mp4	0.0	128.153235912323	
20	107.05770993232727	movie	1		243	18.0	2.5	/experiments/AOT/AOT_stimuli/rescaled_final/1773_fw.mp4	0.0	128.96984601020813	2.5000059604644775
20	107.84117197990417	pulse	1	t		18.0	2.5	/experiments/AOT/AOT_stimuli/rescaled_final/1773_fw.mp4	0.0	129.75330805778503	
20	109.43974184989929	pulse	1	t		18.0	2.5	/experiments/AOT/AOT_stimuli/rescaled_final/1773_fw.mp4	0.0	131.35187792778015	
20	109.55771589279175	fix_post	2		12	18.0	2.5	/experiments/AOT/AOT_stimuli/rescaled_final/1773_fw.mp4	0.0	131.4698519706726	0.09998106956481934
21	109.65769696235657	fix_pre	0		120	19.0	2.5	/experiments/AOT/AOT_stimuli/rescaled_final/1807_fw.mp4	0.0	131.56983304023743	1.0
21	110.65769696235657	movie	1		245	19.0	2.5	/experiments/AOT/AOT_stimuli/rescaled_final/1807_fw.mp4	0.0	132.56983304023743	2.4995319843292236
21	111.04084086418152	pulse	1	t		19.0	2.5	/experiments/AOT/AOT_stimuli/rescaled_final/1807_fw.mp4	0.0	132.95297694206238	
21	112.64105296134949	pulse	1	t		19.0	2.5	/experiments/AOT/AOT_stimuli/rescaled_final/1807_fw.mp4	0.0	134.55318903923035	
21	113.15722894668579	fix_post	2		12	19.0	2.5	/experiments/AOT/AOT_stimuli/rescaled_final/1807_fw.mp4	0.0	135.06936502456665	0.09999203681945801
22	113.25722098350525	fix_pre	0		119	20.0	2.5	blank	1.0	135.1693570613861	0.9921069145202637
22	114.2407739162445	pulse	0	t		20.0	2.5	blank	1.0	136.15290999412537	
22	114.24932789802551	movie	1		301	20.0	2.5	blank	1.0	136.16146397590637	2.5083110332489014
22	115.84118485450745	pulse	1	t		20.0	2.5	blank	1.0	137.7533209323883	
22	116.75763893127441	fix_post	2		12	20.0	2.5	blank	1.0	138.66977500915527	0.10006189346313477
23	116.85770082473755	fix_pre	0		120	21.0	2.5	/experiments/AOT/AOT_stimuli/rescaled_final/1565_rv.mp4	0.0	138.7698369026184	0.9999339580535889
23	117.44110083580017	pulse	0	t		21.0	2.5	/experiments/AOT/AOT_stimuli/rescaled_final/1565_rv.mp4	0.0	139.35323691368103	
23	117.85763478279114	movie	1		245	21.0	2.5	/experiments/AOT/AOT_stimuli/rescaled_final/1565_rv.mp4	0.0	139.769770860672	2.4999241828918457
23	119.04109287261963	pulse	1	t		21.0	2.5	/experiments/AOT/AOT_stimuli/rescaled_final/1565_rv.mp4	0.0	140.9532289505005	
23	120.35755896568298	fix_post	2		12	21.0	2.5	/experiments/AOT/AOT_stimuli/rescaled_final/1565_rv.mp4	0.0	142.26969504356384	0.09998703002929688
24	120.45754599571228	fix_pre	0		120	22.0	2.5	/experiments/AOT/AOT_stimuli/rescaled_final/2137_rv.mp4	0.0	142.36968207359314	1.0000460147857666
24	120.64099383354187	pulse	0	t		22.0	2.5	/experiments/AOT/AOT_stimuli/rescaled_final/2137_rv.mp4	0.0	142.55312991142273	
24	121.45759201049805	movie	1		245	22.0	2.5	/experiments/AOT/AOT_stimuli/rescaled_final/2137_rv.mp4	0.0	143.3697280883789	2.4999639987945557
24	122.24100995063782	pulse	1	t		22.0	2.5	/experiments/AOT/AOT_stimuli/rescaled_final/2137_rv.mp4	0.0	144.15314602851868	
24	123.83970379829407	pulse	1	t		22.0	2.5	/experiments/AOT/AOT_stimuli/rescaled_final/2137_rv.mp4	0.0	145.75183987617493	
24	123.9575560092926	fix_post	2		12	22.0	2.5	/experiments/AOT/AOT_stimuli/rescaled_final/2137_rv.mp4	0.0	145.86969208717346	0.10003876686096191
25	124.05759477615356	fix_pre	0		120	23.0	2.5	/experiments/AOT/AOT_stimuli/rescaled_final/0742_rv.mp4	0.0	145.96973085403442	0.999932050704956
25	125.05752682685852	movie	1		243	23.0	2.5	/experiments/AOT/AOT_stimuli/rescaled_final/0742_rv.mp4	0.0	146.96966290473938	2.500108003616333
25	125.44116497039795	pulse	1	t		23.0	2.5	/experiments/AOT/AOT_stimuli/rescaled_final/0742_rv.mp4	0.0	147.3533010482788	
25	127.04097986221313	pulse	1	t		23.0	2.5	/experiments/AOT/AOT_stimuli/rescaled_final/0742_rv.mp4	0.0	148.953115940094	
25	127.55763483047485	fix_post	2		12	23.0	2.5	/experiments/AOT/AOT_stimuli/rescaled_final/0742_rv.mp4	0.0	149.4697709083557	0.09985804557800293
26	127.65749287605286	fix_pre	0		119	24.0	2.5	/experiments/AOT/AOT_stimuli/rescaled_final/1317_rv.mp4	0.0	149.56962895393372	0.9916651248931885
26	128.6409728527069	pulse	0	t		24.0	2.5	/experiments/AOT/AOT_stimuli/rescaled_final/1317_rv.mp4	0.0	150.55310893058777	
26	128.64915800094604	movie	1		246	24.0	2.5	/experiments/AOT/AOT_stimuli/rescaled_final/1317_rv.mp4	0.0	150.5612940788269	2.508405923843384
26	130.24205994606018	pulse	1	t		24.0	2.5	/experiments/AOT/AOT_stimuli/rescaled_final/1317_rv.mp4	0.0	152.15419602394104	
26	131.15756392478943	fix_post	2		12	24.0	2.5	/experiments/AOT/AOT_stimuli/rescaled_final/1317_rv.mp4	0.0	153.0697000026703	0.09999799728393555
27	131.25756192207336	fix_pre	0		120	25.0	2.5	/experiments/AOT/AOT_stimuli/rescaled_final/0954_rv.mp4	0.0	153.16969799995422	1.000032901763916
27	131.84120988845825	pulse	0	t		25.0	2.5	/experiments/AOT/AOT_stimuli/rescaled_final/0954_rv.mp4	0.0	153.7533459663391	
27	132.25759482383728	movie	1		245	25.0	2.5	/experiments/AOT/AOT_stimuli/rescaled_final/0954_rv.mp4	0.0	154.16973090171814	2.4999840259552
27	133.4410948753357	pulse	1	t		25.0	2.5	/experiments/AOT/AOT_stimuli/rescaled_final/0954_rv.mp4	0.0	155.35323095321655	
27	134.75757884979248	fix_post	2		12	25.0	2.5	/experiments/AOT/AOT_stimuli/rescaled_final/0954_rv.mp4	0.0	156.66971492767334	0.09995794296264648
28	134.85753679275513	fix_pre	0		120	26.0	2.5	/experiments/AOT/AOT_stimuli/rescaled_final/2150_rv.mp4	0.0	156.769672870636	0.9999940395355225
28	135.0410509109497	pulse	0	t		26.0	2.5	/experiments/AOT/AOT_stimuli/rescaled_final/2150_rv.mp4	0.0	156.95318698883057	
28	135.85753083229065	movie	1		242	26.0	2.5	/experiments/AOT/AOT_stimuli/rescaled_final/2150_rv.mp4	0.0	157.7696669101715	2.49989914894104
28	136.64108681678772	pulse	1	t		26.0	2.5	/experiments/AOT/AOT_stimuli/rescaled_final/2150_rv.mp4	0.0	158.55322289466858	
28	138.23930287361145	pulse	1	t		26.0	2.5	/experiments/AOT/AOT_stimuli/rescaled_final/2150_rv.mp4	0.0	160.1514389514923	
28	138.3574299812317	fix_post	2		12	26.0	2.5	/experiments/AOT/AOT_stimuli/rescaled_final/2150_rv.mp4	0.0	160.26956605911255	0.10004591941833496
29	138.45747590065002	fix_pre	0		120	27.0	2.5	/experiments/AOT/AOT_stimuli/rescaled_final/0073_rv.mp4	0.0	160.36961197853088	0.9999799728393555
29	139.45745587348938	movie	1		243	27.0	2.5	/experiments/AOT/AOT_stimuli/rescaled_final/0073_rv.mp4	0.0	161.36959195137024	2.5000340938568115
29	139.8405728340149	pulse	1	t		27.0	2.5	/experiments/AOT/AOT_stimuli/rescaled_final/0073_rv.mp4	0.0	161.75270891189575	
29	141.44096994400024	pulse	1	t		27.0	2.5	/experiments/AOT/AOT_stimuli/rescaled_final/0073_rv.mp4	0.0	163.3531060218811	
29	141.9574899673462	fix_post	2		12	27.0	2.5	/experiments/AOT/AOT_stimuli/rescaled_final/0073_rv.mp4	0.0	163.86962604522705	0.10002398490905762
30	142.05751395225525	fix_pre	0		119	28.0	2.5	blank	1.0	163.9696500301361	0.9915800094604492
30	143.04095697402954	pulse	0	t		28.0	2.5	blank	1.0	164.9530930519104	
30	143.0490939617157	movie	1		301	28.0	2.5	blank	1.0	164.96123003959656	2.5084128379821777
30	144.64090585708618	pulse	1	t		28.0	2.5	blank	1.0	166.55304193496704	
30	145.55750679969788	fix_post	2		12	28.0	2.5	blank	1.0	167.46964287757874	0.09995317459106445
31	145.65745997428894	fix_pre	0		120	29.0	2.5	/experiments/AOT/AOT_stimuli/rescaled_final/0398_rv.mp4	0.0	167.5695960521698	1.000018835067749
31	146.24097084999084	pulse	0	t		29.0	2.5	/experiments/AOT/AOT_stimuli/rescaled_final/0398_rv.mp4	0.0	168.1531069278717	
31	146.6574788093567	movie	1		244	29.0	2.5	/experiments/AOT/AOT_stimuli/rescaled_final/0398_rv.mp4	0.0	168.56961488723755	2.4999680519104004
31	147.8410449028015	pulse	1	t		29.0	2.5	/experiments/AOT/AOT_stimuli/rescaled_final/0398_rv.mp4	0.0	169.75318098068237	
31	149.1574468612671	fix_post	2		12	29.0	2.5	/experiments/AOT/AOT_stimuli/rescaled_final/0398_rv.mp4	0.0	171.06958293914795	0.10002493858337402
32	149.25747179985046	fix_pre	0		120	30.0	2.5	/experiments/AOT/AOT_stimuli/rescaled_final/2123_rv.mp4	0.0	171.16960787773132	0.9999711513519287
32	149.44107389450073	pulse	0	t		30.0	2.5	/experiments/AOT/AOT_stimuli/rescaled_final/2123_rv.mp4	0.0	171.3532099723816	
32	150.2574429512024	movie	1		243	30.0	2.5	/experiments/AOT/AOT_stimuli/rescaled_final/2123_rv.mp4	0.0	172.16957902908325	2.499994993209839
32	151.0409049987793	pulse	1	t		30.0	2.5	/experiments/AOT/AOT_stimuli/rescaled_final/2123_rv.mp4	0.0	172.95304107666016	
32	152.63927483558655	pulse	1	t		30.0	2.5	/experiments/AOT/AOT_stimuli/rescaled_final/2123_rv.mp4	0.0	174.5514109134674	
32	152.75743794441223	fix_post	2		12	30.0	2.5	/experiments/AOT/AOT_stimuli/rescaled_final/2123_rv.mp4	0.0	174.6695740222931	0.0999288558959961
33	152.85736680030823	fix_pre	0		120	31.0	2.5	/experiments/AOT/AOT_stimuli/rescaled_final/1861_rv.mp4	0.0	174.7695028781891	1.0000240802764893
33	153.85739088058472	movie	1		244	31.0	2.5	/experiments/AOT/AOT_stimuli/rescaled_final/1861_rv.mp4	0.0	175.76952695846558	2.500037908554077
33	154.24181485176086	pulse	1	t		31.0	2.5	/experiments/AOT/AOT_stimuli/rescaled_final/1861_rv.mp4	0.0	176.15395092964172	
33	155.84086084365845	pulse	1	t		31.0	2.5	/experiments/AOT/AOT_stimuli/rescaled_final/1861_rv.mp4	0.0	177.7529969215393	
33	156.3574287891388	fix_post	2		12	31.0	2.5	/experiments/AOT/AOT_stimuli/rescaled_final/1861_rv.mp4	0.0	178.26956486701965	0.09995412826538086
34	156.45738291740417	fix_pre	0		119	32.0	2.5	/experiments/AOT/AOT_stimuli/rescaled_final/1496_fw.mp4	0.0	178.36951899528503	0.9915790557861328
34	157.44087290763855	pulse	0	t		32.0	2.5	/experiments/AOT/AOT_stimuli/rescaled_final/1496_fw.mp4	0.0	179.3530089855194	
34	157.4489619731903	movie	1		247	32.0	2.5	/experiments/AOT/AOT_stimuli/rescaled_final/1496_fw.mp4	0.0	179.36109805107117	2.508356809616089
34	159.04041290283203	pulse	1	t		32.0	2.5	/experiments/AOT/AOT_stimuli/rescaled_final/1496_fw.mp4	0.0	180.9525489807129	
34	159.9573187828064	fix_post	2		12	32.0	2.5	/experiments/AOT/AOT_stimuli/rescaled_final/1496_fw.mp4	0.0	181.86945486068726	0.10010719299316406
35	160.05742597579956	fix_pre	0		120	33.0	2.5	/experiments/AOT/AOT_stimuli/rescaled_final/1700_rv.mp4	0.0	181.96956205368042	0.9999749660491943
35	160.64218282699585	pulse	0	t		33.0	2.5	/experiments/AOT/AOT_stimuli/rescaled_final/1700_rv.mp4	0.0	182.5543189048767	
35	161.05740094184875	movie	1		243	33.0	2.5	/experiments/AOT/AOT_stimuli/rescaled_final/1700_rv.mp4	0.0	182.96953701972961	2.499969005584717
35	162.2409689426422	pulse	1	t		33.0	2.5	/experiments/AOT/AOT_stimuli/rescaled_final/1700_rv.mp4	0.0	184.15310502052307	
35	163.55736994743347	fix_post	2		12	33.0	2.5	/experiments/AOT/AOT_stimuli/rescaled_final/1700_rv.mp4	0.0	185.46950602531433	0.09997701644897461
36	163.65734696388245	fix_pre	0		120	34.0	2.5	/experiments/AOT/AOT_stimuli/rescaled_final/1933_fw.mp4	0.0	185.5694830417633	1.000018835067749
36	163.84093689918518	pulse	0	t		34.0	2.5	/experiments/AOT/AOT_stimuli/rescaled_final/1933_fw.mp4	0.0	185.75307297706604	
36	164.6573657989502	movie	1		244	34.0	2.5	/experiments/AOT/AOT_stimuli/rescaled_final/1933_fw.mp4	0.0	186.56950187683105	2.4999940395355225
36	165.44093585014343	pulse	1	t		34.0	2.5	/experiments/AOT/AOT_stimuli/rescaled_final/1933_fw.mp4	0.0	187.3530719280243	
36	167.03959584236145	pulse	1	t		34.0	2.5	/experiments/AOT/AOT_stimuli/rescaled_final/1933_fw.mp4	0.0	188.9517319202423	
36	167.15735983848572	fix_post	2		12	34.0	2.5	/experiments/AOT/AOT_stimuli/rescaled_final/1933_fw.mp4	0.0	189.06949591636658	0.10005402565002441
37	167.25741386413574	fix_pre	0		120	35.0	2.5	blank	1.0	189.1695499420166	0.9999680519104004
37	168.25738191604614	movie	1		300	35.0	2.5	blank	1.0	190.169517993927	2.5001380443573
37	168.6404218673706	pulse	1	t		35.0	2.5	blank	1.0	190.55255794525146	
37	170.24093389511108	pulse	1	t		35.0	2.5	blank	1.0	192.15306997299194	
37	170.75751996040344	fix_post	2		12	35.0	2.5	blank	1.0	192.6696560382843	0.09960794448852539
38	170.85712790489197	fix_pre	0		119	36.0	2.5	/experiments/AOT/AOT_stimuli/rescaled_final/0203_rv.mp4	0.0	192.76926398277283	0.9918570518493652
38	171.8407847881317	pulse	0	t		36.0	2.5	/experiments/AOT/AOT_stimuli/rescaled_final/0203_rv.mp4	0.0	193.75292086601257	
38	171.84898495674133	movie	1		246	36.0	2.5	/experiments/AOT/AOT_stimuli/rescaled_final/0203_rv.mp4	0.0	193.7611210346222	2.5083370208740234
38	173.44078397750854	pulse	1	t		36.0	2.5	/experiments/AOT/AOT_stimuli/rescaled_final/0203_rv.mp4	0.0	195.3529200553894	
38	174.35732197761536	fix_post	2		12	36.0	2.5	/experiments/AOT/AOT_stimuli/rescaled_final/0203_rv.mp4	0.0	196.26945805549622	0.1000678539276123
39	174.45738983154297	fix_pre	0		120	37.0	2.5	/experiments/AOT/AOT_stimuli/rescaled_final/1931_fw.mp4	0.0	196.36952590942383	0.999845027923584
39	175.04080390930176	pulse	0	t		37.0	2.5	/experiments/AOT/AOT_stimuli/rescaled_final/1931_fw.mp4	0.0	196.95293998718262	
39	175.45723485946655	movie	1		243	37.0	2.5	/experiments/AOT/AOT_stimuli/rescaled_final/1931_fw.mp4	0.0	197.3693709373474	2.500044107437134
39	176.6408188343048	pulse	1	t		37.0	2.5	/experiments/AOT/AOT_stimuli/rescaled_final/1931_fw.mp4	0.0	198.55295491218567	
39	177.9572789669037	fix_post	2		12	37.0	2.5	/experiments/AOT/AOT_stimuli/rescaled_final/1931_fw.mp4	0.0	199.86941504478455	0.10002398490905762
40	178.05730295181274	fix_pre	0		120	38.0	2.5	/experiments/AOT/AOT_stimuli/rescaled_final/1684_rv.mp4	0.0	199.9694390296936	0.9999568462371826
40	178.24071383476257	pulse	0	t		38.0	2.5	/experiments/AOT/AOT_stimuli/rescaled_final/1684_rv.mp4	0.0	200.15284991264343	
40	179.05725979804993	movie	1		244	38.0	2.5	/experiments/AOT/AOT_stimuli/rescaled_final/1684_rv.mp4	0.0	200.9693958759308	2.500063180923462
40	179.8407278060913	pulse	1	t		38.0	2.5	/experiments/AOT/AOT_stimuli/rescaled_final/1684_rv.mp4	0.0	201.75286388397217	
40	181.43911790847778	pulse	1	t		38.0	2.5	/experiments/AOT/AOT_stimuli/rescaled_final/1684_rv.mp4	0.0	203.35125398635864	
40	181.5573229789734	fix_post	2		12	38.0	2.5	/experiments/AOT/AOT_stimuli/rescaled_final/1684_rv.mp4	0.0	203.46945905685425	0.0999748706817627
41	181.65729784965515	fix_pre	0		120	39.0	2.5	/experiments/AOT/AOT_stimuli/rescaled_final/0149_rv.mp4	0.0	203.569433927536	0.999993085861206
41	182.65729093551636	movie	1		246	39.0	2.5	/experiments/AOT/AOT_stimuli/rescaled_final/0149_rv.mp4	0.0	204.56942701339722	2.500002861022949
41	183.0418679714203	pulse	1	t		39.0	2.5	/experiments/AOT/AOT_stimuli/rescaled_final/0149_rv.mp4	0.0	204.95400404930115	
41	184.6408247947693	pulse	1	t		39.0	2.5	/experiments/AOT/AOT_stimuli/rescaled_final/0149_rv.mp4	0.0	206.55296087265015	
41	185.1572937965393	fix_post	2		12	39.0	2.5	/experiments/AOT/AOT_stimuli/rescaled_final/0149_rv.mp4	0.0	207.06942987442017	0.0999441146850586
42	185.25723791122437	fix_pre	0		119	40.0	2.5	/experiments/AOT/AOT_stimuli/rescaled_final/1516_fw.mp4	0.0	207.16937398910522	0.9916889667510986
42	186.24065589904785	pulse	0	t		40.0	2.5	/experiments/AOT/AOT_stimuli/rescaled_final/1516_fw.mp4	0.0	208.1527919769287	
42	186.24892687797546	movie	1		247	40.0	2.5	/experiments/AOT/AOT_stimuli/rescaled_final/1516_fw.mp4	0.0	208.16106295585632	2.5083460807800293
42	187.84013390541077	pulse	1	t		40.0	2.5	/experiments/AOT/AOT_stimuli/rescaled_final/1516_fw.mp4	0.0	209.75226998329163	
42	188.7572729587555	fix_post	2		12	40.0	2.5	/experiments/AOT/AOT_stimuli/rescaled_final/1516_fw.mp4	0.0	210.66940903663635	0.09994292259216309
43	188.85721588134766	fix_pre	0		120	41.0	2.5	/experiments/AOT/AOT_stimuli/rescaled_final/0712_fw.mp4	0.0	210.76935195922852	1.0000638961791992
43	189.4407889842987	pulse	0	t		41.0	2.5	/experiments/AOT/AOT_stimuli/rescaled_final/0712_fw.mp4	0.0	211.35292506217957	
43	189.85727977752686	movie	1		244	41.0	2.5	/experiments/AOT/AOT_stimuli/rescaled_final/0712_fw.mp4	0.0	211.76941585540771	2.4999501705169678
43	191.04086899757385	pulse	1	t		41.0	2.5	/experiments/AOT/AOT_stimuli/rescaled_final/0712_fw.mp4	0.0	212.9530050754547	
43	192.35722994804382	fix_post	2		12	41.0	2.5	/experiments/AOT/AOT_stimuli/rescaled_final/0712_fw.mp4	0.0	214.26936602592468	0.10006284713745117
44	192.45729279518127	fix_pre	0		120	42.0	2.5	blank	1.0	214.36942887306213	0.9999492168426514
44	192.64073181152344	pulse	0	t		42.0	2.5	blank	1.0	214.5528678894043	
44	193.45724201202393	movie	1		300	42.0	2.5	blank	1.0	215.36937808990479	2.4999938011169434
44	194.24076986312866	pulse	1	t		42.0	2.5	blank	1.0	216.15290594100952	
44	195.84072399139404	pulse	1	t		42.0	2.5	blank	1.0	217.7528600692749	
44	195.95723581314087	fix_post	2		12	42.0	2.5	blank	1.0	217.86937189102173	0.10000896453857422
45	196.05724477767944	fix_pre	0		120	43.0	2.5	/experiments/AOT/AOT_stimuli/rescaled_final/1860_rv.mp4	0.0	217.9693808555603	0.9999620914459229
45	197.05720686912537	movie	1		244	43.0	2.5	/experiments/AOT/AOT_stimuli/rescaled_final/1860_rv.mp4	0.0	218.96934294700623	2.500096082687378
45	197.44088077545166	pulse	1	t		43.0	2.5	/experiments/AOT/AOT_stimuli/rescaled_final/1860_rv.mp4	0.0	219.35301685333252	
45	199.04079699516296	pulse	1	t		43.0	2.5	/experiments/AOT/AOT_stimuli/rescaled_final/1860_rv.mp4	0.0	220.95293307304382	
45	199.55730295181274	fix_post	2		12	43.0	2.5	/experiments/AOT/AOT_stimuli/rescaled_final/1860_rv.mp4	0.0	221.4694390296936	0.09985184669494629
46	199.6571547985077	fix_pre	0		119	44.0	2.5	/experiments/AOT/AOT_stimuli/rescaled_final/1566_fw.mp4	0.0	221.56929087638855	0.9915981292724609
46	200.64066195487976	pulse	0	t		44.0	2.5	/experiments/AOT/AOT_stimuli/rescaled_final/1566_fw.mp4	0.0	222.55279803276062	
46	200.64875292778015	movie	1		245	44.0	2.5	/experiments/AOT/AOT_stimuli/rescaled_final/1566_fw.mp4	0.0	222.560889005661	2.5083680152893066
46	202.2404978275299	pulse	1	t		44.0	2.5	/experiments/AOT/AOT_stimuli/rescaled_final/1566_fw.mp4	0.0	224.15263390541077	
46	203.15712094306946	fix_post	2		12	44.0	2.5	/experiments/AOT/AOT_stimuli/rescaled_final/1566_fw.mp4	0.0	225.06925702095032	0.10004806518554688
47	203.257169008255	fix_pre	0		120	45.0	2.5	/experiments/AOT/AOT_stimuli/rescaled_final/1891_fw.mp4	0.0	225.16930508613586	1.0
47	203.8407018184662	pulse	0	t		45.0	2.5	/experiments/AOT/AOT_stimuli/rescaled_final/1891_fw.mp4	0.0	225.75283789634705	
47	204.257169008255	movie	1		245	45.0	2.5	/experiments/AOT/AOT_stimuli/rescaled_final/1891_fw.mp4	0.0	226.16930508613586	2.500053882598877
47	205.44073700904846	pulse	1	t		45.0	2.5	/experiments/AOT/AOT_stimuli/rescaled_final/1891_fw.mp4	0.0	227.35287308692932	
47	206.75722289085388	fix_post	2		12	45.0	2.5	/experiments/AOT/AOT_stimuli/rescaled_final/1891_fw.mp4	0.0	228.66935896873474	0.09988903999328613
48	206.85711193084717	fix_pre	0		120	46.0	2.5	/experiments/AOT/AOT_stimuli/rescaled_final/1280_rv.mp4	0.0	228.76924800872803	1.0000600814819336
48	207.04065799713135	pulse	0	t		46.0	2.5	/experiments/AOT/AOT_stimuli/rescaled_final/1280_rv.mp4	0.0	228.9527940750122	
48	207.8571720123291	movie	1		245	46.0	2.5	/experiments/AOT/AOT_stimuli/rescaled_final/1280_rv.mp4	0.0	229.76930809020996	2.500037908554077
48	208.6406798362732	pulse	1	t		46.0	2.5	/experiments/AOT/AOT_stimuli/rescaled_final/1280_rv.mp4	0.0	230.55281591415405	
48	210.23929381370544	pulse	1	t		46.0	2.5	/experiments/AOT/AOT_stimuli/rescaled_final/1280_rv.mp4	0.0	232.1514298915863	
48	210.35720992088318	fix_post	2		12	46.0	2.5	/experiments/AOT/AOT_stimuli/rescaled_final/1280_rv.mp4	0.0	232.26934599876404	0.09997892379760742
49	210.4571888446808	fix_pre	0		120	47.0	2.5	/experiments/AOT/AOT_stimuli/rescaled_final/1820_rv.mp4	0.0	232.36932492256165	1.0000100135803223
49	211.4571988582611	movie	1		246	47.0	2.5	/experiments/AOT/AOT_stimuli/rescaled_final/1820_rv.mp4	0.0	233.36933493614197	2.4999499320983887
49	211.84020495414734	pulse	1	t		47.0	2.5	/experiments/AOT/AOT_stimuli/rescaled_final/1820_rv.mp4	0.0	233.7523410320282	
49	213.440673828125	pulse	1	t		47.0	2.5	/experiments/AOT/AOT_stimuli/rescaled_final/1820_rv.mp4	0.0	235.35280990600586	
49	213.9571487903595	fix_post	2		12	47.0	2.5	/experiments/AOT/AOT_stimuli/rescaled_final/1820_rv.mp4	0.0	235.86928486824036	0.10007214546203613
50	214.05722093582153	fix_pre	0		119	48.0	2.5	/experiments/AOT/AOT_stimuli/rescaled_final/0712_fw.mp4	0.0	235.9693570137024	0.9916250705718994
50	215.04058599472046	pulse	0	t		48.0	2.5	/experiments/AOT/AOT_stimuli/rescaled_final/0712_fw.mp4	0.0	236.95272207260132	
50	215.04884600639343	movie	1		246	48.0	2.5	/experiments/AOT/AOT_stimuli/rescaled_final/0712_fw.mp4	0.0	236.9609820842743	2.50832200050354
50	216.6402359008789	pulse	1	t		48.0	2.5	/experiments/AOT/AOT_stimuli/rescaled_final/0712_fw.mp4	0.0	238.55237197875977	
50	217.55716800689697	fix_post	2		12	48.0	2.5	/experiments/AOT/AOT_stimuli/rescaled_final/0712_fw.mp4	0.0	239.46930408477783	0.09994292259216309
51	217.65711092948914	fix_pre	0		120	49.0	2.5	blank	1.0	239.56924700737	0.999992847442627
51	218.2406189441681	pulse	0	t		49.0	2.5	blank	1.0	240.15275502204895	
51	218.65710377693176	movie	1		300	49.0	2.5	blank	1.0	240.56923985481262	2.5000250339508057
51	219.8406298160553	pulse	1	t		49.0	2.5	blank	1.0	241.75276589393616	
51	221.15712881088257	fix_post	2		12	49.0	2.5	blank	1.0	243.06926488876343	0.10000300407409668
52	221.25713181495667	fix_pre	0		120	50.0	2.5	/experiments/AOT/AOT_stimuli/rescaled_final/0483_fw.mp4	0.0	243.16926789283752	0.9999780654907227
52	221.4406008720398	pulse	0	t		50.0	2.5	/experiments/AOT/AOT_stimuli/rescaled_final/0483_fw.mp4	0.0	243.35273694992065	
52	222.2571098804474	movie	1		246	50.0	2.5	/experiments/AOT/AOT_stimuli/rescaled_final/0483_fw.mp4	0.0	244.16924595832825	2.499619960784912
52	223.04068279266357	pulse	1	t		50.0	2.5	/experiments/AOT/AOT_stimuli/rescaled_final/0483_fw.mp4	0.0	244.95281887054443	
52	224.63978481292725	pulse	1	t		50.0	2.5	/experiments/AOT/AOT_stimuli/rescaled_final/0483_fw.mp4	0.0	246.5519208908081	
52	224.7567298412323	fix_post	2		12	50.0	2.5	/experiments/AOT/AOT_stimuli/rescaled_final/0483_fw.mp4	0.0	246.66886591911316	0.10040807723999023
53	224.8571379184723	fix_pre	0		120	51.0	2.5	/experiments/AOT/AOT_stimuli/rescaled_final/2005_fw.mp4	0.0	246.76927399635315	0.999669075012207
53	225.8568069934845	movie	1		250	51.0	2.5	/experiments/AOT/AOT_stimuli/rescaled_final/2005_fw.mp4	0.0	247.76894307136536	2.5003509521484375
53	226.23985290527344	pulse	1	t		51.0	2.5	/experiments/AOT/AOT_stimuli/rescaled_final/2005_fw.mp4	0.0	248.1519889831543	
53	227.8405327796936	pulse	1	t		51.0	2.5	/experiments/AOT/AOT_stimuli/rescaled_final/2005_fw.mp4	0.0	249.75266885757446	
53	228.35715794563293	fix_post	2		12	51.0	2.5	/experiments/AOT/AOT_stimuli/rescaled_final/2005_fw.mp4	0.0	250.2692940235138	0.10000300407409668
54	228.45716094970703	fix_pre	0		119	52.0	2.5	/experiments/AOT/AOT_stimuli/rescaled_final/1051_fw.mp4	0.0	250.3692970275879	0.991628885269165
54	229.44050788879395	pulse	0	t		52.0	2.5	/experiments/AOT/AOT_stimuli/rescaled_final/1051_fw.mp4	0.0	251.3526439666748	
54	229.4487898349762	movie	1		247	52.0	2.5	/experiments/AOT/AOT_stimuli/rescaled_final/1051_fw.mp4	0.0	251.36092591285706	2.5083320140838623
54	231.04004096984863	pulse	1	t		52.0	2.5	/experiments/AOT/AOT_stimuli/rescaled_final/1051_fw.mp4	0.0	252.9521770477295	
54	231.95712184906006	fix_post	2		12	52.0	2.5	/experiments/AOT/AOT_stimuli/rescaled_final/1051_fw.mp4	0.0	253.86925792694092	0.0999910831451416
55	232.0571129322052	fix_pre	0		120	53.0	2.5	/experiments/AOT/AOT_stimuli/rescaled_final/1188_rv.mp4	0.0	253.96924901008606	0.9999420642852783
55	232.64054799079895	pulse	0	t		53.0	2.5	/experiments/AOT/AOT_stimuli/rescaled_final/1188_rv.mp4	0.0	254.5526840686798	
55	233.05705499649048	movie	1		247	53.0	2.5	/experiments/AOT/AOT_stimuli/rescaled_final/1188_rv.mp4	0.0	254.96919107437134	2.499955892562866
55	234.24058890342712	pulse	1	t		53.0	2.5	/experiments/AOT/AOT_stimuli/rescaled_final/1188_rv.mp4	0.0	256.152724981308	
55	235.55701088905334	fix_post	2		12	53.0	2.5	/experiments/AOT/AOT_stimuli/rescaled_final/1188_rv.mp4	0.0	257.4691469669342	0.10002994537353516
56	235.65704083442688	fix_pre	0		120	54.0	2.5	/experiments/AOT/AOT_stimuli/rescaled_final/0247_rv.mp4	0.0	257.56917691230774	0.9999749660491943
56	235.84050989151	pulse	0	t		54.0	2.5	/experiments/AOT/AOT_stimuli/rescaled_final/0247_rv.mp4	0.0	257.75264596939087	
56	236.65701580047607	movie	1		245	54.0	2.5	/experiments/AOT/AOT_stimuli/rescaled_final/0247_rv.mp4	0.0	258.56915187835693	2.499981164932251
56	237.44044184684753	pulse	1	t		54.0	2.5	/experiments/AOT/AOT_stimuli/rescaled_final/0247_rv.mp4	0.0	259.3525779247284	
56	239.03914499282837	pulse	1	t		54.0	2.5	/experiments/AOT/AOT_stimuli/rescaled_final/0247_rv.mp4	0.0	260.95128107070923	
56	239.15699696540833	fix_post	2		12	54.0	2.5	/experiments/AOT/AOT_stimuli/rescaled_final/0247_rv.mp4	0.0	261.0691330432892	0.0999288558959961
57	239.25692582130432	fix_pre	0		120	55.0	2.5	blank	1.0	261.1690618991852	1.0001130104064941
57	240.25703883171082	movie	1		300	55.0	2.5	blank	1.0	262.1691749095917	2.4999959468841553
57	240.64045000076294	pulse	1	t		55.0	2.5	blank	1.0	262.5525860786438	
57	242.24042797088623	pulse	1	t		55.0	2.5	blank	1.0	264.1525640487671	
57	242.75703477859497	fix_post	2		12	55.0	2.5	blank	1.0	264.66917085647583	0.09996819496154785
58	242.85700297355652	fix_pre	0		119	56.0	2.5	/experiments/AOT/AOT_stimuli/rescaled_final/1028_rv.mp4	0.0	264.7691390514374	0.9915969371795654
58	243.8405168056488	pulse	0	t		56.0	2.5	/experiments/AOT/AOT_stimuli/rescaled_final/1028_rv.mp4	0.0	265.75265288352966	
58	243.84859991073608	movie	1		248	56.0	2.5	/experiments/AOT/AOT_stimuli/rescaled_final/1028_rv.mp4	0.0	265.76073598861694	2.508457899093628
58	245.44178795814514	pulse	1	t		56.0	2.5	/experiments/AOT/AOT_stimuli/rescaled_final/1028_rv.mp4	0.0	267.353924036026	
58	246.3570578098297	fix_post	2		12	56.0	2.5	/experiments/AOT/AOT_stimuli/rescaled_final/1028_rv.mp4	0.0	268.26919388771057	0.09989619255065918
59	246.45695400238037	fix_pre	0		120	57.0	2.5	/experiments/AOT/AOT_stimuli/rescaled_final/0341_rv.mp4	0.0	268.36909008026123	1.0000078678131104
59	247.04047179222107	pulse	0	t		57.0	2.5	/experiments/AOT/AOT_stimuli/rescaled_final/0341_rv.mp4	0.0	268.95260787010193	
59	247.45696187019348	movie	1		247	57.0	2.5	/experiments/AOT/AOT_stimuli/rescaled_final/0341_rv.mp4	0.0	269.36909794807434	2.5000109672546387
59	248.64056181907654	pulse	1	t		57.0	2.5	/experiments/AOT/AOT_stimuli/rescaled_final/0341_rv.mp4	0.0	270.5526978969574	
59	249.95697283744812	fix_post	2		12	57.0	2.5	/experiments/AOT/AOT_stimuli/rescaled_final/0341_rv.mp4	0.0	271.869108915329	0.10005497932434082
60	250.05702781677246	fix_pre	0		120	58.0	2.5	/experiments/AOT/AOT_stimuli/rescaled_final/0221_rv.mp4	0.0	271.9691638946533	0.9999539852142334
60	250.2404317855835	pulse	0	t		58.0	2.5	/experiments/AOT/AOT_stimuli/rescaled_final/0221_rv.mp4	0.0	272.15256786346436	
60	251.0569818019867	movie	1		247	58.0	2.5	/experiments/AOT/AOT_stimuli/rescaled_final/0221_rv.mp4	0.0	272.96911787986755	2.5000081062316895
60	251.8403718471527	pulse	1	t		58.0	2.5	/experiments/AOT/AOT_stimuli/rescaled_final/0221_rv.mp4	0.0	273.75250792503357	
60	253.43998980522156	pulse	1	t		58.0	2.5	/experiments/AOT/AOT_stimuli/rescaled_final/0221_rv.mp4	0.0	275.3521258831024	
60	253.55698990821838	fix_post	2		12	58.0	2.5	/experiments/AOT/AOT_stimuli/rescaled_final/0221_rv.mp4	0.0	275.46912598609924	0.10001206398010254
61	253.6570019721985	fix_pre	0		120	59.0	2.5	/experiments/AOT/AOT_stimuli/rescaled_final/0212_fw.mp4	0.0	275.56913805007935	0.9999580383300781
61	254.65696001052856	movie	1		245	59.0	2.5	/experiments/AOT/AOT_stimuli/rescaled_final/0212_fw.mp4	0.0	276.5690960884094	2.4999887943267822
61	255.04022884368896	pulse	1	t		59.0	2.5	/experiments/AOT/AOT_stimuli/rescaled_final/0212_fw.mp4	0.0	276.9523649215698	
61	256.6404228210449	pulse	1	t		59.0	2.5	/experiments/AOT/AOT_stimuli/rescaled_final/0212_fw.mp4	0.0	278.5525588989258	
61	257.15694880485535	fix_post	2		12	59.0	2.5	/experiments/AOT/AOT_stimuli/rescaled_final/0212_fw.mp4	0.0	279.0690848827362	0.09998106956481934
62	257.25692987442017	fix_pre	0		119	60.0	2.5	/experiments/AOT/AOT_stimuli/rescaled_final/0143_fw.mp4	0.0	279.169065952301	0.991645097732544
62	258.2403848171234	pulse	0	t		60.0	2.5	/experiments/AOT/AOT_stimuli/rescaled_final/0143_fw.mp4	0.0	280.1525208950043	
62	258.2485749721527	movie	1		247	60.0	2.5	/experiments/AOT/AOT_stimuli/rescaled_final/0143_fw.mp4	0.0	280.16071105003357	2.5083978176116943
62	259.8401439189911	pulse	1	t		60.0	2.5	/experiments/AOT/AOT_stimuli/rescaled_final/0143_fw.mp4	0.0	281.75227999687195	
62	260.7569727897644	fix_post	2		12	60.0	2.5	/experiments/AOT/AOT_stimuli/rescaled_final/0143_fw.mp4	0.0	282.66910886764526	0.09996914863586426
63	260.85694193840027	fix_pre	0		120	61.0	2.5	/experiments/AOT/AOT_stimuli/rescaled_final/1292_fw.mp4	0.0	282.7690780162811	0.999992847442627
63	261.44046688079834	pulse	0	t		61.0	2.5	/experiments/AOT/AOT_stimuli/rescaled_final/1292_fw.mp4	0.0	283.3526029586792	
63	261.8569347858429	movie	1		244	61.0	2.5	/experiments/AOT/AOT_stimuli/rescaled_final/1292_fw.mp4	0.0	283.76907086372375	2.49991512298584
63	263.04051399230957	pulse	1	t		61.0	2.5	/experiments/AOT/AOT_stimuli/rescaled_final/1292_fw.mp4	0.0	284.95265007019043	
63	264.35684990882874	fix_post	2		12	61.0	2.5	/experiments/AOT/AOT_stimuli/rescaled_final/1292_fw.mp4	0.0	286.2689859867096	0.10005402565002441
64	264.45690393447876	fix_pre	0		120	62.0	2.5	/experiments/AOT/AOT_stimuli/rescaled_final/1807_rv.mp4	0.0	286.3690400123596	0.999924898147583
64	264.6404368877411	pulse	0	t		62.0	2.5	/experiments/AOT/AOT_stimuli/rescaled_final/1807_rv.mp4	0.0	286.55257296562195	
64	265.45682883262634	movie	1		244	62.0	2.5	/experiments/AOT/AOT_stimuli/rescaled_final/1807_rv.mp4	0.0	287.3689649105072	2.5000720024108887
64	266.24038791656494	pulse	1	t		62.0	2.5	/experiments/AOT/AOT_stimuli/rescaled_final/1807_rv.mp4	0.0	288.1525239944458	
64	267.8389217853546	pulse	1	t		62.0	2.5	/experiments/AOT/AOT_stimuli/rescaled_final/1807_rv.mp4	0.0	289.7510578632355	
64	267.95690083503723	fix_post	2		12	62.0	2.5	/experiments/AOT/AOT_stimuli/rescaled_final/1807_rv.mp4	0.0	289.8690369129181	0.10007500648498535
65	268.0569758415222	fix_pre	0		120	63.0	2.5	blank	1.0	289.9691119194031	0.9999151229858398
65	269.05689096450806	movie	1		300	63.0	2.5	blank	1.0	290.9690270423889	2.499950885772705
65	269.44032192230225	pulse	1	t		63.0	2.5	blank	1.0	291.3524580001831	
65	271.0402739048004	pulse	1	t		63.0	2.5	blank	1.0	292.9524099826813	
65	271.55684185028076	fix_post	2		12	63.0	2.5	blank	1.0	293.4689779281616	0.10004997253417969
66	271.65689182281494	fix_pre	0		119	64.0	2.5	/experiments/AOT/AOT_stimuli/rescaled_final/1391_fw.mp4	0.0	293.5690279006958	0.9916031360626221
66	272.6403229236603	pulse	0	t		64.0	2.5	/experiments/AOT/AOT_stimuli/rescaled_final/1391_fw.mp4	0.0	294.55245900154114	
66	272.64849495887756	movie	1		244	64.0	2.5	/experiments/AOT/AOT_stimuli/rescaled_final/1391_fw.mp4	0.0	294.5606310367584	2.5083539485931396
66	274.24042081832886	pulse	1	t		64.0	2.5	/experiments/AOT/AOT_stimuli/rescaled_final/1391_fw.mp4	0.0	296.1525568962097	
66	275.1568489074707	fix_post	2		12	64.0	2.5	/experiments/AOT/AOT_stimuli/rescaled_final/1391_fw.mp4	0.0	297.06898498535156	0.1001119613647461
67	275.25696086883545	fix_pre	0		120	65.0	2.5	/experiments/AOT/AOT_stimuli/rescaled_final/0763_fw.mp4	0.0	297.1690969467163	0.9999189376831055
67	275.84035778045654	pulse	0	t		65.0	2.5	/experiments/AOT/AOT_stimuli/rescaled_final/0763_fw.mp4	0.0	297.7524938583374	
67	276.25687980651855	movie	1		246	65.0	2.5	/experiments/AOT/AOT_stimuli/rescaled_final/0763_fw.mp4	0.0	298.1690158843994	2.4999539852142334
67	277.4404389858246	pulse	1	t		65.0	2.5	/experiments/AOT/AOT_stimuli/rescaled_final/0763_fw.mp4	0.0	299.35257506370544	
67	278.7568337917328	fix_post	2		12	65.0	2.5	/experiments/AOT/AOT_stimuli/rescaled_final/0763_fw.mp4	0.0	300.66896986961365	0.1000070571899414
68	278.85684084892273	fix_pre	0		120	66.0	2.5	/experiments/AOT/AOT_stimuli/rescaled_final/1125_fw.mp4	0.0	300.7689769268036	1.000054121017456
68	279.04026079177856	pulse	0	t		66.0	2.5	/experiments/AOT/AOT_stimuli/rescaled_final/1125_fw.mp4	0.0	300.9523968696594	
68	279.8568949699402	movie	1		245	66.0	2.5	/experiments/AOT/AOT_stimuli/rescaled_final/1125_fw.mp4	0.0	301.76903104782104	2.500156879425049
68	280.6398329734802	pulse	1	t		66.0	2.5	/experiments/AOT/AOT_stimuli/rescaled_final/1125_fw.mp4	0.0	302.5519690513611	
68	282.2391049861908	pulse	1	t		66.0	2.5	/experiments/AOT/AOT_stimuli/rescaled_final/1125_fw.mp4	0.0	304.15124106407166	
68	282.35705184936523	fix_post	2		12	66.0	2.5	/experiments/AOT/AOT_stimuli/rescaled_final/1125_fw.mp4	0.0	304.2691879272461	0.09956192970275879
69	282.456613779068	fix_pre	0		120	67.0	2.5	/experiments/AOT/AOT_stimuli/rescaled_final/1316_rv.mp4	0.0	304.36874985694885	1.0001780986785889
69	283.4567918777466	movie	1		244	67.0	2.5	/experiments/AOT/AOT_stimuli/rescaled_final/1316_rv.mp4	0.0	305.36892795562744	2.500030040740967
69	283.8398458957672	pulse	1	t		67.0	2.5	/experiments/AOT/AOT_stimuli/rescaled_final/1316_rv.mp4	0.0	305.75198197364807	
69	285.4402868747711	pulse	1	t		67.0	2.5	/experiments/AOT/AOT_stimuli/rescaled_final/1316_rv.mp4	0.0	307.352422952652	
69	285.95682191848755	fix_post	2		12	67.0	2.5	/experiments/AOT/AOT_stimuli/rescaled_final/1316_rv.mp4	0.0	307.8689579963684	0.0999910831451416
70	286.0568130016327	fix_pre	0		119	68.0	2.5	/experiments/AOT/AOT_stimuli/rescaled_final/1463_fw.mp4	0.0	307.96894907951355	0.9916419982910156
70	287.0404210090637	pulse	0	t		68.0	2.5	/experiments/AOT/AOT_stimuli/rescaled_final/1463_fw.mp4	0.0	308.9525570869446	
70	287.0484549999237	movie	1		244	68.0	2.5	/experiments/AOT/AOT_stimuli/rescaled_final/1463_fw.mp4	0.0	308.96059107780457	2.508302927017212
70	288.64161491394043	pulse	1	t		68.0	2.5	/experiments/AOT/AOT_stimuli/rescaled_final/1463_fw.mp4	0.0	310.5537509918213	
70	289.5567579269409	fix_post	2		12	68.0	2.5	/experiments/AOT/AOT_stimuli/rescaled_final/1463_fw.mp4	0.0	311.4688940048218	0.10004591941833496
71	289.65680384635925	fix_pre	0		120	69.0	2.5	blank	1.0	311.5689399242401	0.9999749660491943
71	290.2402780056	pulse	0	t		69.0	2.5	blank	1.0	312.15241408348083	
71	290.65677881240845	movie	1		300	69.0	2.5	blank	1.0	312.5689148902893	2.4999661445617676
71	291.8402078151703	pulse	1	t		69.0	2.5	blank	1.0	313.75234389305115	
71	293.1567449569702	fix_post	2		12	69.0	2.5	blank	1.0	315.0688810348511	0.09995388984680176
72	293.256698846817	fix_pre	0		120	70.0	2.5	/experiments/AOT/AOT_stimuli/rescaled_final/0652_fw.mp4	0.0	315.1688349246979	0.999981164932251
72	293.4403729438782	pulse	0	t		70.0	2.5	/experiments/AOT/AOT_stimuli/rescaled_final/0652_fw.mp4	0.0	315.35250902175903	
72	294.25668001174927	movie	1		244	70.0	2.5	/experiments/AOT/AOT_stimuli/rescaled_final/0652_fw.mp4	0.0	316.1688160896301	2.500044822692871
72	295.0401499271393	pulse	1	t		70.0	2.5	/experiments/AOT/AOT_stimuli/rescaled_final/0652_fw.mp4	0.0	316.95228600502014	
72	296.63882184028625	pulse	1	t		70.0	2.5	/experiments/AOT/AOT_stimuli/rescaled_final/0652_fw.mp4	0.0	318.5509579181671	
72	296.75672483444214	fix_post	2		12	70.0	2.5	/experiments/AOT/AOT_stimuli/rescaled_final/0652_fw.mp4	0.0	318.668860912323	0.1000211238861084
73	296.85674595832825	fix_pre	0		120	71.0	2.5	/experiments/AOT/AOT_stimuli/rescaled_final/0624_fw.mp4	0.0	318.7688820362091	1.0000150203704834
73	297.85676097869873	movie	1		244	71.0	2.5	/experiments/AOT/AOT_stimuli/rescaled_final/0624_fw.mp4	0.0	319.7688970565796	2.5000078678131104
73	298.2402458190918	pulse	1	t		71.0	2.5	/experiments/AOT/AOT_stimuli/rescaled_final/0624_fw.mp4	0.0	320.15238189697266	
73	299.84019589424133	pulse	1	t		71.0	2.5	/experiments/AOT/AOT_stimuli/rescaled_final/0624_fw.mp4	0.0	321.7523319721222	
73	300.35676884651184	fix_post	2		12	71.0	2.5	/experiments/AOT/AOT_stimuli/rescaled_final/0624_fw.mp4	0.0	322.2689049243927	0.09997010231018066
74	300.456738948822	fix_pre	0		119	72.0	2.5	/experiments/AOT/AOT_stimuli/rescaled_final/0492_rv.mp4	0.0	322.3688750267029	0.9916410446166992
74	301.44019293785095	pulse	0	t		72.0	2.5	/experiments/AOT/AOT_stimuli/rescaled_final/0492_rv.mp4	0.0	323.3523290157318	
74	301.4483799934387	movie	1		245	72.0	2.5	/experiments/AOT/AOT_stimuli/rescaled_final/0492_rv.mp4	0.0	323.3605160713196	2.5083258152008057
74	303.0397698879242	pulse	1	t		72.0	2.5	/experiments/AOT/AOT_stimuli/rescaled_final/0492_rv.mp4	0.0	324.95190596580505	
74	303.9567058086395	fix_post	2		12	72.0	2.5	/experiments/AOT/AOT_stimuli/rescaled_final/0492_rv.mp4	0.0	325.8688418865204	0.09997415542602539
75	304.05667996406555	fix_pre	0		120	73.0	2.5	/experiments/AOT/AOT_stimuli/rescaled_final/2043_fw.mp4	0.0	325.9688160419464	1.0000970363616943
75	304.64023184776306	pulse	0	t		73.0	2.5	/experiments/AOT/AOT_stimuli/rescaled_final/2043_fw.mp4	0.0	326.5523679256439	
75	305.05677700042725	movie	1		244	73.0	2.5	/experiments/AOT/AOT_stimuli/rescaled_final/2043_fw.mp4	0.0	326.9689130783081	2.4998779296875
75	306.240247964859	pulse	1	t		73.0	2.5	/experiments/AOT/AOT_stimuli/rescaled_final/2043_fw.mp4	0.0	328.15238404273987	
75	307.55665493011475	fix_post	2		12	73.0	2.5	/experiments/AOT/AOT_stimuli/rescaled_final/2043_fw.mp4	0.0	329.4687910079956	0.10005688667297363
76	307.6567118167877	fix_pre	0		120	74.0	2.5	/experiments/AOT/AOT_stimuli/rescaled_final/0763_fw.mp4	0.0	329.5688478946686	1.0000290870666504
76	307.840126991272	pulse	0	t		74.0	2.5	/experiments/AOT/AOT_stimuli/rescaled_final/0763_fw.mp4	0.0	329.75226306915283	
76	308.65674090385437	movie	1		245	74.0	2.5	/experiments/AOT/AOT_stimuli/rescaled_final/0763_fw.mp4	0.0	330.56887698173523	2.5000109672546387
76	309.4401948451996	pulse	1	t		74.0	2.5	/experiments/AOT/AOT_stimuli/rescaled_final/0763_fw.mp4	0.0	331.35233092308044	
76	311.04017782211304	pulse	1	t		74.0	2.5	/experiments/AOT/AOT_stimuli/rescaled_final/0763_fw.mp4	0.0	332.9523138999939	
76	311.156751871109	fix_post	2		12	74.0	2.5	/experiments/AOT/AOT_stimuli/rescaled_final/0763_fw.mp4	0.0	333.06888794898987	0.099884033203125
77	311.25663590431213	fix_pre	0		120	75.0	2.5	blank	1.0	333.168771982193	1.000082015991211
77	312.25671792030334	movie	1		300	75.0	2.5	blank	1.0	334.1688539981842	2.499959945678711
77	312.64016699790955	pulse	1	t		75.0	2.5	blank	1.0	334.5523030757904	
77	314.2401669025421	pulse	1	t		75.0	2.5	blank	1.0	336.152302980423	
77	314.75667786598206	fix_post	2		12	75.0	2.5	blank	1.0	336.6688139438629	0.09995412826538086
78	314.85663199424744	fix_pre	0		119	76.0	2.5	/experiments/AOT/AOT_stimuli/rescaled_final/2114_fw.mp4	0.0	336.7687680721283	0.9916138648986816
78	315.84011483192444	pulse	0	t		76.0	2.5	/experiments/AOT/AOT_stimuli/rescaled_final/2114_fw.mp4	0.0	337.7522509098053	
78	315.8482458591461	movie	1		249	76.0	2.5	/experiments/AOT/AOT_stimuli/rescaled_final/2114_fw.mp4	0.0	337.760381937027	2.508455991744995
78	317.4399209022522	pulse	1	t		76.0	2.5	/experiments/AOT/AOT_stimuli/rescaled_final/2114_fw.mp4	0.0	339.35205698013306	
78	318.3567018508911	fix_post	2		12	76.0	2.5	/experiments/AOT/AOT_stimuli/rescaled_final/2114_fw.mp4	0.0	340.268837928772	0.09998607635498047
79	318.4566879272461	fix_pre	0		120	77.0	2.5	/experiments/AOT/AOT_stimuli/rescaled_final/0170_fw.mp4	0.0	340.36882400512695	0.9999589920043945
79	319.0403208732605	pulse	0	t		77.0	2.5	/experiments/AOT/AOT_stimuli/rescaled_final/0170_fw.mp4	0.0	340.95245695114136	
79	319.4566469192505	movie	1		245	77.0	2.5	/experiments/AOT/AOT_stimuli/rescaled_final/0170_fw.mp4	0.0	341.36878299713135	2.50004506111145
79	320.640193939209	pulse	1	t		77.0	2.5	/experiments/AOT/AOT_stimuli/rescaled_final/0170_fw.mp4	0.0	342.55233001708984	
79	321.95669198036194	fix_post	2		12	77.0	2.5	/experiments/AOT/AOT_stimuli/rescaled_final/0170_fw.mp4	0.0	343.8688280582428	0.09992694854736328
80	322.0566189289093	fix_pre	0		120	78.0	2.5	/experiments/AOT/AOT_stimuli/rescaled_final/1551_rv.mp4	0.0	343.96875500679016	0.9999630451202393
80	322.2401158809662	pulse	0	t		78.0	2.5	/experiments/AOT/AOT_stimuli/rescaled_final/1551_rv.mp4	0.0	344.15225195884705	
80	323.05658197402954	movie	1		245	78.0	2.5	/experiments/AOT/AOT_stimuli/rescaled_final/1551_rv.mp4	0.0	344.9687180519104	2.499964952468872
80	323.8400979042053	pulse	1	t		78.0	2.5	/experiments/AOT/AOT_stimuli/rescaled_final/1551_rv.mp4	0.0	345.7522339820862	
80	325.4404139518738	pulse	1	t		78.0	2.5	/experiments/AOT/AOT_stimuli/rescaled_final/1551_rv.mp4	0.0	347.35255002975464	
80	325.5565469264984	fix_post	2		12	78.0	2.5	/experiments/AOT/AOT_stimuli/rescaled_final/1551_rv.mp4	0.0	347.4686830043793	0.10005593299865723
81	325.65660285949707	fix_pre	0		120	79.0	2.5	/experiments/AOT/AOT_stimuli/rescaled_final/1493_rv.mp4	0.0	347.56873893737793	1.000082015991211
81	326.6566848754883	movie	1		244	79.0	2.5	/experiments/AOT/AOT_stimuli/rescaled_final/1493_rv.mp4	0.0	348.56882095336914	2.4999969005584717
81	327.0397129058838	pulse	1	t		79.0	2.5	/experiments/AOT/AOT_stimuli/rescaled_final/1493_rv.mp4	0.0	348.95184898376465	
81	328.64006185531616	pulse	1	t		79.0	2.5	/experiments/AOT/AOT_stimuli/rescaled_final/1493_rv.mp4	0.0	350.552197933197	
81	329.15668177604675	fix_post	2		12	79.0	2.5	/experiments/AOT/AOT_stimuli/rescaled_final/1493_rv.mp4	0.0	351.0688178539276	0.09995818138122559
82	329.256639957428	fix_pre	0		119	80.0	2.5	/experiments/AOT/AOT_stimuli/rescaled_final/1316_fw.mp4	0.0	351.16877603530884	0.9916238784790039
82	330.24006485939026	pulse	0	t		80.0	2.5	/experiments/AOT/AOT_stimuli/rescaled_final/1316_fw.mp4	0.0	352.1522009372711	
82	330.248263835907	movie	1		245	80.0	2.5	/experiments/AOT/AOT_stimuli/rescaled_final/1316_fw.mp4	0.0	352.16039991378784	2.508291006088257
82	331.8394799232483	pulse	1	t		80.0	2.5	/experiments/AOT/AOT_stimuli/rescaled_final/1316_fw.mp4	0.0	353.75161600112915	
82	332.75655484199524	fix_post	2		12	80.0	2.5	/experiments/AOT/AOT_stimuli/rescaled_final/1316_fw.mp4	0.0	354.6686909198761	0.10002899169921875
83	332.85658383369446	fix_pre	0		120	81.0	2.5	/experiments/AOT/AOT_stimuli/rescaled_final/1469_fw.mp4	0.0	354.7687199115753	0.9999551773071289
83	333.4400839805603	pulse	0	t		81.0	2.5	/experiments/AOT/AOT_stimuli/rescaled_final/1469_fw.mp4	0.0	355.35222005844116	
83	333.8565390110016	movie	1		245	81.0	2.5	/experiments/AOT/AOT_stimuli/rescaled_final/1469_fw.mp4	0.0	355.76867508888245	2.4995999336242676
83	335.04012084007263	pulse	1	t		81.0	2.5	/experiments/AOT/AOT_stimuli/rescaled_final/1469_fw.mp4	0.0	356.9522569179535	
83	336.35613894462585	fix_post	2		12	81.0	2.5	/experiments/AOT/AOT_stimuli/rescaled_final/1469_fw.mp4	0.0	358.2682750225067	0.09994792938232422
84	336.4560868740082	fix_pre	0		120	82.0	2.5	blank	1.0	358.36822295188904	1.0001270771026611
84	336.6395628452301	pulse	0	t		82.0	2.5	blank	1.0	358.55169892311096	
84	337.45621395111084	movie	1		300	82.0	2.5	blank	1.0	359.3683500289917	2.5003209114074707
84	338.24024987220764	pulse	1	t		82.0	2.5	blank	1.0	360.1523859500885	
84	339.84005880355835	pulse	1	t		82.0	2.5	blank	1.0	361.7521948814392	
84	339.9565348625183	fix_post	2		12	82.0	2.5	blank	1.0	361.86867094039917	0.10002899169921875
85	340.05656385421753	fix_pre	0		120	83.0	2.5	/experiments/AOT/AOT_stimuli/rescaled_final/1149_fw.mp4	0.0	361.9686999320984	0.9999179840087891
85	341.0564818382263	movie	1		243	83.0	2.5	/experiments/AOT/AOT_stimuli/rescaled_final/1149_fw.mp4	0.0	362.9686179161072	2.500056028366089
85	341.44032096862793	pulse	1	t		83.0	2.5	/experiments/AOT/AOT_stimuli/rescaled_final/1149_fw.mp4	0.0	363.3524570465088	
85	343.039981842041	pulse	1	t		83.0	2.5	/experiments/AOT/AOT_stimuli/rescaled_final/1149_fw.mp4	0.0	364.9521179199219	
85	343.5565378665924	fix_post	2		12	83.0	2.5	/experiments/AOT/AOT_stimuli/rescaled_final/1149_fw.mp4	0.0	365.46867394447327	0.09989309310913086
87	343.65643095970154	stim	0		1716					365.5685670375824	14.300113916397095
87	344.6400308609009	pulse	0	t						366.55216693878174	
87	346.2398929595947	pulse	0	t						368.1520290374756	
87	347.83993577957153	pulse	0	t						369.7520718574524	
87	349.44003200531006	pulse	0	t						371.3521680831909	
87	351.0399098396301	pulse	0	t						372.952045917511	
87	352.63991689682007	pulse	0	t						374.5520529747009	
87	354.23990297317505	pulse	0	t						376.1520390510559	
87	355.83990383148193	pulse	0	t						377.7520399093628	
87	357.4400010108948	pulse	0	t						379.35213708877563	
