trial_nr	onset	event_type	phase	response	nr_frames	movie_index	movie_duration	movie_file	blank	onset_abs	duration
0	0.15831947326660156	stim	0		2					20.71786069869995	0.016607046127319336
0	0.16686797142028809	response	0	space						20.726409196853638	
1	0.1749265193939209	stim	0		4492					20.73446774482727	37.44934272766113
1	37.61409592628479	pulse	0	t						58.17363715171814	
1	37.624269247055054	stim	1		1715					58.1838104724884	14.300052881240845
1	39.20601797103882	pulse	1	t						59.76555919647217	
1	40.798316955566406	pulse	1	t						61.357858180999756	
1	42.39833998680115	pulse	1	t						62.9578812122345	
1	43.99836492538452	pulse	1	t						64.55790615081787	
1	45.59865164756775	pulse	1	t						66.1581928730011	
1	47.19878101348877	pulse	1	t						67.75832223892212	
1	48.79905962944031	pulse	1	t						69.35860085487366	
1	50.39931511878967	pulse	1	t						70.95885634422302	
2	51.9243221282959	fix_pre	0		10	0.0	2.5	/experiments/Knapen_AOT/AOT_stimuli/rescaled_final/1760_fw.mp4	0.0	72.48386335372925	0.10004639625549316
2	51.9995231628418	pulse	0	t		0.0	2.5	/experiments/Knapen_AOT/AOT_stimuli/rescaled_final/1760_fw.mp4	0.0	72.55906438827515	
2	52.02436852455139	movie	1		276	0.0	2.5	/experiments/Knapen_AOT/AOT_stimuli/rescaled_final/1760_fw.mp4	0.0	72.58390974998474	2.49200177192688
2	53.59978413581848	pulse	1	t		0.0	2.5	/experiments/Knapen_AOT/AOT_stimuli/rescaled_final/1760_fw.mp4	0.0	74.15932536125183	
2	54.51637029647827	fix_post	2		12	0.0	2.5	/experiments/Knapen_AOT/AOT_stimuli/rescaled_final/1760_fw.mp4	0.0	75.07591152191162	0.10001182556152344
3	54.616382122039795	fix_pre	0		120	1.0	2.5	/experiments/Knapen_AOT/AOT_stimuli/rescaled_final/2175_fw.mp4	0.0	75.17592334747314	1.0085177421569824
3	55.200066566467285	pulse	0	t		1.0	2.5	/experiments/Knapen_AOT/AOT_stimuli/rescaled_final/2175_fw.mp4	0.0	75.75960779190063	
3	55.62489986419678	movie	1		290	1.0	2.5	/experiments/Knapen_AOT/AOT_stimuli/rescaled_final/2175_fw.mp4	0.0	76.18444108963013	2.4920506477355957
3	56.79856753349304	pulse	1	t		1.0	2.5	/experiments/Knapen_AOT/AOT_stimuli/rescaled_final/2175_fw.mp4	0.0	77.35810875892639	
3	58.11695051193237	fix_post	2		12	1.0	2.5	/experiments/Knapen_AOT/AOT_stimuli/rescaled_final/2175_fw.mp4	0.0	78.67649173736572	0.10005998611450195
4	58.217010498046875	fix_pre	0		120	2.0	2.5	/experiments/Knapen_AOT/AOT_stimuli/rescaled_final/1232_rv.mp4	0.0	78.77655172348022	1.0084228515625
4	58.40056538581848	pulse	0	t		2.0	2.5	/experiments/Knapen_AOT/AOT_stimuli/rescaled_final/1232_rv.mp4	0.0	78.96010661125183	
4	59.225433349609375	movie	1		280	2.0	2.5	/experiments/Knapen_AOT/AOT_stimuli/rescaled_final/1232_rv.mp4	0.0	79.78497457504272	2.4920225143432617
4	59.99897813796997	pulse	1	t		2.0	2.5	/experiments/Knapen_AOT/AOT_stimuli/rescaled_final/1232_rv.mp4	0.0	80.55851936340332	
4	61.59881615638733	pulse	1	t		2.0	2.5	/experiments/Knapen_AOT/AOT_stimuli/rescaled_final/1232_rv.mp4	0.0	82.15835738182068	
4	61.71745586395264	fix_post	2		12	2.0	2.5	/experiments/Knapen_AOT/AOT_stimuli/rescaled_final/1232_rv.mp4	0.0	82.27699708938599	0.10000991821289062
5	61.81746578216553	fix_pre	0		120	3.0	2.5	/experiments/Knapen_AOT/AOT_stimuli/rescaled_final/2140_rv.mp4	0.0	82.37700700759888	1.008526086807251
5	62.82599186897278	movie	1		270	3.0	2.5	/experiments/Knapen_AOT/AOT_stimuli/rescaled_final/2140_rv.mp4	0.0	83.38553309440613	2.4920003414154053
5	63.20164346694946	pulse	1	t		3.0	2.5	/experiments/Knapen_AOT/AOT_stimuli/rescaled_final/2140_rv.mp4	0.0	83.76118469238281	
5	64.7995662689209	pulse	1	t		3.0	2.5	/experiments/Knapen_AOT/AOT_stimuli/rescaled_final/2140_rv.mp4	0.0	85.35910749435425	
5	65.31799221038818	fix_post	2		12	3.0	2.5	/experiments/Knapen_AOT/AOT_stimuli/rescaled_final/2140_rv.mp4	0.0	85.87753343582153	0.10002279281616211
6	65.41801500320435	fix_pre	0		119	4.0	2.5	/experiments/Knapen_AOT/AOT_stimuli/rescaled_final/0046_fw.mp4	0.0	85.9775562286377	1.0002858638763428
6	66.40189576148987	pulse	0	t		4.0	2.5	/experiments/Knapen_AOT/AOT_stimuli/rescaled_final/0046_fw.mp4	0.0	86.96143698692322	
6	66.41830086708069	movie	1		279	4.0	2.5	/experiments/Knapen_AOT/AOT_stimuli/rescaled_final/0046_fw.mp4	0.0	86.97784209251404	2.5002293586730957
6	68.00048637390137	pulse	1	t		4.0	2.5	/experiments/Knapen_AOT/AOT_stimuli/rescaled_final/0046_fw.mp4	0.0	88.56002759933472	
6	68.91853022575378	fix_post	2		12	4.0	2.5	/experiments/Knapen_AOT/AOT_stimuli/rescaled_final/0046_fw.mp4	0.0	89.47807145118713	0.10007452964782715
7	69.01860475540161	fix_pre	0		120	5.0	2.5	/experiments/Knapen_AOT/AOT_stimuli/rescaled_final/0302_rv.mp4	0.0	89.57814598083496	1.0084469318389893
7	69.60231566429138	pulse	0	t		5.0	2.5	/experiments/Knapen_AOT/AOT_stimuli/rescaled_final/0302_rv.mp4	0.0	90.16185688972473	
7	70.0270516872406	movie	1		288	5.0	2.5	/experiments/Knapen_AOT/AOT_stimuli/rescaled_final/0302_rv.mp4	0.0	90.58659291267395	2.4922804832458496
7	71.20049810409546	pulse	1	t		5.0	2.5	/experiments/Knapen_AOT/AOT_stimuli/rescaled_final/0302_rv.mp4	0.0	91.76003932952881	
7	72.51933217048645	fix_post	2		12	5.0	2.5	/experiments/Knapen_AOT/AOT_stimuli/rescaled_final/0302_rv.mp4	0.0	93.0788733959198	0.09978246688842773
8	72.61911463737488	fix_pre	0		120	6.0	2.5	blank	1.0	93.17865586280823	1.0001413822174072
8	72.80267405509949	pulse	0	t		6.0	2.5	blank	1.0	93.36221528053284	
8	73.61925601959229	movie	1		300	6.0	2.5	blank	1.0	94.17879724502563	2.5003929138183594
8	74.40289878845215	pulse	1	t		6.0	2.5	blank	1.0	94.9624400138855	
8	76.00340843200684	pulse	1	t		6.0	2.5	blank	1.0	96.56294965744019	
8	76.11964893341064	fix_post	2		12	6.0	2.5	blank	1.0	96.679190158844	0.10002541542053223
9	76.21967434883118	fix_pre	0		120	7.0	2.5	/experiments/Knapen_AOT/AOT_stimuli/rescaled_final/1638_rv.mp4	0.0	96.77921557426453	1.008469581604004
9	77.22814393043518	movie	1		286	7.0	2.5	/experiments/Knapen_AOT/AOT_stimuli/rescaled_final/1638_rv.mp4	0.0	97.78768515586853	2.492051362991333
9	77.60229086875916	pulse	1	t		7.0	2.5	/experiments/Knapen_AOT/AOT_stimuli/rescaled_final/1638_rv.mp4	0.0	98.1618320941925	
9	79.20156788825989	pulse	1	t		7.0	2.5	/experiments/Knapen_AOT/AOT_stimuli/rescaled_final/1638_rv.mp4	0.0	99.76110911369324	
9	79.72019529342651	fix_post	2		12	7.0	2.5	/experiments/Knapen_AOT/AOT_stimuli/rescaled_final/1638_rv.mp4	0.0	100.27973651885986	0.10000753402709961
10	79.82020282745361	fix_pre	0		119	8.0	2.5	/experiments/Knapen_AOT/AOT_stimuli/rescaled_final/0647_fw.mp4	0.0	100.37974405288696	1.0001490116119385
10	80.80399632453918	pulse	0	t		8.0	2.5	/experiments/Knapen_AOT/AOT_stimuli/rescaled_final/0647_fw.mp4	0.0	101.36353754997253	
10	80.82035183906555	movie	1		289	8.0	2.5	/experiments/Knapen_AOT/AOT_stimuli/rescaled_final/0647_fw.mp4	0.0	101.3798930644989	2.500385284423828
10	82.40307307243347	pulse	1	t		8.0	2.5	/experiments/Knapen_AOT/AOT_stimuli/rescaled_final/0647_fw.mp4	0.0	102.96261429786682	
10	83.32073712348938	fix_post	2		12	8.0	2.5	/experiments/Knapen_AOT/AOT_stimuli/rescaled_final/0647_fw.mp4	0.0	103.88027834892273	0.0999901294708252
11	83.4207272529602	fix_pre	0		120	9.0	2.5	/experiments/Knapen_AOT/AOT_stimuli/rescaled_final/1032_fw.mp4	0.0	103.98026847839355	1.0085055828094482
11	84.00449395179749	pulse	0	t		9.0	2.5	/experiments/Knapen_AOT/AOT_stimuli/rescaled_final/1032_fw.mp4	0.0	104.56403517723083	
11	84.42923283576965	movie	1		292	9.0	2.5	/experiments/Knapen_AOT/AOT_stimuli/rescaled_final/1032_fw.mp4	0.0	104.988774061203	2.4920501708984375
11	85.60270738601685	pulse	1	t		9.0	2.5	/experiments/Knapen_AOT/AOT_stimuli/rescaled_final/1032_fw.mp4	0.0	106.1622486114502	
11	86.92128300666809	fix_post	2		12	9.0	2.5	/experiments/Knapen_AOT/AOT_stimuli/rescaled_final/1032_fw.mp4	0.0	107.48082423210144	0.1000051498413086
12	87.0212881565094	fix_pre	0		120	10.0	2.5	/experiments/Knapen_AOT/AOT_stimuli/rescaled_final/0958_fw.mp4	0.0	107.58082938194275	1.008469820022583
12	87.2049298286438	pulse	0	t		10.0	2.5	/experiments/Knapen_AOT/AOT_stimuli/rescaled_final/0958_fw.mp4	0.0	107.76447105407715	
12	88.02975797653198	movie	1		289	10.0	2.5	/experiments/Knapen_AOT/AOT_stimuli/rescaled_final/0958_fw.mp4	0.0	108.58929920196533	2.4920783042907715
12	88.80307030677795	pulse	1	t		10.0	2.5	/experiments/Knapen_AOT/AOT_stimuli/rescaled_final/0958_fw.mp4	0.0	109.3626115322113	
12	90.4035255908966	pulse	1	t		10.0	2.5	/experiments/Knapen_AOT/AOT_stimuli/rescaled_final/0958_fw.mp4	0.0	110.96306681632996	
12	90.52183628082275	fix_post	2		12	10.0	2.5	/experiments/Knapen_AOT/AOT_stimuli/rescaled_final/0958_fw.mp4	0.0	111.0813775062561	0.09999704360961914
13	90.62183332443237	fix_pre	0		120	11.0	2.5	/experiments/Knapen_AOT/AOT_stimuli/rescaled_final/1314_fw.mp4	0.0	111.18137454986572	1.008535623550415
13	91.63036894798279	movie	1		286	11.0	2.5	/experiments/Knapen_AOT/AOT_stimuli/rescaled_final/1314_fw.mp4	0.0	112.18991017341614	2.492014169692993
13	92.00423765182495	pulse	1	t		11.0	2.5	/experiments/Knapen_AOT/AOT_stimuli/rescaled_final/1314_fw.mp4	0.0	112.5637788772583	
13	93.60390615463257	pulse	1	t		11.0	2.5	/experiments/Knapen_AOT/AOT_stimuli/rescaled_final/1314_fw.mp4	0.0	114.16344738006592	
13	94.12238311767578	fix_post	2		12	11.0	2.5	/experiments/Knapen_AOT/AOT_stimuli/rescaled_final/1314_fw.mp4	0.0	114.68192434310913	0.1000525951385498
14	94.22243571281433	fix_pre	0		119	12.0	2.5	/experiments/Knapen_AOT/AOT_stimuli/rescaled_final/1638_fw.mp4	0.0	114.78197693824768	1.0084397792816162
14	95.20629811286926	pulse	0	t		12.0	2.5	/experiments/Knapen_AOT/AOT_stimuli/rescaled_final/1638_fw.mp4	0.0	115.76583933830261	
14	95.23087549209595	movie	1		280	12.0	2.5	/experiments/Knapen_AOT/AOT_stimuli/rescaled_final/1638_fw.mp4	0.0	115.7904167175293	2.492018461227417
14	96.80537390708923	pulse	1	t		12.0	2.5	/experiments/Knapen_AOT/AOT_stimuli/rescaled_final/1638_fw.mp4	0.0	117.36491513252258	
14	97.72289395332336	fix_post	2		12	12.0	2.5	/experiments/Knapen_AOT/AOT_stimuli/rescaled_final/1638_fw.mp4	0.0	118.28243517875671	0.10000300407409668
15	97.82289695739746	fix_pre	0		120	13.0	2.5	blank	1.0	118.38243818283081	1.000223159790039
15	98.4065113067627	pulse	0	t		13.0	2.5	blank	1.0	118.96605253219604	
15	98.8231201171875	movie	1		300	13.0	2.5	blank	1.0	119.38266134262085	2.5002853870391846
15	99.99913096427917	pulse	1	t		13.0	2.5	blank	1.0	120.55867218971252	
15	101.32340550422668	fix_post	2		12	13.0	2.5	blank	1.0	121.88294672966003	0.1000816822052002
16	101.42348718643188	fix_pre	0		120	14.0	2.5	/experiments/Knapen_AOT/AOT_stimuli/rescaled_final/0981_rv.mp4	0.0	121.98302841186523	1.008476972579956
16	101.5990343093872	pulse	0	t		14.0	2.5	/experiments/Knapen_AOT/AOT_stimuli/rescaled_final/0981_rv.mp4	0.0	122.15857553482056	
16	102.43196415901184	movie	1		278	14.0	2.5	/experiments/Knapen_AOT/AOT_stimuli/rescaled_final/0981_rv.mp4	0.0	122.99150538444519	2.492006778717041
16	103.19900274276733	pulse	1	t		14.0	2.5	/experiments/Knapen_AOT/AOT_stimuli/rescaled_final/0981_rv.mp4	0.0	123.75854396820068	
16	104.79929876327515	pulse	1	t		14.0	2.5	/experiments/Knapen_AOT/AOT_stimuli/rescaled_final/0981_rv.mp4	0.0	125.3588399887085	
16	104.92397093772888	fix_post	2		12	14.0	2.5	/experiments/Knapen_AOT/AOT_stimuli/rescaled_final/0981_rv.mp4	0.0	125.48351216316223	0.10001063346862793
17	105.02398157119751	fix_pre	0		120	15.0	2.5	/experiments/Knapen_AOT/AOT_stimuli/rescaled_final/0782_rv.mp4	0.0	125.58352279663086	1.0084788799285889
17	106.0324604511261	movie	1		288	15.0	2.5	/experiments/Knapen_AOT/AOT_stimuli/rescaled_final/0782_rv.mp4	0.0	126.59200167655945	2.4921748638153076
17	106.3994140625	pulse	1	t		15.0	2.5	/experiments/Knapen_AOT/AOT_stimuli/rescaled_final/0782_rv.mp4	0.0	126.95895528793335	
17	108.00004291534424	pulse	1	t		15.0	2.5	/experiments/Knapen_AOT/AOT_stimuli/rescaled_final/0782_rv.mp4	0.0	128.5595841407776	
17	108.5246353149414	fix_post	2		12	15.0	2.5	/experiments/Knapen_AOT/AOT_stimuli/rescaled_final/0782_rv.mp4	0.0	129.08417654037476	0.09989237785339355
18	108.6245276927948	fix_pre	0		118	16.0	2.5	/experiments/Knapen_AOT/AOT_stimuli/rescaled_final/1547_rv.mp4	0.0	129.18406891822815	0.9918508529663086
18	109.59992837905884	pulse	0	t		16.0	2.5	/experiments/Knapen_AOT/AOT_stimuli/rescaled_final/1547_rv.mp4	0.0	130.1594696044922	
18	109.61637854576111	movie	1		280	16.0	2.5	/experiments/Knapen_AOT/AOT_stimuli/rescaled_final/1547_rv.mp4	0.0	130.17591977119446	2.5003342628479004
18	111.20026707649231	pulse	1	t		16.0	2.5	/experiments/Knapen_AOT/AOT_stimuli/rescaled_final/1547_rv.mp4	0.0	131.75980830192566	
18	112.11671280860901	fix_post	2		12	16.0	2.5	/experiments/Knapen_AOT/AOT_stimuli/rescaled_final/1547_rv.mp4	0.0	132.67625403404236	0.10007119178771973
19	112.21678400039673	fix_pre	0		120	17.0	2.5	/experiments/Knapen_AOT/AOT_stimuli/rescaled_final/0343_rv.mp4	0.0	132.77632522583008	1.008479118347168
19	112.80041098594666	pulse	0	t		17.0	2.5	/experiments/Knapen_AOT/AOT_stimuli/rescaled_final/0343_rv.mp4	0.0	133.35995221138	
19	113.2252631187439	movie	1		285	17.0	2.5	/experiments/Knapen_AOT/AOT_stimuli/rescaled_final/0343_rv.mp4	0.0	133.78480434417725	2.492014169692993
19	114.4008321762085	pulse	1	t		17.0	2.5	/experiments/Knapen_AOT/AOT_stimuli/rescaled_final/0343_rv.mp4	0.0	134.96037340164185	
19	115.71727728843689	fix_post	2		12	17.0	2.5	/experiments/Knapen_AOT/AOT_stimuli/rescaled_final/0343_rv.mp4	0.0	136.27681851387024	0.10009431838989258
20	115.81737160682678	fix_pre	0		120	18.0	2.5	/experiments/Knapen_AOT/AOT_stimuli/rescaled_final/0870_rv.mp4	0.0	136.37691283226013	1.0084240436553955
20	116.00085830688477	pulse	0	t		18.0	2.5	/experiments/Knapen_AOT/AOT_stimuli/rescaled_final/0870_rv.mp4	0.0	136.56039953231812	
20	116.82579565048218	movie	1		278	18.0	2.5	/experiments/Knapen_AOT/AOT_stimuli/rescaled_final/0870_rv.mp4	0.0	137.38533687591553	2.49202823638916
20	117.6011221408844	pulse	1	t		18.0	2.5	/experiments/Knapen_AOT/AOT_stimuli/rescaled_final/0870_rv.mp4	0.0	138.16066336631775	
20	119.1991400718689	pulse	1	t		18.0	2.5	/experiments/Knapen_AOT/AOT_stimuli/rescaled_final/0870_rv.mp4	0.0	139.75868129730225	
20	119.31782388687134	fix_post	2		12	18.0	2.5	/experiments/Knapen_AOT/AOT_stimuli/rescaled_final/0870_rv.mp4	0.0	139.8773651123047	0.10004281997680664
21	119.41786670684814	fix_pre	0		120	19.0	2.5	/experiments/Knapen_AOT/AOT_stimuli/rescaled_final/1267_rv.mp4	0.0	139.9774079322815	1.0084679126739502
21	120.4263346195221	movie	1		279	19.0	2.5	/experiments/Knapen_AOT/AOT_stimuli/rescaled_final/1267_rv.mp4	0.0	140.98587584495544	2.4920120239257812
21	120.80024766921997	pulse	1	t		19.0	2.5	/experiments/Knapen_AOT/AOT_stimuli/rescaled_final/1267_rv.mp4	0.0	141.35978889465332	
21	122.4007887840271	pulse	1	t		19.0	2.5	/experiments/Knapen_AOT/AOT_stimuli/rescaled_final/1267_rv.mp4	0.0	142.96033000946045	
21	122.91834664344788	fix_post	2		12	19.0	2.5	/experiments/Knapen_AOT/AOT_stimuli/rescaled_final/1267_rv.mp4	0.0	143.47788786888123	0.10001397132873535
22	123.01836061477661	fix_pre	0		119	20.0	2.5	blank	1.0	143.57790184020996	0.991814136505127
22	124.002112865448	pulse	0	t		20.0	2.5	blank	1.0	144.56165409088135	
22	124.01017475128174	movie	1		301	20.0	2.5	blank	1.0	144.5697159767151	2.5087339878082275
22	125.60232949256897	pulse	1	t		20.0	2.5	blank	1.0	146.16187071800232	
22	126.51890873908997	fix_post	2		12	20.0	2.5	blank	1.0	147.07844996452332	0.10000252723693848
23	126.6189112663269	fix_pre	0		120	21.0	2.5	/experiments/Knapen_AOT/AOT_stimuli/rescaled_final/0795_fw.mp4	0.0	147.17845249176025	1.0084784030914307
23	127.20249390602112	pulse	0	t		21.0	2.5	/experiments/Knapen_AOT/AOT_stimuli/rescaled_final/0795_fw.mp4	0.0	147.76203513145447	
23	127.62738966941833	movie	1		272	21.0	2.5	/experiments/Knapen_AOT/AOT_stimuli/rescaled_final/0795_fw.mp4	0.0	148.18693089485168	2.4920334815979004
23	128.800843000412	pulse	1	t		21.0	2.5	/experiments/Knapen_AOT/AOT_stimuli/rescaled_final/0795_fw.mp4	0.0	149.36038422584534	
23	130.11942315101624	fix_post	2		12	21.0	2.5	/experiments/Knapen_AOT/AOT_stimuli/rescaled_final/0795_fw.mp4	0.0	150.67896437644958	0.10002756118774414
24	130.21945071220398	fix_pre	0		120	22.0	2.5	/experiments/Knapen_AOT/AOT_stimuli/rescaled_final/1097_fw.mp4	0.0	150.77899193763733	1.0086345672607422
24	130.40314984321594	pulse	0	t		22.0	2.5	/experiments/Knapen_AOT/AOT_stimuli/rescaled_final/1097_fw.mp4	0.0	150.9626910686493	
24	131.22808527946472	movie	1		279	22.0	2.5	/experiments/Knapen_AOT/AOT_stimuli/rescaled_final/1097_fw.mp4	0.0	151.78762650489807	2.49204683303833
24	132.00150895118713	pulse	1	t		22.0	2.5	/experiments/Knapen_AOT/AOT_stimuli/rescaled_final/1097_fw.mp4	0.0	152.56105017662048	
24	133.60164976119995	pulse	1	t		22.0	2.5	/experiments/Knapen_AOT/AOT_stimuli/rescaled_final/1097_fw.mp4	0.0	154.1611909866333	
24	133.72013211250305	fix_post	2		12	22.0	2.5	/experiments/Knapen_AOT/AOT_stimuli/rescaled_final/1097_fw.mp4	0.0	154.2796733379364	0.09986543655395508
25	133.819997549057	fix_pre	0		120	23.0	2.5	/experiments/Knapen_AOT/AOT_stimuli/rescaled_final/1090_rv.mp4	0.0	154.37953877449036	1.008467674255371
25	134.82846522331238	movie	1		282	23.0	2.5	/experiments/Knapen_AOT/AOT_stimuli/rescaled_final/1090_rv.mp4	0.0	155.38800644874573	2.492037296295166
25	135.20222997665405	pulse	1	t		23.0	2.5	/experiments/Knapen_AOT/AOT_stimuli/rescaled_final/1090_rv.mp4	0.0	155.7617712020874	
25	136.8016538619995	pulse	1	t		23.0	2.5	/experiments/Knapen_AOT/AOT_stimuli/rescaled_final/1090_rv.mp4	0.0	157.36119508743286	
25	137.32050251960754	fix_post	2		12	23.0	2.5	/experiments/Knapen_AOT/AOT_stimuli/rescaled_final/1090_rv.mp4	0.0	157.8800437450409	0.10006165504455566
26	137.4205641746521	fix_pre	0		119	24.0	2.5	/experiments/Knapen_AOT/AOT_stimuli/rescaled_final/1550_fw.mp4	0.0	157.98010540008545	1.0001335144042969
26	138.4042284488678	pulse	0	t		24.0	2.5	/experiments/Knapen_AOT/AOT_stimuli/rescaled_final/1550_fw.mp4	0.0	158.96376967430115	
26	138.4206976890564	movie	1		281	24.0	2.5	/experiments/Knapen_AOT/AOT_stimuli/rescaled_final/1550_fw.mp4	0.0	158.98023891448975	2.500361680984497
26	140.0027449131012	pulse	1	t		24.0	2.5	/experiments/Knapen_AOT/AOT_stimuli/rescaled_final/1550_fw.mp4	0.0	160.56228613853455	
26	140.9210593700409	fix_post	2		12	24.0	2.5	/experiments/Knapen_AOT/AOT_stimuli/rescaled_final/1550_fw.mp4	0.0	161.48060059547424	0.10023999214172363
27	141.02129936218262	fix_pre	0		120	25.0	2.5	/experiments/Knapen_AOT/AOT_stimuli/rescaled_final/0099_fw.mp4	0.0	161.58084058761597	1.008359432220459
27	141.6047043800354	pulse	0	t		25.0	2.5	/experiments/Knapen_AOT/AOT_stimuli/rescaled_final/0099_fw.mp4	0.0	162.16424560546875	
27	142.02965879440308	movie	1		290	25.0	2.5	/experiments/Knapen_AOT/AOT_stimuli/rescaled_final/0099_fw.mp4	0.0	162.58920001983643	2.4919354915618896
27	143.20313787460327	pulse	1	t		25.0	2.5	/experiments/Knapen_AOT/AOT_stimuli/rescaled_final/0099_fw.mp4	0.0	163.76267910003662	
27	144.52159428596497	fix_post	2		12	25.0	2.5	/experiments/Knapen_AOT/AOT_stimuli/rescaled_final/0099_fw.mp4	0.0	165.08113551139832	0.10003376007080078
28	144.62162804603577	fix_pre	0		120	26.0	2.5	blank	1.0	165.18116927146912	1.0001194477081299
28	144.80545854568481	pulse	0	t		26.0	2.5	blank	1.0	165.36499977111816	
28	145.6217474937439	movie	1		300	26.0	2.5	blank	1.0	166.18128871917725	2.500457286834717
28	146.40542101860046	pulse	1	t		26.0	2.5	blank	1.0	166.9649622440338	
28	147.9987494945526	pulse	1	t		26.0	2.5	blank	1.0	168.55829071998596	
28	148.1222047805786	fix_post	2		12	26.0	2.5	blank	1.0	168.68174600601196	0.10004496574401855
29	148.22224974632263	fix_pre	0		120	27.0	2.5	/experiments/Knapen_AOT/AOT_stimuli/rescaled_final/1493_fw.mp4	0.0	168.78179097175598	1.008436918258667
29	149.2306866645813	movie	1		278	27.0	2.5	/experiments/Knapen_AOT/AOT_stimuli/rescaled_final/1493_fw.mp4	0.0	169.79022789001465	2.4919838905334473
29	149.60440707206726	pulse	1	t		27.0	2.5	/experiments/Knapen_AOT/AOT_stimuli/rescaled_final/1493_fw.mp4	0.0	170.1639482975006	
29	151.20458602905273	pulse	1	t		27.0	2.5	/experiments/Knapen_AOT/AOT_stimuli/rescaled_final/1493_fw.mp4	0.0	171.76412725448608	
29	151.72267055511475	fix_post	2		12	27.0	2.5	/experiments/Knapen_AOT/AOT_stimuli/rescaled_final/1493_fw.mp4	0.0	172.2822117805481	0.10002255439758301
30	151.82269310951233	fix_pre	0		118	28.0	2.5	/experiments/Knapen_AOT/AOT_stimuli/rescaled_final/1626_rv.mp4	0.0	172.38223433494568	0.9919419288635254
30	152.79828214645386	pulse	0	t		28.0	2.5	/experiments/Knapen_AOT/AOT_stimuli/rescaled_final/1626_rv.mp4	0.0	173.3578233718872	
30	152.81463503837585	movie	1		275	28.0	2.5	/experiments/Knapen_AOT/AOT_stimuli/rescaled_final/1626_rv.mp4	0.0	173.3741762638092	2.5002501010894775
30	154.39845967292786	pulse	1	t		28.0	2.5	/experiments/Knapen_AOT/AOT_stimuli/rescaled_final/1626_rv.mp4	0.0	174.9580008983612	
30	155.31488513946533	fix_post	2		12	28.0	2.5	/experiments/Knapen_AOT/AOT_stimuli/rescaled_final/1626_rv.mp4	0.0	175.87442636489868	0.10001945495605469
31	155.4149045944214	fix_pre	0		120	29.0	2.5	/experiments/Knapen_AOT/AOT_stimuli/rescaled_final/0099_rv.mp4	0.0	175.97444581985474	1.0085103511810303
31	155.9985864162445	pulse	0	t		29.0	2.5	/experiments/Knapen_AOT/AOT_stimuli/rescaled_final/0099_rv.mp4	0.0	176.55812764167786	
31	156.42341494560242	movie	1		284	29.0	2.5	/experiments/Knapen_AOT/AOT_stimuli/rescaled_final/0099_rv.mp4	0.0	176.98295617103577	2.492018222808838
31	157.59891390800476	pulse	1	t		29.0	2.5	/experiments/Knapen_AOT/AOT_stimuli/rescaled_final/0099_rv.mp4	0.0	178.1584551334381	
31	158.91543316841125	fix_post	2		12	29.0	2.5	/experiments/Knapen_AOT/AOT_stimuli/rescaled_final/0099_rv.mp4	0.0	179.4749743938446	0.10001826286315918
32	159.0154514312744	fix_pre	0		120	30.0	2.5	/experiments/Knapen_AOT/AOT_stimuli/rescaled_final/1907_fw.mp4	0.0	179.57499265670776	1.0085127353668213
32	159.1990430355072	pulse	0	t		30.0	2.5	/experiments/Knapen_AOT/AOT_stimuli/rescaled_final/1907_fw.mp4	0.0	179.75858426094055	
32	160.02396416664124	movie	1		290	30.0	2.5	/experiments/Knapen_AOT/AOT_stimuli/rescaled_final/1907_fw.mp4	0.0	180.58350539207458	2.4920027256011963
32	160.79925727844238	pulse	1	t		30.0	2.5	/experiments/Knapen_AOT/AOT_stimuli/rescaled_final/1907_fw.mp4	0.0	181.35879850387573	
32	162.39956617355347	pulse	1	t		30.0	2.5	/experiments/Knapen_AOT/AOT_stimuli/rescaled_final/1907_fw.mp4	0.0	182.95910739898682	
32	162.51596689224243	fix_post	2		12	30.0	2.5	/experiments/Knapen_AOT/AOT_stimuli/rescaled_final/1907_fw.mp4	0.0	183.07550811767578	0.10001206398010254
33	162.61597895622253	fix_pre	0		120	31.0	2.5	/experiments/Knapen_AOT/AOT_stimuli/rescaled_final/1809_fw.mp4	0.0	183.17552018165588	1.0085041522979736
33	163.6244831085205	movie	1		279	31.0	2.5	/experiments/Knapen_AOT/AOT_stimuli/rescaled_final/1809_fw.mp4	0.0	184.18402433395386	2.4920129776000977
33	163.99892330169678	pulse	1	t		31.0	2.5	/experiments/Knapen_AOT/AOT_stimuli/rescaled_final/1809_fw.mp4	0.0	184.55846452713013	
33	165.59996795654297	pulse	1	t		31.0	2.5	/experiments/Knapen_AOT/AOT_stimuli/rescaled_final/1809_fw.mp4	0.0	186.15950918197632	
33	166.1164960861206	fix_post	2		12	31.0	2.5	/experiments/Knapen_AOT/AOT_stimuli/rescaled_final/1809_fw.mp4	0.0	186.67603731155396	0.10004186630249023
34	166.2165379524231	fix_pre	0		119	32.0	2.5	/experiments/Knapen_AOT/AOT_stimuli/rescaled_final/0562_rv.mp4	0.0	186.77607917785645	1.000154972076416
34	167.20026993751526	pulse	0	t		32.0	2.5	/experiments/Knapen_AOT/AOT_stimuli/rescaled_final/0562_rv.mp4	0.0	187.7598111629486	
34	167.2166929244995	movie	1		276	32.0	2.5	/experiments/Knapen_AOT/AOT_stimuli/rescaled_final/0562_rv.mp4	0.0	187.77623414993286	2.5003762245178223
34	168.79877996444702	pulse	1	t		32.0	2.5	/experiments/Knapen_AOT/AOT_stimuli/rescaled_final/0562_rv.mp4	0.0	189.35832118988037	
34	169.71706914901733	fix_post	2		12	32.0	2.5	/experiments/Knapen_AOT/AOT_stimuli/rescaled_final/0562_rv.mp4	0.0	190.27661037445068	0.10005903244018555
35	169.81712818145752	fix_pre	0		120	33.0	2.5	blank	1.0	190.37666940689087	1.0001261234283447
35	170.4010727405548	pulse	0	t		33.0	2.5	blank	1.0	190.96061396598816	
35	170.81725430488586	movie	1		300	33.0	2.5	blank	1.0	191.3767955303192	2.50038743019104
35	172.00111508369446	pulse	1	t		33.0	2.5	blank	1.0	192.5606563091278	
35	173.3176417350769	fix_post	2		12	33.0	2.5	blank	1.0	193.87718296051025	0.0999763011932373
36	173.41761803627014	fix_pre	0		120	34.0	2.5	/experiments/Knapen_AOT/AOT_stimuli/rescaled_final/1127_fw.mp4	0.0	193.9771592617035	1.0085124969482422
36	173.60116267204285	pulse	0	t		34.0	2.5	/experiments/Knapen_AOT/AOT_stimuli/rescaled_final/1127_fw.mp4	0.0	194.1607038974762	
36	174.42613053321838	movie	1		282	34.0	2.5	/experiments/Knapen_AOT/AOT_stimuli/rescaled_final/1127_fw.mp4	0.0	194.98567175865173	2.492004156112671
36	175.19923734664917	pulse	1	t		34.0	2.5	/experiments/Knapen_AOT/AOT_stimuli/rescaled_final/1127_fw.mp4	0.0	195.75877857208252	
36	176.7994406223297	pulse	1	t		34.0	2.5	/experiments/Knapen_AOT/AOT_stimuli/rescaled_final/1127_fw.mp4	0.0	197.35898184776306	
36	176.91813468933105	fix_post	2		12	34.0	2.5	/experiments/Knapen_AOT/AOT_stimuli/rescaled_final/1127_fw.mp4	0.0	197.4776759147644	0.10002994537353516
37	177.0181646347046	fix_pre	0		120	35.0	2.5	/experiments/Knapen_AOT/AOT_stimuli/rescaled_final/1086_rv.mp4	0.0	197.57770586013794	1.008514642715454
37	178.02667927742004	movie	1		274	35.0	2.5	/experiments/Knapen_AOT/AOT_stimuli/rescaled_final/1086_rv.mp4	0.0	198.5862205028534	2.49200701713562
37	178.40003299713135	pulse	1	t		35.0	2.5	/experiments/Knapen_AOT/AOT_stimuli/rescaled_final/1086_rv.mp4	0.0	198.9595742225647	
37	180.00066661834717	pulse	1	t		35.0	2.5	/experiments/Knapen_AOT/AOT_stimuli/rescaled_final/1086_rv.mp4	0.0	200.56020784378052	
37	180.51868629455566	fix_post	2		12	35.0	2.5	/experiments/Knapen_AOT/AOT_stimuli/rescaled_final/1086_rv.mp4	0.0	201.078227519989	0.1000220775604248
38	180.6187083721161	fix_pre	0		119	36.0	2.5	/experiments/Knapen_AOT/AOT_stimuli/rescaled_final/0729_fw.mp4	0.0	201.17824959754944	1.000180959701538
38	181.60249710083008	pulse	0	t		36.0	2.5	/experiments/Knapen_AOT/AOT_stimuli/rescaled_final/0729_fw.mp4	0.0	202.16203832626343	
38	181.61888933181763	movie	1		278	36.0	2.5	/experiments/Knapen_AOT/AOT_stimuli/rescaled_final/0729_fw.mp4	0.0	202.17843055725098	2.5003721714019775
38	183.20180654525757	pulse	1	t		36.0	2.5	/experiments/Knapen_AOT/AOT_stimuli/rescaled_final/0729_fw.mp4	0.0	203.76134777069092	
38	184.1192615032196	fix_post	2		12	36.0	2.5	/experiments/Knapen_AOT/AOT_stimuli/rescaled_final/0729_fw.mp4	0.0	204.67880272865295	0.10018205642700195
39	184.2194435596466	fix_pre	0		120	37.0	2.5	/experiments/Knapen_AOT/AOT_stimuli/rescaled_final/0392_rv.mp4	0.0	204.77898478507996	1.0083022117614746
39	184.80301451683044	pulse	0	t		37.0	2.5	/experiments/Knapen_AOT/AOT_stimuli/rescaled_final/0392_rv.mp4	0.0	205.3625557422638	
39	185.22774577140808	movie	1		284	37.0	2.5	/experiments/Knapen_AOT/AOT_stimuli/rescaled_final/0392_rv.mp4	0.0	205.78728699684143	2.492014169692993
39	186.40140581130981	pulse	1	t		37.0	2.5	/experiments/Knapen_AOT/AOT_stimuli/rescaled_final/0392_rv.mp4	0.0	206.96094703674316	
39	187.71975994110107	fix_post	2		12	37.0	2.5	/experiments/Knapen_AOT/AOT_stimuli/rescaled_final/0392_rv.mp4	0.0	208.27930116653442	0.1000216007232666
40	187.81978154182434	fix_pre	0		120	38.0	2.5	/experiments/Knapen_AOT/AOT_stimuli/rescaled_final/2129_rv.mp4	0.0	208.3793227672577	1.0085291862487793
40	188.00336027145386	pulse	0	t		38.0	2.5	/experiments/Knapen_AOT/AOT_stimuli/rescaled_final/2129_rv.mp4	0.0	208.5629014968872	
40	188.82831072807312	movie	1		281	38.0	2.5	/experiments/Knapen_AOT/AOT_stimuli/rescaled_final/2129_rv.mp4	0.0	209.38785195350647	2.4920361042022705
40	189.60404658317566	pulse	1	t		38.0	2.5	/experiments/Knapen_AOT/AOT_stimuli/rescaled_final/2129_rv.mp4	0.0	210.163587808609	
40	191.2021222114563	pulse	1	t		38.0	2.5	/experiments/Knapen_AOT/AOT_stimuli/rescaled_final/2129_rv.mp4	0.0	211.76166343688965	
40	191.3203468322754	fix_post	2		12	38.0	2.5	/experiments/Knapen_AOT/AOT_stimuli/rescaled_final/2129_rv.mp4	0.0	211.87988805770874	0.10001659393310547
41	191.4203634262085	fix_pre	0		120	39.0	2.5	/experiments/Knapen_AOT/AOT_stimuli/rescaled_final/0548_fw.mp4	0.0	211.97990465164185	1.008497714996338
41	192.42886114120483	movie	1		278	39.0	2.5	/experiments/Knapen_AOT/AOT_stimuli/rescaled_final/0548_fw.mp4	0.0	212.98840236663818	2.491987705230713
41	192.8032636642456	pulse	1	t		39.0	2.5	/experiments/Knapen_AOT/AOT_stimuli/rescaled_final/0548_fw.mp4	0.0	213.36280488967896	
41	194.40241599082947	pulse	1	t		39.0	2.5	/experiments/Knapen_AOT/AOT_stimuli/rescaled_final/0548_fw.mp4	0.0	214.96195721626282	
41	194.92084884643555	fix_post	2		12	39.0	2.5	/experiments/Knapen_AOT/AOT_stimuli/rescaled_final/0548_fw.mp4	0.0	215.4803900718689	0.10009980201721191
42	195.02094864845276	fix_pre	0		119	40.0	2.5	/experiments/Knapen_AOT/AOT_stimuli/rescaled_final/1363_rv.mp4	0.0	215.5804898738861	1.0085933208465576
42	196.00461435317993	pulse	0	t		40.0	2.5	/experiments/Knapen_AOT/AOT_stimuli/rescaled_final/1363_rv.mp4	0.0	216.56415557861328	
42	196.02954196929932	movie	1		269	40.0	2.5	/experiments/Knapen_AOT/AOT_stimuli/rescaled_final/1363_rv.mp4	0.0	216.58908319473267	2.4918556213378906
42	197.60335540771484	pulse	1	t		40.0	2.5	/experiments/Knapen_AOT/AOT_stimuli/rescaled_final/1363_rv.mp4	0.0	218.1628966331482	
42	198.5213975906372	fix_post	2		12	40.0	2.5	/experiments/Knapen_AOT/AOT_stimuli/rescaled_final/1363_rv.mp4	0.0	219.08093881607056	0.10001444816589355
43	198.6214120388031	fix_pre	0		120	41.0	2.5	blank	1.0	219.18095326423645	1.000147819519043
43	199.2051808834076	pulse	0	t		41.0	2.5	blank	1.0	219.76472210884094	
43	199.62155985832214	movie	1		300	41.0	2.5	blank	1.0	220.1811010837555	2.5004186630249023
43	200.80540347099304	pulse	1	t		41.0	2.5	blank	1.0	221.3649446964264	
43	202.12197852134705	fix_post	2		12	41.0	2.5	blank	1.0	222.6815197467804	0.1000223159790039
44	202.22200083732605	fix_pre	0		120	42.0	2.5	/experiments/Knapen_AOT/AOT_stimuli/rescaled_final/1736_rv.mp4	0.0	222.7815420627594	1.0084874629974365
44	202.40550875663757	pulse	0	t		42.0	2.5	/experiments/Knapen_AOT/AOT_stimuli/rescaled_final/1736_rv.mp4	0.0	222.96504998207092	
44	203.2304883003235	movie	1		288	42.0	2.5	/experiments/Knapen_AOT/AOT_stimuli/rescaled_final/1736_rv.mp4	0.0	223.79002952575684	2.4920449256896973
44	204.00435662269592	pulse	1	t		42.0	2.5	/experiments/Knapen_AOT/AOT_stimuli/rescaled_final/1736_rv.mp4	0.0	224.56389784812927	
44	205.60531735420227	pulse	1	t		42.0	2.5	/experiments/Knapen_AOT/AOT_stimuli/rescaled_final/1736_rv.mp4	0.0	226.16485857963562	
44	205.72253322601318	fix_post	2		12	42.0	2.5	/experiments/Knapen_AOT/AOT_stimuli/rescaled_final/1736_rv.mp4	0.0	226.28207445144653	0.09997701644897461
45	205.82251024246216	fix_pre	0		120	43.0	2.5	/experiments/Knapen_AOT/AOT_stimuli/rescaled_final/1525_rv.mp4	0.0	226.3820514678955	1.008521318435669
45	206.83103156089783	movie	1		280	43.0	2.5	/experiments/Knapen_AOT/AOT_stimuli/rescaled_final/1525_rv.mp4	0.0	227.39057278633118	2.4920010566711426
45	207.20579075813293	pulse	1	t		43.0	2.5	/experiments/Knapen_AOT/AOT_stimuli/rescaled_final/1525_rv.mp4	0.0	227.76533198356628	
45	208.80458688735962	pulse	1	t		43.0	2.5	/experiments/Knapen_AOT/AOT_stimuli/rescaled_final/1525_rv.mp4	0.0	229.36412811279297	
45	209.32303261756897	fix_post	2		12	43.0	2.5	/experiments/Knapen_AOT/AOT_stimuli/rescaled_final/1525_rv.mp4	0.0	229.88257384300232	0.10004281997680664
46	209.42307543754578	fix_pre	0		118	44.0	2.5	/experiments/Knapen_AOT/AOT_stimuli/rescaled_final/1024_fw.mp4	0.0	229.98261666297913	0.9918212890625
46	210.39883756637573	pulse	0	t		44.0	2.5	/experiments/Knapen_AOT/AOT_stimuli/rescaled_final/1024_fw.mp4	0.0	230.95837879180908	
46	210.41489672660828	movie	1		286	44.0	2.5	/experiments/Knapen_AOT/AOT_stimuli/rescaled_final/1024_fw.mp4	0.0	230.97443795204163	2.5003511905670166
46	212.00733757019043	pulse	1	t		44.0	2.5	/experiments/Knapen_AOT/AOT_stimuli/rescaled_final/1024_fw.mp4	0.0	232.56687879562378	
46	212.9152479171753	fix_post	2		12	44.0	2.5	/experiments/Knapen_AOT/AOT_stimuli/rescaled_final/1024_fw.mp4	0.0	233.47478914260864	0.10001420974731445
47	213.0152621269226	fix_pre	0		120	45.0	2.5	/experiments/Knapen_AOT/AOT_stimuli/rescaled_final/0461_rv.mp4	0.0	233.57480335235596	1.00850510597229
47	213.59903502464294	pulse	0	t		45.0	2.5	/experiments/Knapen_AOT/AOT_stimuli/rescaled_final/0461_rv.mp4	0.0	234.1585762500763	
47	214.0237672328949	movie	1		258	45.0	2.5	/experiments/Knapen_AOT/AOT_stimuli/rescaled_final/0461_rv.mp4	0.0	234.58330845832825	2.492030620574951
47	215.19922423362732	pulse	1	t		45.0	2.5	/experiments/Knapen_AOT/AOT_stimuli/rescaled_final/0461_rv.mp4	0.0	235.75876545906067	
47	216.51579785346985	fix_post	2		12	45.0	2.5	/experiments/Knapen_AOT/AOT_stimuli/rescaled_final/0461_rv.mp4	0.0	237.0753390789032	0.10000967979431152
48	216.61580753326416	fix_pre	0		120	46.0	2.5	/experiments/Knapen_AOT/AOT_stimuli/rescaled_final/0977_rv.mp4	0.0	237.1753487586975	1.0085198879241943
48	216.79937624931335	pulse	0	t		46.0	2.5	/experiments/Knapen_AOT/AOT_stimuli/rescaled_final/0977_rv.mp4	0.0	237.3589174747467	
48	217.62432742118835	movie	1		255	46.0	2.5	/experiments/Knapen_AOT/AOT_stimuli/rescaled_final/0977_rv.mp4	0.0	238.1838686466217	2.492001533508301
48	218.53694009780884	pulse	1	t		46.0	2.5	/experiments/Knapen_AOT/AOT_stimuli/rescaled_final/0977_rv.mp4	0.0	239.0964813232422	
48	219.99981784820557	pulse	1	t		46.0	2.5	/experiments/Knapen_AOT/AOT_stimuli/rescaled_final/0977_rv.mp4	0.0	240.55935907363892	
48	220.11632895469666	fix_post	2		12	46.0	2.5	/experiments/Knapen_AOT/AOT_stimuli/rescaled_final/0977_rv.mp4	0.0	240.67587018013	0.10000348091125488
49	220.2163324356079	fix_pre	0		120	47.0	2.5	/experiments/Knapen_AOT/AOT_stimuli/rescaled_final/1324_fw.mp4	0.0	240.77587366104126	1.0085420608520508
49	221.22487449645996	movie	1		270	47.0	2.5	/experiments/Knapen_AOT/AOT_stimuli/rescaled_final/1324_fw.mp4	0.0	241.7844157218933	2.492000102996826
49	221.59864950180054	pulse	1	t		47.0	2.5	/experiments/Knapen_AOT/AOT_stimuli/rescaled_final/1324_fw.mp4	0.0	242.1581907272339	
49	223.2002809047699	pulse	1	t		47.0	2.5	/experiments/Knapen_AOT/AOT_stimuli/rescaled_final/1324_fw.mp4	0.0	243.75982213020325	
49	223.7168745994568	fix_post	2		12	47.0	2.5	/experiments/Knapen_AOT/AOT_stimuli/rescaled_final/1324_fw.mp4	0.0	244.27641582489014	0.10003662109375
50	223.81691122055054	fix_pre	0		119	48.0	2.5	blank	1.0	244.3764524459839	0.9917500019073486
50	224.8006567955017	pulse	0	t		48.0	2.5	blank	1.0	245.36019802093506	
50	224.80866122245789	movie	1		301	48.0	2.5	blank	1.0	245.36820244789124	2.508735418319702
50	226.40090918540955	pulse	1	t		48.0	2.5	blank	1.0	246.9604504108429	
50	227.3173966407776	fix_post	2		12	48.0	2.5	blank	1.0	247.87693786621094	0.10004138946533203
51	227.41743803024292	fix_pre	0		120	49.0	2.5	/experiments/Knapen_AOT/AOT_stimuli/rescaled_final/1366_fw.mp4	0.0	247.97697925567627	1.0085670948028564
51	228.0014500617981	pulse	0	t		49.0	2.5	/experiments/Knapen_AOT/AOT_stimuli/rescaled_final/1366_fw.mp4	0.0	248.56099128723145	
51	228.42600512504578	movie	1		286	49.0	2.5	/experiments/Knapen_AOT/AOT_stimuli/rescaled_final/1366_fw.mp4	0.0	248.98554635047913	2.491976737976074
51	229.59950804710388	pulse	1	t		49.0	2.5	/experiments/Knapen_AOT/AOT_stimuli/rescaled_final/1366_fw.mp4	0.0	250.15904927253723	
51	230.91798186302185	fix_post	2		12	49.0	2.5	/experiments/Knapen_AOT/AOT_stimuli/rescaled_final/1366_fw.mp4	0.0	251.4775230884552	0.10003304481506348
52	231.0180149078369	fix_pre	0		120	50.0	2.5	/experiments/Knapen_AOT/AOT_stimuli/rescaled_final/0809_fw.mp4	0.0	251.57755613327026	1.0084583759307861
52	231.20157098770142	pulse	0	t		50.0	2.5	/experiments/Knapen_AOT/AOT_stimuli/rescaled_final/0809_fw.mp4	0.0	251.76111221313477	
52	232.0264732837677	movie	1		278	50.0	2.5	/experiments/Knapen_AOT/AOT_stimuli/rescaled_final/0809_fw.mp4	0.0	252.58601450920105	2.492013454437256
52	232.79986953735352	pulse	1	t		50.0	2.5	/experiments/Knapen_AOT/AOT_stimuli/rescaled_final/0809_fw.mp4	0.0	253.35941076278687	
52	234.40021347999573	pulse	1	t		50.0	2.5	/experiments/Knapen_AOT/AOT_stimuli/rescaled_final/0809_fw.mp4	0.0	254.95975470542908	
52	234.51848673820496	fix_post	2		12	50.0	2.5	/experiments/Knapen_AOT/AOT_stimuli/rescaled_final/0809_fw.mp4	0.0	255.0780279636383	0.10004258155822754
53	234.61852931976318	fix_pre	0		120	51.0	2.5	/experiments/Knapen_AOT/AOT_stimuli/rescaled_final/0941_fw.mp4	0.0	255.17807054519653	1.0084705352783203
53	235.6269998550415	movie	1		280	51.0	2.5	/experiments/Knapen_AOT/AOT_stimuli/rescaled_final/0941_fw.mp4	0.0	256.18654108047485	2.4920735359191895
53	236.00104355812073	pulse	1	t		51.0	2.5	/experiments/Knapen_AOT/AOT_stimuli/rescaled_final/0941_fw.mp4	0.0	256.5605847835541	
53	237.60137939453125	pulse	1	t		51.0	2.5	/experiments/Knapen_AOT/AOT_stimuli/rescaled_final/0941_fw.mp4	0.0	258.1609206199646	
53	238.1190733909607	fix_post	2		12	51.0	2.5	/experiments/Knapen_AOT/AOT_stimuli/rescaled_final/0941_fw.mp4	0.0	258.67861461639404	0.09998822212219238
54	238.21906161308289	fix_pre	0		119	52.0	2.5	/experiments/Knapen_AOT/AOT_stimuli/rescaled_final/2140_rv.mp4	0.0	258.77860283851624	1.0002098083496094
54	239.20283579826355	pulse	0	t		52.0	2.5	/experiments/Knapen_AOT/AOT_stimuli/rescaled_final/2140_rv.mp4	0.0	259.7623770236969	
54	239.2192714214325	movie	1		276	52.0	2.5	/experiments/Knapen_AOT/AOT_stimuli/rescaled_final/2140_rv.mp4	0.0	259.77881264686584	2.508633852005005
54	240.80297899246216	pulse	1	t		52.0	2.5	/experiments/Knapen_AOT/AOT_stimuli/rescaled_final/2140_rv.mp4	0.0	261.3625202178955	
54	241.7279052734375	fix_post	2		11	52.0	2.5	/experiments/Knapen_AOT/AOT_stimuli/rescaled_final/2140_rv.mp4	0.0	262.28744649887085	0.09170722961425781
55	241.81961250305176	fix_pre	0		120	53.0	2.5	/experiments/Knapen_AOT/AOT_stimuli/rescaled_final/1706_rv.mp4	0.0	262.3791537284851	1.0084621906280518
55	242.40334820747375	pulse	0	t		53.0	2.5	/experiments/Knapen_AOT/AOT_stimuli/rescaled_final/1706_rv.mp4	0.0	262.9628894329071	
55	242.8280746936798	movie	1		268	53.0	2.5	/experiments/Knapen_AOT/AOT_stimuli/rescaled_final/1706_rv.mp4	0.0	263.38761591911316	2.4920592308044434
55	244.002765417099	pulse	1	t		53.0	2.5	/experiments/Knapen_AOT/AOT_stimuli/rescaled_final/1706_rv.mp4	0.0	264.56230664253235	
55	245.32013392448425	fix_post	2		12	53.0	2.5	/experiments/Knapen_AOT/AOT_stimuli/rescaled_final/1706_rv.mp4	0.0	265.8796751499176	0.1000065803527832
56	245.42014050483704	fix_pre	0		120	54.0	2.5	/experiments/Knapen_AOT/AOT_stimuli/rescaled_final/0793_rv.mp4	0.0	265.9796817302704	1.008497953414917
56	245.60375952720642	pulse	0	t		54.0	2.5	/experiments/Knapen_AOT/AOT_stimuli/rescaled_final/0793_rv.mp4	0.0	266.16330075263977	
56	246.42863845825195	movie	1		282	54.0	2.5	/experiments/Knapen_AOT/AOT_stimuli/rescaled_final/0793_rv.mp4	0.0	266.9881796836853	2.4920194149017334
56	247.20209550857544	pulse	1	t		54.0	2.5	/experiments/Knapen_AOT/AOT_stimuli/rescaled_final/0793_rv.mp4	0.0	267.7616367340088	
56	248.8024673461914	pulse	1	t		54.0	2.5	/experiments/Knapen_AOT/AOT_stimuli/rescaled_final/0793_rv.mp4	0.0	269.36200857162476	
56	248.9206578731537	fix_post	2		12	54.0	2.5	/experiments/Knapen_AOT/AOT_stimuli/rescaled_final/0793_rv.mp4	0.0	269.48019909858704	0.10003185272216797
57	249.02068972587585	fix_pre	0		120	55.0	2.5	blank	1.0	269.5802309513092	1.0001399517059326
57	250.0208296775818	movie	1		300	55.0	2.5	blank	1.0	270.58037090301514	2.5003879070281982
57	250.40445232391357	pulse	1	t		55.0	2.5	blank	1.0	270.9639935493469	
57	252.00468969345093	pulse	1	t		55.0	2.5	blank	1.0	272.5642309188843	
57	252.52121758460999	fix_post	2		12	55.0	2.5	blank	1.0	273.08075881004333	0.10001349449157715
58	252.62123107910156	fix_pre	0		119	56.0	2.5	/experiments/Knapen_AOT/AOT_stimuli/rescaled_final/1101_fw.mp4	0.0	273.1807723045349	1.000227928161621
58	253.60490107536316	pulse	0	t		56.0	2.5	/experiments/Knapen_AOT/AOT_stimuli/rescaled_final/1101_fw.mp4	0.0	274.1644423007965	
58	253.62145900726318	movie	1		279	56.0	2.5	/experiments/Knapen_AOT/AOT_stimuli/rescaled_final/1101_fw.mp4	0.0	274.18100023269653	2.50028133392334
58	255.20439887046814	pulse	1	t		56.0	2.5	/experiments/Knapen_AOT/AOT_stimuli/rescaled_final/1101_fw.mp4	0.0	275.7639400959015	
58	256.1217403411865	fix_post	2		12	56.0	2.5	/experiments/Knapen_AOT/AOT_stimuli/rescaled_final/1101_fw.mp4	0.0	276.6812815666199	0.10001349449157715
59	256.2217538356781	fix_pre	0		120	57.0	2.5	/experiments/Knapen_AOT/AOT_stimuli/rescaled_final/1927_rv.mp4	0.0	276.78129506111145	1.008579969406128
59	256.805415391922	pulse	0	t		57.0	2.5	/experiments/Knapen_AOT/AOT_stimuli/rescaled_final/1927_rv.mp4	0.0	277.36495661735535	
59	257.23033380508423	movie	1		280	57.0	2.5	/experiments/Knapen_AOT/AOT_stimuli/rescaled_final/1927_rv.mp4	0.0	277.7898750305176	2.491952419281006
59	258.4049472808838	pulse	1	t		57.0	2.5	/experiments/Knapen_AOT/AOT_stimuli/rescaled_final/1927_rv.mp4	0.0	278.96448850631714	
59	259.72228622436523	fix_post	2		12	57.0	2.5	/experiments/Knapen_AOT/AOT_stimuli/rescaled_final/1927_rv.mp4	0.0	280.2818274497986	0.1001424789428711
60	259.8224287033081	fix_pre	0		120	58.0	2.5	/experiments/Knapen_AOT/AOT_stimuli/rescaled_final/0120_fw.mp4	0.0	280.38196992874146	1.0083541870117188
60	260.00601029396057	pulse	0	t		58.0	2.5	/experiments/Knapen_AOT/AOT_stimuli/rescaled_final/0120_fw.mp4	0.0	280.5655515193939	
60	260.8307828903198	movie	1		277	58.0	2.5	/experiments/Knapen_AOT/AOT_stimuli/rescaled_final/0120_fw.mp4	0.0	281.3903241157532	2.492070436477661
60	261.6039490699768	pulse	1	t		58.0	2.5	/experiments/Knapen_AOT/AOT_stimuli/rescaled_final/0120_fw.mp4	0.0	282.16349029541016	
60	263.2045097351074	pulse	1	t		58.0	2.5	/experiments/Knapen_AOT/AOT_stimuli/rescaled_final/0120_fw.mp4	0.0	283.76405096054077	
60	263.3228533267975	fix_post	2		12	58.0	2.5	/experiments/Knapen_AOT/AOT_stimuli/rescaled_final/0120_fw.mp4	0.0	283.88239455223083	0.09999680519104004
61	263.4228501319885	fix_pre	0		120	59.0	2.5	/experiments/Knapen_AOT/AOT_stimuli/rescaled_final/1957_fw.mp4	0.0	283.9823913574219	1.008528470993042
61	264.43137860298157	movie	1		274	59.0	2.5	/experiments/Knapen_AOT/AOT_stimuli/rescaled_final/1957_fw.mp4	0.0	284.9909198284149	2.4920122623443604
61	264.80699014663696	pulse	1	t		59.0	2.5	/experiments/Knapen_AOT/AOT_stimuli/rescaled_final/1957_fw.mp4	0.0	285.3665313720703	
61	266.4064733982086	pulse	1	t		59.0	2.5	/experiments/Knapen_AOT/AOT_stimuli/rescaled_final/1957_fw.mp4	0.0	286.96601462364197	
61	266.9233908653259	fix_post	2		12	59.0	2.5	/experiments/Knapen_AOT/AOT_stimuli/rescaled_final/1957_fw.mp4	0.0	287.4829320907593	0.10005474090576172
62	267.0234456062317	fix_pre	0		119	60.0	2.5	/experiments/Knapen_AOT/AOT_stimuli/rescaled_final/1675_fw.mp4	0.0	287.58298683166504	1.0084953308105469
62	267.9994053840637	pulse	0	t		60.0	2.5	/experiments/Knapen_AOT/AOT_stimuli/rescaled_final/1675_fw.mp4	0.0	288.55894660949707	
62	268.03194093704224	movie	1		283	60.0	2.5	/experiments/Knapen_AOT/AOT_stimuli/rescaled_final/1675_fw.mp4	0.0	288.5914821624756	2.49204158782959
62	269.5992946624756	pulse	1	t		60.0	2.5	/experiments/Knapen_AOT/AOT_stimuli/rescaled_final/1675_fw.mp4	0.0	290.15883588790894	
62	270.5239825248718	fix_post	2		12	60.0	2.5	/experiments/Knapen_AOT/AOT_stimuli/rescaled_final/1675_fw.mp4	0.0	291.0835237503052	0.09995532035827637
63	270.6239378452301	fix_pre	0		120	61.0	2.5	/experiments/Knapen_AOT/AOT_stimuli/rescaled_final/0336_rv.mp4	0.0	291.18347907066345	1.008509635925293
63	271.1992344856262	pulse	0	t		61.0	2.5	/experiments/Knapen_AOT/AOT_stimuli/rescaled_final/0336_rv.mp4	0.0	291.75877571105957	
63	271.6324474811554	movie	1		281	61.0	2.5	/experiments/Knapen_AOT/AOT_stimuli/rescaled_final/0336_rv.mp4	0.0	292.19198870658875	2.4920156002044678
63	272.79957389831543	pulse	1	t		61.0	2.5	/experiments/Knapen_AOT/AOT_stimuli/rescaled_final/0336_rv.mp4	0.0	293.3591151237488	
63	274.12446308135986	fix_post	2		12	61.0	2.5	/experiments/Knapen_AOT/AOT_stimuli/rescaled_final/0336_rv.mp4	0.0	294.6840043067932	0.10001039505004883
64	274.2244734764099	fix_pre	0		120	62.0	2.5	blank	1.0	294.78401470184326	1.0001559257507324
64	274.400043964386	pulse	0	t		62.0	2.5	blank	1.0	294.95958518981934	
64	275.22462940216064	movie	1		300	62.0	2.5	blank	1.0	295.784170627594	2.5003750324249268
64	275.99999380111694	pulse	1	t		62.0	2.5	blank	1.0	296.5595350265503	
64	277.6002526283264	pulse	1	t		62.0	2.5	blank	1.0	298.15979385375977	
64	277.72500443458557	fix_post	2		12	62.0	2.5	blank	1.0	298.2845456600189	0.10001373291015625
65	277.8250181674957	fix_pre	0		120	63.0	2.5	/experiments/Knapen_AOT/AOT_stimuli/rescaled_final/0426_rv.mp4	0.0	298.3845593929291	1.008491039276123
65	278.83350920677185	movie	1		280	63.0	2.5	/experiments/Knapen_AOT/AOT_stimuli/rescaled_final/0426_rv.mp4	0.0	299.3930504322052	2.492032051086426
65	279.19914054870605	pulse	1	t		63.0	2.5	/experiments/Knapen_AOT/AOT_stimuli/rescaled_final/0426_rv.mp4	0.0	299.7586817741394	
65	280.79919266700745	pulse	1	t		63.0	2.5	/experiments/Knapen_AOT/AOT_stimuli/rescaled_final/0426_rv.mp4	0.0	301.3587338924408	
65	281.3255412578583	fix_post	2		12	63.0	2.5	/experiments/Knapen_AOT/AOT_stimuli/rescaled_final/0426_rv.mp4	0.0	301.8850824832916	0.10003471374511719
66	281.4255759716034	fix_pre	0		118	64.0	2.5	/experiments/Knapen_AOT/AOT_stimuli/rescaled_final/0766_fw.mp4	0.0	301.98511719703674	0.9918441772460938
66	282.4010639190674	pulse	0	t		64.0	2.5	/experiments/Knapen_AOT/AOT_stimuli/rescaled_final/0766_fw.mp4	0.0	302.96060514450073	
66	282.4174201488495	movie	1		277	64.0	2.5	/experiments/Knapen_AOT/AOT_stimuli/rescaled_final/0766_fw.mp4	0.0	302.97696137428284	2.5003952980041504
66	284.00049924850464	pulse	1	t		64.0	2.5	/experiments/Knapen_AOT/AOT_stimuli/rescaled_final/0766_fw.mp4	0.0	304.560040473938	
66	284.91781544685364	fix_post	2		12	64.0	2.5	/experiments/Knapen_AOT/AOT_stimuli/rescaled_final/0766_fw.mp4	0.0	305.477356672287	0.09998607635498047
67	285.0178015232086	fix_pre	0		120	65.0	2.5	/experiments/Knapen_AOT/AOT_stimuli/rescaled_final/1809_fw.mp4	0.0	305.57734274864197	1.008455753326416
67	285.6014986038208	pulse	0	t		65.0	2.5	/experiments/Knapen_AOT/AOT_stimuli/rescaled_final/1809_fw.mp4	0.0	306.16103982925415	
67	286.02625727653503	movie	1		262	65.0	2.5	/experiments/Knapen_AOT/AOT_stimuli/rescaled_final/1809_fw.mp4	0.0	306.5857985019684	2.4920778274536133
67	287.19983768463135	pulse	1	t		65.0	2.5	/experiments/Knapen_AOT/AOT_stimuli/rescaled_final/1809_fw.mp4	0.0	307.7593789100647	
67	288.51833510398865	fix_post	2		12	65.0	2.5	/experiments/Knapen_AOT/AOT_stimuli/rescaled_final/1809_fw.mp4	0.0	309.077876329422	0.10001921653747559
68	288.6183543205261	fix_pre	0		120	66.0	2.5	/experiments/Knapen_AOT/AOT_stimuli/rescaled_final/1987_fw.mp4	0.0	309.1778955459595	1.0084669589996338
68	288.8019018173218	pulse	0	t		66.0	2.5	/experiments/Knapen_AOT/AOT_stimuli/rescaled_final/1987_fw.mp4	0.0	309.3614430427551	
68	289.62682127952576	movie	1		277	66.0	2.5	/experiments/Knapen_AOT/AOT_stimuli/rescaled_final/1987_fw.mp4	0.0	310.1863625049591	2.4920239448547363
68	290.3998942375183	pulse	1	t		66.0	2.5	/experiments/Knapen_AOT/AOT_stimuli/rescaled_final/1987_fw.mp4	0.0	310.95943546295166	
68	292.00032472610474	pulse	1	t		66.0	2.5	/experiments/Knapen_AOT/AOT_stimuli/rescaled_final/1987_fw.mp4	0.0	312.5598659515381	
68	292.1188452243805	fix_post	2		12	66.0	2.5	/experiments/Knapen_AOT/AOT_stimuli/rescaled_final/1987_fw.mp4	0.0	312.67838644981384	0.1000819206237793
69	292.2189271450043	fix_pre	0		120	67.0	2.5	/experiments/Knapen_AOT/AOT_stimuli/rescaled_final/2174_fw.mp4	0.0	312.7784683704376	1.008531093597412
69	293.2274582386017	movie	1		281	67.0	2.5	/experiments/Knapen_AOT/AOT_stimuli/rescaled_final/2174_fw.mp4	0.0	313.78699946403503	2.4919843673706055
69	293.6015679836273	pulse	1	t		67.0	2.5	/experiments/Knapen_AOT/AOT_stimuli/rescaled_final/2174_fw.mp4	0.0	314.16110920906067	
69	295.20126152038574	pulse	1	t		67.0	2.5	/experiments/Knapen_AOT/AOT_stimuli/rescaled_final/2174_fw.mp4	0.0	315.7608027458191	
69	295.7194426059723	fix_post	2		12	67.0	2.5	/experiments/Knapen_AOT/AOT_stimuli/rescaled_final/2174_fw.mp4	0.0	316.27898383140564	0.09994077682495117
70	295.81938338279724	fix_pre	0		119	68.0	2.5	/experiments/Knapen_AOT/AOT_stimuli/rescaled_final/0263_rv.mp4	0.0	316.3789246082306	1.0001943111419678
70	296.80309009552	pulse	0	t		68.0	2.5	/experiments/Knapen_AOT/AOT_stimuli/rescaled_final/0263_rv.mp4	0.0	317.36263132095337	
70	296.8195776939392	movie	1		272	68.0	2.5	/experiments/Knapen_AOT/AOT_stimuli/rescaled_final/0263_rv.mp4	0.0	317.37911891937256	2.500401258468628
70	298.40228724479675	pulse	1	t		68.0	2.5	/experiments/Knapen_AOT/AOT_stimuli/rescaled_final/0263_rv.mp4	0.0	318.9618284702301	
70	299.31997895240784	fix_post	2		12	68.0	2.5	/experiments/Knapen_AOT/AOT_stimuli/rescaled_final/0263_rv.mp4	0.0	319.8795201778412	0.09999990463256836
71	299.4199788570404	fix_pre	0		120	69.0	2.5	/experiments/Knapen_AOT/AOT_stimuli/rescaled_final/1927_fw.mp4	0.0	319.97952008247375	1.0084710121154785
71	300.0034818649292	pulse	0	t		69.0	2.5	/experiments/Knapen_AOT/AOT_stimuli/rescaled_final/1927_fw.mp4	0.0	320.56302309036255	
71	300.4284498691559	movie	1		277	69.0	2.5	/experiments/Knapen_AOT/AOT_stimuli/rescaled_final/1927_fw.mp4	0.0	320.98799109458923	2.4920032024383545
71	301.60222244262695	pulse	1	t		69.0	2.5	/experiments/Knapen_AOT/AOT_stimuli/rescaled_final/1927_fw.mp4	0.0	322.1617636680603	
71	302.92045307159424	fix_post	2		12	69.0	2.5	/experiments/Knapen_AOT/AOT_stimuli/rescaled_final/1927_fw.mp4	0.0	323.4799942970276	0.10003542900085449
72	303.0204885005951	fix_pre	0		120	70.0	2.5	blank	1.0	323.58002972602844	1.0001235008239746
72	303.2041473388672	pulse	0	t		70.0	2.5	blank	1.0	323.76368856430054	
72	304.02061200141907	movie	1		300	70.0	2.5	blank	1.0	324.5801532268524	2.500447988510132
72	304.8042664527893	pulse	1	t		70.0	2.5	blank	1.0	325.36380767822266	
72	306.4045670032501	pulse	1	t		70.0	2.5	blank	1.0	326.9641082286835	
72	306.5210599899292	fix_post	2		12	70.0	2.5	blank	1.0	327.08060121536255	0.09996747970581055
73	306.621027469635	fix_pre	0		120	71.0	2.5	/experiments/Knapen_AOT/AOT_stimuli/rescaled_final/1126_rv.mp4	0.0	327.18056869506836	1.0084576606750488
73	307.62948513031006	movie	1		278	71.0	2.5	/experiments/Knapen_AOT/AOT_stimuli/rescaled_final/1126_rv.mp4	0.0	328.1890263557434	2.4920785427093506
73	308.00537610054016	pulse	1	t		71.0	2.5	/experiments/Knapen_AOT/AOT_stimuli/rescaled_final/1126_rv.mp4	0.0	328.5649173259735	
73	309.6033797264099	pulse	1	t		71.0	2.5	/experiments/Knapen_AOT/AOT_stimuli/rescaled_final/1126_rv.mp4	0.0	330.16292095184326	
73	310.1215636730194	fix_post	2		12	71.0	2.5	/experiments/Knapen_AOT/AOT_stimuli/rescaled_final/1126_rv.mp4	0.0	330.68110489845276	0.1001126766204834
74	310.2216763496399	fix_pre	0		119	72.0	2.5	/experiments/Knapen_AOT/AOT_stimuli/rescaled_final/1418_rv.mp4	0.0	330.78121757507324	1.0001182556152344
74	311.205237865448	pulse	0	t		72.0	2.5	/experiments/Knapen_AOT/AOT_stimuli/rescaled_final/1418_rv.mp4	0.0	331.76477909088135	
74	311.2217946052551	movie	1		294	72.0	2.5	/experiments/Knapen_AOT/AOT_stimuli/rescaled_final/1418_rv.mp4	0.0	331.7813358306885	2.500354528427124
74	312.80402731895447	pulse	1	t		72.0	2.5	/experiments/Knapen_AOT/AOT_stimuli/rescaled_final/1418_rv.mp4	0.0	333.3635685443878	
74	313.72214913368225	fix_post	2		12	72.0	2.5	/experiments/Knapen_AOT/AOT_stimuli/rescaled_final/1418_rv.mp4	0.0	334.2816903591156	0.10011458396911621
75	313.82226371765137	fix_pre	0		120	73.0	2.5	/experiments/Knapen_AOT/AOT_stimuli/rescaled_final/0819_fw.mp4	0.0	334.3818049430847	1.0083696842193604
75	314.40583181381226	pulse	0	t		73.0	2.5	/experiments/Knapen_AOT/AOT_stimuli/rescaled_final/0819_fw.mp4	0.0	334.9653730392456	
75	314.8306334018707	movie	1		276	73.0	2.5	/experiments/Knapen_AOT/AOT_stimuli/rescaled_final/0819_fw.mp4	0.0	335.3901746273041	2.4920339584350586
75	316.0041744709015	pulse	1	t		73.0	2.5	/experiments/Knapen_AOT/AOT_stimuli/rescaled_final/0819_fw.mp4	0.0	336.56371569633484	
75	317.3226673603058	fix_post	2		12	73.0	2.5	/experiments/Knapen_AOT/AOT_stimuli/rescaled_final/0819_fw.mp4	0.0	337.88220858573914	0.09997034072875977
76	317.42263770103455	fix_pre	0		120	74.0	2.5	/experiments/Knapen_AOT/AOT_stimuli/rescaled_final/1083_fw.mp4	0.0	337.9821789264679	1.008486270904541
76	317.599894285202	pulse	0	t		74.0	2.5	/experiments/Knapen_AOT/AOT_stimuli/rescaled_final/1083_fw.mp4	0.0	338.1594355106354	
76	318.4311239719391	movie	1		277	74.0	2.5	/experiments/Knapen_AOT/AOT_stimuli/rescaled_final/1083_fw.mp4	0.0	338.99066519737244	2.492058753967285
76	319.20474314689636	pulse	1	t		74.0	2.5	/experiments/Knapen_AOT/AOT_stimuli/rescaled_final/1083_fw.mp4	0.0	339.7642843723297	
76	320.79880928993225	pulse	1	t		74.0	2.5	/experiments/Knapen_AOT/AOT_stimuli/rescaled_final/1083_fw.mp4	0.0	341.3583505153656	
76	320.9231827259064	fix_post	2		12	74.0	2.5	/experiments/Knapen_AOT/AOT_stimuli/rescaled_final/1083_fw.mp4	0.0	341.4827239513397	0.1000361442565918
77	321.02321887016296	fix_pre	0		120	75.0	2.5	/experiments/Knapen_AOT/AOT_stimuli/rescaled_final/1141_fw.mp4	0.0	341.5827600955963	1.0084402561187744
77	322.03165912628174	movie	1		264	75.0	2.5	/experiments/Knapen_AOT/AOT_stimuli/rescaled_final/1141_fw.mp4	0.0	342.5912003517151	2.492046594619751
77	322.3988494873047	pulse	1	t		75.0	2.5	/experiments/Knapen_AOT/AOT_stimuli/rescaled_final/1141_fw.mp4	0.0	342.95839071273804	
77	323.99899983406067	pulse	1	t		75.0	2.5	/experiments/Knapen_AOT/AOT_stimuli/rescaled_final/1141_fw.mp4	0.0	344.558541059494	
77	324.5237057209015	fix_post	2		12	75.0	2.5	/experiments/Knapen_AOT/AOT_stimuli/rescaled_final/1141_fw.mp4	0.0	345.08324694633484	0.10003161430358887
78	324.6237373352051	fix_pre	0		118	76.0	2.5	blank	1.0	345.1832785606384	0.9835093021392822
78	325.59941005706787	pulse	0	t		76.0	2.5	blank	1.0	346.1589512825012	
78	325.60724663734436	movie	1		301	76.0	2.5	blank	1.0	346.1667878627777	2.508662462234497
78	327.1994128227234	pulse	1	t		76.0	2.5	blank	1.0	347.75895404815674	
78	328.11590909957886	fix_post	2		12	76.0	2.5	blank	1.0	348.6754503250122	0.10003542900085449
79	328.2159445285797	fix_pre	0		120	77.0	2.5	/experiments/Knapen_AOT/AOT_stimuli/rescaled_final/0870_fw.mp4	0.0	348.77548575401306	1.008493185043335
79	328.7995762825012	pulse	0	t		77.0	2.5	/experiments/Knapen_AOT/AOT_stimuli/rescaled_final/0870_fw.mp4	0.0	349.35911750793457	
79	329.22443771362305	movie	1		285	77.0	2.5	/experiments/Knapen_AOT/AOT_stimuli/rescaled_final/0870_fw.mp4	0.0	349.7839789390564	2.492020606994629
79	330.3997874259949	pulse	1	t		77.0	2.5	/experiments/Knapen_AOT/AOT_stimuli/rescaled_final/0870_fw.mp4	0.0	350.9593286514282	
79	331.7164583206177	fix_post	2		12	77.0	2.5	/experiments/Knapen_AOT/AOT_stimuli/rescaled_final/0870_fw.mp4	0.0	352.275999546051	0.10001802444458008
80	331.81647634506226	fix_pre	0		120	78.0	2.5	/experiments/Knapen_AOT/AOT_stimuli/rescaled_final/1478_rv.mp4	0.0	352.3760175704956	1.0084888935089111
80	332.00004172325134	pulse	0	t		78.0	2.5	/experiments/Knapen_AOT/AOT_stimuli/rescaled_final/1478_rv.mp4	0.0	352.5595829486847	
80	332.82496523857117	movie	1		271	78.0	2.5	/experiments/Knapen_AOT/AOT_stimuli/rescaled_final/1478_rv.mp4	0.0	353.3845064640045	2.492072582244873
80	333.6003043651581	pulse	1	t		78.0	2.5	/experiments/Knapen_AOT/AOT_stimuli/rescaled_final/1478_rv.mp4	0.0	354.15984559059143	
80	335.19871044158936	pulse	1	t		78.0	2.5	/experiments/Knapen_AOT/AOT_stimuli/rescaled_final/1478_rv.mp4	0.0	355.7582516670227	
80	335.31703782081604	fix_post	2		12	78.0	2.5	/experiments/Knapen_AOT/AOT_stimuli/rescaled_final/1478_rv.mp4	0.0	355.8765790462494	0.0999755859375
81	335.41701340675354	fix_pre	0		120	79.0	2.5	/experiments/Knapen_AOT/AOT_stimuli/rescaled_final/0392_rv.mp4	0.0	355.9765546321869	1.0084800720214844
81	336.425493478775	movie	1		273	79.0	2.5	/experiments/Knapen_AOT/AOT_stimuli/rescaled_final/0392_rv.mp4	0.0	356.9850347042084	2.492173433303833
81	336.79928040504456	pulse	1	t		79.0	2.5	/experiments/Knapen_AOT/AOT_stimuli/rescaled_final/0392_rv.mp4	0.0	357.3588216304779	
81	338.3992235660553	pulse	1	t		79.0	2.5	/experiments/Knapen_AOT/AOT_stimuli/rescaled_final/0392_rv.mp4	0.0	358.95876479148865	
81	338.91766691207886	fix_post	2		12	79.0	2.5	/experiments/Knapen_AOT/AOT_stimuli/rescaled_final/0392_rv.mp4	0.0	359.4772081375122	0.09992051124572754
82	339.0175874233246	fix_pre	0		119	80.0	2.5	/experiments/Knapen_AOT/AOT_stimuli/rescaled_final/0809_rv.mp4	0.0	359.57712864875793	1.0001380443572998
82	340.0013189315796	pulse	0	t		80.0	2.5	/experiments/Knapen_AOT/AOT_stimuli/rescaled_final/0809_rv.mp4	0.0	360.56086015701294	
82	340.0177254676819	movie	1		274	80.0	2.5	/experiments/Knapen_AOT/AOT_stimuli/rescaled_final/0809_rv.mp4	0.0	360.57726669311523	2.500352382659912
82	341.59986877441406	pulse	1	t		80.0	2.5	/experiments/Knapen_AOT/AOT_stimuli/rescaled_final/0809_rv.mp4	0.0	362.1594099998474	
82	342.5180778503418	fix_post	2		12	80.0	2.5	/experiments/Knapen_AOT/AOT_stimuli/rescaled_final/0809_rv.mp4	0.0	363.07761907577515	0.10002827644348145
83	342.6181061267853	fix_pre	0		120	81.0	2.5	/experiments/Knapen_AOT/AOT_stimuli/rescaled_final/0046_fw.mp4	0.0	363.1776473522186	1.008528232574463
83	343.2017638683319	pulse	0	t		81.0	2.5	/experiments/Knapen_AOT/AOT_stimuli/rescaled_final/0046_fw.mp4	0.0	363.76130509376526	
83	343.62663435935974	movie	1		279	81.0	2.5	/experiments/Knapen_AOT/AOT_stimuli/rescaled_final/0046_fw.mp4	0.0	364.1861755847931	2.492008686065674
83	344.8005132675171	pulse	1	t		81.0	2.5	/experiments/Knapen_AOT/AOT_stimuli/rescaled_final/0046_fw.mp4	0.0	365.36005449295044	
83	346.1186430454254	fix_post	2		12	81.0	2.5	/experiments/Knapen_AOT/AOT_stimuli/rescaled_final/0046_fw.mp4	0.0	366.67818427085876	0.09998393058776855
84	346.2186269760132	fix_pre	0		120	82.0	2.5	blank	1.0	366.77816820144653	1.0001585483551025
84	346.4022092819214	pulse	0	t		82.0	2.5	blank	1.0	366.96175050735474	
84	347.2187855243683	movie	1		300	82.0	2.5	blank	1.0	367.77832674980164	2.5003952980041504
84	348.0025191307068	pulse	1	t		82.0	2.5	blank	1.0	368.56206035614014	
84	349.60287046432495	pulse	1	t		82.0	2.5	blank	1.0	370.1624116897583	
84	349.71918082237244	fix_post	2		12	82.0	2.5	blank	1.0	370.2787220478058	0.09998631477355957
85	349.819167137146	fix_pre	0		120	83.0	2.5	/experiments/Knapen_AOT/AOT_stimuli/rescaled_final/1024_fw.mp4	0.0	370.37870836257935	1.0084631443023682
85	350.82763028144836	movie	1		269	83.0	2.5	/experiments/Knapen_AOT/AOT_stimuli/rescaled_final/1024_fw.mp4	0.0	371.3871715068817	2.492077589035034
85	351.20168685913086	pulse	1	t		83.0	2.5	/experiments/Knapen_AOT/AOT_stimuli/rescaled_final/1024_fw.mp4	0.0	371.7612280845642	
85	352.8016107082367	pulse	1	t		83.0	2.5	/experiments/Knapen_AOT/AOT_stimuli/rescaled_final/1024_fw.mp4	0.0	373.36115193367004	
85	353.3197078704834	fix_post	2		12	83.0	2.5	/experiments/Knapen_AOT/AOT_stimuli/rescaled_final/1024_fw.mp4	0.0	373.87924909591675	0.1000821590423584
87	353.41979002952576	stim	0		1715					373.9793312549591	14.29374098777771
87	354.4036567211151	pulse	0	t						374.96319794654846	
87	356.0037033557892	pulse	0	t						376.56324458122253	
87	357.60390162467957	pulse	0	t						378.1634428501129	
87	359.2042908668518	pulse	0	t						379.76383209228516	
87	360.8045370578766	pulse	0	t						381.36407828330994	
87	362.40467619895935	pulse	0	t						382.9642174243927	
87	364.0048804283142	pulse	0	t						384.56442165374756	
87	365.6052610874176	pulse	0	t						386.16480231285095	
87	367.20535039901733	pulse	0	t						387.7648916244507	
