trial_nr	onset	event_type	phase	response	nr_frames	movie_index	movie_duration	movie_file	blank	onset_abs	duration
0	0.20817184448242188	stim	0		95					29.376978874206543	0.791762113571167
0	0.9917278289794922	response	0	space						30.160534858703613	
1	0.9999339580535889	stim	0		5827					30.16874098777771	48.5786509513855
1	49.563464879989624	pulse	0	t						78.73227190971375	
1	49.57858490943909	stim	1		1715					78.74739193916321	14.297377109527588
1	51.15756702423096	pulse	1	t						80.32637405395508	
1	52.757938861846924	pulse	1	t						81.92674589157104	
1	54.35803198814392	pulse	1	t						83.52683901786804	
1	55.958284854888916	pulse	1	t						85.12709188461304	
1	57.5585298538208	pulse	1	t						86.72733688354492	
1	59.15871596336365	pulse	1	t						88.32752299308777	
1	60.75904297828674	pulse	1	t						89.92785000801086	
1	62.35913681983948	pulse	1	t						91.5279438495636	
2	63.875962018966675	fix_pre	0		11	0.0	2.5	/experiments/knapen_AOT/AOT_stimuli/rescaled_final/1041_fw.mp4	0.0	93.0447690486908	0.09160590171813965
2	63.9595148563385	pulse	0	t		0.0	2.5	/experiments/knapen_AOT/AOT_stimuli/rescaled_final/1041_fw.mp4	0.0	93.12832188606262	
2	63.967567920684814	movie	1		244	0.0	2.5	/experiments/knapen_AOT/AOT_stimuli/rescaled_final/1041_fw.mp4	0.0	93.13637495040894	2.508810043334961
2	65.5604989528656	pulse	1	t		0.0	2.5	/experiments/knapen_AOT/AOT_stimuli/rescaled_final/1041_fw.mp4	0.0	94.72930598258972	
2	66.47637796401978	fix_post	2		12	0.0	2.5	/experiments/knapen_AOT/AOT_stimuli/rescaled_final/1041_fw.mp4	0.0	95.6451849937439	0.09990501403808594
3	66.57628297805786	fix_pre	0		120	1.0	2.5	/experiments/knapen_AOT/AOT_stimuli/rescaled_final/1284_fw.mp4	0.0	95.74509000778198	1.0002050399780273
3	67.15237998962402	pulse	0	t		1.0	2.5	/experiments/knapen_AOT/AOT_stimuli/rescaled_final/1284_fw.mp4	0.0	96.32118701934814	
3	67.57648801803589	movie	1		245	1.0	2.5	/experiments/knapen_AOT/AOT_stimuli/rescaled_final/1284_fw.mp4	0.0	96.74529504776001	2.5003719329833984
3	68.75261402130127	pulse	1	t		1.0	2.5	/experiments/knapen_AOT/AOT_stimuli/rescaled_final/1284_fw.mp4	0.0	97.92142105102539	
3	70.07685995101929	fix_post	2		12	1.0	2.5	/experiments/knapen_AOT/AOT_stimuli/rescaled_final/1284_fw.mp4	0.0	99.24566698074341	0.10002684593200684
4	70.1768867969513	fix_pre	0		120	2.0	2.5	/experiments/knapen_AOT/AOT_stimuli/rescaled_final/0751_rv.mp4	0.0	99.34569382667542	1.000150203704834
4	70.35290384292603	pulse	0	t		2.0	2.5	/experiments/knapen_AOT/AOT_stimuli/rescaled_final/0751_rv.mp4	0.0	99.52171087265015	
4	71.17703700065613	movie	1		247	2.0	2.5	/experiments/knapen_AOT/AOT_stimuli/rescaled_final/0751_rv.mp4	0.0	100.34584403038025	2.500347852706909
4	71.95244288444519	pulse	1	t		2.0	2.5	/experiments/knapen_AOT/AOT_stimuli/rescaled_final/0751_rv.mp4	0.0	101.12124991416931	
4	73.55250883102417	pulse	1	t		2.0	2.5	/experiments/knapen_AOT/AOT_stimuli/rescaled_final/0751_rv.mp4	0.0	102.72131586074829	
4	73.67738485336304	fix_post	2		12	2.0	2.5	/experiments/knapen_AOT/AOT_stimuli/rescaled_final/0751_rv.mp4	0.0	102.84619188308716	0.10002803802490234
5	73.77741289138794	fix_pre	0		120	3.0	2.5	/experiments/knapen_AOT/AOT_stimuli/rescaled_final/2107_rv.mp4	0.0	102.94621992111206	1.0001699924468994
5	74.77758288383484	movie	1		247	3.0	2.5	/experiments/knapen_AOT/AOT_stimuli/rescaled_final/2107_rv.mp4	0.0	103.94638991355896	2.4920389652252197
5	75.15279698371887	pulse	1	t		3.0	2.5	/experiments/knapen_AOT/AOT_stimuli/rescaled_final/2107_rv.mp4	0.0	104.321604013443	
5	76.75318598747253	pulse	1	t		3.0	2.5	/experiments/knapen_AOT/AOT_stimuli/rescaled_final/2107_rv.mp4	0.0	105.92199301719666	
5	77.26962184906006	fix_post	2		12	3.0	2.5	/experiments/knapen_AOT/AOT_stimuli/rescaled_final/2107_rv.mp4	0.0	106.43842887878418	0.09999513626098633
6	77.36961698532104	fix_pre	0		119	4.0	2.5	/experiments/knapen_AOT/AOT_stimuli/rescaled_final/1139_rv.mp4	0.0	106.53842401504517	0.9918320178985596
6	78.35327792167664	pulse	0	t		4.0	2.5	/experiments/knapen_AOT/AOT_stimuli/rescaled_final/1139_rv.mp4	0.0	107.52208495140076	
6	78.3614490032196	movie	1		246	4.0	2.5	/experiments/knapen_AOT/AOT_stimuli/rescaled_final/1139_rv.mp4	0.0	107.53025603294373	2.508683919906616
6	79.9542248249054	pulse	1	t		4.0	2.5	/experiments/knapen_AOT/AOT_stimuli/rescaled_final/1139_rv.mp4	0.0	109.12303185462952	
6	80.87013292312622	fix_post	2		12	4.0	2.5	/experiments/knapen_AOT/AOT_stimuli/rescaled_final/1139_rv.mp4	0.0	110.03893995285034	0.10003304481506348
7	80.97016596794128	fix_pre	0		120	5.0	2.5	/experiments/knapen_AOT/AOT_stimuli/rescaled_final/1027_fw.mp4	0.0	110.1389729976654	1.000140905380249
7	81.55377888679504	pulse	0	t		5.0	2.5	/experiments/knapen_AOT/AOT_stimuli/rescaled_final/1027_fw.mp4	0.0	110.72258591651917	
7	81.97030687332153	movie	1		241	5.0	2.5	/experiments/knapen_AOT/AOT_stimuli/rescaled_final/1027_fw.mp4	0.0	111.13911390304565	2.500307083129883
7	83.15405797958374	pulse	1	t		5.0	2.5	/experiments/knapen_AOT/AOT_stimuli/rescaled_final/1027_fw.mp4	0.0	112.32286500930786	
7	84.47061395645142	fix_post	2		12	5.0	2.5	/experiments/knapen_AOT/AOT_stimuli/rescaled_final/1027_fw.mp4	0.0	113.63942098617554	0.10008692741394043
8	84.57070088386536	fix_pre	0		120	6.0	2.5	/experiments/knapen_AOT/AOT_stimuli/rescaled_final/0975_fw.mp4	0.0	113.73950791358948	1.000143051147461
8	84.75419688224792	pulse	0	t		6.0	2.5	/experiments/knapen_AOT/AOT_stimuli/rescaled_final/0975_fw.mp4	0.0	113.92300391197205	
8	85.57084393501282	movie	1		243	6.0	2.5	/experiments/knapen_AOT/AOT_stimuli/rescaled_final/0975_fw.mp4	0.0	114.73965096473694	2.5003650188446045
8	86.35451102256775	pulse	1	t		6.0	2.5	/experiments/knapen_AOT/AOT_stimuli/rescaled_final/0975_fw.mp4	0.0	115.52331805229187	
8	87.95494198799133	pulse	1	t		6.0	2.5	/experiments/knapen_AOT/AOT_stimuli/rescaled_final/0975_fw.mp4	0.0	117.12374901771545	
8	88.07120895385742	fix_post	2		12	6.0	2.5	/experiments/knapen_AOT/AOT_stimuli/rescaled_final/0975_fw.mp4	0.0	117.24001598358154	0.10001206398010254
9	88.17122101783752	fix_pre	0		120	7.0	2.5	blank	1.0	117.34002804756165	1.0001718997955322
9	89.17139291763306	movie	1		299	7.0	2.5	blank	1.0	118.34019994735718	2.4920339584350586
9	89.55490779876709	pulse	1	t		7.0	2.5	blank	1.0	118.72371482849121	
9	91.15517783164978	pulse	1	t		7.0	2.5	blank	1.0	120.3239848613739	
9	91.66342687606812	fix_post	2		12	7.0	2.5	blank	1.0	120.83223390579224	0.100067138671875
10	91.76349401473999	fix_pre	0		120	8.0	2.5	/experiments/knapen_AOT/AOT_stimuli/rescaled_final/2155_fw.mp4	0.0	120.93230104446411	1.0001039505004883
10	92.75553584098816	pulse	0	t		8.0	2.5	/experiments/knapen_AOT/AOT_stimuli/rescaled_final/2155_fw.mp4	0.0	121.92434287071228	
10	92.76359796524048	movie	1		246	8.0	2.5	/experiments/knapen_AOT/AOT_stimuli/rescaled_final/2155_fw.mp4	0.0	121.9324049949646	2.50871205329895
10	94.35613203048706	pulse	1	t		8.0	2.5	/experiments/knapen_AOT/AOT_stimuli/rescaled_final/2155_fw.mp4	0.0	123.52493906021118	
10	95.27231001853943	fix_post	2		12	8.0	2.5	/experiments/knapen_AOT/AOT_stimuli/rescaled_final/2155_fw.mp4	0.0	124.44111704826355	0.09998393058776855
11	95.3722939491272	fix_pre	0		120	9.0	2.5	/experiments/knapen_AOT/AOT_stimuli/rescaled_final/1100_rv.mp4	0.0	124.54110097885132	1.0001718997955322
11	95.955983877182	pulse	0	t		9.0	2.5	/experiments/knapen_AOT/AOT_stimuli/rescaled_final/1100_rv.mp4	0.0	125.12479090690613	
11	96.37246584892273	movie	1		243	9.0	2.5	/experiments/knapen_AOT/AOT_stimuli/rescaled_final/1100_rv.mp4	0.0	125.54127287864685	2.500354051589966
11	97.55624294281006	pulse	1	t		9.0	2.5	/experiments/knapen_AOT/AOT_stimuli/rescaled_final/1100_rv.mp4	0.0	126.72504997253418	
11	98.8728199005127	fix_post	2		12	9.0	2.5	/experiments/knapen_AOT/AOT_stimuli/rescaled_final/1100_rv.mp4	0.0	128.04162693023682	0.10005903244018555
12	98.97287893295288	fix_pre	0		120	10.0	2.5	/experiments/knapen_AOT/AOT_stimuli/rescaled_final/1573_rv.mp4	0.0	128.141685962677	1.0001270771026611
12	99.15661692619324	pulse	0	t		10.0	2.5	/experiments/knapen_AOT/AOT_stimuli/rescaled_final/1573_rv.mp4	0.0	128.32542395591736	
12	99.97300601005554	movie	1		244	10.0	2.5	/experiments/knapen_AOT/AOT_stimuli/rescaled_final/1573_rv.mp4	0.0	129.14181303977966	2.50032901763916
12	100.75681185722351	pulse	1	t		10.0	2.5	/experiments/knapen_AOT/AOT_stimuli/rescaled_final/1573_rv.mp4	0.0	129.92561888694763	
12	102.35448884963989	pulse	1	t		10.0	2.5	/experiments/knapen_AOT/AOT_stimuli/rescaled_final/1573_rv.mp4	0.0	131.523295879364	
12	102.4733350276947	fix_post	2		12	10.0	2.5	/experiments/knapen_AOT/AOT_stimuli/rescaled_final/1573_rv.mp4	0.0	131.64214205741882	0.10017681121826172
13	102.57351183891296	fix_pre	0		120	11.0	2.5	/experiments/knapen_AOT/AOT_stimuli/rescaled_final/1027_fw.mp4	0.0	131.74231886863708	1.0000250339508057
13	103.57353687286377	movie	1		244	11.0	2.5	/experiments/knapen_AOT/AOT_stimuli/rescaled_final/1027_fw.mp4	0.0	132.7423439025879	2.4920239448547363
13	103.96163296699524	pulse	1	t		11.0	2.5	/experiments/knapen_AOT/AOT_stimuli/rescaled_final/1027_fw.mp4	0.0	133.13043999671936	
13	105.55743384361267	pulse	1	t		11.0	2.5	/experiments/knapen_AOT/AOT_stimuli/rescaled_final/1027_fw.mp4	0.0	134.7262408733368	
13	106.0655608177185	fix_post	2		12	11.0	2.5	/experiments/knapen_AOT/AOT_stimuli/rescaled_final/1027_fw.mp4	0.0	135.23436784744263	0.10001802444458008
14	106.16557884216309	fix_pre	0		120	12.0	2.5	/experiments/knapen_AOT/AOT_stimuli/rescaled_final/1433_fw.mp4	0.0	135.3343858718872	1.0002021789550781
14	107.15768480300903	pulse	0	t		12.0	2.5	/experiments/knapen_AOT/AOT_stimuli/rescaled_final/1433_fw.mp4	0.0	136.32649183273315	
14	107.16578102111816	movie	1		246	12.0	2.5	/experiments/knapen_AOT/AOT_stimuli/rescaled_final/1433_fw.mp4	0.0	136.33458805084229	2.5086729526519775
14	108.75835180282593	pulse	1	t		12.0	2.5	/experiments/knapen_AOT/AOT_stimuli/rescaled_final/1433_fw.mp4	0.0	137.92715883255005	
14	109.67445397377014	fix_post	2		12	12.0	2.5	/experiments/knapen_AOT/AOT_stimuli/rescaled_final/1433_fw.mp4	0.0	138.84326100349426	0.10003495216369629
15	109.77448892593384	fix_pre	0		120	13.0	2.5	/experiments/knapen_AOT/AOT_stimuli/rescaled_final/0601_rv.mp4	0.0	138.94329595565796	1.0001559257507324
15	110.35808897018433	pulse	0	t		13.0	2.5	/experiments/knapen_AOT/AOT_stimuli/rescaled_final/0601_rv.mp4	0.0	139.52689599990845	
15	110.77464485168457	movie	1		246	13.0	2.5	/experiments/knapen_AOT/AOT_stimuli/rescaled_final/0601_rv.mp4	0.0	139.9434518814087	2.500338077545166
15	111.95839095115662	pulse	1	t		13.0	2.5	/experiments/knapen_AOT/AOT_stimuli/rescaled_final/0601_rv.mp4	0.0	141.12719798088074	
15	113.27498292922974	fix_post	2		12	13.0	2.5	/experiments/knapen_AOT/AOT_stimuli/rescaled_final/0601_rv.mp4	0.0	142.44378995895386	0.10005903244018555
16	113.37504196166992	fix_pre	0		120	14.0	2.5	blank	1.0	142.54384899139404	1.0000958442687988
16	113.5585949420929	pulse	0	t		14.0	2.5	blank	1.0	142.72740197181702	
16	114.37513780593872	movie	1		300	14.0	2.5	blank	1.0	143.54394483566284	2.500415086746216
16	115.15888595581055	pulse	1	t		14.0	2.5	blank	1.0	144.32769298553467	
16	116.75903701782227	pulse	1	t		14.0	2.5	blank	1.0	145.9278440475464	
16	116.87555289268494	fix_post	2		12	14.0	2.5	blank	1.0	146.04435992240906	0.0999600887298584
17	116.9755129814148	fix_pre	0		120	15.0	2.5	/experiments/knapen_AOT/AOT_stimuli/rescaled_final/0690_fw.mp4	0.0	146.14432001113892	1.0001239776611328
17	117.97563695907593	movie	1		244	15.0	2.5	/experiments/knapen_AOT/AOT_stimuli/rescaled_final/0690_fw.mp4	0.0	147.14444398880005	2.4920380115509033
17	118.35983395576477	pulse	1	t		15.0	2.5	/experiments/knapen_AOT/AOT_stimuli/rescaled_final/0690_fw.mp4	0.0	147.5286409854889	
17	119.95945882797241	pulse	1	t		15.0	2.5	/experiments/knapen_AOT/AOT_stimuli/rescaled_final/0690_fw.mp4	0.0	149.12826585769653	
17	120.46767497062683	fix_post	2		12	15.0	2.5	/experiments/knapen_AOT/AOT_stimuli/rescaled_final/0690_fw.mp4	0.0	149.63648200035095	0.10006499290466309
18	120.5677399635315	fix_pre	0		120	16.0	2.5	/experiments/knapen_AOT/AOT_stimuli/rescaled_final/0411_rv.mp4	0.0	149.73654699325562	1.0001440048217773
18	121.55982494354248	pulse	0	t		16.0	2.5	/experiments/knapen_AOT/AOT_stimuli/rescaled_final/0411_rv.mp4	0.0	150.7286319732666	
18	121.56788396835327	movie	1		246	16.0	2.5	/experiments/knapen_AOT/AOT_stimuli/rescaled_final/0411_rv.mp4	0.0	150.7366909980774	2.5087180137634277
18	123.1606559753418	pulse	1	t		16.0	2.5	/experiments/knapen_AOT/AOT_stimuli/rescaled_final/0411_rv.mp4	0.0	152.32946300506592	
18	124.0766019821167	fix_post	2		12	16.0	2.5	/experiments/knapen_AOT/AOT_stimuli/rescaled_final/0411_rv.mp4	0.0	153.24540901184082	0.09999394416809082
19	124.17659592628479	fix_pre	0		120	17.0	2.5	/experiments/knapen_AOT/AOT_stimuli/rescaled_final/2128_rv.mp4	0.0	153.3454029560089	1.0001730918884277
19	124.76013684272766	pulse	0	t		17.0	2.5	/experiments/knapen_AOT/AOT_stimuli/rescaled_final/2128_rv.mp4	0.0	153.92894387245178	
19	125.17676901817322	movie	1		245	17.0	2.5	/experiments/knapen_AOT/AOT_stimuli/rescaled_final/2128_rv.mp4	0.0	154.34557604789734	2.5003509521484375
19	126.35323190689087	pulse	1	t		17.0	2.5	/experiments/knapen_AOT/AOT_stimuli/rescaled_final/2128_rv.mp4	0.0	155.522038936615	
19	127.67711997032166	fix_post	2		12	17.0	2.5	/experiments/knapen_AOT/AOT_stimuli/rescaled_final/2128_rv.mp4	0.0	156.84592700004578	0.10004186630249023
20	127.77716183662415	fix_pre	0		120	18.0	2.5	/experiments/knapen_AOT/AOT_stimuli/rescaled_final/0073_rv.mp4	0.0	156.94596886634827	1.0001530647277832
20	127.95311498641968	pulse	0	t		18.0	2.5	/experiments/knapen_AOT/AOT_stimuli/rescaled_final/0073_rv.mp4	0.0	157.1219220161438	
20	128.77731490135193	movie	1		246	18.0	2.5	/experiments/knapen_AOT/AOT_stimuli/rescaled_final/0073_rv.mp4	0.0	157.94612193107605	2.500304937362671
20	129.55362200737	pulse	1	t		18.0	2.5	/experiments/knapen_AOT/AOT_stimuli/rescaled_final/0073_rv.mp4	0.0	158.72242903709412	
20	131.15364384651184	pulse	1	t		18.0	2.5	/experiments/knapen_AOT/AOT_stimuli/rescaled_final/0073_rv.mp4	0.0	160.32245087623596	
20	131.2776198387146	fix_post	2		12	18.0	2.5	/experiments/knapen_AOT/AOT_stimuli/rescaled_final/0073_rv.mp4	0.0	160.44642686843872	0.10008502006530762
21	131.3777048587799	fix_pre	0		120	19.0	2.5	/experiments/knapen_AOT/AOT_stimuli/rescaled_final/1270_fw.mp4	0.0	160.54651188850403	1.0001130104064941
21	132.3778178691864	movie	1		244	19.0	2.5	/experiments/knapen_AOT/AOT_stimuli/rescaled_final/1270_fw.mp4	0.0	161.54662489891052	2.49206805229187
21	132.75320887565613	pulse	1	t		19.0	2.5	/experiments/knapen_AOT/AOT_stimuli/rescaled_final/1270_fw.mp4	0.0	161.92201590538025	
21	134.353346824646	pulse	1	t		19.0	2.5	/experiments/knapen_AOT/AOT_stimuli/rescaled_final/1270_fw.mp4	0.0	163.52215385437012	
21	134.86988592147827	fix_post	2		12	19.0	2.5	/experiments/knapen_AOT/AOT_stimuli/rescaled_final/1270_fw.mp4	0.0	164.0386929512024	0.10002589225769043
22	134.96991181373596	fix_pre	0		119	20.0	2.5	blank	1.0	164.13871884346008	0.991847038269043
22	135.95353293418884	pulse	0	t		20.0	2.5	blank	1.0	165.12233996391296	
22	135.961758852005	movie	1		301	20.0	2.5	blank	1.0	165.13056588172913	2.5086510181427
22	137.55378890037537	pulse	1	t		20.0	2.5	blank	1.0	166.7225959300995	
22	138.4704098701477	fix_post	2		12	20.0	2.5	blank	1.0	167.63921689987183	0.10001397132873535
23	138.57042384147644	fix_pre	0		120	21.0	2.5	/experiments/knapen_AOT/AOT_stimuli/rescaled_final/1433_rv.mp4	0.0	167.73923087120056	1.0001461505889893
23	139.15411686897278	pulse	0	t		21.0	2.5	/experiments/knapen_AOT/AOT_stimuli/rescaled_final/1433_rv.mp4	0.0	168.3229238986969	
23	139.57056999206543	movie	1		245	21.0	2.5	/experiments/knapen_AOT/AOT_stimuli/rescaled_final/1433_rv.mp4	0.0	168.73937702178955	2.5003488063812256
23	140.75431489944458	pulse	1	t		21.0	2.5	/experiments/knapen_AOT/AOT_stimuli/rescaled_final/1433_rv.mp4	0.0	169.9231219291687	
23	142.07091879844666	fix_post	2		12	21.0	2.5	/experiments/knapen_AOT/AOT_stimuli/rescaled_final/1433_rv.mp4	0.0	171.23972582817078	0.10001611709594727
24	142.1709349155426	fix_pre	0		117	22.0	2.5	/experiments/knapen_AOT/AOT_stimuli/rescaled_final/0733_fw.mp4	0.0	171.33974194526672	1.0001790523529053
24	142.35450387001038	pulse	0	t		22.0	2.5	/experiments/knapen_AOT/AOT_stimuli/rescaled_final/0733_fw.mp4	0.0	171.5233108997345	
24	143.1711139678955	movie	1		246	22.0	2.5	/experiments/knapen_AOT/AOT_stimuli/rescaled_final/0733_fw.mp4	0.0	172.33992099761963	2.5003600120544434
24	143.95486688613892	pulse	1	t		22.0	2.5	/experiments/knapen_AOT/AOT_stimuli/rescaled_final/0733_fw.mp4	0.0	173.12367391586304	
24	145.55505895614624	pulse	1	t		22.0	2.5	/experiments/knapen_AOT/AOT_stimuli/rescaled_final/0733_fw.mp4	0.0	174.72386598587036	
24	145.67147397994995	fix_post	2		12	22.0	2.5	/experiments/knapen_AOT/AOT_stimuli/rescaled_final/0733_fw.mp4	0.0	174.84028100967407	0.09995603561401367
25	145.77143001556396	fix_pre	0		120	23.0	2.5	/experiments/knapen_AOT/AOT_stimuli/rescaled_final/1047_rv.mp4	0.0	174.9402370452881	1.0002269744873047
25	146.77165699005127	movie	1		243	23.0	2.5	/experiments/knapen_AOT/AOT_stimuli/rescaled_final/1047_rv.mp4	0.0	175.9404640197754	2.492020845413208
25	147.1558928489685	pulse	1	t		23.0	2.5	/experiments/knapen_AOT/AOT_stimuli/rescaled_final/1047_rv.mp4	0.0	176.32469987869263	
25	148.75547790527344	pulse	1	t		23.0	2.5	/experiments/knapen_AOT/AOT_stimuli/rescaled_final/1047_rv.mp4	0.0	177.92428493499756	
25	149.26367783546448	fix_post	2		12	23.0	2.5	/experiments/knapen_AOT/AOT_stimuli/rescaled_final/1047_rv.mp4	0.0	178.4324848651886	0.10006904602050781
26	149.36374688148499	fix_pre	0		120	24.0	2.5	/experiments/knapen_AOT/AOT_stimuli/rescaled_final/1228_rv.mp4	0.0	178.5325539112091	1.0001001358032227
26	150.35575580596924	pulse	0	t		24.0	2.5	/experiments/knapen_AOT/AOT_stimuli/rescaled_final/1228_rv.mp4	0.0	179.52456283569336	
26	150.3638470172882	movie	1		245	24.0	2.5	/experiments/knapen_AOT/AOT_stimuli/rescaled_final/1228_rv.mp4	0.0	179.53265404701233	2.5086829662323
26	151.95663499832153	pulse	1	t		24.0	2.5	/experiments/knapen_AOT/AOT_stimuli/rescaled_final/1228_rv.mp4	0.0	181.12544202804565	
26	152.8725299835205	fix_post	2		12	24.0	2.5	/experiments/knapen_AOT/AOT_stimuli/rescaled_final/1228_rv.mp4	0.0	182.04133701324463	0.1000368595123291
27	152.97256684303284	fix_pre	0		120	25.0	2.5	/experiments/knapen_AOT/AOT_stimuli/rescaled_final/0411_rv.mp4	0.0	182.14137387275696	1.000143051147461
27	153.55625796318054	pulse	0	t		25.0	2.5	/experiments/knapen_AOT/AOT_stimuli/rescaled_final/0411_rv.mp4	0.0	182.72506499290466	
27	153.9727098941803	movie	1		245	25.0	2.5	/experiments/knapen_AOT/AOT_stimuli/rescaled_final/0411_rv.mp4	0.0	183.14151692390442	2.5004000663757324
27	155.156476020813	pulse	1	t		25.0	2.5	/experiments/knapen_AOT/AOT_stimuli/rescaled_final/0411_rv.mp4	0.0	184.3252830505371	
27	156.47310996055603	fix_post	2		12	25.0	2.5	/experiments/knapen_AOT/AOT_stimuli/rescaled_final/0411_rv.mp4	0.0	185.64191699028015	0.10000991821289062
28	156.57311987876892	fix_pre	0		120	26.0	2.5	/experiments/knapen_AOT/AOT_stimuli/rescaled_final/0978_rv.mp4	0.0	185.74192690849304	1.0001490116119385
28	156.75669598579407	pulse	0	t		26.0	2.5	/experiments/knapen_AOT/AOT_stimuli/rescaled_final/0978_rv.mp4	0.0	185.9255030155182	
28	157.57326889038086	movie	1		244	26.0	2.5	/experiments/knapen_AOT/AOT_stimuli/rescaled_final/0978_rv.mp4	0.0	186.74207592010498	2.5003581047058105
28	158.35698699951172	pulse	1	t		26.0	2.5	/experiments/knapen_AOT/AOT_stimuli/rescaled_final/0978_rv.mp4	0.0	187.52579402923584	
28	159.95713090896606	pulse	1	t		26.0	2.5	/experiments/knapen_AOT/AOT_stimuli/rescaled_final/0978_rv.mp4	0.0	189.12593793869019	
28	160.07362699508667	fix_post	2		12	26.0	2.5	/experiments/knapen_AOT/AOT_stimuli/rescaled_final/0978_rv.mp4	0.0	189.2424340248108	0.09999799728393555
29	160.1736249923706	fix_pre	0		120	27.0	2.5	/experiments/knapen_AOT/AOT_stimuli/rescaled_final/0887_rv.mp4	0.0	189.34243202209473	1.0001819133758545
29	161.17380690574646	movie	1		243	27.0	2.5	/experiments/knapen_AOT/AOT_stimuli/rescaled_final/0887_rv.mp4	0.0	190.34261393547058	2.49200701713562
29	161.5578429698944	pulse	1	t		27.0	2.5	/experiments/knapen_AOT/AOT_stimuli/rescaled_final/0887_rv.mp4	0.0	190.72664999961853	
29	163.15764689445496	pulse	1	t		27.0	2.5	/experiments/knapen_AOT/AOT_stimuli/rescaled_final/0887_rv.mp4	0.0	192.32645392417908	
29	163.66581392288208	fix_post	2		12	27.0	2.5	/experiments/knapen_AOT/AOT_stimuli/rescaled_final/0887_rv.mp4	0.0	192.8346209526062	0.10002708435058594
30	163.76584100723267	fix_pre	0		120	28.0	2.5	blank	1.0	192.9346480369568	1.000180959701538
30	164.7579689025879	pulse	0	t		28.0	2.5	blank	1.0	193.926775932312	
30	164.7660219669342	movie	1		301	28.0	2.5	blank	1.0	193.93482899665833	2.508702039718628
30	166.35822296142578	pulse	1	t		28.0	2.5	blank	1.0	195.5270299911499	
30	167.27472400665283	fix_post	2		12	28.0	2.5	blank	1.0	196.44353103637695	0.09996390342712402
31	167.37468791007996	fix_pre	0		120	29.0	2.5	/experiments/knapen_AOT/AOT_stimuli/rescaled_final/0068_rv.mp4	0.0	196.54349493980408	1.0001680850982666
31	167.95833683013916	pulse	0	t		29.0	2.5	/experiments/knapen_AOT/AOT_stimuli/rescaled_final/0068_rv.mp4	0.0	197.12714385986328	
31	168.37485599517822	movie	1		245	29.0	2.5	/experiments/knapen_AOT/AOT_stimuli/rescaled_final/0068_rv.mp4	0.0	197.54366302490234	2.5003700256347656
31	169.5587248802185	pulse	1	t		29.0	2.5	/experiments/knapen_AOT/AOT_stimuli/rescaled_final/0068_rv.mp4	0.0	198.72753190994263	
31	170.875226020813	fix_post	2		12	29.0	2.5	/experiments/knapen_AOT/AOT_stimuli/rescaled_final/0068_rv.mp4	0.0	200.0440330505371	0.10008692741394043
32	170.97531294822693	fix_pre	0		120	30.0	2.5	/experiments/knapen_AOT/AOT_stimuli/rescaled_final/1573_fw.mp4	0.0	200.14411997795105	1.000082015991211
32	171.15880799293518	pulse	0	t		30.0	2.5	/experiments/knapen_AOT/AOT_stimuli/rescaled_final/1573_fw.mp4	0.0	200.3276150226593	
32	171.97539496421814	movie	1		244	30.0	2.5	/experiments/knapen_AOT/AOT_stimuli/rescaled_final/1573_fw.mp4	0.0	201.14420199394226	2.500385046005249
32	172.75916290283203	pulse	1	t		30.0	2.5	/experiments/knapen_AOT/AOT_stimuli/rescaled_final/1573_fw.mp4	0.0	201.92796993255615	
32	174.35697102546692	pulse	1	t		30.0	2.5	/experiments/knapen_AOT/AOT_stimuli/rescaled_final/1573_fw.mp4	0.0	203.52577805519104	
32	174.4757800102234	fix_post	2		12	30.0	2.5	/experiments/knapen_AOT/AOT_stimuli/rescaled_final/1573_fw.mp4	0.0	203.6445870399475	0.10000300407409668
33	174.57578301429749	fix_pre	0		120	31.0	2.5	/experiments/knapen_AOT/AOT_stimuli/rescaled_final/1275_rv.mp4	0.0	203.7445900440216	1.0001838207244873
33	175.57596683502197	movie	1		243	31.0	2.5	/experiments/knapen_AOT/AOT_stimuli/rescaled_final/1275_rv.mp4	0.0	204.7447738647461	2.491966962814331
33	175.96410083770752	pulse	1	t		31.0	2.5	/experiments/knapen_AOT/AOT_stimuli/rescaled_final/1275_rv.mp4	0.0	205.13290786743164	
33	177.55249500274658	pulse	1	t		31.0	2.5	/experiments/knapen_AOT/AOT_stimuli/rescaled_final/1275_rv.mp4	0.0	206.7213020324707	
33	178.0679337978363	fix_post	2		12	31.0	2.5	/experiments/knapen_AOT/AOT_stimuli/rescaled_final/1275_rv.mp4	0.0	207.23674082756042	0.10004401206970215
34	178.167977809906	fix_pre	0		120	32.0	2.5	/experiments/knapen_AOT/AOT_stimuli/rescaled_final/1314_rv.mp4	0.0	207.33678483963013	1.0001490116119385
34	179.15256094932556	pulse	0	t		32.0	2.5	/experiments/knapen_AOT/AOT_stimuli/rescaled_final/1314_rv.mp4	0.0	208.32136797904968	
34	179.16812682151794	movie	1		244	32.0	2.5	/experiments/knapen_AOT/AOT_stimuli/rescaled_final/1314_rv.mp4	0.0	208.33693385124207	2.5087029933929443
34	180.76147198677063	pulse	1	t		32.0	2.5	/experiments/knapen_AOT/AOT_stimuli/rescaled_final/1314_rv.mp4	0.0	209.93027901649475	
34	181.6768298149109	fix_post	2		12	32.0	2.5	/experiments/knapen_AOT/AOT_stimuli/rescaled_final/1314_rv.mp4	0.0	210.845636844635	0.10002303123474121
35	181.77685284614563	fix_pre	0		120	33.0	2.5	/experiments/knapen_AOT/AOT_stimuli/rescaled_final/1988_fw.mp4	0.0	210.94565987586975	1.0001561641693115
35	182.35289597511292	pulse	0	t		33.0	2.5	/experiments/knapen_AOT/AOT_stimuli/rescaled_final/1988_fw.mp4	0.0	211.52170300483704	
35	182.77700901031494	movie	1		244	33.0	2.5	/experiments/knapen_AOT/AOT_stimuli/rescaled_final/1988_fw.mp4	0.0	211.94581604003906	2.5003678798675537
35	183.95357990264893	pulse	1	t		33.0	2.5	/experiments/knapen_AOT/AOT_stimuli/rescaled_final/1988_fw.mp4	0.0	213.12238693237305	
35	185.2773768901825	fix_post	2		12	33.0	2.5	/experiments/knapen_AOT/AOT_stimuli/rescaled_final/1988_fw.mp4	0.0	214.44618391990662	0.09998297691345215
36	185.37735986709595	fix_pre	0		120	34.0	2.5	blank	1.0	214.54616689682007	1.0001771450042725
36	185.55340600013733	pulse	0	t		34.0	2.5	blank	1.0	214.72221302986145	
36	186.37753701210022	movie	1		299	34.0	2.5	blank	1.0	215.54634404182434	2.4920477867126465
36	187.1528718471527	pulse	1	t		34.0	2.5	blank	1.0	216.32167887687683	
36	188.75300097465515	pulse	1	t		34.0	2.5	blank	1.0	217.92180800437927	
36	188.86958479881287	fix_post	2		12	34.0	2.5	blank	1.0	218.038391828537	0.10005307197570801
37	188.96963787078857	fix_pre	0		120	35.0	2.5	/experiments/knapen_AOT/AOT_stimuli/rescaled_final/1965_rv.mp4	0.0	218.1384449005127	1.0001311302185059
37	189.96976900100708	movie	1		245	35.0	2.5	/experiments/knapen_AOT/AOT_stimuli/rescaled_final/1965_rv.mp4	0.0	219.1385760307312	2.500351905822754
37	190.3539469242096	pulse	1	t		35.0	2.5	/experiments/knapen_AOT/AOT_stimuli/rescaled_final/1965_rv.mp4	0.0	219.52275395393372	
37	191.95367097854614	pulse	1	t		35.0	2.5	/experiments/knapen_AOT/AOT_stimuli/rescaled_final/1965_rv.mp4	0.0	221.12247800827026	
37	192.47012090682983	fix_post	2		12	35.0	2.5	/experiments/knapen_AOT/AOT_stimuli/rescaled_final/1965_rv.mp4	0.0	221.63892793655396	0.10000205039978027
38	192.57012295722961	fix_pre	0		119	36.0	2.5	/experiments/knapen_AOT/AOT_stimuli/rescaled_final/0689_rv.mp4	0.0	221.73892998695374	0.9918088912963867
38	193.55386185646057	pulse	0	t		36.0	2.5	/experiments/knapen_AOT/AOT_stimuli/rescaled_final/0689_rv.mp4	0.0	222.7226688861847	
38	193.561931848526	movie	1		244	36.0	2.5	/experiments/knapen_AOT/AOT_stimuli/rescaled_final/0689_rv.mp4	0.0	222.73073887825012	2.5087661743164062
38	195.15464997291565	pulse	1	t		36.0	2.5	/experiments/knapen_AOT/AOT_stimuli/rescaled_final/0689_rv.mp4	0.0	224.32345700263977	
38	196.0706980228424	fix_post	2		12	36.0	2.5	/experiments/knapen_AOT/AOT_stimuli/rescaled_final/0689_rv.mp4	0.0	225.23950505256653	0.09995579719543457
39	196.17065382003784	fix_pre	0		120	37.0	2.5	/experiments/knapen_AOT/AOT_stimuli/rescaled_final/1786_fw.mp4	0.0	225.33946084976196	1.0001671314239502
39	196.75431084632874	pulse	0	t		37.0	2.5	/experiments/knapen_AOT/AOT_stimuli/rescaled_final/1786_fw.mp4	0.0	225.92311787605286	
39	197.1708209514618	movie	1		244	37.0	2.5	/experiments/knapen_AOT/AOT_stimuli/rescaled_final/1786_fw.mp4	0.0	226.3396279811859	2.50039005279541
39	198.35471892356873	pulse	1	t		37.0	2.5	/experiments/knapen_AOT/AOT_stimuli/rescaled_final/1786_fw.mp4	0.0	227.52352595329285	
39	199.6712110042572	fix_post	2		12	37.0	2.5	/experiments/knapen_AOT/AOT_stimuli/rescaled_final/1786_fw.mp4	0.0	228.84001803398132	0.0999898910522461
40	199.77120089530945	fix_pre	0		120	38.0	2.5	/experiments/knapen_AOT/AOT_stimuli/rescaled_final/1296_fw.mp4	0.0	228.94000792503357	1.0002150535583496
40	199.95480799674988	pulse	0	t		38.0	2.5	/experiments/knapen_AOT/AOT_stimuli/rescaled_final/1296_fw.mp4	0.0	229.123615026474	
40	200.7714159488678	movie	1		241	38.0	2.5	/experiments/knapen_AOT/AOT_stimuli/rescaled_final/1296_fw.mp4	0.0	229.94022297859192	2.5002808570861816
40	201.55500102043152	pulse	1	t		38.0	2.5	/experiments/knapen_AOT/AOT_stimuli/rescaled_final/1296_fw.mp4	0.0	230.72380805015564	
40	203.15293288230896	pulse	1	t		38.0	2.5	/experiments/knapen_AOT/AOT_stimuli/rescaled_final/1296_fw.mp4	0.0	232.32173991203308	
40	203.27169680595398	fix_post	2		12	38.0	2.5	/experiments/knapen_AOT/AOT_stimuli/rescaled_final/1296_fw.mp4	0.0	232.4405038356781	0.10006499290466309
41	203.37176179885864	fix_pre	0		119	39.0	2.5	/experiments/knapen_AOT/AOT_stimuli/rescaled_final/1467_fw.mp4	0.0	232.54056882858276	0.9917941093444824
41	204.36355590820312	movie	1		244	39.0	2.5	/experiments/knapen_AOT/AOT_stimuli/rescaled_final/1467_fw.mp4	0.0	233.53236293792725	2.500369071960449
41	204.7557098865509	pulse	1	t		39.0	2.5	/experiments/knapen_AOT/AOT_stimuli/rescaled_final/1467_fw.mp4	0.0	233.92451691627502	
41	206.35585498809814	pulse	1	t		39.0	2.5	/experiments/knapen_AOT/AOT_stimuli/rescaled_final/1467_fw.mp4	0.0	235.52466201782227	
41	206.86392498016357	fix_post	2		12	39.0	2.5	/experiments/knapen_AOT/AOT_stimuli/rescaled_final/1467_fw.mp4	0.0	236.0327320098877	0.1000359058380127
42	206.9639608860016	fix_pre	0		120	40.0	2.5	/experiments/knapen_AOT/AOT_stimuli/rescaled_final/2104_rv.mp4	0.0	236.1327679157257	1.0001239776611328
42	207.95602893829346	pulse	0	t		40.0	2.5	/experiments/knapen_AOT/AOT_stimuli/rescaled_final/2104_rv.mp4	0.0	237.12483596801758	
42	207.96408486366272	movie	1		246	40.0	2.5	/experiments/knapen_AOT/AOT_stimuli/rescaled_final/2104_rv.mp4	0.0	237.13289189338684	2.508723020553589
42	209.5567228794098	pulse	1	t		40.0	2.5	/experiments/knapen_AOT/AOT_stimuli/rescaled_final/2104_rv.mp4	0.0	238.7255299091339	
42	210.4728078842163	fix_post	2		12	40.0	2.5	/experiments/knapen_AOT/AOT_stimuli/rescaled_final/2104_rv.mp4	0.0	239.64161491394043	0.10005402565002441
43	210.57286190986633	fix_pre	0		120	41.0	2.5	/experiments/knapen_AOT/AOT_stimuli/rescaled_final/0231_rv.mp4	0.0	239.74166893959045	1.0001130104064941
43	211.1564908027649	pulse	0	t		41.0	2.5	/experiments/knapen_AOT/AOT_stimuli/rescaled_final/0231_rv.mp4	0.0	240.325297832489	
43	211.57297492027283	movie	1		244	41.0	2.5	/experiments/knapen_AOT/AOT_stimuli/rescaled_final/0231_rv.mp4	0.0	240.74178194999695	2.5003678798675537
43	212.75686192512512	pulse	1	t		41.0	2.5	/experiments/knapen_AOT/AOT_stimuli/rescaled_final/0231_rv.mp4	0.0	241.92566895484924	
43	214.07334280014038	fix_post	2		12	41.0	2.5	/experiments/knapen_AOT/AOT_stimuli/rescaled_final/0231_rv.mp4	0.0	243.2421498298645	0.1000361442565918
44	214.17337894439697	fix_pre	0		120	42.0	2.5	blank	1.0	243.3421859741211	1.0001740455627441
44	214.35700392723083	pulse	0	t		42.0	2.5	blank	1.0	243.52581095695496	
44	215.17355298995972	movie	1		300	42.0	2.5	blank	1.0	244.34236001968384	2.50034499168396
44	215.9571897983551	pulse	1	t		42.0	2.5	blank	1.0	245.12599682807922	
44	217.55749487876892	pulse	1	t		42.0	2.5	blank	1.0	246.72630190849304	
44	217.67389798164368	fix_post	2		12	42.0	2.5	blank	1.0	246.8427050113678	0.10000991821289062
45	217.77390789985657	fix_pre	0		120	43.0	2.5	/experiments/knapen_AOT/AOT_stimuli/rescaled_final/2001_fw.mp4	0.0	246.9427149295807	1.0001320838928223
45	218.7740399837494	movie	1		243	43.0	2.5	/experiments/knapen_AOT/AOT_stimuli/rescaled_final/2001_fw.mp4	0.0	247.9428470134735	2.492033004760742
45	219.16129994392395	pulse	1	t		43.0	2.5	/experiments/knapen_AOT/AOT_stimuli/rescaled_final/2001_fw.mp4	0.0	248.33010697364807	
45	220.75799894332886	pulse	1	t		43.0	2.5	/experiments/knapen_AOT/AOT_stimuli/rescaled_final/2001_fw.mp4	0.0	249.92680597305298	
45	221.26607298851013	fix_post	2		12	43.0	2.5	/experiments/knapen_AOT/AOT_stimuli/rescaled_final/2001_fw.mp4	0.0	250.43488001823425	0.10001587867736816
46	221.3660888671875	fix_pre	0		120	44.0	2.5	/experiments/knapen_AOT/AOT_stimuli/rescaled_final/1824_fw.mp4	0.0	250.53489589691162	1.000190019607544
46	222.35816097259521	pulse	0	t		44.0	2.5	/experiments/knapen_AOT/AOT_stimuli/rescaled_final/1824_fw.mp4	0.0	251.52696800231934	
46	222.36627888679504	movie	1		246	44.0	2.5	/experiments/knapen_AOT/AOT_stimuli/rescaled_final/1824_fw.mp4	0.0	251.53508591651917	2.5086679458618164
46	223.95905900001526	pulse	1	t		44.0	2.5	/experiments/knapen_AOT/AOT_stimuli/rescaled_final/1824_fw.mp4	0.0	253.12786602973938	
46	224.87494683265686	fix_post	2		12	44.0	2.5	/experiments/knapen_AOT/AOT_stimuli/rescaled_final/1824_fw.mp4	0.0	254.04375386238098	0.10003113746643066
47	224.9749779701233	fix_pre	0		120	45.0	2.5	/experiments/knapen_AOT/AOT_stimuli/rescaled_final/0975_rv.mp4	0.0	254.1437849998474	1.0001749992370605
47	225.55869579315186	pulse	0	t		45.0	2.5	/experiments/knapen_AOT/AOT_stimuli/rescaled_final/0975_rv.mp4	0.0	254.72750282287598	
47	225.97515296936035	movie	1		243	45.0	2.5	/experiments/knapen_AOT/AOT_stimuli/rescaled_final/0975_rv.mp4	0.0	255.14395999908447	2.500324010848999
47	227.1550009250641	pulse	1	t		45.0	2.5	/experiments/knapen_AOT/AOT_stimuli/rescaled_final/0975_rv.mp4	0.0	256.3238079547882	
47	228.47547698020935	fix_post	2		12	45.0	2.5	/experiments/knapen_AOT/AOT_stimuli/rescaled_final/0975_rv.mp4	0.0	257.6442840099335	0.10010886192321777
48	228.57558584213257	fix_pre	0		120	46.0	2.5	/experiments/knapen_AOT/AOT_stimuli/rescaled_final/2171_rv.mp4	0.0	257.7443928718567	1.0000860691070557
48	228.75910997390747	pulse	0	t		46.0	2.5	/experiments/knapen_AOT/AOT_stimuli/rescaled_final/2171_rv.mp4	0.0	257.9279170036316	
48	229.57567191123962	movie	1		243	46.0	2.5	/experiments/knapen_AOT/AOT_stimuli/rescaled_final/2171_rv.mp4	0.0	258.74447894096375	2.5003468990325928
48	230.35925388336182	pulse	1	t		46.0	2.5	/experiments/knapen_AOT/AOT_stimuli/rescaled_final/2171_rv.mp4	0.0	259.52806091308594	
48	231.95933985710144	pulse	1	t		46.0	2.5	/experiments/knapen_AOT/AOT_stimuli/rescaled_final/2171_rv.mp4	0.0	261.12814688682556	
48	232.07601881027222	fix_post	2		12	46.0	2.5	/experiments/knapen_AOT/AOT_stimuli/rescaled_final/2171_rv.mp4	0.0	261.24482583999634	0.1000220775604248
49	232.17604088783264	fix_pre	0		119	47.0	2.5	/experiments/knapen_AOT/AOT_stimuli/rescaled_final/0411_fw.mp4	0.0	261.34484791755676	0.9918210506439209
49	233.16786193847656	movie	1		245	47.0	2.5	/experiments/knapen_AOT/AOT_stimuli/rescaled_final/0411_fw.mp4	0.0	262.3366689682007	2.500369071960449
49	233.55574893951416	pulse	1	t		47.0	2.5	/experiments/knapen_AOT/AOT_stimuli/rescaled_final/0411_fw.mp4	0.0	262.7245559692383	
49	235.16008496284485	pulse	1	t		47.0	2.5	/experiments/knapen_AOT/AOT_stimuli/rescaled_final/0411_fw.mp4	0.0	264.32889199256897	
49	235.668231010437	fix_post	2		12	47.0	2.5	/experiments/knapen_AOT/AOT_stimuli/rescaled_final/0411_fw.mp4	0.0	264.83703804016113	0.10002493858337402
50	235.76825594902039	fix_pre	0		120	48.0	2.5	/experiments/knapen_AOT/AOT_stimuli/rescaled_final/0722_fw.mp4	0.0	264.9370629787445	1.000140905380249
50	236.76021099090576	pulse	0	t		48.0	2.5	/experiments/knapen_AOT/AOT_stimuli/rescaled_final/0722_fw.mp4	0.0	265.9290180206299	
50	236.76839685440063	movie	1		246	48.0	2.5	/experiments/knapen_AOT/AOT_stimuli/rescaled_final/0722_fw.mp4	0.0	265.93720388412476	2.5087130069732666
50	238.361163854599	pulse	1	t		48.0	2.5	/experiments/knapen_AOT/AOT_stimuli/rescaled_final/0722_fw.mp4	0.0	267.5299708843231	
50	239.2771098613739	fix_post	2		12	48.0	2.5	/experiments/knapen_AOT/AOT_stimuli/rescaled_final/0722_fw.mp4	0.0	268.445916891098	0.09999394416809082
51	239.377103805542	fix_pre	0		120	49.0	2.5	blank	1.0	268.5459108352661	1.0002009868621826
51	239.9533669948578	pulse	0	t		49.0	2.5	blank	1.0	269.1221740245819	
51	240.37730479240417	movie	1		300	49.0	2.5	blank	1.0	269.5461118221283	2.5003511905670166
51	241.55354285240173	pulse	1	t		49.0	2.5	blank	1.0	270.72234988212585	
51	242.8776559829712	fix_post	2		12	49.0	2.5	blank	1.0	272.0464630126953	0.09999489784240723
52	242.9776508808136	fix_pre	0		120	50.0	2.5	/experiments/knapen_AOT/AOT_stimuli/rescaled_final/0424_rv.mp4	0.0	272.1464579105377	1.0001540184020996
52	243.15372586250305	pulse	0	t		50.0	2.5	/experiments/knapen_AOT/AOT_stimuli/rescaled_final/0424_rv.mp4	0.0	272.3225328922272	
52	243.9778048992157	movie	1		245	50.0	2.5	/experiments/knapen_AOT/AOT_stimuli/rescaled_final/0424_rv.mp4	0.0	273.1466119289398	2.500359058380127
52	244.75399684906006	pulse	1	t		50.0	2.5	/experiments/knapen_AOT/AOT_stimuli/rescaled_final/0424_rv.mp4	0.0	273.9228038787842	
52	246.35342383384705	pulse	1	t		50.0	2.5	/experiments/knapen_AOT/AOT_stimuli/rescaled_final/0424_rv.mp4	0.0	275.52223086357117	
52	246.47816395759583	fix_post	2		12	50.0	2.5	/experiments/knapen_AOT/AOT_stimuli/rescaled_final/0424_rv.mp4	0.0	275.64697098731995	0.1000359058380127
53	246.57819986343384	fix_pre	0		120	51.0	2.5	/experiments/knapen_AOT/AOT_stimuli/rescaled_final/1432_fw.mp4	0.0	275.74700689315796	1.000157117843628
53	247.57835698127747	movie	1		243	51.0	2.5	/experiments/knapen_AOT/AOT_stimuli/rescaled_final/1432_fw.mp4	0.0	276.7471640110016	2.492027997970581
53	247.9535448551178	pulse	1	t		51.0	2.5	/experiments/knapen_AOT/AOT_stimuli/rescaled_final/1432_fw.mp4	0.0	277.1223518848419	
53	249.55389595031738	pulse	1	t		51.0	2.5	/experiments/knapen_AOT/AOT_stimuli/rescaled_final/1432_fw.mp4	0.0	278.7227029800415	
53	250.07038497924805	fix_post	2		12	51.0	2.5	/experiments/knapen_AOT/AOT_stimuli/rescaled_final/1432_fw.mp4	0.0	279.23919200897217	0.10001587867736816
54	250.17040085792542	fix_pre	0		119	52.0	2.5	/experiments/knapen_AOT/AOT_stimuli/rescaled_final/0935_fw.mp4	0.0	279.33920788764954	0.9917991161346436
54	251.1540858745575	pulse	0	t		52.0	2.5	/experiments/knapen_AOT/AOT_stimuli/rescaled_final/0935_fw.mp4	0.0	280.3228929042816	
54	251.16219997406006	movie	1		244	52.0	2.5	/experiments/knapen_AOT/AOT_stimuli/rescaled_final/0935_fw.mp4	0.0	280.3310070037842	2.508718967437744
54	252.75490593910217	pulse	1	t		52.0	2.5	/experiments/knapen_AOT/AOT_stimuli/rescaled_final/0935_fw.mp4	0.0	281.9237129688263	
54	253.6709189414978	fix_post	2		12	52.0	2.5	/experiments/knapen_AOT/AOT_stimuli/rescaled_final/0935_fw.mp4	0.0	282.8397259712219	0.1000359058380127
55	253.77095484733582	fix_pre	0		120	53.0	2.5	/experiments/knapen_AOT/AOT_stimuli/rescaled_final/0887_fw.mp4	0.0	282.93976187705994	1.0001161098480225
55	254.35464000701904	pulse	0	t		53.0	2.5	/experiments/knapen_AOT/AOT_stimuli/rescaled_final/0887_fw.mp4	0.0	283.52344703674316	
55	254.77107095718384	movie	1		244	53.0	2.5	/experiments/knapen_AOT/AOT_stimuli/rescaled_final/0887_fw.mp4	0.0	283.93987798690796	2.500454902648926
55	255.9548819065094	pulse	1	t		53.0	2.5	/experiments/knapen_AOT/AOT_stimuli/rescaled_final/0887_fw.mp4	0.0	285.1236889362335	
55	257.27152585983276	fix_post	2		12	53.0	2.5	/experiments/knapen_AOT/AOT_stimuli/rescaled_final/0887_fw.mp4	0.0	286.4403328895569	0.0999460220336914
56	257.37147188186646	fix_pre	0		120	54.0	2.5	/experiments/knapen_AOT/AOT_stimuli/rescaled_final/1084_rv.mp4	0.0	286.5402789115906	1.0001640319824219
56	257.55501890182495	pulse	0	t		54.0	2.5	/experiments/knapen_AOT/AOT_stimuli/rescaled_final/1084_rv.mp4	0.0	286.7238259315491	
56	258.3716359138489	movie	1		240	54.0	2.5	/experiments/knapen_AOT/AOT_stimuli/rescaled_final/1084_rv.mp4	0.0	287.540442943573	2.4921469688415527
56	259.1552448272705	pulse	1	t		54.0	2.5	/experiments/knapen_AOT/AOT_stimuli/rescaled_final/1084_rv.mp4	0.0	288.32405185699463	
56	260.75563883781433	pulse	1	t		54.0	2.5	/experiments/knapen_AOT/AOT_stimuli/rescaled_final/1084_rv.mp4	0.0	289.92444586753845	
56	260.86378288269043	fix_post	2		13	54.0	2.5	/experiments/knapen_AOT/AOT_stimuli/rescaled_final/1084_rv.mp4	0.0	290.03258991241455	0.10825109481811523
57	260.97203397750854	fix_pre	0		120	55.0	2.5	/experiments/knapen_AOT/AOT_stimuli/rescaled_final/1420_rv.mp4	0.0	290.14084100723267	1.0001029968261719
57	261.9721369743347	movie	1		243	55.0	2.5	/experiments/knapen_AOT/AOT_stimuli/rescaled_final/1420_rv.mp4	0.0	291.14094400405884	2.492055892944336
57	262.35634183883667	pulse	1	t		55.0	2.5	/experiments/knapen_AOT/AOT_stimuli/rescaled_final/1420_rv.mp4	0.0	291.5251488685608	
57	263.9559979438782	pulse	1	t		55.0	2.5	/experiments/knapen_AOT/AOT_stimuli/rescaled_final/1420_rv.mp4	0.0	293.1248049736023	
57	264.46419286727905	fix_post	2		12	55.0	2.5	/experiments/knapen_AOT/AOT_stimuli/rescaled_final/1420_rv.mp4	0.0	293.6329998970032	0.10003209114074707
58	264.5642249584198	fix_pre	0		120	56.0	2.5	blank	1.0	293.7330319881439	1.0001459121704102
58	265.55616092681885	pulse	0	t		56.0	2.5	blank	1.0	294.72496795654297	
58	265.5643708705902	movie	1		301	56.0	2.5	blank	1.0	294.73317790031433	2.5086920261383057
58	267.156457901001	pulse	1	t		56.0	2.5	blank	1.0	296.3252649307251	
58	268.0730628967285	fix_post	2		12	56.0	2.5	blank	1.0	297.24186992645264	0.10002398490905762
59	268.1730868816376	fix_pre	0		120	57.0	2.5	/experiments/knapen_AOT/AOT_stimuli/rescaled_final/0206_fw.mp4	0.0	297.3418939113617	1.0001380443572998
59	268.75678396224976	pulse	0	t		57.0	2.5	/experiments/knapen_AOT/AOT_stimuli/rescaled_final/0206_fw.mp4	0.0	297.9255909919739	
59	269.1732249259949	movie	1		244	57.0	2.5	/experiments/knapen_AOT/AOT_stimuli/rescaled_final/0206_fw.mp4	0.0	298.342031955719	2.50032901763916
59	270.35706782341003	pulse	1	t		57.0	2.5	/experiments/knapen_AOT/AOT_stimuli/rescaled_final/0206_fw.mp4	0.0	299.52587485313416	
59	271.67355394363403	fix_post	2		12	57.0	2.5	/experiments/knapen_AOT/AOT_stimuli/rescaled_final/0206_fw.mp4	0.0	300.84236097335815	0.10007500648498535
60	271.773628950119	fix_pre	0		120	58.0	2.5	/experiments/knapen_AOT/AOT_stimuli/rescaled_final/0080_fw.mp4	0.0	300.94243597984314	1.0001530647277832
60	271.95711302757263	pulse	0	t		58.0	2.5	/experiments/knapen_AOT/AOT_stimuli/rescaled_final/0080_fw.mp4	0.0	301.12592005729675	
60	272.7737820148468	movie	1		246	58.0	2.5	/experiments/knapen_AOT/AOT_stimuli/rescaled_final/0080_fw.mp4	0.0	301.9425890445709	2.500356912612915
60	273.55748081207275	pulse	1	t		58.0	2.5	/experiments/knapen_AOT/AOT_stimuli/rescaled_final/0080_fw.mp4	0.0	302.7262878417969	
60	275.1577208042145	pulse	1	t		58.0	2.5	/experiments/knapen_AOT/AOT_stimuli/rescaled_final/0080_fw.mp4	0.0	304.3265278339386	
60	275.2741389274597	fix_post	2		12	58.0	2.5	/experiments/knapen_AOT/AOT_stimuli/rescaled_final/0080_fw.mp4	0.0	304.44294595718384	0.10002303123474121
61	275.37416195869446	fix_pre	0		120	59.0	2.5	/experiments/knapen_AOT/AOT_stimuli/rescaled_final/1789_fw.mp4	0.0	304.5429689884186	1.0001659393310547
61	276.3743278980255	movie	1		245	59.0	2.5	/experiments/knapen_AOT/AOT_stimuli/rescaled_final/1789_fw.mp4	0.0	305.54313492774963	2.4920051097869873
61	276.7584939002991	pulse	1	t		59.0	2.5	/experiments/knapen_AOT/AOT_stimuli/rescaled_final/1789_fw.mp4	0.0	305.9273009300232	
61	278.3581049442291	pulse	1	t		59.0	2.5	/experiments/knapen_AOT/AOT_stimuli/rescaled_final/1789_fw.mp4	0.0	307.52691197395325	
61	278.8663330078125	fix_post	2		12	59.0	2.5	/experiments/knapen_AOT/AOT_stimuli/rescaled_final/1789_fw.mp4	0.0	308.0351400375366	0.10010480880737305
62	278.9664378166199	fix_pre	0		120	60.0	2.5	/experiments/knapen_AOT/AOT_stimuli/rescaled_final/0607_rv.mp4	0.0	308.135244846344	1.0000591278076172
62	279.9583308696747	pulse	0	t		60.0	2.5	/experiments/knapen_AOT/AOT_stimuli/rescaled_final/0607_rv.mp4	0.0	309.1271378993988	
62	279.9664969444275	movie	1		246	60.0	2.5	/experiments/knapen_AOT/AOT_stimuli/rescaled_final/0607_rv.mp4	0.0	309.1353039741516	2.508730888366699
62	281.5591039657593	pulse	1	t		60.0	2.5	/experiments/knapen_AOT/AOT_stimuli/rescaled_final/0607_rv.mp4	0.0	310.7279109954834	
62	282.4752278327942	fix_post	2		12	60.0	2.5	/experiments/knapen_AOT/AOT_stimuli/rescaled_final/0607_rv.mp4	0.0	311.6440348625183	0.10000014305114746
63	282.57522797584534	fix_pre	0		120	61.0	2.5	blank	1.0	311.74403500556946	1.0001769065856934
63	283.1589059829712	pulse	0	t		61.0	2.5	blank	1.0	312.3277130126953	
63	283.57540488243103	movie	1		300	61.0	2.5	blank	1.0	312.74421191215515	2.500356912612915
63	284.75905990600586	pulse	1	t		61.0	2.5	blank	1.0	313.92786693573	
63	286.07576179504395	fix_post	2		12	61.0	2.5	blank	1.0	315.24456882476807	0.09999513626098633
64	286.17575693130493	fix_pre	0		120	62.0	2.5	/experiments/knapen_AOT/AOT_stimuli/rescaled_final/0703_fw.mp4	0.0	315.34456396102905	1.0001540184020996
64	286.3593668937683	pulse	0	t		62.0	2.5	/experiments/knapen_AOT/AOT_stimuli/rescaled_final/0703_fw.mp4	0.0	315.52817392349243	
64	287.17591094970703	movie	1		245	62.0	2.5	/experiments/knapen_AOT/AOT_stimuli/rescaled_final/0703_fw.mp4	0.0	316.34471797943115	2.5003368854522705
64	287.95968890190125	pulse	1	t		62.0	2.5	/experiments/knapen_AOT/AOT_stimuli/rescaled_final/0703_fw.mp4	0.0	317.12849593162537	
64	289.5574858188629	pulse	1	t		62.0	2.5	/experiments/knapen_AOT/AOT_stimuli/rescaled_final/0703_fw.mp4	0.0	318.72629284858704	
64	289.6762478351593	fix_post	2		12	62.0	2.5	/experiments/knapen_AOT/AOT_stimuli/rescaled_final/0703_fw.mp4	0.0	318.8450548648834	0.1000661849975586
65	289.77631402015686	fix_pre	0		120	63.0	2.5	/experiments/knapen_AOT/AOT_stimuli/rescaled_final/1600_rv.mp4	0.0	318.945121049881	1.0002269744873047
65	290.77654099464417	movie	1		244	63.0	2.5	/experiments/knapen_AOT/AOT_stimuli/rescaled_final/1600_rv.mp4	0.0	319.9453480243683	2.491976022720337
65	291.1607120037079	pulse	1	t		63.0	2.5	/experiments/knapen_AOT/AOT_stimuli/rescaled_final/1600_rv.mp4	0.0	320.329519033432	
65	292.75302386283875	pulse	1	t		63.0	2.5	/experiments/knapen_AOT/AOT_stimuli/rescaled_final/1600_rv.mp4	0.0	321.92183089256287	
65	293.2685170173645	fix_post	2		12	63.0	2.5	/experiments/knapen_AOT/AOT_stimuli/rescaled_final/1600_rv.mp4	0.0	322.4373240470886	0.1000828742980957
66	293.3685998916626	fix_pre	0		120	64.0	2.5	/experiments/knapen_AOT/AOT_stimuli/rescaled_final/1567_rv.mp4	0.0	322.5374069213867	1.0000801086425781
66	294.35293984413147	pulse	0	t		64.0	2.5	/experiments/knapen_AOT/AOT_stimuli/rescaled_final/1567_rv.mp4	0.0	323.5217468738556	
66	294.3686800003052	movie	1		245	64.0	2.5	/experiments/knapen_AOT/AOT_stimuli/rescaled_final/1567_rv.mp4	0.0	323.5374870300293	2.508671998977661
66	295.96215295791626	pulse	1	t		64.0	2.5	/experiments/knapen_AOT/AOT_stimuli/rescaled_final/1567_rv.mp4	0.0	325.1309599876404	
66	296.87735199928284	fix_post	2		12	64.0	2.5	/experiments/knapen_AOT/AOT_stimuli/rescaled_final/1567_rv.mp4	0.0	326.04615902900696	0.10000801086425781
67	296.9773600101471	fix_pre	0		120	65.0	2.5	/experiments/knapen_AOT/AOT_stimuli/rescaled_final/0530_rv.mp4	0.0	326.1461670398712	1.0001628398895264
67	297.55355501174927	pulse	0	t		65.0	2.5	/experiments/knapen_AOT/AOT_stimuli/rescaled_final/0530_rv.mp4	0.0	326.7223620414734	
67	297.9775228500366	movie	1		244	65.0	2.5	/experiments/knapen_AOT/AOT_stimuli/rescaled_final/0530_rv.mp4	0.0	327.14632987976074	2.5003721714019775
67	299.15334391593933	pulse	1	t		65.0	2.5	/experiments/knapen_AOT/AOT_stimuli/rescaled_final/0530_rv.mp4	0.0	328.32215094566345	
67	300.4778950214386	fix_post	2		12	65.0	2.5	/experiments/knapen_AOT/AOT_stimuli/rescaled_final/0530_rv.mp4	0.0	329.6467020511627	0.1000058650970459
68	300.57790088653564	fix_pre	0		120	66.0	2.5	/experiments/knapen_AOT/AOT_stimuli/rescaled_final/2149_fw.mp4	0.0	329.74670791625977	1.0001580715179443
68	300.75322794914246	pulse	0	t		66.0	2.5	/experiments/knapen_AOT/AOT_stimuli/rescaled_final/2149_fw.mp4	0.0	329.9220349788666	
68	301.5780589580536	movie	1		256	66.0	2.5	/experiments/knapen_AOT/AOT_stimuli/rescaled_final/2149_fw.mp4	0.0	330.7468659877777	2.500417947769165
68	302.35332202911377	pulse	1	t		66.0	2.5	/experiments/knapen_AOT/AOT_stimuli/rescaled_final/2149_fw.mp4	0.0	331.5221290588379	
68	303.9536769390106	pulse	1	t		66.0	2.5	/experiments/knapen_AOT/AOT_stimuli/rescaled_final/2149_fw.mp4	0.0	333.12248396873474	
68	304.07847690582275	fix_post	2		12	66.0	2.5	/experiments/knapen_AOT/AOT_stimuli/rescaled_final/2149_fw.mp4	0.0	333.2472839355469	0.09996390342712402
69	304.1784408092499	fix_pre	0		120	67.0	2.5	/experiments/knapen_AOT/AOT_stimuli/rescaled_final/1047_fw.mp4	0.0	333.347247838974	1.0001940727233887
69	305.17863488197327	movie	1		243	67.0	2.5	/experiments/knapen_AOT/AOT_stimuli/rescaled_final/1047_fw.mp4	0.0	334.3474419116974	2.492048978805542
69	305.55398201942444	pulse	1	t		67.0	2.5	/experiments/knapen_AOT/AOT_stimuli/rescaled_final/1047_fw.mp4	0.0	334.72278904914856	
69	307.15427899360657	pulse	1	t		67.0	2.5	/experiments/knapen_AOT/AOT_stimuli/rescaled_final/1047_fw.mp4	0.0	336.3230860233307	
69	307.6706838607788	fix_post	2		12	67.0	2.5	/experiments/knapen_AOT/AOT_stimuli/rescaled_final/1047_fw.mp4	0.0	336.83949089050293	0.09997797012329102
70	307.7706618309021	fix_pre	0		119	68.0	2.5	/experiments/knapen_AOT/AOT_stimuli/rescaled_final/0569_fw.mp4	0.0	336.9394688606262	0.9918050765991211
70	308.75426983833313	pulse	0	t		68.0	2.5	/experiments/knapen_AOT/AOT_stimuli/rescaled_final/0569_fw.mp4	0.0	337.92307686805725	
70	308.7624669075012	movie	1		247	68.0	2.5	/experiments/knapen_AOT/AOT_stimuli/rescaled_final/0569_fw.mp4	0.0	337.93127393722534	2.5087080001831055
70	310.35941791534424	pulse	1	t		68.0	2.5	/experiments/knapen_AOT/AOT_stimuli/rescaled_final/0569_fw.mp4	0.0	339.52822494506836	
70	311.2711749076843	fix_post	2		12	68.0	2.5	/experiments/knapen_AOT/AOT_stimuli/rescaled_final/0569_fw.mp4	0.0	340.43998193740845	0.10000395774841309
71	311.37117886543274	fix_pre	0		120	69.0	2.5	blank	1.0	340.53998589515686	1.0002660751342773
71	311.95487689971924	pulse	0	t		69.0	2.5	blank	1.0	341.12368392944336	
71	312.371444940567	movie	1		300	69.0	2.5	blank	1.0	341.54025197029114	2.5002479553222656
71	313.5551929473877	pulse	1	t		69.0	2.5	blank	1.0	342.7239999771118	
71	314.8716928958893	fix_post	2		12	69.0	2.5	blank	1.0	344.0404999256134	0.10002613067626953
72	314.97171902656555	fix_pre	0		120	70.0	2.5	/experiments/knapen_AOT/AOT_stimuli/rescaled_final/0978_fw.mp4	0.0	344.1405260562897	1.0002028942108154
72	315.1551959514618	pulse	0	t		70.0	2.5	/experiments/knapen_AOT/AOT_stimuli/rescaled_final/0978_fw.mp4	0.0	344.3240029811859	
72	315.97192192077637	movie	1		243	70.0	2.5	/experiments/knapen_AOT/AOT_stimuli/rescaled_final/0978_fw.mp4	0.0	345.1407289505005	2.5002920627593994
72	316.755578994751	pulse	1	t		70.0	2.5	/experiments/knapen_AOT/AOT_stimuli/rescaled_final/0978_fw.mp4	0.0	345.9243860244751	
72	318.35544991493225	pulse	1	t		70.0	2.5	/experiments/knapen_AOT/AOT_stimuli/rescaled_final/0978_fw.mp4	0.0	347.5242569446564	
72	318.47221398353577	fix_post	2		12	70.0	2.5	/experiments/knapen_AOT/AOT_stimuli/rescaled_final/0978_fw.mp4	0.0	347.6410210132599	0.1000528335571289
73	318.5722668170929	fix_pre	0		117	71.0	2.5	/experiments/knapen_AOT/AOT_stimuli/rescaled_final/2107_rv.mp4	0.0	347.741073846817	0.9918050765991211
73	319.564071893692	movie	1		256	71.0	2.5	/experiments/knapen_AOT/AOT_stimuli/rescaled_final/2107_rv.mp4	0.0	348.73287892341614	2.500378131866455
73	319.9559860229492	pulse	1	t		71.0	2.5	/experiments/knapen_AOT/AOT_stimuli/rescaled_final/2107_rv.mp4	0.0	349.12479305267334	
73	321.5561578273773	pulse	1	t		71.0	2.5	/experiments/knapen_AOT/AOT_stimuli/rescaled_final/2107_rv.mp4	0.0	350.72496485710144	
73	322.0644500255585	fix_post	2		12	71.0	2.5	/experiments/knapen_AOT/AOT_stimuli/rescaled_final/2107_rv.mp4	0.0	351.2332570552826	0.10003280639648438
74	322.16448283195496	fix_pre	0		120	72.0	2.5	/experiments/knapen_AOT/AOT_stimuli/rescaled_final/1015_rv.mp4	0.0	351.3332898616791	1.0001490116119385
74	323.15644788742065	pulse	0	t		72.0	2.5	/experiments/knapen_AOT/AOT_stimuli/rescaled_final/1015_rv.mp4	0.0	352.3252549171448	
74	323.1646318435669	movie	1		251	72.0	2.5	/experiments/knapen_AOT/AOT_stimuli/rescaled_final/1015_rv.mp4	0.0	352.333438873291	2.508690118789673
74	324.7573928833008	pulse	1	t		72.0	2.5	/experiments/knapen_AOT/AOT_stimuli/rescaled_final/1015_rv.mp4	0.0	353.9261999130249	
74	325.67332196235657	fix_post	2		12	72.0	2.5	/experiments/knapen_AOT/AOT_stimuli/rescaled_final/1015_rv.mp4	0.0	354.8421289920807	0.10001897811889648
75	325.77334094047546	fix_pre	0		120	73.0	2.5	/experiments/knapen_AOT/AOT_stimuli/rescaled_final/1781_fw.mp4	0.0	354.9421479701996	1.000154972076416
75	326.356969833374	pulse	0	t		73.0	2.5	/experiments/knapen_AOT/AOT_stimuli/rescaled_final/1781_fw.mp4	0.0	355.52577686309814	
75	326.7734959125519	movie	1		245	73.0	2.5	/experiments/knapen_AOT/AOT_stimuli/rescaled_final/1781_fw.mp4	0.0	355.942302942276	2.5003609657287598
75	327.9573678970337	pulse	1	t		73.0	2.5	/experiments/knapen_AOT/AOT_stimuli/rescaled_final/1781_fw.mp4	0.0	357.1261749267578	
75	329.27385687828064	fix_post	2		12	73.0	2.5	/experiments/knapen_AOT/AOT_stimuli/rescaled_final/1781_fw.mp4	0.0	358.44266390800476	0.10006213188171387
76	329.37391901016235	fix_pre	0		120	74.0	2.5	/experiments/knapen_AOT/AOT_stimuli/rescaled_final/1551_fw.mp4	0.0	358.5427260398865	1.0001018047332764
76	329.5574839115143	pulse	0	t		74.0	2.5	/experiments/knapen_AOT/AOT_stimuli/rescaled_final/1551_fw.mp4	0.0	358.7262909412384	
76	330.37402081489563	movie	1		246	74.0	2.5	/experiments/knapen_AOT/AOT_stimuli/rescaled_final/1551_fw.mp4	0.0	359.54282784461975	2.5003740787506104
76	331.15779399871826	pulse	1	t		74.0	2.5	/experiments/knapen_AOT/AOT_stimuli/rescaled_final/1551_fw.mp4	0.0	360.3266010284424	
76	332.7579770088196	pulse	1	t		74.0	2.5	/experiments/knapen_AOT/AOT_stimuli/rescaled_final/1551_fw.mp4	0.0	361.9267840385437	
76	332.87439489364624	fix_post	2		12	74.0	2.5	/experiments/knapen_AOT/AOT_stimuli/rescaled_final/1551_fw.mp4	0.0	362.04320192337036	0.10006403923034668
77	332.9744589328766	fix_pre	0		119	75.0	2.5	/experiments/knapen_AOT/AOT_stimuli/rescaled_final/0723_rv.mp4	0.0	362.1432659626007	0.99180006980896
77	333.96625900268555	movie	1		246	75.0	2.5	/experiments/knapen_AOT/AOT_stimuli/rescaled_final/0723_rv.mp4	0.0	363.13506603240967	2.5003459453582764
77	334.358206987381	pulse	1	t		75.0	2.5	/experiments/knapen_AOT/AOT_stimuli/rescaled_final/0723_rv.mp4	0.0	363.5270140171051	
77	335.9584219455719	pulse	1	t		75.0	2.5	/experiments/knapen_AOT/AOT_stimuli/rescaled_final/0723_rv.mp4	0.0	365.127228975296	
77	336.4666049480438	fix_post	2		12	75.0	2.5	/experiments/knapen_AOT/AOT_stimuli/rescaled_final/0723_rv.mp4	0.0	365.63541197776794	0.10000491142272949
78	336.56660985946655	fix_pre	0		120	76.0	2.5	blank	1.0	365.7354168891907	1.0001771450042725
78	337.55866384506226	pulse	0	t		76.0	2.5	blank	1.0	366.7274708747864	
78	337.5667870044708	movie	1		301	76.0	2.5	blank	1.0	366.73559403419495	2.5087058544158936
78	339.1589779853821	pulse	1	t		76.0	2.5	blank	1.0	368.3277850151062	
78	340.0754928588867	fix_post	2		12	76.0	2.5	blank	1.0	369.24429988861084	0.10000395774841309
79	340.17549681663513	fix_pre	0		120	77.0	2.5	/experiments/knapen_AOT/AOT_stimuli/rescaled_final/1965_fw.mp4	0.0	369.34430384635925	1.0001850128173828
79	340.7591109275818	pulse	0	t		77.0	2.5	/experiments/knapen_AOT/AOT_stimuli/rescaled_final/1965_fw.mp4	0.0	369.9279179573059	
79	341.1756818294525	movie	1		245	77.0	2.5	/experiments/knapen_AOT/AOT_stimuli/rescaled_final/1965_fw.mp4	0.0	370.34448885917664	2.5003180503845215
79	342.3594288825989	pulse	1	t		77.0	2.5	/experiments/knapen_AOT/AOT_stimuli/rescaled_final/1965_fw.mp4	0.0	371.528235912323	
79	343.67599987983704	fix_post	2		12	77.0	2.5	/experiments/knapen_AOT/AOT_stimuli/rescaled_final/1965_fw.mp4	0.0	372.84480690956116	0.10001802444458008
80	343.7760179042816	fix_pre	0		120	78.0	2.5	/experiments/knapen_AOT/AOT_stimuli/rescaled_final/1204_rv.mp4	0.0	372.94482493400574	1.0001659393310547
80	343.9595730304718	pulse	0	t		78.0	2.5	/experiments/knapen_AOT/AOT_stimuli/rescaled_final/1204_rv.mp4	0.0	373.1283800601959	
80	344.77618384361267	movie	1		244	78.0	2.5	/experiments/knapen_AOT/AOT_stimuli/rescaled_final/1204_rv.mp4	0.0	373.9449908733368	2.5003530979156494
80	345.55984592437744	pulse	1	t		78.0	2.5	/experiments/knapen_AOT/AOT_stimuli/rescaled_final/1204_rv.mp4	0.0	374.72865295410156	
80	347.16010093688965	pulse	1	t		78.0	2.5	/experiments/knapen_AOT/AOT_stimuli/rescaled_final/1204_rv.mp4	0.0	376.32890796661377	
80	347.2765369415283	fix_post	2		12	78.0	2.5	/experiments/knapen_AOT/AOT_stimuli/rescaled_final/1204_rv.mp4	0.0	376.44534397125244	0.10002994537353516
81	347.37656688690186	fix_pre	0		120	79.0	2.5	/experiments/knapen_AOT/AOT_stimuli/rescaled_final/0073_fw.mp4	0.0	376.545373916626	1.0001509189605713
81	348.3767178058624	movie	1		243	79.0	2.5	/experiments/knapen_AOT/AOT_stimuli/rescaled_final/0073_fw.mp4	0.0	377.54552483558655	2.4920220375061035
81	348.76162791252136	pulse	1	t		79.0	2.5	/experiments/knapen_AOT/AOT_stimuli/rescaled_final/0073_fw.mp4	0.0	377.9304349422455	
81	350.353178024292	pulse	1	t		79.0	2.5	/experiments/knapen_AOT/AOT_stimuli/rescaled_final/0073_fw.mp4	0.0	379.5219850540161	
81	350.86873984336853	fix_post	2		12	79.0	2.5	/experiments/knapen_AOT/AOT_stimuli/rescaled_final/0073_fw.mp4	0.0	380.03754687309265	0.10004997253417969
82	350.9687898159027	fix_pre	0		120	80.0	2.5	/experiments/knapen_AOT/AOT_stimuli/rescaled_final/1282_fw.mp4	0.0	380.13759684562683	1.0001699924468994
82	351.9532239437103	pulse	0	t		80.0	2.5	/experiments/knapen_AOT/AOT_stimuli/rescaled_final/1282_fw.mp4	0.0	381.12203097343445	
82	351.9689598083496	movie	1		245	80.0	2.5	/experiments/knapen_AOT/AOT_stimuli/rescaled_final/1282_fw.mp4	0.0	381.13776683807373	2.508657217025757
82	353.5528829097748	pulse	1	t		80.0	2.5	/experiments/knapen_AOT/AOT_stimuli/rescaled_final/1282_fw.mp4	0.0	382.7216899394989	
82	354.47761702537537	fix_post	2		12	80.0	2.5	/experiments/knapen_AOT/AOT_stimuli/rescaled_final/1282_fw.mp4	0.0	383.6464240550995	0.10001587867736816
83	354.57763290405273	fix_pre	0		120	81.0	2.5	/experiments/knapen_AOT/AOT_stimuli/rescaled_final/1016_rv.mp4	0.0	383.74643993377686	1.0002460479736328
83	355.1528539657593	pulse	0	t		81.0	2.5	/experiments/knapen_AOT/AOT_stimuli/rescaled_final/1016_rv.mp4	0.0	384.3216609954834	
83	355.57787895202637	movie	1		244	81.0	2.5	/experiments/knapen_AOT/AOT_stimuli/rescaled_final/1016_rv.mp4	0.0	384.7466859817505	2.500298023223877
83	356.7546148300171	pulse	1	t		81.0	2.5	/experiments/knapen_AOT/AOT_stimuli/rescaled_final/1016_rv.mp4	0.0	385.9234218597412	
83	358.07817697525024	fix_post	2		12	81.0	2.5	/experiments/knapen_AOT/AOT_stimuli/rescaled_final/1016_rv.mp4	0.0	387.24698400497437	0.09998393058776855
84	358.178160905838	fix_pre	0		120	82.0	2.5	/experiments/knapen_AOT/AOT_stimuli/rescaled_final/1421_rv.mp4	0.0	387.34696793556213	1.000243902206421
84	358.35353899002075	pulse	0	t		82.0	2.5	/experiments/knapen_AOT/AOT_stimuli/rescaled_final/1421_rv.mp4	0.0	387.5223460197449	
84	359.17840480804443	movie	1		244	82.0	2.5	/experiments/knapen_AOT/AOT_stimuli/rescaled_final/1421_rv.mp4	0.0	388.34721183776855	2.5002431869506836
84	359.95364785194397	pulse	1	t		82.0	2.5	/experiments/knapen_AOT/AOT_stimuli/rescaled_final/1421_rv.mp4	0.0	389.1224548816681	
84	361.55388498306274	pulse	1	t		82.0	2.5	/experiments/knapen_AOT/AOT_stimuli/rescaled_final/1421_rv.mp4	0.0	390.72269201278687	
84	361.6786479949951	fix_post	2		12	82.0	2.5	/experiments/knapen_AOT/AOT_stimuli/rescaled_final/1421_rv.mp4	0.0	390.84745502471924	0.1000518798828125
85	361.77869987487793	fix_pre	0		119	83.0	2.5	blank	1.0	390.94750690460205	0.9918019771575928
85	362.7705018520355	movie	1		300	83.0	2.5	blank	1.0	391.93930888175964	2.5004119873046875
85	363.1541039943695	pulse	1	t		83.0	2.5	blank	1.0	392.3229110240936	
85	364.7545177936554	pulse	1	t		83.0	2.5	blank	1.0	393.9233248233795	
85	365.2709138393402	fix_post	2		12	83.0	2.5	blank	1.0	394.43972086906433	0.09998106956481934
87	365.37089490890503	stim	0		1716					394.53970193862915	14.302159070968628
87	366.35465693473816	pulse	0	t						395.5234639644623	
87	367.9548418521881	pulse	0	t						397.12364888191223	
87	369.55503392219543	pulse	0	t						398.72384095191956	
87	371.1552698612213	pulse	0	t						400.32407689094543	
87	372.7556538581848	pulse	0	t						401.92446088790894	
87	374.35579085350037	pulse	0	t						403.5245978832245	
87	375.9559848308563	pulse	0	t						405.12479186058044	
87	377.5561738014221	pulse	0	t						406.72498083114624	
87	379.15652990341187	pulse	0	t						408.325336933136	
