trial_nr	onset	event_type	phase	response	nr_frames	movie_index	movie_duration	movie_file	blank	onset_abs	duration
0	0.15821099281311035	stim	0		194					21.32263207435608	1.6167359352111816
0	1.7668368816375732	response	0	space						22.931257963180542	
1	1.774946928024292	stim	0		10731					22.93936800956726	89.42454290390015
1	91.19300603866577	pulse	0	t						112.35742712020874	
1	91.19948983192444	stim	1		1717					112.36391091346741	14.30820608139038
1	92.79142093658447	pulse	1	t						113.95584201812744	
1	94.39137482643127	pulse	1	t						115.55579590797424	
1	95.99086499214172	pulse	1	t						117.15528607368469	
1	97.59104681015015	pulse	1	t						118.75546789169312	
1	99.1912260055542	pulse	1	t						120.35564708709717	
1	100.79124093055725	pulse	1	t						121.95566201210022	
1	102.39124083518982	pulse	1	t						123.55566191673279	
1	103.99115800857544	pulse	1	t						125.15557909011841	
2	105.50769591331482	fix_pre	0		11	0.0	2.5	/experiments/AOT/AOT_stimuli/rescaled_final/0584_rv.mp4	0.0	126.67211699485779	0.09175395965576172
2	105.59128093719482	pulse	0	t		0.0	2.5	/experiments/AOT/AOT_stimuli/rescaled_final/0584_rv.mp4	0.0	126.7557020187378	
2	105.59944987297058	movie	1		245	0.0	2.5	/experiments/AOT/AOT_stimuli/rescaled_final/0584_rv.mp4	0.0	126.76387095451355	2.508242130279541
2	107.1905620098114	pulse	1	t		0.0	2.5	/experiments/AOT/AOT_stimuli/rescaled_final/0584_rv.mp4	0.0	128.35498309135437	
2	108.10769200325012	fix_post	2		12	0.0	2.5	/experiments/AOT/AOT_stimuli/rescaled_final/0584_rv.mp4	0.0	129.2721130847931	0.10006093978881836
3	108.20775294303894	fix_pre	0		120	1.0	2.5	/experiments/AOT/AOT_stimuli/rescaled_final/2005_rv.mp4	0.0	129.3721740245819	0.9999430179595947
3	108.79118084907532	pulse	0	t		1.0	2.5	/experiments/AOT/AOT_stimuli/rescaled_final/2005_rv.mp4	0.0	129.9556019306183	
3	109.20769596099854	movie	1		249	1.0	2.5	/experiments/AOT/AOT_stimuli/rescaled_final/2005_rv.mp4	0.0	130.3721170425415	2.5001108646392822
3	110.39130902290344	pulse	1	t		1.0	2.5	/experiments/AOT/AOT_stimuli/rescaled_final/2005_rv.mp4	0.0	131.5557301044464	
3	111.70780682563782	fix_post	2		12	1.0	2.5	/experiments/AOT/AOT_stimuli/rescaled_final/2005_rv.mp4	0.0	132.8722279071808	0.09992408752441406
4	111.80773091316223	fix_pre	0		120	2.0	2.5	/experiments/AOT/AOT_stimuli/rescaled_final/1600_fw.mp4	0.0	132.9721519947052	1.0000009536743164
4	111.991201877594	pulse	0	t		2.0	2.5	/experiments/AOT/AOT_stimuli/rescaled_final/1600_fw.mp4	0.0	133.15562295913696	
4	112.80773186683655	movie	1		244	2.0	2.5	/experiments/AOT/AOT_stimuli/rescaled_final/1600_fw.mp4	0.0	133.97215294837952	2.5000760555267334
4	113.59120798110962	pulse	1	t		2.0	2.5	/experiments/AOT/AOT_stimuli/rescaled_final/1600_fw.mp4	0.0	134.7556290626526	
4	115.18968796730042	pulse	1	t		2.0	2.5	/experiments/AOT/AOT_stimuli/rescaled_final/1600_fw.mp4	0.0	136.35410904884338	
4	115.30780792236328	fix_post	2		12	2.0	2.5	/experiments/AOT/AOT_stimuli/rescaled_final/1600_fw.mp4	0.0	136.47222900390625	0.09994006156921387
5	115.4077479839325	fix_pre	0		120	3.0	2.5	/experiments/AOT/AOT_stimuli/rescaled_final/1558_rv.mp4	0.0	136.57216906547546	1.0000028610229492
5	116.40775084495544	movie	1		245	3.0	2.5	/experiments/AOT/AOT_stimuli/rescaled_final/1558_rv.mp4	0.0	137.5721719264984	2.5000109672546387
5	116.79202890396118	pulse	1	t		3.0	2.5	/experiments/AOT/AOT_stimuli/rescaled_final/1558_rv.mp4	0.0	137.95644998550415	
5	118.39116287231445	pulse	1	t		3.0	2.5	/experiments/AOT/AOT_stimuli/rescaled_final/1558_rv.mp4	0.0	139.55558395385742	
5	118.90776181221008	fix_post	2		12	3.0	2.5	/experiments/AOT/AOT_stimuli/rescaled_final/1558_rv.mp4	0.0	140.07218289375305	0.09995818138122559
6	119.00771999359131	fix_pre	0		119	4.0	2.5	/experiments/AOT/AOT_stimuli/rescaled_final/2137_rv.mp4	0.0	140.17214107513428	0.9916279315948486
6	119.99130392074585	pulse	0	t		4.0	2.5	/experiments/AOT/AOT_stimuli/rescaled_final/2137_rv.mp4	0.0	141.15572500228882	
6	119.99934792518616	movie	1		244	4.0	2.5	/experiments/AOT/AOT_stimuli/rescaled_final/2137_rv.mp4	0.0	141.16376900672913	2.5083019733428955
6	121.59109783172607	pulse	1	t		4.0	2.5	/experiments/AOT/AOT_stimuli/rescaled_final/2137_rv.mp4	0.0	142.75551891326904	
6	122.50764989852905	fix_post	2		12	4.0	2.5	/experiments/AOT/AOT_stimuli/rescaled_final/2137_rv.mp4	0.0	143.67207098007202	0.10012698173522949
7	122.60777688026428	fix_pre	0		120	5.0	2.5	blank	1.0	143.77219796180725	0.9999361038208008
7	123.19121980667114	pulse	0	t		5.0	2.5	blank	1.0	144.3556408882141	
7	123.60771298408508	movie	1		300	5.0	2.5	blank	1.0	144.77213406562805	2.499987840652466
7	124.79112601280212	pulse	1	t		5.0	2.5	blank	1.0	145.9555470943451	
7	126.10770082473755	fix_post	2		12	5.0	2.5	blank	1.0	147.27212190628052	0.09989404678344727
8	126.207594871521	fix_pre	0		120	6.0	2.5	/experiments/AOT/AOT_stimuli/rescaled_final/1573_fw.mp4	0.0	147.37201595306396	1.0001261234283447
8	126.3911509513855	pulse	0	t		6.0	2.5	/experiments/AOT/AOT_stimuli/rescaled_final/1573_fw.mp4	0.0	147.55557203292847	
8	127.20772099494934	movie	1		245	6.0	2.5	/experiments/AOT/AOT_stimuli/rescaled_final/1573_fw.mp4	0.0	148.3721420764923	2.4999170303344727
8	127.9911539554596	pulse	1	t		6.0	2.5	/experiments/AOT/AOT_stimuli/rescaled_final/1573_fw.mp4	0.0	149.15557503700256	
8	129.58980298042297	pulse	1	t		6.0	2.5	/experiments/AOT/AOT_stimuli/rescaled_final/1573_fw.mp4	0.0	150.75422406196594	
8	129.7076380252838	fix_post	2		12	6.0	2.5	/experiments/AOT/AOT_stimuli/rescaled_final/1573_fw.mp4	0.0	150.87205910682678	0.10002994537353516
9	129.80766797065735	fix_pre	0		120	7.0	2.5	/experiments/AOT/AOT_stimuli/rescaled_final/0492_fw.mp4	0.0	150.97208905220032	0.9998738765716553
9	130.807541847229	movie	1		243	7.0	2.5	/experiments/AOT/AOT_stimuli/rescaled_final/0492_fw.mp4	0.0	151.97196292877197	2.499619960784912
9	131.19070100784302	pulse	1	t		7.0	2.5	/experiments/AOT/AOT_stimuli/rescaled_final/0492_fw.mp4	0.0	152.355122089386	
9	132.7911238670349	pulse	1	t		7.0	2.5	/experiments/AOT/AOT_stimuli/rescaled_final/0492_fw.mp4	0.0	153.95554494857788	
9	133.30716180801392	fix_post	2		12	7.0	2.5	/experiments/AOT/AOT_stimuli/rescaled_final/0492_fw.mp4	0.0	154.47158288955688	0.10051107406616211
10	133.40767288208008	fix_pre	0		119	8.0	2.5	/experiments/AOT/AOT_stimuli/rescaled_final/1054_fw.mp4	0.0	154.57209396362305	0.9916110038757324
10	134.39113783836365	pulse	0	t		8.0	2.5	/experiments/AOT/AOT_stimuli/rescaled_final/1054_fw.mp4	0.0	155.55555891990662	
10	134.3992838859558	movie	1		246	8.0	2.5	/experiments/AOT/AOT_stimuli/rescaled_final/1054_fw.mp4	0.0	155.56370496749878	2.508362054824829
10	135.99207496643066	pulse	1	t		8.0	2.5	/experiments/AOT/AOT_stimuli/rescaled_final/1054_fw.mp4	0.0	157.15649604797363	
10	136.90764594078064	fix_post	2		12	8.0	2.5	/experiments/AOT/AOT_stimuli/rescaled_final/1054_fw.mp4	0.0	158.0720670223236	0.09997105598449707
11	137.00761699676514	fix_pre	0		120	9.0	2.5	/experiments/AOT/AOT_stimuli/rescaled_final/0333_rv.mp4	0.0	158.1720380783081	1.0000569820404053
11	137.59106993675232	pulse	0	t		9.0	2.5	/experiments/AOT/AOT_stimuli/rescaled_final/0333_rv.mp4	0.0	158.7554910182953	
11	138.00767397880554	movie	1		243	9.0	2.5	/experiments/AOT/AOT_stimuli/rescaled_final/0333_rv.mp4	0.0	159.1720950603485	2.4998810291290283
11	139.1911599636078	pulse	1	t		9.0	2.5	/experiments/AOT/AOT_stimuli/rescaled_final/0333_rv.mp4	0.0	160.35558104515076	
11	140.50755500793457	fix_post	2		12	9.0	2.5	/experiments/AOT/AOT_stimuli/rescaled_final/0333_rv.mp4	0.0	161.67197608947754	0.10007190704345703
12	140.60762691497803	fix_pre	0		120	10.0	2.5	/experiments/AOT/AOT_stimuli/rescaled_final/1493_fw.mp4	0.0	161.772047996521	0.9999868869781494
12	140.79109382629395	pulse	0	t		10.0	2.5	/experiments/AOT/AOT_stimuli/rescaled_final/1493_fw.mp4	0.0	161.9555149078369	
12	141.60761380195618	movie	1		244	10.0	2.5	/experiments/AOT/AOT_stimuli/rescaled_final/1493_fw.mp4	0.0	162.77203488349915	2.5000710487365723
12	142.3910689353943	pulse	1	t		10.0	2.5	/experiments/AOT/AOT_stimuli/rescaled_final/1493_fw.mp4	0.0	163.55549001693726	
12	143.98993682861328	pulse	1	t		10.0	2.5	/experiments/AOT/AOT_stimuli/rescaled_final/1493_fw.mp4	0.0	165.15435791015625	
12	144.10768485069275	fix_post	2		12	10.0	2.5	/experiments/AOT/AOT_stimuli/rescaled_final/1493_fw.mp4	0.0	165.27210593223572	0.09993195533752441
13	144.20761680603027	fix_pre	0		120	11.0	2.5	/experiments/AOT/AOT_stimuli/rescaled_final/2118_fw.mp4	0.0	165.37203788757324	1.0000832080841064
13	145.20770001411438	movie	1		244	11.0	2.5	/experiments/AOT/AOT_stimuli/rescaled_final/2118_fw.mp4	0.0	166.37212109565735	2.4998278617858887
13	145.59067702293396	pulse	1	t		11.0	2.5	/experiments/AOT/AOT_stimuli/rescaled_final/2118_fw.mp4	0.0	166.75509810447693	
13	147.1910548210144	pulse	1	t		11.0	2.5	/experiments/AOT/AOT_stimuli/rescaled_final/2118_fw.mp4	0.0	168.35547590255737	
13	147.70752787590027	fix_post	2		12	11.0	2.5	/experiments/AOT/AOT_stimuli/rescaled_final/2118_fw.mp4	0.0	168.87194895744324	0.10008096694946289
14	147.80760884284973	fix_pre	0		119	12.0	2.5	blank	1.0	168.9720299243927	0.9915590286254883
14	148.79095482826233	pulse	0	t		12.0	2.5	blank	1.0	169.9553759098053	
14	148.79916787147522	movie	1		301	12.0	2.5	blank	1.0	169.9635889530182	2.5084760189056396
14	150.3910939693451	pulse	1	t		12.0	2.5	blank	1.0	171.55551505088806	
14	151.30764389038086	fix_post	2		12	12.0	2.5	blank	1.0	172.47206497192383	0.09944009780883789
15	151.4070839881897	fix_pre	0		120	13.0	2.5	/experiments/AOT/AOT_stimuli/rescaled_final/1558_fw.mp4	0.0	172.57150506973267	1.000108003616333
15	151.99106788635254	pulse	0	t		13.0	2.5	/experiments/AOT/AOT_stimuli/rescaled_final/1558_fw.mp4	0.0	173.1554889678955	
15	152.40719199180603	movie	1		246	13.0	2.5	/experiments/AOT/AOT_stimuli/rescaled_final/1558_fw.mp4	0.0	173.571613073349	2.5001938343048096
15	153.59125399589539	pulse	1	t		13.0	2.5	/experiments/AOT/AOT_stimuli/rescaled_final/1558_fw.mp4	0.0	174.75567507743835	
15	154.90738582611084	fix_post	2		12	13.0	2.5	/experiments/AOT/AOT_stimuli/rescaled_final/1558_fw.mp4	0.0	176.0718069076538	0.10008621215820312
16	155.00747203826904	fix_pre	0		120	14.0	2.5	/experiments/AOT/AOT_stimuli/rescaled_final/1243_fw.mp4	0.0	176.171893119812	1.0000338554382324
16	155.19108700752258	pulse	0	t		14.0	2.5	/experiments/AOT/AOT_stimuli/rescaled_final/1243_fw.mp4	0.0	176.35550808906555	
16	156.00750589370728	movie	1		245	14.0	2.5	/experiments/AOT/AOT_stimuli/rescaled_final/1243_fw.mp4	0.0	177.17192697525024	2.4999499320983887
16	156.7910590171814	pulse	1	t		14.0	2.5	/experiments/AOT/AOT_stimuli/rescaled_final/1243_fw.mp4	0.0	177.95548009872437	
16	158.3909649848938	pulse	1	t		14.0	2.5	/experiments/AOT/AOT_stimuli/rescaled_final/1243_fw.mp4	0.0	179.55538606643677	
16	158.50745582580566	fix_post	2		12	14.0	2.5	/experiments/AOT/AOT_stimuli/rescaled_final/1243_fw.mp4	0.0	179.67187690734863	0.09996414184570312
17	158.60741996765137	fix_pre	0		120	15.0	2.5	/experiments/AOT/AOT_stimuli/rescaled_final/0008_rv.mp4	0.0	179.77184104919434	1.000140905380249
17	159.60756087303162	movie	1		245	15.0	2.5	/experiments/AOT/AOT_stimuli/rescaled_final/0008_rv.mp4	0.0	180.77198195457458	2.4999420642852783
17	159.99044394493103	pulse	1	t		15.0	2.5	/experiments/AOT/AOT_stimuli/rescaled_final/0008_rv.mp4	0.0	181.154865026474	
17	161.59095883369446	pulse	1	t		15.0	2.5	/experiments/AOT/AOT_stimuli/rescaled_final/0008_rv.mp4	0.0	182.75537991523743	
17	162.1075029373169	fix_post	2		12	15.0	2.5	/experiments/AOT/AOT_stimuli/rescaled_final/0008_rv.mp4	0.0	183.27192401885986	0.09998202323913574
18	162.20748496055603	fix_pre	0		119	16.0	2.5	/experiments/AOT/AOT_stimuli/rescaled_final/1916_fw.mp4	0.0	183.371906042099	0.9916839599609375
18	163.19101691246033	pulse	0	t		16.0	2.5	/experiments/AOT/AOT_stimuli/rescaled_final/1916_fw.mp4	0.0	184.3554379940033	
18	163.19916892051697	movie	1		244	16.0	2.5	/experiments/AOT/AOT_stimuli/rescaled_final/1916_fw.mp4	0.0	184.36359000205994	2.5082380771636963
18	164.79074692726135	pulse	1	t		16.0	2.5	/experiments/AOT/AOT_stimuli/rescaled_final/1916_fw.mp4	0.0	185.95516800880432	
18	165.70740699768066	fix_post	2		12	16.0	2.5	/experiments/AOT/AOT_stimuli/rescaled_final/1916_fw.mp4	0.0	186.87182807922363	0.09999585151672363
19	165.8074028491974	fix_pre	0		120	17.0	2.5	/experiments/AOT/AOT_stimuli/rescaled_final/1032_fw.mp4	0.0	186.97182393074036	1.000025987625122
19	166.39093589782715	pulse	0	t		17.0	2.5	/experiments/AOT/AOT_stimuli/rescaled_final/1032_fw.mp4	0.0	187.55535697937012	
19	166.8074288368225	movie	1		242	17.0	2.5	/experiments/AOT/AOT_stimuli/rescaled_final/1032_fw.mp4	0.0	187.97184991836548	2.50007700920105
19	167.9909908771515	pulse	1	t		17.0	2.5	/experiments/AOT/AOT_stimuli/rescaled_final/1032_fw.mp4	0.0	189.15541195869446	
19	169.30750584602356	fix_post	2		12	17.0	2.5	/experiments/AOT/AOT_stimuli/rescaled_final/1032_fw.mp4	0.0	190.47192692756653	0.09991717338562012
20	169.40742301940918	fix_pre	0		120	18.0	2.5	/experiments/AOT/AOT_stimuli/rescaled_final/1710_rv.mp4	0.0	190.57184410095215	0.9999477863311768
20	169.59090280532837	pulse	0	t		18.0	2.5	/experiments/AOT/AOT_stimuli/rescaled_final/1710_rv.mp4	0.0	190.75532388687134	
20	170.40737080574036	movie	1		244	18.0	2.5	/experiments/AOT/AOT_stimuli/rescaled_final/1710_rv.mp4	0.0	191.57179188728333	2.5000691413879395
20	171.1908779144287	pulse	1	t		18.0	2.5	/experiments/AOT/AOT_stimuli/rescaled_final/1710_rv.mp4	0.0	192.35529899597168	
20	172.7895429134369	pulse	1	t		18.0	2.5	/experiments/AOT/AOT_stimuli/rescaled_final/1710_rv.mp4	0.0	193.95396399497986	
20	172.9074399471283	fix_post	2		12	18.0	2.5	/experiments/AOT/AOT_stimuli/rescaled_final/1710_rv.mp4	0.0	194.07186102867126	0.09999608993530273
21	173.0074360370636	fix_pre	0		120	19.0	2.5	/experiments/AOT/AOT_stimuli/rescaled_final/0547_fw.mp4	0.0	194.17185711860657	1.000004768371582
21	174.00744080543518	movie	1		245	19.0	2.5	/experiments/AOT/AOT_stimuli/rescaled_final/0547_fw.mp4	0.0	195.17186188697815	2.5000171661376953
21	174.3905348777771	pulse	1	t		19.0	2.5	/experiments/AOT/AOT_stimuli/rescaled_final/0547_fw.mp4	0.0	195.55495595932007	
21	175.9909119606018	pulse	1	t		19.0	2.5	/experiments/AOT/AOT_stimuli/rescaled_final/0547_fw.mp4	0.0	197.15533304214478	
21	176.50745797157288	fix_post	2		12	19.0	2.5	/experiments/AOT/AOT_stimuli/rescaled_final/0547_fw.mp4	0.0	197.67187905311584	0.09986090660095215
22	176.60731887817383	fix_pre	0		119	20.0	2.5	blank	1.0	197.7717399597168	0.9917371273040771
22	177.59094882011414	pulse	0	t		20.0	2.5	blank	1.0	198.7553699016571	
22	177.5990560054779	movie	1		301	20.0	2.5	blank	1.0	198.76347708702087	2.508272886276245
22	179.19086599349976	pulse	1	t		20.0	2.5	blank	1.0	200.35528707504272	
22	180.10732889175415	fix_post	2		12	20.0	2.5	blank	1.0	201.27174997329712	0.10004901885986328
23	180.207377910614	fix_pre	0		120	21.0	2.5	/experiments/AOT/AOT_stimuli/rescaled_final/1625_rv.mp4	0.0	201.37179899215698	0.9999020099639893
23	180.7909049987793	pulse	0	t		21.0	2.5	/experiments/AOT/AOT_stimuli/rescaled_final/1625_rv.mp4	0.0	201.95532608032227	
23	181.207279920578	movie	1		246	21.0	2.5	/experiments/AOT/AOT_stimuli/rescaled_final/1625_rv.mp4	0.0	202.37170100212097	2.500102996826172
23	182.39094996452332	pulse	1	t		21.0	2.5	/experiments/AOT/AOT_stimuli/rescaled_final/1625_rv.mp4	0.0	203.55537104606628	
23	183.70738291740417	fix_post	2		12	21.0	2.5	/experiments/AOT/AOT_stimuli/rescaled_final/1625_rv.mp4	0.0	204.87180399894714	0.10001611709594727
24	183.80739903450012	fix_pre	0		120	22.0	2.5	/experiments/AOT/AOT_stimuli/rescaled_final/0652_fw.mp4	0.0	204.9718201160431	1.000011920928955
24	183.99084401130676	pulse	0	t		22.0	2.5	/experiments/AOT/AOT_stimuli/rescaled_final/0652_fw.mp4	0.0	205.15526509284973	
24	184.80741095542908	movie	1		243	22.0	2.5	/experiments/AOT/AOT_stimuli/rescaled_final/0652_fw.mp4	0.0	205.97183203697205	2.499959945678711
24	185.59088397026062	pulse	1	t		22.0	2.5	/experiments/AOT/AOT_stimuli/rescaled_final/0652_fw.mp4	0.0	206.7553050518036	
24	187.18923687934875	pulse	1	t		22.0	2.5	/experiments/AOT/AOT_stimuli/rescaled_final/0652_fw.mp4	0.0	208.35365796089172	
24	187.3073709011078	fix_post	2		12	22.0	2.5	/experiments/AOT/AOT_stimuli/rescaled_final/0652_fw.mp4	0.0	208.47179198265076	0.09992003440856934
25	187.40729093551636	fix_pre	0		120	23.0	2.5	/experiments/AOT/AOT_stimuli/rescaled_final/1549_fw.mp4	0.0	208.57171201705933	1.0001370906829834
25	188.40742802619934	movie	1		244	23.0	2.5	/experiments/AOT/AOT_stimuli/rescaled_final/1549_fw.mp4	0.0	209.5718491077423	2.499861001968384
25	188.79059290885925	pulse	1	t		23.0	2.5	/experiments/AOT/AOT_stimuli/rescaled_final/1549_fw.mp4	0.0	209.95501399040222	
25	190.39094591140747	pulse	1	t		23.0	2.5	/experiments/AOT/AOT_stimuli/rescaled_final/1549_fw.mp4	0.0	211.55536699295044	
25	190.90728902816772	fix_post	2		12	23.0	2.5	/experiments/AOT/AOT_stimuli/rescaled_final/1549_fw.mp4	0.0	212.0717101097107	0.10002398490905762
26	191.00731301307678	fix_pre	0		119	24.0	2.5	/experiments/AOT/AOT_stimuli/rescaled_final/1609_rv.mp4	0.0	212.17173409461975	0.9917359352111816
26	191.99084997177124	pulse	0	t		24.0	2.5	/experiments/AOT/AOT_stimuli/rescaled_final/1609_rv.mp4	0.0	213.1552710533142	
26	191.99904894828796	movie	1		244	24.0	2.5	/experiments/AOT/AOT_stimuli/rescaled_final/1609_rv.mp4	0.0	213.16347002983093	2.5082969665527344
26	193.59038090705872	pulse	1	t		24.0	2.5	/experiments/AOT/AOT_stimuli/rescaled_final/1609_rv.mp4	0.0	214.75480198860168	
26	194.5073459148407	fix_post	2		12	24.0	2.5	/experiments/AOT/AOT_stimuli/rescaled_final/1609_rv.mp4	0.0	215.67176699638367	0.09991192817687988
27	194.60725784301758	fix_pre	0		120	25.0	2.5	/experiments/AOT/AOT_stimuli/rescaled_final/0492_rv.mp4	0.0	215.77167892456055	1.0000941753387451
27	195.19084191322327	pulse	0	t		25.0	2.5	/experiments/AOT/AOT_stimuli/rescaled_final/0492_rv.mp4	0.0	216.35526299476624	
27	195.60735201835632	movie	1		243	25.0	2.5	/experiments/AOT/AOT_stimuli/rescaled_final/0492_rv.mp4	0.0	216.7717730998993	2.499907970428467
27	196.79093885421753	pulse	1	t		25.0	2.5	/experiments/AOT/AOT_stimuli/rescaled_final/0492_rv.mp4	0.0	217.9553599357605	
27	198.1072599887848	fix_post	2		12	25.0	2.5	/experiments/AOT/AOT_stimuli/rescaled_final/0492_rv.mp4	0.0	219.27168107032776	0.10004901885986328
28	198.20730900764465	fix_pre	0		120	26.0	2.5	blank	1.0	219.37173008918762	1.0000050067901611
28	198.39084386825562	pulse	0	t		26.0	2.5	blank	1.0	219.55526494979858	
28	199.20731401443481	movie	1		300	26.0	2.5	blank	1.0	220.37173509597778	2.4999799728393555
28	199.99084091186523	pulse	1	t		26.0	2.5	blank	1.0	221.1552619934082	
28	201.59086894989014	pulse	1	t		26.0	2.5	blank	1.0	222.7552900314331	
28	201.70729398727417	fix_post	2		12	26.0	2.5	blank	1.0	222.87171506881714	0.10002684593200684
29	201.80732083320618	fix_pre	0		120	27.0	2.5	/experiments/AOT/AOT_stimuli/rescaled_final/0665_fw.mp4	0.0	222.97174191474915	1.0000600814819336
29	202.8073809146881	movie	1		243	27.0	2.5	/experiments/AOT/AOT_stimuli/rescaled_final/0665_fw.mp4	0.0	223.97180199623108	2.499941110610962
29	203.19039797782898	pulse	1	t		27.0	2.5	/experiments/AOT/AOT_stimuli/rescaled_final/0665_fw.mp4	0.0	224.35481905937195	
29	204.79071283340454	pulse	1	t		27.0	2.5	/experiments/AOT/AOT_stimuli/rescaled_final/0665_fw.mp4	0.0	225.9551339149475	
29	205.30732202529907	fix_post	2		12	27.0	2.5	/experiments/AOT/AOT_stimuli/rescaled_final/0665_fw.mp4	0.0	226.47174310684204	0.09996986389160156
30	205.40729188919067	fix_pre	0		119	28.0	2.5	/experiments/AOT/AOT_stimuli/rescaled_final/1008_fw.mp4	0.0	226.57171297073364	0.9916701316833496
30	206.39082384109497	pulse	0	t		28.0	2.5	/experiments/AOT/AOT_stimuli/rescaled_final/1008_fw.mp4	0.0	227.55524492263794	
30	206.39896202087402	movie	1		246	28.0	2.5	/experiments/AOT/AOT_stimuli/rescaled_final/1008_fw.mp4	0.0	227.563383102417	2.50803279876709
30	207.99010682106018	pulse	1	t		28.0	2.5	/experiments/AOT/AOT_stimuli/rescaled_final/1008_fw.mp4	0.0	229.15452790260315	
30	208.9069948196411	fix_post	2		12	28.0	2.5	/experiments/AOT/AOT_stimuli/rescaled_final/1008_fw.mp4	0.0	230.07141590118408	0.0999760627746582
31	209.00697088241577	fix_pre	0		120	29.0	2.5	/experiments/AOT/AOT_stimuli/rescaled_final/0192_rv.mp4	0.0	230.17139196395874	1.000575065612793
31	209.59052181243896	pulse	0	t		29.0	2.5	/experiments/AOT/AOT_stimuli/rescaled_final/0192_rv.mp4	0.0	230.75494289398193	
31	210.00754594802856	movie	1		245	29.0	2.5	/experiments/AOT/AOT_stimuli/rescaled_final/0192_rv.mp4	0.0	231.17196702957153	2.4997360706329346
31	211.1908369064331	pulse	1	t		29.0	2.5	/experiments/AOT/AOT_stimuli/rescaled_final/0192_rv.mp4	0.0	232.35525798797607	
31	212.5072820186615	fix_post	2		12	29.0	2.5	/experiments/AOT/AOT_stimuli/rescaled_final/0192_rv.mp4	0.0	233.67170310020447	0.09998488426208496
32	212.60726690292358	fix_pre	0		120	30.0	2.5	/experiments/AOT/AOT_stimuli/rescaled_final/0639_fw.mp4	0.0	233.77168798446655	0.9999709129333496
32	212.7908058166504	pulse	0	t		30.0	2.5	/experiments/AOT/AOT_stimuli/rescaled_final/0639_fw.mp4	0.0	233.95522689819336	
32	213.60723781585693	movie	1		244	30.0	2.5	/experiments/AOT/AOT_stimuli/rescaled_final/0639_fw.mp4	0.0	234.7716588973999	2.5000290870666504
32	214.39071702957153	pulse	1	t		30.0	2.5	/experiments/AOT/AOT_stimuli/rescaled_final/0639_fw.mp4	0.0	235.5551381111145	
32	215.98910999298096	pulse	1	t		30.0	2.5	/experiments/AOT/AOT_stimuli/rescaled_final/0639_fw.mp4	0.0	237.15353107452393	
32	216.10726690292358	fix_post	2		12	30.0	2.5	/experiments/AOT/AOT_stimuli/rescaled_final/0639_fw.mp4	0.0	237.27168798446655	0.09997892379760742
33	216.2072458267212	fix_pre	0		120	31.0	2.5	/experiments/AOT/AOT_stimuli/rescaled_final/1603_fw.mp4	0.0	237.37166690826416	1.000002145767212
33	217.2072479724884	movie	1		245	31.0	2.5	/experiments/AOT/AOT_stimuli/rescaled_final/1603_fw.mp4	0.0	238.37166905403137	2.4999468326568604
33	217.5906069278717	pulse	1	t		31.0	2.5	/experiments/AOT/AOT_stimuli/rescaled_final/1603_fw.mp4	0.0	238.75502800941467	
33	219.19058084487915	pulse	1	t		31.0	2.5	/experiments/AOT/AOT_stimuli/rescaled_final/1603_fw.mp4	0.0	240.35500192642212	
33	219.70719480514526	fix_post	2		12	31.0	2.5	/experiments/AOT/AOT_stimuli/rescaled_final/1603_fw.mp4	0.0	240.87161588668823	0.10001921653747559
34	219.80721402168274	fix_pre	0		119	32.0	2.5	/experiments/AOT/AOT_stimuli/rescaled_final/1802_rv.mp4	0.0	240.9716351032257	0.9915659427642822
34	220.7906138896942	pulse	0	t		32.0	2.5	/experiments/AOT/AOT_stimuli/rescaled_final/1802_rv.mp4	0.0	241.95503497123718	
34	220.79877996444702	movie	1		245	32.0	2.5	/experiments/AOT/AOT_stimuli/rescaled_final/1802_rv.mp4	0.0	241.96320104599	2.508380889892578
34	222.39050388336182	pulse	1	t		32.0	2.5	/experiments/AOT/AOT_stimuli/rescaled_final/1802_rv.mp4	0.0	243.55492496490479	
34	223.3071608543396	fix_post	2		12	32.0	2.5	/experiments/AOT/AOT_stimuli/rescaled_final/1802_rv.mp4	0.0	244.47158193588257	0.10002899169921875
35	223.40718984603882	fix_pre	0		120	33.0	2.5	/experiments/AOT/AOT_stimuli/rescaled_final/2043_rv.mp4	0.0	244.5716109275818	0.9999580383300781
35	223.99067497253418	pulse	0	t		33.0	2.5	/experiments/AOT/AOT_stimuli/rescaled_final/2043_rv.mp4	0.0	245.15509605407715	
35	224.4071478843689	movie	1		245	33.0	2.5	/experiments/AOT/AOT_stimuli/rescaled_final/2043_rv.mp4	0.0	245.57156896591187	2.500019073486328
35	225.59073901176453	pulse	1	t		33.0	2.5	/experiments/AOT/AOT_stimuli/rescaled_final/2043_rv.mp4	0.0	246.7551600933075	
35	226.90716695785522	fix_post	2		12	33.0	2.5	/experiments/AOT/AOT_stimuli/rescaled_final/2043_rv.mp4	0.0	248.0715880393982	0.10000085830688477
36	227.0071678161621	fix_pre	0		120	34.0	2.5	/experiments/AOT/AOT_stimuli/rescaled_final/0954_fw.mp4	0.0	248.17158889770508	1.000089168548584
36	227.19062399864197	pulse	0	t		34.0	2.5	/experiments/AOT/AOT_stimuli/rescaled_final/0954_fw.mp4	0.0	248.35504508018494	
36	228.0072569847107	movie	1		246	34.0	2.5	/experiments/AOT/AOT_stimuli/rescaled_final/0954_fw.mp4	0.0	249.17167806625366	2.4999449253082275
36	228.79061794281006	pulse	1	t		34.0	2.5	/experiments/AOT/AOT_stimuli/rescaled_final/0954_fw.mp4	0.0	249.95503902435303	
36	230.39018893241882	pulse	1	t		34.0	2.5	/experiments/AOT/AOT_stimuli/rescaled_final/0954_fw.mp4	0.0	251.5546100139618	
36	230.50720191001892	fix_post	2		12	34.0	2.5	/experiments/AOT/AOT_stimuli/rescaled_final/0954_fw.mp4	0.0	251.6716229915619	0.09998893737792969
37	230.60719084739685	fix_pre	0		120	35.0	2.5	blank	1.0	251.77161192893982	1.0000519752502441
37	231.6072428226471	movie	1		300	35.0	2.5	blank	1.0	252.77166390419006	2.499948024749756
37	231.99063992500305	pulse	1	t		35.0	2.5	blank	1.0	253.15506100654602	
37	233.59059381484985	pulse	1	t		35.0	2.5	blank	1.0	254.75501489639282	
37	234.10719084739685	fix_post	2		12	35.0	2.5	blank	1.0	255.27161192893982	0.099945068359375
38	234.20713591575623	fix_pre	0		119	36.0	2.5	/experiments/AOT/AOT_stimuli/rescaled_final/1603_fw.mp4	0.0	255.3715569972992	0.9916799068450928
38	235.19066095352173	pulse	0	t		36.0	2.5	/experiments/AOT/AOT_stimuli/rescaled_final/1603_fw.mp4	0.0	256.3550820350647	
38	235.19881582260132	movie	1		243	36.0	2.5	/experiments/AOT/AOT_stimuli/rescaled_final/1603_fw.mp4	0.0	256.3632369041443	2.5083091259002686
38	236.79191184043884	pulse	1	t		36.0	2.5	/experiments/AOT/AOT_stimuli/rescaled_final/1603_fw.mp4	0.0	257.9563329219818	
38	237.7071249485016	fix_post	2		12	36.0	2.5	/experiments/AOT/AOT_stimuli/rescaled_final/1603_fw.mp4	0.0	258.87154603004456	0.10003900527954102
39	237.80716395378113	fix_pre	0		120	37.0	2.5	/experiments/AOT/AOT_stimuli/rescaled_final/0361_fw.mp4	0.0	258.9715850353241	0.9999969005584717
39	238.39062595367432	pulse	0	t		37.0	2.5	/experiments/AOT/AOT_stimuli/rescaled_final/0361_fw.mp4	0.0	259.5550470352173	
39	238.8071608543396	movie	1		244	37.0	2.5	/experiments/AOT/AOT_stimuli/rescaled_final/0361_fw.mp4	0.0	259.97158193588257	2.499997138977051
39	239.9906120300293	pulse	1	t		37.0	2.5	/experiments/AOT/AOT_stimuli/rescaled_final/0361_fw.mp4	0.0	261.15503311157227	
39	241.30715799331665	fix_post	2		12	37.0	2.5	/experiments/AOT/AOT_stimuli/rescaled_final/0361_fw.mp4	0.0	262.4715790748596	0.09994792938232422
40	241.40710592269897	fix_pre	0		120	38.0	2.5	/experiments/AOT/AOT_stimuli/rescaled_final/1495_rv.mp4	0.0	262.57152700424194	1.0000579357147217
40	241.59071588516235	pulse	0	t		38.0	2.5	/experiments/AOT/AOT_stimuli/rescaled_final/1495_rv.mp4	0.0	262.7551369667053	
40	242.4071638584137	movie	1		244	38.0	2.5	/experiments/AOT/AOT_stimuli/rescaled_final/1495_rv.mp4	0.0	263.57158493995667	2.4999351501464844
40	243.19053196907043	pulse	1	t		38.0	2.5	/experiments/AOT/AOT_stimuli/rescaled_final/1495_rv.mp4	0.0	264.3549530506134	
40	244.78926801681519	pulse	1	t		38.0	2.5	/experiments/AOT/AOT_stimuli/rescaled_final/1495_rv.mp4	0.0	265.95368909835815	
40	244.90709900856018	fix_post	2		12	38.0	2.5	/experiments/AOT/AOT_stimuli/rescaled_final/1495_rv.mp4	0.0	266.07152009010315	0.09993696212768555
41	245.00703597068787	fix_pre	0		120	39.0	2.5	/experiments/AOT/AOT_stimuli/rescaled_final/0907_fw.mp4	0.0	266.17145705223083	1.0000369548797607
41	246.00707292556763	movie	1		246	39.0	2.5	/experiments/AOT/AOT_stimuli/rescaled_final/0907_fw.mp4	0.0	267.1714940071106	2.4999759197235107
41	246.39024901390076	pulse	1	t		39.0	2.5	/experiments/AOT/AOT_stimuli/rescaled_final/0907_fw.mp4	0.0	267.5546700954437	
41	247.99063897132874	pulse	1	t		39.0	2.5	/experiments/AOT/AOT_stimuli/rescaled_final/0907_fw.mp4	0.0	269.1550600528717	
41	248.50704884529114	fix_post	2		12	39.0	2.5	/experiments/AOT/AOT_stimuli/rescaled_final/0907_fw.mp4	0.0	269.6714699268341	0.1000211238861084
42	248.60706996917725	fix_pre	0		119	40.0	2.5	/experiments/AOT/AOT_stimuli/rescaled_final/1062_fw.mp4	0.0	269.7714910507202	0.991663932800293
42	249.59051489830017	pulse	0	t		40.0	2.5	/experiments/AOT/AOT_stimuli/rescaled_final/1062_fw.mp4	0.0	270.75493597984314	
42	249.59873390197754	movie	1		246	40.0	2.5	/experiments/AOT/AOT_stimuli/rescaled_final/1062_fw.mp4	0.0	270.7631549835205	2.508358955383301
42	251.19016790390015	pulse	1	t		40.0	2.5	/experiments/AOT/AOT_stimuli/rescaled_final/1062_fw.mp4	0.0	272.3545889854431	
42	252.10709285736084	fix_post	2		12	40.0	2.5	/experiments/AOT/AOT_stimuli/rescaled_final/1062_fw.mp4	0.0	273.2715139389038	0.09999203681945801
43	252.2070848941803	fix_pre	0		120	41.0	2.5	/experiments/AOT/AOT_stimuli/rescaled_final/1600_fw.mp4	0.0	273.37150597572327	1.0000150203704834
43	252.79046297073364	pulse	0	t		41.0	2.5	/experiments/AOT/AOT_stimuli/rescaled_final/1600_fw.mp4	0.0	273.9548840522766	
43	253.20709991455078	movie	1		243	41.0	2.5	/experiments/AOT/AOT_stimuli/rescaled_final/1600_fw.mp4	0.0	274.37152099609375	2.4999899864196777
43	254.39067602157593	pulse	1	t		41.0	2.5	/experiments/AOT/AOT_stimuli/rescaled_final/1600_fw.mp4	0.0	275.5550971031189	
43	255.70708990097046	fix_post	2		12	41.0	2.5	/experiments/AOT/AOT_stimuli/rescaled_final/1600_fw.mp4	0.0	276.8715109825134	0.09996390342712402
44	255.80705380439758	fix_pre	0		120	42.0	2.5	blank	1.0	276.97147488594055	0.9999551773071289
44	255.99053692817688	pulse	0	t		42.0	2.5	blank	1.0	277.15495800971985	
44	256.8070089817047	movie	1		300	42.0	2.5	blank	1.0	277.9714300632477	2.5000429153442383
44	257.59049797058105	pulse	1	t		42.0	2.5	blank	1.0	278.754919052124	
44	259.1905868053436	pulse	1	t		42.0	2.5	blank	1.0	280.3550078868866	
44	259.30705189704895	fix_post	2		12	42.0	2.5	blank	1.0	280.4714729785919	0.09998297691345215
45	259.4070348739624	fix_pre	0		120	43.0	2.5	/experiments/AOT/AOT_stimuli/rescaled_final/1232_rv.mp4	0.0	280.57145595550537	1.0000040531158447
45	260.40703892707825	movie	1		244	43.0	2.5	/experiments/AOT/AOT_stimuli/rescaled_final/1232_rv.mp4	0.0	281.5714600086212	2.5001380443573
45	260.790011882782	pulse	1	t		43.0	2.5	/experiments/AOT/AOT_stimuli/rescaled_final/1232_rv.mp4	0.0	281.95443296432495	
45	262.3904478549957	pulse	1	t		43.0	2.5	/experiments/AOT/AOT_stimuli/rescaled_final/1232_rv.mp4	0.0	283.5548689365387	
45	262.90717697143555	fix_post	2		12	43.0	2.5	/experiments/AOT/AOT_stimuli/rescaled_final/1232_rv.mp4	0.0	284.0715980529785	0.0998070240020752
46	263.0069839954376	fix_pre	0		119	44.0	2.5	/experiments/AOT/AOT_stimuli/rescaled_final/1751_fw.mp4	0.0	284.1714050769806	0.9912450313568115
46	263.99007201194763	pulse	0	t		44.0	2.5	/experiments/AOT/AOT_stimuli/rescaled_final/1751_fw.mp4	0.0	285.1544930934906	
46	263.99822902679443	movie	1		247	44.0	2.5	/experiments/AOT/AOT_stimuli/rescaled_final/1751_fw.mp4	0.0	285.1626501083374	2.509107828140259
46	265.59026288986206	pulse	1	t		44.0	2.5	/experiments/AOT/AOT_stimuli/rescaled_final/1751_fw.mp4	0.0	286.75468397140503	
46	266.5073368549347	fix_post	2		12	44.0	2.5	/experiments/AOT/AOT_stimuli/rescaled_final/1751_fw.mp4	0.0	287.67175793647766	0.10004305839538574
47	266.6073799133301	fix_pre	0		120	45.0	2.5	/experiments/AOT/AOT_stimuli/rescaled_final/0266_rv.mp4	0.0	287.77180099487305	0.9996559619903564
47	267.1904718875885	pulse	0	t		45.0	2.5	/experiments/AOT/AOT_stimuli/rescaled_final/0266_rv.mp4	0.0	288.35489296913147	
47	267.60703587532043	movie	1		247	45.0	2.5	/experiments/AOT/AOT_stimuli/rescaled_final/0266_rv.mp4	0.0	288.7714569568634	2.49997615814209
47	268.79058289527893	pulse	1	t		45.0	2.5	/experiments/AOT/AOT_stimuli/rescaled_final/0266_rv.mp4	0.0	289.9550039768219	
47	270.1070120334625	fix_post	2		12	45.0	2.5	/experiments/AOT/AOT_stimuli/rescaled_final/0266_rv.mp4	0.0	291.2714331150055	0.09997296333312988
48	270.20698499679565	fix_pre	0		120	46.0	2.5	/experiments/AOT/AOT_stimuli/rescaled_final/0247_fw.mp4	0.0	291.3714060783386	1.0000150203704834
48	270.390429019928	pulse	0	t		46.0	2.5	/experiments/AOT/AOT_stimuli/rescaled_final/0247_fw.mp4	0.0	291.55485010147095	
48	271.20700001716614	movie	1		244	46.0	2.5	/experiments/AOT/AOT_stimuli/rescaled_final/0247_fw.mp4	0.0	292.3714210987091	2.4999449253082275
48	271.9903438091278	pulse	1	t		46.0	2.5	/experiments/AOT/AOT_stimuli/rescaled_final/0247_fw.mp4	0.0	293.1547648906708	
48	273.5891819000244	pulse	1	t		46.0	2.5	/experiments/AOT/AOT_stimuli/rescaled_final/0247_fw.mp4	0.0	294.7536029815674	
48	273.70694494247437	fix_post	2		12	46.0	2.5	/experiments/AOT/AOT_stimuli/rescaled_final/0247_fw.mp4	0.0	294.87136602401733	0.10011100769042969
49	273.8070559501648	fix_pre	0		120	47.0	2.5	/experiments/AOT/AOT_stimuli/rescaled_final/1512_rv.mp4	0.0	294.97147703170776	0.9999070167541504
49	274.80696296691895	movie	1		243	47.0	2.5	/experiments/AOT/AOT_stimuli/rescaled_final/1512_rv.mp4	0.0	295.9713840484619	2.499992847442627
49	275.19173097610474	pulse	1	t		47.0	2.5	/experiments/AOT/AOT_stimuli/rescaled_final/1512_rv.mp4	0.0	296.3561520576477	
49	276.7904179096222	pulse	1	t		47.0	2.5	/experiments/AOT/AOT_stimuli/rescaled_final/1512_rv.mp4	0.0	297.95483899116516	
49	277.3069558143616	fix_post	2		12	47.0	2.5	/experiments/AOT/AOT_stimuli/rescaled_final/1512_rv.mp4	0.0	298.47137689590454	0.0999460220336914
50	277.40690183639526	fix_pre	0		119	48.0	2.5	/experiments/AOT/AOT_stimuli/rescaled_final/1860_fw.mp4	0.0	298.57132291793823	0.991645097732544
50	278.390380859375	pulse	0	t		48.0	2.5	/experiments/AOT/AOT_stimuli/rescaled_final/1860_fw.mp4	0.0	299.55480194091797	
50	278.3985469341278	movie	1		246	48.0	2.5	/experiments/AOT/AOT_stimuli/rescaled_final/1860_fw.mp4	0.0	299.5629680156708	2.5083909034729004
50	279.9905369281769	pulse	1	t		48.0	2.5	/experiments/AOT/AOT_stimuli/rescaled_final/1860_fw.mp4	0.0	301.15495800971985	
50	280.9069378376007	fix_post	2		12	48.0	2.5	/experiments/AOT/AOT_stimuli/rescaled_final/1860_fw.mp4	0.0	302.0713589191437	0.09998106956481934
51	281.0069189071655	fix_pre	0		120	49.0	2.5	blank	1.0	302.1713399887085	0.9999740123748779
51	281.5903990268707	pulse	0	t		49.0	2.5	blank	1.0	302.7548201084137	
51	282.0068929195404	movie	1		300	49.0	2.5	blank	1.0	303.1713140010834	2.5000500679016113
51	283.19029784202576	pulse	1	t		49.0	2.5	blank	1.0	304.3547189235687	
51	284.506942987442	fix_post	2		12	49.0	2.5	blank	1.0	305.671364068985	0.09993600845336914
52	284.6068789958954	fix_pre	0		120	50.0	2.5	/experiments/AOT/AOT_stimuli/rescaled_final/0143_fw.mp4	0.0	305.77130007743835	1.000087022781372
52	284.7903628349304	pulse	0	t		50.0	2.5	/experiments/AOT/AOT_stimuli/rescaled_final/0143_fw.mp4	0.0	305.9547839164734	
52	285.60696601867676	movie	1		246	50.0	2.5	/experiments/AOT/AOT_stimuli/rescaled_final/0143_fw.mp4	0.0	306.7713871002197	2.499992847442627
52	286.390429019928	pulse	1	t		50.0	2.5	/experiments/AOT/AOT_stimuli/rescaled_final/0143_fw.mp4	0.0	307.55485010147095	
52	287.99042201042175	pulse	1	t		50.0	2.5	/experiments/AOT/AOT_stimuli/rescaled_final/0143_fw.mp4	0.0	309.1548430919647	
52	288.1069588661194	fix_post	2		12	50.0	2.5	/experiments/AOT/AOT_stimuli/rescaled_final/0143_fw.mp4	0.0	309.27137994766235	0.09994196891784668
53	288.20690083503723	fix_pre	0		120	51.0	2.5	/experiments/AOT/AOT_stimuli/rescaled_final/1316_rv.mp4	0.0	309.3713219165802	1.0000030994415283
53	289.20690393447876	movie	1		246	51.0	2.5	/experiments/AOT/AOT_stimuli/rescaled_final/1316_rv.mp4	0.0	310.37132501602173	2.5
53	289.589959859848	pulse	1	t		51.0	2.5	/experiments/AOT/AOT_stimuli/rescaled_final/1316_rv.mp4	0.0	310.754380941391	
53	291.19032192230225	pulse	1	t		51.0	2.5	/experiments/AOT/AOT_stimuli/rescaled_final/1316_rv.mp4	0.0	312.3547430038452	
53	291.70690393447876	fix_post	2		12	51.0	2.5	/experiments/AOT/AOT_stimuli/rescaled_final/1316_rv.mp4	0.0	312.87132501602173	0.09998893737792969
54	291.8068928718567	fix_pre	0		119	52.0	2.5	/experiments/AOT/AOT_stimuli/rescaled_final/0775_rv.mp4	0.0	312.97131395339966	0.9916150569915771
54	292.7904968261719	pulse	0	t		52.0	2.5	/experiments/AOT/AOT_stimuli/rescaled_final/0775_rv.mp4	0.0	313.95491790771484	
54	292.79850792884827	movie	1		245	52.0	2.5	/experiments/AOT/AOT_stimuli/rescaled_final/0775_rv.mp4	0.0	313.96292901039124	2.508373975753784
54	294.39177083969116	pulse	1	t		52.0	2.5	/experiments/AOT/AOT_stimuli/rescaled_final/0775_rv.mp4	0.0	315.55619192123413	
54	295.30688190460205	fix_post	2		12	52.0	2.5	/experiments/AOT/AOT_stimuli/rescaled_final/0775_rv.mp4	0.0	316.471302986145	0.1000669002532959
55	295.40694880485535	fix_pre	0		120	53.0	2.5	/experiments/AOT/AOT_stimuli/rescaled_final/1432_fw.mp4	0.0	316.5713698863983	0.9999101161956787
55	295.9903919696808	pulse	0	t		53.0	2.5	/experiments/AOT/AOT_stimuli/rescaled_final/1432_fw.mp4	0.0	317.15481305122375	
55	296.406858921051	movie	1		245	53.0	2.5	/experiments/AOT/AOT_stimuli/rescaled_final/1432_fw.mp4	0.0	317.571280002594	2.5000059604644775
55	297.590430021286	pulse	1	t		53.0	2.5	/experiments/AOT/AOT_stimuli/rescaled_final/1432_fw.mp4	0.0	318.754851102829	
55	298.9068648815155	fix_post	2		12	53.0	2.5	/experiments/AOT/AOT_stimuli/rescaled_final/1432_fw.mp4	0.0	320.0712859630585	0.0999441146850586
56	299.00680899620056	fix_pre	0		120	54.0	2.5	/experiments/AOT/AOT_stimuli/rescaled_final/2090_rv.mp4	0.0	320.17123007774353	1.0000479221343994
56	299.19033694267273	pulse	0	t		54.0	2.5	/experiments/AOT/AOT_stimuli/rescaled_final/2090_rv.mp4	0.0	320.3547580242157	
56	300.00685691833496	movie	1		244	54.0	2.5	/experiments/AOT/AOT_stimuli/rescaled_final/2090_rv.mp4	0.0	321.17127799987793	2.499969005584717
56	300.7903628349304	pulse	1	t		54.0	2.5	/experiments/AOT/AOT_stimuli/rescaled_final/2090_rv.mp4	0.0	321.9547839164734	
56	302.38892102241516	pulse	1	t		54.0	2.5	/experiments/AOT/AOT_stimuli/rescaled_final/2090_rv.mp4	0.0	323.55334210395813	
56	302.5068259239197	fix_post	2		12	54.0	2.5	/experiments/AOT/AOT_stimuli/rescaled_final/2090_rv.mp4	0.0	323.67124700546265	0.09993696212768555
57	302.60676288604736	fix_pre	0		120	55.0	2.5	blank	1.0	323.77118396759033	1.0000579357147217
57	303.6068208217621	movie	1		300	55.0	2.5	blank	1.0	324.77124190330505	2.4999871253967285
57	303.9903709888458	pulse	1	t		55.0	2.5	blank	1.0	325.1547920703888	
57	305.5902798175812	pulse	1	t		55.0	2.5	blank	1.0	326.75470089912415	
57	306.1068079471588	fix_post	2		12	55.0	2.5	blank	1.0	327.2712290287018	0.10000801086425781
58	306.20681595802307	fix_pre	0		119	56.0	2.5	/experiments/AOT/AOT_stimuli/rescaled_final/0260_rv.mp4	0.0	327.37123703956604	0.9916679859161377
58	307.19028997421265	pulse	0	t		56.0	2.5	/experiments/AOT/AOT_stimuli/rescaled_final/0260_rv.mp4	0.0	328.3547110557556	
58	307.1984839439392	movie	1		246	56.0	2.5	/experiments/AOT/AOT_stimuli/rescaled_final/0260_rv.mp4	0.0	328.3629050254822	2.5082950592041016
58	308.7904849052429	pulse	1	t		56.0	2.5	/experiments/AOT/AOT_stimuli/rescaled_final/0260_rv.mp4	0.0	329.9549059867859	
58	309.7067790031433	fix_post	2		12	56.0	2.5	/experiments/AOT/AOT_stimuli/rescaled_final/0260_rv.mp4	0.0	330.8712000846863	0.10005998611450195
59	309.8068389892578	fix_pre	0		120	57.0	2.5	/experiments/AOT/AOT_stimuli/rescaled_final/1602_fw.mp4	0.0	330.9712600708008	0.9999508857727051
59	310.39026403427124	pulse	0	t		57.0	2.5	/experiments/AOT/AOT_stimuli/rescaled_final/1602_fw.mp4	0.0	331.5546851158142	
59	310.8067898750305	movie	1		243	57.0	2.5	/experiments/AOT/AOT_stimuli/rescaled_final/1602_fw.mp4	0.0	331.9712109565735	2.5001449584960938
59	311.99042987823486	pulse	1	t		57.0	2.5	/experiments/AOT/AOT_stimuli/rescaled_final/1602_fw.mp4	0.0	333.15485095977783	
59	313.3069348335266	fix_post	2		12	57.0	2.5	/experiments/AOT/AOT_stimuli/rescaled_final/1602_fw.mp4	0.0	334.4713559150696	0.09972906112670898
60	313.4066638946533	fix_pre	0		120	58.0	2.5	/experiments/AOT/AOT_stimuli/rescaled_final/0397_rv.mp4	0.0	334.5710849761963	1.0001280307769775
60	313.590292930603	pulse	0	t		58.0	2.5	/experiments/AOT/AOT_stimuli/rescaled_final/0397_rv.mp4	0.0	334.754714012146	
60	314.4067919254303	movie	1		244	58.0	2.5	/experiments/AOT/AOT_stimuli/rescaled_final/0397_rv.mp4	0.0	335.57121300697327	2.4999520778656006
60	315.1902480125427	pulse	1	t		58.0	2.5	/experiments/AOT/AOT_stimuli/rescaled_final/0397_rv.mp4	0.0	336.3546690940857	
60	316.788614988327	pulse	1	t		58.0	2.5	/experiments/AOT/AOT_stimuli/rescaled_final/0397_rv.mp4	0.0	337.95303606987	
60	316.9067440032959	fix_post	2		12	58.0	2.5	/experiments/AOT/AOT_stimuli/rescaled_final/0397_rv.mp4	0.0	338.07116508483887	0.1000669002532959
61	317.0068109035492	fix_pre	0		120	59.0	2.5	/experiments/AOT/AOT_stimuli/rescaled_final/1280_fw.mp4	0.0	338.17123198509216	0.9999709129333496
61	318.00678181648254	movie	1		246	59.0	2.5	/experiments/AOT/AOT_stimuli/rescaled_final/1280_fw.mp4	0.0	339.1712028980255	2.50002121925354
61	318.38996291160583	pulse	1	t		59.0	2.5	/experiments/AOT/AOT_stimuli/rescaled_final/1280_fw.mp4	0.0	339.5543839931488	
61	319.98985981941223	pulse	1	t		59.0	2.5	/experiments/AOT/AOT_stimuli/rescaled_final/1280_fw.mp4	0.0	341.1542809009552	
61	320.5068030357361	fix_post	2		12	59.0	2.5	/experiments/AOT/AOT_stimuli/rescaled_final/1280_fw.mp4	0.0	341.67122411727905	0.09958791732788086
62	320.60639095306396	fix_pre	0		119	60.0	2.5	/experiments/AOT/AOT_stimuli/rescaled_final/0462_rv.mp4	0.0	341.77081203460693	0.9922850131988525
62	321.5904438495636	pulse	0	t		60.0	2.5	/experiments/AOT/AOT_stimuli/rescaled_final/0462_rv.mp4	0.0	342.75486493110657	
62	321.5986759662628	movie	1		244	60.0	2.5	/experiments/AOT/AOT_stimuli/rescaled_final/0462_rv.mp4	0.0	342.7630970478058	2.508056879043579
62	323.1912908554077	pulse	1	t		60.0	2.5	/experiments/AOT/AOT_stimuli/rescaled_final/0462_rv.mp4	0.0	344.3557119369507	
62	324.1067328453064	fix_post	2		12	60.0	2.5	/experiments/AOT/AOT_stimuli/rescaled_final/0462_rv.mp4	0.0	345.27115392684937	0.10001516342163086
63	324.206748008728	fix_pre	0		120	61.0	2.5	/experiments/AOT/AOT_stimuli/rescaled_final/0569_fw.mp4	0.0	345.371169090271	0.9999969005584717
63	324.79025983810425	pulse	0	t		61.0	2.5	/experiments/AOT/AOT_stimuli/rescaled_final/0569_fw.mp4	0.0	345.9546809196472	
63	325.2067449092865	movie	1		244	61.0	2.5	/experiments/AOT/AOT_stimuli/rescaled_final/0569_fw.mp4	0.0	346.37116599082947	2.499917984008789
63	326.3902328014374	pulse	1	t		61.0	2.5	/experiments/AOT/AOT_stimuli/rescaled_final/0569_fw.mp4	0.0	347.55465388298035	
63	327.7066628932953	fix_post	2		12	61.0	2.5	/experiments/AOT/AOT_stimuli/rescaled_final/0569_fw.mp4	0.0	348.87108397483826	0.09996199607849121
64	327.8066248893738	fix_pre	0		120	62.0	2.5	/experiments/AOT/AOT_stimuli/rescaled_final/0548_rv.mp4	0.0	348.97104597091675	1.0000770092010498
64	327.99010181427	pulse	0	t		62.0	2.5	/experiments/AOT/AOT_stimuli/rescaled_final/0548_rv.mp4	0.0	349.154522895813	
64	328.80670189857483	movie	1		244	62.0	2.5	/experiments/AOT/AOT_stimuli/rescaled_final/0548_rv.mp4	0.0	349.9711229801178	2.4999611377716064
64	329.590126991272	pulse	1	t		62.0	2.5	/experiments/AOT/AOT_stimuli/rescaled_final/0548_rv.mp4	0.0	350.75454807281494	
64	331.1902530193329	pulse	1	t		62.0	2.5	/experiments/AOT/AOT_stimuli/rescaled_final/0548_rv.mp4	0.0	352.35467410087585	
64	331.30666303634644	fix_post	2		12	62.0	2.5	/experiments/AOT/AOT_stimuli/rescaled_final/0548_rv.mp4	0.0	352.4710841178894	0.10001182556152344
65	331.40667486190796	fix_pre	0		120	63.0	2.5	blank	1.0	352.5710959434509	0.9999570846557617
65	332.4066319465637	movie	1		300	63.0	2.5	blank	1.0	353.5710530281067	2.5001659393310547
65	332.79011392593384	pulse	1	t		63.0	2.5	blank	1.0	353.9545350074768	
65	334.39005303382874	pulse	1	t		63.0	2.5	blank	1.0	355.5544741153717	
65	334.9067978858948	fix_post	2		12	63.0	2.5	blank	1.0	356.07121896743774	0.09985494613647461
66	335.00665283203125	fix_pre	0		119	64.0	2.5	/experiments/AOT/AOT_stimuli/rescaled_final/0701_rv.mp4	0.0	356.1710739135742	0.9916391372680664
66	335.9900949001312	pulse	0	t		64.0	2.5	/experiments/AOT/AOT_stimuli/rescaled_final/0701_rv.mp4	0.0	357.1545159816742	
66	335.9982919692993	movie	1		245	64.0	2.5	/experiments/AOT/AOT_stimuli/rescaled_final/0701_rv.mp4	0.0	357.1627130508423	2.5084128379821777
66	337.58980989456177	pulse	1	t		64.0	2.5	/experiments/AOT/AOT_stimuli/rescaled_final/0701_rv.mp4	0.0	358.75423097610474	
66	338.5067048072815	fix_post	2		12	64.0	2.5	/experiments/AOT/AOT_stimuli/rescaled_final/0701_rv.mp4	0.0	359.67112588882446	0.09995317459106445
67	338.60665798187256	fix_pre	0		120	65.0	2.5	/experiments/AOT/AOT_stimuli/rescaled_final/1366_fw.mp4	0.0	359.7710790634155	1.0000519752502441
67	339.1900990009308	pulse	0	t		65.0	2.5	/experiments/AOT/AOT_stimuli/rescaled_final/1366_fw.mp4	0.0	360.35452008247375	
67	339.6067099571228	movie	1		245	65.0	2.5	/experiments/AOT/AOT_stimuli/rescaled_final/1366_fw.mp4	0.0	360.77113103866577	2.4999659061431885
67	340.79013180732727	pulse	1	t		65.0	2.5	/experiments/AOT/AOT_stimuli/rescaled_final/1366_fw.mp4	0.0	361.95455288887024	
67	342.106675863266	fix_post	2		12	65.0	2.5	/experiments/AOT/AOT_stimuli/rescaled_final/1366_fw.mp4	0.0	363.27109694480896	0.09997105598449707
68	342.2066469192505	fix_pre	0		120	66.0	2.5	/experiments/AOT/AOT_stimuli/rescaled_final/1495_fw.mp4	0.0	363.37106800079346	1.000011920928955
68	342.39011096954346	pulse	0	t		66.0	2.5	/experiments/AOT/AOT_stimuli/rescaled_final/1495_fw.mp4	0.0	363.5545320510864	
68	343.20665884017944	movie	1		244	66.0	2.5	/experiments/AOT/AOT_stimuli/rescaled_final/1495_fw.mp4	0.0	364.3710799217224	2.499994993209839
68	343.99007296562195	pulse	1	t		66.0	2.5	/experiments/AOT/AOT_stimuli/rescaled_final/1495_fw.mp4	0.0	365.1544940471649	
68	345.58847880363464	pulse	1	t		66.0	2.5	/experiments/AOT/AOT_stimuli/rescaled_final/1495_fw.mp4	0.0	366.7528998851776	
68	345.7066538333893	fix_post	2		12	66.0	2.5	/experiments/AOT/AOT_stimuli/rescaled_final/1495_fw.mp4	0.0	366.87107491493225	0.0999901294708252
69	345.8066439628601	fix_pre	0		120	67.0	2.5	/experiments/AOT/AOT_stimuli/rescaled_final/2090_rv.mp4	0.0	366.9710650444031	0.9999749660491943
69	346.8066189289093	movie	1		245	67.0	2.5	/experiments/AOT/AOT_stimuli/rescaled_final/2090_rv.mp4	0.0	367.97104001045227	2.50004506111145
69	347.1900498867035	pulse	1	t		67.0	2.5	/experiments/AOT/AOT_stimuli/rescaled_final/2090_rv.mp4	0.0	368.35447096824646	
69	348.79009199142456	pulse	1	t		67.0	2.5	/experiments/AOT/AOT_stimuli/rescaled_final/2090_rv.mp4	0.0	369.95451307296753	
69	349.30666399002075	fix_post	2		12	67.0	2.5	/experiments/AOT/AOT_stimuli/rescaled_final/2090_rv.mp4	0.0	370.4710850715637	0.09996390342712402
70	349.4066278934479	fix_pre	0		119	68.0	2.5	blank	1.0	370.57104897499084	0.9916670322418213
70	350.3902099132538	pulse	0	t		68.0	2.5	blank	1.0	371.55463099479675	
70	350.3982949256897	movie	1		301	68.0	2.5	blank	1.0	371.56271600723267	2.5083160400390625
70	351.99026703834534	pulse	1	t		68.0	2.5	blank	1.0	373.1546881198883	
70	352.90661096572876	fix_post	2		12	68.0	2.5	blank	1.0	374.07103204727173	0.10002803802490234
71	353.00663900375366	fix_pre	0		120	69.0	2.5	/experiments/AOT/AOT_stimuli/rescaled_final/1188_fw.mp4	0.0	374.17106008529663	1.0000028610229492
71	353.5900638103485	pulse	0	t		69.0	2.5	/experiments/AOT/AOT_stimuli/rescaled_final/1188_fw.mp4	0.0	374.7544848918915	
71	354.0066418647766	movie	1		246	69.0	2.5	/experiments/AOT/AOT_stimuli/rescaled_final/1188_fw.mp4	0.0	375.1710629463196	2.4999570846557617
71	355.1901090145111	pulse	1	t		69.0	2.5	/experiments/AOT/AOT_stimuli/rescaled_final/1188_fw.mp4	0.0	376.3545300960541	
71	356.5065989494324	fix_post	2		12	69.0	2.5	/experiments/AOT/AOT_stimuli/rescaled_final/1188_fw.mp4	0.0	377.67102003097534	0.09992003440856934
72	356.60651898384094	fix_pre	0		120	70.0	2.5	/experiments/AOT/AOT_stimuli/rescaled_final/0665_fw.mp4	0.0	377.7709400653839	1.0000109672546387
72	356.7901258468628	pulse	0	t		70.0	2.5	/experiments/AOT/AOT_stimuli/rescaled_final/0665_fw.mp4	0.0	377.95454692840576	
72	357.6065299510956	movie	1		243	70.0	2.5	/experiments/AOT/AOT_stimuli/rescaled_final/0665_fw.mp4	0.0	378.77095103263855	2.5000290870666504
72	358.3900089263916	pulse	1	t		70.0	2.5	/experiments/AOT/AOT_stimuli/rescaled_final/0665_fw.mp4	0.0	379.55443000793457	
72	359.98833894729614	pulse	1	t		70.0	2.5	/experiments/AOT/AOT_stimuli/rescaled_final/0665_fw.mp4	0.0	381.1527600288391	
72	360.10655903816223	fix_post	2		12	70.0	2.5	/experiments/AOT/AOT_stimuli/rescaled_final/0665_fw.mp4	0.0	381.2709801197052	0.09999680519104004
73	360.20655584335327	fix_pre	0		120	71.0	2.5	/experiments/AOT/AOT_stimuli/rescaled_final/1551_fw.mp4	0.0	381.37097692489624	1.0000970363616943
73	361.20665287971497	movie	1		245	71.0	2.5	/experiments/AOT/AOT_stimuli/rescaled_final/1551_fw.mp4	0.0	382.37107396125793	2.499912977218628
73	361.59009885787964	pulse	1	t		71.0	2.5	/experiments/AOT/AOT_stimuli/rescaled_final/1551_fw.mp4	0.0	382.7545199394226	
73	363.190043926239	pulse	1	t		71.0	2.5	/experiments/AOT/AOT_stimuli/rescaled_final/1551_fw.mp4	0.0	384.354465007782	
73	363.7065658569336	fix_post	2		12	71.0	2.5	/experiments/AOT/AOT_stimuli/rescaled_final/1551_fw.mp4	0.0	384.87098693847656	0.10008096694946289
74	363.80664682388306	fix_pre	0		119	72.0	2.5	/experiments/AOT/AOT_stimuli/rescaled_final/1495_fw.mp4	0.0	384.971067905426	0.991487979888916
74	364.7900478839874	pulse	0	t		72.0	2.5	/experiments/AOT/AOT_stimuli/rescaled_final/1495_fw.mp4	0.0	385.9544689655304	
74	364.798134803772	movie	1		246	72.0	2.5	/experiments/AOT/AOT_stimuli/rescaled_final/1495_fw.mp4	0.0	385.96255588531494	2.508402109146118
74	366.3894748687744	pulse	1	t		72.0	2.5	/experiments/AOT/AOT_stimuli/rescaled_final/1495_fw.mp4	0.0	387.5538959503174	
74	367.3065369129181	fix_post	2		12	72.0	2.5	/experiments/AOT/AOT_stimuli/rescaled_final/1495_fw.mp4	0.0	388.47095799446106	0.10001111030578613
75	367.4065480232239	fix_pre	0		120	73.0	2.5	/experiments/AOT/AOT_stimuli/rescaled_final/1494_fw.mp4	0.0	388.57096910476685	0.9999988079071045
75	367.99001693725586	pulse	0	t		73.0	2.5	/experiments/AOT/AOT_stimuli/rescaled_final/1494_fw.mp4	0.0	389.1544380187988	
75	368.406546831131	movie	1		244	73.0	2.5	/experiments/AOT/AOT_stimuli/rescaled_final/1494_fw.mp4	0.0	389.57096791267395	2.500005006790161
75	369.59011697769165	pulse	1	t		73.0	2.5	/experiments/AOT/AOT_stimuli/rescaled_final/1494_fw.mp4	0.0	390.7545380592346	
75	370.90655183792114	fix_post	2		12	73.0	2.5	/experiments/AOT/AOT_stimuli/rescaled_final/1494_fw.mp4	0.0	392.0709729194641	0.09991097450256348
76	371.0064628124237	fix_pre	0		120	74.0	2.5	/experiments/AOT/AOT_stimuli/rescaled_final/0697_rv.mp4	0.0	392.1708838939667	0.9999821186065674
76	371.1900119781494	pulse	0	t		74.0	2.5	/experiments/AOT/AOT_stimuli/rescaled_final/0697_rv.mp4	0.0	392.3544330596924	
76	372.0064449310303	movie	1		243	74.0	2.5	/experiments/AOT/AOT_stimuli/rescaled_final/0697_rv.mp4	0.0	393.17086601257324	2.5000228881835938
76	372.7899878025055	pulse	1	t		74.0	2.5	/experiments/AOT/AOT_stimuli/rescaled_final/0697_rv.mp4	0.0	393.95440888404846	
76	374.3885679244995	pulse	1	t		74.0	2.5	/experiments/AOT/AOT_stimuli/rescaled_final/0697_rv.mp4	0.0	395.5529890060425	
76	374.50646781921387	fix_post	2		12	74.0	2.5	/experiments/AOT/AOT_stimuli/rescaled_final/0697_rv.mp4	0.0	395.67088890075684	0.09955811500549316
77	374.60602593421936	fix_pre	0		120	75.0	2.5	blank	1.0	395.77044701576233	1.000493049621582
77	375.60651898384094	movie	1		300	75.0	2.5	blank	1.0	396.7709400653839	2.50008487701416
77	375.98965787887573	pulse	1	t		75.0	2.5	blank	1.0	397.1540789604187	
77	377.5898189544678	pulse	1	t		75.0	2.5	blank	1.0	398.75424003601074	
77	378.1066038608551	fix_post	2		12	75.0	2.5	blank	1.0	399.27102494239807	0.09980010986328125
78	378.2064039707184	fix_pre	0		119	76.0	2.5	/experiments/AOT/AOT_stimuli/rescaled_final/1028_fw.mp4	0.0	399.37082505226135	0.9918019771575928
78	379.18998885154724	pulse	0	t		76.0	2.5	/experiments/AOT/AOT_stimuli/rescaled_final/1028_fw.mp4	0.0	400.3544099330902	
78	379.198205947876	movie	1		250	76.0	2.5	/experiments/AOT/AOT_stimuli/rescaled_final/1028_fw.mp4	0.0	400.36262702941895	2.508233070373535
78	380.78944182395935	pulse	1	t		76.0	2.5	/experiments/AOT/AOT_stimuli/rescaled_final/1028_fw.mp4	0.0	401.9538629055023	
78	381.7064390182495	fix_post	2		12	76.0	2.5	/experiments/AOT/AOT_stimuli/rescaled_final/1028_fw.mp4	0.0	402.8708600997925	0.10001897811889648
79	381.8064579963684	fix_pre	0		120	77.0	2.5	/experiments/AOT/AOT_stimuli/rescaled_final/1111_fw.mp4	0.0	402.9708790779114	0.9999508857727051
79	382.38998103141785	pulse	0	t		77.0	2.5	/experiments/AOT/AOT_stimuli/rescaled_final/1111_fw.mp4	0.0	403.5544021129608	
79	382.8064088821411	movie	1		246	77.0	2.5	/experiments/AOT/AOT_stimuli/rescaled_final/1111_fw.mp4	0.0	403.9708299636841	2.499974012374878
79	383.9901268482208	pulse	1	t		77.0	2.5	/experiments/AOT/AOT_stimuli/rescaled_final/1111_fw.mp4	0.0	405.1545479297638	
79	385.306382894516	fix_post	2		12	77.0	2.5	/experiments/AOT/AOT_stimuli/rescaled_final/1111_fw.mp4	0.0	406.47080397605896	0.0999901294708252
80	385.4063730239868	fix_pre	0		120	78.0	2.5	/experiments/AOT/AOT_stimuli/rescaled_final/0763_rv.mp4	0.0	406.5707941055298	1.0000100135803223
80	385.589900970459	pulse	0	t		78.0	2.5	/experiments/AOT/AOT_stimuli/rescaled_final/0763_rv.mp4	0.0	406.75432205200195	
80	386.40638303756714	movie	1		246	78.0	2.5	/experiments/AOT/AOT_stimuli/rescaled_final/0763_rv.mp4	0.0	407.5708041191101	2.500009775161743
80	387.18994188308716	pulse	1	t		78.0	2.5	/experiments/AOT/AOT_stimuli/rescaled_final/0763_rv.mp4	0.0	408.3543629646301	
80	388.7899389266968	pulse	1	t		78.0	2.5	/experiments/AOT/AOT_stimuli/rescaled_final/0763_rv.mp4	0.0	409.95436000823975	
80	388.9063928127289	fix_post	2		12	78.0	2.5	/experiments/AOT/AOT_stimuli/rescaled_final/0763_rv.mp4	0.0	410.07081389427185	0.0999610424041748
81	389.00635385513306	fix_pre	0		120	79.0	2.5	/experiments/AOT/AOT_stimuli/rescaled_final/2136_rv.mp4	0.0	410.170774936676	1.0000290870666504
81	390.0063829421997	movie	1		245	79.0	2.5	/experiments/AOT/AOT_stimuli/rescaled_final/2136_rv.mp4	0.0	411.1708040237427	2.4999449253082275
81	390.38973093032837	pulse	1	t		79.0	2.5	/experiments/AOT/AOT_stimuli/rescaled_final/2136_rv.mp4	0.0	411.55415201187134	
81	391.9900689125061	pulse	1	t		79.0	2.5	/experiments/AOT/AOT_stimuli/rescaled_final/2136_rv.mp4	0.0	413.1544899940491	
81	392.50632786750793	fix_post	2		12	79.0	2.5	/experiments/AOT/AOT_stimuli/rescaled_final/2136_rv.mp4	0.0	413.6707489490509	0.1000211238861084
82	392.60634899139404	fix_pre	0		119	80.0	2.5	/experiments/AOT/AOT_stimuli/rescaled_final/1802_fw.mp4	0.0	413.770770072937	0.9917290210723877
82	393.58989787101746	pulse	0	t		80.0	2.5	/experiments/AOT/AOT_stimuli/rescaled_final/1802_fw.mp4	0.0	414.7543189525604	
82	393.59807801246643	movie	1		244	80.0	2.5	/experiments/AOT/AOT_stimuli/rescaled_final/1802_fw.mp4	0.0	414.7624990940094	2.508293867111206
82	395.1897668838501	pulse	1	t		80.0	2.5	/experiments/AOT/AOT_stimuli/rescaled_final/1802_fw.mp4	0.0	416.35418796539307	
82	396.10637187957764	fix_post	2		12	80.0	2.5	/experiments/AOT/AOT_stimuli/rescaled_final/1802_fw.mp4	0.0	417.2707929611206	0.09992814064025879
83	396.2063000202179	fix_pre	0		120	81.0	2.5	/experiments/AOT/AOT_stimuli/rescaled_final/1659_rv.mp4	0.0	417.37072110176086	1.0000147819519043
83	396.7898759841919	pulse	0	t		81.0	2.5	/experiments/AOT/AOT_stimuli/rescaled_final/1659_rv.mp4	0.0	417.95429706573486	
83	397.2063148021698	movie	1		246	81.0	2.5	/experiments/AOT/AOT_stimuli/rescaled_final/1659_rv.mp4	0.0	418.37073588371277	2.5000221729278564
83	398.38978600502014	pulse	1	t		81.0	2.5	/experiments/AOT/AOT_stimuli/rescaled_final/1659_rv.mp4	0.0	419.5542070865631	
83	399.70633697509766	fix_post	2		12	81.0	2.5	/experiments/AOT/AOT_stimuli/rescaled_final/1659_rv.mp4	0.0	420.8707580566406	0.10013484954833984
84	399.806471824646	fix_pre	0		120	82.0	2.5	/experiments/AOT/AOT_stimuli/rescaled_final/1625_fw.mp4	0.0	420.97089290618896	0.9998950958251953
84	399.9899299144745	pulse	0	t		82.0	2.5	/experiments/AOT/AOT_stimuli/rescaled_final/1625_fw.mp4	0.0	421.15435099601746	
84	400.8063669204712	movie	1		246	82.0	2.5	/experiments/AOT/AOT_stimuli/rescaled_final/1625_fw.mp4	0.0	421.97078800201416	2.5000109672546387
84	401.5897660255432	pulse	1	t		82.0	2.5	/experiments/AOT/AOT_stimuli/rescaled_final/1625_fw.mp4	0.0	422.7541871070862	
84	403.1893708705902	pulse	1	t		82.0	2.5	/experiments/AOT/AOT_stimuli/rescaled_final/1625_fw.mp4	0.0	424.3537919521332	
84	403.30637788772583	fix_post	2		12	82.0	2.5	/experiments/AOT/AOT_stimuli/rescaled_final/1625_fw.mp4	0.0	424.4707989692688	0.10000014305114746
85	403.406378030777	fix_pre	0		120	83.0	2.5	blank	1.0	424.57079911231995	0.9999969005584717
85	404.40637493133545	movie	1		300	83.0	2.5	blank	1.0	425.5707960128784	2.5000100135803223
85	404.7897980213165	pulse	1	t		83.0	2.5	blank	1.0	425.9542191028595	
85	406.3897428512573	pulse	1	t		83.0	2.5	blank	1.0	427.5541639328003	
85	406.90638494491577	fix_post	2		12	83.0	2.5	blank	1.0	428.07080602645874	0.09998393058776855
87	407.00636887550354	stim	0		1716					428.1707899570465	14.299921989440918
87	407.9898090362549	pulse	0	t						429.15423011779785	
87	409.5898509025574	pulse	0	t						430.75427198410034	
87	411.1897568702698	pulse	0	t						432.35417795181274	
87	412.78989601135254	pulse	0	t						433.9543170928955	
87	414.38983702659607	pulse	0	t						435.55425810813904	
87	415.98978090286255	pulse	0	t						437.1542019844055	
87	417.58976197242737	pulse	0	t						438.75418305397034	
87	419.18975496292114	pulse	0	t						440.3541760444641	
87	420.78975892066956	pulse	0	t						441.9541800022125	
