trial_nr	onset	event_type	phase	response	nr_frames	movie_index	movie_duration	movie_file	blank	onset_abs	duration
0	0.15790009498596191	stim	0		22					21.977340936660767	0.18374300003051758
0	0.33364200592041016	response	0	space						22.153082847595215	
1	0.3416430950164795	stim	0		5012					22.161083936691284	41.76646685600281
1	42.10200309753418	pulse	0	t						63.921443939208984	
1	42.10810995101929	stim	1		1717					63.92755079269409	14.30823802947998
1	43.6994571685791	pulse	1	t						65.5188980102539	
1	45.30002307891846	pulse	1	t						67.11946392059326	
1	46.89982795715332	pulse	1	t						68.71926879882812	
1	48.49983811378479	pulse	1	t						70.3192789554596	
1	50.09984111785889	pulse	1	t						71.91928195953369	
1	51.699841022491455	pulse	1	t						73.51928186416626	
1	53.29976415634155	pulse	1	t						75.11920499801636	
1	54.89979600906372	pulse	1	t						76.71923685073853	
2	56.41634798049927	fix_pre	0		11	0.0	2.5	/experiments/AOT/AOT_stimuli/rescaled_final/0174_fw.mp4	0.0	78.23578882217407	0.09172415733337402
2	56.49979901313782	pulse	0	t		0.0	2.5	/experiments/AOT/AOT_stimuli/rescaled_final/0174_fw.mp4	0.0	78.31923985481262	
2	56.50807213783264	movie	1		247	0.0	2.5	/experiments/AOT/AOT_stimuli/rescaled_final/0174_fw.mp4	0.0	78.32751297950745	2.5082709789276123
2	58.09945011138916	pulse	1	t		0.0	2.5	/experiments/AOT/AOT_stimuli/rescaled_final/0174_fw.mp4	0.0	79.91889095306396	
2	59.016343116760254	fix_post	2		12	0.0	2.5	/experiments/AOT/AOT_stimuli/rescaled_final/0174_fw.mp4	0.0	80.83578395843506	0.09994196891784668
3	59.1162850856781	fix_pre	0		120	1.0	2.5	/experiments/AOT/AOT_stimuli/rescaled_final/0051_rv.mp4	0.0	80.9357259273529	1.0000319480895996
3	59.699816942214966	pulse	0	t		1.0	2.5	/experiments/AOT/AOT_stimuli/rescaled_final/0051_rv.mp4	0.0	81.51925778388977	
3	60.1163170337677	movie	1		245	1.0	2.5	/experiments/AOT/AOT_stimuli/rescaled_final/0051_rv.mp4	0.0	81.9357578754425	2.49959397315979
3	61.299850940704346	pulse	1	t		1.0	2.5	/experiments/AOT/AOT_stimuli/rescaled_final/0051_rv.mp4	0.0	83.11929178237915	
3	62.61591100692749	fix_post	2		12	1.0	2.5	/experiments/AOT/AOT_stimuli/rescaled_final/0051_rv.mp4	0.0	84.4353518486023	0.1005091667175293
4	62.71642017364502	fix_pre	0		120	2.0	2.5	/experiments/AOT/AOT_stimuli/rescaled_final/0746_fw.mp4	0.0	84.53586101531982	0.9999289512634277
4	62.89981007575989	pulse	0	t		2.0	2.5	/experiments/AOT/AOT_stimuli/rescaled_final/0746_fw.mp4	0.0	84.71925091743469	
4	63.71634912490845	movie	1		247	2.0	2.5	/experiments/AOT/AOT_stimuli/rescaled_final/0746_fw.mp4	0.0	85.53578996658325	2.4998810291290283
4	64.49972605705261	pulse	1	t		2.0	2.5	/experiments/AOT/AOT_stimuli/rescaled_final/0746_fw.mp4	0.0	86.31916689872742	
4	66.09576916694641	pulse	1	t		2.0	2.5	/experiments/AOT/AOT_stimuli/rescaled_final/0746_fw.mp4	0.0	87.91521000862122	
4	66.21623015403748	fix_post	2		12	2.0	2.5	/experiments/AOT/AOT_stimuli/rescaled_final/0746_fw.mp4	0.0	88.03567099571228	0.09994196891784668
5	66.31617212295532	fix_pre	0		120	3.0	2.5	/experiments/AOT/AOT_stimuli/rescaled_final/1409_fw.mp4	0.0	88.13561296463013	1.00010085105896
5	67.31627297401428	movie	1		243	3.0	2.5	/experiments/AOT/AOT_stimuli/rescaled_final/1409_fw.mp4	0.0	89.13571381568909	2.499951124191284
5	67.69945311546326	pulse	1	t		3.0	2.5	/experiments/AOT/AOT_stimuli/rescaled_final/1409_fw.mp4	0.0	89.51889395713806	
5	69.29975199699402	pulse	1	t		3.0	2.5	/experiments/AOT/AOT_stimuli/rescaled_final/1409_fw.mp4	0.0	91.11919283866882	
5	69.81622409820557	fix_post	2		12	3.0	2.5	/experiments/AOT/AOT_stimuli/rescaled_final/1409_fw.mp4	0.0	91.63566493988037	0.1000978946685791
6	69.91632199287415	fix_pre	0		119	4.0	2.5	/experiments/AOT/AOT_stimuli/rescaled_final/2135_rv.mp4	0.0	91.73576283454895	0.9915611743927002
6	70.89976811408997	pulse	0	t		4.0	2.5	/experiments/AOT/AOT_stimuli/rescaled_final/2135_rv.mp4	0.0	92.71920895576477	
6	70.90788316726685	movie	1		246	4.0	2.5	/experiments/AOT/AOT_stimuli/rescaled_final/2135_rv.mp4	0.0	92.72732400894165	2.5082778930664062
6	72.49938607215881	pulse	1	t		4.0	2.5	/experiments/AOT/AOT_stimuli/rescaled_final/2135_rv.mp4	0.0	94.31882691383362	
6	73.41616106033325	fix_post	2		12	4.0	2.5	/experiments/AOT/AOT_stimuli/rescaled_final/2135_rv.mp4	0.0	95.23560190200806	0.10008692741394043
7	73.51624798774719	fix_pre	0		120	5.0	2.5	/experiments/AOT/AOT_stimuli/rescaled_final/0115_fw.mp4	0.0	95.335688829422	0.9999339580535889
7	74.09978914260864	pulse	0	t		5.0	2.5	/experiments/AOT/AOT_stimuli/rescaled_final/0115_fw.mp4	0.0	95.91922998428345	
7	74.51618194580078	movie	1		245	5.0	2.5	/experiments/AOT/AOT_stimuli/rescaled_final/0115_fw.mp4	0.0	96.33562278747559	2.500073194503784
7	75.6997971534729	pulse	1	t		5.0	2.5	/experiments/AOT/AOT_stimuli/rescaled_final/0115_fw.mp4	0.0	97.5192379951477	
7	77.01625514030457	fix_post	2		12	5.0	2.5	/experiments/AOT/AOT_stimuli/rescaled_final/0115_fw.mp4	0.0	98.83569598197937	0.09992194175720215
8	77.11617708206177	fix_pre	0		120	6.0	2.5	blank	1.0	98.93561792373657	1.0000009536743164
8	77.29966902732849	pulse	0	t		6.0	2.5	blank	1.0	99.1191098690033	
8	78.11617803573608	movie	1		300	6.0	2.5	blank	1.0	99.93561887741089	2.5000689029693604
8	78.89970993995667	pulse	1	t		6.0	2.5	blank	1.0	100.71915078163147	
8	80.49961614608765	pulse	1	t		6.0	2.5	blank	1.0	102.31905698776245	
8	80.61624693870544	fix_post	2		12	6.0	2.5	blank	1.0	102.43568778038025	0.0999460220336914
9	80.71619296073914	fix_pre	0		120	7.0	2.5	/experiments/AOT/AOT_stimuli/rescaled_final/1150_rv.mp4	0.0	102.53563380241394	0.999561071395874
9	81.71575403213501	movie	1		245	7.0	2.5	/experiments/AOT/AOT_stimuli/rescaled_final/1150_rv.mp4	0.0	103.53519487380981	2.5003960132598877
9	82.09976100921631	pulse	1	t		7.0	2.5	/experiments/AOT/AOT_stimuli/rescaled_final/1150_rv.mp4	0.0	103.91920185089111	
9	83.69966912269592	pulse	1	t		7.0	2.5	/experiments/AOT/AOT_stimuli/rescaled_final/1150_rv.mp4	0.0	105.51910996437073	
9	84.2161500453949	fix_post	2		12	7.0	2.5	/experiments/AOT/AOT_stimuli/rescaled_final/1150_rv.mp4	0.0	106.0355908870697	0.09995508193969727
10	84.3161051273346	fix_pre	0		119	8.0	2.5	/experiments/AOT/AOT_stimuli/rescaled_final/1513_rv.mp4	0.0	106.1355459690094	0.9917800426483154
10	85.29970908164978	pulse	0	t		8.0	2.5	/experiments/AOT/AOT_stimuli/rescaled_final/1513_rv.mp4	0.0	107.11914992332458	
10	85.30788516998291	movie	1		247	8.0	2.5	/experiments/AOT/AOT_stimuli/rescaled_final/1513_rv.mp4	0.0	107.12732601165771	2.508219003677368
10	86.89956903457642	pulse	1	t		8.0	2.5	/experiments/AOT/AOT_stimuli/rescaled_final/1513_rv.mp4	0.0	108.71900987625122	
10	87.81610417366028	fix_post	2		12	8.0	2.5	/experiments/AOT/AOT_stimuli/rescaled_final/1513_rv.mp4	0.0	109.63554501533508	0.10008096694946289
11	87.91618514060974	fix_pre	0		120	9.0	2.5	/experiments/AOT/AOT_stimuli/rescaled_final/2048_rv.mp4	0.0	109.73562598228455	1.0000028610229492
11	88.49967408180237	pulse	0	t		9.0	2.5	/experiments/AOT/AOT_stimuli/rescaled_final/2048_rv.mp4	0.0	110.31911492347717	
11	88.91618800163269	movie	1		244	9.0	2.5	/experiments/AOT/AOT_stimuli/rescaled_final/2048_rv.mp4	0.0	110.7356288433075	2.499572992324829
11	90.09963798522949	pulse	1	t		9.0	2.5	/experiments/AOT/AOT_stimuli/rescaled_final/2048_rv.mp4	0.0	111.9190788269043	
11	91.41576099395752	fix_post	2		12	9.0	2.5	/experiments/AOT/AOT_stimuli/rescaled_final/2048_rv.mp4	0.0	113.23520183563232	0.1003260612487793
12	91.5160870552063	fix_pre	0		120	10.0	2.5	/experiments/AOT/AOT_stimuli/rescaled_final/0871_fw.mp4	0.0	113.3355278968811	1.000108003616333
12	91.69967317581177	pulse	0	t		10.0	2.5	/experiments/AOT/AOT_stimuli/rescaled_final/0871_fw.mp4	0.0	113.51911401748657	
12	92.51619505882263	movie	1		244	10.0	2.5	/experiments/AOT/AOT_stimuli/rescaled_final/0871_fw.mp4	0.0	114.33563590049744	2.499856948852539
12	93.29965996742249	pulse	1	t		10.0	2.5	/experiments/AOT/AOT_stimuli/rescaled_final/0871_fw.mp4	0.0	115.11910080909729	
12	94.8958351612091	pulse	1	t		10.0	2.5	/experiments/AOT/AOT_stimuli/rescaled_final/0871_fw.mp4	0.0	116.71527600288391	
12	95.01605200767517	fix_post	2		12	10.0	2.5	/experiments/AOT/AOT_stimuli/rescaled_final/0871_fw.mp4	0.0	116.83549284934998	0.10009598731994629
13	95.11614799499512	fix_pre	0		120	11.0	2.5	/experiments/AOT/AOT_stimuli/rescaled_final/2049_rv.mp4	0.0	116.93558883666992	1.0000381469726562
13	96.11618614196777	movie	1		244	11.0	2.5	/experiments/AOT/AOT_stimuli/rescaled_final/2049_rv.mp4	0.0	117.93562698364258	2.4999969005584717
13	96.49938702583313	pulse	1	t		11.0	2.5	/experiments/AOT/AOT_stimuli/rescaled_final/2049_rv.mp4	0.0	118.31882786750793	
13	98.09958910942078	pulse	1	t		11.0	2.5	/experiments/AOT/AOT_stimuli/rescaled_final/2049_rv.mp4	0.0	119.91902995109558	
13	98.61618304252625	fix_post	2		12	11.0	2.5	/experiments/AOT/AOT_stimuli/rescaled_final/2049_rv.mp4	0.0	120.43562388420105	0.1000211238861084
14	98.71620416641235	fix_pre	0		119	12.0	2.5	/experiments/AOT/AOT_stimuli/rescaled_final/0947_fw.mp4	0.0	120.53564500808716	0.9915988445281982
14	99.69919013977051	pulse	0	t		12.0	2.5	/experiments/AOT/AOT_stimuli/rescaled_final/0947_fw.mp4	0.0	121.51863098144531	
14	99.70780301094055	movie	1		247	12.0	2.5	/experiments/AOT/AOT_stimuli/rescaled_final/0947_fw.mp4	0.0	121.52724385261536	2.508561134338379
14	101.29918813705444	pulse	1	t		12.0	2.5	/experiments/AOT/AOT_stimuli/rescaled_final/0947_fw.mp4	0.0	123.11862897872925	
14	102.21636414527893	fix_post	2		12	12.0	2.5	/experiments/AOT/AOT_stimuli/rescaled_final/0947_fw.mp4	0.0	124.03580498695374	0.09996199607849121
15	102.31632614135742	fix_pre	0		120	13.0	2.5	blank	1.0	124.13576698303223	0.9993669986724854
15	102.89953398704529	pulse	0	t		13.0	2.5	blank	1.0	124.71897482872009	
15	103.31569314002991	movie	1		300	13.0	2.5	blank	1.0	125.13513398170471	2.500332832336426
15	104.49958205223083	pulse	1	t		13.0	2.5	blank	1.0	126.31902289390564	
15	105.81602597236633	fix_post	2		12	13.0	2.5	blank	1.0	127.63546681404114	0.10005402565002441
16	105.91607999801636	fix_pre	0		120	14.0	2.5	/experiments/AOT/AOT_stimuli/rescaled_final/1239_rv.mp4	0.0	127.73552083969116	0.9999401569366455
16	106.09960508346558	pulse	0	t		14.0	2.5	/experiments/AOT/AOT_stimuli/rescaled_final/1239_rv.mp4	0.0	127.91904592514038	
16	106.916020154953	movie	1		244	14.0	2.5	/experiments/AOT/AOT_stimuli/rescaled_final/1239_rv.mp4	0.0	128.7354609966278	2.5000529289245605
16	107.69955706596375	pulse	1	t		14.0	2.5	/experiments/AOT/AOT_stimuli/rescaled_final/1239_rv.mp4	0.0	129.51899790763855	
16	109.29575395584106	pulse	1	t		14.0	2.5	/experiments/AOT/AOT_stimuli/rescaled_final/1239_rv.mp4	0.0	131.11519479751587	
16	109.41607308387756	fix_post	2		12	14.0	2.5	/experiments/AOT/AOT_stimuli/rescaled_final/1239_rv.mp4	0.0	131.23551392555237	0.09995198249816895
17	109.51602506637573	fix_pre	0		120	15.0	2.5	/experiments/AOT/AOT_stimuli/rescaled_final/1239_fw.mp4	0.0	131.33546590805054	1.0000190734863281
17	110.51604413986206	movie	1		245	15.0	2.5	/experiments/AOT/AOT_stimuli/rescaled_final/1239_fw.mp4	0.0	132.33548498153687	2.4996209144592285
17	110.89906907081604	pulse	1	t		15.0	2.5	/experiments/AOT/AOT_stimuli/rescaled_final/1239_fw.mp4	0.0	132.71850991249084	
17	112.49940204620361	pulse	1	t		15.0	2.5	/experiments/AOT/AOT_stimuli/rescaled_final/1239_fw.mp4	0.0	134.31884288787842	
17	113.01566505432129	fix_post	2		12	15.0	2.5	/experiments/AOT/AOT_stimuli/rescaled_final/1239_fw.mp4	0.0	134.8351058959961	0.10037493705749512
18	113.11603999137878	fix_pre	0		118	16.0	2.5	/experiments/AOT/AOT_stimuli/rescaled_final/0882_rv.mp4	0.0	134.9354808330536	0.9916260242462158
18	114.09951210021973	pulse	0	t		16.0	2.5	/experiments/AOT/AOT_stimuli/rescaled_final/0882_rv.mp4	0.0	135.91895294189453	
18	114.107666015625	movie	1		246	16.0	2.5	/experiments/AOT/AOT_stimuli/rescaled_final/0882_rv.mp4	0.0	135.9271068572998	2.5078890323638916
18	115.69912314414978	pulse	1	t		16.0	2.5	/experiments/AOT/AOT_stimuli/rescaled_final/0882_rv.mp4	0.0	137.51856398582458	
18	116.61555504798889	fix_post	2		12	16.0	2.5	/experiments/AOT/AOT_stimuli/rescaled_final/0882_rv.mp4	0.0	138.4349958896637	0.10045695304870605
19	116.7160120010376	fix_pre	0		120	17.0	2.5	/experiments/AOT/AOT_stimuli/rescaled_final/0359_rv.mp4	0.0	138.5354528427124	0.9999771118164062
19	117.29955816268921	pulse	0	t		17.0	2.5	/experiments/AOT/AOT_stimuli/rescaled_final/0359_rv.mp4	0.0	139.118999004364	
19	117.715989112854	movie	1		244	17.0	2.5	/experiments/AOT/AOT_stimuli/rescaled_final/0359_rv.mp4	0.0	139.5354299545288	2.4999890327453613
19	118.89952802658081	pulse	1	t		17.0	2.5	/experiments/AOT/AOT_stimuli/rescaled_final/0359_rv.mp4	0.0	140.71896886825562	
19	120.21597814559937	fix_post	2		12	17.0	2.5	/experiments/AOT/AOT_stimuli/rescaled_final/0359_rv.mp4	0.0	142.03541898727417	0.09997987747192383
20	120.31595802307129	fix_pre	0		120	18.0	2.5	/experiments/AOT/AOT_stimuli/rescaled_final/0352_rv.mp4	0.0	142.1353988647461	1.0000720024108887
20	120.49950194358826	pulse	0	t		18.0	2.5	/experiments/AOT/AOT_stimuli/rescaled_final/0352_rv.mp4	0.0	142.31894278526306	
20	121.31603002548218	movie	1		244	18.0	2.5	/experiments/AOT/AOT_stimuli/rescaled_final/0352_rv.mp4	0.0	143.13547086715698	2.499936103820801
20	122.09951615333557	pulse	1	t		18.0	2.5	/experiments/AOT/AOT_stimuli/rescaled_final/0352_rv.mp4	0.0	143.91895699501038	
20	123.69809007644653	pulse	1	t		18.0	2.5	/experiments/AOT/AOT_stimuli/rescaled_final/0352_rv.mp4	0.0	145.51753091812134	
20	123.81596612930298	fix_post	2		12	18.0	2.5	/experiments/AOT/AOT_stimuli/rescaled_final/0352_rv.mp4	0.0	145.63540697097778	0.10001683235168457
21	123.91598296165466	fix_pre	0		120	19.0	2.5	/experiments/AOT/AOT_stimuli/rescaled_final/1239_fw.mp4	0.0	145.73542380332947	1.0000121593475342
21	124.9159951210022	movie	1		245	19.0	2.5	/experiments/AOT/AOT_stimuli/rescaled_final/1239_fw.mp4	0.0	146.735435962677	2.4995779991149902
21	125.29913997650146	pulse	1	t		19.0	2.5	/experiments/AOT/AOT_stimuli/rescaled_final/1239_fw.mp4	0.0	147.11858081817627	
21	126.89944100379944	pulse	1	t		19.0	2.5	/experiments/AOT/AOT_stimuli/rescaled_final/1239_fw.mp4	0.0	148.71888184547424	
21	127.41557312011719	fix_post	2		12	19.0	2.5	/experiments/AOT/AOT_stimuli/rescaled_final/1239_fw.mp4	0.0	149.235013961792	0.10050201416015625
22	127.51607513427734	fix_pre	0		119	20.0	2.5	/experiments/AOT/AOT_stimuli/rescaled_final/0388_rv.mp4	0.0	149.33551597595215	0.9915299415588379
22	128.49948811531067	pulse	0	t		20.0	2.5	/experiments/AOT/AOT_stimuli/rescaled_final/0388_rv.mp4	0.0	150.31892895698547	
22	128.50760507583618	movie	1		247	20.0	2.5	/experiments/AOT/AOT_stimuli/rescaled_final/0388_rv.mp4	0.0	150.327045917511	2.507927894592285
22	130.09906816482544	pulse	1	t		20.0	2.5	/experiments/AOT/AOT_stimuli/rescaled_final/0388_rv.mp4	0.0	151.91850900650024	
22	131.01553297042847	fix_post	2		12	20.0	2.5	/experiments/AOT/AOT_stimuli/rescaled_final/0388_rv.mp4	0.0	152.83497381210327	0.10033202171325684
23	131.11586499214172	fix_pre	0		120	21.0	2.5	blank	1.0	152.93530583381653	0.9998350143432617
23	131.69944715499878	pulse	0	t		21.0	2.5	blank	1.0	153.51888799667358	
23	132.11570000648499	movie	1		300	21.0	2.5	blank	1.0	153.9351408481598	2.5002059936523438
23	133.2994260787964	pulse	1	t		21.0	2.5	blank	1.0	155.1188669204712	
23	134.61590600013733	fix_post	2		12	21.0	2.5	blank	1.0	156.43534684181213	0.10000014305114746
24	134.71590614318848	fix_pre	0		120	22.0	2.5	/experiments/AOT/AOT_stimuli/rescaled_final/2135_rv.mp4	0.0	156.53534698486328	0.999945878982544
24	134.8994390964508	pulse	0	t		22.0	2.5	/experiments/AOT/AOT_stimuli/rescaled_final/2135_rv.mp4	0.0	156.7188799381256	
24	135.71585202217102	movie	1		245	22.0	2.5	/experiments/AOT/AOT_stimuli/rescaled_final/2135_rv.mp4	0.0	157.53529286384583	2.5001139640808105
24	136.49947905540466	pulse	1	t		22.0	2.5	/experiments/AOT/AOT_stimuli/rescaled_final/2135_rv.mp4	0.0	158.31891989707947	
24	138.09528994560242	pulse	1	t		22.0	2.5	/experiments/AOT/AOT_stimuli/rescaled_final/2135_rv.mp4	0.0	159.91473078727722	
24	138.21596598625183	fix_post	2		12	22.0	2.5	/experiments/AOT/AOT_stimuli/rescaled_final/2135_rv.mp4	0.0	160.03540682792664	0.10027909278869629
25	138.31624507904053	fix_pre	0		120	23.0	2.5	/experiments/AOT/AOT_stimuli/rescaled_final/1330_fw.mp4	0.0	160.13568592071533	0.9992249011993408
25	139.31546998023987	movie	1		244	23.0	2.5	/experiments/AOT/AOT_stimuli/rescaled_final/1330_fw.mp4	0.0	161.13491082191467	2.5003750324249268
25	139.69923996925354	pulse	1	t		23.0	2.5	/experiments/AOT/AOT_stimuli/rescaled_final/1330_fw.mp4	0.0	161.51868081092834	
25	141.29941701889038	pulse	1	t		23.0	2.5	/experiments/AOT/AOT_stimuli/rescaled_final/1330_fw.mp4	0.0	163.11885786056519	
25	141.8158450126648	fix_post	2		12	23.0	2.5	/experiments/AOT/AOT_stimuli/rescaled_final/1330_fw.mp4	0.0	163.6352858543396	0.09996199607849121
26	141.9158070087433	fix_pre	0		119	24.0	2.5	/experiments/AOT/AOT_stimuli/rescaled_final/1409_rv.mp4	0.0	163.7352478504181	0.9918129444122314
26	142.89941096305847	pulse	0	t		24.0	2.5	/experiments/AOT/AOT_stimuli/rescaled_final/1409_rv.mp4	0.0	164.71885180473328	
26	142.90761995315552	movie	1		244	24.0	2.5	/experiments/AOT/AOT_stimuli/rescaled_final/1409_rv.mp4	0.0	164.72706079483032	2.508228063583374
26	144.49907207489014	pulse	1	t		24.0	2.5	/experiments/AOT/AOT_stimuli/rescaled_final/1409_rv.mp4	0.0	166.31851291656494	
26	145.4158480167389	fix_post	2		12	24.0	2.5	/experiments/AOT/AOT_stimuli/rescaled_final/1409_rv.mp4	0.0	167.2352888584137	0.10001707077026367
27	145.51586508750916	fix_pre	0		120	25.0	2.5	/experiments/AOT/AOT_stimuli/rescaled_final/1172_rv.mp4	0.0	167.33530592918396	0.9999909400939941
27	146.09935808181763	pulse	0	t		25.0	2.5	/experiments/AOT/AOT_stimuli/rescaled_final/1172_rv.mp4	0.0	167.91879892349243	
27	146.51585602760315	movie	1		244	25.0	2.5	/experiments/AOT/AOT_stimuli/rescaled_final/1172_rv.mp4	0.0	168.33529686927795	2.500102996826172
27	147.69949197769165	pulse	1	t		25.0	2.5	/experiments/AOT/AOT_stimuli/rescaled_final/1172_rv.mp4	0.0	169.51893281936646	
27	149.01595902442932	fix_post	2		12	25.0	2.5	/experiments/AOT/AOT_stimuli/rescaled_final/1172_rv.mp4	0.0	170.83539986610413	0.09997797012329102
28	149.1159369945526	fix_pre	0		120	26.0	2.5	/experiments/AOT/AOT_stimuli/rescaled_final/1734_fw.mp4	0.0	170.93537783622742	0.9999551773071289
28	149.29943704605103	pulse	0	t		26.0	2.5	/experiments/AOT/AOT_stimuli/rescaled_final/1734_fw.mp4	0.0	171.11887788772583	
28	150.11589217185974	movie	1		244	26.0	2.5	/experiments/AOT/AOT_stimuli/rescaled_final/1734_fw.mp4	0.0	171.93533301353455	2.499555826187134
28	150.89937615394592	pulse	1	t		26.0	2.5	/experiments/AOT/AOT_stimuli/rescaled_final/1734_fw.mp4	0.0	172.71881699562073	
28	152.49795699119568	pulse	1	t		26.0	2.5	/experiments/AOT/AOT_stimuli/rescaled_final/1734_fw.mp4	0.0	174.31739783287048	
28	152.61544799804688	fix_post	2		12	26.0	2.5	/experiments/AOT/AOT_stimuli/rescaled_final/1734_fw.mp4	0.0	174.43488883972168	0.1004490852355957
29	152.71589708328247	fix_pre	0		120	27.0	2.5	blank	1.0	174.53533792495728	0.9999659061431885
29	153.71586298942566	movie	1		300	27.0	2.5	blank	1.0	175.53530383110046	2.500070095062256
29	154.09939098358154	pulse	1	t		27.0	2.5	blank	1.0	175.91883182525635	
29	155.69890117645264	pulse	1	t		27.0	2.5	blank	1.0	177.51834201812744	
29	156.21593308448792	fix_post	2		12	27.0	2.5	blank	1.0	178.03537392616272	0.09995198249816895
30	156.31588506698608	fix_pre	0		119	28.0	2.5	/experiments/AOT/AOT_stimuli/rescaled_final/0083_fw.mp4	0.0	178.1353259086609	0.9917628765106201
30	157.29949307441711	pulse	0	t		28.0	2.5	/experiments/AOT/AOT_stimuli/rescaled_final/0083_fw.mp4	0.0	179.11893391609192	
30	157.3076479434967	movie	1		246	28.0	2.5	/experiments/AOT/AOT_stimuli/rescaled_final/0083_fw.mp4	0.0	179.1270887851715	2.508294105529785
30	158.89887309074402	pulse	1	t		28.0	2.5	/experiments/AOT/AOT_stimuli/rescaled_final/0083_fw.mp4	0.0	180.71831393241882	
30	159.8159420490265	fix_post	2		12	28.0	2.5	/experiments/AOT/AOT_stimuli/rescaled_final/0083_fw.mp4	0.0	181.6353828907013	0.09991598129272461
31	159.9158580303192	fix_pre	0		120	29.0	2.5	/experiments/AOT/AOT_stimuli/rescaled_final/0356_rv.mp4	0.0	181.73529887199402	0.999967098236084
31	160.49933505058289	pulse	0	t		29.0	2.5	/experiments/AOT/AOT_stimuli/rescaled_final/0356_rv.mp4	0.0	182.3187758922577	
31	160.9158251285553	movie	1		243	29.0	2.5	/experiments/AOT/AOT_stimuli/rescaled_final/0356_rv.mp4	0.0	182.7352659702301	2.500030994415283
31	162.09935212135315	pulse	1	t		29.0	2.5	/experiments/AOT/AOT_stimuli/rescaled_final/0356_rv.mp4	0.0	183.91879296302795	
31	163.41585612297058	fix_post	2		12	29.0	2.5	/experiments/AOT/AOT_stimuli/rescaled_final/0356_rv.mp4	0.0	185.23529696464539	0.09995293617248535
32	163.51580905914307	fix_pre	0		120	30.0	2.5	/experiments/AOT/AOT_stimuli/rescaled_final/1012_rv.mp4	0.0	185.33524990081787	1.0000379085540771
32	163.69923996925354	pulse	0	t		30.0	2.5	/experiments/AOT/AOT_stimuli/rescaled_final/1012_rv.mp4	0.0	185.51868081092834	
32	164.51584696769714	movie	1		243	30.0	2.5	/experiments/AOT/AOT_stimuli/rescaled_final/1012_rv.mp4	0.0	186.33528780937195	2.4998691082000732
32	165.2993130683899	pulse	1	t		30.0	2.5	/experiments/AOT/AOT_stimuli/rescaled_final/1012_rv.mp4	0.0	187.1187539100647	
32	166.89773201942444	pulse	1	t		30.0	2.5	/experiments/AOT/AOT_stimuli/rescaled_final/1012_rv.mp4	0.0	188.71717286109924	
32	167.01571607589722	fix_post	2		12	30.0	2.5	/experiments/AOT/AOT_stimuli/rescaled_final/1012_rv.mp4	0.0	188.83515691757202	0.10012292861938477
33	167.1158390045166	fix_pre	0		120	31.0	2.5	/experiments/AOT/AOT_stimuli/rescaled_final/1819_rv.mp4	0.0	188.9352798461914	0.9999489784240723
33	168.11578798294067	movie	1		245	31.0	2.5	/experiments/AOT/AOT_stimuli/rescaled_final/1819_rv.mp4	0.0	189.93522882461548	2.4999639987945557
33	168.4988510608673	pulse	1	t		31.0	2.5	/experiments/AOT/AOT_stimuli/rescaled_final/1819_rv.mp4	0.0	190.31829190254211	
33	170.09921097755432	pulse	1	t		31.0	2.5	/experiments/AOT/AOT_stimuli/rescaled_final/1819_rv.mp4	0.0	191.91865181922913	
33	170.61575198173523	fix_post	2		12	31.0	2.5	/experiments/AOT/AOT_stimuli/rescaled_final/1819_rv.mp4	0.0	192.43519282341003	0.09996914863586426
34	170.7157211303711	fix_pre	0		119	32.0	2.5	/experiments/AOT/AOT_stimuli/rescaled_final/0561_rv.mp4	0.0	192.5351619720459	0.9916658401489258
34	171.6992630958557	pulse	0	t		32.0	2.5	/experiments/AOT/AOT_stimuli/rescaled_final/0561_rv.mp4	0.0	193.51870393753052	
34	171.70738697052002	movie	1		247	32.0	2.5	/experiments/AOT/AOT_stimuli/rescaled_final/0561_rv.mp4	0.0	193.52682781219482	2.5083470344543457
34	173.30079793930054	pulse	1	t		32.0	2.5	/experiments/AOT/AOT_stimuli/rescaled_final/0561_rv.mp4	0.0	195.12023878097534	
34	174.21573400497437	fix_post	2		12	32.0	2.5	/experiments/AOT/AOT_stimuli/rescaled_final/0561_rv.mp4	0.0	196.03517484664917	0.09999394416809082
35	174.31572794914246	fix_pre	0		120	33.0	2.5	/experiments/AOT/AOT_stimuli/rescaled_final/0701_fw.mp4	0.0	196.13516879081726	1.0000522136688232
35	174.89921808242798	pulse	0	t		33.0	2.5	/experiments/AOT/AOT_stimuli/rescaled_final/0701_fw.mp4	0.0	196.71865892410278	
35	175.31578016281128	movie	1		243	33.0	2.5	/experiments/AOT/AOT_stimuli/rescaled_final/0701_fw.mp4	0.0	197.13522100448608	2.4995548725128174
35	176.49930000305176	pulse	1	t		33.0	2.5	/experiments/AOT/AOT_stimuli/rescaled_final/0701_fw.mp4	0.0	198.31874084472656	
35	177.8153350353241	fix_post	2		12	33.0	2.5	/experiments/AOT/AOT_stimuli/rescaled_final/0701_fw.mp4	0.0	199.6347758769989	0.10034298896789551
36	177.915678024292	fix_pre	0		120	34.0	2.5	blank	1.0	199.7351188659668	1.0000989437103271
36	178.09921312332153	pulse	0	t		34.0	2.5	blank	1.0	199.91865396499634	
36	178.91577696800232	movie	1		300	34.0	2.5	blank	1.0	200.73521780967712	2.4999501705169678
36	179.69922995567322	pulse	1	t		34.0	2.5	blank	1.0	201.51867079734802	
36	181.29919815063477	pulse	1	t		34.0	2.5	blank	1.0	203.11863899230957	
36	181.4157271385193	fix_post	2		12	34.0	2.5	blank	1.0	203.2351679801941	0.09997987747192383
37	181.5157070159912	fix_pre	0		120	35.0	2.5	/experiments/AOT/AOT_stimuli/rescaled_final/0464_rv.mp4	0.0	203.33514785766602	1.0000250339508057
37	182.51573204994202	movie	1		243	35.0	2.5	/experiments/AOT/AOT_stimuli/rescaled_final/0464_rv.mp4	0.0	204.33517289161682	2.4999749660491943
37	182.89896512031555	pulse	1	t		35.0	2.5	/experiments/AOT/AOT_stimuli/rescaled_final/0464_rv.mp4	0.0	204.71840596199036	
37	184.49920415878296	pulse	1	t		35.0	2.5	/experiments/AOT/AOT_stimuli/rescaled_final/0464_rv.mp4	0.0	206.31864500045776	
37	185.0157070159912	fix_post	2		12	35.0	2.5	/experiments/AOT/AOT_stimuli/rescaled_final/0464_rv.mp4	0.0	206.83514785766602	0.09999203681945801
38	185.11569905281067	fix_pre	0		119	36.0	2.5	/experiments/AOT/AOT_stimuli/rescaled_final/1199_rv.mp4	0.0	206.93513989448547	0.9916501045227051
38	186.09922814369202	pulse	0	t		36.0	2.5	/experiments/AOT/AOT_stimuli/rescaled_final/1199_rv.mp4	0.0	207.91866898536682	
38	186.10734915733337	movie	1		245	36.0	2.5	/experiments/AOT/AOT_stimuli/rescaled_final/1199_rv.mp4	0.0	207.92678999900818	2.5083158016204834
38	187.69882106781006	pulse	1	t		36.0	2.5	/experiments/AOT/AOT_stimuli/rescaled_final/1199_rv.mp4	0.0	209.51826190948486	
38	188.61566495895386	fix_post	2		12	36.0	2.5	/experiments/AOT/AOT_stimuli/rescaled_final/1199_rv.mp4	0.0	210.43510580062866	0.10001111030578613
39	188.71567606925964	fix_pre	0		120	37.0	2.5	/experiments/AOT/AOT_stimuli/rescaled_final/0774_fw.mp4	0.0	210.53511691093445	0.9999148845672607
39	189.29920411109924	pulse	0	t		37.0	2.5	/experiments/AOT/AOT_stimuli/rescaled_final/0774_fw.mp4	0.0	211.11864495277405	
39	189.7155909538269	movie	1		246	37.0	2.5	/experiments/AOT/AOT_stimuli/rescaled_final/0774_fw.mp4	0.0	211.5350317955017	2.5000481605529785
39	190.8993091583252	pulse	1	t		37.0	2.5	/experiments/AOT/AOT_stimuli/rescaled_final/0774_fw.mp4	0.0	212.71875	
39	192.21563911437988	fix_post	2		12	37.0	2.5	/experiments/AOT/AOT_stimuli/rescaled_final/0774_fw.mp4	0.0	214.0350799560547	0.10002899169921875
40	192.3156681060791	fix_pre	0		120	38.0	2.5	/experiments/AOT/AOT_stimuli/rescaled_final/0696_fw.mp4	0.0	214.1351089477539	1.0000519752502441
40	192.49907302856445	pulse	0	t		38.0	2.5	/experiments/AOT/AOT_stimuli/rescaled_final/0696_fw.mp4	0.0	214.31851387023926	
40	193.31572008132935	movie	1		244	38.0	2.5	/experiments/AOT/AOT_stimuli/rescaled_final/0696_fw.mp4	0.0	215.13516092300415	2.4995150566101074
40	194.09915494918823	pulse	1	t		38.0	2.5	/experiments/AOT/AOT_stimuli/rescaled_final/0696_fw.mp4	0.0	215.91859579086304	
40	195.69777417182922	pulse	1	t		38.0	2.5	/experiments/AOT/AOT_stimuli/rescaled_final/0696_fw.mp4	0.0	217.51721501350403	
40	195.81523513793945	fix_post	2		12	38.0	2.5	/experiments/AOT/AOT_stimuli/rescaled_final/0696_fw.mp4	0.0	217.63467597961426	0.1003568172454834
41	195.91559195518494	fix_pre	0		120	39.0	2.5	/experiments/AOT/AOT_stimuli/rescaled_final/1578_fw.mp4	0.0	217.73503279685974	1.000047206878662
41	196.9156391620636	movie	1		248	39.0	2.5	/experiments/AOT/AOT_stimuli/rescaled_final/1578_fw.mp4	0.0	218.7350800037384	2.5000529289245605
41	197.30024814605713	pulse	1	t		39.0	2.5	/experiments/AOT/AOT_stimuli/rescaled_final/1578_fw.mp4	0.0	219.11968898773193	
41	198.89913606643677	pulse	1	t		39.0	2.5	/experiments/AOT/AOT_stimuli/rescaled_final/1578_fw.mp4	0.0	220.71857690811157	
41	199.41569209098816	fix_post	2		12	39.0	2.5	/experiments/AOT/AOT_stimuli/rescaled_final/1578_fw.mp4	0.0	221.23513293266296	0.0995478630065918
42	199.51523995399475	fix_pre	0		119	40.0	2.5	/experiments/AOT/AOT_stimuli/rescaled_final/0722_fw.mp4	0.0	221.33468079566956	0.9920651912689209
42	200.49914813041687	pulse	0	t		40.0	2.5	/experiments/AOT/AOT_stimuli/rescaled_final/0722_fw.mp4	0.0	222.31858897209167	
42	200.50730514526367	movie	1		246	40.0	2.5	/experiments/AOT/AOT_stimuli/rescaled_final/0722_fw.mp4	0.0	222.32674598693848	2.508410930633545
42	202.09881711006165	pulse	1	t		40.0	2.5	/experiments/AOT/AOT_stimuli/rescaled_final/0722_fw.mp4	0.0	223.91825795173645	
42	203.01571607589722	fix_post	2		12	40.0	2.5	/experiments/AOT/AOT_stimuli/rescaled_final/0722_fw.mp4	0.0	224.83515691757202	0.09984087944030762
43	203.11555695533752	fix_pre	0		120	41.0	2.5	/experiments/AOT/AOT_stimuli/rescaled_final/1609_fw.mp4	0.0	224.93499779701233	1.0000782012939453
43	203.69929599761963	pulse	0	t		41.0	2.5	/experiments/AOT/AOT_stimuli/rescaled_final/1609_fw.mp4	0.0	225.51873683929443	
43	204.11563515663147	movie	1		243	41.0	2.5	/experiments/AOT/AOT_stimuli/rescaled_final/1609_fw.mp4	0.0	225.93507599830627	2.499856948852539
43	205.29901099205017	pulse	1	t		41.0	2.5	/experiments/AOT/AOT_stimuli/rescaled_final/1609_fw.mp4	0.0	227.11845183372498	
43	206.615492105484	fix_post	2		12	41.0	2.5	/experiments/AOT/AOT_stimuli/rescaled_final/1609_fw.mp4	0.0	228.4349329471588	0.1000819206237793
44	206.7155740261078	fix_pre	0		120	42.0	2.5	blank	1.0	228.5350148677826	1.0000309944152832
44	206.89902305603027	pulse	0	t		42.0	2.5	blank	1.0	228.71846389770508	
44	207.71560502052307	movie	1		300	42.0	2.5	blank	1.0	229.53504586219788	2.5000081062316895
44	208.4990930557251	pulse	1	t		42.0	2.5	blank	1.0	230.3185338973999	
44	210.09912610054016	pulse	1	t		42.0	2.5	blank	1.0	231.91856694221497	
44	210.21561312675476	fix_post	2		12	42.0	2.5	blank	1.0	232.03505396842957	0.0995168685913086
45	210.31512999534607	fix_pre	0		120	43.0	2.5	/experiments/AOT/AOT_stimuli/rescaled_final/0164_rv.mp4	0.0	232.13457083702087	1.0004961490631104
45	211.31562614440918	movie	1		244	43.0	2.5	/experiments/AOT/AOT_stimuli/rescaled_final/0164_rv.mp4	0.0	233.13506698608398	2.5001468658447266
45	211.69810605049133	pulse	1	t		43.0	2.5	/experiments/AOT/AOT_stimuli/rescaled_final/0164_rv.mp4	0.0	233.51754689216614	
45	213.29914712905884	pulse	1	t		43.0	2.5	/experiments/AOT/AOT_stimuli/rescaled_final/0164_rv.mp4	0.0	235.11858797073364	
45	213.8157730102539	fix_post	2		12	43.0	2.5	/experiments/AOT/AOT_stimuli/rescaled_final/0164_rv.mp4	0.0	235.6352138519287	0.10003805160522461
46	213.91581106185913	fix_pre	0		119	44.0	2.5	/experiments/AOT/AOT_stimuli/rescaled_final/0710_fw.mp4	0.0	235.73525190353394	0.9914069175720215
46	214.89904713630676	pulse	0	t		44.0	2.5	/experiments/AOT/AOT_stimuli/rescaled_final/0710_fw.mp4	0.0	236.71848797798157	
46	214.90721797943115	movie	1		246	44.0	2.5	/experiments/AOT/AOT_stimuli/rescaled_final/0710_fw.mp4	0.0	236.72665882110596	2.508342981338501
46	216.49851894378662	pulse	1	t		44.0	2.5	/experiments/AOT/AOT_stimuli/rescaled_final/0710_fw.mp4	0.0	238.31795978546143	
46	217.41556096076965	fix_post	2		12	44.0	2.5	/experiments/AOT/AOT_stimuli/rescaled_final/0710_fw.mp4	0.0	239.23500180244446	0.0999441146850586
47	217.5155050754547	fix_pre	0		120	45.0	2.5	/experiments/AOT/AOT_stimuli/rescaled_final/0356_rv.mp4	0.0	239.33494591712952	1.0000650882720947
47	218.09903216362	pulse	0	t		45.0	2.5	/experiments/AOT/AOT_stimuli/rescaled_final/0356_rv.mp4	0.0	239.9184730052948	
47	218.5155701637268	movie	1		245	45.0	2.5	/experiments/AOT/AOT_stimuli/rescaled_final/0356_rv.mp4	0.0	240.3350110054016	2.4999499320983887
47	219.69908809661865	pulse	1	t		45.0	2.5	/experiments/AOT/AOT_stimuli/rescaled_final/0356_rv.mp4	0.0	241.51852893829346	
47	221.0155200958252	fix_post	2		12	45.0	2.5	/experiments/AOT/AOT_stimuli/rescaled_final/0356_rv.mp4	0.0	242.8349609375	0.10001206398010254
48	221.1155321598053	fix_pre	0		120	46.0	2.5	/experiments/AOT/AOT_stimuli/rescaled_final/1267_fw.mp4	0.0	242.9349730014801	0.9999239444732666
48	221.29900693893433	pulse	0	t		46.0	2.5	/experiments/AOT/AOT_stimuli/rescaled_final/1267_fw.mp4	0.0	243.11844778060913	
48	222.11545610427856	movie	1		246	46.0	2.5	/experiments/AOT/AOT_stimuli/rescaled_final/1267_fw.mp4	0.0	243.93489694595337	2.4997098445892334
48	222.8989701271057	pulse	1	t		46.0	2.5	/experiments/AOT/AOT_stimuli/rescaled_final/1267_fw.mp4	0.0	244.71841096878052	
48	224.49509501457214	pulse	1	t		46.0	2.5	/experiments/AOT/AOT_stimuli/rescaled_final/1267_fw.mp4	0.0	246.31453585624695	
48	224.6151659488678	fix_post	2		12	46.0	2.5	/experiments/AOT/AOT_stimuli/rescaled_final/1267_fw.mp4	0.0	246.4346067905426	0.10032105445861816
49	224.71548700332642	fix_pre	0		120	47.0	2.5	/experiments/AOT/AOT_stimuli/rescaled_final/0493_fw.mp4	0.0	246.53492784500122	1.0000240802764893
49	225.7155110836029	movie	1		245	47.0	2.5	/experiments/AOT/AOT_stimuli/rescaled_final/0493_fw.mp4	0.0	247.5349519252777	2.5000059604644775
49	226.09898900985718	pulse	1	t		47.0	2.5	/experiments/AOT/AOT_stimuli/rescaled_final/0493_fw.mp4	0.0	247.91842985153198	
49	227.69896602630615	pulse	1	t		47.0	2.5	/experiments/AOT/AOT_stimuli/rescaled_final/0493_fw.mp4	0.0	249.51840686798096	
49	228.21551704406738	fix_post	2		12	47.0	2.5	/experiments/AOT/AOT_stimuli/rescaled_final/0493_fw.mp4	0.0	250.0349578857422	0.09997200965881348
50	228.3154890537262	fix_pre	0		119	48.0	2.5	blank	1.0	250.134929895401	0.9915769100189209
50	229.29902601242065	pulse	0	t		48.0	2.5	blank	1.0	251.11846685409546	
50	229.30706596374512	movie	1		301	48.0	2.5	blank	1.0	251.12650680541992	2.50838303565979
50	230.89894104003906	pulse	1	t		48.0	2.5	blank	1.0	252.71838188171387	
50	231.8154489994049	fix_post	2		12	48.0	2.5	blank	1.0	253.6348898410797	0.10005807876586914
51	231.91550707817078	fix_pre	0		120	49.0	2.5	/experiments/AOT/AOT_stimuli/rescaled_final/0699_fw.mp4	0.0	253.73494791984558	0.9999220371246338
51	232.49896001815796	pulse	0	t		49.0	2.5	/experiments/AOT/AOT_stimuli/rescaled_final/0699_fw.mp4	0.0	254.31840085983276	
51	232.9154291152954	movie	1		244	49.0	2.5	/experiments/AOT/AOT_stimuli/rescaled_final/0699_fw.mp4	0.0	254.73486995697021	2.5000250339508057
51	234.09901094436646	pulse	1	t		49.0	2.5	/experiments/AOT/AOT_stimuli/rescaled_final/0699_fw.mp4	0.0	255.91845178604126	
51	235.41545414924622	fix_post	2		12	49.0	2.5	/experiments/AOT/AOT_stimuli/rescaled_final/0699_fw.mp4	0.0	257.234894990921	0.0999608039855957
52	235.5154149532318	fix_pre	0		120	50.0	2.5	/experiments/AOT/AOT_stimuli/rescaled_final/1811_rv.mp4	0.0	257.3348557949066	1.0000910758972168
52	235.69894814491272	pulse	0	t		50.0	2.5	/experiments/AOT/AOT_stimuli/rescaled_final/1811_rv.mp4	0.0	257.5183889865875	
52	236.51550602912903	movie	1		245	50.0	2.5	/experiments/AOT/AOT_stimuli/rescaled_final/1811_rv.mp4	0.0	258.33494687080383	2.4999051094055176
52	237.29889702796936	pulse	1	t		50.0	2.5	/experiments/AOT/AOT_stimuli/rescaled_final/1811_rv.mp4	0.0	259.11833786964417	
52	238.897784948349	pulse	1	t		50.0	2.5	/experiments/AOT/AOT_stimuli/rescaled_final/1811_rv.mp4	0.0	260.7172257900238	
52	239.01541113853455	fix_post	2		12	50.0	2.5	/experiments/AOT/AOT_stimuli/rescaled_final/1811_rv.mp4	0.0	260.83485198020935	0.10015487670898438
53	239.11556601524353	fix_pre	0		120	51.0	2.5	/experiments/AOT/AOT_stimuli/rescaled_final/1432_fw.mp4	0.0	260.93500685691833	0.999377965927124
53	240.11494398117065	movie	1		246	51.0	2.5	/experiments/AOT/AOT_stimuli/rescaled_final/1432_fw.mp4	0.0	261.93438482284546	2.500413179397583
53	240.49835515022278	pulse	1	t		51.0	2.5	/experiments/AOT/AOT_stimuli/rescaled_final/1432_fw.mp4	0.0	262.3177959918976	
53	242.0989589691162	pulse	1	t		51.0	2.5	/experiments/AOT/AOT_stimuli/rescaled_final/1432_fw.mp4	0.0	263.918399810791	
53	242.61535716056824	fix_post	2		12	51.0	2.5	/experiments/AOT/AOT_stimuli/rescaled_final/1432_fw.mp4	0.0	264.43479800224304	0.10004687309265137
54	242.7154040336609	fix_pre	0		119	52.0	2.5	/experiments/AOT/AOT_stimuli/rescaled_final/1352_rv.mp4	0.0	264.5348448753357	0.991645097732544
54	243.69896602630615	pulse	0	t		52.0	2.5	/experiments/AOT/AOT_stimuli/rescaled_final/1352_rv.mp4	0.0	265.51840686798096	
54	243.70704913139343	movie	1		244	52.0	2.5	/experiments/AOT/AOT_stimuli/rescaled_final/1352_rv.mp4	0.0	265.52648997306824	2.5083768367767334
54	245.29879117012024	pulse	1	t		52.0	2.5	/experiments/AOT/AOT_stimuli/rescaled_final/1352_rv.mp4	0.0	267.11823201179504	
54	246.21542596817017	fix_post	2		12	52.0	2.5	/experiments/AOT/AOT_stimuli/rescaled_final/1352_rv.mp4	0.0	268.03486680984497	0.09998512268066406
55	246.31541109085083	fix_pre	0		120	53.0	2.5	/experiments/AOT/AOT_stimuli/rescaled_final/1175_rv.mp4	0.0	268.13485193252563	1.0001869201660156
55	246.8988800048828	pulse	0	t		53.0	2.5	/experiments/AOT/AOT_stimuli/rescaled_final/1175_rv.mp4	0.0	268.7183208465576	
55	247.31559801101685	movie	1		246	53.0	2.5	/experiments/AOT/AOT_stimuli/rescaled_final/1175_rv.mp4	0.0	269.13503885269165	2.4997260570526123
55	248.49897003173828	pulse	1	t		53.0	2.5	/experiments/AOT/AOT_stimuli/rescaled_final/1175_rv.mp4	0.0	270.3184108734131	
55	249.81532406806946	fix_post	2		12	53.0	2.5	/experiments/AOT/AOT_stimuli/rescaled_final/1175_rv.mp4	0.0	271.63476490974426	0.10004091262817383
56	249.91536498069763	fix_pre	0		120	54.0	2.5	/experiments/AOT/AOT_stimuli/rescaled_final/1791_fw.mp4	0.0	271.73480582237244	0.9999771118164062
56	250.09891200065613	pulse	0	t		54.0	2.5	/experiments/AOT/AOT_stimuli/rescaled_final/1791_fw.mp4	0.0	271.91835284233093	
56	250.91534209251404	movie	1		245	54.0	2.5	/experiments/AOT/AOT_stimuli/rescaled_final/1791_fw.mp4	0.0	272.73478293418884	2.5000710487365723
56	251.6989710330963	pulse	1	t		54.0	2.5	/experiments/AOT/AOT_stimuli/rescaled_final/1791_fw.mp4	0.0	273.5184118747711	
56	253.29484009742737	pulse	1	t		54.0	2.5	/experiments/AOT/AOT_stimuli/rescaled_final/1791_fw.mp4	0.0	275.1142809391022	
56	253.4154131412506	fix_post	2		12	54.0	2.5	/experiments/AOT/AOT_stimuli/rescaled_final/1791_fw.mp4	0.0	275.2348539829254	0.09999895095825195
57	253.51541209220886	fix_pre	0		120	55.0	2.5	blank	1.0	275.33485293388367	0.999992847442627
57	254.5154049396515	movie	1		300	55.0	2.5	blank	1.0	276.3348457813263	2.4998772144317627
57	254.89885210990906	pulse	1	t		55.0	2.5	blank	1.0	276.71829295158386	
57	256.49881315231323	pulse	1	t		55.0	2.5	blank	1.0	278.31825399398804	
57	257.01528215408325	fix_post	2		12	55.0	2.5	blank	1.0	278.83472299575806	0.10004401206970215
58	257.11532616615295	fix_pre	0		119	56.0	2.5	/experiments/AOT/AOT_stimuli/rescaled_final/0078_rv.mp4	0.0	278.93476700782776	0.9916927814483643
58	258.09879517555237	pulse	0	t		56.0	2.5	/experiments/AOT/AOT_stimuli/rescaled_final/0078_rv.mp4	0.0	279.9182360172272	
58	258.1070189476013	movie	1		246	56.0	2.5	/experiments/AOT/AOT_stimuli/rescaled_final/0078_rv.mp4	0.0	279.9264597892761	2.5083391666412354
58	259.69853615760803	pulse	1	t		56.0	2.5	/experiments/AOT/AOT_stimuli/rescaled_final/0078_rv.mp4	0.0	281.51797699928284	
58	260.61535811424255	fix_post	2		12	56.0	2.5	/experiments/AOT/AOT_stimuli/rescaled_final/0078_rv.mp4	0.0	282.43479895591736	0.09993505477905273
59	260.7152931690216	fix_pre	0		120	57.0	2.5	/experiments/AOT/AOT_stimuli/rescaled_final/2049_rv.mp4	0.0	282.5347340106964	1.0000019073486328
59	261.2988121509552	pulse	0	t		57.0	2.5	/experiments/AOT/AOT_stimuli/rescaled_final/2049_rv.mp4	0.0	283.11825299263	
59	261.71529507637024	movie	1		244	57.0	2.5	/experiments/AOT/AOT_stimuli/rescaled_final/2049_rv.mp4	0.0	283.53473591804504	2.5000429153442383
59	262.8989210128784	pulse	1	t		57.0	2.5	/experiments/AOT/AOT_stimuli/rescaled_final/2049_rv.mp4	0.0	284.7183618545532	
59	264.2153379917145	fix_post	2		12	57.0	2.5	/experiments/AOT/AOT_stimuli/rescaled_final/2049_rv.mp4	0.0	286.0347788333893	0.09991216659545898
60	264.31525015830994	fix_pre	0		120	58.0	2.5	/experiments/AOT/AOT_stimuli/rescaled_final/2049_fw.mp4	0.0	286.13469099998474	0.999553918838501
60	264.498850107193	pulse	0	t		58.0	2.5	/experiments/AOT/AOT_stimuli/rescaled_final/2049_fw.mp4	0.0	286.3182909488678	
60	265.31480407714844	movie	1		245	58.0	2.5	/experiments/AOT/AOT_stimuli/rescaled_final/2049_fw.mp4	0.0	287.13424491882324	2.500101089477539
60	266.09872007369995	pulse	1	t		58.0	2.5	/experiments/AOT/AOT_stimuli/rescaled_final/2049_fw.mp4	0.0	287.91816091537476	
60	267.6969211101532	pulse	1	t		58.0	2.5	/experiments/AOT/AOT_stimuli/rescaled_final/2049_fw.mp4	0.0	289.516361951828	
60	267.814905166626	fix_post	2		12	58.0	2.5	/experiments/AOT/AOT_stimuli/rescaled_final/2049_fw.mp4	0.0	289.6343460083008	0.09995698928833008
61	267.9148621559143	fix_pre	0		120	59.0	2.5	/experiments/AOT/AOT_stimuli/rescaled_final/1268_fw.mp4	0.0	289.7343029975891	1.0001788139343262
61	268.91504096984863	movie	1		247	59.0	2.5	/experiments/AOT/AOT_stimuli/rescaled_final/1268_fw.mp4	0.0	290.73448181152344	2.500249147415161
61	269.29812812805176	pulse	1	t		59.0	2.5	/experiments/AOT/AOT_stimuli/rescaled_final/1268_fw.mp4	0.0	291.11756896972656	
61	270.8987441062927	pulse	1	t		59.0	2.5	/experiments/AOT/AOT_stimuli/rescaled_final/1268_fw.mp4	0.0	292.71818494796753	
61	271.4152901172638	fix_post	2		12	59.0	2.5	/experiments/AOT/AOT_stimuli/rescaled_final/1268_fw.mp4	0.0	293.2347309589386	0.10000085830688477
62	271.5152909755707	fix_pre	0		119	60.0	2.5	/experiments/AOT/AOT_stimuli/rescaled_final/1827_rv.mp4	0.0	293.3347318172455	0.9917590618133545
62	272.49871611595154	pulse	0	t		60.0	2.5	/experiments/AOT/AOT_stimuli/rescaled_final/1827_rv.mp4	0.0	294.31815695762634	
62	272.50705003738403	movie	1		245	60.0	2.5	/experiments/AOT/AOT_stimuli/rescaled_final/1827_rv.mp4	0.0	294.32649087905884	2.508173942565918
62	274.0988609790802	pulse	1	t		60.0	2.5	/experiments/AOT/AOT_stimuli/rescaled_final/1827_rv.mp4	0.0	295.918301820755	
62	275.01522397994995	fix_post	2		12	60.0	2.5	/experiments/AOT/AOT_stimuli/rescaled_final/1827_rv.mp4	0.0	296.83466482162476	0.1000661849975586
63	275.1152901649475	fix_pre	0		120	61.0	2.5	/experiments/AOT/AOT_stimuli/rescaled_final/1530_fw.mp4	0.0	296.9347310066223	0.9999549388885498
63	275.69869017601013	pulse	0	t		61.0	2.5	/experiments/AOT/AOT_stimuli/rescaled_final/1530_fw.mp4	0.0	297.51813101768494	
63	276.11524510383606	movie	1		244	61.0	2.5	/experiments/AOT/AOT_stimuli/rescaled_final/1530_fw.mp4	0.0	297.93468594551086	2.499971866607666
63	277.2988049983978	pulse	1	t		61.0	2.5	/experiments/AOT/AOT_stimuli/rescaled_final/1530_fw.mp4	0.0	299.11824584007263	
63	278.6152169704437	fix_post	2		12	61.0	2.5	/experiments/AOT/AOT_stimuli/rescaled_final/1530_fw.mp4	0.0	300.43465781211853	0.10003519058227539
64	278.715252161026	fix_pre	0		120	62.0	2.5	blank	1.0	300.5346930027008	0.9999368190765381
64	278.898854970932	pulse	0	t		62.0	2.5	blank	1.0	300.7182958126068	
64	279.71518898010254	movie	1		300	62.0	2.5	blank	1.0	301.53462982177734	2.4999961853027344
64	280.4986779689789	pulse	1	t		62.0	2.5	blank	1.0	302.3181188106537	
64	282.09869599342346	pulse	1	t		62.0	2.5	blank	1.0	303.91813683509827	
64	282.2151851654053	fix_post	2		12	62.0	2.5	blank	1.0	304.0346260070801	0.09959888458251953
65	282.3147840499878	fix_pre	0		120	63.0	2.5	/experiments/AOT/AOT_stimuli/rescaled_final/0567_fw.mp4	0.0	304.1342248916626	1.000380039215088
65	283.3151640892029	movie	1		245	63.0	2.5	/experiments/AOT/AOT_stimuli/rescaled_final/0567_fw.mp4	0.0	305.1346049308777	2.4996979236602783
65	283.69856095314026	pulse	1	t		63.0	2.5	/experiments/AOT/AOT_stimuli/rescaled_final/0567_fw.mp4	0.0	305.51800179481506	
65	285.2987051010132	pulse	1	t		63.0	2.5	/experiments/AOT/AOT_stimuli/rescaled_final/0567_fw.mp4	0.0	307.118145942688	
65	285.81486201286316	fix_post	2		12	63.0	2.5	/experiments/AOT/AOT_stimuli/rescaled_final/0567_fw.mp4	0.0	307.63430285453796	0.10024809837341309
66	285.9151101112366	fix_pre	0		119	64.0	2.5	/experiments/AOT/AOT_stimuli/rescaled_final/2163_fw.mp4	0.0	307.7345509529114	0.9917550086975098
66	286.8988571166992	pulse	0	t		64.0	2.5	/experiments/AOT/AOT_stimuli/rescaled_final/2163_fw.mp4	0.0	308.718297958374	
66	286.9068651199341	movie	1		249	64.0	2.5	/experiments/AOT/AOT_stimuli/rescaled_final/2163_fw.mp4	0.0	308.7263059616089	2.508309841156006
66	288.4983651638031	pulse	1	t		64.0	2.5	/experiments/AOT/AOT_stimuli/rescaled_final/2163_fw.mp4	0.0	310.3178060054779	
66	289.4151749610901	fix_post	2		12	64.0	2.5	/experiments/AOT/AOT_stimuli/rescaled_final/2163_fw.mp4	0.0	311.2346158027649	0.09994101524353027
67	289.5151159763336	fix_pre	0		120	65.0	2.5	/experiments/AOT/AOT_stimuli/rescaled_final/1743_rv.mp4	0.0	311.3345568180084	1.000028133392334
67	290.0987911224365	pulse	0	t		65.0	2.5	/experiments/AOT/AOT_stimuli/rescaled_final/1743_rv.mp4	0.0	311.9182319641113	
67	290.51514410972595	movie	1		246	65.0	2.5	/experiments/AOT/AOT_stimuli/rescaled_final/1743_rv.mp4	0.0	312.33458495140076	2.500001907348633
67	291.6988079547882	pulse	1	t		65.0	2.5	/experiments/AOT/AOT_stimuli/rescaled_final/1743_rv.mp4	0.0	313.518248796463	
67	293.0151460170746	fix_post	2		12	65.0	2.5	/experiments/AOT/AOT_stimuli/rescaled_final/1743_rv.mp4	0.0	314.8345868587494	0.09996509552001953
68	293.1151111125946	fix_pre	0		120	66.0	2.5	/experiments/AOT/AOT_stimuli/rescaled_final/0350_rv.mp4	0.0	314.9345519542694	0.9996049404144287
68	293.2986509799957	pulse	0	t		66.0	2.5	/experiments/AOT/AOT_stimuli/rescaled_final/0350_rv.mp4	0.0	315.11809182167053	
68	294.11471605300903	movie	1		243	66.0	2.5	/experiments/AOT/AOT_stimuli/rescaled_final/0350_rv.mp4	0.0	315.93415689468384	2.5004448890686035
68	294.8986120223999	pulse	1	t		66.0	2.5	/experiments/AOT/AOT_stimuli/rescaled_final/0350_rv.mp4	0.0	316.7180528640747	
68	296.4969730377197	pulse	1	t		66.0	2.5	/experiments/AOT/AOT_stimuli/rescaled_final/0350_rv.mp4	0.0	318.31641387939453	
68	296.61516094207764	fix_post	2		12	66.0	2.5	/experiments/AOT/AOT_stimuli/rescaled_final/0350_rv.mp4	0.0	318.43460178375244	0.09993815422058105
69	296.7150990962982	fix_pre	0		120	67.0	2.5	/experiments/AOT/AOT_stimuli/rescaled_final/1551_fw.mp4	0.0	318.534539937973	1.000074863433838
69	297.71517395973206	movie	1		244	67.0	2.5	/experiments/AOT/AOT_stimuli/rescaled_final/1551_fw.mp4	0.0	319.53461480140686	2.499472141265869
69	298.098158121109	pulse	1	t		67.0	2.5	/experiments/AOT/AOT_stimuli/rescaled_final/1551_fw.mp4	0.0	319.9175989627838	
69	299.6986060142517	pulse	1	t		67.0	2.5	/experiments/AOT/AOT_stimuli/rescaled_final/1551_fw.mp4	0.0	321.5180468559265	
69	300.2146461009979	fix_post	2		12	67.0	2.5	/experiments/AOT/AOT_stimuli/rescaled_final/1551_fw.mp4	0.0	322.03408694267273	0.10046601295471191
70	300.31511211395264	fix_pre	0		119	68.0	2.5	/experiments/AOT/AOT_stimuli/rescaled_final/0577_rv.mp4	0.0	322.13455295562744	0.9916579723358154
70	301.29864597320557	pulse	0	t		68.0	2.5	/experiments/AOT/AOT_stimuli/rescaled_final/0577_rv.mp4	0.0	323.11808681488037	
70	301.30677008628845	movie	1		245	68.0	2.5	/experiments/AOT/AOT_stimuli/rescaled_final/0577_rv.mp4	0.0	323.12621092796326	2.5084099769592285
70	302.8981909751892	pulse	1	t		68.0	2.5	/experiments/AOT/AOT_stimuli/rescaled_final/0577_rv.mp4	0.0	324.717631816864	
70	303.8151800632477	fix_post	2		12	68.0	2.5	/experiments/AOT/AOT_stimuli/rescaled_final/0577_rv.mp4	0.0	325.6346209049225	0.09997701644897461
71	303.91515707969666	fix_pre	0		120	69.0	2.5	/experiments/AOT/AOT_stimuli/rescaled_final/1333_fw.mp4	0.0	325.73459792137146	0.9999399185180664
71	304.4986791610718	pulse	0	t		69.0	2.5	/experiments/AOT/AOT_stimuli/rescaled_final/1333_fw.mp4	0.0	326.3181200027466	
71	304.9150969982147	movie	1		245	69.0	2.5	/experiments/AOT/AOT_stimuli/rescaled_final/1333_fw.mp4	0.0	326.7345378398895	2.5000040531158447
71	306.09868001937866	pulse	1	t		69.0	2.5	/experiments/AOT/AOT_stimuli/rescaled_final/1333_fw.mp4	0.0	327.91812086105347	
71	307.41510105133057	fix_post	2		12	69.0	2.5	/experiments/AOT/AOT_stimuli/rescaled_final/1333_fw.mp4	0.0	329.23454189300537	0.10001111030578613
72	307.51511216163635	fix_pre	0		120	70.0	2.5	blank	1.0	329.33455300331116	0.9999299049377441
72	307.69863414764404	pulse	0	t		70.0	2.5	blank	1.0	329.51807498931885	
72	308.5150420665741	movie	1		300	70.0	2.5	blank	1.0	330.3344829082489	2.5000100135803223
72	309.2986590862274	pulse	1	t		70.0	2.5	blank	1.0	331.1180999279022	
72	310.8986451625824	pulse	1	t		70.0	2.5	blank	1.0	332.7180860042572	
72	311.0150520801544	fix_post	2		12	70.0	2.5	blank	1.0	332.8344929218292	0.10005497932434082
73	311.11510705947876	fix_pre	0		120	71.0	2.5	/experiments/AOT/AOT_stimuli/rescaled_final/1799_rv.mp4	0.0	332.93454790115356	0.9995639324188232
73	312.1146709918976	movie	1		243	71.0	2.5	/experiments/AOT/AOT_stimuli/rescaled_final/1799_rv.mp4	0.0	333.9341118335724	2.5001790523529053
73	312.4979679584503	pulse	1	t		71.0	2.5	/experiments/AOT/AOT_stimuli/rescaled_final/1799_rv.mp4	0.0	334.3174088001251	
73	314.09857416152954	pulse	1	t		71.0	2.5	/experiments/AOT/AOT_stimuli/rescaled_final/1799_rv.mp4	0.0	335.91801500320435	
73	314.6148500442505	fix_post	2		12	71.0	2.5	/experiments/AOT/AOT_stimuli/rescaled_final/1799_rv.mp4	0.0	336.4342908859253	0.1002199649810791
74	314.71507000923157	fix_pre	0		119	72.0	2.5	/experiments/AOT/AOT_stimuli/rescaled_final/1284_rv.mp4	0.0	336.5345108509064	0.9916620254516602
74	315.69857716560364	pulse	0	t		72.0	2.5	/experiments/AOT/AOT_stimuli/rescaled_final/1284_rv.mp4	0.0	337.51801800727844	
74	315.7067320346832	movie	1		245	72.0	2.5	/experiments/AOT/AOT_stimuli/rescaled_final/1284_rv.mp4	0.0	337.52617287635803	2.5082809925079346
74	317.2981719970703	pulse	1	t		72.0	2.5	/experiments/AOT/AOT_stimuli/rescaled_final/1284_rv.mp4	0.0	339.1176128387451	
74	318.21501302719116	fix_post	2		12	72.0	2.5	/experiments/AOT/AOT_stimuli/rescaled_final/1284_rv.mp4	0.0	340.03445386886597	0.09997701644897461
75	318.31499004364014	fix_pre	0		120	73.0	2.5	/experiments/AOT/AOT_stimuli/rescaled_final/0153_rv.mp4	0.0	340.13443088531494	1.0000429153442383
75	318.89856004714966	pulse	0	t		73.0	2.5	/experiments/AOT/AOT_stimuli/rescaled_final/0153_rv.mp4	0.0	340.71800088882446	
75	319.3150329589844	movie	1		244	73.0	2.5	/experiments/AOT/AOT_stimuli/rescaled_final/0153_rv.mp4	0.0	341.1344738006592	2.4999821186065674
75	320.49866104125977	pulse	1	t		73.0	2.5	/experiments/AOT/AOT_stimuli/rescaled_final/0153_rv.mp4	0.0	342.31810188293457	
75	321.81501507759094	fix_post	2		12	73.0	2.5	/experiments/AOT/AOT_stimuli/rescaled_final/0153_rv.mp4	0.0	343.63445591926575	0.09998607635498047
76	321.9150011539459	fix_pre	0		120	74.0	2.5	/experiments/AOT/AOT_stimuli/rescaled_final/1748_fw.mp4	0.0	343.7344419956207	0.9995968341827393
76	322.0985050201416	pulse	0	t		74.0	2.5	/experiments/AOT/AOT_stimuli/rescaled_final/1748_fw.mp4	0.0	343.9179458618164	
76	322.91459798812866	movie	1		243	74.0	2.5	/experiments/AOT/AOT_stimuli/rescaled_final/1748_fw.mp4	0.0	344.73403882980347	2.5006520748138428
76	323.6980860233307	pulse	1	t		74.0	2.5	/experiments/AOT/AOT_stimuli/rescaled_final/1748_fw.mp4	0.0	345.5175268650055	
76	325.2969720363617	pulse	1	t		74.0	2.5	/experiments/AOT/AOT_stimuli/rescaled_final/1748_fw.mp4	0.0	347.1164128780365	
76	325.4152500629425	fix_post	2		12	74.0	2.5	/experiments/AOT/AOT_stimuli/rescaled_final/1748_fw.mp4	0.0	347.2346909046173	0.09969806671142578
77	325.51494812965393	fix_pre	0		120	75.0	2.5	/experiments/AOT/AOT_stimuli/rescaled_final/0696_fw.mp4	0.0	347.33438897132874	1.0001380443572998
77	326.51508617401123	movie	1		243	75.0	2.5	/experiments/AOT/AOT_stimuli/rescaled_final/0696_fw.mp4	0.0	348.33452701568604	2.499917984008789
77	326.89984798431396	pulse	1	t		75.0	2.5	/experiments/AOT/AOT_stimuli/rescaled_final/0696_fw.mp4	0.0	348.71928882598877	
77	328.4984440803528	pulse	1	t		75.0	2.5	/experiments/AOT/AOT_stimuli/rescaled_final/0696_fw.mp4	0.0	350.3178849220276	
77	329.01500415802	fix_post	2		12	75.0	2.5	/experiments/AOT/AOT_stimuli/rescaled_final/0696_fw.mp4	0.0	350.8344449996948	0.09998583793640137
78	329.1149899959564	fix_pre	0		119	76.0	2.5	blank	1.0	350.9344308376312	0.9916341304779053
78	330.0984570980072	pulse	0	t		76.0	2.5	blank	1.0	351.917897939682	
78	330.1066241264343	movie	1		301	76.0	2.5	blank	1.0	351.92606496810913	2.5079028606414795
78	331.6984210014343	pulse	1	t		76.0	2.5	blank	1.0	353.51786184310913	
78	332.6145269870758	fix_post	2		12	76.0	2.5	blank	1.0	354.4339678287506	0.1004030704498291
79	332.71493005752563	fix_pre	0		120	77.0	2.5	/experiments/AOT/AOT_stimuli/rescaled_final/1651_fw.mp4	0.0	354.53437089920044	0.9995889663696289
79	333.2985110282898	pulse	0	t		77.0	2.5	/experiments/AOT/AOT_stimuli/rescaled_final/1651_fw.mp4	0.0	355.1179518699646	
79	333.71451902389526	movie	1		245	77.0	2.5	/experiments/AOT/AOT_stimuli/rescaled_final/1651_fw.mp4	0.0	355.53395986557007	2.500101089477539
79	334.8985731601715	pulse	1	t		77.0	2.5	/experiments/AOT/AOT_stimuli/rescaled_final/1651_fw.mp4	0.0	356.7180140018463	
79	336.2146201133728	fix_post	2		12	77.0	2.5	/experiments/AOT/AOT_stimuli/rescaled_final/1651_fw.mp4	0.0	358.0340609550476	0.10028600692749023
80	336.3149061203003	fix_pre	0		120	78.0	2.5	/experiments/AOT/AOT_stimuli/rescaled_final/1373_fw.mp4	0.0	358.1343469619751	1.000074863433838
80	336.4983911514282	pulse	0	t		78.0	2.5	/experiments/AOT/AOT_stimuli/rescaled_final/1373_fw.mp4	0.0	358.317831993103	
80	337.31498098373413	movie	1		245	78.0	2.5	/experiments/AOT/AOT_stimuli/rescaled_final/1373_fw.mp4	0.0	359.13442182540894	2.4998199939727783
80	338.0983910560608	pulse	1	t		78.0	2.5	/experiments/AOT/AOT_stimuli/rescaled_final/1373_fw.mp4	0.0	359.9178318977356	
80	339.6972351074219	pulse	1	t		78.0	2.5	/experiments/AOT/AOT_stimuli/rescaled_final/1373_fw.mp4	0.0	361.5166759490967	
80	339.8148009777069	fix_post	2		12	78.0	2.5	/experiments/AOT/AOT_stimuli/rescaled_final/1373_fw.mp4	0.0	361.6342418193817	0.10010719299316406
81	339.9149081707001	fix_pre	0		120	79.0	2.5	/experiments/AOT/AOT_stimuli/rescaled_final/0174_rv.mp4	0.0	361.7343490123749	1.0000169277191162
81	340.9149250984192	movie	1		245	79.0	2.5	/experiments/AOT/AOT_stimuli/rescaled_final/0174_rv.mp4	0.0	362.734365940094	2.499579906463623
81	341.2981700897217	pulse	1	t		79.0	2.5	/experiments/AOT/AOT_stimuli/rescaled_final/0174_rv.mp4	0.0	363.1176109313965	
81	342.8985650539398	pulse	1	t		79.0	2.5	/experiments/AOT/AOT_stimuli/rescaled_final/0174_rv.mp4	0.0	364.7180058956146	
81	343.4145050048828	fix_post	2		12	79.0	2.5	/experiments/AOT/AOT_stimuli/rescaled_final/0174_rv.mp4	0.0	365.2339458465576	0.10041213035583496
82	343.51491713523865	fix_pre	0		119	80.0	2.5	/experiments/AOT/AOT_stimuli/rescaled_final/2013_rv.mp4	0.0	365.33435797691345	0.9916698932647705
82	344.4983971118927	pulse	0	t		80.0	2.5	/experiments/AOT/AOT_stimuli/rescaled_final/2013_rv.mp4	0.0	366.3178379535675	
82	344.5065870285034	movie	1		246	80.0	2.5	/experiments/AOT/AOT_stimuli/rescaled_final/2013_rv.mp4	0.0	366.3260278701782	2.508255958557129
82	346.0982041358948	pulse	1	t		80.0	2.5	/experiments/AOT/AOT_stimuli/rescaled_final/2013_rv.mp4	0.0	367.9176449775696	
82	347.01484298706055	fix_post	2		12	80.0	2.5	/experiments/AOT/AOT_stimuli/rescaled_final/2013_rv.mp4	0.0	368.83428382873535	0.10007214546203613
83	347.1149151325226	fix_pre	0		120	81.0	2.5	/experiments/AOT/AOT_stimuli/rescaled_final/1743_fw.mp4	0.0	368.9343559741974	1.000011920928955
83	347.6983959674835	pulse	0	t		81.0	2.5	/experiments/AOT/AOT_stimuli/rescaled_final/1743_fw.mp4	0.0	369.5178368091583	
83	348.11492705345154	movie	1		244	81.0	2.5	/experiments/AOT/AOT_stimuli/rescaled_final/1743_fw.mp4	0.0	369.93436789512634	2.4999570846557617
83	349.2984299659729	pulse	1	t		81.0	2.5	/experiments/AOT/AOT_stimuli/rescaled_final/1743_fw.mp4	0.0	371.1178708076477	
83	350.6148841381073	fix_post	2		12	81.0	2.5	/experiments/AOT/AOT_stimuli/rescaled_final/1743_fw.mp4	0.0	372.4343249797821	0.09996700286865234
84	350.71485114097595	fix_pre	0		120	82.0	2.5	blank	1.0	372.53429198265076	1.0000019073486328
84	350.8983120918274	pulse	0	t		82.0	2.5	blank	1.0	372.7177529335022	
84	351.7148530483246	movie	1		300	82.0	2.5	blank	1.0	373.5342938899994	2.5000181198120117
84	352.4983711242676	pulse	1	t		82.0	2.5	blank	1.0	374.3178119659424	
84	354.09837102890015	pulse	1	t		82.0	2.5	blank	1.0	375.91781187057495	
84	354.2148711681366	fix_post	2		12	82.0	2.5	blank	1.0	376.0343120098114	0.09997391700744629
85	354.31484508514404	fix_pre	0		120	83.0	2.5	/experiments/AOT/AOT_stimuli/rescaled_final/1551_rv.mp4	0.0	376.13428592681885	1.0000760555267334
85	355.3149211406708	movie	1		246	83.0	2.5	/experiments/AOT/AOT_stimuli/rescaled_final/1551_rv.mp4	0.0	377.1343619823456	2.499876022338867
85	355.6983411312103	pulse	1	t		83.0	2.5	/experiments/AOT/AOT_stimuli/rescaled_final/1551_rv.mp4	0.0	377.51778197288513	
85	357.2982850074768	pulse	1	t		83.0	2.5	/experiments/AOT/AOT_stimuli/rescaled_final/1551_rv.mp4	0.0	379.1177258491516	
85	357.81479716300964	fix_post	2		12	83.0	2.5	/experiments/AOT/AOT_stimuli/rescaled_final/1551_rv.mp4	0.0	379.63423800468445	0.10000395774841309
87	357.91480112075806	stim	0		1716					379.73424196243286	14.300123929977417
87	358.89837312698364	pulse	0	t						380.71781396865845	
87	360.49832701683044	pulse	0	t						382.31776785850525	
87	362.0983290672302	pulse	0	t						383.91776990890503	
87	363.6983721256256	pulse	0	t						385.5178129673004	
87	365.2983319759369	pulse	0	t						387.1177728176117	
87	366.8984570503235	pulse	0	t						388.7178978919983	
87	368.4982399940491	pulse	0	t						390.3176808357239	
87	370.09827709198	pulse	0	t						391.9177179336548	
87	371.69827604293823	pulse	0	t						393.51771688461304	
