trial_nr	onset	event_type	phase	response	nr_frames	movie_index	movie_duration	movie_file	blank	onset_abs	duration
0	0.15828490257263184	stim	0		21					22.66936993598938	0.1749739646911621
0	0.31808900833129883	response	0	space						22.829174041748047	
1	0.33325886726379395	stim	0		4668					22.844343900680542	38.899763107299805
1	39.22675895690918	pulse	0	t						61.73784399032593	
1	39.2330219745636	stim	1		1717					61.74410700798035	14.308327913284302
1	40.824832916259766	pulse	1	t						63.335917949676514	
1	42.42483901977539	pulse	1	t						64.93592405319214	
1	44.02485108375549	pulse	1	t						66.53593611717224	
1	45.624850034713745	pulse	1	t						68.1359350681305	
1	47.2248649597168	pulse	1	t						69.73594999313354	
1	48.824739933013916	pulse	1	t						71.33582496643066	
1	50.4247829914093	pulse	1	t						72.93586802482605	
1	52.02482008934021	pulse	1	t						74.53590512275696	
2	53.5413498878479	fix_pre	0		11	0.0	2.5	/experiments/AOT/AOT_stimuli/rescaled_final/0844_fw.mp4	0.0	76.05243492126465	0.09172701835632324
2	53.62484288215637	pulse	0	t		0.0	2.5	/experiments/AOT/AOT_stimuli/rescaled_final/0844_fw.mp4	0.0	76.13592791557312	
2	53.633076906204224	movie	1		246	0.0	2.5	/experiments/AOT/AOT_stimuli/rescaled_final/0844_fw.mp4	0.0	76.14416193962097	2.507807970046997
2	55.22445106506348	pulse	1	t		0.0	2.5	/experiments/AOT/AOT_stimuli/rescaled_final/0844_fw.mp4	0.0	77.73553609848022	
2	56.14088487625122	fix_post	2		12	0.0	2.5	/experiments/AOT/AOT_stimuli/rescaled_final/0844_fw.mp4	0.0	78.65196990966797	0.10037899017333984
3	56.24126386642456	fix_pre	0		120	1.0	2.5	/experiments/AOT/AOT_stimuli/rescaled_final/0120_rv.mp4	0.0	78.75234889984131	0.9996380805969238
3	56.82615089416504	pulse	0	t		1.0	2.5	/experiments/AOT/AOT_stimuli/rescaled_final/0120_rv.mp4	0.0	79.33723592758179	
3	57.240901947021484	movie	1		243	1.0	2.5	/experiments/AOT/AOT_stimuli/rescaled_final/0120_rv.mp4	0.0	79.75198698043823	2.500878095626831
3	58.424861907958984	pulse	1	t		1.0	2.5	/experiments/AOT/AOT_stimuli/rescaled_final/0120_rv.mp4	0.0	80.93594694137573	
3	59.741780042648315	fix_post	2		12	1.0	2.5	/experiments/AOT/AOT_stimuli/rescaled_final/0120_rv.mp4	0.0	82.25286507606506	0.0995628833770752
4	59.84134292602539	fix_pre	0		120	2.0	2.5	/experiments/AOT/AOT_stimuli/rescaled_final/1592_rv.mp4	0.0	82.35242795944214	0.9998860359191895
4	60.02483606338501	pulse	0	t		2.0	2.5	/experiments/AOT/AOT_stimuli/rescaled_final/1592_rv.mp4	0.0	82.53592109680176	
4	60.84122896194458	movie	1		243	2.0	2.5	/experiments/AOT/AOT_stimuli/rescaled_final/1592_rv.mp4	0.0	83.35231399536133	2.5000979900360107
4	61.62478995323181	pulse	1	t		2.0	2.5	/experiments/AOT/AOT_stimuli/rescaled_final/1592_rv.mp4	0.0	84.13587498664856	
4	63.22307586669922	pulse	1	t		2.0	2.5	/experiments/AOT/AOT_stimuli/rescaled_final/1592_rv.mp4	0.0	85.73416090011597	
4	63.34132695198059	fix_post	2		12	2.0	2.5	/experiments/AOT/AOT_stimuli/rescaled_final/1592_rv.mp4	0.0	85.85241198539734	0.0999460220336914
5	63.44127297401428	fix_pre	0		120	3.0	2.5	/experiments/AOT/AOT_stimuli/rescaled_final/1287_rv.mp4	0.0	85.95235800743103	1.0000739097595215
5	64.4413468837738	movie	1		245	3.0	2.5	/experiments/AOT/AOT_stimuli/rescaled_final/1287_rv.mp4	0.0	86.95243191719055	2.4995391368865967
5	64.82589197158813	pulse	1	t		3.0	2.5	/experiments/AOT/AOT_stimuli/rescaled_final/1287_rv.mp4	0.0	87.33697700500488	
5	66.42426204681396	pulse	1	t		3.0	2.5	/experiments/AOT/AOT_stimuli/rescaled_final/1287_rv.mp4	0.0	88.93534708023071	
5	66.9408860206604	fix_post	2		12	3.0	2.5	/experiments/AOT/AOT_stimuli/rescaled_final/1287_rv.mp4	0.0	89.45197105407715	0.10006284713745117
6	67.04094886779785	fix_pre	0		119	4.0	2.5	/experiments/AOT/AOT_stimuli/rescaled_final/0970_fw.mp4	0.0	89.5520339012146	0.9921271800994873
6	68.0244870185852	pulse	0	t		4.0	2.5	/experiments/AOT/AOT_stimuli/rescaled_final/0970_fw.mp4	0.0	90.53557205200195	
6	68.03307604789734	movie	1		245	4.0	2.5	/experiments/AOT/AOT_stimuli/rescaled_final/0970_fw.mp4	0.0	90.54416108131409	2.508162021636963
6	69.62637591362	pulse	1	t		4.0	2.5	/experiments/AOT/AOT_stimuli/rescaled_final/0970_fw.mp4	0.0	92.13746094703674	
6	70.5412380695343	fix_post	2		12	4.0	2.5	/experiments/AOT/AOT_stimuli/rescaled_final/0970_fw.mp4	0.0	93.05232310295105	0.09996581077575684
7	70.64120388031006	fix_pre	0		120	5.0	2.5	/experiments/AOT/AOT_stimuli/rescaled_final/1349_fw.mp4	0.0	93.1522889137268	1.0000691413879395
7	71.22471189498901	pulse	0	t		5.0	2.5	/experiments/AOT/AOT_stimuli/rescaled_final/1349_fw.mp4	0.0	93.73579692840576	
7	71.641273021698	movie	1		246	5.0	2.5	/experiments/AOT/AOT_stimuli/rescaled_final/1349_fw.mp4	0.0	94.15235805511475	2.499880075454712
7	72.82482504844666	pulse	1	t		5.0	2.5	/experiments/AOT/AOT_stimuli/rescaled_final/1349_fw.mp4	0.0	95.3359100818634	
7	74.14115309715271	fix_post	2		12	5.0	2.5	/experiments/AOT/AOT_stimuli/rescaled_final/1349_fw.mp4	0.0	96.65223813056946	0.09969878196716309
8	74.24085187911987	fix_pre	0		120	6.0	2.5	/experiments/AOT/AOT_stimuli/rescaled_final/0613_fw.mp4	0.0	96.75193691253662	1.0003600120544434
8	74.42465591430664	pulse	0	t		6.0	2.5	/experiments/AOT/AOT_stimuli/rescaled_final/0613_fw.mp4	0.0	96.93574094772339	
8	75.24121189117432	movie	1		244	6.0	2.5	/experiments/AOT/AOT_stimuli/rescaled_final/0613_fw.mp4	0.0	97.75229692459106	2.499972105026245
8	76.02466607093811	pulse	1	t		6.0	2.5	/experiments/AOT/AOT_stimuli/rescaled_final/0613_fw.mp4	0.0	98.53575110435486	
8	77.62300896644592	pulse	1	t		6.0	2.5	/experiments/AOT/AOT_stimuli/rescaled_final/0613_fw.mp4	0.0	100.13409399986267	
8	77.74118399620056	fix_post	2		12	6.0	2.5	/experiments/AOT/AOT_stimuli/rescaled_final/0613_fw.mp4	0.0	100.25226902961731	0.09956789016723633
9	77.8407518863678	fix_pre	0		120	7.0	2.5	blank	1.0	100.35183691978455	1.0000760555267334
9	78.84082794189453	movie	1		300	7.0	2.5	blank	1.0	101.35191297531128	2.5003890991210938
9	79.22470188140869	pulse	1	t		7.0	2.5	blank	1.0	101.73578691482544	
9	80.82467007637024	pulse	1	t		7.0	2.5	blank	1.0	103.33575510978699	
9	81.34121704101562	fix_post	2		12	7.0	2.5	blank	1.0	103.85230207443237	0.09992790222167969
10	81.4411449432373	fix_pre	0		119	8.0	2.5	/experiments/AOT/AOT_stimuli/rescaled_final/0402_fw.mp4	0.0	103.95222997665405	0.9916629791259766
10	82.42475295066833	pulse	0	t		8.0	2.5	/experiments/AOT/AOT_stimuli/rescaled_final/0402_fw.mp4	0.0	104.93583798408508	
10	82.43280792236328	movie	1		245	8.0	2.5	/experiments/AOT/AOT_stimuli/rescaled_final/0402_fw.mp4	0.0	104.94389295578003	2.507918119430542
10	84.02426290512085	pulse	1	t		8.0	2.5	/experiments/AOT/AOT_stimuli/rescaled_final/0402_fw.mp4	0.0	106.5353479385376	
10	84.94072604179382	fix_post	2		12	8.0	2.5	/experiments/AOT/AOT_stimuli/rescaled_final/0402_fw.mp4	0.0	107.45181107521057	0.1004338264465332
11	85.04115986824036	fix_pre	0		120	9.0	2.5	/experiments/AOT/AOT_stimuli/rescaled_final/1620_rv.mp4	0.0	107.5522449016571	0.9996621608734131
11	85.62460398674011	pulse	0	t		9.0	2.5	/experiments/AOT/AOT_stimuli/rescaled_final/1620_rv.mp4	0.0	108.13568902015686	
11	86.04082202911377	movie	1		246	9.0	2.5	/experiments/AOT/AOT_stimuli/rescaled_final/1620_rv.mp4	0.0	108.55190706253052	2.5003440380096436
11	87.22468400001526	pulse	1	t		9.0	2.5	/experiments/AOT/AOT_stimuli/rescaled_final/1620_rv.mp4	0.0	109.735769033432	
11	88.54116606712341	fix_post	2		12	9.0	2.5	/experiments/AOT/AOT_stimuli/rescaled_final/1620_rv.mp4	0.0	111.05225110054016	0.10000085830688477
12	88.6411669254303	fix_pre	0		120	10.0	2.5	/experiments/AOT/AOT_stimuli/rescaled_final/0894_fw.mp4	0.0	111.15225195884705	1.000014066696167
12	88.82478594779968	pulse	0	t		10.0	2.5	/experiments/AOT/AOT_stimuli/rescaled_final/0894_fw.mp4	0.0	111.33587098121643	
12	89.64118099212646	movie	1		243	10.0	2.5	/experiments/AOT/AOT_stimuli/rescaled_final/0894_fw.mp4	0.0	112.15226602554321	2.4999608993530273
12	90.42465996742249	pulse	1	t		10.0	2.5	/experiments/AOT/AOT_stimuli/rescaled_final/0894_fw.mp4	0.0	112.93574500083923	
12	92.02322793006897	pulse	1	t		10.0	2.5	/experiments/AOT/AOT_stimuli/rescaled_final/0894_fw.mp4	0.0	114.53431296348572	
12	92.14114189147949	fix_post	2		12	10.0	2.5	/experiments/AOT/AOT_stimuli/rescaled_final/0894_fw.mp4	0.0	114.65222692489624	0.09997320175170898
13	92.2411150932312	fix_pre	0		120	11.0	2.5	/experiments/AOT/AOT_stimuli/rescaled_final/1169_rv.mp4	0.0	114.75220012664795	0.9995968341827393
13	93.24071192741394	movie	1		246	11.0	2.5	/experiments/AOT/AOT_stimuli/rescaled_final/1169_rv.mp4	0.0	115.75179696083069	2.500019073486328
13	93.6241090297699	pulse	1	t		11.0	2.5	/experiments/AOT/AOT_stimuli/rescaled_final/1169_rv.mp4	0.0	116.13519406318665	
13	95.22462701797485	pulse	1	t		11.0	2.5	/experiments/AOT/AOT_stimuli/rescaled_final/1169_rv.mp4	0.0	117.7357120513916	
13	95.74073100090027	fix_post	2		12	11.0	2.5	/experiments/AOT/AOT_stimuli/rescaled_final/1169_rv.mp4	0.0	118.25181603431702	0.1004490852355957
14	95.84118008613586	fix_pre	0		119	12.0	2.5	blank	1.0	118.35226511955261	0.9915859699249268
14	96.82458901405334	pulse	0	t		12.0	2.5	blank	1.0	119.33567404747009	
14	96.83276605606079	movie	1		301	12.0	2.5	blank	1.0	119.34385108947754	2.5079329013824463
14	98.42461800575256	pulse	1	t		12.0	2.5	blank	1.0	120.93570303916931	
14	99.34069895744324	fix_post	2		12	12.0	2.5	blank	1.0	121.85178399085999	0.10046792030334473
15	99.44116687774658	fix_pre	0		120	13.0	2.5	/experiments/AOT/AOT_stimuli/rescaled_final/1455_fw.mp4	0.0	121.95225191116333	1.000002145767212
15	100.02460598945618	pulse	0	t		13.0	2.5	/experiments/AOT/AOT_stimuli/rescaled_final/1455_fw.mp4	0.0	122.53569102287292	
15	100.4411690235138	movie	1		243	13.0	2.5	/experiments/AOT/AOT_stimuli/rescaled_final/1455_fw.mp4	0.0	122.95225405693054	2.5000898838043213
15	101.62467193603516	pulse	1	t		13.0	2.5	/experiments/AOT/AOT_stimuli/rescaled_final/1455_fw.mp4	0.0	124.1357569694519	
15	102.94125890731812	fix_post	2		12	13.0	2.5	/experiments/AOT/AOT_stimuli/rescaled_final/1455_fw.mp4	0.0	125.45234394073486	0.09987211227416992
16	103.04113101959229	fix_pre	0		120	14.0	2.5	/experiments/AOT/AOT_stimuli/rescaled_final/1898_fw.mp4	0.0	125.55221605300903	1.0002069473266602
16	103.22469687461853	pulse	0	t		14.0	2.5	/experiments/AOT/AOT_stimuli/rescaled_final/1898_fw.mp4	0.0	125.73578190803528	
16	104.04133796691895	movie	1		244	14.0	2.5	/experiments/AOT/AOT_stimuli/rescaled_final/1898_fw.mp4	0.0	126.5524230003357	2.4996349811553955
16	104.8245620727539	pulse	1	t		14.0	2.5	/experiments/AOT/AOT_stimuli/rescaled_final/1898_fw.mp4	0.0	127.33564710617065	
16	106.42349696159363	pulse	1	t		14.0	2.5	/experiments/AOT/AOT_stimuli/rescaled_final/1898_fw.mp4	0.0	128.93458199501038	
16	106.54097294807434	fix_post	2		12	14.0	2.5	/experiments/AOT/AOT_stimuli/rescaled_final/1898_fw.mp4	0.0	129.0520579814911	0.10009598731994629
17	106.64106893539429	fix_pre	0		120	15.0	2.5	/experiments/AOT/AOT_stimuli/rescaled_final/1896_fw.mp4	0.0	129.15215396881104	1.0
17	107.64106893539429	movie	1		246	15.0	2.5	/experiments/AOT/AOT_stimuli/rescaled_final/1896_fw.mp4	0.0	130.15215396881104	2.5000579357147217
17	108.02490091323853	pulse	1	t		15.0	2.5	/experiments/AOT/AOT_stimuli/rescaled_final/1896_fw.mp4	0.0	130.53598594665527	
17	109.62456607818604	pulse	1	t		15.0	2.5	/experiments/AOT/AOT_stimuli/rescaled_final/1896_fw.mp4	0.0	132.13565111160278	
17	110.14112687110901	fix_post	2		12	15.0	2.5	/experiments/AOT/AOT_stimuli/rescaled_final/1896_fw.mp4	0.0	132.65221190452576	0.0995030403137207
18	110.24062991142273	fix_pre	0		119	16.0	2.5	/experiments/AOT/AOT_stimuli/rescaled_final/0062_rv.mp4	0.0	132.75171494483948	0.9921090602874756
18	111.22457695007324	pulse	0	t		16.0	2.5	/experiments/AOT/AOT_stimuli/rescaled_final/0062_rv.mp4	0.0	133.73566198349	
18	111.2327389717102	movie	1		245	16.0	2.5	/experiments/AOT/AOT_stimuli/rescaled_final/0062_rv.mp4	0.0	133.74382400512695	2.5084331035614014
18	112.82398796081543	pulse	1	t		16.0	2.5	/experiments/AOT/AOT_stimuli/rescaled_final/0062_rv.mp4	0.0	135.33507299423218	
18	113.7411720752716	fix_post	2		12	16.0	2.5	/experiments/AOT/AOT_stimuli/rescaled_final/0062_rv.mp4	0.0	136.25225710868835	0.09991788864135742
19	113.84108996391296	fix_pre	0		120	17.0	2.5	/experiments/AOT/AOT_stimuli/rescaled_final/1603_rv.mp4	0.0	136.3521749973297	0.9994409084320068
19	114.42457389831543	pulse	0	t		17.0	2.5	/experiments/AOT/AOT_stimuli/rescaled_final/1603_rv.mp4	0.0	136.93565893173218	
19	114.84053087234497	movie	1		243	17.0	2.5	/experiments/AOT/AOT_stimuli/rescaled_final/1603_rv.mp4	0.0	137.35161590576172	2.50003719329834
19	116.02463006973267	pulse	1	t		17.0	2.5	/experiments/AOT/AOT_stimuli/rescaled_final/1603_rv.mp4	0.0	138.5357151031494	
19	117.34056806564331	fix_post	2		12	17.0	2.5	/experiments/AOT/AOT_stimuli/rescaled_final/1603_rv.mp4	0.0	139.85165309906006	0.10047101974487305
20	117.44103908538818	fix_pre	0		120	18.0	2.5	/experiments/AOT/AOT_stimuli/rescaled_final/0942_rv.mp4	0.0	139.95212411880493	0.9995408058166504
20	117.62454795837402	pulse	0	t		18.0	2.5	/experiments/AOT/AOT_stimuli/rescaled_final/0942_rv.mp4	0.0	140.13563299179077	
20	118.44057989120483	movie	1		242	18.0	2.5	/experiments/AOT/AOT_stimuli/rescaled_final/0942_rv.mp4	0.0	140.95166492462158	2.5004830360412598
20	119.22455596923828	pulse	1	t		18.0	2.5	/experiments/AOT/AOT_stimuli/rescaled_final/0942_rv.mp4	0.0	141.73564100265503	
20	120.82290196418762	pulse	1	t		18.0	2.5	/experiments/AOT/AOT_stimuli/rescaled_final/0942_rv.mp4	0.0	143.33398699760437	
20	120.9410629272461	fix_post	2		12	18.0	2.5	/experiments/AOT/AOT_stimuli/rescaled_final/0942_rv.mp4	0.0	143.45214796066284	0.09996914863586426
21	121.04103207588196	fix_pre	0		120	19.0	2.5	blank	1.0	143.5521171092987	0.9999568462371826
21	122.04098892211914	movie	1		300	19.0	2.5	blank	1.0	144.5520739555359	2.500357151031494
21	122.42454409599304	pulse	1	t		19.0	2.5	blank	1.0	144.9356291294098	
21	124.0247130393982	pulse	1	t		19.0	2.5	blank	1.0	146.53579807281494	
21	124.54134607315063	fix_post	2		12	19.0	2.5	blank	1.0	147.05243110656738	0.09959197044372559
22	124.64093804359436	fix_pre	0		119	20.0	2.5	/experiments/AOT/AOT_stimuli/rescaled_final/2130_rv.mp4	0.0	147.1520230770111	0.9917068481445312
22	125.62451004981995	pulse	0	t		20.0	2.5	/experiments/AOT/AOT_stimuli/rescaled_final/2130_rv.mp4	0.0	148.1355950832367	
22	125.63264489173889	movie	1		246	20.0	2.5	/experiments/AOT/AOT_stimuli/rescaled_final/2130_rv.mp4	0.0	148.14372992515564	2.5083250999450684
22	127.22416305541992	pulse	1	t		20.0	2.5	/experiments/AOT/AOT_stimuli/rescaled_final/2130_rv.mp4	0.0	149.73524808883667	
22	128.14096999168396	fix_post	2		12	20.0	2.5	/experiments/AOT/AOT_stimuli/rescaled_final/2130_rv.mp4	0.0	150.6520550251007	0.10002303123474121
23	128.2409930229187	fix_pre	0		120	21.0	2.5	/experiments/AOT/AOT_stimuli/rescaled_final/1026_rv.mp4	0.0	150.75207805633545	0.9999029636383057
23	128.8245038986206	pulse	0	t		21.0	2.5	/experiments/AOT/AOT_stimuli/rescaled_final/1026_rv.mp4	0.0	151.33558893203735	
23	129.240895986557	movie	1		247	21.0	2.5	/experiments/AOT/AOT_stimuli/rescaled_final/1026_rv.mp4	0.0	151.75198101997375	2.500077962875366
23	130.4244899749756	pulse	1	t		21.0	2.5	/experiments/AOT/AOT_stimuli/rescaled_final/1026_rv.mp4	0.0	152.93557500839233	
23	131.74097394943237	fix_post	2		12	21.0	2.5	/experiments/AOT/AOT_stimuli/rescaled_final/1026_rv.mp4	0.0	154.25205898284912	0.09991908073425293
24	131.84089303016663	fix_pre	0		120	22.0	2.5	/experiments/AOT/AOT_stimuli/rescaled_final/1699_fw.mp4	0.0	154.35197806358337	1.0
24	132.02437210083008	pulse	0	t		22.0	2.5	/experiments/AOT/AOT_stimuli/rescaled_final/1699_fw.mp4	0.0	154.53545713424683	
24	132.84089303016663	movie	1		245	22.0	2.5	/experiments/AOT/AOT_stimuli/rescaled_final/1699_fw.mp4	0.0	155.35197806358337	2.4999899864196777
24	133.62439799308777	pulse	1	t		22.0	2.5	/experiments/AOT/AOT_stimuli/rescaled_final/1699_fw.mp4	0.0	156.13548302650452	
24	135.2233109474182	pulse	1	t		22.0	2.5	/experiments/AOT/AOT_stimuli/rescaled_final/1699_fw.mp4	0.0	157.73439598083496	
24	135.3408830165863	fix_post	2		12	22.0	2.5	/experiments/AOT/AOT_stimuli/rescaled_final/1699_fw.mp4	0.0	157.85196805000305	0.09961295127868652
25	135.440495967865	fix_pre	0		120	23.0	2.5	/experiments/AOT/AOT_stimuli/rescaled_final/0110_fw.mp4	0.0	157.95158100128174	1.0004730224609375
25	136.44096899032593	movie	1		245	23.0	2.5	/experiments/AOT/AOT_stimuli/rescaled_final/0110_fw.mp4	0.0	158.95205402374268	2.499941110610962
25	136.82472491264343	pulse	1	t		23.0	2.5	/experiments/AOT/AOT_stimuli/rescaled_final/0110_fw.mp4	0.0	159.33580994606018	
25	138.4243700504303	pulse	1	t		23.0	2.5	/experiments/AOT/AOT_stimuli/rescaled_final/0110_fw.mp4	0.0	160.93545508384705	
25	138.9409101009369	fix_post	2		12	23.0	2.5	/experiments/AOT/AOT_stimuli/rescaled_final/0110_fw.mp4	0.0	161.45199513435364	0.09999799728393555
26	139.04090809822083	fix_pre	0		119	24.0	2.5	/experiments/AOT/AOT_stimuli/rescaled_final/1363_rv.mp4	0.0	161.55199313163757	0.9917058944702148
26	140.0244538784027	pulse	0	t		24.0	2.5	/experiments/AOT/AOT_stimuli/rescaled_final/1363_rv.mp4	0.0	162.53553891181946	
26	140.03261399269104	movie	1		247	24.0	2.5	/experiments/AOT/AOT_stimuli/rescaled_final/1363_rv.mp4	0.0	162.5436990261078	2.507838010787964
26	141.6238989830017	pulse	1	t		24.0	2.5	/experiments/AOT/AOT_stimuli/rescaled_final/1363_rv.mp4	0.0	164.13498401641846	
26	142.540452003479	fix_post	2		12	24.0	2.5	/experiments/AOT/AOT_stimuli/rescaled_final/1363_rv.mp4	0.0	165.05153703689575	0.10045003890991211
27	142.64090204238892	fix_pre	0		120	25.0	2.5	/experiments/AOT/AOT_stimuli/rescaled_final/1979_fw.mp4	0.0	165.15198707580566	0.9999098777770996
27	143.22443199157715	pulse	0	t		25.0	2.5	/experiments/AOT/AOT_stimuli/rescaled_final/1979_fw.mp4	0.0	165.7355170249939	
27	143.64081192016602	movie	1		243	25.0	2.5	/experiments/AOT/AOT_stimuli/rescaled_final/1979_fw.mp4	0.0	166.15189695358276	2.5000381469726562
27	144.82452201843262	pulse	1	t		25.0	2.5	/experiments/AOT/AOT_stimuli/rescaled_final/1979_fw.mp4	0.0	167.33560705184937	
27	146.14085006713867	fix_post	2		12	25.0	2.5	/experiments/AOT/AOT_stimuli/rescaled_final/1979_fw.mp4	0.0	168.65193510055542	0.09994387626647949
28	146.24079394340515	fix_pre	0		120	26.0	2.5	/experiments/AOT/AOT_stimuli/rescaled_final/1979_rv.mp4	0.0	168.7518789768219	1.0001089572906494
28	146.42442393302917	pulse	0	t		26.0	2.5	/experiments/AOT/AOT_stimuli/rescaled_final/1979_rv.mp4	0.0	168.93550896644592	
28	147.2409029006958	movie	1		243	26.0	2.5	/experiments/AOT/AOT_stimuli/rescaled_final/1979_rv.mp4	0.0	169.75198793411255	2.499891996383667
28	148.02441596984863	pulse	1	t		26.0	2.5	/experiments/AOT/AOT_stimuli/rescaled_final/1979_rv.mp4	0.0	170.53550100326538	
28	149.62264204025269	pulse	1	t		26.0	2.5	/experiments/AOT/AOT_stimuli/rescaled_final/1979_rv.mp4	0.0	172.13372707366943	
28	149.74079489707947	fix_post	2		12	26.0	2.5	/experiments/AOT/AOT_stimuli/rescaled_final/1979_rv.mp4	0.0	172.25187993049622	0.10006403923034668
29	149.84085893630981	fix_pre	0		120	27.0	2.5	/experiments/AOT/AOT_stimuli/rescaled_final/0072_fw.mp4	0.0	172.35194396972656	1.000025987625122
29	150.84088492393494	movie	1		244	27.0	2.5	/experiments/AOT/AOT_stimuli/rescaled_final/0072_fw.mp4	0.0	173.35196995735168	2.4995789527893066
29	151.2241358757019	pulse	1	t		27.0	2.5	/experiments/AOT/AOT_stimuli/rescaled_final/0072_fw.mp4	0.0	173.73522090911865	
29	152.82439804077148	pulse	1	t		27.0	2.5	/experiments/AOT/AOT_stimuli/rescaled_final/0072_fw.mp4	0.0	175.33548307418823	
29	153.34046387672424	fix_post	2		12	27.0	2.5	/experiments/AOT/AOT_stimuli/rescaled_final/0072_fw.mp4	0.0	175.851548910141	0.10016608238220215
30	153.44062995910645	fix_pre	0		119	28.0	2.5	blank	1.0	175.9517149925232	0.991919994354248
30	154.4244029521942	pulse	0	t		28.0	2.5	blank	1.0	176.93548798561096	
30	154.4325499534607	movie	1		301	28.0	2.5	blank	1.0	176.94363498687744	2.50833797454834
30	156.0244379043579	pulse	1	t		28.0	2.5	blank	1.0	178.53552293777466	
30	156.94088792800903	fix_post	2		12	28.0	2.5	blank	1.0	179.45197296142578	0.09950494766235352
31	157.0403928756714	fix_pre	0		120	29.0	2.5	/experiments/AOT/AOT_stimuli/rescaled_final/2166_fw.mp4	0.0	179.55147790908813	1.0004072189331055
31	157.62427806854248	pulse	0	t		29.0	2.5	/experiments/AOT/AOT_stimuli/rescaled_final/2166_fw.mp4	0.0	180.13536310195923	
31	158.0408000946045	movie	1		244	29.0	2.5	/experiments/AOT/AOT_stimuli/rescaled_final/2166_fw.mp4	0.0	180.55188512802124	2.4999759197235107
31	159.2243790626526	pulse	1	t		29.0	2.5	/experiments/AOT/AOT_stimuli/rescaled_final/2166_fw.mp4	0.0	181.73546409606934	
31	160.540776014328	fix_post	2		12	29.0	2.5	/experiments/AOT/AOT_stimuli/rescaled_final/2166_fw.mp4	0.0	183.05186104774475	0.10005402565002441
32	160.64083003997803	fix_pre	0		120	30.0	2.5	/experiments/AOT/AOT_stimuli/rescaled_final/1400_fw.mp4	0.0	183.15191507339478	0.9999790191650391
32	160.8243329524994	pulse	0	t		30.0	2.5	/experiments/AOT/AOT_stimuli/rescaled_final/1400_fw.mp4	0.0	183.33541798591614	
32	161.64080905914307	movie	1		246	30.0	2.5	/experiments/AOT/AOT_stimuli/rescaled_final/1400_fw.mp4	0.0	184.15189409255981	2.5000579357147217
32	162.4243700504303	pulse	1	t		30.0	2.5	/experiments/AOT/AOT_stimuli/rescaled_final/1400_fw.mp4	0.0	184.93545508384705	
32	164.0243239402771	pulse	1	t		30.0	2.5	/experiments/AOT/AOT_stimuli/rescaled_final/1400_fw.mp4	0.0	186.53540897369385	
32	164.1408669948578	fix_post	2		12	30.0	2.5	/experiments/AOT/AOT_stimuli/rescaled_final/1400_fw.mp4	0.0	186.65195202827454	0.09996509552001953
33	164.2408320903778	fix_pre	0		120	31.0	2.5	/experiments/AOT/AOT_stimuli/rescaled_final/0327_fw.mp4	0.0	186.75191712379456	1.000044822692871
33	165.24087691307068	movie	1		243	31.0	2.5	/experiments/AOT/AOT_stimuli/rescaled_final/0327_fw.mp4	0.0	187.75196194648743	2.499897003173828
33	165.62535405158997	pulse	1	t		31.0	2.5	/experiments/AOT/AOT_stimuli/rescaled_final/0327_fw.mp4	0.0	188.1364390850067	
33	167.22429895401	pulse	1	t		31.0	2.5	/experiments/AOT/AOT_stimuli/rescaled_final/0327_fw.mp4	0.0	189.73538398742676	
33	167.7407739162445	fix_post	2		12	31.0	2.5	/experiments/AOT/AOT_stimuli/rescaled_final/0327_fw.mp4	0.0	190.25185894966125	0.100006103515625
34	167.84078001976013	fix_pre	0		119	32.0	2.5	/experiments/AOT/AOT_stimuli/rescaled_final/0343_rv.mp4	0.0	190.35186505317688	0.9916980266571045
34	168.82430386543274	pulse	0	t		32.0	2.5	/experiments/AOT/AOT_stimuli/rescaled_final/0343_rv.mp4	0.0	191.3353888988495	
34	168.83247804641724	movie	1		243	32.0	2.5	/experiments/AOT/AOT_stimuli/rescaled_final/0343_rv.mp4	0.0	191.34356307983398	2.5078179836273193
34	170.4255039691925	pulse	1	t		32.0	2.5	/experiments/AOT/AOT_stimuli/rescaled_final/0343_rv.mp4	0.0	192.93658900260925	
34	171.34029603004456	fix_post	2		12	32.0	2.5	/experiments/AOT/AOT_stimuli/rescaled_final/0343_rv.mp4	0.0	193.8513810634613	0.10051488876342773
35	171.44081091880798	fix_pre	0		120	33.0	2.5	/experiments/AOT/AOT_stimuli/rescaled_final/1687_fw.mp4	0.0	193.95189595222473	0.9995970726013184
35	172.02427887916565	pulse	0	t		33.0	2.5	/experiments/AOT/AOT_stimuli/rescaled_final/1687_fw.mp4	0.0	194.5353639125824	
35	172.4404079914093	movie	1		244	33.0	2.5	/experiments/AOT/AOT_stimuli/rescaled_final/1687_fw.mp4	0.0	194.95149302482605	2.499948024749756
35	173.62430691719055	pulse	1	t		33.0	2.5	/experiments/AOT/AOT_stimuli/rescaled_final/1687_fw.mp4	0.0	196.1353919506073	
35	174.94035601615906	fix_post	2		12	33.0	2.5	/experiments/AOT/AOT_stimuli/rescaled_final/1687_fw.mp4	0.0	197.4514410495758	0.10039091110229492
36	175.04074692726135	fix_pre	0		120	34.0	2.5	/experiments/AOT/AOT_stimuli/rescaled_final/1662_rv.mp4	0.0	197.5518319606781	1.0000691413879395
36	175.22423100471497	pulse	0	t		34.0	2.5	/experiments/AOT/AOT_stimuli/rescaled_final/1662_rv.mp4	0.0	197.7353160381317	
36	176.0408160686493	movie	1		243	34.0	2.5	/experiments/AOT/AOT_stimuli/rescaled_final/1662_rv.mp4	0.0	198.55190110206604	2.499781847000122
36	176.82421207427979	pulse	1	t		34.0	2.5	/experiments/AOT/AOT_stimuli/rescaled_final/1662_rv.mp4	0.0	199.33529710769653	
36	178.4223439693451	pulse	1	t		34.0	2.5	/experiments/AOT/AOT_stimuli/rescaled_final/1662_rv.mp4	0.0	200.93342900276184	
36	178.5405979156494	fix_post	2		12	34.0	2.5	/experiments/AOT/AOT_stimuli/rescaled_final/1662_rv.mp4	0.0	201.05168294906616	0.09970903396606445
37	178.64030694961548	fix_pre	0		120	35.0	2.5	blank	1.0	201.15139198303223	1.000175952911377
37	179.64048290252686	movie	1		300	35.0	2.5	blank	1.0	202.1515679359436	2.5002150535583496
37	180.02401900291443	pulse	1	t		35.0	2.5	blank	1.0	202.53510403633118	
37	181.6243190765381	pulse	1	t		35.0	2.5	blank	1.0	204.13540410995483	
37	182.1406979560852	fix_post	2		12	35.0	2.5	blank	1.0	204.65178298950195	0.09997010231018066
38	182.24066805839539	fix_pre	0		119	36.0	2.5	/experiments/AOT/AOT_stimuli/rescaled_final/1289_fw.mp4	0.0	204.75175309181213	0.9917318820953369
38	183.22418093681335	pulse	0	t		36.0	2.5	/experiments/AOT/AOT_stimuli/rescaled_final/1289_fw.mp4	0.0	205.7352659702301	
38	183.23239994049072	movie	1		244	36.0	2.5	/experiments/AOT/AOT_stimuli/rescaled_final/1289_fw.mp4	0.0	205.74348497390747	2.5082449913024902
38	184.82402205467224	pulse	1	t		36.0	2.5	/experiments/AOT/AOT_stimuli/rescaled_final/1289_fw.mp4	0.0	207.335107088089	
38	185.7406449317932	fix_post	2		12	36.0	2.5	/experiments/AOT/AOT_stimuli/rescaled_final/1289_fw.mp4	0.0	208.25172996520996	0.09995508193969727
39	185.8406000137329	fix_pre	0		120	37.0	2.5	/experiments/AOT/AOT_stimuli/rescaled_final/0072_rv.mp4	0.0	208.35168504714966	0.999722957611084
39	186.42414808273315	pulse	0	t		37.0	2.5	/experiments/AOT/AOT_stimuli/rescaled_final/0072_rv.mp4	0.0	208.9352331161499	
39	186.840322971344	movie	1		243	37.0	2.5	/experiments/AOT/AOT_stimuli/rescaled_final/0072_rv.mp4	0.0	209.35140800476074	2.5003390312194824
39	188.02427196502686	pulse	1	t		37.0	2.5	/experiments/AOT/AOT_stimuli/rescaled_final/0072_rv.mp4	0.0	210.5353569984436	
39	189.34066200256348	fix_post	2		12	37.0	2.5	/experiments/AOT/AOT_stimuli/rescaled_final/0072_rv.mp4	0.0	211.85174703598022	0.0999910831451416
40	189.44065308570862	fix_pre	0		120	38.0	2.5	/experiments/AOT/AOT_stimuli/rescaled_final/1864_rv.mp4	0.0	211.95173811912537	0.9999527931213379
40	189.62416291236877	pulse	0	t		38.0	2.5	/experiments/AOT/AOT_stimuli/rescaled_final/1864_rv.mp4	0.0	212.13524794578552	
40	190.44060587882996	movie	1		243	38.0	2.5	/experiments/AOT/AOT_stimuli/rescaled_final/1864_rv.mp4	0.0	212.9516909122467	2.500087022781372
40	191.2241780757904	pulse	1	t		38.0	2.5	/experiments/AOT/AOT_stimuli/rescaled_final/1864_rv.mp4	0.0	213.73526310920715	
40	192.82247304916382	pulse	1	t		38.0	2.5	/experiments/AOT/AOT_stimuli/rescaled_final/1864_rv.mp4	0.0	215.33355808258057	
40	192.94069290161133	fix_post	2		12	38.0	2.5	/experiments/AOT/AOT_stimuli/rescaled_final/1864_rv.mp4	0.0	215.45177793502808	0.09987115859985352
41	193.04056406021118	fix_pre	0		120	39.0	2.5	/experiments/AOT/AOT_stimuli/rescaled_final/1954_rv.mp4	0.0	215.55164909362793	1.000067949295044
41	194.04063200950623	movie	1		243	39.0	2.5	/experiments/AOT/AOT_stimuli/rescaled_final/1954_rv.mp4	0.0	216.55171704292297	2.5000200271606445
41	194.42384505271912	pulse	1	t		39.0	2.5	/experiments/AOT/AOT_stimuli/rescaled_final/1954_rv.mp4	0.0	216.93493008613586	
41	196.02417588233948	pulse	1	t		39.0	2.5	/experiments/AOT/AOT_stimuli/rescaled_final/1954_rv.mp4	0.0	218.53526091575623	
41	196.54065203666687	fix_post	2		12	39.0	2.5	/experiments/AOT/AOT_stimuli/rescaled_final/1954_rv.mp4	0.0	219.05173707008362	0.09996294975280762
42	196.64061498641968	fix_pre	0		119	40.0	2.5	blank	1.0	219.15170001983643	0.9917440414428711
42	197.62416195869446	pulse	0	t		40.0	2.5	blank	1.0	220.1352469921112	
42	197.63235902786255	movie	1		301	40.0	2.5	blank	1.0	220.1434440612793	2.508241891860962
42	199.22416806221008	pulse	1	t		40.0	2.5	blank	1.0	221.73525309562683	
42	200.1406009197235	fix_post	2		12	40.0	2.5	blank	1.0	222.65168595314026	0.09991312026977539
43	200.2405140399933	fix_pre	0		120	41.0	2.5	/experiments/AOT/AOT_stimuli/rescaled_final/1973_fw.mp4	0.0	222.75159907341003	1.0001590251922607
43	200.82415103912354	pulse	0	t		41.0	2.5	/experiments/AOT/AOT_stimuli/rescaled_final/1973_fw.mp4	0.0	223.33523607254028	
43	201.24067306518555	movie	1		247	41.0	2.5	/experiments/AOT/AOT_stimuli/rescaled_final/1973_fw.mp4	0.0	223.7517580986023	2.499854803085327
43	202.42418789863586	pulse	1	t		41.0	2.5	/experiments/AOT/AOT_stimuli/rescaled_final/1973_fw.mp4	0.0	224.9352729320526	
43	203.74052786827087	fix_post	2		12	41.0	2.5	/experiments/AOT/AOT_stimuli/rescaled_final/1973_fw.mp4	0.0	226.25161290168762	0.10001301765441895
44	203.8405408859253	fix_pre	0		120	42.0	2.5	/experiments/AOT/AOT_stimuli/rescaled_final/0307_fw.mp4	0.0	226.35162591934204	1.0001041889190674
44	204.02414107322693	pulse	0	t		42.0	2.5	/experiments/AOT/AOT_stimuli/rescaled_final/0307_fw.mp4	0.0	226.53522610664368	
44	204.84064507484436	movie	1		244	42.0	2.5	/experiments/AOT/AOT_stimuli/rescaled_final/0307_fw.mp4	0.0	227.3517301082611	2.4999828338623047
44	205.62413597106934	pulse	1	t		42.0	2.5	/experiments/AOT/AOT_stimuli/rescaled_final/0307_fw.mp4	0.0	228.13522100448608	
44	207.22249794006348	pulse	1	t		42.0	2.5	/experiments/AOT/AOT_stimuli/rescaled_final/0307_fw.mp4	0.0	229.73358297348022	
44	207.34062790870667	fix_post	2		12	42.0	2.5	/experiments/AOT/AOT_stimuli/rescaled_final/0307_fw.mp4	0.0	229.8517129421234	0.099884033203125
45	207.4405119419098	fix_pre	0		120	43.0	2.5	/experiments/AOT/AOT_stimuli/rescaled_final/1105_fw.mp4	0.0	229.95159697532654	1.0000860691070557
45	208.44059801101685	movie	1		244	43.0	2.5	/experiments/AOT/AOT_stimuli/rescaled_final/1105_fw.mp4	0.0	230.9516830444336	2.5000200271606445
45	208.82360291481018	pulse	1	t		43.0	2.5	/experiments/AOT/AOT_stimuli/rescaled_final/1105_fw.mp4	0.0	231.33468794822693	
45	210.42408108711243	pulse	1	t		43.0	2.5	/experiments/AOT/AOT_stimuli/rescaled_final/1105_fw.mp4	0.0	232.93516612052917	
45	210.9406180381775	fix_post	2		12	43.0	2.5	/experiments/AOT/AOT_stimuli/rescaled_final/1105_fw.mp4	0.0	233.45170307159424	0.09999799728393555
46	211.04061603546143	fix_pre	0		119	44.0	2.5	/experiments/AOT/AOT_stimuli/rescaled_final/1349_rv.mp4	0.0	233.55170106887817	0.9916448593139648
46	212.02405190467834	pulse	0	t		44.0	2.5	/experiments/AOT/AOT_stimuli/rescaled_final/1349_rv.mp4	0.0	234.5351369380951	
46	212.0322608947754	movie	1		246	44.0	2.5	/experiments/AOT/AOT_stimuli/rescaled_final/1349_rv.mp4	0.0	234.54334592819214	2.508275032043457
46	213.62354707717896	pulse	1	t		44.0	2.5	/experiments/AOT/AOT_stimuli/rescaled_final/1349_rv.mp4	0.0	236.1346321105957	
46	214.54053592681885	fix_post	2		12	44.0	2.5	/experiments/AOT/AOT_stimuli/rescaled_final/1349_rv.mp4	0.0	237.0516209602356	0.10002398490905762
47	214.6405599117279	fix_pre	0		120	45.0	2.5	/experiments/AOT/AOT_stimuli/rescaled_final/0660_fw.mp4	0.0	237.15164494514465	1.0000431537628174
47	215.22405886650085	pulse	0	t		45.0	2.5	/experiments/AOT/AOT_stimuli/rescaled_final/0660_fw.mp4	0.0	237.7351438999176	
47	215.64060306549072	movie	1		243	45.0	2.5	/experiments/AOT/AOT_stimuli/rescaled_final/0660_fw.mp4	0.0	238.15168809890747	2.499924898147583
47	216.82412099838257	pulse	1	t		45.0	2.5	/experiments/AOT/AOT_stimuli/rescaled_final/0660_fw.mp4	0.0	239.33520603179932	
47	218.1405279636383	fix_post	2		12	45.0	2.5	/experiments/AOT/AOT_stimuli/rescaled_final/0660_fw.mp4	0.0	240.65161299705505	0.10001993179321289
48	218.24054789543152	fix_pre	0		120	46.0	2.5	/experiments/AOT/AOT_stimuli/rescaled_final/1168_rv.mp4	0.0	240.75163292884827	0.9996020793914795
48	218.42413687705994	pulse	0	t		46.0	2.5	/experiments/AOT/AOT_stimuli/rescaled_final/1168_rv.mp4	0.0	240.93522191047668	
48	219.240149974823	movie	1		244	46.0	2.5	/experiments/AOT/AOT_stimuli/rescaled_final/1168_rv.mp4	0.0	241.75123500823975	2.50045108795166
48	220.0240490436554	pulse	1	t		46.0	2.5	/experiments/AOT/AOT_stimuli/rescaled_final/1168_rv.mp4	0.0	242.53513407707214	
48	221.62253403663635	pulse	1	t		46.0	2.5	/experiments/AOT/AOT_stimuli/rescaled_final/1168_rv.mp4	0.0	244.1336190700531	
48	221.74060106277466	fix_post	2		12	46.0	2.5	/experiments/AOT/AOT_stimuli/rescaled_final/1168_rv.mp4	0.0	244.2516860961914	0.10003995895385742
49	221.84064102172852	fix_pre	0		120	47.0	2.5	blank	1.0	244.35172605514526	0.9999270439147949
49	222.8405680656433	movie	1		300	47.0	2.5	blank	1.0	245.35165309906006	2.499992847442627
49	223.2240309715271	pulse	1	t		47.0	2.5	blank	1.0	245.73511600494385	
49	224.82401609420776	pulse	1	t		47.0	2.5	blank	1.0	247.3351011276245	
49	225.34056091308594	fix_post	2		12	47.0	2.5	blank	1.0	247.85164594650269	0.09949898719787598
50	225.4400599002838	fix_pre	0		119	48.0	2.5	/experiments/AOT/AOT_stimuli/rescaled_final/0823_rv.mp4	0.0	247.95114493370056	0.9921801090240479
50	226.42404794692993	pulse	0	t		48.0	2.5	/experiments/AOT/AOT_stimuli/rescaled_final/0823_rv.mp4	0.0	248.93513298034668	
50	226.43224000930786	movie	1		245	48.0	2.5	/experiments/AOT/AOT_stimuli/rescaled_final/0823_rv.mp4	0.0	248.9433250427246	2.507767915725708
50	228.02375102043152	pulse	1	t		48.0	2.5	/experiments/AOT/AOT_stimuli/rescaled_final/0823_rv.mp4	0.0	250.53483605384827	
50	228.94000792503357	fix_post	2		12	48.0	2.5	/experiments/AOT/AOT_stimuli/rescaled_final/0823_rv.mp4	0.0	251.45109295845032	0.10049796104431152
51	229.04050588607788	fix_pre	0		120	49.0	2.5	/experiments/AOT/AOT_stimuli/rescaled_final/0858_fw.mp4	0.0	251.55159091949463	0.9999830722808838
51	229.6239550113678	pulse	0	t		49.0	2.5	/experiments/AOT/AOT_stimuli/rescaled_final/0858_fw.mp4	0.0	252.13504004478455	
51	230.04048895835876	movie	1		243	49.0	2.5	/experiments/AOT/AOT_stimuli/rescaled_final/0858_fw.mp4	0.0	252.5515739917755	2.499613046646118
51	231.22395300865173	pulse	1	t		49.0	2.5	/experiments/AOT/AOT_stimuli/rescaled_final/0858_fw.mp4	0.0	253.73503804206848	
51	232.54010200500488	fix_post	2		12	49.0	2.5	/experiments/AOT/AOT_stimuli/rescaled_final/0858_fw.mp4	0.0	255.05118703842163	0.10043597221374512
52	232.64053797721863	fix_pre	0		120	50.0	2.5	/experiments/AOT/AOT_stimuli/rescaled_final/0204_rv.mp4	0.0	255.15162301063538	0.9999608993530273
52	232.8239550590515	pulse	0	t		50.0	2.5	/experiments/AOT/AOT_stimuli/rescaled_final/0204_rv.mp4	0.0	255.33504009246826	
52	233.64049887657166	movie	1		244	50.0	2.5	/experiments/AOT/AOT_stimuli/rescaled_final/0204_rv.mp4	0.0	256.1515839099884	2.5001940727233887
52	234.42353987693787	pulse	1	t		50.0	2.5	/experiments/AOT/AOT_stimuli/rescaled_final/0204_rv.mp4	0.0	256.9346249103546	
52	236.02281308174133	pulse	1	t		50.0	2.5	/experiments/AOT/AOT_stimuli/rescaled_final/0204_rv.mp4	0.0	258.5338981151581	
52	236.14069294929504	fix_post	2		12	50.0	2.5	/experiments/AOT/AOT_stimuli/rescaled_final/0204_rv.mp4	0.0	258.6517779827118	0.09961295127868652
53	236.24030590057373	fix_pre	0		120	51.0	2.5	/experiments/AOT/AOT_stimuli/rescaled_final/2105_rv.mp4	0.0	258.7513909339905	1.0001850128173828
53	237.2404909133911	movie	1		243	51.0	2.5	/experiments/AOT/AOT_stimuli/rescaled_final/2105_rv.mp4	0.0	259.75157594680786	2.4995551109313965
53	237.62344002723694	pulse	1	t		51.0	2.5	/experiments/AOT/AOT_stimuli/rescaled_final/2105_rv.mp4	0.0	260.1345250606537	
53	239.22390294075012	pulse	1	t		51.0	2.5	/experiments/AOT/AOT_stimuli/rescaled_final/2105_rv.mp4	0.0	261.73498797416687	
53	239.7400460243225	fix_post	2		12	51.0	2.5	/experiments/AOT/AOT_stimuli/rescaled_final/2105_rv.mp4	0.0	262.25113105773926	0.10039186477661133
54	239.84043788909912	fix_pre	0		119	52.0	2.5	/experiments/AOT/AOT_stimuli/rescaled_final/0782_fw.mp4	0.0	262.35152292251587	0.9916369915008545
54	240.82394409179688	pulse	0	t		52.0	2.5	/experiments/AOT/AOT_stimuli/rescaled_final/0782_fw.mp4	0.0	263.3350291252136	
54	240.83207488059998	movie	1		246	52.0	2.5	/experiments/AOT/AOT_stimuli/rescaled_final/0782_fw.mp4	0.0	263.3431599140167	2.508390188217163
54	242.42507410049438	pulse	1	t		52.0	2.5	/experiments/AOT/AOT_stimuli/rescaled_final/0782_fw.mp4	0.0	264.93615913391113	
54	243.34046506881714	fix_post	2		12	52.0	2.5	/experiments/AOT/AOT_stimuli/rescaled_final/0782_fw.mp4	0.0	265.8515501022339	0.09999489784240723
55	243.44045996665955	fix_pre	0		120	53.0	2.5	/experiments/AOT/AOT_stimuli/rescaled_final/1454_rv.mp4	0.0	265.9515450000763	0.9995670318603516
55	244.0239188671112	pulse	0	t		53.0	2.5	/experiments/AOT/AOT_stimuli/rescaled_final/1454_rv.mp4	0.0	266.53500390052795	
55	244.4400269985199	movie	1		245	53.0	2.5	/experiments/AOT/AOT_stimuli/rescaled_final/1454_rv.mp4	0.0	266.95111203193665	2.500343084335327
55	245.62395906448364	pulse	1	t		53.0	2.5	/experiments/AOT/AOT_stimuli/rescaled_final/1454_rv.mp4	0.0	268.1350440979004	
55	246.94037008285522	fix_post	2		12	53.0	2.5	/experiments/AOT/AOT_stimuli/rescaled_final/1454_rv.mp4	0.0	269.451455116272	0.10004281997680664
56	247.04041290283203	fix_pre	0		120	54.0	2.5	blank	1.0	269.5514979362488	0.9999170303344727
56	247.2238540649414	pulse	0	t		54.0	2.5	blank	1.0	269.73493909835815	
56	248.0403299331665	movie	1		300	54.0	2.5	blank	1.0	270.55141496658325	2.5001211166381836
56	248.8239278793335	pulse	1	t		54.0	2.5	blank	1.0	271.33501291275024	
56	250.42387104034424	pulse	1	t		54.0	2.5	blank	1.0	272.934956073761	
56	250.5404510498047	fix_post	2		12	54.0	2.5	blank	1.0	273.05153608322144	0.09988903999328613
57	250.64034008979797	fix_pre	0		120	55.0	2.5	/experiments/AOT/AOT_stimuli/rescaled_final/0958_fw.mp4	0.0	273.1514251232147	0.99965500831604
57	251.639995098114	movie	1		244	55.0	2.5	/experiments/AOT/AOT_stimuli/rescaled_final/0958_fw.mp4	0.0	274.15108013153076	2.4999728202819824
57	252.02400302886963	pulse	1	t		55.0	2.5	/experiments/AOT/AOT_stimuli/rescaled_final/0958_fw.mp4	0.0	274.5350880622864	
57	253.62380409240723	pulse	1	t		55.0	2.5	/experiments/AOT/AOT_stimuli/rescaled_final/0958_fw.mp4	0.0	276.134889125824	
57	254.139967918396	fix_post	2		12	55.0	2.5	/experiments/AOT/AOT_stimuli/rescaled_final/0958_fw.mp4	0.0	276.65105295181274	0.10036206245422363
58	254.24032998085022	fix_pre	0		119	56.0	2.5	/experiments/AOT/AOT_stimuli/rescaled_final/0343_fw.mp4	0.0	276.75141501426697	0.9916810989379883
58	255.22390294075012	pulse	0	t		56.0	2.5	/experiments/AOT/AOT_stimuli/rescaled_final/0343_fw.mp4	0.0	277.73498797416687	
58	255.2320110797882	movie	1		245	56.0	2.5	/experiments/AOT/AOT_stimuli/rescaled_final/0343_fw.mp4	0.0	277.74309611320496	2.508255958557129
58	256.82401299476624	pulse	1	t		56.0	2.5	/experiments/AOT/AOT_stimuli/rescaled_final/0343_fw.mp4	0.0	279.335098028183	
58	257.74026703834534	fix_post	2		12	56.0	2.5	/experiments/AOT/AOT_stimuli/rescaled_final/0343_fw.mp4	0.0	280.2513520717621	0.10009384155273438
59	257.84036087989807	fix_pre	0		120	57.0	2.5	/experiments/AOT/AOT_stimuli/rescaled_final/1105_rv.mp4	0.0	280.3514459133148	1.0000522136688232
59	258.423819065094	pulse	0	t		57.0	2.5	/experiments/AOT/AOT_stimuli/rescaled_final/1105_rv.mp4	0.0	280.93490409851074	
59	258.8404130935669	movie	1		244	57.0	2.5	/experiments/AOT/AOT_stimuli/rescaled_final/1105_rv.mp4	0.0	281.35149812698364	2.5000569820404053
59	260.0239360332489	pulse	1	t		57.0	2.5	/experiments/AOT/AOT_stimuli/rescaled_final/1105_rv.mp4	0.0	282.53502106666565	
59	261.3404700756073	fix_post	2		12	57.0	2.5	/experiments/AOT/AOT_stimuli/rescaled_final/1105_rv.mp4	0.0	283.85155510902405	0.09994292259216309
60	261.44041299819946	fix_pre	0		120	58.0	2.5	/experiments/AOT/AOT_stimuli/rescaled_final/0402_rv.mp4	0.0	283.9514980316162	0.9995338916778564
60	261.62383699417114	pulse	0	t		58.0	2.5	/experiments/AOT/AOT_stimuli/rescaled_final/0402_rv.mp4	0.0	284.1349220275879	
60	262.4399468898773	movie	1		244	58.0	2.5	/experiments/AOT/AOT_stimuli/rescaled_final/0402_rv.mp4	0.0	284.95103192329407	2.500326156616211
60	263.2238359451294	pulse	1	t		58.0	2.5	/experiments/AOT/AOT_stimuli/rescaled_final/0402_rv.mp4	0.0	285.73492097854614	
60	264.82390809059143	pulse	1	t		58.0	2.5	/experiments/AOT/AOT_stimuli/rescaled_final/0402_rv.mp4	0.0	287.3349931240082	
60	264.94027304649353	fix_post	2		12	58.0	2.5	/experiments/AOT/AOT_stimuli/rescaled_final/0402_rv.mp4	0.0	287.4513580799103	0.10008382797241211
61	265.04035687446594	fix_pre	0		120	59.0	2.5	/experiments/AOT/AOT_stimuli/rescaled_final/1216_fw.mp4	0.0	287.5514419078827	0.9999771118164062
61	266.04033398628235	movie	1		244	59.0	2.5	/experiments/AOT/AOT_stimuli/rescaled_final/1216_fw.mp4	0.0	288.5514190196991	2.4999940395355225
61	266.4238519668579	pulse	1	t		59.0	2.5	/experiments/AOT/AOT_stimuli/rescaled_final/1216_fw.mp4	0.0	288.93493700027466	
61	268.02376794815063	pulse	1	t		59.0	2.5	/experiments/AOT/AOT_stimuli/rescaled_final/1216_fw.mp4	0.0	290.5348529815674	
61	268.54032802581787	fix_post	2		12	59.0	2.5	/experiments/AOT/AOT_stimuli/rescaled_final/1216_fw.mp4	0.0	291.0514130592346	0.10001897811889648
62	268.64034700393677	fix_pre	0		119	60.0	2.5	/experiments/AOT/AOT_stimuli/rescaled_final/1891_fw.mp4	0.0	291.1514320373535	0.991703987121582
62	269.6238069534302	pulse	0	t		60.0	2.5	/experiments/AOT/AOT_stimuli/rescaled_final/1891_fw.mp4	0.0	292.1348919868469	
62	269.63205099105835	movie	1		247	60.0	2.5	/experiments/AOT/AOT_stimuli/rescaled_final/1891_fw.mp4	0.0	292.1431360244751	2.5078420639038086
62	271.22330808639526	pulse	1	t		60.0	2.5	/experiments/AOT/AOT_stimuli/rescaled_final/1891_fw.mp4	0.0	293.734393119812	
62	272.13989305496216	fix_post	2		12	60.0	2.5	/experiments/AOT/AOT_stimuli/rescaled_final/1891_fw.mp4	0.0	294.6509780883789	0.10039401054382324
63	272.240287065506	fix_pre	0		120	61.0	2.5	/experiments/AOT/AOT_stimuli/rescaled_final/0597_fw.mp4	0.0	294.75137209892273	1.0000100135803223
63	272.82380390167236	pulse	0	t		61.0	2.5	/experiments/AOT/AOT_stimuli/rescaled_final/0597_fw.mp4	0.0	295.3348889350891	
63	273.2402970790863	movie	1		243	61.0	2.5	/experiments/AOT/AOT_stimuli/rescaled_final/0597_fw.mp4	0.0	295.75138211250305	2.4999117851257324
63	274.42387890815735	pulse	1	t		61.0	2.5	/experiments/AOT/AOT_stimuli/rescaled_final/0597_fw.mp4	0.0	296.9349639415741	
63	275.74020886421204	fix_post	2		12	61.0	2.5	/experiments/AOT/AOT_stimuli/rescaled_final/0597_fw.mp4	0.0	298.2512938976288	0.10004115104675293
64	275.8402500152588	fix_pre	0		120	62.0	2.5	/experiments/AOT/AOT_stimuli/rescaled_final/1673_fw.mp4	0.0	298.35133504867554	1.0000150203704834
64	276.0237510204315	pulse	0	t		62.0	2.5	/experiments/AOT/AOT_stimuli/rescaled_final/1673_fw.mp4	0.0	298.53483605384827	
64	276.8402650356293	movie	1		244	62.0	2.5	/experiments/AOT/AOT_stimuli/rescaled_final/1673_fw.mp4	0.0	299.351350069046	2.499588966369629
64	277.62373995780945	pulse	1	t		62.0	2.5	/experiments/AOT/AOT_stimuli/rescaled_final/1673_fw.mp4	0.0	300.1348249912262	
64	279.2224659919739	pulse	1	t		62.0	2.5	/experiments/AOT/AOT_stimuli/rescaled_final/1673_fw.mp4	0.0	301.7335510253906	
64	279.3398540019989	fix_post	2		12	62.0	2.5	/experiments/AOT/AOT_stimuli/rescaled_final/1673_fw.mp4	0.0	301.85093903541565	0.10030603408813477
65	279.44016003608704	fix_pre	0		120	63.0	2.5	blank	1.0	301.9512450695038	1.000105857849121
65	280.44026589393616	movie	1		300	63.0	2.5	blank	1.0	302.9513509273529	2.4999711513519287
65	280.8237409591675	pulse	1	t		63.0	2.5	blank	1.0	303.33482599258423	
65	282.42373394966125	pulse	1	t		63.0	2.5	blank	1.0	304.934818983078	
65	282.9402370452881	fix_post	2		12	63.0	2.5	blank	1.0	305.45132207870483	0.09995293617248535
66	283.04018998146057	fix_pre	0		119	64.0	2.5	/experiments/AOT/AOT_stimuli/rescaled_final/0981_fw.mp4	0.0	305.5512750148773	0.9916501045227051
66	284.02375507354736	pulse	0	t		64.0	2.5	/experiments/AOT/AOT_stimuli/rescaled_final/0981_fw.mp4	0.0	306.5348401069641	
66	284.0318400859833	movie	1		245	64.0	2.5	/experiments/AOT/AOT_stimuli/rescaled_final/0981_fw.mp4	0.0	306.5429251194	2.5084099769592285
66	285.6238350868225	pulse	1	t		64.0	2.5	/experiments/AOT/AOT_stimuli/rescaled_final/0981_fw.mp4	0.0	308.13492012023926	
66	286.5402500629425	fix_post	2		12	64.0	2.5	/experiments/AOT/AOT_stimuli/rescaled_final/0981_fw.mp4	0.0	309.05133509635925	0.10007691383361816
67	286.6403269767761	fix_pre	0		120	65.0	2.5	/experiments/AOT/AOT_stimuli/rescaled_final/1287_fw.mp4	0.0	309.15141201019287	0.9999179840087891
67	287.2238600254059	pulse	0	t		65.0	2.5	/experiments/AOT/AOT_stimuli/rescaled_final/1287_fw.mp4	0.0	309.73494505882263	
67	287.6402449607849	movie	1		245	65.0	2.5	/experiments/AOT/AOT_stimuli/rescaled_final/1287_fw.mp4	0.0	310.15132999420166	2.499687910079956
67	288.823716878891	pulse	1	t		65.0	2.5	/experiments/AOT/AOT_stimuli/rescaled_final/1287_fw.mp4	0.0	311.33480191230774	
67	290.13993287086487	fix_post	2		12	65.0	2.5	/experiments/AOT/AOT_stimuli/rescaled_final/1287_fw.mp4	0.0	312.6510179042816	0.09989714622497559
68	290.23983001708984	fix_pre	0		120	66.0	2.5	/experiments/AOT/AOT_stimuli/rescaled_final/1984_fw.mp4	0.0	312.7509150505066	1.0005369186401367
68	290.42329001426697	pulse	0	t		66.0	2.5	/experiments/AOT/AOT_stimuli/rescaled_final/1984_fw.mp4	0.0	312.9343750476837	
68	291.24036693573	movie	1		247	66.0	2.5	/experiments/AOT/AOT_stimuli/rescaled_final/1984_fw.mp4	0.0	313.75145196914673	2.4998459815979004
68	292.0235369205475	pulse	1	t		66.0	2.5	/experiments/AOT/AOT_stimuli/rescaled_final/1984_fw.mp4	0.0	314.53462195396423	
68	293.62378692626953	pulse	1	t		66.0	2.5	/experiments/AOT/AOT_stimuli/rescaled_final/1984_fw.mp4	0.0	316.1348719596863	
68	293.7402129173279	fix_post	2		12	66.0	2.5	/experiments/AOT/AOT_stimuli/rescaled_final/1984_fw.mp4	0.0	316.25129795074463	0.10001397132873535
69	293.8402268886566	fix_pre	0		120	67.0	2.5	/experiments/AOT/AOT_stimuli/rescaled_final/0034_fw.mp4	0.0	316.35131192207336	0.9999680519104004
69	294.840194940567	movie	1		244	67.0	2.5	/experiments/AOT/AOT_stimuli/rescaled_final/0034_fw.mp4	0.0	317.35127997398376	2.499993085861206
69	295.22308897972107	pulse	1	t		67.0	2.5	/experiments/AOT/AOT_stimuli/rescaled_final/0034_fw.mp4	0.0	317.7341740131378	
69	296.8236780166626	pulse	1	t		67.0	2.5	/experiments/AOT/AOT_stimuli/rescaled_final/0034_fw.mp4	0.0	319.33476305007935	
69	297.3401880264282	fix_post	2		12	67.0	2.5	/experiments/AOT/AOT_stimuli/rescaled_final/0034_fw.mp4	0.0	319.85127305984497	0.09989500045776367
70	297.440083026886	fix_pre	0		119	68.0	2.5	blank	1.0	319.95116806030273	0.991675853729248
70	298.42357301712036	pulse	0	t		68.0	2.5	blank	1.0	320.9346580505371	
70	298.43175888061523	movie	1		301	68.0	2.5	blank	1.0	320.942843914032	2.5083260536193848
70	300.0236248970032	pulse	1	t		68.0	2.5	blank	1.0	322.5347099304199	
70	300.9400849342346	fix_post	2		12	68.0	2.5	blank	1.0	323.45116996765137	0.09998393058776855
71	301.0400688648224	fix_pre	0		120	69.0	2.5	/experiments/AOT/AOT_stimuli/rescaled_final/2056_rv.mp4	0.0	323.55115389823914	1.0000061988830566
71	301.62357091903687	pulse	0	t		69.0	2.5	/experiments/AOT/AOT_stimuli/rescaled_final/2056_rv.mp4	0.0	324.1346559524536	
71	302.04007506370544	movie	1		244	69.0	2.5	/experiments/AOT/AOT_stimuli/rescaled_final/2056_rv.mp4	0.0	324.5511600971222	2.4999969005584717
71	303.2235860824585	pulse	1	t		69.0	2.5	/experiments/AOT/AOT_stimuli/rescaled_final/2056_rv.mp4	0.0	325.73467111587524	
71	304.5400719642639	fix_post	2		12	69.0	2.5	/experiments/AOT/AOT_stimuli/rescaled_final/2056_rv.mp4	0.0	327.05115699768066	0.10009098052978516
72	304.6401629447937	fix_pre	0		120	70.0	2.5	/experiments/AOT/AOT_stimuli/rescaled_final/1762_rv.mp4	0.0	327.15124797821045	0.999993085861206
72	304.82363390922546	pulse	0	t		70.0	2.5	/experiments/AOT/AOT_stimuli/rescaled_final/1762_rv.mp4	0.0	327.3347189426422	
72	305.6401560306549	movie	1		243	70.0	2.5	/experiments/AOT/AOT_stimuli/rescaled_final/1762_rv.mp4	0.0	328.15124106407166	2.4999849796295166
72	306.4236409664154	pulse	1	t		70.0	2.5	/experiments/AOT/AOT_stimuli/rescaled_final/1762_rv.mp4	0.0	328.93472599983215	
72	308.03198504447937	pulse	1	t		70.0	2.5	/experiments/AOT/AOT_stimuli/rescaled_final/1762_rv.mp4	0.0	330.5430700778961	
72	308.1401410102844	fix_post	2		12	70.0	2.5	/experiments/AOT/AOT_stimuli/rescaled_final/1762_rv.mp4	0.0	330.6512260437012	0.09996199607849121
73	308.2401030063629	fix_pre	0		120	71.0	2.5	/experiments/AOT/AOT_stimuli/rescaled_final/0946_fw.mp4	0.0	330.75118803977966	0.9999330043792725
73	309.2400360107422	movie	1		243	71.0	2.5	/experiments/AOT/AOT_stimuli/rescaled_final/0946_fw.mp4	0.0	331.75112104415894	2.500133991241455
73	309.6236779689789	pulse	1	t		71.0	2.5	/experiments/AOT/AOT_stimuli/rescaled_final/0946_fw.mp4	0.0	332.13476300239563	
73	311.22354793548584	pulse	1	t		71.0	2.5	/experiments/AOT/AOT_stimuli/rescaled_final/0946_fw.mp4	0.0	333.7346329689026	
73	311.74017000198364	fix_post	2		12	71.0	2.5	/experiments/AOT/AOT_stimuli/rescaled_final/0946_fw.mp4	0.0	334.2512550354004	0.09995198249816895
74	311.8401219844818	fix_pre	0		119	72.0	2.5	/experiments/AOT/AOT_stimuli/rescaled_final/1554_fw.mp4	0.0	334.35120701789856	0.9915640354156494
74	312.8235960006714	pulse	0	t		72.0	2.5	/experiments/AOT/AOT_stimuli/rescaled_final/1554_fw.mp4	0.0	335.33468103408813	
74	312.83168601989746	movie	1		246	72.0	2.5	/experiments/AOT/AOT_stimuli/rescaled_final/1554_fw.mp4	0.0	335.3427710533142	2.5080649852752686
74	314.4229860305786	pulse	1	t		72.0	2.5	/experiments/AOT/AOT_stimuli/rescaled_final/1554_fw.mp4	0.0	336.93407106399536	
74	315.33975100517273	fix_post	2		12	72.0	2.5	/experiments/AOT/AOT_stimuli/rescaled_final/1554_fw.mp4	0.0	337.8508360385895	0.10025787353515625
75	315.4400088787079	fix_pre	0		120	73.0	2.5	/experiments/AOT/AOT_stimuli/rescaled_final/2006_rv.mp4	0.0	337.95109391212463	1.0002491474151611
75	316.02352595329285	pulse	0	t		73.0	2.5	/experiments/AOT/AOT_stimuli/rescaled_final/2006_rv.mp4	0.0	338.5346109867096	
75	316.44025802612305	movie	1		245	73.0	2.5	/experiments/AOT/AOT_stimuli/rescaled_final/2006_rv.mp4	0.0	338.9513430595398	2.499825954437256
75	317.62358593940735	pulse	1	t		73.0	2.5	/experiments/AOT/AOT_stimuli/rescaled_final/2006_rv.mp4	0.0	340.1346709728241	
75	318.9400839805603	fix_post	2		12	73.0	2.5	/experiments/AOT/AOT_stimuli/rescaled_final/2006_rv.mp4	0.0	341.45116901397705	0.10004496574401855
76	319.0401289463043	fix_pre	0		120	74.0	2.5	/experiments/AOT/AOT_stimuli/rescaled_final/0970_fw.mp4	0.0	341.55121397972107	0.9999399185180664
76	319.22357392311096	pulse	0	t		74.0	2.5	/experiments/AOT/AOT_stimuli/rescaled_final/0970_fw.mp4	0.0	341.7346589565277	
76	320.0400688648224	movie	1		245	74.0	2.5	/experiments/AOT/AOT_stimuli/rescaled_final/0970_fw.mp4	0.0	342.55115389823914	2.4999091625213623
76	320.82349491119385	pulse	1	t		74.0	2.5	/experiments/AOT/AOT_stimuli/rescaled_final/0970_fw.mp4	0.0	343.3345799446106	
76	322.4220218658447	pulse	1	t		74.0	2.5	/experiments/AOT/AOT_stimuli/rescaled_final/0970_fw.mp4	0.0	344.9331068992615	
76	322.53997802734375	fix_post	2		12	74.0	2.5	/experiments/AOT/AOT_stimuli/rescaled_final/0970_fw.mp4	0.0	345.0510630607605	0.09976387023925781
77	322.639741897583	fix_pre	0		120	75.0	2.5	/experiments/AOT/AOT_stimuli/rescaled_final/0894_fw.mp4	0.0	345.15082693099976	1.000279188156128
77	323.64002108573914	movie	1		243	75.0	2.5	/experiments/AOT/AOT_stimuli/rescaled_final/0894_fw.mp4	0.0	346.1511061191559	2.500079870223999
77	324.0230450630188	pulse	1	t		75.0	2.5	/experiments/AOT/AOT_stimuli/rescaled_final/0894_fw.mp4	0.0	346.53413009643555	
77	325.6236810684204	pulse	1	t		75.0	2.5	/experiments/AOT/AOT_stimuli/rescaled_final/0894_fw.mp4	0.0	348.13476610183716	
77	326.14010095596313	fix_post	2		12	75.0	2.5	/experiments/AOT/AOT_stimuli/rescaled_final/0894_fw.mp4	0.0	348.6511859893799	0.0999760627746582
78	326.2400770187378	fix_pre	0		119	76.0	2.5	blank	1.0	348.75116205215454	0.9916620254516602
78	327.22350788116455	pulse	0	t		76.0	2.5	blank	1.0	349.7345929145813	
78	327.23173904418945	movie	1		301	76.0	2.5	blank	1.0	349.7428240776062	2.5083160400390625
78	328.82344007492065	pulse	1	t		76.0	2.5	blank	1.0	351.3345251083374	
78	329.7400550842285	fix_post	2		12	76.0	2.5	blank	1.0	352.25114011764526	0.09994196891784668
79	329.83999705314636	fix_pre	0		120	77.0	2.5	/experiments/AOT/AOT_stimuli/rescaled_final/0364_rv.mp4	0.0	352.3510820865631	1.000020980834961
79	330.423485994339	pulse	0	t		77.0	2.5	/experiments/AOT/AOT_stimuli/rescaled_final/0364_rv.mp4	0.0	352.93457102775574	
79	330.8400180339813	movie	1		244	77.0	2.5	/experiments/AOT/AOT_stimuli/rescaled_final/0364_rv.mp4	0.0	353.35110306739807	2.499945878982544
79	332.02353501319885	pulse	1	t		77.0	2.5	/experiments/AOT/AOT_stimuli/rescaled_final/0364_rv.mp4	0.0	354.5346200466156	
79	333.33996391296387	fix_post	2		12	77.0	2.5	/experiments/AOT/AOT_stimuli/rescaled_final/0364_rv.mp4	0.0	355.8510489463806	0.100067138671875
80	333.44003105163574	fix_pre	0		120	78.0	2.5	/experiments/AOT/AOT_stimuli/rescaled_final/1741_fw.mp4	0.0	355.9511160850525	0.9999330043792725
80	333.6234769821167	pulse	0	t		78.0	2.5	/experiments/AOT/AOT_stimuli/rescaled_final/1741_fw.mp4	0.0	356.13456201553345	
80	334.439964056015	movie	1		244	78.0	2.5	/experiments/AOT/AOT_stimuli/rescaled_final/1741_fw.mp4	0.0	356.95104908943176	2.5000410079956055
80	335.22344994544983	pulse	1	t		78.0	2.5	/experiments/AOT/AOT_stimuli/rescaled_final/1741_fw.mp4	0.0	357.7345349788666	
80	336.82212591171265	pulse	1	t		78.0	2.5	/experiments/AOT/AOT_stimuli/rescaled_final/1741_fw.mp4	0.0	359.3332109451294	
80	336.9400050640106	fix_post	2		12	78.0	2.5	/experiments/AOT/AOT_stimuli/rescaled_final/1741_fw.mp4	0.0	359.45109009742737	0.09996581077575684
81	337.0399708747864	fix_pre	0		120	79.0	2.5	/experiments/AOT/AOT_stimuli/rescaled_final/0839_fw.mp4	0.0	359.5510559082031	0.9999351501464844
81	338.03990602493286	movie	1		245	79.0	2.5	/experiments/AOT/AOT_stimuli/rescaled_final/0839_fw.mp4	0.0	360.5509910583496	2.5000040531158447
81	338.4228639602661	pulse	1	t		79.0	2.5	/experiments/AOT/AOT_stimuli/rescaled_final/0839_fw.mp4	0.0	360.93394899368286	
81	340.0234270095825	pulse	1	t		79.0	2.5	/experiments/AOT/AOT_stimuli/rescaled_final/0839_fw.mp4	0.0	362.53451204299927	
81	340.5399100780487	fix_post	2		12	79.0	2.5	/experiments/AOT/AOT_stimuli/rescaled_final/0839_fw.mp4	0.0	363.05099511146545	0.10006880760192871
82	340.63997888565063	fix_pre	0		119	80.0	2.5	/experiments/AOT/AOT_stimuli/rescaled_final/0942_rv.mp4	0.0	363.1510639190674	0.9917051792144775
82	341.62348103523254	pulse	0	t		80.0	2.5	/experiments/AOT/AOT_stimuli/rescaled_final/0942_rv.mp4	0.0	364.1345660686493	
82	341.6316840648651	movie	1		244	80.0	2.5	/experiments/AOT/AOT_stimuli/rescaled_final/0942_rv.mp4	0.0	364.14276909828186	2.5084829330444336
82	343.22284293174744	pulse	1	t		80.0	2.5	/experiments/AOT/AOT_stimuli/rescaled_final/0942_rv.mp4	0.0	365.7339279651642	
82	344.14016699790955	fix_post	2		12	80.0	2.5	/experiments/AOT/AOT_stimuli/rescaled_final/0942_rv.mp4	0.0	366.6512520313263	0.09979104995727539
83	344.2399580478668	fix_pre	0		120	81.0	2.5	/experiments/AOT/AOT_stimuli/rescaled_final/1896_rv.mp4	0.0	366.75104308128357	0.999521017074585
83	344.82345604896545	pulse	0	t		81.0	2.5	/experiments/AOT/AOT_stimuli/rescaled_final/1896_rv.mp4	0.0	367.3345410823822	
83	345.2394790649414	movie	1		244	81.0	2.5	/experiments/AOT/AOT_stimuli/rescaled_final/1896_rv.mp4	0.0	367.75056409835815	2.5002968311309814
83	346.4230580329895	pulse	1	t		81.0	2.5	/experiments/AOT/AOT_stimuli/rescaled_final/1896_rv.mp4	0.0	368.93414306640625	
83	347.7397758960724	fix_post	2		12	81.0	2.5	/experiments/AOT/AOT_stimuli/rescaled_final/1896_rv.mp4	0.0	370.25086092948914	0.10000205039978027
84	347.83977794647217	fix_pre	0		120	82.0	2.5	blank	1.0	370.3508629798889	0.9997220039367676
84	348.02325987815857	pulse	0	t		82.0	2.5	blank	1.0	370.5343449115753	
84	348.83949995040894	movie	1		300	82.0	2.5	blank	1.0	371.3505849838257	2.500370979309082
84	349.62343406677246	pulse	1	t		82.0	2.5	blank	1.0	372.1345191001892	
84	351.22346901893616	pulse	1	t		82.0	2.5	blank	1.0	373.7345540523529	
84	351.339870929718	fix_post	2		12	82.0	2.5	blank	1.0	373.85095596313477	0.10003304481506348
85	351.4399039745331	fix_pre	0		120	83.0	2.5	/experiments/AOT/AOT_stimuli/rescaled_final/1368_fw.mp4	0.0	373.95098900794983	1.0000319480895996
85	352.4399359226227	movie	1		243	83.0	2.5	/experiments/AOT/AOT_stimuli/rescaled_final/1368_fw.mp4	0.0	374.95102095603943	2.499951124191284
85	352.8232960700989	pulse	1	t		83.0	2.5	/experiments/AOT/AOT_stimuli/rescaled_final/1368_fw.mp4	0.0	375.3343811035156	
85	354.42326402664185	pulse	1	t		83.0	2.5	/experiments/AOT/AOT_stimuli/rescaled_final/1368_fw.mp4	0.0	376.9343490600586	
85	354.93988704681396	fix_post	2		12	83.0	2.5	/experiments/AOT/AOT_stimuli/rescaled_final/1368_fw.mp4	0.0	377.4509720802307	0.09999299049377441
87	355.03988003730774	stim	0		1716					377.5509650707245	14.29995584487915
87	356.0232799053192	pulse	0	t						378.53436493873596	
87	357.6232850551605	pulse	0	t						380.13437008857727	
87	359.2232789993286	pulse	0	t						381.73436403274536	
87	360.8232979774475	pulse	0	t						383.33438301086426	
87	362.4232530593872	pulse	0	t						384.93433809280396	
87	364.0233268737793	pulse	0	t						386.53441190719604	
87	365.6233320236206	pulse	0	t						388.13441705703735	
87	367.2232279777527	pulse	0	t						389.73431301116943	
87	368.82320189476013	pulse	0	t						391.3342869281769	
