trial_nr	onset	event_type	phase	response	nr_frames	movie_index	movie_duration	movie_file	blank	onset_abs	duration
0	0.14966988563537598	stim	0		10					16.120813608169556	0.08327579498291016
0	0.22492694854736328	response	0	space						16.196070671081543	
1	0.23294568061828613	stim	0		4724					16.204089403152466	39.385066986083984
1	39.6035943031311	pulse	0	t						55.57473802566528	
1	39.61801266670227	stim	1		1714					55.58915638923645	14.298016548156738
1	41.19765853881836	pulse	1	t						57.16880226135254	
1	42.79787516593933	pulse	1	t						58.76901888847351	
1	44.39813494682312	pulse	1	t						60.3692786693573	
1	45.998353719711304	pulse	1	t						61.96949744224548	
1	47.59857988357544	pulse	1	t						63.56972360610962	
1	49.198793172836304	pulse	1	t						65.16993689537048	
1	50.799073457717896	pulse	1	t						66.77021718025208	
1	52.399322509765625	pulse	1	t						68.3704662322998	
2	53.91602921485901	fix_pre	0		11	0.0	2.5	/experiments/Knapen_AOT/AOT_stimuli/rescaled_final/0699_rv.mp4	0.0	69.88717293739319	0.1083834171295166
2	53.99955105781555	pulse	0	t		0.0	2.5	/experiments/Knapen_AOT/AOT_stimuli/rescaled_final/0699_rv.mp4	0.0	69.97069478034973	
2	54.024412631988525	movie	1		283	0.0	2.5	/experiments/Knapen_AOT/AOT_stimuli/rescaled_final/0699_rv.mp4	0.0	69.9955563545227	2.4919872283935547
2	55.59839677810669	pulse	1	t		0.0	2.5	/experiments/Knapen_AOT/AOT_stimuli/rescaled_final/0699_rv.mp4	0.0	71.56954050064087	
2	56.51639986038208	fix_post	2		12	0.0	2.5	/experiments/Knapen_AOT/AOT_stimuli/rescaled_final/0699_rv.mp4	0.0	72.48754358291626	0.10003113746643066
3	56.61643099784851	fix_pre	0		120	1.0	2.5	/experiments/Knapen_AOT/AOT_stimuli/rescaled_final/1725_fw.mp4	0.0	72.58757472038269	1.0085484981536865
3	57.2001166343689	pulse	0	t		1.0	2.5	/experiments/Knapen_AOT/AOT_stimuli/rescaled_final/1725_fw.mp4	0.0	73.17126035690308	
3	57.6249794960022	movie	1		283	1.0	2.5	/experiments/Knapen_AOT/AOT_stimuli/rescaled_final/1725_fw.mp4	0.0	73.59612321853638	2.4919848442077637
3	58.798372745513916	pulse	1	t		1.0	2.5	/experiments/Knapen_AOT/AOT_stimuli/rescaled_final/1725_fw.mp4	0.0	74.7695164680481	
3	60.11696434020996	fix_post	2		12	1.0	2.5	/experiments/Knapen_AOT/AOT_stimuli/rescaled_final/1725_fw.mp4	0.0	76.08810806274414	0.10010361671447754
4	60.21706795692444	fix_pre	0		120	2.0	2.5	/experiments/Knapen_AOT/AOT_stimuli/rescaled_final/1393_fw.mp4	0.0	76.18821167945862	1.00838041305542
4	60.392719745635986	pulse	0	t		2.0	2.5	/experiments/Knapen_AOT/AOT_stimuli/rescaled_final/1393_fw.mp4	0.0	76.36386346817017	
4	61.22544836997986	movie	1		285	2.0	2.5	/experiments/Knapen_AOT/AOT_stimuli/rescaled_final/1393_fw.mp4	0.0	77.19659209251404	2.4920525550842285
4	61.99302816390991	pulse	1	t		2.0	2.5	/experiments/Knapen_AOT/AOT_stimuli/rescaled_final/1393_fw.mp4	0.0	77.96417188644409	
4	63.59279179573059	pulse	1	t		2.0	2.5	/experiments/Knapen_AOT/AOT_stimuli/rescaled_final/1393_fw.mp4	0.0	79.56393551826477	
4	63.71750092506409	fix_post	2		12	2.0	2.5	/experiments/Knapen_AOT/AOT_stimuli/rescaled_final/1393_fw.mp4	0.0	79.68864464759827	0.10000205039978027
5	63.81750297546387	fix_pre	0		120	3.0	2.5	/experiments/Knapen_AOT/AOT_stimuli/rescaled_final/1553_fw.mp4	0.0	79.78864669799805	1.0085172653198242
5	64.82602024078369	movie	1		287	3.0	2.5	/experiments/Knapen_AOT/AOT_stimuli/rescaled_final/1553_fw.mp4	0.0	80.79716396331787	2.492001533508301
5	65.19291591644287	pulse	1	t		3.0	2.5	/experiments/Knapen_AOT/AOT_stimuli/rescaled_final/1553_fw.mp4	0.0	81.16405963897705	
5	66.79318261146545	pulse	1	t		3.0	2.5	/experiments/Knapen_AOT/AOT_stimuli/rescaled_final/1553_fw.mp4	0.0	82.76432633399963	
5	67.31802177429199	fix_post	2		12	3.0	2.5	/experiments/Knapen_AOT/AOT_stimuli/rescaled_final/1553_fw.mp4	0.0	83.28916549682617	0.10002994537353516
6	67.41805171966553	fix_pre	0		118	4.0	2.5	/experiments/Knapen_AOT/AOT_stimuli/rescaled_final/1860_rv.mp4	0.0	83.3891954421997	0.9918158054351807
6	68.3934473991394	pulse	0	t		4.0	2.5	/experiments/Knapen_AOT/AOT_stimuli/rescaled_final/1860_rv.mp4	0.0	84.36459112167358	
6	68.40986752510071	movie	1		285	4.0	2.5	/experiments/Knapen_AOT/AOT_stimuli/rescaled_final/1860_rv.mp4	0.0	84.38101124763489	2.500377893447876
6	69.99380373954773	pulse	1	t		4.0	2.5	/experiments/Knapen_AOT/AOT_stimuli/rescaled_final/1860_rv.mp4	0.0	85.96494746208191	
6	70.91024541854858	fix_post	2		12	4.0	2.5	/experiments/Knapen_AOT/AOT_stimuli/rescaled_final/1860_rv.mp4	0.0	86.88138914108276	0.10002684593200684
7	71.01027226448059	fix_pre	0		120	5.0	2.5	blank	1.0	86.98141598701477	1.0001702308654785
7	71.59394836425781	pulse	0	t		5.0	2.5	blank	1.0	87.56509208679199	
7	72.01044249534607	movie	1		300	5.0	2.5	blank	1.0	87.98158621788025	2.5003490447998047
7	73.1944489479065	pulse	1	t		5.0	2.5	blank	1.0	89.16559267044067	
7	74.51079154014587	fix_post	2		12	5.0	2.5	blank	1.0	90.48193526268005	0.10001325607299805
8	74.61080479621887	fix_pre	0		120	6.0	2.5	/experiments/Knapen_AOT/AOT_stimuli/rescaled_final/0951_fw.mp4	0.0	90.58194851875305	1.0085036754608154
8	74.79436731338501	pulse	0	t		6.0	2.5	/experiments/Knapen_AOT/AOT_stimuli/rescaled_final/0951_fw.mp4	0.0	90.76551103591919	
8	75.61930847167969	movie	1		291	6.0	2.5	/experiments/Knapen_AOT/AOT_stimuli/rescaled_final/0951_fw.mp4	0.0	91.59045219421387	2.492014169692993
8	76.39250206947327	pulse	1	t		6.0	2.5	/experiments/Knapen_AOT/AOT_stimuli/rescaled_final/0951_fw.mp4	0.0	92.36364579200745	
8	77.99345278739929	pulse	1	t		6.0	2.5	/experiments/Knapen_AOT/AOT_stimuli/rescaled_final/0951_fw.mp4	0.0	93.96459650993347	
8	78.11132264137268	fix_post	2		12	6.0	2.5	/experiments/Knapen_AOT/AOT_stimuli/rescaled_final/0951_fw.mp4	0.0	94.08246636390686	0.10002326965332031
9	78.211345911026	fix_pre	0		120	7.0	2.5	/experiments/Knapen_AOT/AOT_stimuli/rescaled_final/1969_rv.mp4	0.0	94.18248963356018	1.0084764957427979
9	79.2198224067688	movie	1		285	7.0	2.5	/experiments/Knapen_AOT/AOT_stimuli/rescaled_final/1969_rv.mp4	0.0	95.19096612930298	2.4921655654907227
9	79.59340023994446	pulse	1	t		7.0	2.5	/experiments/Knapen_AOT/AOT_stimuli/rescaled_final/1969_rv.mp4	0.0	95.56454396247864	
9	81.19329023361206	pulse	1	t		7.0	2.5	/experiments/Knapen_AOT/AOT_stimuli/rescaled_final/1969_rv.mp4	0.0	97.16443395614624	
9	81.71198797225952	fix_post	2		12	7.0	2.5	/experiments/Knapen_AOT/AOT_stimuli/rescaled_final/1969_rv.mp4	0.0	97.6831316947937	0.09987354278564453
10	81.81186151504517	fix_pre	0		119	8.0	2.5	/experiments/Knapen_AOT/AOT_stimuli/rescaled_final/1687_rv.mp4	0.0	97.78300523757935	1.0002188682556152
10	82.79552054405212	pulse	0	t		8.0	2.5	/experiments/Knapen_AOT/AOT_stimuli/rescaled_final/1687_rv.mp4	0.0	98.7666642665863	
10	82.81208038330078	movie	1		279	8.0	2.5	/experiments/Knapen_AOT/AOT_stimuli/rescaled_final/1687_rv.mp4	0.0	98.78322410583496	2.5003116130828857
10	84.39449906349182	pulse	1	t		8.0	2.5	/experiments/Knapen_AOT/AOT_stimuli/rescaled_final/1687_rv.mp4	0.0	100.365642786026	
10	85.31239199638367	fix_post	2		12	8.0	2.5	/experiments/Knapen_AOT/AOT_stimuli/rescaled_final/1687_rv.mp4	0.0	101.28353571891785	0.10003495216369629
11	85.41242694854736	fix_pre	0		120	9.0	2.5	/experiments/Knapen_AOT/AOT_stimuli/rescaled_final/1683_fw.mp4	0.0	101.38357067108154	1.0085272789001465
11	85.99616885185242	pulse	0	t		9.0	2.5	/experiments/Knapen_AOT/AOT_stimuli/rescaled_final/1683_fw.mp4	0.0	101.9673125743866	
11	86.42095422744751	movie	1		274	9.0	2.5	/experiments/Knapen_AOT/AOT_stimuli/rescaled_final/1683_fw.mp4	0.0	102.39209794998169	2.4920156002044678
11	87.59454250335693	pulse	1	t		9.0	2.5	/experiments/Knapen_AOT/AOT_stimuli/rescaled_final/1683_fw.mp4	0.0	103.56568622589111	
11	88.91296982765198	fix_post	2		12	9.0	2.5	/experiments/Knapen_AOT/AOT_stimuli/rescaled_final/1683_fw.mp4	0.0	104.88411355018616	0.09998464584350586
12	89.01295447349548	fix_pre	0		120	10.0	2.5	/experiments/Knapen_AOT/AOT_stimuli/rescaled_final/0966_fw.mp4	0.0	104.98409819602966	1.0085043907165527
12	89.19648385047913	pulse	0	t		10.0	2.5	/experiments/Knapen_AOT/AOT_stimuli/rescaled_final/0966_fw.mp4	0.0	105.1676275730133	
12	90.02145886421204	movie	1		284	10.0	2.5	/experiments/Knapen_AOT/AOT_stimuli/rescaled_final/0966_fw.mp4	0.0	105.99260258674622	2.492084264755249
12	90.79439043998718	pulse	1	t		10.0	2.5	/experiments/Knapen_AOT/AOT_stimuli/rescaled_final/0966_fw.mp4	0.0	106.76553416252136	
12	92.39519429206848	pulse	1	t		10.0	2.5	/experiments/Knapen_AOT/AOT_stimuli/rescaled_final/0966_fw.mp4	0.0	108.36633801460266	
12	92.51354312896729	fix_post	2		12	10.0	2.5	/experiments/Knapen_AOT/AOT_stimuli/rescaled_final/0966_fw.mp4	0.0	108.48468685150146	0.09998369216918945
13	92.61352682113647	fix_pre	0		120	11.0	2.5	/experiments/Knapen_AOT/AOT_stimuli/rescaled_final/0746_rv.mp4	0.0	108.58467054367065	1.008488416671753
13	93.62201523780823	movie	1		275	11.0	2.5	/experiments/Knapen_AOT/AOT_stimuli/rescaled_final/0746_rv.mp4	0.0	109.59315896034241	2.4920032024383545
13	93.99603915214539	pulse	1	t		11.0	2.5	/experiments/Knapen_AOT/AOT_stimuli/rescaled_final/0746_rv.mp4	0.0	109.96718287467957	
13	95.59694743156433	pulse	1	t		11.0	2.5	/experiments/Knapen_AOT/AOT_stimuli/rescaled_final/0746_rv.mp4	0.0	111.56809115409851	
13	96.11401844024658	fix_post	2		12	11.0	2.5	/experiments/Knapen_AOT/AOT_stimuli/rescaled_final/0746_rv.mp4	0.0	112.08516216278076	0.10003995895385742
14	96.21405839920044	fix_pre	0		119	12.0	2.5	/experiments/Knapen_AOT/AOT_stimuli/rescaled_final/0673_rv.mp4	0.0	112.18520212173462	1.0001301765441895
14	97.19775676727295	pulse	0	t		12.0	2.5	/experiments/Knapen_AOT/AOT_stimuli/rescaled_final/0673_rv.mp4	0.0	113.16890048980713	
14	97.21418857574463	movie	1		286	12.0	2.5	/experiments/Knapen_AOT/AOT_stimuli/rescaled_final/0673_rv.mp4	0.0	113.18533229827881	2.5003843307495117
14	98.7966456413269	pulse	1	t		12.0	2.5	/experiments/Knapen_AOT/AOT_stimuli/rescaled_final/0673_rv.mp4	0.0	114.76778936386108	
14	99.71457290649414	fix_post	2		12	12.0	2.5	/experiments/Knapen_AOT/AOT_stimuli/rescaled_final/0673_rv.mp4	0.0	115.68571662902832	0.10008096694946289
15	99.8146538734436	fix_pre	0		120	13.0	2.5	/experiments/Knapen_AOT/AOT_stimuli/rescaled_final/1002_rv.mp4	0.0	115.78579759597778	1.0084147453308105
15	100.3982093334198	pulse	0	t		13.0	2.5	/experiments/Knapen_AOT/AOT_stimuli/rescaled_final/1002_rv.mp4	0.0	116.36935305595398	
15	100.82306861877441	movie	1		279	13.0	2.5	/experiments/Knapen_AOT/AOT_stimuli/rescaled_final/1002_rv.mp4	0.0	116.7942123413086	2.492032766342163
15	101.99668383598328	pulse	1	t		13.0	2.5	/experiments/Knapen_AOT/AOT_stimuli/rescaled_final/1002_rv.mp4	0.0	117.96782755851746	
15	103.31510138511658	fix_post	2		12	13.0	2.5	/experiments/Knapen_AOT/AOT_stimuli/rescaled_final/1002_rv.mp4	0.0	119.28624510765076	0.1000070571899414
16	103.41510844230652	fix_pre	0		120	14.0	2.5	blank	1.0	119.3862521648407	1.0001428127288818
16	103.5986659526825	pulse	0	t		14.0	2.5	blank	1.0	119.56980967521667	
16	104.4152512550354	movie	1		300	14.0	2.5	blank	1.0	120.38639497756958	2.5003833770751953
16	105.19893479347229	pulse	1	t		14.0	2.5	blank	1.0	121.17007851600647	
16	106.79916000366211	pulse	1	t		14.0	2.5	blank	1.0	122.77030372619629	
16	106.9156346321106	fix_post	2		12	14.0	2.5	blank	1.0	122.88677835464478	0.10003137588500977
17	107.0156660079956	fix_pre	0		120	15.0	2.5	/experiments/Knapen_AOT/AOT_stimuli/rescaled_final/1944_fw.mp4	0.0	122.98680973052979	1.0084850788116455
17	108.02415108680725	movie	1		280	15.0	2.5	/experiments/Knapen_AOT/AOT_stimuli/rescaled_final/1944_fw.mp4	0.0	123.99529480934143	2.492015838623047
17	108.39796590805054	pulse	1	t		15.0	2.5	/experiments/Knapen_AOT/AOT_stimuli/rescaled_final/1944_fw.mp4	0.0	124.36910963058472	
17	109.99742412567139	pulse	1	t		15.0	2.5	/experiments/Knapen_AOT/AOT_stimuli/rescaled_final/1944_fw.mp4	0.0	125.96856784820557	
17	110.5161669254303	fix_post	2		12	15.0	2.5	/experiments/Knapen_AOT/AOT_stimuli/rescaled_final/1944_fw.mp4	0.0	126.48731064796448	0.10000967979431152
18	110.61617660522461	fix_pre	0		119	16.0	2.5	/experiments/Knapen_AOT/AOT_stimuli/rescaled_final/0937_rv.mp4	0.0	126.58732032775879	1.000258207321167
18	111.59215807914734	pulse	0	t		16.0	2.5	/experiments/Knapen_AOT/AOT_stimuli/rescaled_final/0937_rv.mp4	0.0	127.56330180168152	
18	111.61643481254578	movie	1		289	16.0	2.5	/experiments/Knapen_AOT/AOT_stimuli/rescaled_final/0937_rv.mp4	0.0	127.58757853507996	2.5002877712249756
18	113.19865918159485	pulse	1	t		16.0	2.5	/experiments/Knapen_AOT/AOT_stimuli/rescaled_final/0937_rv.mp4	0.0	129.16980290412903	
18	114.11672258377075	fix_post	2		12	16.0	2.5	/experiments/Knapen_AOT/AOT_stimuli/rescaled_final/0937_rv.mp4	0.0	130.08786630630493	0.10004496574401855
19	114.21676754951477	fix_pre	0		120	17.0	2.5	/experiments/Knapen_AOT/AOT_stimuli/rescaled_final/2009_rv.mp4	0.0	130.18791127204895	1.0084490776062012
19	114.79220461845398	pulse	0	t		17.0	2.5	/experiments/Knapen_AOT/AOT_stimuli/rescaled_final/2009_rv.mp4	0.0	130.76334834098816	
19	115.22521662712097	movie	1		284	17.0	2.5	/experiments/Knapen_AOT/AOT_stimuli/rescaled_final/2009_rv.mp4	0.0	131.19636034965515	2.4920527935028076
19	116.39226961135864	pulse	1	t		17.0	2.5	/experiments/Knapen_AOT/AOT_stimuli/rescaled_final/2009_rv.mp4	0.0	132.36341333389282	
19	117.71726942062378	fix_post	2		12	17.0	2.5	/experiments/Knapen_AOT/AOT_stimuli/rescaled_final/2009_rv.mp4	0.0	133.68841314315796	0.09999752044677734
20	117.81726694107056	fix_pre	0		120	18.0	2.5	/experiments/Knapen_AOT/AOT_stimuli/rescaled_final/1857_rv.mp4	0.0	133.78841066360474	1.0085062980651855
20	117.9925446510315	pulse	0	t		18.0	2.5	/experiments/Knapen_AOT/AOT_stimuli/rescaled_final/1857_rv.mp4	0.0	133.96368837356567	
20	118.82577323913574	movie	1		278	18.0	2.5	/experiments/Knapen_AOT/AOT_stimuli/rescaled_final/1857_rv.mp4	0.0	134.79691696166992	2.4920578002929688
20	119.59307312965393	pulse	1	t		18.0	2.5	/experiments/Knapen_AOT/AOT_stimuli/rescaled_final/1857_rv.mp4	0.0	135.5642168521881	
20	121.19306087493896	pulse	1	t		18.0	2.5	/experiments/Knapen_AOT/AOT_stimuli/rescaled_final/1857_rv.mp4	0.0	137.16420459747314	
20	121.31783103942871	fix_post	2		12	18.0	2.5	/experiments/Knapen_AOT/AOT_stimuli/rescaled_final/1857_rv.mp4	0.0	137.2889747619629	0.09999489784240723
21	121.41782593727112	fix_pre	0		120	19.0	2.5	/experiments/Knapen_AOT/AOT_stimuli/rescaled_final/0039_rv.mp4	0.0	137.3889696598053	1.0084941387176514
21	122.42632007598877	movie	1		282	19.0	2.5	/experiments/Knapen_AOT/AOT_stimuli/rescaled_final/0039_rv.mp4	0.0	138.39746379852295	2.492044448852539
21	122.79342842102051	pulse	1	t		19.0	2.5	/experiments/Knapen_AOT/AOT_stimuli/rescaled_final/0039_rv.mp4	0.0	138.7645721435547	
21	124.39384984970093	pulse	1	t		19.0	2.5	/experiments/Knapen_AOT/AOT_stimuli/rescaled_final/0039_rv.mp4	0.0	140.3649935722351	
21	124.91836452484131	fix_post	2		12	19.0	2.5	/experiments/Knapen_AOT/AOT_stimuli/rescaled_final/0039_rv.mp4	0.0	140.8895082473755	0.09997868537902832
22	125.01834321022034	fix_pre	0		118	20.0	2.5	/experiments/Knapen_AOT/AOT_stimuli/rescaled_final/1690_rv.mp4	0.0	140.98948693275452	0.9918773174285889
22	125.99376511573792	pulse	0	t		20.0	2.5	/experiments/Knapen_AOT/AOT_stimuli/rescaled_final/1690_rv.mp4	0.0	141.9649088382721	
22	126.01022052764893	movie	1		285	20.0	2.5	/experiments/Knapen_AOT/AOT_stimuli/rescaled_final/1690_rv.mp4	0.0	141.9813642501831	2.500365734100342
22	127.59244418144226	pulse	1	t		20.0	2.5	/experiments/Knapen_AOT/AOT_stimuli/rescaled_final/1690_rv.mp4	0.0	143.56358790397644	
22	128.51058626174927	fix_post	2		12	20.0	2.5	/experiments/Knapen_AOT/AOT_stimuli/rescaled_final/1690_rv.mp4	0.0	144.48172998428345	0.09999942779541016
23	128.61058568954468	fix_pre	0		120	21.0	2.5	blank	1.0	144.58172941207886	1.0001342296600342
23	129.1944227218628	pulse	0	t		21.0	2.5	blank	1.0	145.16556644439697	
23	129.6107199192047	movie	1		300	21.0	2.5	blank	1.0	145.5818636417389	2.500415325164795
23	130.79479908943176	pulse	1	t		21.0	2.5	blank	1.0	146.76594281196594	
23	132.1111352443695	fix_post	2		12	21.0	2.5	blank	1.0	148.0822789669037	0.1000204086303711
24	132.21115565299988	fix_pre	0		120	22.0	2.5	/experiments/Knapen_AOT/AOT_stimuli/rescaled_final/2092_fw.mp4	0.0	148.18229937553406	1.0085697174072266
24	132.39479970932007	pulse	0	t		22.0	2.5	/experiments/Knapen_AOT/AOT_stimuli/rescaled_final/2092_fw.mp4	0.0	148.36594343185425	
24	133.2197253704071	movie	1		281	22.0	2.5	/experiments/Knapen_AOT/AOT_stimuli/rescaled_final/2092_fw.mp4	0.0	149.19086909294128	2.4918887615203857
24	133.99268651008606	pulse	1	t		22.0	2.5	/experiments/Knapen_AOT/AOT_stimuli/rescaled_final/2092_fw.mp4	0.0	149.96383023262024	
24	135.59310388565063	pulse	1	t		22.0	2.5	/experiments/Knapen_AOT/AOT_stimuli/rescaled_final/2092_fw.mp4	0.0	151.56424760818481	
24	135.7116141319275	fix_post	2		12	22.0	2.5	/experiments/Knapen_AOT/AOT_stimuli/rescaled_final/2092_fw.mp4	0.0	151.68275785446167	0.10001087188720703
25	135.8116250038147	fix_pre	0		120	23.0	2.5	/experiments/Knapen_AOT/AOT_stimuli/rescaled_final/0681_rv.mp4	0.0	151.78276872634888	1.0085711479187012
25	136.8201961517334	movie	1		268	23.0	2.5	/experiments/Knapen_AOT/AOT_stimuli/rescaled_final/0681_rv.mp4	0.0	152.79133987426758	2.4919934272766113
25	137.19399666786194	pulse	1	t		23.0	2.5	/experiments/Knapen_AOT/AOT_stimuli/rescaled_final/0681_rv.mp4	0.0	153.16514039039612	
25	138.7936725616455	pulse	1	t		23.0	2.5	/experiments/Knapen_AOT/AOT_stimuli/rescaled_final/0681_rv.mp4	0.0	154.7648162841797	
25	139.31218957901	fix_post	2		12	23.0	2.5	/experiments/Knapen_AOT/AOT_stimuli/rescaled_final/0681_rv.mp4	0.0	155.2833333015442	0.09999680519104004
26	139.41218638420105	fix_pre	0		119	24.0	2.5	/experiments/Knapen_AOT/AOT_stimuli/rescaled_final/1545_rv.mp4	0.0	155.38333010673523	1.0001583099365234
26	140.39594221115112	pulse	0	t		24.0	2.5	/experiments/Knapen_AOT/AOT_stimuli/rescaled_final/1545_rv.mp4	0.0	156.3670859336853	
26	140.41234469413757	movie	1		290	24.0	2.5	/experiments/Knapen_AOT/AOT_stimuli/rescaled_final/1545_rv.mp4	0.0	156.38348841667175	2.500354528427124
26	141.99510431289673	pulse	1	t		24.0	2.5	/experiments/Knapen_AOT/AOT_stimuli/rescaled_final/1545_rv.mp4	0.0	157.9662480354309	
26	142.9126992225647	fix_post	2		12	24.0	2.5	/experiments/Knapen_AOT/AOT_stimuli/rescaled_final/1545_rv.mp4	0.0	158.88384294509888	0.10002803802490234
27	143.0127272605896	fix_pre	0		120	25.0	2.5	/experiments/Knapen_AOT/AOT_stimuli/rescaled_final/0905_rv.mp4	0.0	158.98387098312378	1.0084731578826904
27	143.59634566307068	pulse	0	t		25.0	2.5	/experiments/Knapen_AOT/AOT_stimuli/rescaled_final/0905_rv.mp4	0.0	159.56748938560486	
27	144.0212004184723	movie	1		281	25.0	2.5	/experiments/Knapen_AOT/AOT_stimuli/rescaled_final/0905_rv.mp4	0.0	159.99234414100647	2.4920899868011475
27	145.19713425636292	pulse	1	t		25.0	2.5	/experiments/Knapen_AOT/AOT_stimuli/rescaled_final/0905_rv.mp4	0.0	161.1682779788971	
27	146.51329040527344	fix_post	2		12	25.0	2.5	/experiments/Knapen_AOT/AOT_stimuli/rescaled_final/0905_rv.mp4	0.0	162.48443412780762	0.10002517700195312
28	146.6133155822754	fix_pre	0		120	26.0	2.5	blank	1.0	162.58445930480957	1.0000836849212646
28	146.79681730270386	pulse	0	t		26.0	2.5	blank	1.0	162.76796102523804	
28	147.61339926719666	movie	1		300	26.0	2.5	blank	1.0	163.58454298973083	2.500389814376831
28	148.39707803726196	pulse	1	t		26.0	2.5	blank	1.0	164.36822175979614	
28	149.9973645210266	pulse	1	t		26.0	2.5	blank	1.0	165.9685082435608	
28	150.1137890815735	fix_post	2		12	26.0	2.5	blank	1.0	166.08493280410767	0.09999918937683105
29	150.21378827095032	fix_pre	0		120	27.0	2.5	/experiments/Knapen_AOT/AOT_stimuli/rescaled_final/1690_fw.mp4	0.0	166.1849319934845	1.0085008144378662
29	151.22228908538818	movie	1		285	27.0	2.5	/experiments/Knapen_AOT/AOT_stimuli/rescaled_final/1690_fw.mp4	0.0	167.19343280792236	2.4920308589935303
29	151.59628415107727	pulse	1	t		27.0	2.5	/experiments/Knapen_AOT/AOT_stimuli/rescaled_final/1690_fw.mp4	0.0	167.56742787361145	
29	153.1963450908661	pulse	1	t		27.0	2.5	/experiments/Knapen_AOT/AOT_stimuli/rescaled_final/1690_fw.mp4	0.0	169.16748881340027	
29	153.7143199443817	fix_post	2		12	27.0	2.5	/experiments/Knapen_AOT/AOT_stimuli/rescaled_final/1690_fw.mp4	0.0	169.6854636669159	0.1000206470489502
30	153.81434059143066	fix_pre	0		119	28.0	2.5	/experiments/Knapen_AOT/AOT_stimuli/rescaled_final/0166_fw.mp4	0.0	169.78548431396484	1.0002226829528809
30	154.79802060127258	pulse	0	t		28.0	2.5	/experiments/Knapen_AOT/AOT_stimuli/rescaled_final/0166_fw.mp4	0.0	170.76916432380676	
30	154.81456327438354	movie	1		289	28.0	2.5	/experiments/Knapen_AOT/AOT_stimuli/rescaled_final/0166_fw.mp4	0.0	170.78570699691772	2.5002963542938232
30	156.39744639396667	pulse	1	t		28.0	2.5	/experiments/Knapen_AOT/AOT_stimuli/rescaled_final/0166_fw.mp4	0.0	172.36859011650085	
30	157.31485962867737	fix_post	2		12	28.0	2.5	/experiments/Knapen_AOT/AOT_stimuli/rescaled_final/0166_fw.mp4	0.0	173.28600335121155	0.10001683235168457
31	157.41487646102905	fix_pre	0		120	29.0	2.5	/experiments/Knapen_AOT/AOT_stimuli/rescaled_final/0331_fw.mp4	0.0	173.38602018356323	1.0085177421569824
31	157.9992208480835	pulse	0	t		29.0	2.5	/experiments/Knapen_AOT/AOT_stimuli/rescaled_final/0331_fw.mp4	0.0	173.97036457061768	
31	158.42339420318604	movie	1		284	29.0	2.5	/experiments/Knapen_AOT/AOT_stimuli/rescaled_final/0331_fw.mp4	0.0	174.39453792572021	2.491997241973877
31	159.59693694114685	pulse	1	t		29.0	2.5	/experiments/Knapen_AOT/AOT_stimuli/rescaled_final/0331_fw.mp4	0.0	175.56808066368103	
31	160.9153914451599	fix_post	2		12	29.0	2.5	/experiments/Knapen_AOT/AOT_stimuli/rescaled_final/0331_fw.mp4	0.0	176.8865351676941	0.10010194778442383
32	161.01549339294434	fix_pre	0		120	30.0	2.5	/experiments/Knapen_AOT/AOT_stimuli/rescaled_final/2088_fw.mp4	0.0	176.98663711547852	1.0084631443023682
32	161.199116230011	pulse	0	t		30.0	2.5	/experiments/Knapen_AOT/AOT_stimuli/rescaled_final/2088_fw.mp4	0.0	177.17025995254517	
32	162.0239565372467	movie	1		287	30.0	2.5	/experiments/Knapen_AOT/AOT_stimuli/rescaled_final/2088_fw.mp4	0.0	177.99510025978088	2.4920144081115723
32	162.79726791381836	pulse	1	t		30.0	2.5	/experiments/Knapen_AOT/AOT_stimuli/rescaled_final/2088_fw.mp4	0.0	178.76841163635254	
32	164.39758968353271	pulse	1	t		30.0	2.5	/experiments/Knapen_AOT/AOT_stimuli/rescaled_final/2088_fw.mp4	0.0	180.3687334060669	
32	164.51597094535828	fix_post	2		12	30.0	2.5	/experiments/Knapen_AOT/AOT_stimuli/rescaled_final/2088_fw.mp4	0.0	180.48711466789246	0.10001111030578613
33	164.61598205566406	fix_pre	0		120	31.0	2.5	/experiments/Knapen_AOT/AOT_stimuli/rescaled_final/0405_fw.mp4	0.0	180.58712577819824	1.0085182189941406
33	165.6245002746582	movie	1		280	31.0	2.5	/experiments/Knapen_AOT/AOT_stimuli/rescaled_final/0405_fw.mp4	0.0	181.59564399719238	2.491992473602295
33	165.99885511398315	pulse	1	t		31.0	2.5	/experiments/Knapen_AOT/AOT_stimuli/rescaled_final/0405_fw.mp4	0.0	181.96999883651733	
33	167.6000256538391	pulse	1	t		31.0	2.5	/experiments/Knapen_AOT/AOT_stimuli/rescaled_final/0405_fw.mp4	0.0	183.5711693763733	
33	168.1164927482605	fix_post	2		12	31.0	2.5	/experiments/Knapen_AOT/AOT_stimuli/rescaled_final/0405_fw.mp4	0.0	184.08763647079468	0.10001492500305176
34	168.21650767326355	fix_pre	0		119	32.0	2.5	/experiments/Knapen_AOT/AOT_stimuli/rescaled_final/1544_fw.mp4	0.0	184.18765139579773	1.0001752376556396
34	169.2002408504486	pulse	0	t		32.0	2.5	/experiments/Knapen_AOT/AOT_stimuli/rescaled_final/1544_fw.mp4	0.0	185.1713845729828	
34	169.2166829109192	movie	1		292	32.0	2.5	/experiments/Knapen_AOT/AOT_stimuli/rescaled_final/1544_fw.mp4	0.0	185.18782663345337	2.5003440380096436
34	170.8002803325653	pulse	1	t		32.0	2.5	/experiments/Knapen_AOT/AOT_stimuli/rescaled_final/1544_fw.mp4	0.0	186.7714240550995	
34	171.71702694892883	fix_post	2		12	32.0	2.5	/experiments/Knapen_AOT/AOT_stimuli/rescaled_final/1544_fw.mp4	0.0	187.688170671463	0.10002827644348145
35	171.81705522537231	fix_pre	0		120	33.0	2.5	/experiments/Knapen_AOT/AOT_stimuli/rescaled_final/1599_fw.mp4	0.0	187.7881989479065	1.008479356765747
35	172.39273405075073	pulse	0	t		33.0	2.5	/experiments/Knapen_AOT/AOT_stimuli/rescaled_final/1599_fw.mp4	0.0	188.3638777732849	
35	172.82553458213806	movie	1		277	33.0	2.5	/experiments/Knapen_AOT/AOT_stimuli/rescaled_final/1599_fw.mp4	0.0	188.79667830467224	2.4920413494110107
35	173.9927248954773	pulse	1	t		33.0	2.5	/experiments/Knapen_AOT/AOT_stimuli/rescaled_final/1599_fw.mp4	0.0	189.96386861801147	
35	175.31757593154907	fix_post	2		12	33.0	2.5	/experiments/Knapen_AOT/AOT_stimuli/rescaled_final/1599_fw.mp4	0.0	191.28871965408325	0.10007452964782715
36	175.4176504611969	fix_pre	0		120	34.0	2.5	blank	1.0	191.38879418373108	1.0001368522644043
36	175.59291791915894	pulse	0	t		34.0	2.5	blank	1.0	191.56406164169312	
36	176.4177873134613	movie	1		300	34.0	2.5	blank	1.0	192.38893103599548	2.5003163814544678
36	177.19311428070068	pulse	1	t		34.0	2.5	blank	1.0	193.16425800323486	
36	178.79329013824463	pulse	1	t		34.0	2.5	blank	1.0	194.7644338607788	
36	178.91810369491577	fix_post	2		12	34.0	2.5	blank	1.0	194.88924741744995	0.1000368595123291
37	179.0181405544281	fix_pre	0		120	35.0	2.5	/experiments/Knapen_AOT/AOT_stimuli/rescaled_final/0505_rv.mp4	0.0	194.98928427696228	1.008500576019287
37	180.0266411304474	movie	1		280	35.0	2.5	/experiments/Knapen_AOT/AOT_stimuli/rescaled_final/0505_rv.mp4	0.0	195.99778485298157	2.4920191764831543
37	180.39359879493713	pulse	1	t		35.0	2.5	/experiments/Knapen_AOT/AOT_stimuli/rescaled_final/0505_rv.mp4	0.0	196.3647425174713	
37	181.99399995803833	pulse	1	t		35.0	2.5	/experiments/Knapen_AOT/AOT_stimuli/rescaled_final/0505_rv.mp4	0.0	197.9651436805725	
37	182.51866030693054	fix_post	2		12	35.0	2.5	/experiments/Knapen_AOT/AOT_stimuli/rescaled_final/0505_rv.mp4	0.0	198.48980402946472	0.10003781318664551
38	182.6186981201172	fix_pre	0		118	36.0	2.5	/experiments/Knapen_AOT/AOT_stimuli/rescaled_final/0392_rv.mp4	0.0	198.58984184265137	0.9917924404144287
38	183.59405159950256	pulse	0	t		36.0	2.5	/experiments/Knapen_AOT/AOT_stimuli/rescaled_final/0392_rv.mp4	0.0	199.56519532203674	
38	183.61049056053162	movie	1		280	36.0	2.5	/experiments/Knapen_AOT/AOT_stimuli/rescaled_final/0392_rv.mp4	0.0	199.5816342830658	2.5003654956817627
38	185.19319891929626	pulse	1	t		36.0	2.5	/experiments/Knapen_AOT/AOT_stimuli/rescaled_final/0392_rv.mp4	0.0	201.16434264183044	
38	186.11085605621338	fix_post	2		12	36.0	2.5	/experiments/Knapen_AOT/AOT_stimuli/rescaled_final/0392_rv.mp4	0.0	202.08199977874756	0.10001921653747559
39	186.21087527275085	fix_pre	0		120	37.0	2.5	/experiments/Knapen_AOT/AOT_stimuli/rescaled_final/0907_rv.mp4	0.0	202.18201899528503	1.0085158348083496
39	186.7946469783783	pulse	0	t		37.0	2.5	/experiments/Knapen_AOT/AOT_stimuli/rescaled_final/0907_rv.mp4	0.0	202.76579070091248	
39	187.2193911075592	movie	1		270	37.0	2.5	/experiments/Knapen_AOT/AOT_stimuli/rescaled_final/0907_rv.mp4	0.0	203.19053483009338	2.492006301879883
39	188.39491200447083	pulse	1	t		37.0	2.5	/experiments/Knapen_AOT/AOT_stimuli/rescaled_final/0907_rv.mp4	0.0	204.366055727005	
39	189.7113974094391	fix_post	2		12	37.0	2.5	/experiments/Knapen_AOT/AOT_stimuli/rescaled_final/0907_rv.mp4	0.0	205.68254113197327	0.10001730918884277
40	189.81141471862793	fix_pre	0		120	38.0	2.5	/experiments/Knapen_AOT/AOT_stimuli/rescaled_final/0820_rv.mp4	0.0	205.7825584411621	1.0085105895996094
40	189.99512481689453	pulse	0	t		38.0	2.5	/experiments/Knapen_AOT/AOT_stimuli/rescaled_final/0820_rv.mp4	0.0	205.9662685394287	
40	190.81992530822754	movie	1		289	38.0	2.5	/experiments/Knapen_AOT/AOT_stimuli/rescaled_final/0820_rv.mp4	0.0	206.79106903076172	2.4920477867126465
40	191.59323000907898	pulse	1	t		38.0	2.5	/experiments/Knapen_AOT/AOT_stimuli/rescaled_final/0820_rv.mp4	0.0	207.56437373161316	
40	193.19372415542603	pulse	1	t		38.0	2.5	/experiments/Knapen_AOT/AOT_stimuli/rescaled_final/0820_rv.mp4	0.0	209.1648678779602	
40	193.31197309494019	fix_post	2		12	38.0	2.5	/experiments/Knapen_AOT/AOT_stimuli/rescaled_final/0820_rv.mp4	0.0	209.28311681747437	0.09999775886535645
41	193.41197085380554	fix_pre	0		120	39.0	2.5	/experiments/Knapen_AOT/AOT_stimuli/rescaled_final/0067_rv.mp4	0.0	209.38311457633972	1.008500337600708
41	194.42047119140625	movie	1		285	39.0	2.5	/experiments/Knapen_AOT/AOT_stimuli/rescaled_final/0067_rv.mp4	0.0	210.39161491394043	2.4920003414154053
41	194.79391241073608	pulse	1	t		39.0	2.5	/experiments/Knapen_AOT/AOT_stimuli/rescaled_final/0067_rv.mp4	0.0	210.76505613327026	
41	196.39401721954346	pulse	1	t		39.0	2.5	/experiments/Knapen_AOT/AOT_stimuli/rescaled_final/0067_rv.mp4	0.0	212.36516094207764	
41	196.91247153282166	fix_post	2		12	39.0	2.5	/experiments/Knapen_AOT/AOT_stimuli/rescaled_final/0067_rv.mp4	0.0	212.88361525535583	0.10004305839538574
42	197.01251459121704	fix_pre	0		119	40.0	2.5	blank	1.0	212.98365831375122	0.9918560981750488
42	197.99630570411682	pulse	0	t		40.0	2.5	blank	1.0	213.967449426651	
42	198.0043706893921	movie	1		301	40.0	2.5	blank	1.0	213.97551441192627	2.5086581707000732
42	199.59645891189575	pulse	1	t		40.0	2.5	blank	1.0	215.56760263442993	
42	200.51302886009216	fix_post	2		12	40.0	2.5	blank	1.0	216.48417258262634	0.10001444816589355
43	200.61304330825806	fix_pre	0		120	41.0	2.5	/experiments/Knapen_AOT/AOT_stimuli/rescaled_final/1723_rv.mp4	0.0	216.58418703079224	1.008507490158081
43	201.19687914848328	pulse	0	t		41.0	2.5	/experiments/Knapen_AOT/AOT_stimuli/rescaled_final/1723_rv.mp4	0.0	217.16802287101746	
43	201.62155079841614	movie	1		281	41.0	2.5	/experiments/Knapen_AOT/AOT_stimuli/rescaled_final/1723_rv.mp4	0.0	217.59269452095032	2.492023229598999
43	202.795508146286	pulse	1	t		41.0	2.5	/experiments/Knapen_AOT/AOT_stimuli/rescaled_final/1723_rv.mp4	0.0	218.7666518688202	
43	204.11357402801514	fix_post	2		12	41.0	2.5	/experiments/Knapen_AOT/AOT_stimuli/rescaled_final/1723_rv.mp4	0.0	220.08471775054932	0.10000395774841309
44	204.21357798576355	fix_pre	0		120	42.0	2.5	/experiments/Knapen_AOT/AOT_stimuli/rescaled_final/2082_rv.mp4	0.0	220.18472170829773	1.0086593627929688
44	204.39745259284973	pulse	0	t		42.0	2.5	/experiments/Knapen_AOT/AOT_stimuli/rescaled_final/2082_rv.mp4	0.0	220.3685963153839	
44	205.22223734855652	movie	1		287	42.0	2.5	/experiments/Knapen_AOT/AOT_stimuli/rescaled_final/2082_rv.mp4	0.0	221.1933810710907	2.4918594360351562
44	205.99537754058838	pulse	1	t		42.0	2.5	/experiments/Knapen_AOT/AOT_stimuli/rescaled_final/2082_rv.mp4	0.0	221.96652126312256	
44	207.59575128555298	pulse	1	t		42.0	2.5	/experiments/Knapen_AOT/AOT_stimuli/rescaled_final/2082_rv.mp4	0.0	223.56689500808716	
44	207.71409678459167	fix_post	2		12	42.0	2.5	/experiments/Knapen_AOT/AOT_stimuli/rescaled_final/2082_rv.mp4	0.0	223.68524050712585	0.10003089904785156
45	207.81412768363953	fix_pre	0		120	43.0	2.5	/experiments/Knapen_AOT/AOT_stimuli/rescaled_final/1271_fw.mp4	0.0	223.7852714061737	1.0084974765777588
45	208.82262516021729	movie	1		274	43.0	2.5	/experiments/Knapen_AOT/AOT_stimuli/rescaled_final/1271_fw.mp4	0.0	224.79376888275146	2.4920198917388916
45	209.19596242904663	pulse	1	t		43.0	2.5	/experiments/Knapen_AOT/AOT_stimuli/rescaled_final/1271_fw.mp4	0.0	225.1671061515808	
45	210.79584383964539	pulse	1	t		43.0	2.5	/experiments/Knapen_AOT/AOT_stimuli/rescaled_final/1271_fw.mp4	0.0	226.76698756217957	
45	211.31464505195618	fix_post	2		12	43.0	2.5	/experiments/Knapen_AOT/AOT_stimuli/rescaled_final/1271_fw.mp4	0.0	227.28578877449036	0.10002493858337402
46	211.41466999053955	fix_pre	0		119	44.0	2.5	/experiments/Knapen_AOT/AOT_stimuli/rescaled_final/1604_fw.mp4	0.0	227.38581371307373	1.0002245903015137
46	212.39835000038147	pulse	0	t		44.0	2.5	/experiments/Knapen_AOT/AOT_stimuli/rescaled_final/1604_fw.mp4	0.0	228.36949372291565	
46	212.41489458084106	movie	1		251	44.0	2.5	/experiments/Knapen_AOT/AOT_stimuli/rescaled_final/1604_fw.mp4	0.0	228.38603830337524	2.500422716140747
46	213.99754667282104	pulse	1	t		44.0	2.5	/experiments/Knapen_AOT/AOT_stimuli/rescaled_final/1604_fw.mp4	0.0	229.96869039535522	
46	214.9153172969818	fix_post	2		12	44.0	2.5	/experiments/Knapen_AOT/AOT_stimuli/rescaled_final/1604_fw.mp4	0.0	230.886461019516	0.09989261627197266
47	215.01520991325378	fix_pre	0		120	45.0	2.5	/experiments/Knapen_AOT/AOT_stimuli/rescaled_final/0256_rv.mp4	0.0	230.98635363578796	1.008498191833496
47	215.59881830215454	pulse	0	t		45.0	2.5	/experiments/Knapen_AOT/AOT_stimuli/rescaled_final/0256_rv.mp4	0.0	231.56996202468872	
47	216.02370810508728	movie	1		258	45.0	2.5	/experiments/Knapen_AOT/AOT_stimuli/rescaled_final/0256_rv.mp4	0.0	231.99485182762146	2.5003552436828613
47	217.19709587097168	pulse	1	t		45.0	2.5	/experiments/Knapen_AOT/AOT_stimuli/rescaled_final/0256_rv.mp4	0.0	233.16823959350586	
47	218.52406334877014	fix_post	2		11	45.0	2.5	/experiments/Knapen_AOT/AOT_stimuli/rescaled_final/0256_rv.mp4	0.0	234.49520707130432	0.09168314933776855
48	218.6157464981079	fix_pre	0		120	46.0	2.5	/experiments/Knapen_AOT/AOT_stimuli/rescaled_final/0937_fw.mp4	0.0	234.5868902206421	1.0085017681121826
48	218.7994201183319	pulse	0	t		46.0	2.5	/experiments/Knapen_AOT/AOT_stimuli/rescaled_final/0937_fw.mp4	0.0	234.7705638408661	
48	219.6242482662201	movie	1		287	46.0	2.5	/experiments/Knapen_AOT/AOT_stimuli/rescaled_final/0937_fw.mp4	0.0	235.59539198875427	2.4920296669006348
48	220.39759182929993	pulse	1	t		46.0	2.5	/experiments/Knapen_AOT/AOT_stimuli/rescaled_final/0937_fw.mp4	0.0	236.3687355518341	
48	221.99798798561096	pulse	1	t		46.0	2.5	/experiments/Knapen_AOT/AOT_stimuli/rescaled_final/0937_fw.mp4	0.0	237.96913170814514	
48	222.11627793312073	fix_post	2		12	46.0	2.5	/experiments/Knapen_AOT/AOT_stimuli/rescaled_final/0937_fw.mp4	0.0	238.0874216556549	0.10001111030578613
49	222.2162890434265	fix_pre	0		120	47.0	2.5	/experiments/Knapen_AOT/AOT_stimuli/rescaled_final/1760_rv.mp4	0.0	238.1874327659607	1.0084972381591797
49	223.2247862815857	movie	1		268	47.0	2.5	/experiments/Knapen_AOT/AOT_stimuli/rescaled_final/1760_rv.mp4	0.0	239.19593000411987	2.500365972518921
49	223.60043501853943	pulse	1	t		47.0	2.5	/experiments/Knapen_AOT/AOT_stimuli/rescaled_final/1760_rv.mp4	0.0	239.5715787410736	
49	225.19825339317322	pulse	1	t		47.0	2.5	/experiments/Knapen_AOT/AOT_stimuli/rescaled_final/1760_rv.mp4	0.0	241.1693971157074	
49	225.72515225410461	fix_post	2		11	47.0	2.5	/experiments/Knapen_AOT/AOT_stimuli/rescaled_final/1760_rv.mp4	0.0	241.6962959766388	0.09168505668640137
50	225.81683731079102	fix_pre	0		119	48.0	2.5	blank	1.0	241.7879810333252	0.9917495250701904
50	226.80050706863403	pulse	0	t		48.0	2.5	blank	1.0	242.7716507911682	
50	226.8085868358612	movie	1		301	48.0	2.5	blank	1.0	242.77973055839539	2.5087711811065674
50	228.3943076133728	pulse	1	t		48.0	2.5	blank	1.0	244.36545133590698	
50	229.31735801696777	fix_post	2		12	48.0	2.5	blank	1.0	245.28850173950195	0.10001993179321289
51	229.417377948761	fix_pre	0		120	49.0	2.5	/experiments/Knapen_AOT/AOT_stimuli/rescaled_final/2091_rv.mp4	0.0	245.38852167129517	1.008460283279419
51	229.99309659004211	pulse	0	t		49.0	2.5	/experiments/Knapen_AOT/AOT_stimuli/rescaled_final/2091_rv.mp4	0.0	245.9642403125763	
51	230.4258382320404	movie	1		275	49.0	2.5	/experiments/Knapen_AOT/AOT_stimuli/rescaled_final/2091_rv.mp4	0.0	246.39698195457458	2.4920616149902344
51	231.59337902069092	pulse	1	t		49.0	2.5	/experiments/Knapen_AOT/AOT_stimuli/rescaled_final/2091_rv.mp4	0.0	247.5645227432251	
51	232.91789984703064	fix_post	2		12	49.0	2.5	/experiments/Knapen_AOT/AOT_stimuli/rescaled_final/2091_rv.mp4	0.0	248.88904356956482	0.10001301765441895
52	233.01791286468506	fix_pre	0		120	50.0	2.5	/experiments/Knapen_AOT/AOT_stimuli/rescaled_final/1752_rv.mp4	0.0	248.98905658721924	1.008521318435669
52	233.1933183670044	pulse	0	t		50.0	2.5	/experiments/Knapen_AOT/AOT_stimuli/rescaled_final/1752_rv.mp4	0.0	249.16446208953857	
52	234.02643418312073	movie	1		286	50.0	2.5	/experiments/Knapen_AOT/AOT_stimuli/rescaled_final/1752_rv.mp4	0.0	249.9975779056549	2.4920477867126465
52	234.79353189468384	pulse	1	t		50.0	2.5	/experiments/Knapen_AOT/AOT_stimuli/rescaled_final/1752_rv.mp4	0.0	250.76467561721802	
52	236.39368844032288	pulse	1	t		50.0	2.5	/experiments/Knapen_AOT/AOT_stimuli/rescaled_final/1752_rv.mp4	0.0	252.36483216285706	
52	236.51848196983337	fix_post	2		12	50.0	2.5	/experiments/Knapen_AOT/AOT_stimuli/rescaled_final/1752_rv.mp4	0.0	252.48962569236755	0.09996199607849121
53	236.61844396591187	fix_pre	0		120	51.0	2.5	/experiments/Knapen_AOT/AOT_stimuli/rescaled_final/1574_rv.mp4	0.0	252.58958768844604	1.0085601806640625
53	237.62700414657593	movie	1		284	51.0	2.5	/experiments/Knapen_AOT/AOT_stimuli/rescaled_final/1574_rv.mp4	0.0	253.5981478691101	2.4919869899749756
53	237.99418568611145	pulse	1	t		51.0	2.5	/experiments/Knapen_AOT/AOT_stimuli/rescaled_final/1574_rv.mp4	0.0	253.96532940864563	
53	239.59393978118896	pulse	1	t		51.0	2.5	/experiments/Knapen_AOT/AOT_stimuli/rescaled_final/1574_rv.mp4	0.0	255.56508350372314	
53	240.1189911365509	fix_post	2		12	51.0	2.5	/experiments/Knapen_AOT/AOT_stimuli/rescaled_final/1574_rv.mp4	0.0	256.0901348590851	0.10007214546203613
54	240.21906328201294	fix_pre	0		118	52.0	2.5	/experiments/Knapen_AOT/AOT_stimuli/rescaled_final/2082_rv.mp4	0.0	256.1902070045471	0.9917709827423096
54	241.19436025619507	pulse	0	t		52.0	2.5	/experiments/Knapen_AOT/AOT_stimuli/rescaled_final/2082_rv.mp4	0.0	257.16550397872925	
54	241.21083426475525	movie	1		283	52.0	2.5	/experiments/Knapen_AOT/AOT_stimuli/rescaled_final/2082_rv.mp4	0.0	257.18197798728943	2.5003771781921387
54	242.7931694984436	pulse	1	t		52.0	2.5	/experiments/Knapen_AOT/AOT_stimuli/rescaled_final/2082_rv.mp4	0.0	258.7643132209778	
54	243.7112114429474	fix_post	2		12	52.0	2.5	/experiments/Knapen_AOT/AOT_stimuli/rescaled_final/2082_rv.mp4	0.0	259.68235516548157	0.09998869895935059
55	243.81120014190674	fix_pre	0		120	53.0	2.5	/experiments/Knapen_AOT/AOT_stimuli/rescaled_final/0219_fw.mp4	0.0	259.7823438644409	1.0084848403930664
55	244.3949294090271	pulse	0	t		53.0	2.5	/experiments/Knapen_AOT/AOT_stimuli/rescaled_final/0219_fw.mp4	0.0	260.3660731315613	
55	244.8196849822998	movie	1		280	53.0	2.5	/experiments/Knapen_AOT/AOT_stimuli/rescaled_final/0219_fw.mp4	0.0	260.790828704834	2.4920310974121094
55	245.99414205551147	pulse	1	t		53.0	2.5	/experiments/Knapen_AOT/AOT_stimuli/rescaled_final/0219_fw.mp4	0.0	261.96528577804565	
55	247.3117160797119	fix_post	2		12	53.0	2.5	/experiments/Knapen_AOT/AOT_stimuli/rescaled_final/0219_fw.mp4	0.0	263.2828598022461	0.10003018379211426
56	247.41174626350403	fix_pre	0		120	54.0	2.5	/experiments/Knapen_AOT/AOT_stimuli/rescaled_final/2059_fw.mp4	0.0	263.3828899860382	1.0085227489471436
56	247.59532737731934	pulse	0	t		54.0	2.5	/experiments/Knapen_AOT/AOT_stimuli/rescaled_final/2059_fw.mp4	0.0	263.5664710998535	
56	248.42026901245117	movie	1		284	54.0	2.5	/experiments/Knapen_AOT/AOT_stimuli/rescaled_final/2059_fw.mp4	0.0	264.39141273498535	2.4919962882995605
56	249.19391322135925	pulse	1	t		54.0	2.5	/experiments/Knapen_AOT/AOT_stimuli/rescaled_final/2059_fw.mp4	0.0	265.16505694389343	
56	250.79365158081055	pulse	1	t		54.0	2.5	/experiments/Knapen_AOT/AOT_stimuli/rescaled_final/2059_fw.mp4	0.0	266.7647953033447	
56	250.91226530075073	fix_post	2		12	54.0	2.5	/experiments/Knapen_AOT/AOT_stimuli/rescaled_final/2059_fw.mp4	0.0	266.8834090232849	0.10003376007080078
57	251.01229906082153	fix_pre	0		120	55.0	2.5	/experiments/Knapen_AOT/AOT_stimuli/rescaled_final/0661_rv.mp4	0.0	266.9834427833557	1.0085060596466064
57	252.02080512046814	movie	1		269	55.0	2.5	/experiments/Knapen_AOT/AOT_stimuli/rescaled_final/0661_rv.mp4	0.0	267.9919488430023	2.492002010345459
57	252.39416360855103	pulse	1	t		55.0	2.5	/experiments/Knapen_AOT/AOT_stimuli/rescaled_final/0661_rv.mp4	0.0	268.3653073310852	
57	253.99687361717224	pulse	1	t		55.0	2.5	/experiments/Knapen_AOT/AOT_stimuli/rescaled_final/0661_rv.mp4	0.0	269.9680173397064	
57	254.5128071308136	fix_post	2		12	55.0	2.5	/experiments/Knapen_AOT/AOT_stimuli/rescaled_final/0661_rv.mp4	0.0	270.4839508533478	0.1000065803527832
58	254.61281371116638	fix_pre	0		119	56.0	2.5	blank	1.0	270.58395743370056	0.9917993545532227
58	255.59656882286072	pulse	0	t		56.0	2.5	blank	1.0	271.5677125453949	
58	255.6046130657196	movie	1		301	56.0	2.5	blank	1.0	271.5757567882538	2.508730173110962
58	257.1967451572418	pulse	1	t		56.0	2.5	blank	1.0	273.167888879776	
58	258.11334323883057	fix_post	2		12	56.0	2.5	blank	1.0	274.08448696136475	0.10006952285766602
59	258.21341276168823	fix_pre	0		120	57.0	2.5	/experiments/Knapen_AOT/AOT_stimuli/rescaled_final/1115_rv.mp4	0.0	274.1845564842224	1.008455514907837
59	258.7970805168152	pulse	0	t		57.0	2.5	/experiments/Knapen_AOT/AOT_stimuli/rescaled_final/1115_rv.mp4	0.0	274.76822423934937	
59	259.22186827659607	movie	1		267	57.0	2.5	/experiments/Knapen_AOT/AOT_stimuli/rescaled_final/1115_rv.mp4	0.0	275.19301199913025	2.4920241832733154
59	260.3984582424164	pulse	1	t		57.0	2.5	/experiments/Knapen_AOT/AOT_stimuli/rescaled_final/1115_rv.mp4	0.0	276.36960196495056	
59	261.7138924598694	fix_post	2		12	57.0	2.5	/experiments/Knapen_AOT/AOT_stimuli/rescaled_final/1115_rv.mp4	0.0	277.68503618240356	0.10004782676696777
60	261.81394028663635	fix_pre	0		120	58.0	2.5	/experiments/Knapen_AOT/AOT_stimuli/rescaled_final/0681_rv.mp4	0.0	277.78508400917053	1.0084702968597412
60	261.99762415885925	pulse	0	t		58.0	2.5	/experiments/Knapen_AOT/AOT_stimuli/rescaled_final/0681_rv.mp4	0.0	277.96876788139343	
60	262.8224105834961	movie	1		290	58.0	2.5	/experiments/Knapen_AOT/AOT_stimuli/rescaled_final/0681_rv.mp4	0.0	278.7935543060303	2.49202299118042
60	263.59591794013977	pulse	1	t		58.0	2.5	/experiments/Knapen_AOT/AOT_stimuli/rescaled_final/0681_rv.mp4	0.0	279.56706166267395	
60	265.19616746902466	pulse	1	t		58.0	2.5	/experiments/Knapen_AOT/AOT_stimuli/rescaled_final/0681_rv.mp4	0.0	281.16731119155884	
60	265.3144335746765	fix_post	2		12	58.0	2.5	/experiments/Knapen_AOT/AOT_stimuli/rescaled_final/0681_rv.mp4	0.0	281.2855772972107	0.10003399848937988
61	265.4144675731659	fix_pre	0		120	59.0	2.5	/experiments/Knapen_AOT/AOT_stimuli/rescaled_final/1705_fw.mp4	0.0	281.3856112957001	1.0084848403930664
61	266.42295241355896	movie	1		274	59.0	2.5	/experiments/Knapen_AOT/AOT_stimuli/rescaled_final/1705_fw.mp4	0.0	282.39409613609314	2.492098331451416
61	266.7965941429138	pulse	1	t		59.0	2.5	/experiments/Knapen_AOT/AOT_stimuli/rescaled_final/1705_fw.mp4	0.0	282.767737865448	
61	268.3972980976105	pulse	1	t		59.0	2.5	/experiments/Knapen_AOT/AOT_stimuli/rescaled_final/1705_fw.mp4	0.0	284.36844182014465	
61	268.9150507450104	fix_post	2		12	59.0	2.5	/experiments/Knapen_AOT/AOT_stimuli/rescaled_final/1705_fw.mp4	0.0	284.88619446754456	0.09995627403259277
62	269.01500701904297	fix_pre	0		119	60.0	2.5	/experiments/Knapen_AOT/AOT_stimuli/rescaled_final/0232_rv.mp4	0.0	284.98615074157715	1.0086555480957031
62	269.9988763332367	pulse	0	t		60.0	2.5	/experiments/Knapen_AOT/AOT_stimuli/rescaled_final/0232_rv.mp4	0.0	285.9700200557709	
62	270.0236625671387	movie	1		274	60.0	2.5	/experiments/Knapen_AOT/AOT_stimuli/rescaled_final/0232_rv.mp4	0.0	285.99480628967285	2.4918439388275146
62	271.5975868701935	pulse	1	t		60.0	2.5	/experiments/Knapen_AOT/AOT_stimuli/rescaled_final/0232_rv.mp4	0.0	287.56873059272766	
62	272.5155065059662	fix_post	2		12	60.0	2.5	/experiments/Knapen_AOT/AOT_stimuli/rescaled_final/0232_rv.mp4	0.0	288.48665022850037	0.10004782676696777
63	272.61555433273315	fix_pre	0		120	61.0	2.5	/experiments/Knapen_AOT/AOT_stimuli/rescaled_final/1727_rv.mp4	0.0	288.58669805526733	1.00856614112854
63	273.19962096214294	pulse	0	t		61.0	2.5	/experiments/Knapen_AOT/AOT_stimuli/rescaled_final/1727_rv.mp4	0.0	289.1707646846771	
63	273.6241204738617	movie	1		287	61.0	2.5	/experiments/Knapen_AOT/AOT_stimuli/rescaled_final/1727_rv.mp4	0.0	289.5952641963959	2.4919662475585938
63	274.7979190349579	pulse	1	t		61.0	2.5	/experiments/Knapen_AOT/AOT_stimuli/rescaled_final/1727_rv.mp4	0.0	290.76906275749207	
63	276.1160867214203	fix_post	2		12	61.0	2.5	/experiments/Knapen_AOT/AOT_stimuli/rescaled_final/1727_rv.mp4	0.0	292.08723044395447	0.10001730918884277
64	276.21610403060913	fix_pre	0		120	62.0	2.5	/experiments/Knapen_AOT/AOT_stimuli/rescaled_final/2047_fw.mp4	0.0	292.1872477531433	1.0084800720214844
64	276.3926248550415	pulse	0	t		62.0	2.5	/experiments/Knapen_AOT/AOT_stimuli/rescaled_final/2047_fw.mp4	0.0	292.3637685775757	
64	277.2245841026306	movie	1		283	62.0	2.5	/experiments/Knapen_AOT/AOT_stimuli/rescaled_final/2047_fw.mp4	0.0	293.1957278251648	2.4921469688415527
64	277.9982898235321	pulse	1	t		62.0	2.5	/experiments/Knapen_AOT/AOT_stimuli/rescaled_final/2047_fw.mp4	0.0	293.9694335460663	
64	279.5979902744293	pulse	1	t		62.0	2.5	/experiments/Knapen_AOT/AOT_stimuli/rescaled_final/2047_fw.mp4	0.0	295.5691339969635	
64	279.71673107147217	fix_post	2		12	62.0	2.5	/experiments/Knapen_AOT/AOT_stimuli/rescaled_final/2047_fw.mp4	0.0	295.68787479400635	0.09994292259216309
65	279.81667399406433	fix_pre	0		120	63.0	2.5	blank	1.0	295.7878177165985	1.0000886917114258
65	280.81676268577576	movie	1		300	63.0	2.5	blank	1.0	296.78790640830994	2.500349760055542
65	281.1926238536835	pulse	1	t		63.0	2.5	blank	1.0	297.16376757621765	
65	282.7924642562866	pulse	1	t		63.0	2.5	blank	1.0	298.7636079788208	
65	283.3171124458313	fix_post	2		12	63.0	2.5	blank	1.0	299.2882561683655	0.10004925727844238
66	283.41716170310974	fix_pre	0		118	64.0	2.5	/experiments/Knapen_AOT/AOT_stimuli/rescaled_final/2059_rv.mp4	0.0	299.3883054256439	0.9918160438537598
66	284.3926146030426	pulse	0	t		64.0	2.5	/experiments/Knapen_AOT/AOT_stimuli/rescaled_final/2059_rv.mp4	0.0	300.3637583255768	
66	284.4089777469635	movie	1		283	64.0	2.5	/experiments/Knapen_AOT/AOT_stimuli/rescaled_final/2059_rv.mp4	0.0	300.3801214694977	2.500344753265381
66	285.99297976493835	pulse	1	t		64.0	2.5	/experiments/Knapen_AOT/AOT_stimuli/rescaled_final/2059_rv.mp4	0.0	301.96412348747253	
66	286.9093225002289	fix_post	2		12	64.0	2.5	/experiments/Knapen_AOT/AOT_stimuli/rescaled_final/2059_rv.mp4	0.0	302.88046622276306	0.10006189346313477
67	287.009384393692	fix_pre	0		120	65.0	2.5	/experiments/Knapen_AOT/AOT_stimuli/rescaled_final/0166_fw.mp4	0.0	302.9805281162262	1.008429765701294
67	287.5931353569031	pulse	0	t		65.0	2.5	/experiments/Knapen_AOT/AOT_stimuli/rescaled_final/0166_fw.mp4	0.0	303.56427907943726	
67	288.0178141593933	movie	1		284	65.0	2.5	/experiments/Knapen_AOT/AOT_stimuli/rescaled_final/0166_fw.mp4	0.0	303.9889578819275	2.492056131362915
67	289.1934950351715	pulse	1	t		65.0	2.5	/experiments/Knapen_AOT/AOT_stimuli/rescaled_final/0166_fw.mp4	0.0	305.1646387577057	
67	290.5098702907562	fix_post	2		12	65.0	2.5	/experiments/Knapen_AOT/AOT_stimuli/rescaled_final/0166_fw.mp4	0.0	306.4810140132904	0.10002708435058594
68	290.6098973751068	fix_pre	0		120	66.0	2.5	/experiments/Knapen_AOT/AOT_stimuli/rescaled_final/1768_fw.mp4	0.0	306.581041097641	1.0085475444793701
68	290.79362320899963	pulse	0	t		66.0	2.5	/experiments/Knapen_AOT/AOT_stimuli/rescaled_final/1768_fw.mp4	0.0	306.7647669315338	
68	291.6184449195862	movie	1		278	66.0	2.5	/experiments/Knapen_AOT/AOT_stimuli/rescaled_final/1768_fw.mp4	0.0	307.58958864212036	2.491971492767334
68	292.39372062683105	pulse	1	t		66.0	2.5	/experiments/Knapen_AOT/AOT_stimuli/rescaled_final/1768_fw.mp4	0.0	308.36486434936523	
68	293.99410700798035	pulse	1	t		66.0	2.5	/experiments/Knapen_AOT/AOT_stimuli/rescaled_final/1768_fw.mp4	0.0	309.9652507305145	
68	294.1104164123535	fix_post	2		12	66.0	2.5	/experiments/Knapen_AOT/AOT_stimuli/rescaled_final/1768_fw.mp4	0.0	310.0815601348877	0.10005331039428711
69	294.2104697227478	fix_pre	0		120	67.0	2.5	/experiments/Knapen_AOT/AOT_stimuli/rescaled_final/0951_rv.mp4	0.0	310.181613445282	1.008455753326416
69	295.2189254760742	movie	1		274	67.0	2.5	/experiments/Knapen_AOT/AOT_stimuli/rescaled_final/0951_rv.mp4	0.0	311.1900691986084	2.4920573234558105
69	295.5932490825653	pulse	1	t		67.0	2.5	/experiments/Knapen_AOT/AOT_stimuli/rescaled_final/0951_rv.mp4	0.0	311.5643928050995	
69	297.19263648986816	pulse	1	t		67.0	2.5	/experiments/Knapen_AOT/AOT_stimuli/rescaled_final/0951_rv.mp4	0.0	313.16378021240234	
69	297.71098279953003	fix_post	2		12	67.0	2.5	/experiments/Knapen_AOT/AOT_stimuli/rescaled_final/0951_rv.mp4	0.0	313.6821265220642	0.1000967025756836
70	297.8110795021057	fix_pre	0		119	68.0	2.5	blank	1.0	313.7822232246399	0.9916729927062988
70	298.79473185539246	pulse	0	t		68.0	2.5	blank	1.0	314.76587557792664	
70	298.802752494812	movie	1		301	68.0	2.5	blank	1.0	314.7738962173462	2.5087552070617676
70	300.39516949653625	pulse	1	t		68.0	2.5	blank	1.0	316.36631321907043	
70	301.3115077018738	fix_post	2		12	68.0	2.5	blank	1.0	317.28265142440796	0.10016942024230957
71	301.4116771221161	fix_pre	0		120	69.0	2.5	/experiments/Knapen_AOT/AOT_stimuli/rescaled_final/0820_fw.mp4	0.0	317.38282084465027	1.0084340572357178
71	301.995308637619	pulse	0	t		69.0	2.5	/experiments/Knapen_AOT/AOT_stimuli/rescaled_final/0820_fw.mp4	0.0	317.9664523601532	
71	302.4201111793518	movie	1		275	69.0	2.5	/experiments/Knapen_AOT/AOT_stimuli/rescaled_final/0820_fw.mp4	0.0	318.391254901886	2.4919307231903076
71	303.5938255786896	pulse	1	t		69.0	2.5	/experiments/Knapen_AOT/AOT_stimuli/rescaled_final/0820_fw.mp4	0.0	319.56496930122375	
71	304.9120419025421	fix_post	2		12	69.0	2.5	/experiments/Knapen_AOT/AOT_stimuli/rescaled_final/0820_fw.mp4	0.0	320.8831856250763	0.10003447532653809
72	305.01207637786865	fix_pre	0		120	70.0	2.5	/experiments/Knapen_AOT/AOT_stimuli/rescaled_final/0358_fw.mp4	0.0	320.98322010040283	1.0084826946258545
72	305.19560837745667	pulse	0	t		70.0	2.5	/experiments/Knapen_AOT/AOT_stimuli/rescaled_final/0358_fw.mp4	0.0	321.16675209999084	
72	306.0205590724945	movie	1		267	70.0	2.5	/experiments/Knapen_AOT/AOT_stimuli/rescaled_final/0358_fw.mp4	0.0	321.9917027950287	2.4921164512634277
72	306.7935302257538	pulse	1	t		70.0	2.5	/experiments/Knapen_AOT/AOT_stimuli/rescaled_final/0358_fw.mp4	0.0	322.76467394828796	
72	308.3942811489105	pulse	1	t		70.0	2.5	/experiments/Knapen_AOT/AOT_stimuli/rescaled_final/0358_fw.mp4	0.0	324.3654248714447	
72	308.51267552375793	fix_post	2		12	70.0	2.5	/experiments/Knapen_AOT/AOT_stimuli/rescaled_final/0358_fw.mp4	0.0	324.4838192462921	0.09991264343261719
73	308.61258816719055	fix_pre	0		120	71.0	2.5	/experiments/Knapen_AOT/AOT_stimuli/rescaled_final/0746_rv.mp4	0.0	324.58373188972473	1.008516550064087
73	309.62110471725464	movie	1		273	71.0	2.5	/experiments/Knapen_AOT/AOT_stimuli/rescaled_final/0746_rv.mp4	0.0	325.5922484397888	2.4920437335968018
73	309.99625873565674	pulse	1	t		71.0	2.5	/experiments/Knapen_AOT/AOT_stimuli/rescaled_final/0746_rv.mp4	0.0	325.9674024581909	
73	311.5944437980652	pulse	1	t		71.0	2.5	/experiments/Knapen_AOT/AOT_stimuli/rescaled_final/0746_rv.mp4	0.0	327.56558752059937	
73	312.11314845085144	fix_post	2		12	71.0	2.5	/experiments/Knapen_AOT/AOT_stimuli/rescaled_final/0746_rv.mp4	0.0	328.0842921733856	0.1000518798828125
74	312.21320033073425	fix_pre	0		119	72.0	2.5	/experiments/Knapen_AOT/AOT_stimuli/rescaled_final/1760_rv.mp4	0.0	328.18434405326843	1.0001881122589111
74	313.1968755722046	pulse	0	t		72.0	2.5	/experiments/Knapen_AOT/AOT_stimuli/rescaled_final/1760_rv.mp4	0.0	329.16801929473877	
74	313.21338844299316	movie	1		280	72.0	2.5	/experiments/Knapen_AOT/AOT_stimuli/rescaled_final/1760_rv.mp4	0.0	329.18453216552734	2.500267267227173
74	314.7966103553772	pulse	1	t		72.0	2.5	/experiments/Knapen_AOT/AOT_stimuli/rescaled_final/1760_rv.mp4	0.0	330.7677540779114	
74	315.71365571022034	fix_post	2		12	72.0	2.5	/experiments/Knapen_AOT/AOT_stimuli/rescaled_final/1760_rv.mp4	0.0	331.6847994327545	0.10002946853637695
75	315.8136851787567	fix_pre	0		120	73.0	2.5	/experiments/Knapen_AOT/AOT_stimuli/rescaled_final/1723_fw.mp4	0.0	331.7848289012909	1.0085327625274658
75	316.3975627422333	pulse	0	t		73.0	2.5	/experiments/Knapen_AOT/AOT_stimuli/rescaled_final/1723_fw.mp4	0.0	332.36870646476746	
75	316.8222179412842	movie	1		262	73.0	2.5	/experiments/Knapen_AOT/AOT_stimuli/rescaled_final/1723_fw.mp4	0.0	332.79336166381836	2.492039203643799
75	317.9955654144287	pulse	1	t		73.0	2.5	/experiments/Knapen_AOT/AOT_stimuli/rescaled_final/1723_fw.mp4	0.0	333.9667091369629	
75	319.314257144928	fix_post	2		12	73.0	2.5	/experiments/Knapen_AOT/AOT_stimuli/rescaled_final/1723_fw.mp4	0.0	335.28540086746216	0.09998583793640137
76	319.4142429828644	fix_pre	0		120	74.0	2.5	/experiments/Knapen_AOT/AOT_stimuli/rescaled_final/1864_rv.mp4	0.0	335.38538670539856	1.0085811614990234
76	319.59785079956055	pulse	0	t		74.0	2.5	/experiments/Knapen_AOT/AOT_stimuli/rescaled_final/1864_rv.mp4	0.0	335.5689945220947	
76	320.4228241443634	movie	1		272	74.0	2.5	/experiments/Knapen_AOT/AOT_stimuli/rescaled_final/1864_rv.mp4	0.0	336.3939678668976	2.4919791221618652
76	321.19585633277893	pulse	1	t		74.0	2.5	/experiments/Knapen_AOT/AOT_stimuli/rescaled_final/1864_rv.mp4	0.0	337.1670000553131	
76	322.79622745513916	pulse	1	t		74.0	2.5	/experiments/Knapen_AOT/AOT_stimuli/rescaled_final/1864_rv.mp4	0.0	338.76737117767334	
76	322.91480326652527	fix_post	2		12	74.0	2.5	/experiments/Knapen_AOT/AOT_stimuli/rescaled_final/1864_rv.mp4	0.0	338.88594698905945	0.09999847412109375
77	323.01480174064636	fix_pre	0		120	75.0	2.5	/experiments/Knapen_AOT/AOT_stimuli/rescaled_final/0951_fw.mp4	0.0	338.98594546318054	1.0084776878356934
77	324.02327942848206	movie	1		268	75.0	2.5	/experiments/Knapen_AOT/AOT_stimuli/rescaled_final/0951_fw.mp4	0.0	339.99442315101624	2.492014169692993
77	324.39884185791016	pulse	1	t		75.0	2.5	/experiments/Knapen_AOT/AOT_stimuli/rescaled_final/0951_fw.mp4	0.0	340.36998558044434	
77	325.99654483795166	pulse	1	t		75.0	2.5	/experiments/Knapen_AOT/AOT_stimuli/rescaled_final/0951_fw.mp4	0.0	341.96768856048584	
77	326.51529359817505	fix_post	2		12	75.0	2.5	/experiments/Knapen_AOT/AOT_stimuli/rescaled_final/0951_fw.mp4	0.0	342.48643732070923	0.1000359058380127
78	326.61532950401306	fix_pre	0		119	76.0	2.5	/experiments/Knapen_AOT/AOT_stimuli/rescaled_final/1610_rv.mp4	0.0	342.58647322654724	1.0000839233398438
78	327.5990924835205	pulse	0	t		76.0	2.5	/experiments/Knapen_AOT/AOT_stimuli/rescaled_final/1610_rv.mp4	0.0	343.5702362060547	
78	327.6154134273529	movie	1		287	76.0	2.5	/experiments/Knapen_AOT/AOT_stimuli/rescaled_final/1610_rv.mp4	0.0	343.5865571498871	2.5004818439483643
78	329.19793701171875	pulse	1	t		76.0	2.5	/experiments/Knapen_AOT/AOT_stimuli/rescaled_final/1610_rv.mp4	0.0	345.16908073425293	
78	330.11589527130127	fix_post	2		12	76.0	2.5	/experiments/Knapen_AOT/AOT_stimuli/rescaled_final/1610_rv.mp4	0.0	346.08703899383545	0.09995245933532715
79	330.2158477306366	fix_pre	0		120	77.0	2.5	blank	1.0	346.1869914531708	1.0001683235168457
79	330.7995607852936	pulse	0	t		77.0	2.5	blank	1.0	346.77070450782776	
79	331.21601605415344	movie	1		300	77.0	2.5	blank	1.0	347.1871597766876	2.5003821849823
79	332.39979100227356	pulse	1	t		77.0	2.5	blank	1.0	348.37093472480774	
79	333.71639823913574	fix_post	2		12	77.0	2.5	blank	1.0	349.6875419616699	0.10006141662597656
80	333.8164596557617	fix_pre	0		120	78.0	2.5	/experiments/Knapen_AOT/AOT_stimuli/rescaled_final/1705_fw.mp4	0.0	349.7876033782959	1.0084185600280762
80	333.9929506778717	pulse	0	t		78.0	2.5	/experiments/Knapen_AOT/AOT_stimuli/rescaled_final/1705_fw.mp4	0.0	349.9640944004059	
80	334.8248782157898	movie	1		276	78.0	2.5	/experiments/Knapen_AOT/AOT_stimuli/rescaled_final/1705_fw.mp4	0.0	350.796021938324	2.492053747177124
80	335.5983202457428	pulse	1	t		78.0	2.5	/experiments/Knapen_AOT/AOT_stimuli/rescaled_final/1705_fw.mp4	0.0	351.569463968277	
80	337.19856882095337	pulse	1	t		78.0	2.5	/experiments/Knapen_AOT/AOT_stimuli/rescaled_final/1705_fw.mp4	0.0	353.16971254348755	
80	337.3169319629669	fix_post	2		12	78.0	2.5	/experiments/Knapen_AOT/AOT_stimuli/rescaled_final/1705_fw.mp4	0.0	353.2880756855011	0.10001325607299805
81	337.4169452190399	fix_pre	0		120	79.0	2.5	/experiments/Knapen_AOT/AOT_stimuli/rescaled_final/1771_rv.mp4	0.0	353.3880889415741	1.0085456371307373
81	338.42549085617065	movie	1		279	79.0	2.5	/experiments/Knapen_AOT/AOT_stimuli/rescaled_final/1771_rv.mp4	0.0	354.39663457870483	2.491978645324707
81	338.80009365081787	pulse	1	t		79.0	2.5	/experiments/Knapen_AOT/AOT_stimuli/rescaled_final/1771_rv.mp4	0.0	354.77123737335205	
81	340.4014389514923	pulse	1	t		79.0	2.5	/experiments/Knapen_AOT/AOT_stimuli/rescaled_final/1771_rv.mp4	0.0	356.3725826740265	
81	340.91746950149536	fix_post	2		12	79.0	2.5	/experiments/Knapen_AOT/AOT_stimuli/rescaled_final/1771_rv.mp4	0.0	356.88861322402954	0.10004854202270508
82	341.01751804351807	fix_pre	0		118	80.0	2.5	/experiments/Knapen_AOT/AOT_stimuli/rescaled_final/1248_fw.mp4	0.0	356.98866176605225	0.9917807579040527
82	341.99291801452637	pulse	0	t		80.0	2.5	/experiments/Knapen_AOT/AOT_stimuli/rescaled_final/1248_fw.mp4	0.0	357.96406173706055	
82	342.0092988014221	movie	1		291	80.0	2.5	/experiments/Knapen_AOT/AOT_stimuli/rescaled_final/1248_fw.mp4	0.0	357.9804425239563	2.50032114982605
82	343.59312200546265	pulse	1	t		80.0	2.5	/experiments/Knapen_AOT/AOT_stimuli/rescaled_final/1248_fw.mp4	0.0	359.5642657279968	
82	344.50961995124817	fix_post	2		12	80.0	2.5	/experiments/Knapen_AOT/AOT_stimuli/rescaled_final/1248_fw.mp4	0.0	360.48076367378235	0.10002660751342773
83	344.6096465587616	fix_pre	0		120	81.0	2.5	/experiments/Knapen_AOT/AOT_stimuli/rescaled_final/1531_rv.mp4	0.0	360.5807902812958	1.0085198879241943
83	345.19366097450256	pulse	0	t		81.0	2.5	/experiments/Knapen_AOT/AOT_stimuli/rescaled_final/1531_rv.mp4	0.0	361.16480469703674	
83	345.6181664466858	movie	1		290	81.0	2.5	/experiments/Knapen_AOT/AOT_stimuli/rescaled_final/1531_rv.mp4	0.0	361.58931016921997	2.492016077041626
83	346.79351234436035	pulse	1	t		81.0	2.5	/experiments/Knapen_AOT/AOT_stimuli/rescaled_final/1531_rv.mp4	0.0	362.76465606689453	
83	348.1101825237274	fix_post	2		12	81.0	2.5	/experiments/Knapen_AOT/AOT_stimuli/rescaled_final/1531_rv.mp4	0.0	364.0813262462616	0.10013246536254883
84	348.21031498908997	fix_pre	0		120	82.0	2.5	blank	1.0	364.18145871162415	1.0000402927398682
84	348.3940794467926	pulse	0	t		82.0	2.5	blank	1.0	364.3652231693268	
84	349.21035528182983	movie	1		300	82.0	2.5	blank	1.0	365.181499004364	2.5004281997680664
84	349.9942455291748	pulse	1	t		82.0	2.5	blank	1.0	365.965389251709	
84	351.5948407649994	pulse	1	t		82.0	2.5	blank	1.0	367.56598448753357	
84	351.7107834815979	fix_post	2		12	82.0	2.5	blank	1.0	367.6819272041321	0.10000061988830566
85	351.8107841014862	fix_pre	0		120	83.0	2.5	/experiments/Knapen_AOT/AOT_stimuli/rescaled_final/1179_fw.mp4	0.0	367.7819278240204	1.0084619522094727
85	352.8192460536957	movie	1		267	83.0	2.5	/experiments/Knapen_AOT/AOT_stimuli/rescaled_final/1179_fw.mp4	0.0	368.79038977622986	2.4921441078186035
85	353.19311141967773	pulse	1	t		83.0	2.5	/experiments/Knapen_AOT/AOT_stimuli/rescaled_final/1179_fw.mp4	0.0	369.1642551422119	
85	354.79327392578125	pulse	1	t		83.0	2.5	/experiments/Knapen_AOT/AOT_stimuli/rescaled_final/1179_fw.mp4	0.0	370.76441764831543	
85	355.3113901615143	fix_post	2		12	83.0	2.5	/experiments/Knapen_AOT/AOT_stimuli/rescaled_final/1179_fw.mp4	0.0	371.28253388404846	0.10010504722595215
87	355.41149520874023	stim	0		1715					371.3826389312744	14.293612003326416
87	356.39511275291443	pulse	0	t						372.3662564754486	
87	357.9953169822693	pulse	0	t						373.96646070480347	
87	359.5955023765564	pulse	0	t						375.5666460990906	
87	361.1957657337189	pulse	0	t						377.16690945625305	
87	362.7961423397064	pulse	0	t						378.7672860622406	
87	364.39618277549744	pulse	0	t						380.3673264980316	
87	365.9965453147888	pulse	0	t						381.967689037323	
87	367.59665989875793	pulse	0	t						383.5678036212921	
87	369.19695472717285	pulse	0	t						385.16809844970703	
