trial_nr	onset	event_type	phase	response	nr_frames	movie_index	movie_duration	movie_file	blank	onset_abs	duration
0	0.1582798957824707	stim	0		26					21.529088973999023	0.2166919708251953
0	0.3669869899749756	response	0	space						21.73779606819153	
1	0.374971866607666	stim	0		4858					21.74578094482422	40.48314595222473
1	40.84739089012146	pulse	0	t						62.21819996833801	
1	40.8581178188324	stim	1		1717					62.22892689704895	14.308290004730225
1	42.44237804412842	pulse	1	t						63.81318712234497	
1	44.042258977890015	pulse	1	t						65.41306805610657	
1	45.641525983810425	pulse	1	t						67.01233506202698	
1	47.24162793159485	pulse	1	t						68.6124370098114	
1	48.84144592285156	pulse	1	t						70.21225500106812	
1	50.442288875579834	pulse	1	t						71.81309795379639	
1	52.0423309803009	pulse	1	t						73.41314005851746	
1	53.64232587814331	pulse	1	t						75.01313495635986	
2	55.16640782356262	fix_pre	0		11	0.0	2.5	/experiments/AOT/AOT_stimuli/rescaled_final/1521_fw.mp4	0.0	76.53721690177917	0.0915842056274414
2	55.2423620223999	pulse	0	t		0.0	2.5	/experiments/AOT/AOT_stimuli/rescaled_final/1521_fw.mp4	0.0	76.61317110061646	
2	55.25799202919006	movie	1		246	0.0	2.5	/experiments/AOT/AOT_stimuli/rescaled_final/1521_fw.mp4	0.0	76.62880110740662	2.508420944213867
2	56.84981083869934	pulse	1	t		0.0	2.5	/experiments/AOT/AOT_stimuli/rescaled_final/1521_fw.mp4	0.0	78.2206199169159	
2	57.76641297340393	fix_post	2		12	0.0	2.5	/experiments/AOT/AOT_stimuli/rescaled_final/1521_fw.mp4	0.0	79.13722205162048	0.09998798370361328
3	57.866400957107544	fix_pre	0		120	1.0	2.5	/experiments/AOT/AOT_stimuli/rescaled_final/0988_fw.mp4	0.0	79.2372100353241	1.000006914138794
3	58.44237804412842	pulse	0	t		1.0	2.5	/experiments/AOT/AOT_stimuli/rescaled_final/0988_fw.mp4	0.0	79.81318712234497	
3	58.86640787124634	movie	1		245	1.0	2.5	/experiments/AOT/AOT_stimuli/rescaled_final/0988_fw.mp4	0.0	80.23721694946289	2.499943971633911
3	60.050102949142456	pulse	1	t		1.0	2.5	/experiments/AOT/AOT_stimuli/rescaled_final/0988_fw.mp4	0.0	81.42091202735901	
3	61.36635184288025	fix_post	2		12	1.0	2.5	/experiments/AOT/AOT_stimuli/rescaled_final/0988_fw.mp4	0.0	82.7371609210968	0.10004711151123047
4	61.46639895439148	fix_pre	0		120	2.0	2.5	/experiments/AOT/AOT_stimuli/rescaled_final/1241_fw.mp4	0.0	82.83720803260803	1.0002210140228271
4	61.6419780254364	pulse	0	t		2.0	2.5	/experiments/AOT/AOT_stimuli/rescaled_final/1241_fw.mp4	0.0	83.01278710365295	
4	62.46661996841431	movie	1		245	2.0	2.5	/experiments/AOT/AOT_stimuli/rescaled_final/1241_fw.mp4	0.0	83.83742904663086	2.4997458457946777
4	63.241681814193726	pulse	1	t		2.0	2.5	/experiments/AOT/AOT_stimuli/rescaled_final/1241_fw.mp4	0.0	84.61249089241028	
4	64.841472864151	pulse	1	t		2.0	2.5	/experiments/AOT/AOT_stimuli/rescaled_final/1241_fw.mp4	0.0	86.21228194236755	
4	64.96636581420898	fix_post	2		12	2.0	2.5	/experiments/AOT/AOT_stimuli/rescaled_final/1241_fw.mp4	0.0	86.33717489242554	0.10001516342163086
5	65.06638097763062	fix_pre	0		120	3.0	2.5	/experiments/AOT/AOT_stimuli/rescaled_final/0103_fw.mp4	0.0	86.43719005584717	0.9994668960571289
5	66.06584787368774	movie	1		244	3.0	2.5	/experiments/AOT/AOT_stimuli/rescaled_final/0103_fw.mp4	0.0	87.4366569519043	2.5005531311035156
5	66.44936203956604	pulse	1	t		3.0	2.5	/experiments/AOT/AOT_stimuli/rescaled_final/0103_fw.mp4	0.0	87.82017111778259	
5	68.04240703582764	pulse	1	t		3.0	2.5	/experiments/AOT/AOT_stimuli/rescaled_final/0103_fw.mp4	0.0	89.41321611404419	
5	68.56640100479126	fix_post	2		12	3.0	2.5	/experiments/AOT/AOT_stimuli/rescaled_final/0103_fw.mp4	0.0	89.93721008300781	0.0998849868774414
6	68.6662859916687	fix_pre	0		119	4.0	2.5	/experiments/AOT/AOT_stimuli/rescaled_final/0434_rv.mp4	0.0	90.03709506988525	0.9916360378265381
6	69.64223098754883	pulse	0	t		4.0	2.5	/experiments/AOT/AOT_stimuli/rescaled_final/0434_rv.mp4	0.0	91.01304006576538	
6	69.65792202949524	movie	1		245	4.0	2.5	/experiments/AOT/AOT_stimuli/rescaled_final/0434_rv.mp4	0.0	91.02873110771179	2.507969856262207
6	71.24990487098694	pulse	1	t		4.0	2.5	/experiments/AOT/AOT_stimuli/rescaled_final/0434_rv.mp4	0.0	92.62071394920349	
6	72.16589188575745	fix_post	2		12	4.0	2.5	/experiments/AOT/AOT_stimuli/rescaled_final/0434_rv.mp4	0.0	93.536700963974	0.1004190444946289
7	72.26631093025208	fix_pre	0		120	5.0	2.5	/experiments/AOT/AOT_stimuli/rescaled_final/1090_rv.mp4	0.0	93.63712000846863	1.000011920928955
7	72.84221482276917	pulse	0	t		5.0	2.5	/experiments/AOT/AOT_stimuli/rescaled_final/1090_rv.mp4	0.0	94.21302390098572	
7	73.26632285118103	movie	1		244	5.0	2.5	/experiments/AOT/AOT_stimuli/rescaled_final/1090_rv.mp4	0.0	94.63713192939758	2.4997830390930176
7	74.44983291625977	pulse	1	t		5.0	2.5	/experiments/AOT/AOT_stimuli/rescaled_final/1090_rv.mp4	0.0	95.82064199447632	
7	75.76610589027405	fix_post	2		12	5.0	2.5	/experiments/AOT/AOT_stimuli/rescaled_final/1090_rv.mp4	0.0	97.1369149684906	0.10018801689147949
8	75.86629390716553	fix_pre	0		120	6.0	2.5	/experiments/AOT/AOT_stimuli/rescaled_final/1179_rv.mp4	0.0	97.23710298538208	0.9999980926513672
8	76.04219198226929	pulse	0	t		6.0	2.5	/experiments/AOT/AOT_stimuli/rescaled_final/1179_rv.mp4	0.0	97.41300106048584	
8	76.8662919998169	movie	1		245	6.0	2.5	/experiments/AOT/AOT_stimuli/rescaled_final/1179_rv.mp4	0.0	98.23710107803345	2.4995620250701904
8	77.6423089504242	pulse	1	t		6.0	2.5	/experiments/AOT/AOT_stimuli/rescaled_final/1179_rv.mp4	0.0	99.01311802864075	
8	79.24835586547852	pulse	1	t		6.0	2.5	/experiments/AOT/AOT_stimuli/rescaled_final/1179_rv.mp4	0.0	100.61916494369507	
8	79.36585402488708	fix_post	2		12	6.0	2.5	/experiments/AOT/AOT_stimuli/rescaled_final/1179_rv.mp4	0.0	100.73666310310364	0.10049200057983398
9	79.46634602546692	fix_pre	0		120	7.0	2.5	blank	1.0	100.83715510368347	0.9996118545532227
9	80.46595788002014	movie	1		300	7.0	2.5	blank	1.0	101.8367669582367	2.5003750324249268
9	80.8414249420166	pulse	1	t		7.0	2.5	blank	1.0	102.21223402023315	
9	82.44980001449585	pulse	1	t		7.0	2.5	blank	1.0	103.8206090927124	
9	82.96633291244507	fix_post	2		12	7.0	2.5	blank	1.0	104.33714199066162	0.09995293617248535
10	83.06628584861755	fix_pre	0		119	8.0	2.5	/experiments/AOT/AOT_stimuli/rescaled_final/0151_rv.mp4	0.0	104.4370949268341	0.9915690422058105
10	84.04972887039185	pulse	0	t		8.0	2.5	/experiments/AOT/AOT_stimuli/rescaled_final/0151_rv.mp4	0.0	105.4205379486084	
10	84.05785489082336	movie	1		245	8.0	2.5	/experiments/AOT/AOT_stimuli/rescaled_final/0151_rv.mp4	0.0	105.42866396903992	2.508060932159424
10	85.64950394630432	pulse	1	t		8.0	2.5	/experiments/AOT/AOT_stimuli/rescaled_final/0151_rv.mp4	0.0	107.02031302452087	
10	86.56591582298279	fix_post	2		12	8.0	2.5	/experiments/AOT/AOT_stimuli/rescaled_final/0151_rv.mp4	0.0	107.93672490119934	0.09998416900634766
11	86.66589999198914	fix_pre	0		120	9.0	2.5	/experiments/AOT/AOT_stimuli/rescaled_final/1736_fw.mp4	0.0	108.03670907020569	1.0003700256347656
11	87.24223494529724	pulse	0	t		9.0	2.5	/experiments/AOT/AOT_stimuli/rescaled_final/1736_fw.mp4	0.0	108.6130440235138	
11	87.6662700176239	movie	1		245	9.0	2.5	/experiments/AOT/AOT_stimuli/rescaled_final/1736_fw.mp4	0.0	109.03707909584045	2.4997169971466064
11	88.8497998714447	pulse	1	t		9.0	2.5	/experiments/AOT/AOT_stimuli/rescaled_final/1736_fw.mp4	0.0	110.22060894966125	
11	90.16598701477051	fix_post	2		12	9.0	2.5	/experiments/AOT/AOT_stimuli/rescaled_final/1736_fw.mp4	0.0	111.53679609298706	0.10027003288269043
12	90.2662570476532	fix_pre	0		120	10.0	2.5	/experiments/AOT/AOT_stimuli/rescaled_final/0288_rv.mp4	0.0	111.63706612586975	0.999945878982544
12	90.44227600097656	pulse	0	t		10.0	2.5	/experiments/AOT/AOT_stimuli/rescaled_final/0288_rv.mp4	0.0	111.81308507919312	
12	91.26620292663574	movie	1		244	10.0	2.5	/experiments/AOT/AOT_stimuli/rescaled_final/0288_rv.mp4	0.0	112.6370120048523	2.499807119369507
12	92.04230999946594	pulse	1	t		10.0	2.5	/experiments/AOT/AOT_stimuli/rescaled_final/0288_rv.mp4	0.0	113.4131190776825	
12	93.65035891532898	pulse	1	t		10.0	2.5	/experiments/AOT/AOT_stimuli/rescaled_final/0288_rv.mp4	0.0	115.02116799354553	
12	93.76601004600525	fix_post	2		12	10.0	2.5	/experiments/AOT/AOT_stimuli/rescaled_final/0288_rv.mp4	0.0	115.1368191242218	0.10023999214172363
13	93.86625003814697	fix_pre	0		120	11.0	2.5	/experiments/AOT/AOT_stimuli/rescaled_final/0624_fw.mp4	0.0	115.23705911636353	0.9999129772186279
13	94.8661630153656	movie	1		243	11.0	2.5	/experiments/AOT/AOT_stimuli/rescaled_final/0624_fw.mp4	0.0	116.23697209358215	2.4996249675750732
13	95.24924898147583	pulse	1	t		11.0	2.5	/experiments/AOT/AOT_stimuli/rescaled_final/0624_fw.mp4	0.0	116.62005805969238	
13	96.84145498275757	pulse	1	t		11.0	2.5	/experiments/AOT/AOT_stimuli/rescaled_final/0624_fw.mp4	0.0	118.21226406097412	
13	97.36578798294067	fix_post	2		12	11.0	2.5	/experiments/AOT/AOT_stimuli/rescaled_final/0624_fw.mp4	0.0	118.73659706115723	0.09995388984680176
14	97.46574187278748	fix_pre	0		119	12.0	2.5	/experiments/AOT/AOT_stimuli/rescaled_final/1403_fw.mp4	0.0	118.83655095100403	0.9920661449432373
14	98.44969582557678	pulse	0	t		12.0	2.5	/experiments/AOT/AOT_stimuli/rescaled_final/1403_fw.mp4	0.0	119.82050490379333	
14	98.45780801773071	movie	1		246	12.0	2.5	/experiments/AOT/AOT_stimuli/rescaled_final/1403_fw.mp4	0.0	119.82861709594727	2.5079598426818848
14	100.04965400695801	pulse	1	t		12.0	2.5	/experiments/AOT/AOT_stimuli/rescaled_final/1403_fw.mp4	0.0	121.42046308517456	
14	100.9657678604126	fix_post	2		12	12.0	2.5	/experiments/AOT/AOT_stimuli/rescaled_final/1403_fw.mp4	0.0	122.33657693862915	0.10038900375366211
15	101.06615686416626	fix_pre	0		120	13.0	2.5	blank	1.0	122.43696594238281	1.0001211166381836
15	101.64216303825378	pulse	0	t		13.0	2.5	blank	1.0	123.01297211647034	
15	102.06627798080444	movie	1		300	13.0	2.5	blank	1.0	123.437087059021	2.4998669624328613
15	103.24219298362732	pulse	1	t		13.0	2.5	blank	1.0	124.61300206184387	
15	104.5661449432373	fix_post	2		12	13.0	2.5	blank	1.0	125.93695402145386	0.10001707077026367
16	104.66616201400757	fix_pre	0		120	14.0	2.5	/experiments/AOT/AOT_stimuli/rescaled_final/1042_rv.mp4	0.0	126.03697109222412	0.999547004699707
16	104.84227585792542	pulse	0	t		14.0	2.5	/experiments/AOT/AOT_stimuli/rescaled_final/1042_rv.mp4	0.0	126.21308493614197	
16	105.66570901870728	movie	1		244	14.0	2.5	/experiments/AOT/AOT_stimuli/rescaled_final/1042_rv.mp4	0.0	127.03651809692383	2.4999868869781494
16	106.44275188446045	pulse	1	t		14.0	2.5	/experiments/AOT/AOT_stimuli/rescaled_final/1042_rv.mp4	0.0	127.813560962677	
16	108.04836082458496	pulse	1	t		14.0	2.5	/experiments/AOT/AOT_stimuli/rescaled_final/1042_rv.mp4	0.0	129.4191699028015	
16	108.16569590568542	fix_post	2		12	14.0	2.5	/experiments/AOT/AOT_stimuli/rescaled_final/1042_rv.mp4	0.0	129.53650498390198	0.10051298141479492
17	108.26620888710022	fix_pre	0		120	15.0	2.5	/experiments/AOT/AOT_stimuli/rescaled_final/1253_rv.mp4	0.0	129.63701796531677	0.9999780654907227
17	109.26618695259094	movie	1		243	15.0	2.5	/experiments/AOT/AOT_stimuli/rescaled_final/1253_rv.mp4	0.0	130.6369960308075	2.499966859817505
17	109.65091681480408	pulse	1	t		15.0	2.5	/experiments/AOT/AOT_stimuli/rescaled_final/1253_rv.mp4	0.0	131.02172589302063	
17	111.24221396446228	pulse	1	t		15.0	2.5	/experiments/AOT/AOT_stimuli/rescaled_final/1253_rv.mp4	0.0	132.61302304267883	
17	111.76615381240845	fix_post	2		12	15.0	2.5	/experiments/AOT/AOT_stimuli/rescaled_final/1253_rv.mp4	0.0	133.136962890625	0.09998202323913574
18	111.86613583564758	fix_pre	0		119	16.0	2.5	/experiments/AOT/AOT_stimuli/rescaled_final/1766_rv.mp4	0.0	133.23694491386414	0.9916901588439941
18	112.84215188026428	pulse	0	t		16.0	2.5	/experiments/AOT/AOT_stimuli/rescaled_final/1766_rv.mp4	0.0	134.21296095848083	
18	112.85782599449158	movie	1		245	16.0	2.5	/experiments/AOT/AOT_stimuli/rescaled_final/1766_rv.mp4	0.0	134.22863507270813	2.5084068775177
18	114.44926881790161	pulse	1	t		16.0	2.5	/experiments/AOT/AOT_stimuli/rescaled_final/1766_rv.mp4	0.0	135.82007789611816	
18	115.36623287200928	fix_post	2		12	16.0	2.5	/experiments/AOT/AOT_stimuli/rescaled_final/1766_rv.mp4	0.0	136.73704195022583	0.09989809989929199
19	115.46613097190857	fix_pre	0		120	17.0	2.5	/experiments/AOT/AOT_stimuli/rescaled_final/1755_rv.mp4	0.0	136.83694005012512	1.0000388622283936
19	116.04956197738647	pulse	0	t		17.0	2.5	/experiments/AOT/AOT_stimuli/rescaled_final/1755_rv.mp4	0.0	137.42037105560303	
19	116.46616983413696	movie	1		245	17.0	2.5	/experiments/AOT/AOT_stimuli/rescaled_final/1755_rv.mp4	0.0	137.83697891235352	2.499821186065674
19	117.64932203292847	pulse	1	t		17.0	2.5	/experiments/AOT/AOT_stimuli/rescaled_final/1755_rv.mp4	0.0	139.02013111114502	
19	118.96599102020264	fix_post	2		12	17.0	2.5	/experiments/AOT/AOT_stimuli/rescaled_final/1755_rv.mp4	0.0	140.3368000984192	0.09993386268615723
20	119.0659248828888	fix_pre	0		120	18.0	2.5	/experiments/AOT/AOT_stimuli/rescaled_final/0199_rv.mp4	0.0	140.43673396110535	1.0001921653747559
20	119.24951982498169	pulse	0	t		18.0	2.5	/experiments/AOT/AOT_stimuli/rescaled_final/0199_rv.mp4	0.0	140.62032890319824	
20	120.06611704826355	movie	1		245	18.0	2.5	/experiments/AOT/AOT_stimuli/rescaled_final/0199_rv.mp4	0.0	141.4369261264801	2.5001888275146484
20	120.8421618938446	pulse	1	t		18.0	2.5	/experiments/AOT/AOT_stimuli/rescaled_final/0199_rv.mp4	0.0	142.21297097206116	
20	122.44562792778015	pulse	1	t		18.0	2.5	/experiments/AOT/AOT_stimuli/rescaled_final/0199_rv.mp4	0.0	143.8164370059967	
20	122.5663058757782	fix_post	2		12	18.0	2.5	/experiments/AOT/AOT_stimuli/rescaled_final/0199_rv.mp4	0.0	143.93711495399475	0.09937405586242676
21	122.66567993164062	fix_pre	0		119	19.0	2.5	blank	1.0	144.03648900985718	1.00006103515625
21	123.66574096679688	movie	1		300	19.0	2.5	blank	1.0	145.03655004501343	2.5003440380096436
21	124.04220294952393	pulse	1	t		19.0	2.5	blank	1.0	145.41301202774048	
21	125.64198803901672	pulse	1	t		19.0	2.5	blank	1.0	147.01279711723328	
21	126.16608500480652	fix_post	2		12	19.0	2.5	blank	1.0	147.53689408302307	0.10002398490905762
22	126.26610898971558	fix_pre	0		119	20.0	2.5	/experiments/AOT/AOT_stimuli/rescaled_final/1020_rv.mp4	0.0	147.63691806793213	0.9915518760681152
22	127.2419798374176	pulse	0	t		20.0	2.5	/experiments/AOT/AOT_stimuli/rescaled_final/1020_rv.mp4	0.0	148.61278891563416	
22	127.25766086578369	movie	1		249	20.0	2.5	/experiments/AOT/AOT_stimuli/rescaled_final/1020_rv.mp4	0.0	148.62846994400024	2.5079469680786133
22	128.84880304336548	pulse	1	t		20.0	2.5	/experiments/AOT/AOT_stimuli/rescaled_final/1020_rv.mp4	0.0	150.21961212158203	
22	129.7656078338623	fix_post	2		12	20.0	2.5	/experiments/AOT/AOT_stimuli/rescaled_final/1020_rv.mp4	0.0	151.13641691207886	0.10039520263671875
23	129.86600303649902	fix_pre	0		120	21.0	2.5	/experiments/AOT/AOT_stimuli/rescaled_final/1411_fw.mp4	0.0	151.23681211471558	0.9999938011169434
23	130.44952702522278	pulse	0	t		21.0	2.5	/experiments/AOT/AOT_stimuli/rescaled_final/1411_fw.mp4	0.0	151.82033610343933	
23	130.86599683761597	movie	1		245	21.0	2.5	/experiments/AOT/AOT_stimuli/rescaled_final/1411_fw.mp4	0.0	152.23680591583252	2.499580144882202
23	132.04960894584656	pulse	1	t		21.0	2.5	/experiments/AOT/AOT_stimuli/rescaled_final/1411_fw.mp4	0.0	153.4204180240631	
23	133.36557698249817	fix_post	2		12	21.0	2.5	/experiments/AOT/AOT_stimuli/rescaled_final/1411_fw.mp4	0.0	154.73638606071472	0.10039305686950684
24	133.46597003936768	fix_pre	0		120	22.0	2.5	/experiments/AOT/AOT_stimuli/rescaled_final/1602_rv.mp4	0.0	154.83677911758423	0.9999969005584717
24	133.64947199821472	pulse	0	t		22.0	2.5	/experiments/AOT/AOT_stimuli/rescaled_final/1602_rv.mp4	0.0	155.02028107643127	
24	134.46596693992615	movie	1		243	22.0	2.5	/experiments/AOT/AOT_stimuli/rescaled_final/1602_rv.mp4	0.0	155.8367760181427	2.4999959468841553
24	135.2494888305664	pulse	1	t		22.0	2.5	/experiments/AOT/AOT_stimuli/rescaled_final/1602_rv.mp4	0.0	156.62029790878296	
24	136.84774899482727	pulse	1	t		22.0	2.5	/experiments/AOT/AOT_stimuli/rescaled_final/1602_rv.mp4	0.0	158.21855807304382	
24	136.9659628868103	fix_post	2		12	22.0	2.5	/experiments/AOT/AOT_stimuli/rescaled_final/1602_rv.mp4	0.0	158.33677196502686	0.10004711151123047
25	137.06600999832153	fix_pre	0		120	23.0	2.5	/experiments/AOT/AOT_stimuli/rescaled_final/0353_rv.mp4	0.0	158.4368190765381	0.9999549388885498
25	138.06596493721008	movie	1		245	23.0	2.5	/experiments/AOT/AOT_stimuli/rescaled_final/0353_rv.mp4	0.0	159.43677401542664	2.5000250339508057
25	138.45000004768372	pulse	1	t		23.0	2.5	/experiments/AOT/AOT_stimuli/rescaled_final/0353_rv.mp4	0.0	159.82080912590027	
25	140.0421860218048	pulse	1	t		23.0	2.5	/experiments/AOT/AOT_stimuli/rescaled_final/0353_rv.mp4	0.0	161.41299510002136	
25	140.5659899711609	fix_post	2		12	23.0	2.5	/experiments/AOT/AOT_stimuli/rescaled_final/0353_rv.mp4	0.0	161.93679904937744	0.09993290901184082
26	140.66592288017273	fix_pre	0		119	24.0	2.5	/experiments/AOT/AOT_stimuli/rescaled_final/0002_fw.mp4	0.0	162.03673195838928	0.9916861057281494
26	141.64206981658936	pulse	0	t		24.0	2.5	/experiments/AOT/AOT_stimuli/rescaled_final/0002_fw.mp4	0.0	163.0128788948059	
26	141.65760898590088	movie	1		244	24.0	2.5	/experiments/AOT/AOT_stimuli/rescaled_final/0002_fw.mp4	0.0	163.02841806411743	2.507917881011963
26	143.24936604499817	pulse	1	t		24.0	2.5	/experiments/AOT/AOT_stimuli/rescaled_final/0002_fw.mp4	0.0	164.62017512321472	
26	144.16552686691284	fix_post	2		12	24.0	2.5	/experiments/AOT/AOT_stimuli/rescaled_final/0002_fw.mp4	0.0	165.5363359451294	0.1005101203918457
27	144.2660369873047	fix_pre	0		120	25.0	2.5	/experiments/AOT/AOT_stimuli/rescaled_final/0635_fw.mp4	0.0	165.63684606552124	0.9999630451202393
27	144.84214282035828	pulse	0	t		25.0	2.5	/experiments/AOT/AOT_stimuli/rescaled_final/0635_fw.mp4	0.0	166.21295189857483	
27	145.26600003242493	movie	1		243	25.0	2.5	/experiments/AOT/AOT_stimuli/rescaled_final/0635_fw.mp4	0.0	166.63680911064148	2.4995648860931396
27	146.44950890541077	pulse	1	t		25.0	2.5	/experiments/AOT/AOT_stimuli/rescaled_final/0635_fw.mp4	0.0	167.82031798362732	
27	147.76556491851807	fix_post	2		12	25.0	2.5	/experiments/AOT/AOT_stimuli/rescaled_final/0635_fw.mp4	0.0	169.13637399673462	0.10038590431213379
28	147.8659508228302	fix_pre	0		120	26.0	2.5	/experiments/AOT/AOT_stimuli/rescaled_final/1452_rv.mp4	0.0	169.23675990104675	0.9999542236328125
28	148.04948592185974	pulse	0	t		26.0	2.5	/experiments/AOT/AOT_stimuli/rescaled_final/1452_rv.mp4	0.0	169.4202950000763	
28	148.865905046463	movie	1		243	26.0	2.5	/experiments/AOT/AOT_stimuli/rescaled_final/1452_rv.mp4	0.0	170.23671412467957	2.49960994720459
28	149.64943194389343	pulse	1	t		26.0	2.5	/experiments/AOT/AOT_stimuli/rescaled_final/1452_rv.mp4	0.0	171.02024102210999	
28	151.24755096435547	pulse	1	t		26.0	2.5	/experiments/AOT/AOT_stimuli/rescaled_final/1452_rv.mp4	0.0	172.61836004257202	
28	151.3655149936676	fix_post	2		12	26.0	2.5	/experiments/AOT/AOT_stimuli/rescaled_final/1452_rv.mp4	0.0	172.73632407188416	0.09997391700744629
29	151.46548891067505	fix_pre	0		120	27.0	2.5	blank	1.0	172.8362979888916	1.0004019737243652
29	152.4658908843994	movie	1		300	27.0	2.5	blank	1.0	173.83669996261597	2.49997615814209
29	152.8494520187378	pulse	1	t		27.0	2.5	blank	1.0	174.22026109695435	
29	154.44190287590027	pulse	1	t		27.0	2.5	blank	1.0	175.81271195411682	
29	154.9658670425415	fix_post	2		12	27.0	2.5	blank	1.0	176.33667612075806	0.10001993179321289
30	155.06588697433472	fix_pre	0		119	28.0	2.5	/experiments/AOT/AOT_stimuli/rescaled_final/0271_fw.mp4	0.0	176.43669605255127	0.9917619228363037
30	156.0493769645691	pulse	0	t		28.0	2.5	/experiments/AOT/AOT_stimuli/rescaled_final/0271_fw.mp4	0.0	177.42018604278564	
30	156.05764889717102	movie	1		247	28.0	2.5	/experiments/AOT/AOT_stimuli/rescaled_final/0271_fw.mp4	0.0	177.42845797538757	2.5078279972076416
30	157.65060782432556	pulse	1	t		28.0	2.5	/experiments/AOT/AOT_stimuli/rescaled_final/0271_fw.mp4	0.0	179.02141690254211	
30	158.56547689437866	fix_post	2		12	28.0	2.5	/experiments/AOT/AOT_stimuli/rescaled_final/0271_fw.mp4	0.0	179.93628597259521	0.1003580093383789
31	158.66583490371704	fix_pre	0		120	29.0	2.5	/experiments/AOT/AOT_stimuli/rescaled_final/0717_rv.mp4	0.0	180.0366439819336	0.999669075012207
31	159.241956949234	pulse	0	t		29.0	2.5	/experiments/AOT/AOT_stimuli/rescaled_final/0717_rv.mp4	0.0	180.61276602745056	
31	159.66550397872925	movie	1		246	29.0	2.5	/experiments/AOT/AOT_stimuli/rescaled_final/0717_rv.mp4	0.0	181.0363130569458	2.5003960132598877
31	160.84946393966675	pulse	1	t		29.0	2.5	/experiments/AOT/AOT_stimuli/rescaled_final/0717_rv.mp4	0.0	182.2202730178833	
31	162.16589999198914	fix_post	2		12	29.0	2.5	/experiments/AOT/AOT_stimuli/rescaled_final/0717_rv.mp4	0.0	183.5367090702057	0.0999908447265625
32	162.2658908367157	fix_pre	0		120	30.0	2.5	/experiments/AOT/AOT_stimuli/rescaled_final/0151_fw.mp4	0.0	183.63669991493225	0.99996018409729
32	162.44934797286987	pulse	0	t		30.0	2.5	/experiments/AOT/AOT_stimuli/rescaled_final/0151_fw.mp4	0.0	183.82015705108643	
32	163.265851020813	movie	1		244	30.0	2.5	/experiments/AOT/AOT_stimuli/rescaled_final/0151_fw.mp4	0.0	184.63666009902954	2.5000557899475098
32	164.04943704605103	pulse	1	t		30.0	2.5	/experiments/AOT/AOT_stimuli/rescaled_final/0151_fw.mp4	0.0	185.42024612426758	
32	165.64775681495667	pulse	1	t		30.0	2.5	/experiments/AOT/AOT_stimuli/rescaled_final/0151_fw.mp4	0.0	187.01856589317322	
32	165.7659068107605	fix_post	2		12	30.0	2.5	/experiments/AOT/AOT_stimuli/rescaled_final/0151_fw.mp4	0.0	187.13671588897705	0.09958410263061523
33	165.8654909133911	fix_pre	0		120	31.0	2.5	/experiments/AOT/AOT_stimuli/rescaled_final/0338_fw.mp4	0.0	187.23629999160767	1.0003700256347656
33	166.86586093902588	movie	1		244	31.0	2.5	/experiments/AOT/AOT_stimuli/rescaled_final/0338_fw.mp4	0.0	188.23667001724243	2.4996330738067627
33	167.24894881248474	pulse	1	t		31.0	2.5	/experiments/AOT/AOT_stimuli/rescaled_final/0338_fw.mp4	0.0	188.6197578907013	
33	168.8493938446045	pulse	1	t		31.0	2.5	/experiments/AOT/AOT_stimuli/rescaled_final/0338_fw.mp4	0.0	190.22020292282104	
33	169.36549401283264	fix_post	2		12	31.0	2.5	/experiments/AOT/AOT_stimuli/rescaled_final/0338_fw.mp4	0.0	190.7363030910492	0.10040593147277832
34	169.46589994430542	fix_pre	0		119	32.0	2.5	/experiments/AOT/AOT_stimuli/rescaled_final/1729_fw.mp4	0.0	190.83670902252197	0.9916090965270996
34	170.44944095611572	pulse	0	t		32.0	2.5	/experiments/AOT/AOT_stimuli/rescaled_final/1729_fw.mp4	0.0	191.82025003433228	
34	170.45750904083252	movie	1		247	32.0	2.5	/experiments/AOT/AOT_stimuli/rescaled_final/1729_fw.mp4	0.0	191.82831811904907	2.508366823196411
34	172.04915690422058	pulse	1	t		32.0	2.5	/experiments/AOT/AOT_stimuli/rescaled_final/1729_fw.mp4	0.0	193.41996598243713	
34	172.96587586402893	fix_post	2		12	32.0	2.5	/experiments/AOT/AOT_stimuli/rescaled_final/1729_fw.mp4	0.0	194.33668494224548	0.0995481014251709
35	173.0654239654541	fix_pre	0		120	33.0	2.5	blank	1.0	194.43623304367065	1.0006330013275146
35	173.6490819454193	pulse	0	t		33.0	2.5	blank	1.0	195.01989102363586	
35	174.06605696678162	movie	1		300	33.0	2.5	blank	1.0	195.43686604499817	2.499847888946533
35	175.24924492835999	pulse	1	t		33.0	2.5	blank	1.0	196.62005400657654	
35	176.56590485572815	fix_post	2		12	33.0	2.5	blank	1.0	197.9367139339447	0.0999600887298584
36	176.665864944458	fix_pre	0		120	34.0	2.5	/experiments/AOT/AOT_stimuli/rescaled_final/0334_fw.mp4	0.0	198.03667402267456	0.9999799728393555
36	176.8418698310852	pulse	0	t		34.0	2.5	/experiments/AOT/AOT_stimuli/rescaled_final/0334_fw.mp4	0.0	198.21267890930176	
36	177.66584491729736	movie	1		248	34.0	2.5	/experiments/AOT/AOT_stimuli/rescaled_final/0334_fw.mp4	0.0	199.03665399551392	2.4999959468841553
36	178.4492998123169	pulse	1	t		34.0	2.5	/experiments/AOT/AOT_stimuli/rescaled_final/0334_fw.mp4	0.0	199.82010889053345	
36	180.04934000968933	pulse	1	t		34.0	2.5	/experiments/AOT/AOT_stimuli/rescaled_final/0334_fw.mp4	0.0	201.42014908790588	
36	180.16584086418152	fix_post	2		12	34.0	2.5	/experiments/AOT/AOT_stimuli/rescaled_final/0334_fw.mp4	0.0	201.53664994239807	0.0999610424041748
37	180.2658019065857	fix_pre	0		120	35.0	2.5	/experiments/AOT/AOT_stimuli/rescaled_final/0368_rv.mp4	0.0	201.63661098480225	1.0000560283660889
37	181.26585793495178	movie	1		244	35.0	2.5	/experiments/AOT/AOT_stimuli/rescaled_final/0368_rv.mp4	0.0	202.63666701316833	2.4999189376831055
37	181.6489279270172	pulse	1	t		35.0	2.5	/experiments/AOT/AOT_stimuli/rescaled_final/0368_rv.mp4	0.0	203.01973700523376	
37	183.2493109703064	pulse	1	t		35.0	2.5	/experiments/AOT/AOT_stimuli/rescaled_final/0368_rv.mp4	0.0	204.62012004852295	
37	183.7657768726349	fix_post	2		12	35.0	2.5	/experiments/AOT/AOT_stimuli/rescaled_final/0368_rv.mp4	0.0	205.13658595085144	0.10003995895385742
38	183.86581683158875	fix_pre	0		119	36.0	2.5	/experiments/AOT/AOT_stimuli/rescaled_final/1379_fw.mp4	0.0	205.2366259098053	0.9916431903839111
38	184.84925603866577	pulse	0	t		36.0	2.5	/experiments/AOT/AOT_stimuli/rescaled_final/1379_fw.mp4	0.0	206.22006511688232	
38	184.85746002197266	movie	1		245	36.0	2.5	/experiments/AOT/AOT_stimuli/rescaled_final/1379_fw.mp4	0.0	206.2282691001892	2.508293867111206
38	186.44873189926147	pulse	1	t		36.0	2.5	/experiments/AOT/AOT_stimuli/rescaled_final/1379_fw.mp4	0.0	207.81954097747803	
38	187.36575388908386	fix_post	2		12	36.0	2.5	/experiments/AOT/AOT_stimuli/rescaled_final/1379_fw.mp4	0.0	208.73656296730042	0.09992504119873047
39	187.4656789302826	fix_pre	0		120	37.0	2.5	/experiments/AOT/AOT_stimuli/rescaled_final/1435_rv.mp4	0.0	208.83648800849915	0.9996600151062012
39	188.0492799282074	pulse	0	t		37.0	2.5	/experiments/AOT/AOT_stimuli/rescaled_final/1435_rv.mp4	0.0	209.42008900642395	
39	188.4653389453888	movie	1		243	37.0	2.5	/experiments/AOT/AOT_stimuli/rescaled_final/1435_rv.mp4	0.0	209.83614802360535	2.499985933303833
39	189.64936804771423	pulse	1	t		37.0	2.5	/experiments/AOT/AOT_stimuli/rescaled_final/1435_rv.mp4	0.0	211.0201771259308	
39	190.96532487869263	fix_post	2		12	37.0	2.5	/experiments/AOT/AOT_stimuli/rescaled_final/1435_rv.mp4	0.0	212.33613395690918	0.10043597221374512
40	191.06576085090637	fix_pre	0		120	38.0	2.5	/experiments/AOT/AOT_stimuli/rescaled_final/0730_rv.mp4	0.0	212.43656992912292	0.9999511241912842
40	191.24178385734558	pulse	0	t		38.0	2.5	/experiments/AOT/AOT_stimuli/rescaled_final/0730_rv.mp4	0.0	212.61259293556213	
40	192.06571197509766	movie	1		244	38.0	2.5	/experiments/AOT/AOT_stimuli/rescaled_final/0730_rv.mp4	0.0	213.4365210533142	2.5000410079956055
40	192.841814994812	pulse	1	t		38.0	2.5	/experiments/AOT/AOT_stimuli/rescaled_final/0730_rv.mp4	0.0	214.21262407302856	
40	194.44800400733948	pulse	1	t		38.0	2.5	/experiments/AOT/AOT_stimuli/rescaled_final/0730_rv.mp4	0.0	215.81881308555603	
40	194.56575298309326	fix_post	2		12	38.0	2.5	/experiments/AOT/AOT_stimuli/rescaled_final/0730_rv.mp4	0.0	215.93656206130981	0.10004901885986328
41	194.66580200195312	fix_pre	0		120	39.0	2.5	/experiments/AOT/AOT_stimuli/rescaled_final/0319_fw.mp4	0.0	216.03661108016968	0.9999330043792725
41	195.6657350063324	movie	1		243	39.0	2.5	/experiments/AOT/AOT_stimuli/rescaled_final/0319_fw.mp4	0.0	217.03654408454895	2.4996159076690674
41	196.04881501197815	pulse	1	t		39.0	2.5	/experiments/AOT/AOT_stimuli/rescaled_final/0319_fw.mp4	0.0	217.4196240901947	
41	197.64925599098206	pulse	1	t		39.0	2.5	/experiments/AOT/AOT_stimuli/rescaled_final/0319_fw.mp4	0.0	219.0200650691986	
41	198.16535091400146	fix_post	2		12	39.0	2.5	/experiments/AOT/AOT_stimuli/rescaled_final/0319_fw.mp4	0.0	219.53615999221802	0.10031700134277344
42	198.26566791534424	fix_pre	0		119	40.0	2.5	blank	1.0	219.6364769935608	0.9917230606079102
42	199.24923181533813	pulse	0	t		40.0	2.5	blank	1.0	220.6200408935547	
42	199.25739097595215	movie	1		301	40.0	2.5	blank	1.0	220.6282000541687	2.5083489418029785
42	200.84915685653687	pulse	1	t		40.0	2.5	blank	1.0	222.21996593475342	
42	201.76573991775513	fix_post	2		12	40.0	2.5	blank	1.0	223.13654899597168	0.09952092170715332
43	201.86526083946228	fix_pre	0		120	41.0	2.5	/experiments/AOT/AOT_stimuli/rescaled_final/0131_rv.mp4	0.0	223.23606991767883	1.0004551410675049
43	202.44927096366882	pulse	0	t		41.0	2.5	/experiments/AOT/AOT_stimuli/rescaled_final/0131_rv.mp4	0.0	223.82008004188538	
43	202.86571598052979	movie	1		244	41.0	2.5	/experiments/AOT/AOT_stimuli/rescaled_final/0131_rv.mp4	0.0	224.23652505874634	2.4995200634002686
43	204.04926800727844	pulse	1	t		41.0	2.5	/experiments/AOT/AOT_stimuli/rescaled_final/0131_rv.mp4	0.0	225.420077085495	
43	205.36523604393005	fix_post	2		12	41.0	2.5	/experiments/AOT/AOT_stimuli/rescaled_final/0131_rv.mp4	0.0	226.7360451221466	0.1004788875579834
44	205.46571493148804	fix_pre	0		120	42.0	2.5	/experiments/AOT/AOT_stimuli/rescaled_final/0911_rv.mp4	0.0	226.8365240097046	0.9995388984680176
44	205.64919996261597	pulse	0	t		42.0	2.5	/experiments/AOT/AOT_stimuli/rescaled_final/0911_rv.mp4	0.0	227.02000904083252	
44	206.46525382995605	movie	1		244	42.0	2.5	/experiments/AOT/AOT_stimuli/rescaled_final/0911_rv.mp4	0.0	227.8360629081726	2.5004630088806152
44	207.24238300323486	pulse	1	t		42.0	2.5	/experiments/AOT/AOT_stimuli/rescaled_final/0911_rv.mp4	0.0	228.61319208145142	
44	208.84782600402832	pulse	1	t		42.0	2.5	/experiments/AOT/AOT_stimuli/rescaled_final/0911_rv.mp4	0.0	230.21863508224487	
44	208.96571683883667	fix_post	2		12	42.0	2.5	/experiments/AOT/AOT_stimuli/rescaled_final/0911_rv.mp4	0.0	230.33652591705322	0.0999910831451416
45	209.0657079219818	fix_pre	0		120	43.0	2.5	/experiments/AOT/AOT_stimuli/rescaled_final/1417_rv.mp4	0.0	230.43651700019836	0.9999449253082275
45	210.06565284729004	movie	1		245	43.0	2.5	/experiments/AOT/AOT_stimuli/rescaled_final/1417_rv.mp4	0.0	231.4364619255066	2.499606132507324
45	210.44866585731506	pulse	1	t		43.0	2.5	/experiments/AOT/AOT_stimuli/rescaled_final/1417_rv.mp4	0.0	231.81947493553162	
45	212.04923582077026	pulse	1	t		43.0	2.5	/experiments/AOT/AOT_stimuli/rescaled_final/1417_rv.mp4	0.0	233.42004489898682	
45	212.56525897979736	fix_post	2		12	43.0	2.5	/experiments/AOT/AOT_stimuli/rescaled_final/1417_rv.mp4	0.0	233.93606805801392	0.09998583793640137
46	212.66524481773376	fix_pre	0		119	44.0	2.5	/experiments/AOT/AOT_stimuli/rescaled_final/1382_rv.mp4	0.0	234.03605389595032	0.9920949935913086
46	213.6491379737854	pulse	0	t		44.0	2.5	/experiments/AOT/AOT_stimuli/rescaled_final/1382_rv.mp4	0.0	235.01994705200195	
46	213.65733981132507	movie	1		245	44.0	2.5	/experiments/AOT/AOT_stimuli/rescaled_final/1382_rv.mp4	0.0	235.02814888954163	2.5083510875701904
46	215.24913001060486	pulse	1	t		44.0	2.5	/experiments/AOT/AOT_stimuli/rescaled_final/1382_rv.mp4	0.0	236.6199390888214	
46	216.16569089889526	fix_post	2		12	44.0	2.5	/experiments/AOT/AOT_stimuli/rescaled_final/1382_rv.mp4	0.0	237.53649997711182	0.09996795654296875
47	216.26565885543823	fix_pre	0		120	45.0	2.5	/experiments/AOT/AOT_stimuli/rescaled_final/1709_fw.mp4	0.0	237.63646793365479	1.0000300407409668
47	216.84913897514343	pulse	0	t		45.0	2.5	/experiments/AOT/AOT_stimuli/rescaled_final/1709_fw.mp4	0.0	238.21994805335999	
47	217.2656888961792	movie	1		242	45.0	2.5	/experiments/AOT/AOT_stimuli/rescaled_final/1709_fw.mp4	0.0	238.63649797439575	2.4998879432678223
47	218.44924092292786	pulse	1	t		45.0	2.5	/experiments/AOT/AOT_stimuli/rescaled_final/1709_fw.mp4	0.0	239.8200500011444	
47	219.76557683944702	fix_post	2		12	45.0	2.5	/experiments/AOT/AOT_stimuli/rescaled_final/1709_fw.mp4	0.0	241.13638591766357	0.099945068359375
48	219.8655219078064	fix_pre	0		120	46.0	2.5	/experiments/AOT/AOT_stimuli/rescaled_final/0151_rv.mp4	0.0	241.23633098602295	1.0000920295715332
48	220.0491418838501	pulse	0	t		46.0	2.5	/experiments/AOT/AOT_stimuli/rescaled_final/0151_rv.mp4	0.0	241.41995096206665	
48	220.86561393737793	movie	1		243	46.0	2.5	/experiments/AOT/AOT_stimuli/rescaled_final/0151_rv.mp4	0.0	242.23642301559448	2.499552011489868
48	221.64913296699524	pulse	1	t		46.0	2.5	/experiments/AOT/AOT_stimuli/rescaled_final/0151_rv.mp4	0.0	243.0199420452118	
48	223.2473919391632	pulse	1	t		46.0	2.5	/experiments/AOT/AOT_stimuli/rescaled_final/0151_rv.mp4	0.0	244.61820101737976	
48	223.3651659488678	fix_post	2		12	46.0	2.5	/experiments/AOT/AOT_stimuli/rescaled_final/0151_rv.mp4	0.0	244.73597502708435	0.10038495063781738
49	223.46555089950562	fix_pre	0		120	47.0	2.5	blank	1.0	244.83635997772217	0.999967098236084
49	224.4655179977417	movie	1		300	47.0	2.5	blank	1.0	245.83632707595825	2.4996819496154785
49	224.84918594360352	pulse	1	t		47.0	2.5	blank	1.0	246.21999502182007	
49	226.44917583465576	pulse	1	t		47.0	2.5	blank	1.0	247.81998491287231	
49	226.96519994735718	fix_post	2		12	47.0	2.5	blank	1.0	248.33600902557373	0.10041689872741699
50	227.0656168460846	fix_pre	0		119	48.0	2.5	/experiments/AOT/AOT_stimuli/rescaled_final/0258_rv.mp4	0.0	248.43642592430115	0.9916560649871826
50	228.0487220287323	pulse	0	t		48.0	2.5	/experiments/AOT/AOT_stimuli/rescaled_final/0258_rv.mp4	0.0	249.41953110694885	
50	228.05727291107178	movie	1		247	48.0	2.5	/experiments/AOT/AOT_stimuli/rescaled_final/0258_rv.mp4	0.0	249.42808198928833	2.508139133453369
50	229.64855194091797	pulse	1	t		48.0	2.5	/experiments/AOT/AOT_stimuli/rescaled_final/0258_rv.mp4	0.0	251.01936101913452	
50	230.56541204452515	fix_post	2		12	48.0	2.5	/experiments/AOT/AOT_stimuli/rescaled_final/0258_rv.mp4	0.0	251.9362211227417	0.10002398490905762
51	230.6654360294342	fix_pre	0		120	49.0	2.5	/experiments/AOT/AOT_stimuli/rescaled_final/1351_fw.mp4	0.0	252.03624510765076	1.000147819519043
51	231.24938988685608	pulse	0	t		49.0	2.5	/experiments/AOT/AOT_stimuli/rescaled_final/1351_fw.mp4	0.0	252.62019896507263	
51	231.66558384895325	movie	1		245	49.0	2.5	/experiments/AOT/AOT_stimuli/rescaled_final/1351_fw.mp4	0.0	253.0363929271698	2.500089168548584
51	232.84916996955872	pulse	1	t		49.0	2.5	/experiments/AOT/AOT_stimuli/rescaled_final/1351_fw.mp4	0.0	254.21997904777527	
51	234.16567301750183	fix_post	2		12	49.0	2.5	/experiments/AOT/AOT_stimuli/rescaled_final/1351_fw.mp4	0.0	255.53648209571838	0.09995484352111816
52	234.26562786102295	fix_pre	0		120	50.0	2.5	/experiments/AOT/AOT_stimuli/rescaled_final/1503_fw.mp4	0.0	255.6364369392395	1.0000171661376953
52	234.44906401634216	pulse	0	t		50.0	2.5	/experiments/AOT/AOT_stimuli/rescaled_final/1503_fw.mp4	0.0	255.81987309455872	
52	235.26564502716064	movie	1		245	50.0	2.5	/experiments/AOT/AOT_stimuli/rescaled_final/1503_fw.mp4	0.0	256.6364541053772	2.499879837036133
52	236.04925084114075	pulse	1	t		50.0	2.5	/experiments/AOT/AOT_stimuli/rescaled_final/1503_fw.mp4	0.0	257.4200599193573	
52	237.64522194862366	pulse	1	t		50.0	2.5	/experiments/AOT/AOT_stimuli/rescaled_final/1503_fw.mp4	0.0	259.0160310268402	
52	237.76552486419678	fix_post	2		12	50.0	2.5	/experiments/AOT/AOT_stimuli/rescaled_final/1503_fw.mp4	0.0	259.13633394241333	0.09960603713989258
53	237.86513090133667	fix_pre	0		120	51.0	2.5	/experiments/AOT/AOT_stimuli/rescaled_final/1253_rv.mp4	0.0	259.2359399795532	1.0003900527954102
53	238.86552095413208	movie	1		243	51.0	2.5	/experiments/AOT/AOT_stimuli/rescaled_final/1253_rv.mp4	0.0	260.23633003234863	2.499927043914795
53	239.24968695640564	pulse	1	t		51.0	2.5	/experiments/AOT/AOT_stimuli/rescaled_final/1253_rv.mp4	0.0	260.6204960346222	
53	240.84885001182556	pulse	1	t		51.0	2.5	/experiments/AOT/AOT_stimuli/rescaled_final/1253_rv.mp4	0.0	262.2196590900421	
53	241.36544799804688	fix_post	2		12	51.0	2.5	/experiments/AOT/AOT_stimuli/rescaled_final/1253_rv.mp4	0.0	262.7362570762634	0.10002303123474121
54	241.46547102928162	fix_pre	0		119	52.0	2.5	/experiments/AOT/AOT_stimuli/rescaled_final/0634_fw.mp4	0.0	262.83628010749817	0.9917669296264648
54	242.44894981384277	pulse	0	t		52.0	2.5	/experiments/AOT/AOT_stimuli/rescaled_final/0634_fw.mp4	0.0	263.8197588920593	
54	242.45723795890808	movie	1		247	52.0	2.5	/experiments/AOT/AOT_stimuli/rescaled_final/0634_fw.mp4	0.0	263.82804703712463	2.5083870887756348
54	244.048672914505	pulse	1	t		52.0	2.5	/experiments/AOT/AOT_stimuli/rescaled_final/0634_fw.mp4	0.0	265.41948199272156	
54	244.96562504768372	fix_post	2		12	52.0	2.5	/experiments/AOT/AOT_stimuli/rescaled_final/0634_fw.mp4	0.0	266.33643412590027	0.09990596771240234
55	245.06553101539612	fix_pre	0		120	53.0	2.5	/experiments/AOT/AOT_stimuli/rescaled_final/0266_rv.mp4	0.0	266.43634009361267	1.0000247955322266
55	245.64898204803467	pulse	0	t		53.0	2.5	/experiments/AOT/AOT_stimuli/rescaled_final/0266_rv.mp4	0.0	267.0197911262512	
55	246.06555581092834	movie	1		246	53.0	2.5	/experiments/AOT/AOT_stimuli/rescaled_final/0266_rv.mp4	0.0	267.4363648891449	2.4998672008514404
55	247.24903988838196	pulse	1	t		53.0	2.5	/experiments/AOT/AOT_stimuli/rescaled_final/0266_rv.mp4	0.0	268.6198489665985	
55	248.56542301177979	fix_post	2		12	53.0	2.5	/experiments/AOT/AOT_stimuli/rescaled_final/0266_rv.mp4	0.0	269.93623208999634	0.1000208854675293
56	248.66544389724731	fix_pre	0		120	54.0	2.5	/experiments/AOT/AOT_stimuli/rescaled_final/1581_rv.mp4	0.0	270.03625297546387	0.999582052230835
56	248.84898900985718	pulse	0	t		54.0	2.5	/experiments/AOT/AOT_stimuli/rescaled_final/1581_rv.mp4	0.0	270.21979808807373	
56	249.66502594947815	movie	1		247	54.0	2.5	/experiments/AOT/AOT_stimuli/rescaled_final/1581_rv.mp4	0.0	271.0358350276947	2.5000078678131104
56	250.44893503189087	pulse	1	t		54.0	2.5	/experiments/AOT/AOT_stimuli/rescaled_final/1581_rv.mp4	0.0	271.8197441101074	
56	252.0484960079193	pulse	1	t		54.0	2.5	/experiments/AOT/AOT_stimuli/rescaled_final/1581_rv.mp4	0.0	273.41930508613586	
56	252.16503381729126	fix_post	2		12	54.0	2.5	/experiments/AOT/AOT_stimuli/rescaled_final/1581_rv.mp4	0.0	273.5358428955078	0.10043716430664062
57	252.2654709815979	fix_pre	0		120	55.0	2.5	/experiments/AOT/AOT_stimuli/rescaled_final/1621_fw.mp4	0.0	273.63628005981445	1.0000250339508057
57	253.2654960155487	movie	1		244	55.0	2.5	/experiments/AOT/AOT_stimuli/rescaled_final/1621_fw.mp4	0.0	274.63630509376526	2.4999098777770996
57	253.64912390708923	pulse	1	t		55.0	2.5	/experiments/AOT/AOT_stimuli/rescaled_final/1621_fw.mp4	0.0	275.0199329853058	
57	255.24902081489563	pulse	1	t		55.0	2.5	/experiments/AOT/AOT_stimuli/rescaled_final/1621_fw.mp4	0.0	276.6198298931122	
57	255.7654058933258	fix_post	2		12	55.0	2.5	/experiments/AOT/AOT_stimuli/rescaled_final/1621_fw.mp4	0.0	277.13621497154236	0.10004711151123047
58	255.86545300483704	fix_pre	0		119	56.0	2.5	blank	1.0	277.2362620830536	0.9916050434112549
58	256.84893798828125	pulse	0	t		56.0	2.5	blank	1.0	278.2197470664978	
58	256.8570580482483	movie	1		301	56.0	2.5	blank	1.0	278.22786712646484	2.5083839893341064
58	258.44897985458374	pulse	1	t		56.0	2.5	blank	1.0	279.8197889328003	
58	259.3654420375824	fix_post	2		12	56.0	2.5	blank	1.0	280.73625111579895	0.0999898910522461
59	259.46543192863464	fix_pre	0		120	57.0	2.5	/experiments/AOT/AOT_stimuli/rescaled_final/1434_rv.mp4	0.0	280.8362410068512	0.9999918937683105
59	260.0490608215332	pulse	0	t		57.0	2.5	/experiments/AOT/AOT_stimuli/rescaled_final/1434_rv.mp4	0.0	281.41986989974976	
59	260.46542382240295	movie	1		244	57.0	2.5	/experiments/AOT/AOT_stimuli/rescaled_final/1434_rv.mp4	0.0	281.8362329006195	2.4995391368865967
59	261.6490080356598	pulse	1	t		57.0	2.5	/experiments/AOT/AOT_stimuli/rescaled_final/1434_rv.mp4	0.0	283.01981711387634	
59	262.96496295928955	fix_post	2		12	57.0	2.5	/experiments/AOT/AOT_stimuli/rescaled_final/1434_rv.mp4	0.0	284.3357720375061	0.10045003890991211
60	263.06541299819946	fix_pre	0		120	58.0	2.5	/experiments/AOT/AOT_stimuli/rescaled_final/0266_rv.mp4	0.0	284.436222076416	1.0000369548797607
60	263.24894189834595	pulse	0	t		58.0	2.5	/experiments/AOT/AOT_stimuli/rescaled_final/0266_rv.mp4	0.0	284.6197509765625	
60	264.0654499530792	movie	1		246	58.0	2.5	/experiments/AOT/AOT_stimuli/rescaled_final/0266_rv.mp4	0.0	285.4362590312958	2.4995639324188232
60	264.8489248752594	pulse	1	t		58.0	2.5	/experiments/AOT/AOT_stimuli/rescaled_final/0266_rv.mp4	0.0	286.21973395347595	
60	266.44908690452576	pulse	1	t		58.0	2.5	/experiments/AOT/AOT_stimuli/rescaled_final/0266_rv.mp4	0.0	287.8198959827423	
60	266.56501388549805	fix_post	2		12	58.0	2.5	/experiments/AOT/AOT_stimuli/rescaled_final/0266_rv.mp4	0.0	287.9358229637146	0.10035014152526855
61	266.6653640270233	fix_pre	0		120	59.0	2.5	/experiments/AOT/AOT_stimuli/rescaled_final/0539_rv.mp4	0.0	288.03617310523987	0.9996738433837891
61	267.6650378704071	movie	1		247	59.0	2.5	/experiments/AOT/AOT_stimuli/rescaled_final/0539_rv.mp4	0.0	289.03584694862366	2.500046968460083
61	268.0486879348755	pulse	1	t		59.0	2.5	/experiments/AOT/AOT_stimuli/rescaled_final/0539_rv.mp4	0.0	289.41949701309204	
61	269.6489019393921	pulse	1	t		59.0	2.5	/experiments/AOT/AOT_stimuli/rescaled_final/0539_rv.mp4	0.0	291.01971101760864	
61	270.1650848388672	fix_post	2		12	59.0	2.5	/experiments/AOT/AOT_stimuli/rescaled_final/0539_rv.mp4	0.0	291.53589391708374	0.1003270149230957
62	270.2654118537903	fix_pre	0		119	60.0	2.5	/experiments/AOT/AOT_stimuli/rescaled_final/0955_fw.mp4	0.0	291.63622093200684	0.9915390014648438
62	271.24891996383667	pulse	0	t		60.0	2.5	/experiments/AOT/AOT_stimuli/rescaled_final/0955_fw.mp4	0.0	292.6197290420532	
62	271.2569508552551	movie	1		243	60.0	2.5	/experiments/AOT/AOT_stimuli/rescaled_final/0955_fw.mp4	0.0	292.6277599334717	2.5081000328063965
62	272.8505229949951	pulse	1	t		60.0	2.5	/experiments/AOT/AOT_stimuli/rescaled_final/0955_fw.mp4	0.0	294.22133207321167	
62	273.7650508880615	fix_post	2		12	60.0	2.5	/experiments/AOT/AOT_stimuli/rescaled_final/0955_fw.mp4	0.0	295.1358599662781	0.10034704208374023
63	273.86539793014526	fix_pre	0		120	61.0	2.5	/experiments/AOT/AOT_stimuli/rescaled_final/1593_fw.mp4	0.0	295.2362070083618	0.9996581077575684
63	274.4488399028778	pulse	0	t		61.0	2.5	/experiments/AOT/AOT_stimuli/rescaled_final/1593_fw.mp4	0.0	295.81964898109436	
63	274.86505603790283	movie	1		244	61.0	2.5	/experiments/AOT/AOT_stimuli/rescaled_final/1593_fw.mp4	0.0	296.2358651161194	2.4998748302459717
63	276.0488979816437	pulse	1	t		61.0	2.5	/experiments/AOT/AOT_stimuli/rescaled_final/1593_fw.mp4	0.0	297.41970705986023	
63	277.3649308681488	fix_post	2		12	61.0	2.5	/experiments/AOT/AOT_stimuli/rescaled_final/1593_fw.mp4	0.0	298.73573994636536	0.10048699378967285
64	277.4654178619385	fix_pre	0		120	62.0	2.5	blank	1.0	298.83622694015503	0.9998819828033447
64	277.6488139629364	pulse	0	t		62.0	2.5	blank	1.0	299.01962304115295	
64	278.4652998447418	movie	1		300	62.0	2.5	blank	1.0	299.8361089229584	2.5000290870666504
64	279.248811006546	pulse	1	t		62.0	2.5	blank	1.0	300.6196200847626	
64	280.8487329483032	pulse	1	t		62.0	2.5	blank	1.0	302.2195420265198	
64	280.9653289318085	fix_post	2		12	62.0	2.5	blank	1.0	302.336138010025	0.10004901885986328
65	281.06537795066833	fix_pre	0		120	63.0	2.5	/experiments/AOT/AOT_stimuli/rescaled_final/1090_fw.mp4	0.0	302.4361870288849	0.9999849796295166
65	282.06536293029785	movie	1		244	63.0	2.5	/experiments/AOT/AOT_stimuli/rescaled_final/1090_fw.mp4	0.0	303.4361720085144	2.499591112136841
65	282.4498870372772	pulse	1	t		63.0	2.5	/experiments/AOT/AOT_stimuli/rescaled_final/1090_fw.mp4	0.0	303.8206961154938	
65	284.048446893692	pulse	1	t		63.0	2.5	/experiments/AOT/AOT_stimuli/rescaled_final/1090_fw.mp4	0.0	305.41925597190857	
65	284.5649540424347	fix_post	2		12	63.0	2.5	/experiments/AOT/AOT_stimuli/rescaled_final/1090_fw.mp4	0.0	305.93576312065125	0.09999489784240723
66	284.6649489402771	fix_pre	0		119	64.0	2.5	/experiments/AOT/AOT_stimuli/rescaled_final/2029_fw.mp4	0.0	306.03575801849365	0.9921948909759521
66	285.64890599250793	pulse	0	t		64.0	2.5	/experiments/AOT/AOT_stimuli/rescaled_final/2029_fw.mp4	0.0	307.0197150707245	
66	285.65714383125305	movie	1		248	64.0	2.5	/experiments/AOT/AOT_stimuli/rescaled_final/2029_fw.mp4	0.0	307.0279529094696	2.508190155029297
66	287.24828004837036	pulse	1	t		64.0	2.5	/experiments/AOT/AOT_stimuli/rescaled_final/2029_fw.mp4	0.0	308.6190891265869	
66	288.16533398628235	fix_post	2		12	64.0	2.5	/experiments/AOT/AOT_stimuli/rescaled_final/2029_fw.mp4	0.0	309.5361430644989	0.10002803802490234
67	288.26536202430725	fix_pre	0		120	65.0	2.5	/experiments/AOT/AOT_stimuli/rescaled_final/0821_rv.mp4	0.0	309.6361711025238	0.9999468326568604
67	288.8488049507141	pulse	0	t		65.0	2.5	/experiments/AOT/AOT_stimuli/rescaled_final/0821_rv.mp4	0.0	310.21961402893066	
67	289.2653088569641	movie	1		245	65.0	2.5	/experiments/AOT/AOT_stimuli/rescaled_final/0821_rv.mp4	0.0	310.63611793518066	2.4996321201324463
67	290.44875502586365	pulse	1	t		65.0	2.5	/experiments/AOT/AOT_stimuli/rescaled_final/0821_rv.mp4	0.0	311.8195641040802	
67	291.76494097709656	fix_post	2		12	65.0	2.5	/experiments/AOT/AOT_stimuli/rescaled_final/0821_rv.mp4	0.0	313.1357500553131	0.09990692138671875
68	291.8648478984833	fix_pre	0		120	66.0	2.5	/experiments/AOT/AOT_stimuli/rescaled_final/1117_fw.mp4	0.0	313.23565697669983	1.0000050067901611
68	292.04872488975525	pulse	0	t		66.0	2.5	/experiments/AOT/AOT_stimuli/rescaled_final/1117_fw.mp4	0.0	313.4195339679718	
68	292.86485290527344	movie	1		246	66.0	2.5	/experiments/AOT/AOT_stimuli/rescaled_final/1117_fw.mp4	0.0	314.23566198349	2.500056028366089
68	293.6487510204315	pulse	1	t		66.0	2.5	/experiments/AOT/AOT_stimuli/rescaled_final/1117_fw.mp4	0.0	315.01956009864807	
68	295.2473509311676	pulse	1	t		66.0	2.5	/experiments/AOT/AOT_stimuli/rescaled_final/1117_fw.mp4	0.0	316.61816000938416	
68	295.3649089336395	fix_post	2		12	66.0	2.5	/experiments/AOT/AOT_stimuli/rescaled_final/1117_fw.mp4	0.0	316.7357180118561	0.09997892379760742
69	295.46488785743713	fix_pre	0		120	67.0	2.5	/experiments/AOT/AOT_stimuli/rescaled_final/1708_rv.mp4	0.0	316.8356969356537	1.000378131866455
69	296.4652659893036	movie	1		247	67.0	2.5	/experiments/AOT/AOT_stimuli/rescaled_final/1708_rv.mp4	0.0	317.83607506752014	2.4999749660491943
69	296.8488218784332	pulse	1	t		67.0	2.5	/experiments/AOT/AOT_stimuli/rescaled_final/1708_rv.mp4	0.0	318.2196309566498	
69	298.44881987571716	pulse	1	t		67.0	2.5	/experiments/AOT/AOT_stimuli/rescaled_final/1708_rv.mp4	0.0	319.8196289539337	
69	298.9652409553528	fix_post	2		12	67.0	2.5	/experiments/AOT/AOT_stimuli/rescaled_final/1708_rv.mp4	0.0	320.33605003356934	0.10005402565002441
70	299.0652949810028	fix_pre	0		119	68.0	2.5	blank	1.0	320.43610405921936	0.9916398525238037
70	300.048712015152	pulse	0	t		68.0	2.5	blank	1.0	321.41952109336853	
70	300.0569348335266	movie	1		301	68.0	2.5	blank	1.0	321.42774391174316	2.5083742141723633
70	301.6487739086151	pulse	1	t		68.0	2.5	blank	1.0	323.01958298683167	
70	302.565309047699	fix_post	2		12	68.0	2.5	blank	1.0	323.9361181259155	0.09999299049377441
71	302.66530203819275	fix_pre	0		120	69.0	2.5	/experiments/AOT/AOT_stimuli/rescaled_final/0535_fw.mp4	0.0	324.0361111164093	0.9999148845672607
71	303.24873185157776	pulse	0	t		69.0	2.5	/experiments/AOT/AOT_stimuli/rescaled_final/0535_fw.mp4	0.0	324.6195409297943	
71	303.66521692276	movie	1		244	69.0	2.5	/experiments/AOT/AOT_stimuli/rescaled_final/0535_fw.mp4	0.0	325.03602600097656	2.499936103820801
71	304.84875202178955	pulse	1	t		69.0	2.5	/experiments/AOT/AOT_stimuli/rescaled_final/0535_fw.mp4	0.0	326.2195611000061	
71	306.1651530265808	fix_post	2		12	69.0	2.5	/experiments/AOT/AOT_stimuli/rescaled_final/0535_fw.mp4	0.0	327.53596210479736	0.10009193420410156
72	306.2652449607849	fix_pre	0		120	70.0	2.5	/experiments/AOT/AOT_stimuli/rescaled_final/0959_fw.mp4	0.0	327.63605403900146	1.0000169277191162
72	306.44869589805603	pulse	0	t		70.0	2.5	/experiments/AOT/AOT_stimuli/rescaled_final/0959_fw.mp4	0.0	327.8195049762726	
72	307.265261888504	movie	1		246	70.0	2.5	/experiments/AOT/AOT_stimuli/rescaled_final/0959_fw.mp4	0.0	328.6360709667206	2.4997310638427734
72	308.0487058162689	pulse	1	t		70.0	2.5	/experiments/AOT/AOT_stimuli/rescaled_final/0959_fw.mp4	0.0	329.4195148944855	
72	309.6476650238037	pulse	1	t		70.0	2.5	/experiments/AOT/AOT_stimuli/rescaled_final/0959_fw.mp4	0.0	331.01847410202026	
72	309.7649929523468	fix_post	2		12	70.0	2.5	/experiments/AOT/AOT_stimuli/rescaled_final/0959_fw.mp4	0.0	331.13580203056335	0.10018706321716309
73	309.86518001556396	fix_pre	0		120	71.0	2.5	/experiments/AOT/AOT_stimuli/rescaled_final/1403_rv.mp4	0.0	331.2359890937805	0.9995899200439453
73	310.8647699356079	movie	1		248	71.0	2.5	/experiments/AOT/AOT_stimuli/rescaled_final/1403_rv.mp4	0.0	332.23557901382446	2.500377893447876
73	311.2482259273529	pulse	1	t		71.0	2.5	/experiments/AOT/AOT_stimuli/rescaled_final/1403_rv.mp4	0.0	332.61903500556946	
73	312.8487160205841	pulse	1	t		71.0	2.5	/experiments/AOT/AOT_stimuli/rescaled_final/1403_rv.mp4	0.0	334.21952509880066	
73	313.3651478290558	fix_post	2		12	71.0	2.5	/experiments/AOT/AOT_stimuli/rescaled_final/1403_rv.mp4	0.0	334.73595690727234	0.09999608993530273
74	313.4651439189911	fix_pre	0		119	72.0	2.5	/experiments/AOT/AOT_stimuli/rescaled_final/0167_fw.mp4	0.0	334.83595299720764	0.9917640686035156
74	314.44865894317627	pulse	0	t		72.0	2.5	/experiments/AOT/AOT_stimuli/rescaled_final/0167_fw.mp4	0.0	335.8194680213928	
74	314.4569079875946	movie	1		245	72.0	2.5	/experiments/AOT/AOT_stimuli/rescaled_final/0167_fw.mp4	0.0	335.82771706581116	2.508236885070801
74	316.04832196235657	pulse	1	t		72.0	2.5	/experiments/AOT/AOT_stimuli/rescaled_final/0167_fw.mp4	0.0	337.4191310405731	
74	316.9651448726654	fix_post	2		12	72.0	2.5	/experiments/AOT/AOT_stimuli/rescaled_final/0167_fw.mp4	0.0	338.33595395088196	0.0999760627746582
75	317.06512093544006	fix_pre	0		120	73.0	2.5	/experiments/AOT/AOT_stimuli/rescaled_final/0900_rv.mp4	0.0	338.4359300136566	1.0000360012054443
75	317.64872193336487	pulse	0	t		73.0	2.5	/experiments/AOT/AOT_stimuli/rescaled_final/0900_rv.mp4	0.0	339.0195310115814	
75	318.0651569366455	movie	1		246	73.0	2.5	/experiments/AOT/AOT_stimuli/rescaled_final/0900_rv.mp4	0.0	339.43596601486206	2.499567985534668
75	319.24879789352417	pulse	1	t		73.0	2.5	/experiments/AOT/AOT_stimuli/rescaled_final/0900_rv.mp4	0.0	340.6196069717407	
75	320.5647249221802	fix_post	2		12	73.0	2.5	/experiments/AOT/AOT_stimuli/rescaled_final/0900_rv.mp4	0.0	341.93553400039673	0.10004210472106934
76	320.66476702690125	fix_pre	0		120	74.0	2.5	/experiments/AOT/AOT_stimuli/rescaled_final/1521_fw.mp4	0.0	342.0355761051178	1.0003998279571533
76	320.84866285324097	pulse	0	t		74.0	2.5	/experiments/AOT/AOT_stimuli/rescaled_final/1521_fw.mp4	0.0	342.2194719314575	
76	321.6651668548584	movie	1		246	74.0	2.5	/experiments/AOT/AOT_stimuli/rescaled_final/1521_fw.mp4	0.0	343.03597593307495	2.5000011920928955
76	322.44884395599365	pulse	1	t		74.0	2.5	/experiments/AOT/AOT_stimuli/rescaled_final/1521_fw.mp4	0.0	343.8196530342102	
76	324.0486869812012	pulse	1	t		74.0	2.5	/experiments/AOT/AOT_stimuli/rescaled_final/1521_fw.mp4	0.0	345.4194960594177	
76	324.1651680469513	fix_post	2		12	74.0	2.5	/experiments/AOT/AOT_stimuli/rescaled_final/1521_fw.mp4	0.0	345.53597712516785	0.09992289543151855
77	324.2650909423828	fix_pre	0		120	75.0	2.5	/experiments/AOT/AOT_stimuli/rescaled_final/0472_fw.mp4	0.0	345.63590002059937	0.9999940395355225
77	325.26508498191833	movie	1		247	75.0	2.5	/experiments/AOT/AOT_stimuli/rescaled_final/0472_fw.mp4	0.0	346.6358940601349	2.499600887298584
77	325.64810585975647	pulse	1	t		75.0	2.5	/experiments/AOT/AOT_stimuli/rescaled_final/0472_fw.mp4	0.0	347.018914937973	
77	327.2486128807068	pulse	1	t		75.0	2.5	/experiments/AOT/AOT_stimuli/rescaled_final/0472_fw.mp4	0.0	348.61942195892334	
77	327.7646858692169	fix_post	2		12	75.0	2.5	/experiments/AOT/AOT_stimuli/rescaled_final/0472_fw.mp4	0.0	349.1354949474335	0.10049104690551758
78	327.86517691612244	fix_pre	0		119	76.0	2.5	/experiments/AOT/AOT_stimuli/rescaled_final/1708_rv.mp4	0.0	349.235985994339	0.9916400909423828
78	328.848659992218	pulse	0	t		76.0	2.5	/experiments/AOT/AOT_stimuli/rescaled_final/1708_rv.mp4	0.0	350.21946907043457	
78	328.8568170070648	movie	1		246	76.0	2.5	/experiments/AOT/AOT_stimuli/rescaled_final/1708_rv.mp4	0.0	350.2276260852814	2.5078940391540527
78	330.44851303100586	pulse	1	t		76.0	2.5	/experiments/AOT/AOT_stimuli/rescaled_final/1708_rv.mp4	0.0	351.8193221092224	
78	331.3647110462189	fix_post	2		12	76.0	2.5	/experiments/AOT/AOT_stimuli/rescaled_final/1708_rv.mp4	0.0	352.7355201244354	0.09995579719543457
79	331.4646668434143	fix_pre	0		120	77.0	2.5	blank	1.0	352.83547592163086	1.0004351139068604
79	332.04863691329956	pulse	0	t		77.0	2.5	blank	1.0	353.4194459915161	
79	332.46510195732117	movie	1		300	77.0	2.5	blank	1.0	353.8359110355377	2.499985933303833
79	333.64860796928406	pulse	1	t		77.0	2.5	blank	1.0	355.0194170475006	
79	334.965087890625	fix_post	2		12	77.0	2.5	blank	1.0	356.33589696884155	0.0999441146850586
80	335.06503200531006	fix_pre	0		120	78.0	2.5	/experiments/AOT/AOT_stimuli/rescaled_final/0417_rv.mp4	0.0	356.4358410835266	0.9995880126953125
80	335.2486159801483	pulse	0	t		78.0	2.5	/experiments/AOT/AOT_stimuli/rescaled_final/0417_rv.mp4	0.0	356.61942505836487	
80	336.06462001800537	movie	1		244	78.0	2.5	/experiments/AOT/AOT_stimuli/rescaled_final/0417_rv.mp4	0.0	357.4354290962219	2.5004749298095703
80	336.84861397743225	pulse	1	t		78.0	2.5	/experiments/AOT/AOT_stimuli/rescaled_final/0417_rv.mp4	0.0	358.2194230556488	
80	338.4447269439697	pulse	1	t		78.0	2.5	/experiments/AOT/AOT_stimuli/rescaled_final/0417_rv.mp4	0.0	359.8155360221863	
80	338.56509494781494	fix_post	2		12	78.0	2.5	/experiments/AOT/AOT_stimuli/rescaled_final/0417_rv.mp4	0.0	359.9359040260315	0.09993195533752441
81	338.66502690315247	fix_pre	0		120	79.0	2.5	/experiments/AOT/AOT_stimuli/rescaled_final/2059_rv.mp4	0.0	360.035835981369	1.000128984451294
81	339.66515588760376	movie	1		249	79.0	2.5	/experiments/AOT/AOT_stimuli/rescaled_final/2059_rv.mp4	0.0	361.0359649658203	2.499765157699585
81	340.0476279258728	pulse	1	t		79.0	2.5	/experiments/AOT/AOT_stimuli/rescaled_final/2059_rv.mp4	0.0	361.41843700408936	
81	341.64824295043945	pulse	1	t		79.0	2.5	/experiments/AOT/AOT_stimuli/rescaled_final/2059_rv.mp4	0.0	363.019052028656	
81	342.16492104530334	fix_post	2		12	79.0	2.5	/experiments/AOT/AOT_stimuli/rescaled_final/2059_rv.mp4	0.0	363.5357301235199	0.10012698173522949
82	342.2650480270386	fix_pre	0		119	80.0	2.5	/experiments/AOT/AOT_stimuli/rescaled_final/1042_fw.mp4	0.0	363.6358571052551	0.991675853729248
82	343.2485349178314	pulse	0	t		80.0	2.5	/experiments/AOT/AOT_stimuli/rescaled_final/1042_fw.mp4	0.0	364.619343996048	
82	343.2567238807678	movie	1		246	80.0	2.5	/experiments/AOT/AOT_stimuli/rescaled_final/1042_fw.mp4	0.0	364.6275329589844	2.508355140686035
82	344.84870982170105	pulse	1	t		80.0	2.5	/experiments/AOT/AOT_stimuli/rescaled_final/1042_fw.mp4	0.0	366.2195188999176	
82	345.76507902145386	fix_post	2		12	80.0	2.5	/experiments/AOT/AOT_stimuli/rescaled_final/1042_fw.mp4	0.0	367.1358880996704	0.09998393058776855
83	345.8650629520416	fix_pre	0		120	81.0	2.5	/experiments/AOT/AOT_stimuli/rescaled_final/1446_fw.mp4	0.0	367.2358720302582	1.0000009536743164
83	346.44854187965393	pulse	0	t		81.0	2.5	/experiments/AOT/AOT_stimuli/rescaled_final/1446_fw.mp4	0.0	367.8193509578705	
83	346.86506390571594	movie	1		245	81.0	2.5	/experiments/AOT/AOT_stimuli/rescaled_final/1446_fw.mp4	0.0	368.2358729839325	2.499948024749756
83	348.048467874527	pulse	1	t		81.0	2.5	/experiments/AOT/AOT_stimuli/rescaled_final/1446_fw.mp4	0.0	369.41927695274353	
83	349.3650119304657	fix_post	2		12	81.0	2.5	/experiments/AOT/AOT_stimuli/rescaled_final/1446_fw.mp4	0.0	370.73582100868225	0.10000109672546387
84	349.46501302719116	fix_pre	0		120	82.0	2.5	/experiments/AOT/AOT_stimuli/rescaled_final/0870_rv.mp4	0.0	370.8358221054077	0.999957799911499
84	349.6484899520874	pulse	0	t		82.0	2.5	/experiments/AOT/AOT_stimuli/rescaled_final/0870_rv.mp4	0.0	371.01929903030396	
84	350.46497082710266	movie	1		244	82.0	2.5	/experiments/AOT/AOT_stimuli/rescaled_final/0870_rv.mp4	0.0	371.8357799053192	2.499613046646118
84	351.2484509944916	pulse	1	t		82.0	2.5	/experiments/AOT/AOT_stimuli/rescaled_final/0870_rv.mp4	0.0	372.61926007270813	
84	352.8469898700714	pulse	1	t		82.0	2.5	/experiments/AOT/AOT_stimuli/rescaled_final/0870_rv.mp4	0.0	374.21779894828796	
84	352.9645838737488	fix_post	2		12	82.0	2.5	/experiments/AOT/AOT_stimuli/rescaled_final/0870_rv.mp4	0.0	374.33539295196533	0.1004791259765625
85	353.06506299972534	fix_pre	0		120	83.0	2.5	blank	1.0	374.4358720779419	0.9998958110809326
85	354.0649588108063	movie	1		300	83.0	2.5	blank	1.0	375.4357678890228	2.499603033065796
85	354.4485139846802	pulse	1	t		83.0	2.5	blank	1.0	375.81932306289673	
85	356.0485939979553	pulse	1	t		83.0	2.5	blank	1.0	377.4194030761719	
85	356.56456184387207	fix_post	2		12	83.0	2.5	blank	1.0	377.9353709220886	0.09999418258666992
87	356.66455602645874	stim	0		1716					378.0353651046753	14.300431966781616
87	357.6484990119934	pulse	0	t						379.01930809020996	
87	359.248517036438	pulse	0	t						380.61932611465454	
87	360.8483898639679	pulse	0	t						382.21919894218445	
87	362.44851899147034	pulse	0	t						383.8193280696869	
87	364.0484278202057	pulse	0	t						385.41923689842224	
87	365.6483778953552	pulse	0	t						387.0191869735718	
87	367.2483448982239	pulse	0	t						388.61915397644043	
87	368.84840202331543	pulse	0	t						390.219211101532	
87	370.44842004776	pulse	0	t						391.81922912597656	
