trial_nr	onset	event_type	phase	response	nr_frames	movie_index	movie_duration	movie_file	blank	onset_abs	duration
0	0.13329505920410156	stim	0		17					20.949996948242188	0.14159488677978516
0	0.2668161392211914	response	0	space						21.083518028259277	
1	0.2748899459838867	stim	0		4911					21.091591835021973	40.924702167510986
1	41.19456696510315	pulse	0	t						62.011268854141235	
1	41.19959211349487	stim	1		1717					62.01629400253296	14.308382987976074
1	42.79161596298218	pulse	1	t						63.608317852020264	
1	44.39159893989563	pulse	1	t						65.20830082893372	
1	45.991533041000366	pulse	1	t						66.80823493003845	
1	47.5915470123291	pulse	1	t						68.40824890136719	
1	49.19145607948303	pulse	1	t						70.00815796852112	
1	50.791414976119995	pulse	1	t						71.60811686515808	
1	52.39145612716675	pulse	1	t						73.20815801620483	
1	53.99149012565613	pulse	1	t						74.80819201469421	
2	55.50797510147095	fix_pre	0		11	0.0	2.5	/experiments/AOT/AOT_stimuli/rescaled_final/1859_rv.mp4	0.0	76.32467699050903	0.09164881706237793
2	55.5915310382843	pulse	0	t		0.0	2.5	/experiments/AOT/AOT_stimuli/rescaled_final/1859_rv.mp4	0.0	76.40823292732239	
2	55.599623918533325	movie	1		245	0.0	2.5	/experiments/AOT/AOT_stimuli/rescaled_final/1859_rv.mp4	0.0	76.41632580757141	2.508254051208496
2	57.191527128219604	pulse	1	t		0.0	2.5	/experiments/AOT/AOT_stimuli/rescaled_final/1859_rv.mp4	0.0	78.00822901725769	
2	58.10787796974182	fix_post	2		12	0.0	2.5	/experiments/AOT/AOT_stimuli/rescaled_final/1859_rv.mp4	0.0	78.92457985877991	0.10009598731994629
3	58.20797395706177	fix_pre	0		120	1.0	2.5	/experiments/AOT/AOT_stimuli/rescaled_final/1940_rv.mp4	0.0	79.02467584609985	0.9999790191650391
3	58.791523933410645	pulse	0	t		1.0	2.5	/experiments/AOT/AOT_stimuli/rescaled_final/1940_rv.mp4	0.0	79.60822582244873	
3	59.20795297622681	movie	1		245	1.0	2.5	/experiments/AOT/AOT_stimuli/rescaled_final/1940_rv.mp4	0.0	80.02465486526489	2.4996280670166016
3	60.391485929489136	pulse	1	t		1.0	2.5	/experiments/AOT/AOT_stimuli/rescaled_final/1940_rv.mp4	0.0	81.20818781852722	
3	61.70758104324341	fix_post	2		12	1.0	2.5	/experiments/AOT/AOT_stimuli/rescaled_final/1940_rv.mp4	0.0	82.5242829322815	0.10039591789245605
4	61.807976961135864	fix_pre	0		120	2.0	2.5	/experiments/AOT/AOT_stimuli/rescaled_final/2020_fw.mp4	0.0	82.62467885017395	1.000067949295044
4	61.991400957107544	pulse	0	t		2.0	2.5	/experiments/AOT/AOT_stimuli/rescaled_final/2020_fw.mp4	0.0	82.80810284614563	
4	62.80804491043091	movie	1		244	2.0	2.5	/experiments/AOT/AOT_stimuli/rescaled_final/2020_fw.mp4	0.0	83.624746799469	2.4998250007629395
4	63.59146213531494	pulse	1	t		2.0	2.5	/experiments/AOT/AOT_stimuli/rescaled_final/2020_fw.mp4	0.0	84.40816402435303	
4	65.18972301483154	pulse	1	t		2.0	2.5	/experiments/AOT/AOT_stimuli/rescaled_final/2020_fw.mp4	0.0	86.00642490386963	
4	65.30786991119385	fix_post	2		12	2.0	2.5	/experiments/AOT/AOT_stimuli/rescaled_final/2020_fw.mp4	0.0	86.12457180023193	0.10007309913635254
5	65.4079430103302	fix_pre	0		120	3.0	2.5	/experiments/AOT/AOT_stimuli/rescaled_final/1458_rv.mp4	0.0	86.22464489936829	0.9999730587005615
5	66.40791606903076	movie	1		246	3.0	2.5	/experiments/AOT/AOT_stimuli/rescaled_final/1458_rv.mp4	0.0	87.22461795806885	2.4999749660491943
5	66.79107594490051	pulse	1	t		3.0	2.5	/experiments/AOT/AOT_stimuli/rescaled_final/1458_rv.mp4	0.0	87.6077778339386	
5	68.39136409759521	pulse	1	t		3.0	2.5	/experiments/AOT/AOT_stimuli/rescaled_final/1458_rv.mp4	0.0	89.2080659866333	
5	68.90789103507996	fix_post	2		12	3.0	2.5	/experiments/AOT/AOT_stimuli/rescaled_final/1458_rv.mp4	0.0	89.72459292411804	0.09998607635498047
6	69.00787711143494	fix_pre	0		119	4.0	2.5	/experiments/AOT/AOT_stimuli/rescaled_final/0840_fw.mp4	0.0	89.82457900047302	0.991703987121582
6	69.991455078125	pulse	0	t		4.0	2.5	/experiments/AOT/AOT_stimuli/rescaled_final/0840_fw.mp4	0.0	90.80815696716309	
6	69.99958109855652	movie	1		247	4.0	2.5	/experiments/AOT/AOT_stimuli/rescaled_final/0840_fw.mp4	0.0	90.8162829875946	2.507866859436035
6	71.5922679901123	pulse	1	t		4.0	2.5	/experiments/AOT/AOT_stimuli/rescaled_final/0840_fw.mp4	0.0	92.40896987915039	
6	72.50744795799255	fix_post	2		12	4.0	2.5	/experiments/AOT/AOT_stimuli/rescaled_final/0840_fw.mp4	0.0	93.32414984703064	0.10042715072631836
7	72.60787510871887	fix_pre	0		120	5.0	2.5	/experiments/AOT/AOT_stimuli/rescaled_final/1478_fw.mp4	0.0	93.42457699775696	1.0000159740447998
7	73.19139909744263	pulse	0	t		5.0	2.5	/experiments/AOT/AOT_stimuli/rescaled_final/1478_fw.mp4	0.0	94.00810098648071	
7	73.60789108276367	movie	1		243	5.0	2.5	/experiments/AOT/AOT_stimuli/rescaled_final/1478_fw.mp4	0.0	94.42459297180176	2.5000150203704834
7	74.79147100448608	pulse	1	t		5.0	2.5	/experiments/AOT/AOT_stimuli/rescaled_final/1478_fw.mp4	0.0	95.60817289352417	
7	76.10790610313416	fix_post	2		12	5.0	2.5	/experiments/AOT/AOT_stimuli/rescaled_final/1478_fw.mp4	0.0	96.92460799217224	0.1000528335571289
8	76.20795893669128	fix_pre	0		120	6.0	2.5	/experiments/AOT/AOT_stimuli/rescaled_final/1890_rv.mp4	0.0	97.02466082572937	0.9995541572570801
8	76.39142608642578	pulse	0	t		6.0	2.5	/experiments/AOT/AOT_stimuli/rescaled_final/1890_rv.mp4	0.0	97.20812797546387	
8	77.20751309394836	movie	1		243	6.0	2.5	/experiments/AOT/AOT_stimuli/rescaled_final/1890_rv.mp4	0.0	98.02421498298645	2.500349998474121
8	77.99137711524963	pulse	1	t		6.0	2.5	/experiments/AOT/AOT_stimuli/rescaled_final/1890_rv.mp4	0.0	98.80807900428772	
8	79.58993291854858	pulse	1	t		6.0	2.5	/experiments/AOT/AOT_stimuli/rescaled_final/1890_rv.mp4	0.0	100.40663480758667	
8	79.70786309242249	fix_post	2		12	6.0	2.5	/experiments/AOT/AOT_stimuli/rescaled_final/1890_rv.mp4	0.0	100.52456498146057	0.09998893737792969
9	79.80785202980042	fix_pre	0		120	7.0	2.5	blank	1.0	100.6245539188385	1.0000050067901611
9	80.80785703659058	movie	1		300	7.0	2.5	blank	1.0	101.62455892562866	2.500062942504883
9	81.19138193130493	pulse	1	t		7.0	2.5	blank	1.0	102.00808382034302	
9	82.79137301445007	pulse	1	t		7.0	2.5	blank	1.0	103.60807490348816	
9	83.30791997909546	fix_post	2		12	7.0	2.5	blank	1.0	104.12462186813354	0.09992504119873047
10	83.40784502029419	fix_pre	0		119	8.0	2.5	/experiments/AOT/AOT_stimuli/rescaled_final/0984_rv.mp4	0.0	104.22454690933228	0.9916911125183105
10	84.39129900932312	pulse	0	t		8.0	2.5	/experiments/AOT/AOT_stimuli/rescaled_final/0984_rv.mp4	0.0	105.2080008983612	
10	84.3995361328125	movie	1		243	8.0	2.5	/experiments/AOT/AOT_stimuli/rescaled_final/0984_rv.mp4	0.0	105.21623802185059	2.508356809616089
10	85.99089407920837	pulse	1	t		8.0	2.5	/experiments/AOT/AOT_stimuli/rescaled_final/0984_rv.mp4	0.0	106.80759596824646	
10	86.90789294242859	fix_post	2		12	8.0	2.5	/experiments/AOT/AOT_stimuli/rescaled_final/0984_rv.mp4	0.0	107.72459483146667	0.10009098052978516
11	87.00798392295837	fix_pre	0		120	9.0	2.5	/experiments/AOT/AOT_stimuli/rescaled_final/0573_rv.mp4	0.0	107.82468581199646	0.9999170303344727
11	87.59137606620789	pulse	0	t		9.0	2.5	/experiments/AOT/AOT_stimuli/rescaled_final/0573_rv.mp4	0.0	108.40807795524597	
11	88.00790095329285	movie	1		246	9.0	2.5	/experiments/AOT/AOT_stimuli/rescaled_final/0573_rv.mp4	0.0	108.82460284233093	2.4999430179595947
11	89.1914529800415	pulse	1	t		9.0	2.5	/experiments/AOT/AOT_stimuli/rescaled_final/0573_rv.mp4	0.0	110.00815486907959	
11	90.50784397125244	fix_post	2		12	9.0	2.5	/experiments/AOT/AOT_stimuli/rescaled_final/0573_rv.mp4	0.0	111.32454586029053	0.09999704360961914
12	90.60784101486206	fix_pre	0		120	10.0	2.5	/experiments/AOT/AOT_stimuli/rescaled_final/1882_rv.mp4	0.0	111.42454290390015	1.0000810623168945
12	90.79133200645447	pulse	0	t		10.0	2.5	/experiments/AOT/AOT_stimuli/rescaled_final/1882_rv.mp4	0.0	111.60803389549255	
12	91.60792207717896	movie	1		243	10.0	2.5	/experiments/AOT/AOT_stimuli/rescaled_final/1882_rv.mp4	0.0	112.42462396621704	2.4998910427093506
12	92.39129209518433	pulse	1	t		10.0	2.5	/experiments/AOT/AOT_stimuli/rescaled_final/1882_rv.mp4	0.0	113.20799398422241	
12	93.98961400985718	pulse	1	t		10.0	2.5	/experiments/AOT/AOT_stimuli/rescaled_final/1882_rv.mp4	0.0	114.80631589889526	
12	94.1078131198883	fix_post	2		12	10.0	2.5	/experiments/AOT/AOT_stimuli/rescaled_final/1882_rv.mp4	0.0	114.92451500892639	0.10003495216369629
13	94.207848072052	fix_pre	0		120	11.0	2.5	/experiments/AOT/AOT_stimuli/rescaled_final/0815_rv.mp4	0.0	115.02454996109009	0.9996399879455566
13	95.20748805999756	movie	1		243	11.0	2.5	/experiments/AOT/AOT_stimuli/rescaled_final/0815_rv.mp4	0.0	116.02418994903564	2.5007920265197754
13	95.5907199382782	pulse	1	t		11.0	2.5	/experiments/AOT/AOT_stimuli/rescaled_final/0815_rv.mp4	0.0	116.40742182731628	
13	97.19113802909851	pulse	1	t		11.0	2.5	/experiments/AOT/AOT_stimuli/rescaled_final/0815_rv.mp4	0.0	118.0078399181366	
13	97.70828008651733	fix_post	2		12	11.0	2.5	/experiments/AOT/AOT_stimuli/rescaled_final/0815_rv.mp4	0.0	118.52498197555542	0.09907293319702148
14	97.80735301971436	fix_pre	0		119	12.0	2.5	blank	1.0	118.62405490875244	0.992156982421875
14	98.79137110710144	pulse	0	t		12.0	2.5	blank	1.0	119.60807299613953	
14	98.79951000213623	movie	1		301	12.0	2.5	blank	1.0	119.61621189117432	2.5082859992980957
14	100.39125514030457	pulse	1	t		12.0	2.5	blank	1.0	121.20795702934265	
14	101.30779600143433	fix_post	2		12	12.0	2.5	blank	1.0	122.12449789047241	0.1000969409942627
15	101.40789294242859	fix_pre	0		120	13.0	2.5	/experiments/AOT/AOT_stimuli/rescaled_final/0498_fw.mp4	0.0	122.22459483146667	0.9999210834503174
15	101.99128293991089	pulse	0	t		13.0	2.5	/experiments/AOT/AOT_stimuli/rescaled_final/0498_fw.mp4	0.0	122.80798482894897	
15	102.4078140258789	movie	1		245	13.0	2.5	/experiments/AOT/AOT_stimuli/rescaled_final/0498_fw.mp4	0.0	123.22451591491699	2.499908924102783
15	103.59133696556091	pulse	1	t		13.0	2.5	/experiments/AOT/AOT_stimuli/rescaled_final/0498_fw.mp4	0.0	124.408038854599	
15	104.90772294998169	fix_post	2		12	13.0	2.5	/experiments/AOT/AOT_stimuli/rescaled_final/0498_fw.mp4	0.0	125.72442483901978	0.09998798370361328
16	105.0077109336853	fix_pre	0		120	14.0	2.5	/experiments/AOT/AOT_stimuli/rescaled_final/1110_fw.mp4	0.0	125.82441282272339	0.9999680519104004
16	105.19126105308533	pulse	0	t		14.0	2.5	/experiments/AOT/AOT_stimuli/rescaled_final/1110_fw.mp4	0.0	126.00796294212341	
16	106.0076789855957	movie	1		246	14.0	2.5	/experiments/AOT/AOT_stimuli/rescaled_final/1110_fw.mp4	0.0	126.82438087463379	2.4996440410614014
16	106.7913269996643	pulse	1	t		14.0	2.5	/experiments/AOT/AOT_stimuli/rescaled_final/1110_fw.mp4	0.0	127.60802888870239	
16	108.38959693908691	pulse	1	t		14.0	2.5	/experiments/AOT/AOT_stimuli/rescaled_final/1110_fw.mp4	0.0	129.206298828125	
16	108.5073230266571	fix_post	2		12	14.0	2.5	/experiments/AOT/AOT_stimuli/rescaled_final/1110_fw.mp4	0.0	129.3240249156952	0.10037398338317871
17	108.60769701004028	fix_pre	0		120	15.0	2.5	/experiments/AOT/AOT_stimuli/rescaled_final/2179_fw.mp4	0.0	129.42439889907837	0.999985933303833
17	109.60768294334412	movie	1		246	15.0	2.5	/experiments/AOT/AOT_stimuli/rescaled_final/2179_fw.mp4	0.0	130.4243848323822	2.4995620250701904
17	109.99093103408813	pulse	1	t		15.0	2.5	/experiments/AOT/AOT_stimuli/rescaled_final/2179_fw.mp4	0.0	130.80763292312622	
17	111.59140801429749	pulse	1	t		15.0	2.5	/experiments/AOT/AOT_stimuli/rescaled_final/2179_fw.mp4	0.0	132.40810990333557	
17	112.1072449684143	fix_post	2		12	15.0	2.5	/experiments/AOT/AOT_stimuli/rescaled_final/2179_fw.mp4	0.0	132.9239468574524	0.10045409202575684
18	112.20769906044006	fix_pre	0		119	16.0	2.5	/experiments/AOT/AOT_stimuli/rescaled_final/1078_fw.mp4	0.0	133.02440094947815	0.9916410446166992
18	113.19122791290283	pulse	0	t		16.0	2.5	/experiments/AOT/AOT_stimuli/rescaled_final/1078_fw.mp4	0.0	134.00792980194092	
18	113.19934010505676	movie	1		245	16.0	2.5	/experiments/AOT/AOT_stimuli/rescaled_final/1078_fw.mp4	0.0	134.01604199409485	2.507929801940918
18	114.79074501991272	pulse	1	t		16.0	2.5	/experiments/AOT/AOT_stimuli/rescaled_final/1078_fw.mp4	0.0	135.6074469089508	
18	115.70726990699768	fix_post	2		12	16.0	2.5	/experiments/AOT/AOT_stimuli/rescaled_final/1078_fw.mp4	0.0	136.52397179603577	0.10038900375366211
19	115.80765891075134	fix_pre	0		120	17.0	2.5	/experiments/AOT/AOT_stimuli/rescaled_final/0800_fw.mp4	0.0	136.62436079978943	1.0001170635223389
19	116.39111804962158	pulse	0	t		17.0	2.5	/experiments/AOT/AOT_stimuli/rescaled_final/0800_fw.mp4	0.0	137.20781993865967	
19	116.80777597427368	movie	1		245	17.0	2.5	/experiments/AOT/AOT_stimuli/rescaled_final/0800_fw.mp4	0.0	137.62447786331177	2.4999101161956787
19	117.99122905731201	pulse	1	t		17.0	2.5	/experiments/AOT/AOT_stimuli/rescaled_final/0800_fw.mp4	0.0	138.8079309463501	
19	119.30768609046936	fix_post	2		12	17.0	2.5	/experiments/AOT/AOT_stimuli/rescaled_final/0800_fw.mp4	0.0	140.12438797950745	0.10000491142272949
20	119.40769100189209	fix_pre	0		120	18.0	2.5	/experiments/AOT/AOT_stimuli/rescaled_final/1510_fw.mp4	0.0	140.22439289093018	0.9999899864196777
20	119.591313123703	pulse	0	t		18.0	2.5	/experiments/AOT/AOT_stimuli/rescaled_final/1510_fw.mp4	0.0	140.4080150127411	
20	120.40768098831177	movie	1		243	18.0	2.5	/experiments/AOT/AOT_stimuli/rescaled_final/1510_fw.mp4	0.0	141.22438287734985	2.4995319843292236
20	121.19107007980347	pulse	1	t		18.0	2.5	/experiments/AOT/AOT_stimuli/rescaled_final/1510_fw.mp4	0.0	142.00777196884155	
20	122.7897560596466	pulse	1	t		18.0	2.5	/experiments/AOT/AOT_stimuli/rescaled_final/1510_fw.mp4	0.0	143.6064579486847	
20	122.90721297264099	fix_post	2		12	18.0	2.5	/experiments/AOT/AOT_stimuli/rescaled_final/1510_fw.mp4	0.0	143.72391486167908	0.10001111030578613
21	123.00722408294678	fix_pre	0		120	19.0	2.5	/experiments/AOT/AOT_stimuli/rescaled_final/1728_rv.mp4	0.0	143.82392597198486	1.000403881072998
21	124.00762796401978	movie	1		244	19.0	2.5	/experiments/AOT/AOT_stimuli/rescaled_final/1728_rv.mp4	0.0	144.82432985305786	2.500009059906006
21	124.39102411270142	pulse	1	t		19.0	2.5	/experiments/AOT/AOT_stimuli/rescaled_final/1728_rv.mp4	0.0	145.2077260017395	
21	125.99110794067383	pulse	1	t		19.0	2.5	/experiments/AOT/AOT_stimuli/rescaled_final/1728_rv.mp4	0.0	146.8078098297119	
21	126.50763702392578	fix_post	2		12	19.0	2.5	/experiments/AOT/AOT_stimuli/rescaled_final/1728_rv.mp4	0.0	147.32433891296387	0.09997391700744629
22	126.60761094093323	fix_pre	0		119	20.0	2.5	blank	1.0	147.4243128299713	0.9916319847106934
22	127.59116911888123	pulse	0	t		20.0	2.5	blank	1.0	148.4078710079193	
22	127.59924292564392	movie	1		301	20.0	2.5	blank	1.0	148.415944814682	2.5084540843963623
22	129.1911849975586	pulse	1	t		20.0	2.5	blank	1.0	150.00788688659668	
22	130.10769701004028	fix_post	2		12	20.0	2.5	blank	1.0	150.92439889907837	0.099945068359375
23	130.20764207839966	fix_pre	0		120	21.0	2.5	/experiments/AOT/AOT_stimuli/rescaled_final/1142_rv.mp4	0.0	151.02434396743774	0.999600887298584
23	130.79117608070374	pulse	0	t		21.0	2.5	/experiments/AOT/AOT_stimuli/rescaled_final/1142_rv.mp4	0.0	151.60787796974182	
23	131.20724296569824	movie	1		245	21.0	2.5	/experiments/AOT/AOT_stimuli/rescaled_final/1142_rv.mp4	0.0	152.02394485473633	2.500494956970215
23	132.3911669254303	pulse	1	t		21.0	2.5	/experiments/AOT/AOT_stimuli/rescaled_final/1142_rv.mp4	0.0	153.20786881446838	
23	133.70773792266846	fix_post	2		12	21.0	2.5	/experiments/AOT/AOT_stimuli/rescaled_final/1142_rv.mp4	0.0	154.52443981170654	0.09991121292114258
24	133.8076491355896	fix_pre	0		120	22.0	2.5	/experiments/AOT/AOT_stimuli/rescaled_final/0430_rv.mp4	0.0	154.62435102462769	0.9999749660491943
24	133.99115014076233	pulse	0	t		22.0	2.5	/experiments/AOT/AOT_stimuli/rescaled_final/0430_rv.mp4	0.0	154.80785202980042	
24	134.8076241016388	movie	1		244	22.0	2.5	/experiments/AOT/AOT_stimuli/rescaled_final/0430_rv.mp4	0.0	155.62432599067688	2.4999749660491943
24	135.59112191200256	pulse	1	t		22.0	2.5	/experiments/AOT/AOT_stimuli/rescaled_final/0430_rv.mp4	0.0	156.40782380104065	
24	137.1911849975586	pulse	1	t		22.0	2.5	/experiments/AOT/AOT_stimuli/rescaled_final/0430_rv.mp4	0.0	158.00788688659668	
24	137.307599067688	fix_post	2		12	22.0	2.5	/experiments/AOT/AOT_stimuli/rescaled_final/0430_rv.mp4	0.0	158.12430095672607	0.09999299049377441
25	137.40759205818176	fix_pre	0		120	23.0	2.5	/experiments/AOT/AOT_stimuli/rescaled_final/1495_rv.mp4	0.0	158.22429394721985	1.000093936920166
25	138.40768599510193	movie	1		245	23.0	2.5	/experiments/AOT/AOT_stimuli/rescaled_final/1495_rv.mp4	0.0	159.22438788414001	2.4998679161071777
25	138.79104495048523	pulse	1	t		23.0	2.5	/experiments/AOT/AOT_stimuli/rescaled_final/1495_rv.mp4	0.0	159.60774683952332	
25	140.39108991622925	pulse	1	t		23.0	2.5	/experiments/AOT/AOT_stimuli/rescaled_final/1495_rv.mp4	0.0	161.20779180526733	
25	140.9075539112091	fix_post	2		12	23.0	2.5	/experiments/AOT/AOT_stimuli/rescaled_final/1495_rv.mp4	0.0	161.7242558002472	0.09996414184570312
26	141.0075180530548	fix_pre	0		119	24.0	2.5	/experiments/AOT/AOT_stimuli/rescaled_final/0059_rv.mp4	0.0	161.8242199420929	0.991811990737915
26	141.99106693267822	pulse	0	t		24.0	2.5	/experiments/AOT/AOT_stimuli/rescaled_final/0059_rv.mp4	0.0	162.8077688217163	
26	141.99933004379272	movie	1		245	24.0	2.5	/experiments/AOT/AOT_stimuli/rescaled_final/0059_rv.mp4	0.0	162.8160319328308	2.5077688694000244
26	143.59092211723328	pulse	1	t		24.0	2.5	/experiments/AOT/AOT_stimuli/rescaled_final/0059_rv.mp4	0.0	164.40762400627136	
26	144.50709891319275	fix_post	2		12	24.0	2.5	/experiments/AOT/AOT_stimuli/rescaled_final/0059_rv.mp4	0.0	165.32380080223083	0.10007119178771973
27	144.60717010498047	fix_pre	0		120	25.0	2.5	/experiments/AOT/AOT_stimuli/rescaled_final/0171_rv.mp4	0.0	165.42387199401855	1.0003299713134766
27	145.1910719871521	pulse	0	t		25.0	2.5	/experiments/AOT/AOT_stimuli/rescaled_final/0171_rv.mp4	0.0	166.00777387619019	
27	145.60750007629395	movie	1		243	25.0	2.5	/experiments/AOT/AOT_stimuli/rescaled_final/0171_rv.mp4	0.0	166.42420196533203	2.499964952468872
27	146.7911570072174	pulse	1	t		25.0	2.5	/experiments/AOT/AOT_stimuli/rescaled_final/0171_rv.mp4	0.0	167.6078588962555	
27	148.10746502876282	fix_post	2		12	25.0	2.5	/experiments/AOT/AOT_stimuli/rescaled_final/0171_rv.mp4	0.0	168.9241669178009	0.10009908676147461
28	148.2075641155243	fix_pre	0		120	26.0	2.5	blank	1.0	169.02426600456238	0.9999508857727051
28	148.3910949230194	pulse	0	t		26.0	2.5	blank	1.0	169.2077968120575	
28	149.207515001297	movie	1		300	26.0	2.5	blank	1.0	170.02421689033508	2.499721050262451
28	149.9910991191864	pulse	1	t		26.0	2.5	blank	1.0	170.8078010082245	
28	151.59068608283997	pulse	1	t		26.0	2.5	blank	1.0	172.40738797187805	
28	151.70723605155945	fix_post	2		12	26.0	2.5	blank	1.0	172.52393794059753	0.0999898910522461
29	151.8072259426117	fix_pre	0		120	27.0	2.5	/experiments/AOT/AOT_stimuli/rescaled_final/1254_fw.mp4	0.0	172.62392783164978	1.0006170272827148
29	152.8078429698944	movie	1		246	27.0	2.5	/experiments/AOT/AOT_stimuli/rescaled_final/1254_fw.mp4	0.0	173.6245448589325	2.4996800422668457
29	153.19170999526978	pulse	1	t		27.0	2.5	/experiments/AOT/AOT_stimuli/rescaled_final/1254_fw.mp4	0.0	174.00841188430786	
29	154.79094099998474	pulse	1	t		27.0	2.5	/experiments/AOT/AOT_stimuli/rescaled_final/1254_fw.mp4	0.0	175.60764288902283	
29	155.30752301216125	fix_post	2		12	27.0	2.5	/experiments/AOT/AOT_stimuli/rescaled_final/1254_fw.mp4	0.0	176.12422490119934	0.1001579761505127
30	155.40768098831177	fix_pre	0		119	28.0	2.5	/experiments/AOT/AOT_stimuli/rescaled_final/1778_fw.mp4	0.0	176.22438287734985	0.9915730953216553
30	156.39102697372437	pulse	0	t		28.0	2.5	/experiments/AOT/AOT_stimuli/rescaled_final/1778_fw.mp4	0.0	177.20772886276245	
30	156.39925408363342	movie	1		246	28.0	2.5	/experiments/AOT/AOT_stimuli/rescaled_final/1778_fw.mp4	0.0	177.2159559726715	2.5081918239593506
30	157.9904260635376	pulse	1	t		28.0	2.5	/experiments/AOT/AOT_stimuli/rescaled_final/1778_fw.mp4	0.0	178.80712795257568	
30	158.90744590759277	fix_post	2		12	28.0	2.5	/experiments/AOT/AOT_stimuli/rescaled_final/1778_fw.mp4	0.0	179.72414779663086	0.09966921806335449
31	159.00711512565613	fix_pre	0		120	29.0	2.5	/experiments/AOT/AOT_stimuli/rescaled_final/0161_rv.mp4	0.0	179.8238170146942	1.000260829925537
31	159.5909299850464	pulse	0	t		29.0	2.5	/experiments/AOT/AOT_stimuli/rescaled_final/0161_rv.mp4	0.0	180.40763187408447	
31	160.00737595558167	movie	1		245	29.0	2.5	/experiments/AOT/AOT_stimuli/rescaled_final/0161_rv.mp4	0.0	180.82407784461975	2.500058174133301
31	161.19102311134338	pulse	1	t		29.0	2.5	/experiments/AOT/AOT_stimuli/rescaled_final/0161_rv.mp4	0.0	182.00772500038147	
31	162.50743412971497	fix_post	2		12	29.0	2.5	/experiments/AOT/AOT_stimuli/rescaled_final/0161_rv.mp4	0.0	183.32413601875305	0.10001277923583984
32	162.6074469089508	fix_pre	0		120	30.0	2.5	/experiments/AOT/AOT_stimuli/rescaled_final/0361_rv.mp4	0.0	183.4241487979889	0.999596118927002
32	162.79085993766785	pulse	0	t		30.0	2.5	/experiments/AOT/AOT_stimuli/rescaled_final/0361_rv.mp4	0.0	183.60756182670593	
32	163.6070430278778	movie	1		244	30.0	2.5	/experiments/AOT/AOT_stimuli/rescaled_final/0361_rv.mp4	0.0	184.4237449169159	2.500304937362671
32	164.39091396331787	pulse	1	t		30.0	2.5	/experiments/AOT/AOT_stimuli/rescaled_final/0361_rv.mp4	0.0	185.20761585235596	
32	165.99093008041382	pulse	1	t		30.0	2.5	/experiments/AOT/AOT_stimuli/rescaled_final/0361_rv.mp4	0.0	186.8076319694519	
32	166.10734796524048	fix_post	2		12	30.0	2.5	/experiments/AOT/AOT_stimuli/rescaled_final/0361_rv.mp4	0.0	186.92404985427856	0.10011911392211914
33	166.2074670791626	fix_pre	0		120	31.0	2.5	/experiments/AOT/AOT_stimuli/rescaled_final/1041_fw.mp4	0.0	187.02416896820068	0.9999070167541504
33	167.20737409591675	movie	1		245	31.0	2.5	/experiments/AOT/AOT_stimuli/rescaled_final/1041_fw.mp4	0.0	188.02407598495483	2.5000150203704834
33	167.59182500839233	pulse	1	t		31.0	2.5	/experiments/AOT/AOT_stimuli/rescaled_final/1041_fw.mp4	0.0	188.40852689743042	
33	169.19104409217834	pulse	1	t		31.0	2.5	/experiments/AOT/AOT_stimuli/rescaled_final/1041_fw.mp4	0.0	190.00774598121643	
33	169.70738911628723	fix_post	2		12	31.0	2.5	/experiments/AOT/AOT_stimuli/rescaled_final/1041_fw.mp4	0.0	190.52409100532532	0.09998488426208496
34	169.80737400054932	fix_pre	0		119	32.0	2.5	/experiments/AOT/AOT_stimuli/rescaled_final/1478_rv.mp4	0.0	190.6240758895874	0.9917290210723877
34	170.79096508026123	pulse	0	t		32.0	2.5	/experiments/AOT/AOT_stimuli/rescaled_final/1478_rv.mp4	0.0	191.60766696929932	
34	170.7991030216217	movie	1		248	32.0	2.5	/experiments/AOT/AOT_stimuli/rescaled_final/1478_rv.mp4	0.0	191.6158049106598	2.5082530975341797
34	172.39078211784363	pulse	1	t		32.0	2.5	/experiments/AOT/AOT_stimuli/rescaled_final/1478_rv.mp4	0.0	193.2074840068817	
34	173.30735611915588	fix_post	2		12	32.0	2.5	/experiments/AOT/AOT_stimuli/rescaled_final/1478_rv.mp4	0.0	194.12405800819397	0.10004186630249023
35	173.40739798545837	fix_pre	0		120	33.0	2.5	/experiments/AOT/AOT_stimuli/rescaled_final/1096_rv.mp4	0.0	194.22409987449646	0.9999721050262451
35	173.9908390045166	pulse	0	t		33.0	2.5	/experiments/AOT/AOT_stimuli/rescaled_final/1096_rv.mp4	0.0	194.8075408935547	
35	174.40737009048462	movie	1		246	33.0	2.5	/experiments/AOT/AOT_stimuli/rescaled_final/1096_rv.mp4	0.0	195.2240719795227	2.4996469020843506
35	175.59096598625183	pulse	1	t		33.0	2.5	/experiments/AOT/AOT_stimuli/rescaled_final/1096_rv.mp4	0.0	196.40766787528992	
35	176.90701699256897	fix_post	2		12	33.0	2.5	/experiments/AOT/AOT_stimuli/rescaled_final/1096_rv.mp4	0.0	197.72371888160706	0.1003720760345459
36	177.00738906860352	fix_pre	0		120	34.0	2.5	/experiments/AOT/AOT_stimuli/rescaled_final/1947_rv.mp4	0.0	197.8240909576416	0.9996190071105957
36	177.19093108177185	pulse	0	t		34.0	2.5	/experiments/AOT/AOT_stimuli/rescaled_final/1947_rv.mp4	0.0	198.00763297080994	
36	178.0070080757141	movie	1		246	34.0	2.5	/experiments/AOT/AOT_stimuli/rescaled_final/1947_rv.mp4	0.0	198.8237099647522	2.500438928604126
36	178.7908320426941	pulse	1	t		34.0	2.5	/experiments/AOT/AOT_stimuli/rescaled_final/1947_rv.mp4	0.0	199.60753393173218	
36	180.39105892181396	pulse	1	t		34.0	2.5	/experiments/AOT/AOT_stimuli/rescaled_final/1947_rv.mp4	0.0	201.20776081085205	
36	180.50744700431824	fix_post	2		12	34.0	2.5	/experiments/AOT/AOT_stimuli/rescaled_final/1947_rv.mp4	0.0	201.32414889335632	0.09993195533752441
37	180.60737895965576	fix_pre	0		120	35.0	2.5	blank	1.0	201.42408084869385	1.0000500679016113
37	181.60742902755737	movie	1		300	35.0	2.5	blank	1.0	202.42413091659546	2.5000131130218506
37	181.99088501930237	pulse	1	t		35.0	2.5	blank	1.0	202.80758690834045	
37	183.59082198143005	pulse	1	t		35.0	2.5	blank	1.0	204.40752387046814	
37	184.10744214057922	fix_post	2		12	35.0	2.5	blank	1.0	204.9241440296173	0.09993386268615723
38	184.20737600326538	fix_pre	0		119	36.0	2.5	/experiments/AOT/AOT_stimuli/rescaled_final/1495_rv.mp4	0.0	205.02407789230347	0.991663932800293
38	185.19079494476318	pulse	0	t		36.0	2.5	/experiments/AOT/AOT_stimuli/rescaled_final/1495_rv.mp4	0.0	206.00749683380127	
38	185.19903993606567	movie	1		245	36.0	2.5	/experiments/AOT/AOT_stimuli/rescaled_final/1495_rv.mp4	0.0	206.01574182510376	2.5079290866851807
38	186.79077696800232	pulse	1	t		36.0	2.5	/experiments/AOT/AOT_stimuli/rescaled_final/1495_rv.mp4	0.0	207.6074788570404	
38	187.70696902275085	fix_post	2		12	36.0	2.5	/experiments/AOT/AOT_stimuli/rescaled_final/1495_rv.mp4	0.0	208.52367091178894	0.10044693946838379
39	187.80741596221924	fix_pre	0		120	37.0	2.5	/experiments/AOT/AOT_stimuli/rescaled_final/0430_fw.mp4	0.0	208.62411785125732	0.9999480247497559
39	188.39079809188843	pulse	0	t		37.0	2.5	/experiments/AOT/AOT_stimuli/rescaled_final/0430_fw.mp4	0.0	209.2074999809265	
39	188.807363986969	movie	1		245	37.0	2.5	/experiments/AOT/AOT_stimuli/rescaled_final/0430_fw.mp4	0.0	209.62406587600708	2.4999630451202393
39	189.99091005325317	pulse	1	t		37.0	2.5	/experiments/AOT/AOT_stimuli/rescaled_final/0430_fw.mp4	0.0	210.80761194229126	
39	191.30732703208923	fix_post	2		12	37.0	2.5	/experiments/AOT/AOT_stimuli/rescaled_final/0430_fw.mp4	0.0	212.12402892112732	0.10000109672546387
40	191.4073281288147	fix_pre	0		120	38.0	2.5	/experiments/AOT/AOT_stimuli/rescaled_final/1005_fw.mp4	0.0	212.22403001785278	1.000013828277588
40	191.59076309204102	pulse	0	t		38.0	2.5	/experiments/AOT/AOT_stimuli/rescaled_final/1005_fw.mp4	0.0	212.4074649810791	
40	192.40734195709229	movie	1		246	38.0	2.5	/experiments/AOT/AOT_stimuli/rescaled_final/1005_fw.mp4	0.0	213.22404384613037	2.5000200271606445
40	193.19085693359375	pulse	1	t		38.0	2.5	/experiments/AOT/AOT_stimuli/rescaled_final/1005_fw.mp4	0.0	214.00755882263184	
40	194.790785074234	pulse	1	t		38.0	2.5	/experiments/AOT/AOT_stimuli/rescaled_final/1005_fw.mp4	0.0	215.6074869632721	
40	194.90736198425293	fix_post	2		12	38.0	2.5	/experiments/AOT/AOT_stimuli/rescaled_final/1005_fw.mp4	0.0	215.72406387329102	0.09998703002929688
41	195.00734901428223	fix_pre	0		120	39.0	2.5	/experiments/AOT/AOT_stimuli/rescaled_final/0171_fw.mp4	0.0	215.8240509033203	0.9999349117279053
41	196.00728392601013	movie	1		244	39.0	2.5	/experiments/AOT/AOT_stimuli/rescaled_final/0171_fw.mp4	0.0	216.82398581504822	2.4996180534362793
41	196.39051914215088	pulse	1	t		39.0	2.5	/experiments/AOT/AOT_stimuli/rescaled_final/0171_fw.mp4	0.0	217.20722103118896	
41	197.990709066391	pulse	1	t		39.0	2.5	/experiments/AOT/AOT_stimuli/rescaled_final/0171_fw.mp4	0.0	218.80741095542908	
41	198.5069019794464	fix_post	2		12	39.0	2.5	/experiments/AOT/AOT_stimuli/rescaled_final/0171_fw.mp4	0.0	219.3236038684845	0.10038113594055176
42	198.60728311538696	fix_pre	0		119	40.0	2.5	/experiments/AOT/AOT_stimuli/rescaled_final/1023_rv.mp4	0.0	219.42398500442505	0.9916648864746094
42	199.5907130241394	pulse	0	t		40.0	2.5	/experiments/AOT/AOT_stimuli/rescaled_final/1023_rv.mp4	0.0	220.4074149131775	
42	199.59894800186157	movie	1		244	40.0	2.5	/experiments/AOT/AOT_stimuli/rescaled_final/1023_rv.mp4	0.0	220.41564989089966	2.5083141326904297
42	201.19063806533813	pulse	1	t		40.0	2.5	/experiments/AOT/AOT_stimuli/rescaled_final/1023_rv.mp4	0.0	222.00733995437622	
42	202.107262134552	fix_post	2		12	40.0	2.5	/experiments/AOT/AOT_stimuli/rescaled_final/1023_rv.mp4	0.0	222.9239640235901	0.10005998611450195
43	202.2073221206665	fix_pre	0		120	41.0	2.5	/experiments/AOT/AOT_stimuli/rescaled_final/1702_fw.mp4	0.0	223.0240240097046	0.9999489784240723
43	202.7907440662384	pulse	0	t		41.0	2.5	/experiments/AOT/AOT_stimuli/rescaled_final/1702_fw.mp4	0.0	223.6074459552765	
43	203.20727109909058	movie	1		244	41.0	2.5	/experiments/AOT/AOT_stimuli/rescaled_final/1702_fw.mp4	0.0	224.02397298812866	2.4995648860931396
43	204.3907449245453	pulse	1	t		41.0	2.5	/experiments/AOT/AOT_stimuli/rescaled_final/1702_fw.mp4	0.0	225.20744681358337	
43	205.70683598518372	fix_post	2		12	41.0	2.5	/experiments/AOT/AOT_stimuli/rescaled_final/1702_fw.mp4	0.0	226.5235378742218	0.1004631519317627
44	205.80729913711548	fix_pre	0		120	42.0	2.5	blank	1.0	226.62400102615356	0.9995918273925781
44	205.99074792861938	pulse	0	t		42.0	2.5	blank	1.0	226.80744981765747	
44	206.80689096450806	movie	1		300	42.0	2.5	blank	1.0	227.62359285354614	2.5003859996795654
44	207.5904769897461	pulse	1	t		42.0	2.5	blank	1.0	228.40717887878418	
44	209.19064593315125	pulse	1	t		42.0	2.5	blank	1.0	230.00734782218933	
44	209.30727696418762	fix_post	2		12	42.0	2.5	blank	1.0	230.1239788532257	0.099884033203125
45	209.40716099739075	fix_pre	0		120	43.0	2.5	/experiments/AOT/AOT_stimuli/rescaled_final/1475_fw.mp4	0.0	230.22386288642883	1.0001270771026611
45	210.4072880744934	movie	1		244	43.0	2.5	/experiments/AOT/AOT_stimuli/rescaled_final/1475_fw.mp4	0.0	231.2239899635315	2.499541997909546
45	210.79023003578186	pulse	1	t		43.0	2.5	/experiments/AOT/AOT_stimuli/rescaled_final/1475_fw.mp4	0.0	231.60693192481995	
45	212.39066100120544	pulse	1	t		43.0	2.5	/experiments/AOT/AOT_stimuli/rescaled_final/1475_fw.mp4	0.0	233.20736289024353	
45	212.90683007240295	fix_post	2		12	43.0	2.5	/experiments/AOT/AOT_stimuli/rescaled_final/1475_fw.mp4	0.0	233.72353196144104	0.10043883323669434
46	213.00726890563965	fix_pre	0		119	44.0	2.5	/experiments/AOT/AOT_stimuli/rescaled_final/0740_rv.mp4	0.0	233.82397079467773	0.9916632175445557
46	213.99069094657898	pulse	0	t		44.0	2.5	/experiments/AOT/AOT_stimuli/rescaled_final/0740_rv.mp4	0.0	234.80739283561707	
46	213.9989321231842	movie	1		249	44.0	2.5	/experiments/AOT/AOT_stimuli/rescaled_final/0740_rv.mp4	0.0	234.8156340122223	2.508328914642334
46	215.59182596206665	pulse	1	t		44.0	2.5	/experiments/AOT/AOT_stimuli/rescaled_final/0740_rv.mp4	0.0	236.40852785110474	
46	216.50726103782654	fix_post	2		12	44.0	2.5	/experiments/AOT/AOT_stimuli/rescaled_final/0740_rv.mp4	0.0	237.32396292686462	0.09994387626647949
47	216.60720491409302	fix_pre	0		120	45.0	2.5	/experiments/AOT/AOT_stimuli/rescaled_final/0019_rv.mp4	0.0	237.4239068031311	0.9999880790710449
47	217.19064903259277	pulse	0	t		45.0	2.5	/experiments/AOT/AOT_stimuli/rescaled_final/0019_rv.mp4	0.0	238.00735092163086	
47	217.60719299316406	movie	1		247	45.0	2.5	/experiments/AOT/AOT_stimuli/rescaled_final/0019_rv.mp4	0.0	238.42389488220215	2.4999289512634277
47	218.79063510894775	pulse	1	t		45.0	2.5	/experiments/AOT/AOT_stimuli/rescaled_final/0019_rv.mp4	0.0	239.60733699798584	
47	220.1071219444275	fix_post	2		12	45.0	2.5	/experiments/AOT/AOT_stimuli/rescaled_final/0019_rv.mp4	0.0	240.92382383346558	0.10009098052978516
48	220.20721292495728	fix_pre	0		120	46.0	2.5	/experiments/AOT/AOT_stimuli/rescaled_final/1863_rv.mp4	0.0	241.02391481399536	0.9999251365661621
48	220.39074301719666	pulse	0	t		46.0	2.5	/experiments/AOT/AOT_stimuli/rescaled_final/1863_rv.mp4	0.0	241.20744490623474	
48	221.20713806152344	movie	1		247	46.0	2.5	/experiments/AOT/AOT_stimuli/rescaled_final/1863_rv.mp4	0.0	242.02383995056152	2.500127077102661
48	221.9906189441681	pulse	1	t		46.0	2.5	/experiments/AOT/AOT_stimuli/rescaled_final/1863_rv.mp4	0.0	242.80732083320618	
48	223.59066891670227	pulse	1	t		46.0	2.5	/experiments/AOT/AOT_stimuli/rescaled_final/1863_rv.mp4	0.0	244.40737080574036	
48	223.7072651386261	fix_post	2		12	46.0	2.5	/experiments/AOT/AOT_stimuli/rescaled_final/1863_rv.mp4	0.0	244.52396702766418	0.09990692138671875
49	223.80717206001282	fix_pre	0		120	47.0	2.5	/experiments/AOT/AOT_stimuli/rescaled_final/1759_rv.mp4	0.0	244.6238739490509	1.0000128746032715
49	224.8071849346161	movie	1		245	47.0	2.5	/experiments/AOT/AOT_stimuli/rescaled_final/1759_rv.mp4	0.0	245.62388682365417	2.4995460510253906
49	225.19051909446716	pulse	1	t		47.0	2.5	/experiments/AOT/AOT_stimuli/rescaled_final/1759_rv.mp4	0.0	246.00722098350525	
49	226.7906539440155	pulse	1	t		47.0	2.5	/experiments/AOT/AOT_stimuli/rescaled_final/1759_rv.mp4	0.0	247.6073558330536	
49	227.30673098564148	fix_post	2		12	47.0	2.5	/experiments/AOT/AOT_stimuli/rescaled_final/1759_rv.mp4	0.0	248.12343287467957	0.10037493705749512
50	227.40710592269897	fix_pre	0		119	48.0	2.5	blank	1.0	248.22380781173706	0.9917190074920654
50	228.39070296287537	pulse	0	t		48.0	2.5	blank	1.0	249.20740485191345	
50	228.39882493019104	movie	1		301	48.0	2.5	blank	1.0	249.21552681922913	2.5083510875701904
50	229.99061393737793	pulse	1	t		48.0	2.5	blank	1.0	250.80731582641602	
50	230.90717601776123	fix_post	2		12	48.0	2.5	blank	1.0	251.72387790679932	0.09989595413208008
51	231.0070719718933	fix_pre	0		120	49.0	2.5	/experiments/AOT/AOT_stimuli/rescaled_final/0433_rv.mp4	0.0	251.8237738609314	1.0000760555267334
51	231.59050512313843	pulse	0	t		49.0	2.5	/experiments/AOT/AOT_stimuli/rescaled_final/0433_rv.mp4	0.0	252.4072070121765	
51	232.00714802742004	movie	1		245	49.0	2.5	/experiments/AOT/AOT_stimuli/rescaled_final/0433_rv.mp4	0.0	252.82384991645813	2.4994759559631348
51	233.190691947937	pulse	1	t		49.0	2.5	/experiments/AOT/AOT_stimuli/rescaled_final/0433_rv.mp4	0.0	254.0073938369751	
51	234.50662398338318	fix_post	2		12	49.0	2.5	/experiments/AOT/AOT_stimuli/rescaled_final/0433_rv.mp4	0.0	255.32332587242126	0.10043907165527344
52	234.60706305503845	fix_pre	0		120	50.0	2.5	/experiments/AOT/AOT_stimuli/rescaled_final/0672_rv.mp4	0.0	255.42376494407654	0.9995589256286621
52	234.7907359600067	pulse	0	t		50.0	2.5	/experiments/AOT/AOT_stimuli/rescaled_final/0672_rv.mp4	0.0	255.6074378490448	
52	235.60662198066711	movie	1		244	50.0	2.5	/experiments/AOT/AOT_stimuli/rescaled_final/0672_rv.mp4	0.0	256.4233238697052	2.50004506111145
52	236.3907310962677	pulse	1	t		50.0	2.5	/experiments/AOT/AOT_stimuli/rescaled_final/0672_rv.mp4	0.0	257.2074329853058	
52	237.98881602287292	pulse	1	t		50.0	2.5	/experiments/AOT/AOT_stimuli/rescaled_final/0672_rv.mp4	0.0	258.805517911911	
52	238.10666704177856	fix_post	2		12	50.0	2.5	/experiments/AOT/AOT_stimuli/rescaled_final/0672_rv.mp4	0.0	258.92336893081665	0.10042500495910645
53	238.20709204673767	fix_pre	0		120	51.0	2.5	/experiments/AOT/AOT_stimuli/rescaled_final/2067_rv.mp4	0.0	259.02379393577576	0.9999969005584717
53	239.20708894729614	movie	1		246	51.0	2.5	/experiments/AOT/AOT_stimuli/rescaled_final/2067_rv.mp4	0.0	260.02379083633423	2.5001060962677
53	239.59040212631226	pulse	1	t		51.0	2.5	/experiments/AOT/AOT_stimuli/rescaled_final/2067_rv.mp4	0.0	260.40710401535034	
53	241.1905870437622	pulse	1	t		51.0	2.5	/experiments/AOT/AOT_stimuli/rescaled_final/2067_rv.mp4	0.0	262.0072889328003	
53	241.70719504356384	fix_post	2		12	51.0	2.5	/experiments/AOT/AOT_stimuli/rescaled_final/2067_rv.mp4	0.0	262.52389693260193	0.09988594055175781
54	241.8070809841156	fix_pre	0		119	52.0	2.5	/experiments/AOT/AOT_stimuli/rescaled_final/1591_fw.mp4	0.0	262.6237828731537	0.9917490482330322
54	242.7906379699707	pulse	0	t		52.0	2.5	/experiments/AOT/AOT_stimuli/rescaled_final/1591_fw.mp4	0.0	263.6073398590088	
54	242.79883003234863	movie	1		247	52.0	2.5	/experiments/AOT/AOT_stimuli/rescaled_final/1591_fw.mp4	0.0	263.6155319213867	2.5081799030303955
54	244.39168000221252	pulse	1	t		52.0	2.5	/experiments/AOT/AOT_stimuli/rescaled_final/1591_fw.mp4	0.0	265.2083818912506	
54	245.30700993537903	fix_post	2		12	52.0	2.5	/experiments/AOT/AOT_stimuli/rescaled_final/1591_fw.mp4	0.0	266.1237118244171	0.10000014305114746
55	245.40701007843018	fix_pre	0		120	53.0	2.5	/experiments/AOT/AOT_stimuli/rescaled_final/1686_fw.mp4	0.0	266.22371196746826	1.0000739097595215
55	245.99056196212769	pulse	0	t		53.0	2.5	/experiments/AOT/AOT_stimuli/rescaled_final/1686_fw.mp4	0.0	266.80726385116577	
55	246.4070839881897	movie	1		244	53.0	2.5	/experiments/AOT/AOT_stimuli/rescaled_final/1686_fw.mp4	0.0	267.2237858772278	2.499967098236084
55	247.59064102172852	pulse	1	t		53.0	2.5	/experiments/AOT/AOT_stimuli/rescaled_final/1686_fw.mp4	0.0	268.4073429107666	
55	248.90705108642578	fix_post	2		12	53.0	2.5	/experiments/AOT/AOT_stimuli/rescaled_final/1686_fw.mp4	0.0	269.72375297546387	0.0999448299407959
56	249.00699591636658	fix_pre	0		120	54.0	2.5	blank	1.0	269.82369780540466	1.0000622272491455
56	249.19043612480164	pulse	0	t		54.0	2.5	blank	1.0	270.0071380138397	
56	250.00705814361572	movie	1		300	54.0	2.5	blank	1.0	270.8237600326538	2.499966859817505
56	250.79062294960022	pulse	1	t		54.0	2.5	blank	1.0	271.6073248386383	
56	252.39068603515625	pulse	1	t		54.0	2.5	blank	1.0	273.20738792419434	
56	252.50702500343323	fix_post	2		12	54.0	2.5	blank	1.0	273.3237268924713	0.09958004951477051
57	252.606605052948	fix_pre	0		120	55.0	2.5	/experiments/AOT/AOT_stimuli/rescaled_final/0280_fw.mp4	0.0	273.4233069419861	1.0004510879516602
57	253.60705614089966	movie	1		243	55.0	2.5	/experiments/AOT/AOT_stimuli/rescaled_final/0280_fw.mp4	0.0	274.42375802993774	2.499513864517212
57	253.99014902114868	pulse	1	t		55.0	2.5	/experiments/AOT/AOT_stimuli/rescaled_final/0280_fw.mp4	0.0	274.80685091018677	
57	255.5904369354248	pulse	1	t		55.0	2.5	/experiments/AOT/AOT_stimuli/rescaled_final/0280_fw.mp4	0.0	276.4071388244629	
57	256.10657000541687	fix_post	2		12	55.0	2.5	/experiments/AOT/AOT_stimuli/rescaled_final/0280_fw.mp4	0.0	276.92327189445496	0.1004331111907959
58	256.20700311660767	fix_pre	0		119	56.0	2.5	/experiments/AOT/AOT_stimuli/rescaled_final/0067_fw.mp4	0.0	277.02370500564575	0.991663932800293
58	257.19051599502563	pulse	0	t		56.0	2.5	/experiments/AOT/AOT_stimuli/rescaled_final/0067_fw.mp4	0.0	278.0072178840637	
58	257.19866704940796	movie	1		247	56.0	2.5	/experiments/AOT/AOT_stimuli/rescaled_final/0067_fw.mp4	0.0	278.01536893844604	2.5082778930664062
58	258.79158902168274	pulse	1	t		56.0	2.5	/experiments/AOT/AOT_stimuli/rescaled_final/0067_fw.mp4	0.0	279.6082909107208	
58	259.70694494247437	fix_post	2		12	56.0	2.5	/experiments/AOT/AOT_stimuli/rescaled_final/0067_fw.mp4	0.0	280.52364683151245	0.09967708587646484
59	259.80662202835083	fix_pre	0		120	57.0	2.5	/experiments/AOT/AOT_stimuli/rescaled_final/2179_fw.mp4	0.0	280.6233239173889	1.000317096710205
59	260.3918569087982	pulse	0	t		57.0	2.5	/experiments/AOT/AOT_stimuli/rescaled_final/2179_fw.mp4	0.0	281.2085587978363	
59	260.80693912506104	movie	1		246	57.0	2.5	/experiments/AOT/AOT_stimuli/rescaled_final/2179_fw.mp4	0.0	281.6236410140991	2.4997329711914062
59	261.9901421070099	pulse	1	t		57.0	2.5	/experiments/AOT/AOT_stimuli/rescaled_final/2179_fw.mp4	0.0	282.806843996048	
59	263.30667209625244	fix_post	2		12	57.0	2.5	/experiments/AOT/AOT_stimuli/rescaled_final/2179_fw.mp4	0.0	284.1233739852905	0.10005497932434082
60	263.4067270755768	fix_pre	0		120	58.0	2.5	/experiments/AOT/AOT_stimuli/rescaled_final/2070_fw.mp4	0.0	284.22342896461487	1.000488042831421
60	263.5902349948883	pulse	0	t		58.0	2.5	/experiments/AOT/AOT_stimuli/rescaled_final/2070_fw.mp4	0.0	284.4069368839264	
60	264.4072151184082	movie	1		247	58.0	2.5	/experiments/AOT/AOT_stimuli/rescaled_final/2070_fw.mp4	0.0	285.2239170074463	2.4994399547576904
60	265.19039511680603	pulse	1	t		58.0	2.5	/experiments/AOT/AOT_stimuli/rescaled_final/2070_fw.mp4	0.0	286.0070970058441	
60	266.7904739379883	pulse	1	t		58.0	2.5	/experiments/AOT/AOT_stimuli/rescaled_final/2070_fw.mp4	0.0	287.60717582702637	
60	266.9066550731659	fix_post	2		12	58.0	2.5	/experiments/AOT/AOT_stimuli/rescaled_final/2070_fw.mp4	0.0	287.723356962204	0.10029792785644531
61	267.00695300102234	fix_pre	0		120	59.0	2.5	/experiments/AOT/AOT_stimuli/rescaled_final/0987_rv.mp4	0.0	287.8236548900604	0.9999909400939941
61	268.00694394111633	movie	1		246	59.0	2.5	/experiments/AOT/AOT_stimuli/rescaled_final/0987_rv.mp4	0.0	288.8236458301544	2.499988079071045
61	268.3897829055786	pulse	1	t		59.0	2.5	/experiments/AOT/AOT_stimuli/rescaled_final/0987_rv.mp4	0.0	289.2064847946167	
61	269.99039697647095	pulse	1	t		59.0	2.5	/experiments/AOT/AOT_stimuli/rescaled_final/0987_rv.mp4	0.0	290.80709886550903	
61	270.5069320201874	fix_post	2		12	59.0	2.5	/experiments/AOT/AOT_stimuli/rescaled_final/0987_rv.mp4	0.0	291.32363390922546	0.09993910789489746
62	270.6068711280823	fix_pre	0		119	60.0	2.5	/experiments/AOT/AOT_stimuli/rescaled_final/0408_fw.mp4	0.0	291.42357301712036	0.9916667938232422
62	271.59043407440186	pulse	0	t		60.0	2.5	/experiments/AOT/AOT_stimuli/rescaled_final/0408_fw.mp4	0.0	292.40713596343994	
62	271.5985379219055	movie	1		247	60.0	2.5	/experiments/AOT/AOT_stimuli/rescaled_final/0408_fw.mp4	0.0	292.4152398109436	2.507918119430542
62	273.1900839805603	pulse	1	t		60.0	2.5	/experiments/AOT/AOT_stimuli/rescaled_final/0408_fw.mp4	0.0	294.0067858695984	
62	274.10645604133606	fix_post	2		12	60.0	2.5	/experiments/AOT/AOT_stimuli/rescaled_final/0408_fw.mp4	0.0	294.92315793037415	0.1004190444946289
63	274.2068750858307	fix_pre	0		120	61.0	2.5	/experiments/AOT/AOT_stimuli/rescaled_final/0573_fw.mp4	0.0	295.0235769748688	1.000018835067749
63	274.79042291641235	pulse	0	t		61.0	2.5	/experiments/AOT/AOT_stimuli/rescaled_final/0573_fw.mp4	0.0	295.60712480545044	
63	275.20689392089844	movie	1		245	61.0	2.5	/experiments/AOT/AOT_stimuli/rescaled_final/0573_fw.mp4	0.0	296.0235958099365	2.50004506111145
63	276.39048194885254	pulse	1	t		61.0	2.5	/experiments/AOT/AOT_stimuli/rescaled_final/0573_fw.mp4	0.0	297.2071838378906	
63	277.7069389820099	fix_post	2		12	61.0	2.5	/experiments/AOT/AOT_stimuli/rescaled_final/0573_fw.mp4	0.0	298.523640871048	0.09995198249816895
64	277.80689096450806	fix_pre	0		120	62.0	2.5	/experiments/AOT/AOT_stimuli/rescaled_final/1720_rv.mp4	0.0	298.62359285354614	1.0000600814819336
64	277.99040508270264	pulse	0	t		62.0	2.5	/experiments/AOT/AOT_stimuli/rescaled_final/1720_rv.mp4	0.0	298.8071069717407	
64	278.80695104599	movie	1		243	62.0	2.5	/experiments/AOT/AOT_stimuli/rescaled_final/1720_rv.mp4	0.0	299.6236529350281	2.500005006790161
64	279.5904381275177	pulse	1	t		62.0	2.5	/experiments/AOT/AOT_stimuli/rescaled_final/1720_rv.mp4	0.0	300.4071400165558	
64	281.18954205513	pulse	1	t		62.0	2.5	/experiments/AOT/AOT_stimuli/rescaled_final/1720_rv.mp4	0.0	302.0062439441681	
64	281.30695605278015	fix_post	2		12	62.0	2.5	/experiments/AOT/AOT_stimuli/rescaled_final/1720_rv.mp4	0.0	302.12365794181824	0.09995007514953613
65	281.4069061279297	fix_pre	0		120	63.0	2.5	blank	1.0	302.2236080169678	1.000067949295044
65	282.40697407722473	movie	1		300	63.0	2.5	blank	1.0	303.2236759662628	2.4999730587005615
65	282.79038310050964	pulse	1	t		63.0	2.5	blank	1.0	303.60708498954773	
65	284.39034509658813	pulse	1	t		63.0	2.5	blank	1.0	305.2070469856262	
65	284.9069471359253	fix_post	2		12	63.0	2.5	blank	1.0	305.7236490249634	0.09989190101623535
66	285.0068390369415	fix_pre	0		119	64.0	2.5	/experiments/AOT/AOT_stimuli/rescaled_final/2070_rv.mp4	0.0	305.8235409259796	0.9915919303894043
66	285.9904501438141	pulse	0	t		64.0	2.5	/experiments/AOT/AOT_stimuli/rescaled_final/2070_rv.mp4	0.0	306.8071520328522	
66	285.99843096733093	movie	1		249	64.0	2.5	/experiments/AOT/AOT_stimuli/rescaled_final/2070_rv.mp4	0.0	306.815132856369	2.507966995239258
66	287.591411113739	pulse	1	t		64.0	2.5	/experiments/AOT/AOT_stimuli/rescaled_final/2070_rv.mp4	0.0	308.4081130027771	
66	288.5063979625702	fix_post	2		12	64.0	2.5	/experiments/AOT/AOT_stimuli/rescaled_final/2070_rv.mp4	0.0	309.3230998516083	0.1004030704498291
67	288.60680103302	fix_pre	0		120	65.0	2.5	/experiments/AOT/AOT_stimuli/rescaled_final/1415_fw.mp4	0.0	309.4235029220581	0.9995930194854736
67	289.1903500556946	pulse	0	t		65.0	2.5	/experiments/AOT/AOT_stimuli/rescaled_final/1415_fw.mp4	0.0	310.00705194473267	
67	289.6063940525055	movie	1		246	65.0	2.5	/experiments/AOT/AOT_stimuli/rescaled_final/1415_fw.mp4	0.0	310.4230959415436	2.5004019737243652
67	290.79036712646484	pulse	1	t		65.0	2.5	/experiments/AOT/AOT_stimuli/rescaled_final/1415_fw.mp4	0.0	311.60706901550293	
67	292.10679602622986	fix_post	2		12	65.0	2.5	/experiments/AOT/AOT_stimuli/rescaled_final/1415_fw.mp4	0.0	312.92349791526794	0.0999610424041748
68	292.20675706863403	fix_pre	0		120	66.0	2.5	/experiments/AOT/AOT_stimuli/rescaled_final/1107_rv.mp4	0.0	313.0234589576721	0.9996280670166016
68	292.3903441429138	pulse	0	t		66.0	2.5	/experiments/AOT/AOT_stimuli/rescaled_final/1107_rv.mp4	0.0	313.2070460319519	
68	293.20638513565063	movie	1		244	66.0	2.5	/experiments/AOT/AOT_stimuli/rescaled_final/1107_rv.mp4	0.0	314.0230870246887	2.5004029273986816
68	293.990257024765	pulse	1	t		66.0	2.5	/experiments/AOT/AOT_stimuli/rescaled_final/1107_rv.mp4	0.0	314.8069589138031	
68	295.58881402015686	pulse	1	t		66.0	2.5	/experiments/AOT/AOT_stimuli/rescaled_final/1107_rv.mp4	0.0	316.40551590919495	
68	295.7067880630493	fix_post	2		12	66.0	2.5	/experiments/AOT/AOT_stimuli/rescaled_final/1107_rv.mp4	0.0	316.5234899520874	0.09998202323913574
69	295.80677008628845	fix_pre	0		120	67.0	2.5	/experiments/AOT/AOT_stimuli/rescaled_final/1110_fw.mp4	0.0	316.62347197532654	1.0000498294830322
69	296.8068199157715	movie	1		244	67.0	2.5	/experiments/AOT/AOT_stimuli/rescaled_final/1110_fw.mp4	0.0	317.62352180480957	2.4999051094055176
69	297.19002413749695	pulse	1	t		67.0	2.5	/experiments/AOT/AOT_stimuli/rescaled_final/1110_fw.mp4	0.0	318.00672602653503	
69	298.79031205177307	pulse	1	t		67.0	2.5	/experiments/AOT/AOT_stimuli/rescaled_final/1110_fw.mp4	0.0	319.60701394081116	
69	299.306725025177	fix_post	2		12	67.0	2.5	/experiments/AOT/AOT_stimuli/rescaled_final/1110_fw.mp4	0.0	320.1234269142151	0.10002493858337402
70	299.4067499637604	fix_pre	0		119	68.0	2.5	/experiments/AOT/AOT_stimuli/rescaled_final/1900_fw.mp4	0.0	320.22345185279846	0.9917640686035156
70	300.3902430534363	pulse	0	t		68.0	2.5	/experiments/AOT/AOT_stimuli/rescaled_final/1900_fw.mp4	0.0	321.20694494247437	
70	300.3985140323639	movie	1		245	68.0	2.5	/experiments/AOT/AOT_stimuli/rescaled_final/1900_fw.mp4	0.0	321.215215921402	2.5082900524139404
70	301.9900059700012	pulse	1	t		68.0	2.5	/experiments/AOT/AOT_stimuli/rescaled_final/1900_fw.mp4	0.0	322.8067078590393	
70	302.90680408477783	fix_post	2		12	68.0	2.5	/experiments/AOT/AOT_stimuli/rescaled_final/1900_fw.mp4	0.0	323.7235059738159	0.09996604919433594
71	303.00677013397217	fix_pre	0		120	69.0	2.5	blank	1.0	323.82347202301025	0.999957799911499
71	303.5903511047363	pulse	0	t		69.0	2.5	blank	1.0	324.4070529937744	
71	304.00672793388367	movie	1		300	69.0	2.5	blank	1.0	324.82342982292175	2.499993085861206
71	305.1902849674225	pulse	1	t		69.0	2.5	blank	1.0	326.00698685646057	
71	306.5067210197449	fix_post	2		12	69.0	2.5	blank	1.0	327.32342290878296	0.10014796257019043
72	306.60686898231506	fix_pre	0		120	70.0	2.5	/experiments/AOT/AOT_stimuli/rescaled_final/1055_rv.mp4	0.0	327.42357087135315	0.9994931221008301
72	306.7902641296387	pulse	0	t		70.0	2.5	/experiments/AOT/AOT_stimuli/rescaled_final/1055_rv.mp4	0.0	327.60696601867676	
72	307.6063621044159	movie	1		245	70.0	2.5	/experiments/AOT/AOT_stimuli/rescaled_final/1055_rv.mp4	0.0	328.423063993454	2.5003268718719482
72	308.39037013053894	pulse	1	t		70.0	2.5	/experiments/AOT/AOT_stimuli/rescaled_final/1055_rv.mp4	0.0	329.207072019577	
72	309.98907995224	pulse	1	t		70.0	2.5	/experiments/AOT/AOT_stimuli/rescaled_final/1055_rv.mp4	0.0	330.8057818412781	
72	310.10668897628784	fix_post	2		12	70.0	2.5	/experiments/AOT/AOT_stimuli/rescaled_final/1055_rv.mp4	0.0	330.9233908653259	0.10004711151123047
73	310.2067360877991	fix_pre	0		120	71.0	2.5	/experiments/AOT/AOT_stimuli/rescaled_final/1591_rv.mp4	0.0	331.02343797683716	0.9996099472045898
73	311.20634603500366	movie	1		245	71.0	2.5	/experiments/AOT/AOT_stimuli/rescaled_final/1591_rv.mp4	0.0	332.02304792404175	2.5003159046173096
73	311.5909900665283	pulse	1	t		71.0	2.5	/experiments/AOT/AOT_stimuli/rescaled_final/1591_rv.mp4	0.0	332.4076919555664	
73	313.1902289390564	pulse	1	t		71.0	2.5	/experiments/AOT/AOT_stimuli/rescaled_final/1591_rv.mp4	0.0	334.0069308280945	
73	313.706661939621	fix_post	2		12	71.0	2.5	/experiments/AOT/AOT_stimuli/rescaled_final/1591_rv.mp4	0.0	334.52336382865906	0.09966897964477539
74	313.80633091926575	fix_pre	0		119	72.0	2.5	/experiments/AOT/AOT_stimuli/rescaled_final/1890_fw.mp4	0.0	334.62303280830383	0.9921870231628418
74	314.79027104377747	pulse	0	t		72.0	2.5	/experiments/AOT/AOT_stimuli/rescaled_final/1890_fw.mp4	0.0	335.60697293281555	
74	314.7985179424286	movie	1		245	72.0	2.5	/experiments/AOT/AOT_stimuli/rescaled_final/1890_fw.mp4	0.0	335.6152198314667	2.5078771114349365
74	316.3899509906769	pulse	1	t		72.0	2.5	/experiments/AOT/AOT_stimuli/rescaled_final/1890_fw.mp4	0.0	337.20665287971497	
74	317.3063950538635	fix_post	2		12	72.0	2.5	/experiments/AOT/AOT_stimuli/rescaled_final/1890_fw.mp4	0.0	338.1230969429016	0.10030508041381836
75	317.40670013427734	fix_pre	0		120	73.0	2.5	/experiments/AOT/AOT_stimuli/rescaled_final/0150_rv.mp4	0.0	338.22340202331543	0.9997208118438721
75	317.9898579120636	pulse	0	t		73.0	2.5	/experiments/AOT/AOT_stimuli/rescaled_final/0150_rv.mp4	0.0	338.8065598011017	
75	318.4064209461212	movie	1		245	73.0	2.5	/experiments/AOT/AOT_stimuli/rescaled_final/0150_rv.mp4	0.0	339.2231228351593	2.500235080718994
75	319.5903799533844	pulse	1	t		73.0	2.5	/experiments/AOT/AOT_stimuli/rescaled_final/0150_rv.mp4	0.0	340.4070818424225	
75	320.9066560268402	fix_post	2		12	73.0	2.5	/experiments/AOT/AOT_stimuli/rescaled_final/0150_rv.mp4	0.0	341.7233579158783	0.10004711151123047
76	321.00670313835144	fix_pre	0		120	74.0	2.5	/experiments/AOT/AOT_stimuli/rescaled_final/1433_rv.mp4	0.0	341.8234050273895	1.0000088214874268
76	321.1901469230652	pulse	0	t		74.0	2.5	/experiments/AOT/AOT_stimuli/rescaled_final/1433_rv.mp4	0.0	342.00684881210327	
76	322.00671195983887	movie	1		244	74.0	2.5	/experiments/AOT/AOT_stimuli/rescaled_final/1433_rv.mp4	0.0	342.82341384887695	2.499526023864746
76	322.79004406929016	pulse	1	t		74.0	2.5	/experiments/AOT/AOT_stimuli/rescaled_final/1433_rv.mp4	0.0	343.60674595832825	
76	324.3887360095978	pulse	1	t		74.0	2.5	/experiments/AOT/AOT_stimuli/rescaled_final/1433_rv.mp4	0.0	345.20543789863586	
76	324.5062379837036	fix_post	2		12	74.0	2.5	/experiments/AOT/AOT_stimuli/rescaled_final/1433_rv.mp4	0.0	345.3229398727417	0.10045814514160156
77	324.6066961288452	fix_pre	0		120	75.0	2.5	blank	1.0	345.4233980178833	0.9995198249816895
77	325.6062159538269	movie	1		300	75.0	2.5	blank	1.0	346.422917842865	2.500401020050049
77	325.99028992652893	pulse	1	t		75.0	2.5	blank	1.0	346.806991815567	
77	327.5900959968567	pulse	1	t		75.0	2.5	blank	1.0	348.4067978858948	
77	328.10661697387695	fix_post	2		12	75.0	2.5	blank	1.0	348.92331886291504	0.09999203681945801
78	328.2066090106964	fix_pre	0		119	76.0	2.5	/experiments/AOT/AOT_stimuli/rescaled_final/1810_rv.mp4	0.0	349.0233108997345	0.9916861057281494
78	329.1901550292969	pulse	0	t		76.0	2.5	/experiments/AOT/AOT_stimuli/rescaled_final/1810_rv.mp4	0.0	350.00685691833496	
78	329.19829511642456	movie	1		247	76.0	2.5	/experiments/AOT/AOT_stimuli/rescaled_final/1810_rv.mp4	0.0	350.01499700546265	2.5083649158477783
78	330.789715051651	pulse	1	t		76.0	2.5	/experiments/AOT/AOT_stimuli/rescaled_final/1810_rv.mp4	0.0	351.6064169406891	
78	331.70666003227234	fix_post	2		12	76.0	2.5	/experiments/AOT/AOT_stimuli/rescaled_final/1810_rv.mp4	0.0	352.5233619213104	0.09953808784484863
79	331.8061981201172	fix_pre	0		120	77.0	2.5	/experiments/AOT/AOT_stimuli/rescaled_final/1085_rv.mp4	0.0	352.6229000091553	1.0004379749298096
79	332.3900320529938	pulse	0	t		77.0	2.5	/experiments/AOT/AOT_stimuli/rescaled_final/1085_rv.mp4	0.0	353.20673394203186	
79	332.806636095047	movie	1		245	77.0	2.5	/experiments/AOT/AOT_stimuli/rescaled_final/1085_rv.mp4	0.0	353.6233379840851	2.4995839595794678
79	333.9901371002197	pulse	1	t		77.0	2.5	/experiments/AOT/AOT_stimuli/rescaled_final/1085_rv.mp4	0.0	354.8068389892578	
79	335.30622005462646	fix_post	2		12	77.0	2.5	/experiments/AOT/AOT_stimuli/rescaled_final/1085_rv.mp4	0.0	356.12292194366455	0.10034608840942383
80	335.4065661430359	fix_pre	0		120	78.0	2.5	/experiments/AOT/AOT_stimuli/rescaled_final/1283_fw.mp4	0.0	356.223268032074	1.0000147819519043
80	335.5899980068207	pulse	0	t		78.0	2.5	/experiments/AOT/AOT_stimuli/rescaled_final/1283_fw.mp4	0.0	356.40669989585876	
80	336.4065809249878	movie	1		246	78.0	2.5	/experiments/AOT/AOT_stimuli/rescaled_final/1283_fw.mp4	0.0	357.2232828140259	2.4995810985565186
80	337.1900360584259	pulse	1	t		78.0	2.5	/experiments/AOT/AOT_stimuli/rescaled_final/1283_fw.mp4	0.0	358.006737947464	
80	338.78872895240784	pulse	1	t		78.0	2.5	/experiments/AOT/AOT_stimuli/rescaled_final/1283_fw.mp4	0.0	359.6054308414459	
80	338.9061620235443	fix_post	2		12	78.0	2.5	/experiments/AOT/AOT_stimuli/rescaled_final/1283_fw.mp4	0.0	359.7228639125824	0.10042405128479004
81	339.0065860748291	fix_pre	0		120	79.0	2.5	/experiments/AOT/AOT_stimuli/rescaled_final/2167_fw.mp4	0.0	359.8232879638672	0.9999659061431885
81	340.0065519809723	movie	1		245	79.0	2.5	/experiments/AOT/AOT_stimuli/rescaled_final/2167_fw.mp4	0.0	360.8232538700104	2.499979019165039
81	340.3898289203644	pulse	1	t		79.0	2.5	/experiments/AOT/AOT_stimuli/rescaled_final/2167_fw.mp4	0.0	361.20653080940247	
81	341.99005699157715	pulse	1	t		79.0	2.5	/experiments/AOT/AOT_stimuli/rescaled_final/2167_fw.mp4	0.0	362.80675888061523	
81	342.50653100013733	fix_post	2		12	79.0	2.5	/experiments/AOT/AOT_stimuli/rescaled_final/2167_fw.mp4	0.0	363.3232328891754	0.10002899169921875
82	342.60655999183655	fix_pre	0		119	80.0	2.5	/experiments/AOT/AOT_stimuli/rescaled_final/1557_fw.mp4	0.0	363.42326188087463	0.9916179180145264
82	343.59016609191895	pulse	0	t		80.0	2.5	/experiments/AOT/AOT_stimuli/rescaled_final/1557_fw.mp4	0.0	364.40686798095703	
82	343.5981779098511	movie	1		246	80.0	2.5	/experiments/AOT/AOT_stimuli/rescaled_final/1557_fw.mp4	0.0	364.41487979888916	2.50832200050354
82	345.1897461414337	pulse	1	t		80.0	2.5	/experiments/AOT/AOT_stimuli/rescaled_final/1557_fw.mp4	0.0	366.0064480304718	
82	346.1064999103546	fix_post	2		12	80.0	2.5	/experiments/AOT/AOT_stimuli/rescaled_final/1557_fw.mp4	0.0	366.9232017993927	0.10003519058227539
83	346.2065351009369	fix_pre	0		120	81.0	2.5	/experiments/AOT/AOT_stimuli/rescaled_final/1808_fw.mp4	0.0	367.023236989975	0.9999749660491943
83	346.7900171279907	pulse	0	t		81.0	2.5	/experiments/AOT/AOT_stimuli/rescaled_final/1808_fw.mp4	0.0	367.6067190170288	
83	347.2065100669861	movie	1		243	81.0	2.5	/experiments/AOT/AOT_stimuli/rescaled_final/1808_fw.mp4	0.0	368.02321195602417	2.499980926513672
83	348.39015793800354	pulse	1	t		81.0	2.5	/experiments/AOT/AOT_stimuli/rescaled_final/1808_fw.mp4	0.0	369.2068598270416	
83	349.70649099349976	fix_post	2		12	81.0	2.5	/experiments/AOT/AOT_stimuli/rescaled_final/1808_fw.mp4	0.0	370.52319288253784	0.10006904602050781
84	349.80656003952026	fix_pre	0		120	82.0	2.5	blank	1.0	370.62326192855835	0.9999649524688721
84	349.98995208740234	pulse	0	t		82.0	2.5	blank	1.0	370.80665397644043	
84	350.80652499198914	movie	1		300	82.0	2.5	blank	1.0	371.6232268810272	2.50004506111145
84	351.58998799324036	pulse	1	t		82.0	2.5	blank	1.0	372.40668988227844	
84	353.19005012512207	pulse	1	t		82.0	2.5	blank	1.0	374.00675201416016	
84	353.3065700531006	fix_post	2		12	82.0	2.5	blank	1.0	374.1232719421387	0.0999760627746582
85	353.40654611587524	fix_pre	0		120	83.0	2.5	/experiments/AOT/AOT_stimuli/rescaled_final/1081_fw.mp4	0.0	374.22324800491333	1.000025987625122
85	354.40657210350037	movie	1		245	83.0	2.5	/experiments/AOT/AOT_stimuli/rescaled_final/1081_fw.mp4	0.0	375.22327399253845	2.4998509883880615
85	354.789528131485	pulse	1	t		83.0	2.5	/experiments/AOT/AOT_stimuli/rescaled_final/1081_fw.mp4	0.0	375.60623002052307	
85	356.3899919986725	pulse	1	t		83.0	2.5	/experiments/AOT/AOT_stimuli/rescaled_final/1081_fw.mp4	0.0	377.20669388771057	
85	356.9064230918884	fix_post	2		12	83.0	2.5	/experiments/AOT/AOT_stimuli/rescaled_final/1081_fw.mp4	0.0	377.7231249809265	0.10014581680297852
87	357.0065689086914	stim	0		1716					377.8232707977295	14.300023078918457
87	357.9900209903717	pulse	0	t						378.8067228794098	
87	359.5900299549103	pulse	0	t						380.40673184394836	
87	361.1900420188904	pulse	0	t						382.00674390792847	
87	362.78996300697327	pulse	0	t						383.60666489601135	
87	364.3899519443512	pulse	0	t						385.2066538333893	
87	365.98985505104065	pulse	0	t						386.80655694007874	
87	367.58980798721313	pulse	0	t						388.4065098762512	
87	369.18984508514404	pulse	0	t						390.00654697418213	
87	370.78994703292847	pulse	0	t						391.60664892196655	
