trial_nr	onset	event_type	phase	response	nr_frames	movie_index	movie_duration	movie_file	blank	onset_abs	duration
0	0.16638588905334473	stim	0		117					19.663546800613403	0.9750611782073975
0	1.1334831714630127	response	0	space						20.63064408302307	
1	1.1414470672607422	stim	0		4620					20.6386079788208	38.51665282249451
1	39.64828395843506	pulse	0	t						59.14544486999512	
1	39.65809988975525	stim	1		1716					59.15526080131531	14.3079674243927
1	41.2393741607666	pulse	1	t						60.73653507232666	
1	42.83971905708313	pulse	1	t						62.33687996864319	
1	44.4400839805603	pulse	1	t						63.93724489212036	
1	46.040191411972046	pulse	1	t						65.5373523235321	
1	47.64036822319031	pulse	1	t						67.13752913475037	
1	49.233646869659424	pulse	1	t						68.73080778121948	
1	50.83275079727173	pulse	1	t						70.32991170883179	
1	52.432833194732666	pulse	1	t						71.92999410629272	
2	53.96606731414795	fix_pre	0		9	0.0	2.5	/experiments/Knapen_AOT/AOT_stimuli/rescaled_final/0749_fw.mp4	0.0	73.46322822570801	0.09179043769836426
2	54.032960653305054	pulse	0	t		0.0	2.5	/experiments/Knapen_AOT/AOT_stimuli/rescaled_final/0749_fw.mp4	0.0	73.53012156486511	
2	54.05785775184631	movie	1		281	0.0	2.5	/experiments/Knapen_AOT/AOT_stimuli/rescaled_final/0749_fw.mp4	0.0	73.55501866340637	2.4919185638427734
2	55.63323450088501	pulse	1	t		0.0	2.5	/experiments/Knapen_AOT/AOT_stimuli/rescaled_final/0749_fw.mp4	0.0	75.13039541244507	
2	56.54977631568909	fix_post	2		12	0.0	2.5	/experiments/Knapen_AOT/AOT_stimuli/rescaled_final/0749_fw.mp4	0.0	76.04693722724915	0.1001579761505127
3	56.6499342918396	fix_pre	0		120	1.0	2.5	/experiments/Knapen_AOT/AOT_stimuli/rescaled_final/0653_fw.mp4	0.0	76.14709520339966	1.0083467960357666
3	57.23351240158081	pulse	0	t		1.0	2.5	/experiments/Knapen_AOT/AOT_stimuli/rescaled_final/0653_fw.mp4	0.0	76.73067331314087	
3	57.658281087875366	movie	1		279	1.0	2.5	/experiments/Knapen_AOT/AOT_stimuli/rescaled_final/0653_fw.mp4	0.0	77.15544199943542	2.492039203643799
3	58.83366942405701	pulse	1	t		1.0	2.5	/experiments/Knapen_AOT/AOT_stimuli/rescaled_final/0653_fw.mp4	0.0	78.33083033561707	
3	60.150320291519165	fix_post	2		12	1.0	2.5	/experiments/Knapen_AOT/AOT_stimuli/rescaled_final/0653_fw.mp4	0.0	79.64748120307922	0.10000467300415039
4	60.250324964523315	fix_pre	0		120	2.0	2.5	/experiments/Knapen_AOT/AOT_stimuli/rescaled_final/0412_fw.mp4	0.0	79.74748587608337	1.0085077285766602
4	60.43410897254944	pulse	0	t		2.0	2.5	/experiments/Knapen_AOT/AOT_stimuli/rescaled_final/0412_fw.mp4	0.0	79.9312698841095	
4	61.258832693099976	movie	1		285	2.0	2.5	/experiments/Knapen_AOT/AOT_stimuli/rescaled_final/0412_fw.mp4	0.0	80.75599360466003	2.492166757583618
4	62.03413414955139	pulse	1	t		2.0	2.5	/experiments/Knapen_AOT/AOT_stimuli/rescaled_final/0412_fw.mp4	0.0	81.53129506111145	
4	63.63438272476196	pulse	1	t		2.0	2.5	/experiments/Knapen_AOT/AOT_stimuli/rescaled_final/0412_fw.mp4	0.0	83.13154363632202	
4	63.750999450683594	fix_post	2		12	2.0	2.5	/experiments/Knapen_AOT/AOT_stimuli/rescaled_final/0412_fw.mp4	0.0	83.24816036224365	0.09986996650695801
5	63.85086941719055	fix_pre	0		120	3.0	2.5	/experiments/Knapen_AOT/AOT_stimuli/rescaled_final/0269_fw.mp4	0.0	83.34803032875061	1.0086698532104492
5	64.859539270401	movie	1		287	3.0	2.5	/experiments/Knapen_AOT/AOT_stimuli/rescaled_final/0269_fw.mp4	0.0	84.35670018196106	2.491853952407837
5	65.23322033882141	pulse	1	t		3.0	2.5	/experiments/Knapen_AOT/AOT_stimuli/rescaled_final/0269_fw.mp4	0.0	84.73038125038147	
5	66.83279061317444	pulse	1	t		3.0	2.5	/experiments/Knapen_AOT/AOT_stimuli/rescaled_final/0269_fw.mp4	0.0	86.3299515247345	
5	67.35139322280884	fix_post	2		12	3.0	2.5	/experiments/Knapen_AOT/AOT_stimuli/rescaled_final/0269_fw.mp4	0.0	86.8485541343689	0.1000528335571289
6	67.45144605636597	fix_pre	0		119	4.0	2.5	/experiments/Knapen_AOT/AOT_stimuli/rescaled_final/0510_fw.mp4	0.0	86.94860696792603	1.0002245903015137
6	68.4350962638855	pulse	0	t		4.0	2.5	/experiments/Knapen_AOT/AOT_stimuli/rescaled_final/0510_fw.mp4	0.0	87.93225717544556	
6	68.45167064666748	movie	1		291	4.0	2.5	/experiments/Knapen_AOT/AOT_stimuli/rescaled_final/0510_fw.mp4	0.0	87.94883155822754	2.5002636909484863
6	70.03375101089478	pulse	1	t		4.0	2.5	/experiments/Knapen_AOT/AOT_stimuli/rescaled_final/0510_fw.mp4	0.0	89.53091192245483	
6	70.95193433761597	fix_post	2		12	4.0	2.5	/experiments/Knapen_AOT/AOT_stimuli/rescaled_final/0510_fw.mp4	0.0	90.44909524917603	0.10004067420959473
7	71.05197501182556	fix_pre	0		120	5.0	2.5	/experiments/Knapen_AOT/AOT_stimuli/rescaled_final/2162_fw.mp4	0.0	90.54913592338562	1.008481502532959
7	71.63565945625305	pulse	0	t		5.0	2.5	/experiments/Knapen_AOT/AOT_stimuli/rescaled_final/2162_fw.mp4	0.0	91.13282036781311	
7	72.06045651435852	movie	1		284	5.0	2.5	/experiments/Knapen_AOT/AOT_stimuli/rescaled_final/2162_fw.mp4	0.0	91.55761742591858	2.4921140670776367
7	73.23449444770813	pulse	1	t		5.0	2.5	/experiments/Knapen_AOT/AOT_stimuli/rescaled_final/2162_fw.mp4	0.0	92.73165535926819	
7	74.55257058143616	fix_post	2		12	5.0	2.5	/experiments/Knapen_AOT/AOT_stimuli/rescaled_final/2162_fw.mp4	0.0	94.04973149299622	0.09996795654296875
8	74.65253853797913	fix_pre	0		120	6.0	2.5	/experiments/Knapen_AOT/AOT_stimuli/rescaled_final/1507_fw.mp4	0.0	94.14969944953918	1.008471965789795
8	74.83649921417236	pulse	0	t		6.0	2.5	/experiments/Knapen_AOT/AOT_stimuli/rescaled_final/1507_fw.mp4	0.0	94.33366012573242	
8	75.66101050376892	movie	1		285	6.0	2.5	/experiments/Knapen_AOT/AOT_stimuli/rescaled_final/1507_fw.mp4	0.0	95.15817141532898	2.4920122623443604
8	76.43431997299194	pulse	1	t		6.0	2.5	/experiments/Knapen_AOT/AOT_stimuli/rescaled_final/1507_fw.mp4	0.0	95.931480884552	
8	78.03761863708496	pulse	1	t		6.0	2.5	/experiments/Knapen_AOT/AOT_stimuli/rescaled_final/1507_fw.mp4	0.0	97.53477954864502	
8	78.15302276611328	fix_post	2		12	6.0	2.5	/experiments/Knapen_AOT/AOT_stimuli/rescaled_final/1507_fw.mp4	0.0	97.65018367767334	0.10001969337463379
9	78.25304245948792	fix_pre	0		120	7.0	2.5	blank	1.0	97.75020337104797	1.0001468658447266
9	79.25318932533264	movie	1		300	7.0	2.5	blank	1.0	98.7503502368927	2.5003979206085205
9	79.6368682384491	pulse	1	t		7.0	2.5	blank	1.0	99.13402915000916	
9	81.23703742027283	pulse	1	t		7.0	2.5	blank	1.0	100.73419833183289	
9	81.75358724594116	fix_post	2		12	7.0	2.5	blank	1.0	101.25074815750122	0.10007357597351074
10	81.85366082191467	fix_pre	0		119	8.0	2.5	/experiments/Knapen_AOT/AOT_stimuli/rescaled_final/1388_fw.mp4	0.0	101.35082173347473	1.0002424716949463
10	82.8372871875763	pulse	0	t		8.0	2.5	/experiments/Knapen_AOT/AOT_stimuli/rescaled_final/1388_fw.mp4	0.0	102.33444809913635	
10	82.85390329360962	movie	1		292	8.0	2.5	/experiments/Knapen_AOT/AOT_stimuli/rescaled_final/1388_fw.mp4	0.0	102.35106420516968	2.5002145767211914
10	84.43611168861389	pulse	1	t		8.0	2.5	/experiments/Knapen_AOT/AOT_stimuli/rescaled_final/1388_fw.mp4	0.0	103.93327260017395	
10	85.35411787033081	fix_post	2		12	8.0	2.5	/experiments/Knapen_AOT/AOT_stimuli/rescaled_final/1388_fw.mp4	0.0	104.85127878189087	0.09998822212219238
11	85.454106092453	fix_pre	0		120	9.0	2.5	/experiments/Knapen_AOT/AOT_stimuli/rescaled_final/1061_fw.mp4	0.0	104.95126700401306	1.0085339546203613
11	86.03791189193726	pulse	0	t		9.0	2.5	/experiments/Knapen_AOT/AOT_stimuli/rescaled_final/1061_fw.mp4	0.0	105.53507280349731	
11	86.46264004707336	movie	1		281	9.0	2.5	/experiments/Knapen_AOT/AOT_stimuli/rescaled_final/1061_fw.mp4	0.0	105.95980095863342	2.4920005798339844
11	87.63736987113953	pulse	1	t		9.0	2.5	/experiments/Knapen_AOT/AOT_stimuli/rescaled_final/1061_fw.mp4	0.0	107.13453078269958	
11	88.95464062690735	fix_post	2		12	9.0	2.5	/experiments/Knapen_AOT/AOT_stimuli/rescaled_final/1061_fw.mp4	0.0	108.45180153846741	0.10003232955932617
12	89.05467295646667	fix_pre	0		120	10.0	2.5	/experiments/Knapen_AOT/AOT_stimuli/rescaled_final/0560_fw.mp4	0.0	108.55183386802673	1.0086259841918945
12	89.23830246925354	pulse	0	t		10.0	2.5	/experiments/Knapen_AOT/AOT_stimuli/rescaled_final/0560_fw.mp4	0.0	108.7354633808136	
12	90.06329894065857	movie	1		272	10.0	2.5	/experiments/Knapen_AOT/AOT_stimuli/rescaled_final/0560_fw.mp4	0.0	109.56045985221863	2.491888999938965
12	90.83641982078552	pulse	1	t		10.0	2.5	/experiments/Knapen_AOT/AOT_stimuli/rescaled_final/0560_fw.mp4	0.0	110.33358073234558	
12	92.43885731697083	pulse	1	t		10.0	2.5	/experiments/Knapen_AOT/AOT_stimuli/rescaled_final/0560_fw.mp4	0.0	111.93601822853088	
12	92.55518794059753	fix_post	2		12	10.0	2.5	/experiments/Knapen_AOT/AOT_stimuli/rescaled_final/0560_fw.mp4	0.0	112.05234885215759	0.10008764266967773
13	92.65527558326721	fix_pre	0		120	11.0	2.5	/experiments/Knapen_AOT/AOT_stimuli/rescaled_final/0607_rv.mp4	0.0	112.15243649482727	1.0084888935089111
13	93.66376447677612	movie	1		282	11.0	2.5	/experiments/Knapen_AOT/AOT_stimuli/rescaled_final/0607_rv.mp4	0.0	113.16092538833618	2.491997241973877
13	94.03750205039978	pulse	1	t		11.0	2.5	/experiments/Knapen_AOT/AOT_stimuli/rescaled_final/0607_rv.mp4	0.0	113.53466296195984	
13	95.63858437538147	pulse	1	t		11.0	2.5	/experiments/Knapen_AOT/AOT_stimuli/rescaled_final/0607_rv.mp4	0.0	115.13574528694153	
13	96.15576171875	fix_post	2		12	11.0	2.5	/experiments/Knapen_AOT/AOT_stimuli/rescaled_final/0607_rv.mp4	0.0	115.65292263031006	0.10004711151123047
14	96.25580883026123	fix_pre	0		119	12.0	2.5	/experiments/Knapen_AOT/AOT_stimuli/rescaled_final/0213_rv.mp4	0.0	115.75296974182129	1.0000782012939453
14	97.23940777778625	pulse	0	t		12.0	2.5	/experiments/Knapen_AOT/AOT_stimuli/rescaled_final/0213_rv.mp4	0.0	116.73656868934631	
14	97.25588703155518	movie	1		283	12.0	2.5	/experiments/Knapen_AOT/AOT_stimuli/rescaled_final/0213_rv.mp4	0.0	116.75304794311523	2.5003960132598877
14	98.83797311782837	pulse	1	t		12.0	2.5	/experiments/Knapen_AOT/AOT_stimuli/rescaled_final/0213_rv.mp4	0.0	118.33513402938843	
14	99.75628304481506	fix_post	2		12	12.0	2.5	/experiments/Knapen_AOT/AOT_stimuli/rescaled_final/0213_rv.mp4	0.0	119.25344395637512	0.10005402565002441
15	99.85633707046509	fix_pre	0		120	13.0	2.5	/experiments/Knapen_AOT/AOT_stimuli/rescaled_final/2003_fw.mp4	0.0	119.35349798202515	1.0084352493286133
15	100.4400897026062	pulse	0	t		13.0	2.5	/experiments/Knapen_AOT/AOT_stimuli/rescaled_final/2003_fw.mp4	0.0	119.93725061416626	
15	100.8647723197937	movie	1		278	13.0	2.5	/experiments/Knapen_AOT/AOT_stimuli/rescaled_final/2003_fw.mp4	0.0	120.36193323135376	2.4921557903289795
15	102.03843116760254	pulse	1	t		13.0	2.5	/experiments/Knapen_AOT/AOT_stimuli/rescaled_final/2003_fw.mp4	0.0	121.5355920791626	
15	103.35692811012268	fix_post	2		12	13.0	2.5	/experiments/Knapen_AOT/AOT_stimuli/rescaled_final/2003_fw.mp4	0.0	122.85408902168274	0.10002303123474121
16	103.45695114135742	fix_pre	0		120	14.0	2.5	blank	1.0	122.95411205291748	1.000046730041504
16	103.63239932060242	pulse	0	t		14.0	2.5	blank	1.0	123.12956023216248	
16	104.45699787139893	movie	1		300	14.0	2.5	blank	1.0	123.95415878295898	2.500351667404175
16	105.23235297203064	pulse	1	t		14.0	2.5	blank	1.0	124.7295138835907	
16	106.83320450782776	pulse	1	t		14.0	2.5	blank	1.0	126.33036541938782	
16	106.9573495388031	fix_post	2		12	14.0	2.5	blank	1.0	126.45451045036316	0.10004544258117676
17	107.05739498138428	fix_pre	0		120	15.0	2.5	/experiments/Knapen_AOT/AOT_stimuli/rescaled_final/1178_rv.mp4	0.0	126.55455589294434	1.008460521697998
17	108.06585550308228	movie	1		275	15.0	2.5	/experiments/Knapen_AOT/AOT_stimuli/rescaled_final/1178_rv.mp4	0.0	127.56301641464233	2.4922921657562256
17	108.43275308609009	pulse	1	t		15.0	2.5	/experiments/Knapen_AOT/AOT_stimuli/rescaled_final/1178_rv.mp4	0.0	127.92991399765015	
17	110.03309941291809	pulse	1	t		15.0	2.5	/experiments/Knapen_AOT/AOT_stimuli/rescaled_final/1178_rv.mp4	0.0	129.53026032447815	
17	110.5581476688385	fix_post	2		12	15.0	2.5	/experiments/Knapen_AOT/AOT_stimuli/rescaled_final/1178_rv.mp4	0.0	130.05530858039856	0.09976649284362793
18	110.65791416168213	fix_pre	0		118	16.0	2.5	/experiments/Knapen_AOT/AOT_stimuli/rescaled_final/0235_fw.mp4	0.0	130.1550750732422	0.9918732643127441
18	111.63332557678223	pulse	0	t		16.0	2.5	/experiments/Knapen_AOT/AOT_stimuli/rescaled_final/0235_fw.mp4	0.0	131.13048648834229	
18	111.64978742599487	movie	1		271	16.0	2.5	/experiments/Knapen_AOT/AOT_stimuli/rescaled_final/0235_fw.mp4	0.0	131.14694833755493	2.5003764629364014
18	113.2339084148407	pulse	1	t		16.0	2.5	/experiments/Knapen_AOT/AOT_stimuli/rescaled_final/0235_fw.mp4	0.0	132.73106932640076	
18	114.15016388893127	fix_post	2		12	16.0	2.5	/experiments/Knapen_AOT/AOT_stimuli/rescaled_final/0235_fw.mp4	0.0	133.64732480049133	0.09998321533203125
19	114.2501471042633	fix_pre	0		120	17.0	2.5	/experiments/Knapen_AOT/AOT_stimuli/rescaled_final/0010_rv.mp4	0.0	133.74730801582336	1.0085327625274658
19	114.83407974243164	pulse	0	t		17.0	2.5	/experiments/Knapen_AOT/AOT_stimuli/rescaled_final/0010_rv.mp4	0.0	134.3312406539917	
19	115.25867986679077	movie	1		288	17.0	2.5	/experiments/Knapen_AOT/AOT_stimuli/rescaled_final/0010_rv.mp4	0.0	134.75584077835083	2.491964817047119
19	116.43224024772644	pulse	1	t		17.0	2.5	/experiments/Knapen_AOT/AOT_stimuli/rescaled_final/0010_rv.mp4	0.0	135.9294011592865	
19	117.75064468383789	fix_post	2		12	17.0	2.5	/experiments/Knapen_AOT/AOT_stimuli/rescaled_final/0010_rv.mp4	0.0	137.24780559539795	0.10001158714294434
20	117.85065627098083	fix_pre	0		120	18.0	2.5	/experiments/Knapen_AOT/AOT_stimuli/rescaled_final/1133_fw.mp4	0.0	137.3478171825409	1.008528470993042
20	118.03423285484314	pulse	0	t		18.0	2.5	/experiments/Knapen_AOT/AOT_stimuli/rescaled_final/1133_fw.mp4	0.0	137.5313937664032	
20	118.85918474197388	movie	1		283	18.0	2.5	/experiments/Knapen_AOT/AOT_stimuli/rescaled_final/1133_fw.mp4	0.0	138.35634565353394	2.49202299118042
20	119.63250708580017	pulse	1	t		18.0	2.5	/experiments/Knapen_AOT/AOT_stimuli/rescaled_final/1133_fw.mp4	0.0	139.12966799736023	
20	121.23299193382263	pulse	1	t		18.0	2.5	/experiments/Knapen_AOT/AOT_stimuli/rescaled_final/1133_fw.mp4	0.0	140.7301528453827	
20	121.3512077331543	fix_post	2		12	18.0	2.5	/experiments/Knapen_AOT/AOT_stimuli/rescaled_final/1133_fw.mp4	0.0	140.84836864471436	0.10019755363464355
21	121.45140528678894	fix_pre	0		120	19.0	2.5	/experiments/Knapen_AOT/AOT_stimuli/rescaled_final/1312_rv.mp4	0.0	140.948566198349	1.0083060264587402
21	122.45971131324768	movie	1		285	19.0	2.5	/experiments/Knapen_AOT/AOT_stimuli/rescaled_final/1312_rv.mp4	0.0	141.95687222480774	2.4920289516448975
21	122.83338904380798	pulse	1	t		19.0	2.5	/experiments/Knapen_AOT/AOT_stimuli/rescaled_final/1312_rv.mp4	0.0	142.33054995536804	
21	124.43289422988892	pulse	1	t		19.0	2.5	/experiments/Knapen_AOT/AOT_stimuli/rescaled_final/1312_rv.mp4	0.0	143.93005514144897	
21	124.95174026489258	fix_post	2		12	19.0	2.5	/experiments/Knapen_AOT/AOT_stimuli/rescaled_final/1312_rv.mp4	0.0	144.44890117645264	0.10001945495605469
22	125.05175971984863	fix_pre	0		119	20.0	2.5	/experiments/Knapen_AOT/AOT_stimuli/rescaled_final/2005_fw.mp4	0.0	144.5489206314087	1.0001516342163086
22	126.03546166419983	pulse	0	t		20.0	2.5	/experiments/Knapen_AOT/AOT_stimuli/rescaled_final/2005_fw.mp4	0.0	145.5326225757599	
22	126.05191135406494	movie	1		290	20.0	2.5	/experiments/Knapen_AOT/AOT_stimuli/rescaled_final/2005_fw.mp4	0.0	145.549072265625	2.500394582748413
22	127.63404130935669	pulse	1	t		20.0	2.5	/experiments/Knapen_AOT/AOT_stimuli/rescaled_final/2005_fw.mp4	0.0	147.13120222091675	
22	128.55230593681335	fix_post	2		12	20.0	2.5	/experiments/Knapen_AOT/AOT_stimuli/rescaled_final/2005_fw.mp4	0.0	148.0494668483734	0.09999299049377441
23	128.65229892730713	fix_pre	0		120	21.0	2.5	blank	1.0	148.1494598388672	1.0001366138458252
23	129.23592114448547	pulse	0	t		21.0	2.5	blank	1.0	148.73308205604553	
23	129.65243554115295	movie	1		300	21.0	2.5	blank	1.0	149.149596452713	2.5003793239593506
23	130.83624267578125	pulse	1	t		21.0	2.5	blank	1.0	150.3334035873413	
23	132.1528148651123	fix_post	2		12	21.0	2.5	blank	1.0	151.64997577667236	0.10002732276916504
24	132.25284218788147	fix_pre	0		120	22.0	2.5	/experiments/Knapen_AOT/AOT_stimuli/rescaled_final/1507_rv.mp4	0.0	151.75000309944153	1.008568286895752
24	132.43638849258423	pulse	0	t		22.0	2.5	/experiments/Knapen_AOT/AOT_stimuli/rescaled_final/1507_rv.mp4	0.0	151.9335494041443	
24	133.26141047477722	movie	1		272	22.0	2.5	/experiments/Knapen_AOT/AOT_stimuli/rescaled_final/1507_rv.mp4	0.0	152.75857138633728	2.4919533729553223
24	134.0350182056427	pulse	1	t		22.0	2.5	/experiments/Knapen_AOT/AOT_stimuli/rescaled_final/1507_rv.mp4	0.0	153.53217911720276	
24	135.6350564956665	pulse	1	t		22.0	2.5	/experiments/Knapen_AOT/AOT_stimuli/rescaled_final/1507_rv.mp4	0.0	155.13221740722656	
24	135.75336384773254	fix_post	2		12	22.0	2.5	/experiments/Knapen_AOT/AOT_stimuli/rescaled_final/1507_rv.mp4	0.0	155.2505247592926	0.10001349449157715
25	135.85337734222412	fix_pre	0		120	23.0	2.5	/experiments/Knapen_AOT/AOT_stimuli/rescaled_final/0907_rv.mp4	0.0	155.35053825378418	1.008549690246582
25	136.8619270324707	movie	1		274	23.0	2.5	/experiments/Knapen_AOT/AOT_stimuli/rescaled_final/0907_rv.mp4	0.0	156.35908794403076	2.4920032024383545
25	137.23674941062927	pulse	1	t		23.0	2.5	/experiments/Knapen_AOT/AOT_stimuli/rescaled_final/0907_rv.mp4	0.0	156.73391032218933	
25	138.83548855781555	pulse	1	t		23.0	2.5	/experiments/Knapen_AOT/AOT_stimuli/rescaled_final/0907_rv.mp4	0.0	158.3326494693756	
25	139.35393023490906	fix_post	2		12	23.0	2.5	/experiments/Knapen_AOT/AOT_stimuli/rescaled_final/0907_rv.mp4	0.0	158.85109114646912	0.10001635551452637
26	139.45394659042358	fix_pre	0		119	24.0	2.5	/experiments/Knapen_AOT/AOT_stimuli/rescaled_final/1242_rv.mp4	0.0	158.95110750198364	1.0085375308990479
26	140.43757915496826	pulse	0	t		24.0	2.5	/experiments/Knapen_AOT/AOT_stimuli/rescaled_final/1242_rv.mp4	0.0	159.93474006652832	
26	140.46248412132263	movie	1		280	24.0	2.5	/experiments/Knapen_AOT/AOT_stimuli/rescaled_final/1242_rv.mp4	0.0	159.9596450328827	2.4919726848602295
26	142.03670525550842	pulse	1	t		24.0	2.5	/experiments/Knapen_AOT/AOT_stimuli/rescaled_final/1242_rv.mp4	0.0	161.53386616706848	
26	142.95445680618286	fix_post	2		12	24.0	2.5	/experiments/Knapen_AOT/AOT_stimuli/rescaled_final/1242_rv.mp4	0.0	162.45161771774292	0.10002970695495605
27	143.05448651313782	fix_pre	0		120	25.0	2.5	/experiments/Knapen_AOT/AOT_stimuli/rescaled_final/0427_rv.mp4	0.0	162.55164742469788	1.0084540843963623
27	143.63818955421448	pulse	0	t		25.0	2.5	/experiments/Knapen_AOT/AOT_stimuli/rescaled_final/0427_rv.mp4	0.0	163.13535046577454	
27	144.06294059753418	movie	1		287	25.0	2.5	/experiments/Knapen_AOT/AOT_stimuli/rescaled_final/0427_rv.mp4	0.0	163.56010150909424	2.4920849800109863
27	145.23662543296814	pulse	1	t		25.0	2.5	/experiments/Knapen_AOT/AOT_stimuli/rescaled_final/0427_rv.mp4	0.0	164.7337863445282	
27	146.55502557754517	fix_post	2		12	25.0	2.5	/experiments/Knapen_AOT/AOT_stimuli/rescaled_final/0427_rv.mp4	0.0	166.05218648910522	0.09998273849487305
28	146.65500831604004	fix_pre	0		120	26.0	2.5	/experiments/Knapen_AOT/AOT_stimuli/rescaled_final/1652_rv.mp4	0.0	166.1521692276001	1.0085265636444092
28	146.83856868743896	pulse	0	t		26.0	2.5	/experiments/Knapen_AOT/AOT_stimuli/rescaled_final/1652_rv.mp4	0.0	166.33572959899902	
28	147.66353487968445	movie	1		273	26.0	2.5	/experiments/Knapen_AOT/AOT_stimuli/rescaled_final/1652_rv.mp4	0.0	167.1606957912445	2.4921042919158936
28	148.43692111968994	pulse	1	t		26.0	2.5	/experiments/Knapen_AOT/AOT_stimuli/rescaled_final/1652_rv.mp4	0.0	167.93408203125	
28	150.03724217414856	pulse	1	t		26.0	2.5	/experiments/Knapen_AOT/AOT_stimuli/rescaled_final/1652_rv.mp4	0.0	169.53440308570862	
28	150.15563917160034	fix_post	2		12	26.0	2.5	/experiments/Knapen_AOT/AOT_stimuli/rescaled_final/1652_rv.mp4	0.0	169.6528000831604	0.09994053840637207
29	150.2555797100067	fix_pre	0		120	27.0	2.5	blank	1.0	169.75274062156677	1.000108242034912
29	151.25568795204163	movie	1		300	27.0	2.5	blank	1.0	170.75284886360168	2.50040602684021
29	151.63927483558655	pulse	1	t		27.0	2.5	blank	1.0	171.1364357471466	
29	153.23966240882874	pulse	1	t		27.0	2.5	blank	1.0	172.7368233203888	
29	153.75609397888184	fix_post	2		12	27.0	2.5	blank	1.0	173.2532548904419	0.09998226165771484
30	153.85607624053955	fix_pre	0		119	28.0	2.5	/experiments/Knapen_AOT/AOT_stimuli/rescaled_final/0965_rv.mp4	0.0	173.3532371520996	1.00016188621521
30	154.83244037628174	pulse	0	t		28.0	2.5	/experiments/Knapen_AOT/AOT_stimuli/rescaled_final/0965_rv.mp4	0.0	174.3296012878418	
30	154.85623812675476	movie	1		281	28.0	2.5	/experiments/Knapen_AOT/AOT_stimuli/rescaled_final/0965_rv.mp4	0.0	174.35339903831482	2.5003983974456787
30	156.4393379688263	pulse	1	t		28.0	2.5	/experiments/Knapen_AOT/AOT_stimuli/rescaled_final/0965_rv.mp4	0.0	175.93649888038635	
30	157.35663652420044	fix_post	2		12	28.0	2.5	/experiments/Knapen_AOT/AOT_stimuli/rescaled_final/0965_rv.mp4	0.0	176.8537974357605	0.09999394416809082
31	157.45663046836853	fix_pre	0		120	29.0	2.5	/experiments/Knapen_AOT/AOT_stimuli/rescaled_final/1179_fw.mp4	0.0	176.9537913799286	1.0084779262542725
31	158.04034638404846	pulse	0	t		29.0	2.5	/experiments/Knapen_AOT/AOT_stimuli/rescaled_final/1179_fw.mp4	0.0	177.53750729560852	
31	158.4651083946228	movie	1		288	29.0	2.5	/experiments/Knapen_AOT/AOT_stimuli/rescaled_final/1179_fw.mp4	0.0	177.96226930618286	2.4920473098754883
31	159.6406593322754	pulse	1	t		29.0	2.5	/experiments/Knapen_AOT/AOT_stimuli/rescaled_final/1179_fw.mp4	0.0	179.13782024383545	
31	160.9571557044983	fix_post	2		12	29.0	2.5	/experiments/Knapen_AOT/AOT_stimuli/rescaled_final/1179_fw.mp4	0.0	180.45431661605835	0.10005521774291992
32	161.0572109222412	fix_pre	0		120	30.0	2.5	/experiments/Knapen_AOT/AOT_stimuli/rescaled_final/0628_rv.mp4	0.0	180.55437183380127	1.0084517002105713
32	161.23270297050476	pulse	0	t		30.0	2.5	/experiments/Knapen_AOT/AOT_stimuli/rescaled_final/0628_rv.mp4	0.0	180.72986388206482	
32	162.06566262245178	movie	1		282	30.0	2.5	/experiments/Knapen_AOT/AOT_stimuli/rescaled_final/0628_rv.mp4	0.0	181.56282353401184	2.492055892944336
32	162.83277559280396	pulse	1	t		30.0	2.5	/experiments/Knapen_AOT/AOT_stimuli/rescaled_final/0628_rv.mp4	0.0	182.329936504364	
32	164.43301725387573	pulse	1	t		30.0	2.5	/experiments/Knapen_AOT/AOT_stimuli/rescaled_final/0628_rv.mp4	0.0	183.9301781654358	
32	164.55771851539612	fix_post	2		12	30.0	2.5	/experiments/Knapen_AOT/AOT_stimuli/rescaled_final/0628_rv.mp4	0.0	184.05487942695618	0.1000053882598877
33	164.657723903656	fix_pre	0		120	31.0	2.5	/experiments/Knapen_AOT/AOT_stimuli/rescaled_final/1950_fw.mp4	0.0	184.15488481521606	1.0085086822509766
33	165.66623258590698	movie	1		283	31.0	2.5	/experiments/Knapen_AOT/AOT_stimuli/rescaled_final/1950_fw.mp4	0.0	185.16339349746704	2.492004156112671
33	166.03319597244263	pulse	1	t		31.0	2.5	/experiments/Knapen_AOT/AOT_stimuli/rescaled_final/1950_fw.mp4	0.0	185.53035688400269	
33	167.6333565711975	pulse	1	t		31.0	2.5	/experiments/Knapen_AOT/AOT_stimuli/rescaled_final/1950_fw.mp4	0.0	187.13051748275757	
33	168.15823674201965	fix_post	2		12	31.0	2.5	/experiments/Knapen_AOT/AOT_stimuli/rescaled_final/1950_fw.mp4	0.0	187.6553976535797	0.10001468658447266
34	168.25825142860413	fix_pre	0		118	32.0	2.5	/experiments/Knapen_AOT/AOT_stimuli/rescaled_final/0486_fw.mp4	0.0	187.75541234016418	0.9918334484100342
34	169.2336082458496	pulse	0	t		32.0	2.5	/experiments/Knapen_AOT/AOT_stimuli/rescaled_final/0486_fw.mp4	0.0	188.73076915740967	
34	169.25008487701416	movie	1		288	32.0	2.5	/experiments/Knapen_AOT/AOT_stimuli/rescaled_final/0486_fw.mp4	0.0	188.74724578857422	2.50040340423584
34	170.83338069915771	pulse	1	t		32.0	2.5	/experiments/Knapen_AOT/AOT_stimuli/rescaled_final/0486_fw.mp4	0.0	190.33054161071777	
34	171.75048828125	fix_post	2		12	32.0	2.5	/experiments/Knapen_AOT/AOT_stimuli/rescaled_final/0486_fw.mp4	0.0	191.24764919281006	0.09995436668395996
35	171.85044264793396	fix_pre	0		120	33.0	2.5	/experiments/Knapen_AOT/AOT_stimuli/rescaled_final/0355_fw.mp4	0.0	191.34760355949402	1.0085821151733398
35	172.43418169021606	pulse	0	t		33.0	2.5	/experiments/Knapen_AOT/AOT_stimuli/rescaled_final/0355_fw.mp4	0.0	191.93134260177612	
35	172.8590247631073	movie	1		279	33.0	2.5	/experiments/Knapen_AOT/AOT_stimuli/rescaled_final/0355_fw.mp4	0.0	192.35618567466736	2.4919540882110596
35	174.0343520641327	pulse	1	t		33.0	2.5	/experiments/Knapen_AOT/AOT_stimuli/rescaled_final/0355_fw.mp4	0.0	193.53151297569275	
35	175.35097885131836	fix_post	2		12	33.0	2.5	/experiments/Knapen_AOT/AOT_stimuli/rescaled_final/0355_fw.mp4	0.0	194.84813976287842	0.10001325607299805
36	175.45099210739136	fix_pre	0		120	34.0	2.5	blank	1.0	194.94815301895142	1.0001604557037354
36	175.63482570648193	pulse	0	t		34.0	2.5	blank	1.0	195.131986618042	
36	176.4511525630951	movie	1		300	34.0	2.5	blank	1.0	195.94831347465515	2.5003628730773926
36	177.2348668575287	pulse	1	t		34.0	2.5	blank	1.0	196.73202776908875	
36	178.83499193191528	pulse	1	t		34.0	2.5	blank	1.0	198.33215284347534	
36	178.95151543617249	fix_post	2		12	34.0	2.5	blank	1.0	198.44867634773254	0.10005569458007812
37	179.05157113075256	fix_pre	0		120	35.0	2.5	/experiments/Knapen_AOT/AOT_stimuli/rescaled_final/0902_rv.mp4	0.0	198.54873204231262	1.008474349975586
37	180.06004548072815	movie	1		270	35.0	2.5	/experiments/Knapen_AOT/AOT_stimuli/rescaled_final/0902_rv.mp4	0.0	199.5572063922882	2.4920318126678467
37	180.43391251564026	pulse	1	t		35.0	2.5	/experiments/Knapen_AOT/AOT_stimuli/rescaled_final/0902_rv.mp4	0.0	199.93107342720032	
37	182.0348882675171	pulse	1	t		35.0	2.5	/experiments/Knapen_AOT/AOT_stimuli/rescaled_final/0902_rv.mp4	0.0	201.53204917907715	
37	182.552077293396	fix_post	2		12	35.0	2.5	/experiments/Knapen_AOT/AOT_stimuli/rescaled_final/0902_rv.mp4	0.0	202.04923820495605	0.1000065803527832
38	182.65208387374878	fix_pre	0		119	36.0	2.5	/experiments/Knapen_AOT/AOT_stimuli/rescaled_final/0387_rv.mp4	0.0	202.14924478530884	1.000145673751831
38	183.63583111763	pulse	0	t		36.0	2.5	/experiments/Knapen_AOT/AOT_stimuli/rescaled_final/0387_rv.mp4	0.0	203.13299202919006	
38	183.6522295475006	movie	1		285	36.0	2.5	/experiments/Knapen_AOT/AOT_stimuli/rescaled_final/0387_rv.mp4	0.0	203.14939045906067	2.500371217727661
38	185.23606371879578	pulse	1	t		36.0	2.5	/experiments/Knapen_AOT/AOT_stimuli/rescaled_final/0387_rv.mp4	0.0	204.73322463035583	
38	186.15260076522827	fix_post	2		12	36.0	2.5	/experiments/Knapen_AOT/AOT_stimuli/rescaled_final/0387_rv.mp4	0.0	205.64976167678833	0.10001921653747559
39	186.25261998176575	fix_pre	0		120	37.0	2.5	/experiments/Knapen_AOT/AOT_stimuli/rescaled_final/1178_fw.mp4	0.0	205.7497808933258	1.0084781646728516
39	186.83623266220093	pulse	0	t		37.0	2.5	/experiments/Knapen_AOT/AOT_stimuli/rescaled_final/1178_fw.mp4	0.0	206.333393573761	
39	187.2610981464386	movie	1		279	37.0	2.5	/experiments/Knapen_AOT/AOT_stimuli/rescaled_final/1178_fw.mp4	0.0	206.75825905799866	2.492049217224121
39	188.43505859375	pulse	1	t		37.0	2.5	/experiments/Knapen_AOT/AOT_stimuli/rescaled_final/1178_fw.mp4	0.0	207.93221950531006	
39	189.75314736366272	fix_post	2		12	37.0	2.5	/experiments/Knapen_AOT/AOT_stimuli/rescaled_final/1178_fw.mp4	0.0	209.25030827522278	0.10006952285766602
40	189.85321688652039	fix_pre	0		120	38.0	2.5	/experiments/Knapen_AOT/AOT_stimuli/rescaled_final/1705_rv.mp4	0.0	209.35037779808044	1.0084547996520996
40	190.03675079345703	pulse	0	t		38.0	2.5	/experiments/Knapen_AOT/AOT_stimuli/rescaled_final/1705_rv.mp4	0.0	209.5339117050171	
40	190.86167168617249	movie	1		277	38.0	2.5	/experiments/Knapen_AOT/AOT_stimuli/rescaled_final/1705_rv.mp4	0.0	210.35883259773254	2.4921061992645264
40	191.63478565216064	pulse	1	t		38.0	2.5	/experiments/Knapen_AOT/AOT_stimuli/rescaled_final/1705_rv.mp4	0.0	211.1319465637207	
40	193.23711133003235	pulse	1	t		38.0	2.5	/experiments/Knapen_AOT/AOT_stimuli/rescaled_final/1705_rv.mp4	0.0	212.7342722415924	
40	193.353777885437	fix_post	2		12	38.0	2.5	/experiments/Knapen_AOT/AOT_stimuli/rescaled_final/1705_rv.mp4	0.0	212.85093879699707	0.09992694854736328
41	193.45370483398438	fix_pre	0		120	39.0	2.5	/experiments/Knapen_AOT/AOT_stimuli/rescaled_final/1244_rv.mp4	0.0	212.95086574554443	1.0084922313690186
41	194.4621970653534	movie	1		282	39.0	2.5	/experiments/Knapen_AOT/AOT_stimuli/rescaled_final/1244_rv.mp4	0.0	213.95935797691345	2.492053270339966
41	194.83601999282837	pulse	1	t		39.0	2.5	/experiments/Knapen_AOT/AOT_stimuli/rescaled_final/1244_rv.mp4	0.0	214.33318090438843	
41	196.43579721450806	pulse	1	t		39.0	2.5	/experiments/Knapen_AOT/AOT_stimuli/rescaled_final/1244_rv.mp4	0.0	215.93295812606812	
41	196.95425033569336	fix_post	2		12	39.0	2.5	/experiments/Knapen_AOT/AOT_stimuli/rescaled_final/1244_rv.mp4	0.0	216.45141124725342	0.10001206398010254
42	197.05426239967346	fix_pre	0		119	40.0	2.5	/experiments/Knapen_AOT/AOT_stimuli/rescaled_final/0492_rv.mp4	0.0	216.55142331123352	1.0001826286315918
42	198.03799748420715	pulse	0	t		40.0	2.5	/experiments/Knapen_AOT/AOT_stimuli/rescaled_final/0492_rv.mp4	0.0	217.5351583957672	
42	198.05444502830505	movie	1		288	40.0	2.5	/experiments/Knapen_AOT/AOT_stimuli/rescaled_final/0492_rv.mp4	0.0	217.5516059398651	2.5003364086151123
42	199.63668513298035	pulse	1	t		40.0	2.5	/experiments/Knapen_AOT/AOT_stimuli/rescaled_final/0492_rv.mp4	0.0	219.1338460445404	
42	200.55478143692017	fix_post	2		12	40.0	2.5	/experiments/Knapen_AOT/AOT_stimuli/rescaled_final/0492_rv.mp4	0.0	220.05194234848022	0.10004544258117676
43	200.65482687950134	fix_pre	0		120	41.0	2.5	/experiments/Knapen_AOT/AOT_stimuli/rescaled_final/1255_fw.mp4	0.0	220.1519877910614	1.0084733963012695
43	201.23844933509827	pulse	0	t		41.0	2.5	/experiments/Knapen_AOT/AOT_stimuli/rescaled_final/1255_fw.mp4	0.0	220.73561024665833	
43	201.6633002758026	movie	1		284	41.0	2.5	/experiments/Knapen_AOT/AOT_stimuli/rescaled_final/1255_fw.mp4	0.0	221.16046118736267	2.491985321044922
43	202.83680605888367	pulse	1	t		41.0	2.5	/experiments/Knapen_AOT/AOT_stimuli/rescaled_final/1255_fw.mp4	0.0	222.33396697044373	
43	204.15528559684753	fix_post	2		12	41.0	2.5	/experiments/Knapen_AOT/AOT_stimuli/rescaled_final/1255_fw.mp4	0.0	223.6524465084076	0.10001444816589355
44	204.25530004501343	fix_pre	0		120	42.0	2.5	blank	1.0	223.7524609565735	1.0001916885375977
44	204.43877959251404	pulse	0	t		42.0	2.5	blank	1.0	223.9359405040741	
44	205.25549173355103	movie	1		300	42.0	2.5	blank	1.0	224.75265264511108	2.50034761428833
44	206.03913927078247	pulse	1	t		42.0	2.5	blank	1.0	225.53630018234253	
44	207.6393940448761	pulse	1	t		42.0	2.5	blank	1.0	227.13655495643616	
44	207.75583934783936	fix_post	2		12	42.0	2.5	blank	1.0	227.2530002593994	0.10007452964782715
45	207.85591387748718	fix_pre	0		120	43.0	2.5	/experiments/Knapen_AOT/AOT_stimuli/rescaled_final/1469_rv.mp4	0.0	227.35307478904724	1.0084590911865234
45	208.8643729686737	movie	1		290	43.0	2.5	/experiments/Knapen_AOT/AOT_stimuli/rescaled_final/1469_rv.mp4	0.0	228.36153388023376	2.49202036857605
45	209.23741841316223	pulse	1	t		43.0	2.5	/experiments/Knapen_AOT/AOT_stimuli/rescaled_final/1469_rv.mp4	0.0	228.7345793247223	
45	210.8388180732727	pulse	1	t		43.0	2.5	/experiments/Knapen_AOT/AOT_stimuli/rescaled_final/1469_rv.mp4	0.0	230.33597898483276	
45	211.35639333724976	fix_post	2		12	43.0	2.5	/experiments/Knapen_AOT/AOT_stimuli/rescaled_final/1469_rv.mp4	0.0	230.85355424880981	0.10001540184020996
46	211.45640873908997	fix_pre	0		119	44.0	2.5	/experiments/Knapen_AOT/AOT_stimuli/rescaled_final/0747_fw.mp4	0.0	230.95356965065002	1.0001626014709473
46	212.440101146698	pulse	0	t		44.0	2.5	/experiments/Knapen_AOT/AOT_stimuli/rescaled_final/0747_fw.mp4	0.0	231.93726205825806	
46	212.4565713405609	movie	1		276	44.0	2.5	/experiments/Knapen_AOT/AOT_stimuli/rescaled_final/0747_fw.mp4	0.0	231.95373225212097	2.5003647804260254
46	214.03915166854858	pulse	1	t		44.0	2.5	/experiments/Knapen_AOT/AOT_stimuli/rescaled_final/0747_fw.mp4	0.0	233.53631258010864	
46	214.95693612098694	fix_post	2		12	44.0	2.5	/experiments/Knapen_AOT/AOT_stimuli/rescaled_final/0747_fw.mp4	0.0	234.454097032547	0.10022354125976562
47	215.0571596622467	fix_pre	0		120	45.0	2.5	/experiments/Knapen_AOT/AOT_stimuli/rescaled_final/1691_fw.mp4	0.0	234.55432057380676	1.0083603858947754
47	215.6331717967987	pulse	0	t		45.0	2.5	/experiments/Knapen_AOT/AOT_stimuli/rescaled_final/1691_fw.mp4	0.0	235.13033270835876	
47	216.06552004814148	movie	1		267	45.0	2.5	/experiments/Knapen_AOT/AOT_stimuli/rescaled_final/1691_fw.mp4	0.0	235.56268095970154	2.4919698238372803
47	217.23911023139954	pulse	1	t		45.0	2.5	/experiments/Knapen_AOT/AOT_stimuli/rescaled_final/1691_fw.mp4	0.0	236.7362711429596	
47	218.55748987197876	fix_post	2		12	45.0	2.5	/experiments/Knapen_AOT/AOT_stimuli/rescaled_final/1691_fw.mp4	0.0	238.05465078353882	0.10015702247619629
48	218.65764689445496	fix_pre	0		120	46.0	2.5	/experiments/Knapen_AOT/AOT_stimuli/rescaled_final/0988_fw.mp4	0.0	238.15480780601501	1.008378267288208
48	218.83311319351196	pulse	0	t		46.0	2.5	/experiments/Knapen_AOT/AOT_stimuli/rescaled_final/0988_fw.mp4	0.0	238.33027410507202	
48	219.66602516174316	movie	1		276	46.0	2.5	/experiments/Knapen_AOT/AOT_stimuli/rescaled_final/0988_fw.mp4	0.0	239.16318607330322	2.492039442062378
48	220.43309712409973	pulse	1	t		46.0	2.5	/experiments/Knapen_AOT/AOT_stimuli/rescaled_final/0988_fw.mp4	0.0	239.9302580356598	
48	222.03369116783142	pulse	1	t		46.0	2.5	/experiments/Knapen_AOT/AOT_stimuli/rescaled_final/0988_fw.mp4	0.0	241.53085207939148	
48	222.15806460380554	fix_post	2		12	46.0	2.5	/experiments/Knapen_AOT/AOT_stimuli/rescaled_final/0988_fw.mp4	0.0	241.6552255153656	0.10002255439758301
49	222.25808715820312	fix_pre	0		120	47.0	2.5	/experiments/Knapen_AOT/AOT_stimuli/rescaled_final/1312_rv.mp4	0.0	241.75524806976318	1.0084254741668701
49	223.26651263237	movie	1		276	47.0	2.5	/experiments/Knapen_AOT/AOT_stimuli/rescaled_final/1312_rv.mp4	0.0	242.76367354393005	2.492065668106079
49	223.63361430168152	pulse	1	t		47.0	2.5	/experiments/Knapen_AOT/AOT_stimuli/rescaled_final/1312_rv.mp4	0.0	243.13077521324158	
49	225.23399376869202	pulse	1	t		47.0	2.5	/experiments/Knapen_AOT/AOT_stimuli/rescaled_final/1312_rv.mp4	0.0	244.73115468025208	
49	225.75857830047607	fix_post	2		12	47.0	2.5	/experiments/Knapen_AOT/AOT_stimuli/rescaled_final/1312_rv.mp4	0.0	245.25573921203613	0.10002493858337402
50	225.85860323905945	fix_pre	0		118	48.0	2.5	/experiments/Knapen_AOT/AOT_stimuli/rescaled_final/1906_rv.mp4	0.0	245.3557641506195	0.9918134212493896
50	226.83408975601196	pulse	0	t		48.0	2.5	/experiments/Knapen_AOT/AOT_stimuli/rescaled_final/1906_rv.mp4	0.0	246.33125066757202	
50	226.85041666030884	movie	1		287	48.0	2.5	/experiments/Knapen_AOT/AOT_stimuli/rescaled_final/1906_rv.mp4	0.0	246.3475775718689	2.5003550052642822
50	228.4342041015625	pulse	1	t		48.0	2.5	/experiments/Knapen_AOT/AOT_stimuli/rescaled_final/1906_rv.mp4	0.0	247.93136501312256	
50	229.35077166557312	fix_post	2		12	48.0	2.5	/experiments/Knapen_AOT/AOT_stimuli/rescaled_final/1906_rv.mp4	0.0	248.84793257713318	0.10006928443908691
51	229.4508409500122	fix_pre	0		120	49.0	2.5	blank	1.0	248.94800186157227	1.000108003616333
51	230.0344479084015	pulse	0	t		49.0	2.5	blank	1.0	249.53160881996155	
51	230.45094895362854	movie	1		300	49.0	2.5	blank	1.0	249.9481098651886	2.5003530979156494
51	231.63481211662292	pulse	1	t		49.0	2.5	blank	1.0	251.13197302818298	
51	232.9513020515442	fix_post	2		12	49.0	2.5	blank	1.0	252.44846296310425	0.1000521183013916
52	233.05135416984558	fix_pre	0		120	50.0	2.5	/experiments/Knapen_AOT/AOT_stimuli/rescaled_final/1815_rv.mp4	0.0	252.54851508140564	1.0085077285766602
52	233.23489809036255	pulse	0	t		50.0	2.5	/experiments/Knapen_AOT/AOT_stimuli/rescaled_final/1815_rv.mp4	0.0	252.7320590019226	
52	234.05986189842224	movie	1		279	50.0	2.5	/experiments/Knapen_AOT/AOT_stimuli/rescaled_final/1815_rv.mp4	0.0	253.5570228099823	2.4919848442077637
52	234.83375549316406	pulse	1	t		50.0	2.5	/experiments/Knapen_AOT/AOT_stimuli/rescaled_final/1815_rv.mp4	0.0	254.33091640472412	
52	236.43332862854004	pulse	1	t		50.0	2.5	/experiments/Knapen_AOT/AOT_stimuli/rescaled_final/1815_rv.mp4	0.0	255.9304895401001	
52	236.55184674263	fix_post	2		12	50.0	2.5	/experiments/Knapen_AOT/AOT_stimuli/rescaled_final/1815_rv.mp4	0.0	256.04900765419006	0.10001468658447266
53	236.65186142921448	fix_pre	0		120	51.0	2.5	/experiments/Knapen_AOT/AOT_stimuli/rescaled_final/0427_rv.mp4	0.0	256.14902234077454	1.0084953308105469
53	237.66035676002502	movie	1		289	51.0	2.5	/experiments/Knapen_AOT/AOT_stimuli/rescaled_final/0427_rv.mp4	0.0	257.1575176715851	2.4920711517333984
53	238.03399991989136	pulse	1	t		51.0	2.5	/experiments/Knapen_AOT/AOT_stimuli/rescaled_final/0427_rv.mp4	0.0	257.5311608314514	
53	239.63384199142456	pulse	1	t		51.0	2.5	/experiments/Knapen_AOT/AOT_stimuli/rescaled_final/0427_rv.mp4	0.0	259.1310029029846	
53	240.15242791175842	fix_post	2		12	51.0	2.5	/experiments/Knapen_AOT/AOT_stimuli/rescaled_final/0427_rv.mp4	0.0	259.6495888233185	0.09997129440307617
54	240.2523992061615	fix_pre	0		119	52.0	2.5	/experiments/Knapen_AOT/AOT_stimuli/rescaled_final/0355_rv.mp4	0.0	259.74956011772156	1.0001943111419678
54	241.2361569404602	pulse	0	t		52.0	2.5	/experiments/Knapen_AOT/AOT_stimuli/rescaled_final/0355_rv.mp4	0.0	260.73331785202026	
54	241.25259351730347	movie	1		289	52.0	2.5	/experiments/Knapen_AOT/AOT_stimuli/rescaled_final/0355_rv.mp4	0.0	260.7497544288635	2.500337839126587
54	242.83489274978638	pulse	1	t		52.0	2.5	/experiments/Knapen_AOT/AOT_stimuli/rescaled_final/0355_rv.mp4	0.0	262.33205366134644	
54	243.75293135643005	fix_post	2		12	52.0	2.5	/experiments/Knapen_AOT/AOT_stimuli/rescaled_final/0355_rv.mp4	0.0	263.2500922679901	0.1000206470489502
55	243.852952003479	fix_pre	0		120	53.0	2.5	/experiments/Knapen_AOT/AOT_stimuli/rescaled_final/0759_fw.mp4	0.0	263.35011291503906	1.0084867477416992
55	244.43663096427917	pulse	0	t		53.0	2.5	/experiments/Knapen_AOT/AOT_stimuli/rescaled_final/0759_fw.mp4	0.0	263.93379187583923	
55	244.8614387512207	movie	1		270	53.0	2.5	/experiments/Knapen_AOT/AOT_stimuli/rescaled_final/0759_fw.mp4	0.0	264.35859966278076	2.492058038711548
55	246.03726434707642	pulse	1	t		53.0	2.5	/experiments/Knapen_AOT/AOT_stimuli/rescaled_final/0759_fw.mp4	0.0	265.5344252586365	
55	247.35349678993225	fix_post	2		12	53.0	2.5	/experiments/Knapen_AOT/AOT_stimuli/rescaled_final/0759_fw.mp4	0.0	266.8506577014923	0.10000896453857422
56	247.45350575447083	fix_pre	0		120	54.0	2.5	blank	1.0	266.9506666660309	1.0001323223114014
56	247.63703799247742	pulse	0	t		54.0	2.5	blank	1.0	267.1341989040375	
56	248.45363807678223	movie	1		300	54.0	2.5	blank	1.0	267.9507989883423	2.500370502471924
56	249.23731207847595	pulse	1	t		54.0	2.5	blank	1.0	268.734472990036	
56	250.8375654220581	pulse	1	t		54.0	2.5	blank	1.0	270.33472633361816	
56	250.95400857925415	fix_post	2		12	54.0	2.5	blank	1.0	270.4511694908142	0.10004734992980957
57	251.05405592918396	fix_pre	0		120	55.0	2.5	/experiments/Knapen_AOT/AOT_stimuli/rescaled_final/0564_fw.mp4	0.0	270.551216840744	1.0085499286651611
57	252.06260585784912	movie	1		287	55.0	2.5	/experiments/Knapen_AOT/AOT_stimuli/rescaled_final/0564_fw.mp4	0.0	271.5597667694092	2.4919581413269043
57	252.4362771511078	pulse	1	t		55.0	2.5	/experiments/Knapen_AOT/AOT_stimuli/rescaled_final/0564_fw.mp4	0.0	271.93343806266785	
57	254.0362102985382	pulse	1	t		55.0	2.5	/experiments/Knapen_AOT/AOT_stimuli/rescaled_final/0564_fw.mp4	0.0	273.53337121009827	
57	254.55456399917603	fix_post	2		12	55.0	2.5	/experiments/Knapen_AOT/AOT_stimuli/rescaled_final/0564_fw.mp4	0.0	274.0517249107361	0.1000518798828125
58	254.65461587905884	fix_pre	0		119	56.0	2.5	/experiments/Knapen_AOT/AOT_stimuli/rescaled_final/0560_fw.mp4	0.0	274.1517767906189	1.0001261234283447
58	255.63827180862427	pulse	0	t		56.0	2.5	/experiments/Knapen_AOT/AOT_stimuli/rescaled_final/0560_fw.mp4	0.0	275.1354327201843	
58	255.65474200248718	movie	1		279	56.0	2.5	/experiments/Knapen_AOT/AOT_stimuli/rescaled_final/0560_fw.mp4	0.0	275.15190291404724	2.5087382793426514
58	257.23766589164734	pulse	1	t		56.0	2.5	/experiments/Knapen_AOT/AOT_stimuli/rescaled_final/0560_fw.mp4	0.0	276.7348268032074	
58	258.16348028182983	fix_post	2		11	56.0	2.5	/experiments/Knapen_AOT/AOT_stimuli/rescaled_final/0560_fw.mp4	0.0	277.6606411933899	0.0916130542755127
59	258.25509333610535	fix_pre	0		120	57.0	2.5	/experiments/Knapen_AOT/AOT_stimuli/rescaled_final/0821_fw.mp4	0.0	277.7522542476654	1.0085704326629639
59	258.8389847278595	pulse	0	t		57.0	2.5	/experiments/Knapen_AOT/AOT_stimuli/rescaled_final/0821_fw.mp4	0.0	278.33614563941956	
59	259.2636637687683	movie	1		280	57.0	2.5	/experiments/Knapen_AOT/AOT_stimuli/rescaled_final/0821_fw.mp4	0.0	278.76082468032837	2.4919683933258057
59	260.4368715286255	pulse	1	t		57.0	2.5	/experiments/Knapen_AOT/AOT_stimuli/rescaled_final/0821_fw.mp4	0.0	279.93403244018555	
59	261.7556321620941	fix_post	2		12	57.0	2.5	/experiments/Knapen_AOT/AOT_stimuli/rescaled_final/0821_fw.mp4	0.0	281.2527930736542	0.10007834434509277
60	261.8557105064392	fix_pre	0		120	58.0	2.5	/experiments/Knapen_AOT/AOT_stimuli/rescaled_final/0492_fw.mp4	0.0	281.35287141799927	1.008453130722046
60	262.03930711746216	pulse	0	t		58.0	2.5	/experiments/Knapen_AOT/AOT_stimuli/rescaled_final/0492_fw.mp4	0.0	281.5364680290222	
60	262.86416363716125	movie	1		275	58.0	2.5	/experiments/Knapen_AOT/AOT_stimuli/rescaled_final/0492_fw.mp4	0.0	282.3613245487213	2.4920146465301514
60	263.6371967792511	pulse	1	t		58.0	2.5	/experiments/Knapen_AOT/AOT_stimuli/rescaled_final/0492_fw.mp4	0.0	283.13435769081116	
60	265.238130569458	pulse	1	t		58.0	2.5	/experiments/Knapen_AOT/AOT_stimuli/rescaled_final/0492_fw.mp4	0.0	284.73529148101807	
60	265.3561782836914	fix_post	2		12	58.0	2.5	/experiments/Knapen_AOT/AOT_stimuli/rescaled_final/0492_fw.mp4	0.0	284.85333919525146	0.10001683235168457
61	265.4561951160431	fix_pre	0		120	59.0	2.5	/experiments/Knapen_AOT/AOT_stimuli/rescaled_final/1533_fw.mp4	0.0	284.95335602760315	1.0085420608520508
61	266.46473717689514	movie	1		284	59.0	2.5	/experiments/Knapen_AOT/AOT_stimuli/rescaled_final/1533_fw.mp4	0.0	285.9618980884552	2.4919848442077637
61	266.83853340148926	pulse	1	t		59.0	2.5	/experiments/Knapen_AOT/AOT_stimuli/rescaled_final/1533_fw.mp4	0.0	286.3356943130493	
61	268.438138961792	pulse	1	t		59.0	2.5	/experiments/Knapen_AOT/AOT_stimuli/rescaled_final/1533_fw.mp4	0.0	287.93529987335205	
61	268.9567220211029	fix_post	2		12	59.0	2.5	/experiments/Knapen_AOT/AOT_stimuli/rescaled_final/1533_fw.mp4	0.0	288.45388293266296	0.10001635551452637
62	269.05673837661743	fix_pre	0		119	60.0	2.5	/experiments/Knapen_AOT/AOT_stimuli/rescaled_final/0690_fw.mp4	0.0	288.5538992881775	1.0002758502960205
62	270.04067516326904	pulse	0	t		60.0	2.5	/experiments/Knapen_AOT/AOT_stimuli/rescaled_final/0690_fw.mp4	0.0	289.5378360748291	
62	270.05701422691345	movie	1		281	60.0	2.5	/experiments/Knapen_AOT/AOT_stimuli/rescaled_final/0690_fw.mp4	0.0	289.5541751384735	2.5002729892730713
62	271.63909006118774	pulse	1	t		60.0	2.5	/experiments/Knapen_AOT/AOT_stimuli/rescaled_final/0690_fw.mp4	0.0	291.1362509727478	
62	272.5572872161865	fix_post	2		12	60.0	2.5	/experiments/Knapen_AOT/AOT_stimuli/rescaled_final/0690_fw.mp4	0.0	292.0544481277466	0.09998941421508789
63	272.6572766304016	fix_pre	0		120	61.0	2.5	/experiments/Knapen_AOT/AOT_stimuli/rescaled_final/0354_rv.mp4	0.0	292.15443754196167	1.0085327625274658
63	273.24104714393616	pulse	0	t		61.0	2.5	/experiments/Knapen_AOT/AOT_stimuli/rescaled_final/0354_rv.mp4	0.0	292.7382080554962	
63	273.6658093929291	movie	1		267	61.0	2.5	/experiments/Knapen_AOT/AOT_stimuli/rescaled_final/0354_rv.mp4	0.0	293.16297030448914	2.4920005798339844
63	274.8329644203186	pulse	1	t		61.0	2.5	/experiments/Knapen_AOT/AOT_stimuli/rescaled_final/0354_rv.mp4	0.0	294.33012533187866	
63	276.15780997276306	fix_post	2		12	61.0	2.5	/experiments/Knapen_AOT/AOT_stimuli/rescaled_final/0354_rv.mp4	0.0	295.6549708843231	0.10002517700195312
64	276.257835149765	fix_pre	0		120	62.0	2.5	/experiments/Knapen_AOT/AOT_stimuli/rescaled_final/0412_rv.mp4	0.0	295.7549960613251	1.0084624290466309
64	276.4341199398041	pulse	0	t		62.0	2.5	/experiments/Knapen_AOT/AOT_stimuli/rescaled_final/0412_rv.mp4	0.0	295.93128085136414	
64	277.26629757881165	movie	1		277	62.0	2.5	/experiments/Knapen_AOT/AOT_stimuli/rescaled_final/0412_rv.mp4	0.0	296.7634584903717	2.49204421043396
64	278.03332924842834	pulse	1	t		62.0	2.5	/experiments/Knapen_AOT/AOT_stimuli/rescaled_final/0412_rv.mp4	0.0	297.5304901599884	
64	279.6336817741394	pulse	1	t		62.0	2.5	/experiments/Knapen_AOT/AOT_stimuli/rescaled_final/0412_rv.mp4	0.0	299.13084268569946	
64	279.7583417892456	fix_post	2		12	62.0	2.5	/experiments/Knapen_AOT/AOT_stimuli/rescaled_final/0412_rv.mp4	0.0	299.25550270080566	0.10001063346862793
65	279.85835242271423	fix_pre	0		120	63.0	2.5	blank	1.0	299.3555133342743	1.0002107620239258
65	280.85856318473816	movie	1		300	63.0	2.5	blank	1.0	300.3557240962982	2.500368118286133
65	281.2338137626648	pulse	1	t		63.0	2.5	blank	1.0	300.73097467422485	
65	282.83408856391907	pulse	1	t		63.0	2.5	blank	1.0	302.3312494754791	
65	283.3589313030243	fix_post	2		12	63.0	2.5	blank	1.0	302.85609221458435	0.10002565383911133
66	283.4589569568634	fix_pre	0		118	64.0	2.5	/experiments/Knapen_AOT/AOT_stimuli/rescaled_final/1844_rv.mp4	0.0	302.95611786842346	1.0002169609069824
66	284.4343247413635	pulse	0	t		64.0	2.5	/experiments/Knapen_AOT/AOT_stimuli/rescaled_final/1844_rv.mp4	0.0	303.9314856529236	
66	284.4591739177704	movie	1		282	64.0	2.5	/experiments/Knapen_AOT/AOT_stimuli/rescaled_final/1844_rv.mp4	0.0	303.95633482933044	2.4919238090515137
66	286.03319478034973	pulse	1	t		64.0	2.5	/experiments/Knapen_AOT/AOT_stimuli/rescaled_final/1844_rv.mp4	0.0	305.5303556919098	
66	286.9510977268219	fix_post	2		12	64.0	2.5	/experiments/Knapen_AOT/AOT_stimuli/rescaled_final/1844_rv.mp4	0.0	306.44825863838196	0.10001969337463379
67	287.05111742019653	fix_pre	0		120	65.0	2.5	/experiments/Knapen_AOT/AOT_stimuli/rescaled_final/1277_fw.mp4	0.0	306.5482783317566	1.0085008144378662
67	287.6348090171814	pulse	0	t		65.0	2.5	/experiments/Knapen_AOT/AOT_stimuli/rescaled_final/1277_fw.mp4	0.0	307.13196992874146	
67	288.0596182346344	movie	1		268	65.0	2.5	/experiments/Knapen_AOT/AOT_stimuli/rescaled_final/1277_fw.mp4	0.0	307.55677914619446	2.4920313358306885
67	289.2331213951111	pulse	1	t		65.0	2.5	/experiments/Knapen_AOT/AOT_stimuli/rescaled_final/1277_fw.mp4	0.0	308.73028230667114	
67	290.5516495704651	fix_post	2		12	65.0	2.5	/experiments/Knapen_AOT/AOT_stimuli/rescaled_final/1277_fw.mp4	0.0	310.04881048202515	0.10000467300415039
68	290.65165424346924	fix_pre	0		120	66.0	2.5	/experiments/Knapen_AOT/AOT_stimuli/rescaled_final/1604_rv.mp4	0.0	310.1488151550293	1.0085015296936035
68	290.8352081775665	pulse	0	t		66.0	2.5	/experiments/Knapen_AOT/AOT_stimuli/rescaled_final/1604_rv.mp4	0.0	310.3323690891266	
68	291.66015577316284	movie	1		271	66.0	2.5	/experiments/Knapen_AOT/AOT_stimuli/rescaled_final/1604_rv.mp4	0.0	311.1573166847229	2.4920215606689453
68	292.4340605735779	pulse	1	t		66.0	2.5	/experiments/Knapen_AOT/AOT_stimuli/rescaled_final/1604_rv.mp4	0.0	311.93122148513794	
68	294.0336949825287	pulse	1	t		66.0	2.5	/experiments/Knapen_AOT/AOT_stimuli/rescaled_final/1604_rv.mp4	0.0	313.53085589408875	
68	294.1521773338318	fix_post	2		12	66.0	2.5	/experiments/Knapen_AOT/AOT_stimuli/rescaled_final/1604_rv.mp4	0.0	313.64933824539185	0.10000896453857422
69	294.25218629837036	fix_pre	0		120	67.0	2.5	/experiments/Knapen_AOT/AOT_stimuli/rescaled_final/1992_rv.mp4	0.0	313.7493472099304	1.0085110664367676
69	295.26069736480713	movie	1		280	67.0	2.5	/experiments/Knapen_AOT/AOT_stimuli/rescaled_final/1992_rv.mp4	0.0	314.7578582763672	2.4920241832733154
69	295.63558888435364	pulse	1	t		67.0	2.5	/experiments/Knapen_AOT/AOT_stimuli/rescaled_final/1992_rv.mp4	0.0	315.1327497959137	
69	297.23416352272034	pulse	1	t		67.0	2.5	/experiments/Knapen_AOT/AOT_stimuli/rescaled_final/1992_rv.mp4	0.0	316.7313244342804	
69	297.75272154808044	fix_post	2		12	67.0	2.5	/experiments/Knapen_AOT/AOT_stimuli/rescaled_final/1992_rv.mp4	0.0	317.2498824596405	0.10001230239868164
70	297.8527338504791	fix_pre	0		119	68.0	2.5	/experiments/Knapen_AOT/AOT_stimuli/rescaled_final/1768_rv.mp4	0.0	317.3498947620392	1.000115156173706
70	298.836553812027	pulse	0	t		68.0	2.5	/experiments/Knapen_AOT/AOT_stimuli/rescaled_final/1768_rv.mp4	0.0	318.33371472358704	
70	298.85284900665283	movie	1		275	68.0	2.5	/experiments/Knapen_AOT/AOT_stimuli/rescaled_final/1768_rv.mp4	0.0	318.3500099182129	2.5004048347473145
70	300.43505454063416	pulse	1	t		68.0	2.5	/experiments/Knapen_AOT/AOT_stimuli/rescaled_final/1768_rv.mp4	0.0	319.9322154521942	
70	301.35325384140015	fix_post	2		12	68.0	2.5	/experiments/Knapen_AOT/AOT_stimuli/rescaled_final/1768_rv.mp4	0.0	320.8504147529602	0.10005021095275879
71	301.4533040523529	fix_pre	0		120	69.0	2.5	/experiments/Knapen_AOT/AOT_stimuli/rescaled_final/1824_fw.mp4	0.0	320.95046496391296	1.0085225105285645
71	302.03686451911926	pulse	0	t		69.0	2.5	/experiments/Knapen_AOT/AOT_stimuli/rescaled_final/1824_fw.mp4	0.0	321.5340254306793	
71	302.46182656288147	movie	1		273	69.0	2.5	/experiments/Knapen_AOT/AOT_stimuli/rescaled_final/1824_fw.mp4	0.0	321.9589874744415	2.491987705230713
71	303.6358251571655	pulse	1	t		69.0	2.5	/experiments/Knapen_AOT/AOT_stimuli/rescaled_final/1824_fw.mp4	0.0	323.1329860687256	
71	304.9538142681122	fix_post	2		12	69.0	2.5	/experiments/Knapen_AOT/AOT_stimuli/rescaled_final/1824_fw.mp4	0.0	324.45097517967224	0.10001301765441895
72	305.0538272857666	fix_pre	0		120	70.0	2.5	blank	1.0	324.55098819732666	1.0001389980316162
72	305.2373688220978	pulse	0	t		70.0	2.5	blank	1.0	324.73452973365784	
72	306.0539662837982	movie	1		300	70.0	2.5	blank	1.0	325.5511271953583	2.500375986099243
72	306.83781361579895	pulse	1	t		70.0	2.5	blank	1.0	326.334974527359	
72	308.4378271102905	pulse	1	t		70.0	2.5	blank	1.0	327.9349880218506	
72	308.55434226989746	fix_post	2		12	70.0	2.5	blank	1.0	328.0515031814575	0.10000109672546387
73	308.6543433666229	fix_pre	0		120	71.0	2.5	/experiments/Knapen_AOT/AOT_stimuli/rescaled_final/0904_rv.mp4	0.0	328.151504278183	1.0086045265197754
73	309.6629478931427	movie	1		275	71.0	2.5	/experiments/Knapen_AOT/AOT_stimuli/rescaled_final/0904_rv.mp4	0.0	329.16010880470276	2.491947889328003
73	310.03701543807983	pulse	1	t		71.0	2.5	/experiments/Knapen_AOT/AOT_stimuli/rescaled_final/0904_rv.mp4	0.0	329.5341763496399	
73	311.6392512321472	pulse	1	t		71.0	2.5	/experiments/Knapen_AOT/AOT_stimuli/rescaled_final/0904_rv.mp4	0.0	331.1364121437073	
73	312.1548957824707	fix_post	2		12	71.0	2.5	/experiments/Knapen_AOT/AOT_stimuli/rescaled_final/0904_rv.mp4	0.0	331.65205669403076	0.10000801086425781
74	312.25490379333496	fix_pre	0		119	72.0	2.5	/experiments/Knapen_AOT/AOT_stimuli/rescaled_final/1865_fw.mp4	0.0	331.752064704895	1.0086159706115723
74	313.2389008998871	pulse	0	t		72.0	2.5	/experiments/Knapen_AOT/AOT_stimuli/rescaled_final/1865_fw.mp4	0.0	332.73606181144714	
74	313.26351976394653	movie	1		278	72.0	2.5	/experiments/Knapen_AOT/AOT_stimuli/rescaled_final/1865_fw.mp4	0.0	332.7606806755066	2.4919052124023438
74	314.8371789455414	pulse	1	t		72.0	2.5	/experiments/Knapen_AOT/AOT_stimuli/rescaled_final/1865_fw.mp4	0.0	334.33433985710144	
74	315.7554249763489	fix_post	2		12	72.0	2.5	/experiments/Knapen_AOT/AOT_stimuli/rescaled_final/1865_fw.mp4	0.0	335.25258588790894	0.10002684593200684
75	315.8554518222809	fix_pre	0		120	73.0	2.5	/experiments/Knapen_AOT/AOT_stimuli/rescaled_final/0563_rv.mp4	0.0	335.35261273384094	1.0084919929504395
75	316.4392738342285	pulse	0	t		73.0	2.5	/experiments/Knapen_AOT/AOT_stimuli/rescaled_final/0563_rv.mp4	0.0	335.9364347457886	
75	316.8639438152313	movie	1		286	73.0	2.5	/experiments/Knapen_AOT/AOT_stimuli/rescaled_final/0563_rv.mp4	0.0	336.3611047267914	2.492069959640503
75	318.0375928878784	pulse	1	t		73.0	2.5	/experiments/Knapen_AOT/AOT_stimuli/rescaled_final/0563_rv.mp4	0.0	337.5347537994385	
75	319.3560137748718	fix_post	2		12	73.0	2.5	/experiments/Knapen_AOT/AOT_stimuli/rescaled_final/0563_rv.mp4	0.0	338.8531746864319	0.09997129440307617
76	319.4559850692749	fix_pre	0		120	74.0	2.5	/experiments/Knapen_AOT/AOT_stimuli/rescaled_final/1281_fw.mp4	0.0	338.95314598083496	1.0085101127624512
76	319.63955426216125	pulse	0	t		74.0	2.5	/experiments/Knapen_AOT/AOT_stimuli/rescaled_final/1281_fw.mp4	0.0	339.1367151737213	
76	320.46449518203735	movie	1		276	74.0	2.5	/experiments/Knapen_AOT/AOT_stimuli/rescaled_final/1281_fw.mp4	0.0	339.9616560935974	2.4920129776000977
76	321.23778223991394	pulse	1	t		74.0	2.5	/experiments/Knapen_AOT/AOT_stimuli/rescaled_final/1281_fw.mp4	0.0	340.734943151474	
76	322.83810091018677	pulse	1	t		74.0	2.5	/experiments/Knapen_AOT/AOT_stimuli/rescaled_final/1281_fw.mp4	0.0	342.3352618217468	
76	322.95650815963745	fix_post	2		12	74.0	2.5	/experiments/Knapen_AOT/AOT_stimuli/rescaled_final/1281_fw.mp4	0.0	342.4536690711975	0.10003829002380371
77	323.05654644966125	fix_pre	0		120	75.0	2.5	/experiments/Knapen_AOT/AOT_stimuli/rescaled_final/0186_fw.mp4	0.0	342.5537073612213	1.0084929466247559
77	324.065039396286	movie	1		277	75.0	2.5	/experiments/Knapen_AOT/AOT_stimuli/rescaled_final/0186_fw.mp4	0.0	343.56220030784607	2.491986036300659
77	324.4405152797699	pulse	1	t		75.0	2.5	/experiments/Knapen_AOT/AOT_stimuli/rescaled_final/0186_fw.mp4	0.0	343.93767619132996	
77	326.03891706466675	pulse	1	t		75.0	2.5	/experiments/Knapen_AOT/AOT_stimuli/rescaled_final/0186_fw.mp4	0.0	345.5360779762268	
77	326.55702543258667	fix_post	2		12	75.0	2.5	/experiments/Knapen_AOT/AOT_stimuli/rescaled_final/0186_fw.mp4	0.0	346.05418634414673	0.10004353523254395
78	326.6570689678192	fix_pre	0		119	76.0	2.5	blank	1.0	346.1542298793793	0.9918897151947021
78	327.63299083709717	pulse	0	t		76.0	2.5	blank	1.0	347.1301517486572	
78	327.6489586830139	movie	1		301	76.0	2.5	blank	1.0	347.146119594574	2.5086562633514404
78	329.2330815792084	pulse	1	t		76.0	2.5	blank	1.0	348.73024249076843	
78	330.15761494636536	fix_post	2		12	76.0	2.5	blank	1.0	349.6547758579254	0.09999728202819824
79	330.25761222839355	fix_pre	0		120	77.0	2.5	/experiments/Knapen_AOT/AOT_stimuli/rescaled_final/1255_fw.mp4	0.0	349.7547731399536	1.0084962844848633
79	330.8329496383667	pulse	0	t		77.0	2.5	/experiments/Knapen_AOT/AOT_stimuli/rescaled_final/1255_fw.mp4	0.0	350.33011054992676	
79	331.2661085128784	movie	1		267	77.0	2.5	/experiments/Knapen_AOT/AOT_stimuli/rescaled_final/1255_fw.mp4	0.0	350.7632694244385	2.492074966430664
79	332.43316745758057	pulse	1	t		77.0	2.5	/experiments/Knapen_AOT/AOT_stimuli/rescaled_final/1255_fw.mp4	0.0	351.9303283691406	
79	333.7581834793091	fix_post	2		12	77.0	2.5	/experiments/Knapen_AOT/AOT_stimuli/rescaled_final/1255_fw.mp4	0.0	353.25534439086914	0.09998512268066406
80	333.85816860198975	fix_pre	0		120	78.0	2.5	/experiments/Knapen_AOT/AOT_stimuli/rescaled_final/1302_fw.mp4	0.0	353.3553295135498	1.0084919929504395
80	334.0334758758545	pulse	0	t		78.0	2.5	/experiments/Knapen_AOT/AOT_stimuli/rescaled_final/1302_fw.mp4	0.0	353.53063678741455	
80	334.8666605949402	movie	1		259	78.0	2.5	/experiments/Knapen_AOT/AOT_stimuli/rescaled_final/1302_fw.mp4	0.0	354.36382150650024	2.4920685291290283
80	335.633896112442	pulse	1	t		78.0	2.5	/experiments/Knapen_AOT/AOT_stimuli/rescaled_final/1302_fw.mp4	0.0	355.1310570240021	
80	337.23406291007996	pulse	1	t		78.0	2.5	/experiments/Knapen_AOT/AOT_stimuli/rescaled_final/1302_fw.mp4	0.0	356.73122382164	
80	337.3587291240692	fix_post	2		12	78.0	2.5	/experiments/Knapen_AOT/AOT_stimuli/rescaled_final/1302_fw.mp4	0.0	356.8558900356293	0.09996294975280762
81	337.458692073822	fix_pre	0		119	79.0	2.5	/experiments/Knapen_AOT/AOT_stimuli/rescaled_final/0628_rv.mp4	0.0	356.9558529853821	1.0084748268127441
81	338.46716690063477	movie	1		280	79.0	2.5	/experiments/Knapen_AOT/AOT_stimuli/rescaled_final/0628_rv.mp4	0.0	357.9643278121948	2.4920494556427
81	338.8334536552429	pulse	1	t		79.0	2.5	/experiments/Knapen_AOT/AOT_stimuli/rescaled_final/0628_rv.mp4	0.0	358.330614566803	
81	340.4331703186035	pulse	1	t		79.0	2.5	/experiments/Knapen_AOT/AOT_stimuli/rescaled_final/0628_rv.mp4	0.0	359.9303312301636	
81	340.95921635627747	fix_post	2		12	79.0	2.5	/experiments/Knapen_AOT/AOT_stimuli/rescaled_final/0628_rv.mp4	0.0	360.4563772678375	0.10000801086425781
82	341.0592243671417	fix_pre	0		118	80.0	2.5	/experiments/Knapen_AOT/AOT_stimuli/rescaled_final/1691_rv.mp4	0.0	360.5563852787018	0.9918413162231445
82	342.03471183776855	pulse	0	t		80.0	2.5	/experiments/Knapen_AOT/AOT_stimuli/rescaled_final/1691_rv.mp4	0.0	361.5318727493286	
82	342.05106568336487	movie	1		282	80.0	2.5	/experiments/Knapen_AOT/AOT_stimuli/rescaled_final/1691_rv.mp4	0.0	361.5482265949249	2.500366449356079
82	343.63351607322693	pulse	1	t		80.0	2.5	/experiments/Knapen_AOT/AOT_stimuli/rescaled_final/1691_rv.mp4	0.0	363.130676984787	
82	344.55143213272095	fix_post	2		12	80.0	2.5	/experiments/Knapen_AOT/AOT_stimuli/rescaled_final/1691_rv.mp4	0.0	364.048593044281	0.10000109672546387
83	344.6514332294464	fix_pre	0		120	81.0	2.5	/experiments/Knapen_AOT/AOT_stimuli/rescaled_final/1815_rv.mp4	0.0	364.14859414100647	1.0085792541503906
83	345.2351248264313	pulse	0	t		81.0	2.5	/experiments/Knapen_AOT/AOT_stimuli/rescaled_final/1815_rv.mp4	0.0	364.73228573799133	
83	345.6600124835968	movie	1		269	81.0	2.5	/experiments/Knapen_AOT/AOT_stimuli/rescaled_final/1815_rv.mp4	0.0	365.15717339515686	2.4919469356536865
83	346.8336863517761	pulse	1	t		81.0	2.5	/experiments/Knapen_AOT/AOT_stimuli/rescaled_final/1815_rv.mp4	0.0	366.3308472633362	
83	348.1519594192505	fix_post	2		12	81.0	2.5	/experiments/Knapen_AOT/AOT_stimuli/rescaled_final/1815_rv.mp4	0.0	367.64912033081055	0.10007262229919434
84	348.2520320415497	fix_pre	0		120	82.0	2.5	/experiments/Knapen_AOT/AOT_stimuli/rescaled_final/1312_fw.mp4	0.0	367.74919295310974	1.0084543228149414
84	348.43560671806335	pulse	0	t		82.0	2.5	/experiments/Knapen_AOT/AOT_stimuli/rescaled_final/1312_fw.mp4	0.0	367.9327676296234	
84	349.2604863643646	movie	1		277	82.0	2.5	/experiments/Knapen_AOT/AOT_stimuli/rescaled_final/1312_fw.mp4	0.0	368.7576472759247	2.492027997970581
84	350.0341012477875	pulse	1	t		82.0	2.5	/experiments/Knapen_AOT/AOT_stimuli/rescaled_final/1312_fw.mp4	0.0	369.53126215934753	
84	351.6354911327362	pulse	1	t		82.0	2.5	/experiments/Knapen_AOT/AOT_stimuli/rescaled_final/1312_fw.mp4	0.0	371.13265204429626	
84	351.7525143623352	fix_post	2		12	82.0	2.5	/experiments/Knapen_AOT/AOT_stimuli/rescaled_final/1312_fw.mp4	0.0	371.24967527389526	0.10001993179321289
85	351.8525342941284	fix_pre	0		120	83.0	2.5	blank	1.0	371.3496952056885	1.0001263618469238
85	352.85266065597534	movie	1		300	83.0	2.5	blank	1.0	372.3498215675354	2.5005507469177246
85	353.23634672164917	pulse	1	t		83.0	2.5	blank	1.0	372.73350763320923	
85	354.83658480644226	pulse	1	t		83.0	2.5	blank	1.0	374.3337457180023	
85	355.35321140289307	fix_post	2		12	83.0	2.5	blank	1.0	374.8503723144531	0.09984469413757324
87	355.45305609703064	stim	0		1716					374.9502170085907	14.30215835571289
87	356.43704175949097	pulse	0	t						375.934202671051	
87	358.0369691848755	pulse	0	t						377.53413009643555	
87	359.6372423171997	pulse	0	t						379.13440322875977	
87	361.2376205921173	pulse	0	t						380.73478150367737	
87	362.83783888816833	pulse	0	t						382.3349997997284	
87	364.43826174736023	pulse	0	t						383.9354226589203	
87	366.038268327713	pulse	0	t						385.53542923927307	
87	367.6384811401367	pulse	0	t						387.1356420516968	
87	369.23876547813416	pulse	0	t						388.7359263896942	
