trial_nr	onset	event_type	phase	response	nr_frames	movie_index	movie_duration	movie_file	blank	onset_abs	duration
0	0.16643261909484863	stim	0		1					17.34705400466919	0.008556842803955078
0	0.1316051483154297	response	0	space						17.31222653388977	
1	0.1749894618988037	stim	0		4648					17.355610847473145	38.748111724853516
1	38.91351938247681	pulse	0	t						56.09414076805115	
1	38.92310118675232	stim	1		1715					56.10372257232666	14.301259994506836
1	40.50597810745239	pulse	1	t						57.68659949302673	
1	42.10619521141052	pulse	1	t						59.28681659698486	
1	43.70644664764404	pulse	1	t						60.887068033218384	
1	45.30671238899231	pulse	1	t						62.48733377456665	
1	46.906954288482666	pulse	1	t						64.087575674057	
1	48.50718688964844	pulse	1	t						65.68780827522278	
1	50.107381105422974	pulse	1	t						67.28800249099731	
1	51.70767569541931	pulse	1	t						68.88829708099365	
2	53.224361181259155	fix_pre	0		11	0.0	2.5	/experiments/Knapen_AOT/AOT_stimuli/rescaled_final/0145_rv.mp4	0.0	70.4049825668335	0.10852718353271484
2	53.30798268318176	pulse	0	t		0.0	2.5	/experiments/Knapen_AOT/AOT_stimuli/rescaled_final/0145_rv.mp4	0.0	70.4886040687561	
2	53.33288836479187	movie	1		291	0.0	2.5	/experiments/Knapen_AOT/AOT_stimuli/rescaled_final/0145_rv.mp4	0.0	70.51350975036621	2.4918882846832275
2	54.90653324127197	pulse	1	t		0.0	2.5	/experiments/Knapen_AOT/AOT_stimuli/rescaled_final/0145_rv.mp4	0.0	72.08715462684631	
2	55.8247766494751	fix_post	2		12	0.0	2.5	/experiments/Knapen_AOT/AOT_stimuli/rescaled_final/0145_rv.mp4	0.0	73.00539803504944	0.10006594657897949
3	55.92484259605408	fix_pre	0		120	1.0	2.5	/experiments/Knapen_AOT/AOT_stimuli/rescaled_final/0384_fw.mp4	0.0	73.10546398162842	1.0085771083831787
3	56.50844120979309	pulse	0	t		1.0	2.5	/experiments/Knapen_AOT/AOT_stimuli/rescaled_final/0384_fw.mp4	0.0	73.68906259536743	
3	56.933419704437256	movie	1		283	1.0	2.5	/experiments/Knapen_AOT/AOT_stimuli/rescaled_final/0384_fw.mp4	0.0	74.1140410900116	2.491981267929077
3	58.10682272911072	pulse	1	t		1.0	2.5	/experiments/Knapen_AOT/AOT_stimuli/rescaled_final/0384_fw.mp4	0.0	75.28744411468506	
3	59.42540097236633	fix_post	2		12	1.0	2.5	/experiments/Knapen_AOT/AOT_stimuli/rescaled_final/0384_fw.mp4	0.0	76.60602235794067	0.10003089904785156
4	59.525431871414185	fix_pre	0		120	2.0	2.5	/experiments/Knapen_AOT/AOT_stimuli/rescaled_final/1833_fw.mp4	0.0	76.70605325698853	1.0083918571472168
4	59.70895338058472	pulse	0	t		2.0	2.5	/experiments/Knapen_AOT/AOT_stimuli/rescaled_final/1833_fw.mp4	0.0	76.88957476615906	
4	60.5338237285614	movie	1		285	2.0	2.5	/experiments/Knapen_AOT/AOT_stimuli/rescaled_final/1833_fw.mp4	0.0	77.71444511413574	2.4920103549957275
4	61.30717992782593	pulse	1	t		2.0	2.5	/experiments/Knapen_AOT/AOT_stimuli/rescaled_final/1833_fw.mp4	0.0	78.48780131340027	
4	62.907373905181885	pulse	1	t		2.0	2.5	/experiments/Knapen_AOT/AOT_stimuli/rescaled_final/1833_fw.mp4	0.0	80.08799529075623	
4	63.02583408355713	fix_post	2		12	2.0	2.5	/experiments/Knapen_AOT/AOT_stimuli/rescaled_final/1833_fw.mp4	0.0	80.20645546913147	0.10002374649047852
5	63.12585783004761	fix_pre	0		120	3.0	2.5	/experiments/Knapen_AOT/AOT_stimuli/rescaled_final/0873_rv.mp4	0.0	80.30647921562195	1.0084903240203857
5	64.134348154068	movie	1		283	3.0	2.5	/experiments/Knapen_AOT/AOT_stimuli/rescaled_final/0873_rv.mp4	0.0	81.31496953964233	2.492002010345459
5	64.50795316696167	pulse	1	t		3.0	2.5	/experiments/Knapen_AOT/AOT_stimuli/rescaled_final/0873_rv.mp4	0.0	81.68857455253601	
5	66.10774660110474	pulse	1	t		3.0	2.5	/experiments/Knapen_AOT/AOT_stimuli/rescaled_final/0873_rv.mp4	0.0	83.28836798667908	
5	66.62635016441345	fix_post	2		12	3.0	2.5	/experiments/Knapen_AOT/AOT_stimuli/rescaled_final/0873_rv.mp4	0.0	83.8069715499878	0.10001492500305176
6	66.7263650894165	fix_pre	0		119	4.0	2.5	/experiments/Knapen_AOT/AOT_stimuli/rescaled_final/1586_rv.mp4	0.0	83.90698647499084	1.0001757144927979
6	67.710134267807	pulse	0	t		4.0	2.5	/experiments/Knapen_AOT/AOT_stimuli/rescaled_final/1586_rv.mp4	0.0	84.89075565338135	
6	67.7265408039093	movie	1		279	4.0	2.5	/experiments/Knapen_AOT/AOT_stimuli/rescaled_final/1586_rv.mp4	0.0	84.90716218948364	2.5003561973571777
6	69.3085606098175	pulse	1	t		4.0	2.5	/experiments/Knapen_AOT/AOT_stimuli/rescaled_final/1586_rv.mp4	0.0	86.48918199539185	
6	70.22689700126648	fix_post	2		12	4.0	2.5	/experiments/Knapen_AOT/AOT_stimuli/rescaled_final/1586_rv.mp4	0.0	87.40751838684082	0.10002899169921875
7	70.3269259929657	fix_pre	0		120	5.0	2.5	blank	1.0	87.50754737854004	1.0001423358917236
7	70.9106080532074	pulse	0	t		5.0	2.5	blank	1.0	88.09122943878174	
7	71.32706832885742	movie	1		300	5.0	2.5	blank	1.0	88.50768971443176	2.500385046005249
7	72.50388073921204	pulse	1	t		5.0	2.5	blank	1.0	89.68450212478638	
7	73.82745337486267	fix_post	2		12	5.0	2.5	blank	1.0	91.00807476043701	0.10001420974731445
8	73.92746758460999	fix_pre	0		120	6.0	2.5	/experiments/Knapen_AOT/AOT_stimuli/rescaled_final/1534_rv.mp4	0.0	91.10808897018433	1.008558988571167
8	74.10304856300354	pulse	0	t		6.0	2.5	/experiments/Knapen_AOT/AOT_stimuli/rescaled_final/1534_rv.mp4	0.0	91.28366994857788	
8	74.93602657318115	movie	1		283	6.0	2.5	/experiments/Knapen_AOT/AOT_stimuli/rescaled_final/1534_rv.mp4	0.0	92.1166479587555	2.491997718811035
8	75.70310258865356	pulse	1	t		6.0	2.5	/experiments/Knapen_AOT/AOT_stimuli/rescaled_final/1534_rv.mp4	0.0	92.8837239742279	
8	77.30347156524658	pulse	1	t		6.0	2.5	/experiments/Knapen_AOT/AOT_stimuli/rescaled_final/1534_rv.mp4	0.0	94.48409295082092	
8	77.42802429199219	fix_post	2		12	6.0	2.5	/experiments/Knapen_AOT/AOT_stimuli/rescaled_final/1534_rv.mp4	0.0	94.60864567756653	0.09998559951782227
9	77.52800989151001	fix_pre	0		120	7.0	2.5	/experiments/Knapen_AOT/AOT_stimuli/rescaled_final/0604_rv.mp4	0.0	94.70863127708435	1.008516788482666
9	78.53652667999268	movie	1		287	7.0	2.5	/experiments/Knapen_AOT/AOT_stimuli/rescaled_final/0604_rv.mp4	0.0	95.71714806556702	2.492011070251465
9	78.90355563163757	pulse	1	t		7.0	2.5	/experiments/Knapen_AOT/AOT_stimuli/rescaled_final/0604_rv.mp4	0.0	96.08417701721191	
9	80.50366473197937	pulse	1	t		7.0	2.5	/experiments/Knapen_AOT/AOT_stimuli/rescaled_final/0604_rv.mp4	0.0	97.68428611755371	
9	81.02853775024414	fix_post	2		12	7.0	2.5	/experiments/Knapen_AOT/AOT_stimuli/rescaled_final/0604_rv.mp4	0.0	98.20915913581848	0.10003137588500977
10	81.12856912612915	fix_pre	0		118	8.0	2.5	/experiments/Knapen_AOT/AOT_stimuli/rescaled_final/0482_fw.mp4	0.0	98.30919051170349	0.9918155670166016
10	82.10397505760193	pulse	0	t		8.0	2.5	/experiments/Knapen_AOT/AOT_stimuli/rescaled_final/0482_fw.mp4	0.0	99.28459644317627	
10	82.12038469314575	movie	1		291	8.0	2.5	/experiments/Knapen_AOT/AOT_stimuli/rescaled_final/0482_fw.mp4	0.0	99.30100607872009	2.5003225803375244
10	83.7043526172638	pulse	1	t		8.0	2.5	/experiments/Knapen_AOT/AOT_stimuli/rescaled_final/0482_fw.mp4	0.0	100.88497400283813	
10	84.62070727348328	fix_post	2		12	8.0	2.5	/experiments/Knapen_AOT/AOT_stimuli/rescaled_final/0482_fw.mp4	0.0	101.80132865905762	0.10002589225769043
11	84.72073316574097	fix_pre	0		120	9.0	2.5	/experiments/Knapen_AOT/AOT_stimuli/rescaled_final/0539_rv.mp4	0.0	101.90135455131531	1.0001447200775146
11	85.30441641807556	pulse	0	t		9.0	2.5	/experiments/Knapen_AOT/AOT_stimuli/rescaled_final/0539_rv.mp4	0.0	102.4850378036499	
11	85.72087788581848	movie	1		293	9.0	2.5	/experiments/Knapen_AOT/AOT_stimuli/rescaled_final/0539_rv.mp4	0.0	102.90149927139282	2.500364303588867
11	86.90451884269714	pulse	1	t		9.0	2.5	/experiments/Knapen_AOT/AOT_stimuli/rescaled_final/0539_rv.mp4	0.0	104.08514022827148	
11	88.22124218940735	fix_post	2		12	9.0	2.5	/experiments/Knapen_AOT/AOT_stimuli/rescaled_final/0539_rv.mp4	0.0	105.40186357498169	0.10002779960632324
12	88.32126998901367	fix_pre	0		120	10.0	2.5	/experiments/Knapen_AOT/AOT_stimuli/rescaled_final/1372_fw.mp4	0.0	105.50189137458801	1.0085046291351318
12	88.50488305091858	pulse	0	t		10.0	2.5	/experiments/Knapen_AOT/AOT_stimuli/rescaled_final/1372_fw.mp4	0.0	105.68550443649292	
12	89.3297746181488	movie	1		295	10.0	2.5	/experiments/Knapen_AOT/AOT_stimuli/rescaled_final/1372_fw.mp4	0.0	106.51039600372314	2.4920661449432373
12	90.10534906387329	pulse	1	t		10.0	2.5	/experiments/Knapen_AOT/AOT_stimuli/rescaled_final/1372_fw.mp4	0.0	107.28597044944763	
12	91.70528435707092	pulse	1	t		10.0	2.5	/experiments/Knapen_AOT/AOT_stimuli/rescaled_final/1372_fw.mp4	0.0	108.88590574264526	
12	91.82184076309204	fix_post	2		12	10.0	2.5	/experiments/Knapen_AOT/AOT_stimuli/rescaled_final/1372_fw.mp4	0.0	109.00246214866638	0.1000373363494873
13	91.92187809944153	fix_pre	0		120	11.0	2.5	/experiments/Knapen_AOT/AOT_stimuli/rescaled_final/1833_rv.mp4	0.0	109.10249948501587	1.0084402561187744
13	92.9303183555603	movie	1		294	11.0	2.5	/experiments/Knapen_AOT/AOT_stimuli/rescaled_final/1833_rv.mp4	0.0	110.11093974113464	2.4920079708099365
13	93.30328941345215	pulse	1	t		11.0	2.5	/experiments/Knapen_AOT/AOT_stimuli/rescaled_final/1833_rv.mp4	0.0	110.48391079902649	
13	94.90588903427124	pulse	1	t		11.0	2.5	/experiments/Knapen_AOT/AOT_stimuli/rescaled_final/1833_rv.mp4	0.0	112.08651041984558	
13	95.42232632637024	fix_post	2		12	11.0	2.5	/experiments/Knapen_AOT/AOT_stimuli/rescaled_final/1833_rv.mp4	0.0	112.60294771194458	0.10003089904785156
14	95.52235722541809	fix_pre	0		119	12.0	2.5	blank	1.0	112.70297861099243	0.9918167591094971
14	96.50623655319214	pulse	0	t		12.0	2.5	blank	1.0	113.68685793876648	
14	96.51417398452759	movie	1		301	12.0	2.5	blank	1.0	113.69479537010193	2.5087954998016357
14	98.106290102005	pulse	1	t		12.0	2.5	blank	1.0	115.28691148757935	
14	99.02296948432922	fix_post	2		12	12.0	2.5	blank	1.0	116.20359086990356	0.09994816780090332
15	99.12291765213013	fix_pre	0		120	13.0	2.5	/experiments/Knapen_AOT/AOT_stimuli/rescaled_final/2021_fw.mp4	0.0	116.30353903770447	1.0085012912750244
15	99.70673751831055	pulse	0	t		13.0	2.5	/experiments/Knapen_AOT/AOT_stimuli/rescaled_final/2021_fw.mp4	0.0	116.88735890388489	
15	100.13141894340515	movie	1		291	13.0	2.5	/experiments/Knapen_AOT/AOT_stimuli/rescaled_final/2021_fw.mp4	0.0	117.31204032897949	2.492030382156372
15	101.30484104156494	pulse	1	t		13.0	2.5	/experiments/Knapen_AOT/AOT_stimuli/rescaled_final/2021_fw.mp4	0.0	118.48546242713928	
15	102.62344932556152	fix_post	2		12	13.0	2.5	/experiments/Knapen_AOT/AOT_stimuli/rescaled_final/2021_fw.mp4	0.0	119.80407071113586	0.10006594657897949
16	102.7235152721405	fix_pre	0		120	14.0	2.5	/experiments/Knapen_AOT/AOT_stimuli/rescaled_final/2112_fw.mp4	0.0	119.90413665771484	1.0084712505340576
16	102.90703177452087	pulse	0	t		14.0	2.5	/experiments/Knapen_AOT/AOT_stimuli/rescaled_final/2112_fw.mp4	0.0	120.08765316009521	
16	103.73198652267456	movie	1		286	14.0	2.5	/experiments/Knapen_AOT/AOT_stimuli/rescaled_final/2112_fw.mp4	0.0	120.9126079082489	2.4920458793640137
16	104.5054018497467	pulse	1	t		14.0	2.5	/experiments/Knapen_AOT/AOT_stimuli/rescaled_final/2112_fw.mp4	0.0	121.68602323532104	
16	106.10553336143494	pulse	1	t		14.0	2.5	/experiments/Knapen_AOT/AOT_stimuli/rescaled_final/2112_fw.mp4	0.0	123.28615474700928	
16	106.22403240203857	fix_post	2		12	14.0	2.5	/experiments/Knapen_AOT/AOT_stimuli/rescaled_final/2112_fw.mp4	0.0	123.40465378761292	0.09996461868286133
17	106.32399702072144	fix_pre	0		120	15.0	2.5	/experiments/Knapen_AOT/AOT_stimuli/rescaled_final/0141_rv.mp4	0.0	123.50461840629578	1.0085251331329346
17	107.33252215385437	movie	1		286	15.0	2.5	/experiments/Knapen_AOT/AOT_stimuli/rescaled_final/0141_rv.mp4	0.0	124.51314353942871	2.4920034408569336
17	107.70669507980347	pulse	1	t		15.0	2.5	/experiments/Knapen_AOT/AOT_stimuli/rescaled_final/0141_rv.mp4	0.0	124.88731646537781	
17	109.30589079856873	pulse	1	t		15.0	2.5	/experiments/Knapen_AOT/AOT_stimuli/rescaled_final/0141_rv.mp4	0.0	126.48651218414307	
17	109.8245255947113	fix_post	2		12	15.0	2.5	/experiments/Knapen_AOT/AOT_stimuli/rescaled_final/0141_rv.mp4	0.0	127.00514698028564	0.10008549690246582
18	109.92461109161377	fix_pre	0		119	16.0	2.5	/experiments/Knapen_AOT/AOT_stimuli/rescaled_final/0793_fw.mp4	0.0	127.10523247718811	1.0001170635223389
18	110.90830659866333	pulse	0	t		16.0	2.5	/experiments/Knapen_AOT/AOT_stimuli/rescaled_final/0793_fw.mp4	0.0	128.08892798423767	
18	110.92472815513611	movie	1		285	16.0	2.5	/experiments/Knapen_AOT/AOT_stimuli/rescaled_final/0793_fw.mp4	0.0	128.10534954071045	2.5003390312194824
18	112.50684452056885	pulse	1	t		16.0	2.5	/experiments/Knapen_AOT/AOT_stimuli/rescaled_final/0793_fw.mp4	0.0	129.6874659061432	
18	113.42506718635559	fix_post	2		12	16.0	2.5	/experiments/Knapen_AOT/AOT_stimuli/rescaled_final/0793_fw.mp4	0.0	130.60568857192993	0.10004854202270508
19	113.5251157283783	fix_pre	0		120	17.0	2.5	/experiments/Knapen_AOT/AOT_stimuli/rescaled_final/1305_rv.mp4	0.0	130.70573711395264	1.0085651874542236
19	114.10876941680908	pulse	0	t		17.0	2.5	/experiments/Knapen_AOT/AOT_stimuli/rescaled_final/1305_rv.mp4	0.0	131.28939080238342	
19	114.53368091583252	movie	1		288	17.0	2.5	/experiments/Knapen_AOT/AOT_stimuli/rescaled_final/1305_rv.mp4	0.0	131.71430230140686	2.491901397705078
19	115.70693635940552	pulse	1	t		17.0	2.5	/experiments/Knapen_AOT/AOT_stimuli/rescaled_final/1305_rv.mp4	0.0	132.88755774497986	
19	117.0255823135376	fix_post	2		12	17.0	2.5	/experiments/Knapen_AOT/AOT_stimuli/rescaled_final/1305_rv.mp4	0.0	134.20620369911194	0.10002899169921875
20	117.12561130523682	fix_pre	0		120	18.0	2.5	/experiments/Knapen_AOT/AOT_stimuli/rescaled_final/1834_fw.mp4	0.0	134.30623269081116	1.0085411071777344
20	117.30921339988708	pulse	0	t		18.0	2.5	/experiments/Knapen_AOT/AOT_stimuli/rescaled_final/1834_fw.mp4	0.0	134.48983478546143	
20	118.13415241241455	movie	1		290	18.0	2.5	/experiments/Knapen_AOT/AOT_stimuli/rescaled_final/1834_fw.mp4	0.0	135.3147737979889	2.492018699645996
20	118.90852642059326	pulse	1	t		18.0	2.5	/experiments/Knapen_AOT/AOT_stimuli/rescaled_final/1834_fw.mp4	0.0	136.0891478061676	
20	120.50824284553528	pulse	1	t		18.0	2.5	/experiments/Knapen_AOT/AOT_stimuli/rescaled_final/1834_fw.mp4	0.0	137.68886423110962	
20	120.62617111206055	fix_post	2		12	18.0	2.5	/experiments/Knapen_AOT/AOT_stimuli/rescaled_final/1834_fw.mp4	0.0	137.8067924976349	0.10001826286315918
21	120.7261893749237	fix_pre	0		120	19.0	2.5	/experiments/Knapen_AOT/AOT_stimuli/rescaled_final/1866_rv.mp4	0.0	137.90681076049805	1.008483648300171
21	121.73467302322388	movie	1		281	19.0	2.5	/experiments/Knapen_AOT/AOT_stimuli/rescaled_final/1866_rv.mp4	0.0	138.91529440879822	2.49202036857605
21	122.10827541351318	pulse	1	t		19.0	2.5	/experiments/Knapen_AOT/AOT_stimuli/rescaled_final/1866_rv.mp4	0.0	139.28889679908752	
21	123.70985126495361	pulse	1	t		19.0	2.5	/experiments/Knapen_AOT/AOT_stimuli/rescaled_final/1866_rv.mp4	0.0	140.89047265052795	
21	124.22669339179993	fix_post	2		12	19.0	2.5	/experiments/Knapen_AOT/AOT_stimuli/rescaled_final/1866_rv.mp4	0.0	141.40731477737427	0.10001230239868164
22	124.32670569419861	fix_pre	0		119	20.0	2.5	blank	1.0	141.50732707977295	0.9918437004089355
22	125.3104145526886	pulse	0	t		20.0	2.5	blank	1.0	142.49103593826294	
22	125.31854939460754	movie	1		301	20.0	2.5	blank	1.0	142.49917078018188	2.5086684226989746
22	126.91081690788269	pulse	1	t		20.0	2.5	blank	1.0	144.09143829345703	
22	127.82721781730652	fix_post	2		12	20.0	2.5	blank	1.0	145.00783920288086	0.10001659393310547
23	127.92723441123962	fix_pre	0		120	21.0	2.5	/experiments/Knapen_AOT/AOT_stimuli/rescaled_final/0667_fw.mp4	0.0	145.10785579681396	1.0085387229919434
23	128.5035970211029	pulse	0	t		21.0	2.5	/experiments/Knapen_AOT/AOT_stimuli/rescaled_final/0667_fw.mp4	0.0	145.68421840667725	
23	128.93577313423157	movie	1		284	21.0	2.5	/experiments/Knapen_AOT/AOT_stimuli/rescaled_final/0667_fw.mp4	0.0	146.1163945198059	2.4920144081115723
23	130.10920643806458	pulse	1	t		21.0	2.5	/experiments/Knapen_AOT/AOT_stimuli/rescaled_final/0667_fw.mp4	0.0	147.28982782363892	
23	131.42778754234314	fix_post	2		12	21.0	2.5	/experiments/Knapen_AOT/AOT_stimuli/rescaled_final/0667_fw.mp4	0.0	148.60840892791748	0.10005021095275879
24	131.5278377532959	fix_pre	0		120	22.0	2.5	/experiments/Knapen_AOT/AOT_stimuli/rescaled_final/1168_fw.mp4	0.0	148.70845913887024	1.0085721015930176
24	131.70346879959106	pulse	0	t		22.0	2.5	/experiments/Knapen_AOT/AOT_stimuli/rescaled_final/1168_fw.mp4	0.0	148.8840901851654	
24	132.53640985488892	movie	1		292	22.0	2.5	/experiments/Knapen_AOT/AOT_stimuli/rescaled_final/1168_fw.mp4	0.0	149.71703124046326	2.4918878078460693
24	133.3035113811493	pulse	1	t		22.0	2.5	/experiments/Knapen_AOT/AOT_stimuli/rescaled_final/1168_fw.mp4	0.0	150.48413276672363	
24	134.90352702140808	pulse	1	t		22.0	2.5	/experiments/Knapen_AOT/AOT_stimuli/rescaled_final/1168_fw.mp4	0.0	152.08414840698242	
24	135.02829766273499	fix_post	2		12	22.0	2.5	/experiments/Knapen_AOT/AOT_stimuli/rescaled_final/1168_fw.mp4	0.0	152.20891904830933	0.10002875328063965
25	135.12832641601562	fix_pre	0		120	23.0	2.5	/experiments/Knapen_AOT/AOT_stimuli/rescaled_final/1388_fw.mp4	0.0	152.30894780158997	1.008516550064087
25	136.1368429660797	movie	1		280	23.0	2.5	/experiments/Knapen_AOT/AOT_stimuli/rescaled_final/1388_fw.mp4	0.0	153.31746435165405	2.492060422897339
25	136.50374603271484	pulse	1	t		23.0	2.5	/experiments/Knapen_AOT/AOT_stimuli/rescaled_final/1388_fw.mp4	0.0	153.68436741828918	
25	138.10413575172424	pulse	1	t		23.0	2.5	/experiments/Knapen_AOT/AOT_stimuli/rescaled_final/1388_fw.mp4	0.0	155.28475713729858	
25	138.62890338897705	fix_post	2		12	23.0	2.5	/experiments/Knapen_AOT/AOT_stimuli/rescaled_final/1388_fw.mp4	0.0	155.8095247745514	0.09999656677246094
26	138.7288999557495	fix_pre	0		118	24.0	2.5	/experiments/Knapen_AOT/AOT_stimuli/rescaled_final/0282_fw.mp4	0.0	155.90952134132385	0.9918055534362793
26	139.70422458648682	pulse	0	t		24.0	2.5	/experiments/Knapen_AOT/AOT_stimuli/rescaled_final/0282_fw.mp4	0.0	156.88484597206116	
26	139.7207055091858	movie	1		292	24.0	2.5	/experiments/Knapen_AOT/AOT_stimuli/rescaled_final/0282_fw.mp4	0.0	156.90132689476013	2.500378370285034
26	141.30465984344482	pulse	1	t		24.0	2.5	/experiments/Knapen_AOT/AOT_stimuli/rescaled_final/0282_fw.mp4	0.0	158.48528122901917	
26	142.22108387947083	fix_post	2		12	24.0	2.5	/experiments/Knapen_AOT/AOT_stimuli/rescaled_final/0282_fw.mp4	0.0	159.40170526504517	0.10005617141723633
27	142.32114005088806	fix_pre	0		120	25.0	2.5	/experiments/Knapen_AOT/AOT_stimuli/rescaled_final/0726_rv.mp4	0.0	159.5017614364624	1.0084407329559326
27	142.9048409461975	pulse	0	t		25.0	2.5	/experiments/Knapen_AOT/AOT_stimuli/rescaled_final/0726_rv.mp4	0.0	160.08546233177185	
27	143.329580783844	movie	1		289	25.0	2.5	/experiments/Knapen_AOT/AOT_stimuli/rescaled_final/0726_rv.mp4	0.0	160.51020216941833	2.492067813873291
27	144.50329852104187	pulse	1	t		25.0	2.5	/experiments/Knapen_AOT/AOT_stimuli/rescaled_final/0726_rv.mp4	0.0	161.6839199066162	
27	145.82164859771729	fix_post	2		12	25.0	2.5	/experiments/Knapen_AOT/AOT_stimuli/rescaled_final/0726_rv.mp4	0.0	163.00226998329163	0.1000056266784668
28	145.92165422439575	fix_pre	0		120	26.0	2.5	/experiments/Knapen_AOT/AOT_stimuli/rescaled_final/1662_rv.mp4	0.0	163.1022756099701	1.0084800720214844
28	146.1051802635193	pulse	0	t		26.0	2.5	/experiments/Knapen_AOT/AOT_stimuli/rescaled_final/1662_rv.mp4	0.0	163.28580164909363	
28	146.93013429641724	movie	1		287	26.0	2.5	/experiments/Knapen_AOT/AOT_stimuli/rescaled_final/1662_rv.mp4	0.0	164.11075568199158	2.492006540298462
28	147.7051351070404	pulse	1	t		26.0	2.5	/experiments/Knapen_AOT/AOT_stimuli/rescaled_final/1662_rv.mp4	0.0	164.88575649261475	
28	149.30369877815247	pulse	1	t		26.0	2.5	/experiments/Knapen_AOT/AOT_stimuli/rescaled_final/1662_rv.mp4	0.0	166.4843201637268	
28	149.4221408367157	fix_post	2		12	26.0	2.5	/experiments/Knapen_AOT/AOT_stimuli/rescaled_final/1662_rv.mp4	0.0	166.60276222229004	0.10005998611450195
29	149.5222008228302	fix_pre	0		120	27.0	2.5	/experiments/Knapen_AOT/AOT_stimuli/rescaled_final/1585_rv.mp4	0.0	166.70282220840454	1.0085108280181885
29	150.5307116508484	movie	1		284	27.0	2.5	/experiments/Knapen_AOT/AOT_stimuli/rescaled_final/1585_rv.mp4	0.0	167.71133303642273	2.4920003414154053
29	150.90502500534058	pulse	1	t		27.0	2.5	/experiments/Knapen_AOT/AOT_stimuli/rescaled_final/1585_rv.mp4	0.0	168.08564639091492	
29	152.50400257110596	pulse	1	t		27.0	2.5	/experiments/Knapen_AOT/AOT_stimuli/rescaled_final/1585_rv.mp4	0.0	169.6846239566803	
29	153.0227119922638	fix_post	2		12	27.0	2.5	/experiments/Knapen_AOT/AOT_stimuli/rescaled_final/1585_rv.mp4	0.0	170.20333337783813	0.10025835037231445
30	153.1229703426361	fix_pre	0		119	28.0	2.5	blank	1.0	170.30359172821045	0.9915657043457031
30	154.1064329147339	pulse	0	t		28.0	2.5	blank	1.0	171.28705430030823	
30	154.1145360469818	movie	1		301	28.0	2.5	blank	1.0	171.29515743255615	2.5087153911590576
30	155.7066204547882	pulse	1	t		28.0	2.5	blank	1.0	172.88724184036255	
30	156.62325143814087	fix_post	2		12	28.0	2.5	blank	1.0	173.8038728237152	0.09999823570251465
31	156.72324967384338	fix_pre	0		120	29.0	2.5	/experiments/Knapen_AOT/AOT_stimuli/rescaled_final/0804_fw.mp4	0.0	173.90387105941772	1.0085184574127197
31	157.3068835735321	pulse	0	t		29.0	2.5	/experiments/Knapen_AOT/AOT_stimuli/rescaled_final/0804_fw.mp4	0.0	174.48750495910645	
31	157.7317681312561	movie	1		287	29.0	2.5	/experiments/Knapen_AOT/AOT_stimuli/rescaled_final/0804_fw.mp4	0.0	174.91238951683044	2.492039918899536
31	158.90546679496765	pulse	1	t		29.0	2.5	/experiments/Knapen_AOT/AOT_stimuli/rescaled_final/0804_fw.mp4	0.0	176.086088180542	
31	160.22380805015564	fix_post	2		12	29.0	2.5	/experiments/Knapen_AOT/AOT_stimuli/rescaled_final/0804_fw.mp4	0.0	177.40442943572998	0.10006284713745117
32	160.3238708972931	fix_pre	0		120	30.0	2.5	/experiments/Knapen_AOT/AOT_stimuli/rescaled_final/1782_fw.mp4	0.0	177.50449228286743	1.0084466934204102
32	160.50736832618713	pulse	0	t		30.0	2.5	/experiments/Knapen_AOT/AOT_stimuli/rescaled_final/1782_fw.mp4	0.0	177.68798971176147	
32	161.3323175907135	movie	1		274	30.0	2.5	/experiments/Knapen_AOT/AOT_stimuli/rescaled_final/1782_fw.mp4	0.0	178.51293897628784	2.4920222759246826
32	162.10578203201294	pulse	1	t		30.0	2.5	/experiments/Knapen_AOT/AOT_stimuli/rescaled_final/1782_fw.mp4	0.0	179.28640341758728	
32	163.70635533332825	pulse	1	t		30.0	2.5	/experiments/Knapen_AOT/AOT_stimuli/rescaled_final/1782_fw.mp4	0.0	180.8869767189026	
32	163.82433986663818	fix_post	2		12	30.0	2.5	/experiments/Knapen_AOT/AOT_stimuli/rescaled_final/1782_fw.mp4	0.0	181.00496125221252	0.09998464584350586
33	163.9243245124817	fix_pre	0		120	31.0	2.5	/experiments/Knapen_AOT/AOT_stimuli/rescaled_final/0434_rv.mp4	0.0	181.10494589805603	1.0084996223449707
33	164.93282413482666	movie	1		290	31.0	2.5	/experiments/Knapen_AOT/AOT_stimuli/rescaled_final/0434_rv.mp4	0.0	182.113445520401	2.492048978805542
33	165.3065266609192	pulse	1	t		31.0	2.5	/experiments/Knapen_AOT/AOT_stimuli/rescaled_final/0434_rv.mp4	0.0	182.48714804649353	
33	166.90618467330933	pulse	1	t		31.0	2.5	/experiments/Knapen_AOT/AOT_stimuli/rescaled_final/0434_rv.mp4	0.0	184.08680605888367	
33	167.4248731136322	fix_post	2		12	31.0	2.5	/experiments/Knapen_AOT/AOT_stimuli/rescaled_final/0434_rv.mp4	0.0	184.60549449920654	0.10001492500305176
34	167.52488803863525	fix_pre	0		119	32.0	2.5	/experiments/Knapen_AOT/AOT_stimuli/rescaled_final/0720_rv.mp4	0.0	184.7055094242096	1.0001494884490967
34	168.50876641273499	pulse	0	t		32.0	2.5	/experiments/Knapen_AOT/AOT_stimuli/rescaled_final/0720_rv.mp4	0.0	185.68938779830933	
34	168.52503752708435	movie	1		294	32.0	2.5	/experiments/Knapen_AOT/AOT_stimuli/rescaled_final/0720_rv.mp4	0.0	185.7056589126587	2.500365972518921
34	170.10754561424255	pulse	1	t		32.0	2.5	/experiments/Knapen_AOT/AOT_stimuli/rescaled_final/0720_rv.mp4	0.0	187.2881669998169	
34	171.02540349960327	fix_post	2		12	32.0	2.5	/experiments/Knapen_AOT/AOT_stimuli/rescaled_final/0720_rv.mp4	0.0	188.2060248851776	0.10000896453857422
35	171.12541246414185	fix_pre	0		120	33.0	2.5	/experiments/Knapen_AOT/AOT_stimuli/rescaled_final/1578_rv.mp4	0.0	188.3060338497162	1.00850248336792
35	171.7090392112732	pulse	0	t		33.0	2.5	/experiments/Knapen_AOT/AOT_stimuli/rescaled_final/1578_rv.mp4	0.0	188.88966059684753	
35	172.13391494750977	movie	1		292	33.0	2.5	/experiments/Knapen_AOT/AOT_stimuli/rescaled_final/1578_rv.mp4	0.0	189.3145363330841	2.4920215606689453
35	173.30768871307373	pulse	1	t		33.0	2.5	/experiments/Knapen_AOT/AOT_stimuli/rescaled_final/1578_rv.mp4	0.0	190.48831009864807	
35	174.6259365081787	fix_post	2		12	33.0	2.5	/experiments/Knapen_AOT/AOT_stimuli/rescaled_final/1578_rv.mp4	0.0	191.80655789375305	0.1000666618347168
36	174.72600317001343	fix_pre	0		120	34.0	2.5	/experiments/Knapen_AOT/AOT_stimuli/rescaled_final/0038_rv.mp4	0.0	191.90662455558777	1.0084731578826904
36	174.90990614891052	pulse	0	t		34.0	2.5	/experiments/Knapen_AOT/AOT_stimuli/rescaled_final/0038_rv.mp4	0.0	192.09052753448486	
36	175.73447632789612	movie	1		282	34.0	2.5	/experiments/Knapen_AOT/AOT_stimuli/rescaled_final/0038_rv.mp4	0.0	192.91509771347046	2.49200701713562
36	176.50779032707214	pulse	1	t		34.0	2.5	/experiments/Knapen_AOT/AOT_stimuli/rescaled_final/0038_rv.mp4	0.0	193.68841171264648	
36	178.10812211036682	pulse	1	t		34.0	2.5	/experiments/Knapen_AOT/AOT_stimuli/rescaled_final/0038_rv.mp4	0.0	195.28874349594116	
36	178.22648334503174	fix_post	2		12	34.0	2.5	/experiments/Knapen_AOT/AOT_stimuli/rescaled_final/0038_rv.mp4	0.0	195.40710473060608	0.10005640983581543
37	178.32653975486755	fix_pre	0		120	35.0	2.5	blank	1.0	195.5071611404419	1.0001280307769775
37	179.32666778564453	movie	1		300	35.0	2.5	blank	1.0	196.50728917121887	2.5004451274871826
37	179.70300555229187	pulse	1	t		35.0	2.5	blank	1.0	196.8836269378662	
37	181.3035762310028	pulse	1	t		35.0	2.5	blank	1.0	198.48419761657715	
37	181.8271129131317	fix_post	2		12	35.0	2.5	blank	1.0	199.00773429870605	0.10002565383911133
38	181.92713856697083	fix_pre	0		119	36.0	2.5	/experiments/Knapen_AOT/AOT_stimuli/rescaled_final/0543_fw.mp4	0.0	199.10775995254517	1.000040054321289
38	182.90292048454285	pulse	0	t		36.0	2.5	/experiments/Knapen_AOT/AOT_stimuli/rescaled_final/0543_fw.mp4	0.0	200.0835418701172	
38	182.92717862129211	movie	1		291	36.0	2.5	/experiments/Knapen_AOT/AOT_stimuli/rescaled_final/0543_fw.mp4	0.0	200.10780000686646	2.500378370285034
38	184.5028154850006	pulse	1	t		36.0	2.5	/experiments/Knapen_AOT/AOT_stimuli/rescaled_final/0543_fw.mp4	0.0	201.68343687057495	
38	185.42755699157715	fix_post	2		12	36.0	2.5	/experiments/Knapen_AOT/AOT_stimuli/rescaled_final/0543_fw.mp4	0.0	202.6081783771515	0.10000944137573242
39	185.52756643295288	fix_pre	0		120	37.0	2.5	/experiments/Knapen_AOT/AOT_stimuli/rescaled_final/1327_rv.mp4	0.0	202.70818781852722	1.008486032485962
39	186.1028733253479	pulse	0	t		37.0	2.5	/experiments/Knapen_AOT/AOT_stimuli/rescaled_final/1327_rv.mp4	0.0	203.28349471092224	
39	186.53605246543884	movie	1		277	37.0	2.5	/experiments/Knapen_AOT/AOT_stimuli/rescaled_final/1327_rv.mp4	0.0	203.71667385101318	2.492039680480957
39	187.7031548023224	pulse	1	t		37.0	2.5	/experiments/Knapen_AOT/AOT_stimuli/rescaled_final/1327_rv.mp4	0.0	204.88377618789673	
39	189.0280921459198	fix_post	2		12	37.0	2.5	/experiments/Knapen_AOT/AOT_stimuli/rescaled_final/1327_rv.mp4	0.0	206.20871353149414	0.10001850128173828
40	189.12811064720154	fix_pre	0		120	38.0	2.5	/experiments/Knapen_AOT/AOT_stimuli/rescaled_final/2054_fw.mp4	0.0	206.30873203277588	1.008514165878296
40	189.30342555046082	pulse	0	t		38.0	2.5	/experiments/Knapen_AOT/AOT_stimuli/rescaled_final/2054_fw.mp4	0.0	206.48404693603516	
40	190.13662481307983	movie	1		286	38.0	2.5	/experiments/Knapen_AOT/AOT_stimuli/rescaled_final/2054_fw.mp4	0.0	207.31724619865417	2.492037773132324
40	190.90360045433044	pulse	1	t		38.0	2.5	/experiments/Knapen_AOT/AOT_stimuli/rescaled_final/2054_fw.mp4	0.0	208.08422183990479	
40	192.50389575958252	pulse	1	t		38.0	2.5	/experiments/Knapen_AOT/AOT_stimuli/rescaled_final/2054_fw.mp4	0.0	209.68451714515686	
40	192.62866258621216	fix_post	2		12	38.0	2.5	/experiments/Knapen_AOT/AOT_stimuli/rescaled_final/2054_fw.mp4	0.0	209.8092839717865	0.0999755859375
41	192.72863817214966	fix_pre	0		120	39.0	2.5	/experiments/Knapen_AOT/AOT_stimuli/rescaled_final/1633_rv.mp4	0.0	209.909259557724	1.0086305141448975
41	193.73726868629456	movie	1		282	39.0	2.5	/experiments/Knapen_AOT/AOT_stimuli/rescaled_final/1633_rv.mp4	0.0	210.9178900718689	2.4919052124023438
41	194.1047375202179	pulse	1	t		39.0	2.5	/experiments/Knapen_AOT/AOT_stimuli/rescaled_final/1633_rv.mp4	0.0	211.28535890579224	
41	195.70446181297302	pulse	1	t		39.0	2.5	/experiments/Knapen_AOT/AOT_stimuli/rescaled_final/1633_rv.mp4	0.0	212.88508319854736	
41	196.2291738986969	fix_post	2		12	39.0	2.5	/experiments/Knapen_AOT/AOT_stimuli/rescaled_final/1633_rv.mp4	0.0	213.40979528427124	0.1000516414642334
42	196.32922554016113	fix_pre	0		118	40.0	2.5	blank	1.0	213.50984692573547	0.9834415912628174
42	197.30455493927002	pulse	0	t		40.0	2.5	blank	1.0	214.48517632484436	
42	197.31266713142395	movie	1		301	40.0	2.5	blank	1.0	214.4932885169983	2.508723735809326
42	198.9050874710083	pulse	1	t		40.0	2.5	blank	1.0	216.08570885658264	
42	199.82139086723328	fix_post	2		12	40.0	2.5	blank	1.0	217.00201225280762	0.10001420974731445
43	199.9214050769806	fix_pre	0		120	41.0	2.5	/experiments/Knapen_AOT/AOT_stimuli/rescaled_final/0931_fw.mp4	0.0	217.10202646255493	1.0085546970367432
43	200.5050539970398	pulse	0	t		41.0	2.5	/experiments/Knapen_AOT/AOT_stimuli/rescaled_final/0931_fw.mp4	0.0	217.68567538261414	
43	200.92995977401733	movie	1		280	41.0	2.5	/experiments/Knapen_AOT/AOT_stimuli/rescaled_final/0931_fw.mp4	0.0	218.11058115959167	2.4919657707214355
43	202.10371685028076	pulse	1	t		41.0	2.5	/experiments/Knapen_AOT/AOT_stimuli/rescaled_final/0931_fw.mp4	0.0	219.2843382358551	
43	203.42192554473877	fix_post	2		12	41.0	2.5	/experiments/Knapen_AOT/AOT_stimuli/rescaled_final/0931_fw.mp4	0.0	220.6025469303131	0.1000216007232666
44	203.52194714546204	fix_pre	0		120	42.0	2.5	/experiments/Knapen_AOT/AOT_stimuli/rescaled_final/0020_fw.mp4	0.0	220.70256853103638	1.008467197418213
44	203.70555543899536	pulse	0	t		42.0	2.5	/experiments/Knapen_AOT/AOT_stimuli/rescaled_final/0020_fw.mp4	0.0	220.8861768245697	
44	204.53041434288025	movie	1		286	42.0	2.5	/experiments/Knapen_AOT/AOT_stimuli/rescaled_final/0020_fw.mp4	0.0	221.7110357284546	2.4920523166656494
44	205.3044958114624	pulse	1	t		42.0	2.5	/experiments/Knapen_AOT/AOT_stimuli/rescaled_final/0020_fw.mp4	0.0	222.48511719703674	
44	206.90408492088318	pulse	1	t		42.0	2.5	/experiments/Knapen_AOT/AOT_stimuli/rescaled_final/0020_fw.mp4	0.0	224.08470630645752	
44	207.0224666595459	fix_post	2		12	42.0	2.5	/experiments/Knapen_AOT/AOT_stimuli/rescaled_final/0020_fw.mp4	0.0	224.20308804512024	0.10000324249267578
45	207.12246990203857	fix_pre	0		120	43.0	2.5	/experiments/Knapen_AOT/AOT_stimuli/rescaled_final/0266_rv.mp4	0.0	224.30309128761292	1.0085742473602295
45	208.1310441493988	movie	1		266	43.0	2.5	/experiments/Knapen_AOT/AOT_stimuli/rescaled_final/0266_rv.mp4	0.0	225.31166553497314	2.49196720123291
45	208.50636649131775	pulse	1	t		43.0	2.5	/experiments/Knapen_AOT/AOT_stimuli/rescaled_final/0266_rv.mp4	0.0	225.6869878768921	
45	210.10489010810852	pulse	1	t		43.0	2.5	/experiments/Knapen_AOT/AOT_stimuli/rescaled_final/0266_rv.mp4	0.0	227.28551149368286	
45	210.6230113506317	fix_post	2		12	43.0	2.5	/experiments/Knapen_AOT/AOT_stimuli/rescaled_final/0266_rv.mp4	0.0	227.80363273620605	0.10001730918884277
46	210.72302865982056	fix_pre	0		119	44.0	2.5	/experiments/Knapen_AOT/AOT_stimuli/rescaled_final/1450_fw.mp4	0.0	227.9036500453949	1.0001583099365234
46	211.70670247077942	pulse	0	t		44.0	2.5	/experiments/Knapen_AOT/AOT_stimuli/rescaled_final/1450_fw.mp4	0.0	228.88732385635376	
46	211.72318696975708	movie	1		291	44.0	2.5	/experiments/Knapen_AOT/AOT_stimuli/rescaled_final/1450_fw.mp4	0.0	228.90380835533142	2.5003769397735596
46	213.30664110183716	pulse	1	t		44.0	2.5	/experiments/Knapen_AOT/AOT_stimuli/rescaled_final/1450_fw.mp4	0.0	230.4872624874115	
46	214.22356390953064	fix_post	2		12	44.0	2.5	/experiments/Knapen_AOT/AOT_stimuli/rescaled_final/1450_fw.mp4	0.0	231.40418529510498	0.10006308555603027
47	214.32362699508667	fix_pre	0		120	45.0	2.5	/experiments/Knapen_AOT/AOT_stimuli/rescaled_final/0368_rv.mp4	0.0	231.504248380661	1.0084550380706787
47	214.9075014591217	pulse	0	t		45.0	2.5	/experiments/Knapen_AOT/AOT_stimuli/rescaled_final/0368_rv.mp4	0.0	232.08812284469604	
47	215.33208203315735	movie	1		268	45.0	2.5	/experiments/Knapen_AOT/AOT_stimuli/rescaled_final/0368_rv.mp4	0.0	232.5127034187317	2.4920547008514404
47	216.50543355941772	pulse	1	t		45.0	2.5	/experiments/Knapen_AOT/AOT_stimuli/rescaled_final/0368_rv.mp4	0.0	233.68605494499207	
47	217.8241367340088	fix_post	2		12	45.0	2.5	/experiments/Knapen_AOT/AOT_stimuli/rescaled_final/0368_rv.mp4	0.0	235.00475811958313	0.0999603271484375
48	217.92409706115723	fix_pre	0		120	46.0	2.5	/experiments/Knapen_AOT/AOT_stimuli/rescaled_final/1633_fw.mp4	0.0	235.10471844673157	1.008528232574463
48	218.10769772529602	pulse	0	t		46.0	2.5	/experiments/Knapen_AOT/AOT_stimuli/rescaled_final/1633_fw.mp4	0.0	235.28831911087036	
48	218.9326252937317	movie	1		289	46.0	2.5	/experiments/Knapen_AOT/AOT_stimuli/rescaled_final/1633_fw.mp4	0.0	236.11324667930603	2.492076873779297
48	219.7060523033142	pulse	1	t		46.0	2.5	/experiments/Knapen_AOT/AOT_stimuli/rescaled_final/1633_fw.mp4	0.0	236.88667368888855	
48	221.30633163452148	pulse	1	t		46.0	2.5	/experiments/Knapen_AOT/AOT_stimuli/rescaled_final/1633_fw.mp4	0.0	238.48695302009583	
48	221.424702167511	fix_post	2		12	46.0	2.5	/experiments/Knapen_AOT/AOT_stimuli/rescaled_final/1633_fw.mp4	0.0	238.60532355308533	0.09996151924133301
49	221.52466368675232	fix_pre	0		120	47.0	2.5	/experiments/Knapen_AOT/AOT_stimuli/rescaled_final/1916_fw.mp4	0.0	238.70528507232666	1.0084855556488037
49	222.53314924240112	movie	1		283	47.0	2.5	/experiments/Knapen_AOT/AOT_stimuli/rescaled_final/1916_fw.mp4	0.0	239.71377062797546	2.4920730590820312
49	222.90695881843567	pulse	1	t		47.0	2.5	/experiments/Knapen_AOT/AOT_stimuli/rescaled_final/1916_fw.mp4	0.0	240.08758020401	
49	224.50700569152832	pulse	1	t		47.0	2.5	/experiments/Knapen_AOT/AOT_stimuli/rescaled_final/1916_fw.mp4	0.0	241.68762707710266	
49	225.02522230148315	fix_post	2		12	47.0	2.5	/experiments/Knapen_AOT/AOT_stimuli/rescaled_final/1916_fw.mp4	0.0	242.2058436870575	0.09996247291564941
50	225.1251847743988	fix_pre	0		119	48.0	2.5	/experiments/Knapen_AOT/AOT_stimuli/rescaled_final/0156_fw.mp4	0.0	242.30580615997314	1.0001707077026367
50	226.10903215408325	pulse	0	t		48.0	2.5	/experiments/Knapen_AOT/AOT_stimuli/rescaled_final/0156_fw.mp4	0.0	243.2896535396576	
50	226.12535548210144	movie	1		291	48.0	2.5	/experiments/Knapen_AOT/AOT_stimuli/rescaled_final/0156_fw.mp4	0.0	243.30597686767578	2.500372886657715
50	227.70819425582886	pulse	1	t		48.0	2.5	/experiments/Knapen_AOT/AOT_stimuli/rescaled_final/0156_fw.mp4	0.0	244.8888156414032	
50	228.62572836875916	fix_post	2		12	48.0	2.5	/experiments/Knapen_AOT/AOT_stimuli/rescaled_final/0156_fw.mp4	0.0	245.8063497543335	0.1000065803527832
51	228.72573494911194	fix_pre	0		120	49.0	2.5	blank	1.0	245.90635633468628	1.0001516342163086
51	229.30953097343445	pulse	0	t		49.0	2.5	blank	1.0	246.4901523590088	
51	229.72588658332825	movie	1		300	49.0	2.5	blank	1.0	246.9065079689026	2.5005042552948
51	230.9095742702484	pulse	1	t		49.0	2.5	blank	1.0	248.09019565582275	
51	232.22639083862305	fix_post	2		12	49.0	2.5	blank	1.0	249.4070122241974	0.09987926483154297
52	232.3262701034546	fix_pre	0		120	50.0	2.5	/experiments/Knapen_AOT/AOT_stimuli/rescaled_final/0035_fw.mp4	0.0	249.50689148902893	1.0084733963012695
52	232.50983953475952	pulse	0	t		50.0	2.5	/experiments/Knapen_AOT/AOT_stimuli/rescaled_final/0035_fw.mp4	0.0	249.69046092033386	
52	233.33474349975586	movie	1		275	50.0	2.5	/experiments/Knapen_AOT/AOT_stimuli/rescaled_final/0035_fw.mp4	0.0	250.5153648853302	2.4920685291290283
52	234.10816597938538	pulse	1	t		50.0	2.5	/experiments/Knapen_AOT/AOT_stimuli/rescaled_final/0035_fw.mp4	0.0	251.28878736495972	
52	235.70846152305603	pulse	1	t		50.0	2.5	/experiments/Knapen_AOT/AOT_stimuli/rescaled_final/0035_fw.mp4	0.0	252.88908290863037	
52	235.8268120288849	fix_post	2		12	50.0	2.5	/experiments/Knapen_AOT/AOT_stimuli/rescaled_final/0035_fw.mp4	0.0	253.00743341445923	0.1000206470489502
53	235.92683267593384	fix_pre	0		120	51.0	2.5	/experiments/Knapen_AOT/AOT_stimuli/rescaled_final/1627_rv.mp4	0.0	253.10745406150818	1.0084819793701172
53	236.93531465530396	movie	1		288	51.0	2.5	/experiments/Knapen_AOT/AOT_stimuli/rescaled_final/1627_rv.mp4	0.0	254.1159360408783	2.4920220375061035
53	237.30938696861267	pulse	1	t		51.0	2.5	/experiments/Knapen_AOT/AOT_stimuli/rescaled_final/1627_rv.mp4	0.0	254.490008354187	
53	238.90924382209778	pulse	1	t		51.0	2.5	/experiments/Knapen_AOT/AOT_stimuli/rescaled_final/1627_rv.mp4	0.0	256.0898652076721	
53	239.42733669281006	fix_post	2		12	51.0	2.5	/experiments/Knapen_AOT/AOT_stimuli/rescaled_final/1627_rv.mp4	0.0	256.6079580783844	0.10001587867736816
54	239.52735257148743	fix_pre	0		119	52.0	2.5	/experiments/Knapen_AOT/AOT_stimuli/rescaled_final/1158_rv.mp4	0.0	256.70797395706177	1.0002400875091553
54	240.50360345840454	pulse	0	t		52.0	2.5	/experiments/Knapen_AOT/AOT_stimuli/rescaled_final/1158_rv.mp4	0.0	257.6842248439789	
54	240.52759265899658	movie	1		283	52.0	2.5	/experiments/Knapen_AOT/AOT_stimuli/rescaled_final/1158_rv.mp4	0.0	257.7082140445709	2.5003066062927246
54	242.10325598716736	pulse	1	t		52.0	2.5	/experiments/Knapen_AOT/AOT_stimuli/rescaled_final/1158_rv.mp4	0.0	259.2838773727417	
54	243.0278992652893	fix_post	2		12	52.0	2.5	/experiments/Knapen_AOT/AOT_stimuli/rescaled_final/1158_rv.mp4	0.0	260.20852065086365	0.10001230239868164
55	243.127911567688	fix_pre	0		120	53.0	2.5	/experiments/Knapen_AOT/AOT_stimuli/rescaled_final/1297_fw.mp4	0.0	260.30853295326233	1.0084748268127441
55	243.70326113700867	pulse	0	t		53.0	2.5	/experiments/Knapen_AOT/AOT_stimuli/rescaled_final/1297_fw.mp4	0.0	260.883882522583	
55	244.13638639450073	movie	1		290	53.0	2.5	/experiments/Knapen_AOT/AOT_stimuli/rescaled_final/1297_fw.mp4	0.0	261.3170077800751	2.492180347442627
55	245.30352568626404	pulse	1	t		53.0	2.5	/experiments/Knapen_AOT/AOT_stimuli/rescaled_final/1297_fw.mp4	0.0	262.4841470718384	
55	246.62856674194336	fix_post	2		12	53.0	2.5	/experiments/Knapen_AOT/AOT_stimuli/rescaled_final/1297_fw.mp4	0.0	263.8091881275177	0.09982609748840332
56	246.72839283943176	fix_pre	0		120	54.0	2.5	/experiments/Knapen_AOT/AOT_stimuli/rescaled_final/1072_rv.mp4	0.0	263.9090142250061	1.0085711479187012
56	246.9038155078888	pulse	0	t		54.0	2.5	/experiments/Knapen_AOT/AOT_stimuli/rescaled_final/1072_rv.mp4	0.0	264.08443689346313	
56	247.73696398735046	movie	1		278	54.0	2.5	/experiments/Knapen_AOT/AOT_stimuli/rescaled_final/1072_rv.mp4	0.0	264.9175853729248	2.500321865081787
56	248.50427675247192	pulse	1	t		54.0	2.5	/experiments/Knapen_AOT/AOT_stimuli/rescaled_final/1072_rv.mp4	0.0	265.68489813804626	
56	250.10419511795044	pulse	1	t		54.0	2.5	/experiments/Knapen_AOT/AOT_stimuli/rescaled_final/1072_rv.mp4	0.0	267.2848165035248	
56	250.23728585243225	fix_post	2		11	54.0	2.5	/experiments/Knapen_AOT/AOT_stimuli/rescaled_final/1072_rv.mp4	0.0	267.4179072380066	0.09169697761535645
57	250.3289828300476	fix_pre	0		120	55.0	2.5	blank	1.0	267.50960421562195	1.0001330375671387
57	251.32911586761475	movie	1		300	55.0	2.5	blank	1.0	268.5097372531891	2.5003793239593506
57	251.70439791679382	pulse	1	t		55.0	2.5	blank	1.0	268.88501930236816	
57	253.30461382865906	pulse	1	t		55.0	2.5	blank	1.0	270.4852352142334	
57	253.8294951915741	fix_post	2		12	55.0	2.5	blank	1.0	271.01011657714844	0.10002470016479492
58	253.9295198917389	fix_pre	0		118	56.0	2.5	/experiments/Knapen_AOT/AOT_stimuli/rescaled_final/0278_fw.mp4	0.0	271.11014127731323	0.9918241500854492
58	254.90486311912537	pulse	0	t		56.0	2.5	/experiments/Knapen_AOT/AOT_stimuli/rescaled_final/0278_fw.mp4	0.0	272.0854845046997	
58	254.92134404182434	movie	1		280	56.0	2.5	/experiments/Knapen_AOT/AOT_stimuli/rescaled_final/0278_fw.mp4	0.0	272.1019654273987	2.500359296798706
58	256.50389218330383	pulse	1	t		56.0	2.5	/experiments/Knapen_AOT/AOT_stimuli/rescaled_final/0278_fw.mp4	0.0	273.6845135688782	
58	257.42170333862305	fix_post	2		12	56.0	2.5	/experiments/Knapen_AOT/AOT_stimuli/rescaled_final/0278_fw.mp4	0.0	274.6023247241974	0.10001707077026367
59	257.5217204093933	fix_pre	0		120	57.0	2.5	/experiments/Knapen_AOT/AOT_stimuli/rescaled_final/0629_rv.mp4	0.0	274.70234179496765	1.0085034370422363
59	258.10535883903503	pulse	0	t		57.0	2.5	/experiments/Knapen_AOT/AOT_stimuli/rescaled_final/0629_rv.mp4	0.0	275.2859802246094	
59	258.53022384643555	movie	1		269	57.0	2.5	/experiments/Knapen_AOT/AOT_stimuli/rescaled_final/0629_rv.mp4	0.0	275.7108452320099	2.4920406341552734
59	259.70497035980225	pulse	1	t		57.0	2.5	/experiments/Knapen_AOT/AOT_stimuli/rescaled_final/0629_rv.mp4	0.0	276.8855917453766	
59	261.0222644805908	fix_post	2		12	57.0	2.5	/experiments/Knapen_AOT/AOT_stimuli/rescaled_final/0629_rv.mp4	0.0	278.20288586616516	0.09999680519104004
60	261.12226128578186	fix_pre	0		120	58.0	2.5	/experiments/Knapen_AOT/AOT_stimuli/rescaled_final/0558_rv.mp4	0.0	278.3028826713562	1.008521318435669
60	261.3058879375458	pulse	0	t		58.0	2.5	/experiments/Knapen_AOT/AOT_stimuli/rescaled_final/0558_rv.mp4	0.0	278.4865093231201	
60	262.13078260421753	movie	1		280	58.0	2.5	/experiments/Knapen_AOT/AOT_stimuli/rescaled_final/0558_rv.mp4	0.0	279.31140398979187	2.4920833110809326
60	262.9039795398712	pulse	1	t		58.0	2.5	/experiments/Knapen_AOT/AOT_stimuli/rescaled_final/0558_rv.mp4	0.0	280.08460092544556	
60	264.50472497940063	pulse	1	t		58.0	2.5	/experiments/Knapen_AOT/AOT_stimuli/rescaled_final/0558_rv.mp4	0.0	281.685346364975	
60	264.62286591529846	fix_post	2		12	58.0	2.5	/experiments/Knapen_AOT/AOT_stimuli/rescaled_final/0558_rv.mp4	0.0	281.8034873008728	0.09999918937683105
61	264.7228651046753	fix_pre	0		120	59.0	2.5	/experiments/Knapen_AOT/AOT_stimuli/rescaled_final/1189_fw.mp4	0.0	281.90348649024963	1.008589744567871
61	265.73145484924316	movie	1		283	59.0	2.5	/experiments/Knapen_AOT/AOT_stimuli/rescaled_final/1189_fw.mp4	0.0	282.9120762348175	2.4918770790100098
61	266.104798078537	pulse	1	t		59.0	2.5	/experiments/Knapen_AOT/AOT_stimuli/rescaled_final/1189_fw.mp4	0.0	283.2854194641113	
61	267.7045135498047	pulse	1	t		59.0	2.5	/experiments/Knapen_AOT/AOT_stimuli/rescaled_final/1189_fw.mp4	0.0	284.885134935379	
61	268.2233319282532	fix_post	2		12	59.0	2.5	/experiments/Knapen_AOT/AOT_stimuli/rescaled_final/1189_fw.mp4	0.0	285.4039533138275	0.10004734992980957
62	268.323379278183	fix_pre	0		119	60.0	2.5	/experiments/Knapen_AOT/AOT_stimuli/rescaled_final/0714_fw.mp4	0.0	285.5040006637573	1.0002515316009521
62	269.30723786354065	pulse	0	t		60.0	2.5	/experiments/Knapen_AOT/AOT_stimuli/rescaled_final/0714_fw.mp4	0.0	286.487859249115	
62	269.32363080978394	movie	1		289	60.0	2.5	/experiments/Knapen_AOT/AOT_stimuli/rescaled_final/0714_fw.mp4	0.0	286.5042521953583	2.500284194946289
62	270.9060583114624	pulse	1	t		60.0	2.5	/experiments/Knapen_AOT/AOT_stimuli/rescaled_final/0714_fw.mp4	0.0	288.08667969703674	
62	271.8239150047302	fix_post	2		12	60.0	2.5	/experiments/Knapen_AOT/AOT_stimuli/rescaled_final/0714_fw.mp4	0.0	289.00453639030457	0.09998250007629395
63	271.9238975048065	fix_pre	0		120	61.0	2.5	/experiments/Knapen_AOT/AOT_stimuli/rescaled_final/1598_fw.mp4	0.0	289.10451889038086	1.0085482597351074
63	272.5075354576111	pulse	0	t		61.0	2.5	/experiments/Knapen_AOT/AOT_stimuli/rescaled_final/1598_fw.mp4	0.0	289.6881568431854	
63	272.9324457645416	movie	1		282	61.0	2.5	/experiments/Knapen_AOT/AOT_stimuli/rescaled_final/1598_fw.mp4	0.0	290.11306715011597	2.4919636249542236
63	274.1058886051178	pulse	1	t		61.0	2.5	/experiments/Knapen_AOT/AOT_stimuli/rescaled_final/1598_fw.mp4	0.0	291.28650999069214	
63	275.42440938949585	fix_post	2		12	61.0	2.5	/experiments/Knapen_AOT/AOT_stimuli/rescaled_final/1598_fw.mp4	0.0	292.6050307750702	0.10001921653747559
64	275.5244286060333	fix_pre	0		120	62.0	2.5	blank	1.0	292.70504999160767	1.0001487731933594
64	275.7080593109131	pulse	0	t		62.0	2.5	blank	1.0	292.8886806964874	
64	276.5245773792267	movie	1		300	62.0	2.5	blank	1.0	293.705198764801	2.5003662109375
64	277.308221578598	pulse	1	t		62.0	2.5	blank	1.0	294.48884296417236	
64	278.9084851741791	pulse	1	t		62.0	2.5	blank	1.0	296.0891065597534	
64	279.0249435901642	fix_post	2		12	62.0	2.5	blank	1.0	296.2055649757385	0.10003209114074707
65	279.12497568130493	fix_pre	0		120	63.0	2.5	/experiments/Knapen_AOT/AOT_stimuli/rescaled_final/0529_fw.mp4	0.0	296.3055970668793	1.008462905883789
65	280.1334385871887	movie	1		276	63.0	2.5	/experiments/Knapen_AOT/AOT_stimuli/rescaled_final/0529_fw.mp4	0.0	297.31405997276306	2.492060661315918
65	280.50727438926697	pulse	1	t		63.0	2.5	/experiments/Knapen_AOT/AOT_stimuli/rescaled_final/0529_fw.mp4	0.0	297.6878957748413	
65	282.1069686412811	pulse	1	t		63.0	2.5	/experiments/Knapen_AOT/AOT_stimuli/rescaled_final/0529_fw.mp4	0.0	299.28759002685547	
65	282.62549924850464	fix_post	2		12	63.0	2.5	/experiments/Knapen_AOT/AOT_stimuli/rescaled_final/0529_fw.mp4	0.0	299.806120634079	0.1000213623046875
66	282.7255206108093	fix_pre	0		119	64.0	2.5	/experiments/Knapen_AOT/AOT_stimuli/rescaled_final/0434_rv.mp4	0.0	299.90614199638367	1.0085139274597168
66	283.70921516418457	pulse	0	t		64.0	2.5	/experiments/Knapen_AOT/AOT_stimuli/rescaled_final/0434_rv.mp4	0.0	300.8898365497589	
66	283.73403453826904	movie	1		279	64.0	2.5	/experiments/Knapen_AOT/AOT_stimuli/rescaled_final/0434_rv.mp4	0.0	300.9146559238434	2.492016077041626
66	285.307902097702	pulse	1	t		64.0	2.5	/experiments/Knapen_AOT/AOT_stimuli/rescaled_final/0434_rv.mp4	0.0	302.48852348327637	
66	286.22605061531067	fix_post	2		12	64.0	2.5	/experiments/Knapen_AOT/AOT_stimuli/rescaled_final/0434_rv.mp4	0.0	303.406672000885	0.10000443458557129
67	286.32605504989624	fix_pre	0		120	65.0	2.5	/experiments/Knapen_AOT/AOT_stimuli/rescaled_final/1970_fw.mp4	0.0	303.5066764354706	1.0084903240203857
67	286.9098482131958	pulse	0	t		65.0	2.5	/experiments/Knapen_AOT/AOT_stimuli/rescaled_final/1970_fw.mp4	0.0	304.09046959877014	
67	287.3345453739166	movie	1		279	65.0	2.5	/experiments/Knapen_AOT/AOT_stimuli/rescaled_final/1970_fw.mp4	0.0	304.51516675949097	2.492065668106079
67	288.5083668231964	pulse	1	t		65.0	2.5	/experiments/Knapen_AOT/AOT_stimuli/rescaled_final/1970_fw.mp4	0.0	305.68898820877075	
67	289.8266110420227	fix_post	2		11	65.0	2.5	/experiments/Knapen_AOT/AOT_stimuli/rescaled_final/1970_fw.mp4	0.0	307.00723242759705	0.09998846054077148
68	289.9265995025635	fix_pre	0		120	66.0	2.5	/experiments/Knapen_AOT/AOT_stimuli/rescaled_final/1071_fw.mp4	0.0	307.1072208881378	1.0084927082061768
68	290.1101508140564	pulse	0	t		66.0	2.5	/experiments/Knapen_AOT/AOT_stimuli/rescaled_final/1071_fw.mp4	0.0	307.29077219963074	
68	290.93509221076965	movie	1		266	66.0	2.5	/experiments/Knapen_AOT/AOT_stimuli/rescaled_final/1071_fw.mp4	0.0	308.115713596344	2.4920270442962646
68	291.70879197120667	pulse	1	t		66.0	2.5	/experiments/Knapen_AOT/AOT_stimuli/rescaled_final/1071_fw.mp4	0.0	308.889413356781	
68	293.31008982658386	pulse	1	t		66.0	2.5	/experiments/Knapen_AOT/AOT_stimuli/rescaled_final/1071_fw.mp4	0.0	310.4907112121582	
68	293.4271192550659	fix_post	2		12	66.0	2.5	/experiments/Knapen_AOT/AOT_stimuli/rescaled_final/1071_fw.mp4	0.0	310.60774064064026	0.1000058650970459
69	293.52712512016296	fix_pre	0		120	67.0	2.5	/experiments/Knapen_AOT/AOT_stimuli/rescaled_final/1534_rv.mp4	0.0	310.7077465057373	1.008577823638916
69	294.5357029438019	movie	1		278	67.0	2.5	/experiments/Knapen_AOT/AOT_stimuli/rescaled_final/1534_rv.mp4	0.0	311.7163243293762	2.4919257164001465
69	294.91016912460327	pulse	1	t		67.0	2.5	/experiments/Knapen_AOT/AOT_stimuli/rescaled_final/1534_rv.mp4	0.0	312.0907905101776	
69	296.50924587249756	pulse	1	t		67.0	2.5	/experiments/Knapen_AOT/AOT_stimuli/rescaled_final/1534_rv.mp4	0.0	313.6898672580719	
69	297.027628660202	fix_post	2		12	67.0	2.5	/experiments/Knapen_AOT/AOT_stimuli/rescaled_final/1534_rv.mp4	0.0	314.20825004577637	0.10001325607299805
70	297.127641916275	fix_pre	0		119	68.0	2.5	/experiments/Knapen_AOT/AOT_stimuli/rescaled_final/1650_rv.mp4	0.0	314.30826330184937	1.0002894401550293
70	298.1038625240326	pulse	0	t		68.0	2.5	/experiments/Knapen_AOT/AOT_stimuli/rescaled_final/1650_rv.mp4	0.0	315.28448390960693	
70	298.12793135643005	movie	1		268	68.0	2.5	/experiments/Knapen_AOT/AOT_stimuli/rescaled_final/1650_rv.mp4	0.0	315.3085527420044	2.5002572536468506
70	299.7036647796631	pulse	1	t		68.0	2.5	/experiments/Knapen_AOT/AOT_stimuli/rescaled_final/1650_rv.mp4	0.0	316.8842861652374	
70	300.6281886100769	fix_post	2		12	68.0	2.5	/experiments/Knapen_AOT/AOT_stimuli/rescaled_final/1650_rv.mp4	0.0	317.80880999565125	0.10007309913635254
71	300.72826170921326	fix_pre	0		120	69.0	2.5	blank	1.0	317.9088830947876	1.0001475811004639
71	301.303585767746	pulse	0	t		69.0	2.5	blank	1.0	318.4842071533203	
71	301.7284092903137	movie	1		300	69.0	2.5	blank	1.0	318.90903067588806	2.5003116130828857
71	302.9041998386383	pulse	1	t		69.0	2.5	blank	1.0	320.08482122421265	
71	304.2287209033966	fix_post	2		12	69.0	2.5	blank	1.0	321.40934228897095	0.1000063419342041
72	304.3287272453308	fix_pre	0		120	70.0	2.5	/experiments/Knapen_AOT/AOT_stimuli/rescaled_final/1916_fw.mp4	0.0	321.50934863090515	1.0085763931274414
72	304.50409865379333	pulse	0	t		70.0	2.5	/experiments/Knapen_AOT/AOT_stimuli/rescaled_final/1916_fw.mp4	0.0	321.6847200393677	
72	305.33730363845825	movie	1		276	70.0	2.5	/experiments/Knapen_AOT/AOT_stimuli/rescaled_final/1916_fw.mp4	0.0	322.5179250240326	2.491950273513794
72	306.1042432785034	pulse	1	t		70.0	2.5	/experiments/Knapen_AOT/AOT_stimuli/rescaled_final/1916_fw.mp4	0.0	323.28486466407776	
72	307.70451259613037	pulse	1	t		70.0	2.5	/experiments/Knapen_AOT/AOT_stimuli/rescaled_final/1916_fw.mp4	0.0	324.8851339817047	
72	307.82925391197205	fix_post	2		12	70.0	2.5	/experiments/Knapen_AOT/AOT_stimuli/rescaled_final/1916_fw.mp4	0.0	325.0098752975464	0.10003018379211426
73	307.92928409576416	fix_pre	0		120	71.0	2.5	/experiments/Knapen_AOT/AOT_stimuli/rescaled_final/1536_fw.mp4	0.0	325.1099054813385	1.0086779594421387
73	308.9379620552063	movie	1		278	71.0	2.5	/experiments/Knapen_AOT/AOT_stimuli/rescaled_final/1536_fw.mp4	0.0	326.11858344078064	2.49185848236084
73	309.3040728569031	pulse	1	t		71.0	2.5	/experiments/Knapen_AOT/AOT_stimuli/rescaled_final/1536_fw.mp4	0.0	326.4846942424774	
73	310.90496277809143	pulse	1	t		71.0	2.5	/experiments/Knapen_AOT/AOT_stimuli/rescaled_final/1536_fw.mp4	0.0	328.08558416366577	
73	311.42982053756714	fix_post	2		12	71.0	2.5	/experiments/Knapen_AOT/AOT_stimuli/rescaled_final/1536_fw.mp4	0.0	328.6104419231415	0.10002756118774414
74	311.5298480987549	fix_pre	0		118	72.0	2.5	/experiments/Knapen_AOT/AOT_stimuli/rescaled_final/1268_fw.mp4	0.0	328.7104694843292	0.991811990737915
74	312.50524520874023	pulse	0	t		72.0	2.5	/experiments/Knapen_AOT/AOT_stimuli/rescaled_final/1268_fw.mp4	0.0	329.6858665943146	
74	312.5216600894928	movie	1		278	72.0	2.5	/experiments/Knapen_AOT/AOT_stimuli/rescaled_final/1268_fw.mp4	0.0	329.70228147506714	2.5003628730773926
74	314.10419392585754	pulse	1	t		72.0	2.5	/experiments/Knapen_AOT/AOT_stimuli/rescaled_final/1268_fw.mp4	0.0	331.2848153114319	
74	315.0220229625702	fix_post	2		12	72.0	2.5	/experiments/Knapen_AOT/AOT_stimuli/rescaled_final/1268_fw.mp4	0.0	332.20264434814453	0.10002613067626953
75	315.12204909324646	fix_pre	0		120	73.0	2.5	/experiments/Knapen_AOT/AOT_stimuli/rescaled_final/1729_fw.mp4	0.0	332.3026704788208	1.0085475444793701
75	315.7057695388794	pulse	0	t		73.0	2.5	/experiments/Knapen_AOT/AOT_stimuli/rescaled_final/1729_fw.mp4	0.0	332.88639092445374	
75	316.13059663772583	movie	1		284	73.0	2.5	/experiments/Knapen_AOT/AOT_stimuli/rescaled_final/1729_fw.mp4	0.0	333.31121802330017	2.4920055866241455
75	317.30636978149414	pulse	1	t		73.0	2.5	/experiments/Knapen_AOT/AOT_stimuli/rescaled_final/1729_fw.mp4	0.0	334.4869911670685	
75	318.62260222435	fix_post	2		12	73.0	2.5	/experiments/Knapen_AOT/AOT_stimuli/rescaled_final/1729_fw.mp4	0.0	335.8032236099243	0.09997868537902832
76	318.722580909729	fix_pre	0		120	74.0	2.5	/experiments/Knapen_AOT/AOT_stimuli/rescaled_final/0979_fw.mp4	0.0	335.90320229530334	1.0085091590881348
76	318.90626072883606	pulse	0	t		74.0	2.5	/experiments/Knapen_AOT/AOT_stimuli/rescaled_final/0979_fw.mp4	0.0	336.0868821144104	
76	319.73109006881714	movie	1		278	74.0	2.5	/experiments/Knapen_AOT/AOT_stimuli/rescaled_final/0979_fw.mp4	0.0	336.9117114543915	2.4920108318328857
76	320.50466680526733	pulse	1	t		74.0	2.5	/experiments/Knapen_AOT/AOT_stimuli/rescaled_final/0979_fw.mp4	0.0	337.6852881908417	
76	322.10472321510315	pulse	1	t		74.0	2.5	/experiments/Knapen_AOT/AOT_stimuli/rescaled_final/0979_fw.mp4	0.0	339.2853446006775	
76	322.22310090065	fix_post	2		12	74.0	2.5	/experiments/Knapen_AOT/AOT_stimuli/rescaled_final/0979_fw.mp4	0.0	339.40372228622437	0.10001516342163086
77	322.32311606407166	fix_pre	0		120	75.0	2.5	blank	1.0	339.503737449646	1.000154972076416
77	323.32327103614807	movie	1		300	75.0	2.5	blank	1.0	340.5038924217224	2.500399589538574
77	323.70689368247986	pulse	1	t		75.0	2.5	blank	1.0	340.8875150680542	
77	325.30756998062134	pulse	1	t		75.0	2.5	blank	1.0	342.4881913661957	
77	325.82367062568665	fix_post	2		12	75.0	2.5	blank	1.0	343.004292011261	0.09996581077575684
78	325.9236364364624	fix_pre	0		119	76.0	2.5	/experiments/Knapen_AOT/AOT_stimuli/rescaled_final/0857_fw.mp4	0.0	343.10425782203674	1.0003371238708496
78	326.90736722946167	pulse	0	t		76.0	2.5	/experiments/Knapen_AOT/AOT_stimuli/rescaled_final/0857_fw.mp4	0.0	344.087988615036	
78	326.92397356033325	movie	1		276	76.0	2.5	/experiments/Knapen_AOT/AOT_stimuli/rescaled_final/0857_fw.mp4	0.0	344.1045949459076	2.500222682952881
78	328.5068154335022	pulse	1	t		76.0	2.5	/experiments/Knapen_AOT/AOT_stimuli/rescaled_final/0857_fw.mp4	0.0	345.68743681907654	
78	329.42419624328613	fix_post	2		12	76.0	2.5	/experiments/Knapen_AOT/AOT_stimuli/rescaled_final/0857_fw.mp4	0.0	346.6048176288605	0.1000680923461914
79	329.5242643356323	fix_pre	0		120	77.0	2.5	/experiments/Knapen_AOT/AOT_stimuli/rescaled_final/1159_fw.mp4	0.0	346.70488572120667	1.0085091590881348
79	330.1078722476959	pulse	0	t		77.0	2.5	/experiments/Knapen_AOT/AOT_stimuli/rescaled_final/1159_fw.mp4	0.0	347.28849363327026	
79	330.53277349472046	movie	1		283	77.0	2.5	/experiments/Knapen_AOT/AOT_stimuli/rescaled_final/1159_fw.mp4	0.0	347.7133948802948	2.492041826248169
79	331.70672583580017	pulse	1	t		77.0	2.5	/experiments/Knapen_AOT/AOT_stimuli/rescaled_final/1159_fw.mp4	0.0	348.8873472213745	
79	333.0248153209686	fix_post	2		12	77.0	2.5	/experiments/Knapen_AOT/AOT_stimuli/rescaled_final/1159_fw.mp4	0.0	350.20543670654297	0.09995460510253906
80	333.12476992607117	fix_pre	0		120	78.0	2.5	/experiments/Knapen_AOT/AOT_stimuli/rescaled_final/0604_fw.mp4	0.0	350.3053913116455	1.008458137512207
80	333.3083908557892	pulse	0	t		78.0	2.5	/experiments/Knapen_AOT/AOT_stimuli/rescaled_final/0604_fw.mp4	0.0	350.4890122413635	
80	334.1332280635834	movie	1		279	78.0	2.5	/experiments/Knapen_AOT/AOT_stimuli/rescaled_final/0604_fw.mp4	0.0	351.3138494491577	2.4920146465301514
80	334.9082169532776	pulse	1	t		78.0	2.5	/experiments/Knapen_AOT/AOT_stimuli/rescaled_final/0604_fw.mp4	0.0	352.08883833885193	
80	336.50682830810547	pulse	1	t		78.0	2.5	/experiments/Knapen_AOT/AOT_stimuli/rescaled_final/0604_fw.mp4	0.0	353.6874496936798	
80	336.6252427101135	fix_post	2		12	78.0	2.5	/experiments/Knapen_AOT/AOT_stimuli/rescaled_final/0604_fw.mp4	0.0	353.80586409568787	0.10006260871887207
81	336.7253053188324	fix_pre	0		120	79.0	2.5	/experiments/Knapen_AOT/AOT_stimuli/rescaled_final/1718_rv.mp4	0.0	353.90592670440674	1.0085217952728271
81	337.7338271141052	movie	1		275	79.0	2.5	/experiments/Knapen_AOT/AOT_stimuli/rescaled_final/1718_rv.mp4	0.0	354.91444849967957	2.4919846057891846
81	338.10772705078125	pulse	1	t		79.0	2.5	/experiments/Knapen_AOT/AOT_stimuli/rescaled_final/1718_rv.mp4	0.0	355.2883484363556	
81	339.7072534561157	pulse	1	t		79.0	2.5	/experiments/Knapen_AOT/AOT_stimuli/rescaled_final/1718_rv.mp4	0.0	356.88787484169006	
81	340.2258117198944	fix_post	2		12	79.0	2.5	/experiments/Knapen_AOT/AOT_stimuli/rescaled_final/1718_rv.mp4	0.0	357.40643310546875	0.10003924369812012
82	340.32585096359253	fix_pre	0		119	80.0	2.5	/experiments/Knapen_AOT/AOT_stimuli/rescaled_final/0576_fw.mp4	0.0	357.50647234916687	1.0001027584075928
82	341.30950450897217	pulse	0	t		80.0	2.5	/experiments/Knapen_AOT/AOT_stimuli/rescaled_final/0576_fw.mp4	0.0	358.4901258945465	
82	341.3259537220001	movie	1		284	80.0	2.5	/experiments/Knapen_AOT/AOT_stimuli/rescaled_final/0576_fw.mp4	0.0	358.50657510757446	2.500396490097046
82	342.90843510627747	pulse	1	t		80.0	2.5	/experiments/Knapen_AOT/AOT_stimuli/rescaled_final/0576_fw.mp4	0.0	360.0890564918518	
82	343.82635021209717	fix_post	2		12	80.0	2.5	/experiments/Knapen_AOT/AOT_stimuli/rescaled_final/0576_fw.mp4	0.0	361.0069715976715	0.10003256797790527
83	343.9263827800751	fix_pre	0		120	81.0	2.5	/experiments/Knapen_AOT/AOT_stimuli/rescaled_final/0278_rv.mp4	0.0	361.1070041656494	1.008549690246582
83	344.5100712776184	pulse	0	t		81.0	2.5	/experiments/Knapen_AOT/AOT_stimuli/rescaled_final/0278_rv.mp4	0.0	361.69069266319275	
83	344.93493247032166	movie	1		286	81.0	2.5	/experiments/Knapen_AOT/AOT_stimuli/rescaled_final/0278_rv.mp4	0.0	362.115553855896	2.491939067840576
83	346.1089594364166	pulse	1	t		81.0	2.5	/experiments/Knapen_AOT/AOT_stimuli/rescaled_final/0278_rv.mp4	0.0	363.28958082199097	
83	347.42687153816223	fix_post	2		12	81.0	2.5	/experiments/Knapen_AOT/AOT_stimuli/rescaled_final/0278_rv.mp4	0.0	364.6074929237366	0.10004425048828125
84	347.5269157886505	fix_pre	0		120	82.0	2.5	/experiments/Knapen_AOT/AOT_stimuli/rescaled_final/0730_fw.mp4	0.0	364.70753717422485	1.008518934249878
84	347.7040784358978	pulse	0	t		82.0	2.5	/experiments/Knapen_AOT/AOT_stimuli/rescaled_final/0730_fw.mp4	0.0	364.88469982147217	
84	348.5354347229004	movie	1		277	82.0	2.5	/experiments/Knapen_AOT/AOT_stimuli/rescaled_final/0730_fw.mp4	0.0	365.71605610847473	2.4919893741607666
84	349.3095920085907	pulse	1	t		82.0	2.5	/experiments/Knapen_AOT/AOT_stimuli/rescaled_final/0730_fw.mp4	0.0	366.49021339416504	
84	350.90921998023987	pulse	1	t		82.0	2.5	/experiments/Knapen_AOT/AOT_stimuli/rescaled_final/0730_fw.mp4	0.0	368.0898413658142	
84	351.02742409706116	fix_post	2		12	82.0	2.5	/experiments/Knapen_AOT/AOT_stimuli/rescaled_final/0730_fw.mp4	0.0	368.2080454826355	0.10003447532653809
85	351.1274585723877	fix_pre	0		120	83.0	2.5	blank	1.0	368.30807995796204	1.0001344680786133
85	352.1275930404663	movie	1		300	83.0	2.5	blank	1.0	369.30821442604065	2.500380516052246
85	352.503130197525	pulse	1	t		83.0	2.5	blank	1.0	369.68375158309937	
85	354.1031370162964	pulse	1	t		83.0	2.5	blank	1.0	371.2837584018707	
85	354.62797355651855	fix_post	2		12	83.0	2.5	blank	1.0	371.8085949420929	0.10839462280273438
87	354.7363681793213	stim	0		1714					371.91698956489563	14.285508394241333
87	355.7034785747528	pulse	0	t						372.88409996032715	
87	357.30388259887695	pulse	0	t						374.4845039844513	
87	358.9042251110077	pulse	0	t						376.08484649658203	
87	360.50494146347046	pulse	0	t						377.6855628490448	
87	362.1048638820648	pulse	0	t						379.28548526763916	
87	363.7046089172363	pulse	0	t						380.88523030281067	
87	365.30498361587524	pulse	0	t						382.4856050014496	
87	366.9051949977875	pulse	0	t						384.0858163833618	
87	368.5053596496582	pulse	0	t						385.68598103523254	
