trial_nr	onset	event_type	phase	response	nr_frames	movie_index	movie_duration	movie_file	blank	onset_abs	duration
0	0.1498880386352539	stim	0		37					19.66034197807312	0.3083019256591797
0	0.45022010803222656	response	0	space						19.960674047470093	
1	0.4581899642944336	stim	0		4684					19.9686439037323	39.03320002555847
1	39.48607802391052	pulse	0	t						58.99653196334839	
1	39.491389989852905	stim	1		1717					59.00184392929077	14.308138132095337
1	41.08316612243652	pulse	1	t						60.59362006187439	
1	42.683160066604614	pulse	1	t						62.19361400604248	
1	44.28310799598694	pulse	1	t						63.793561935424805	
1	45.88317608833313	pulse	1	t						65.393630027771	
1	47.483201026916504	pulse	1	t						66.99365496635437	
1	49.083155155181885	pulse	1	t						68.59360909461975	
1	50.683096170425415	pulse	1	t						70.19355010986328	
1	52.283077001571655	pulse	1	t						71.79353094100952	
2	53.79952812194824	fix_pre	0		11	0.0	2.5	/experiments/AOT/AOT_stimuli/rescaled_final/1707_rv.mp4	0.0	73.30998206138611	0.09179997444152832
2	53.88308811187744	pulse	0	t		0.0	2.5	/experiments/AOT/AOT_stimuli/rescaled_final/1707_rv.mp4	0.0	73.39354205131531	
2	53.89132809638977	movie	1		242	0.0	2.5	/experiments/AOT/AOT_stimuli/rescaled_final/1707_rv.mp4	0.0	73.40178203582764	2.507796049118042
2	55.482810974121094	pulse	1	t		0.0	2.5	/experiments/AOT/AOT_stimuli/rescaled_final/1707_rv.mp4	0.0	74.99326491355896	
2	56.39912414550781	fix_post	2		12	0.0	2.5	/experiments/AOT/AOT_stimuli/rescaled_final/1707_rv.mp4	0.0	75.90957808494568	0.1005868911743164
3	56.49971103668213	fix_pre	0		120	1.0	2.5	/experiments/AOT/AOT_stimuli/rescaled_final/2128_rv.mp4	0.0	76.01016497612	0.9998800754547119
3	57.08333206176758	pulse	0	t		1.0	2.5	/experiments/AOT/AOT_stimuli/rescaled_final/2128_rv.mp4	0.0	76.59378600120544	
3	57.49959111213684	movie	1		244	1.0	2.5	/experiments/AOT/AOT_stimuli/rescaled_final/2128_rv.mp4	0.0	77.0100450515747	2.4995880126953125
3	58.68311309814453	pulse	1	t		1.0	2.5	/experiments/AOT/AOT_stimuli/rescaled_final/2128_rv.mp4	0.0	78.1935670375824	
3	59.99917912483215	fix_post	2		12	1.0	2.5	/experiments/AOT/AOT_stimuli/rescaled_final/2128_rv.mp4	0.0	79.50963306427002	0.10006403923034668
4	60.0992431640625	fix_pre	0		120	2.0	2.5	/experiments/AOT/AOT_stimuli/rescaled_final/1726_fw.mp4	0.0	79.60969710350037	1.0003399848937988
4	60.28310704231262	pulse	0	t		2.0	2.5	/experiments/AOT/AOT_stimuli/rescaled_final/1726_fw.mp4	0.0	79.79356098175049	
4	61.0995831489563	movie	1		243	2.0	2.5	/experiments/AOT/AOT_stimuli/rescaled_final/1726_fw.mp4	0.0	80.61003708839417	2.499884843826294
4	61.88299608230591	pulse	1	t		2.0	2.5	/experiments/AOT/AOT_stimuli/rescaled_final/1726_fw.mp4	0.0	81.39345002174377	
4	63.48129606246948	pulse	1	t		2.0	2.5	/experiments/AOT/AOT_stimuli/rescaled_final/1726_fw.mp4	0.0	82.99175000190735	
4	63.59946799278259	fix_post	2		12	2.0	2.5	/experiments/AOT/AOT_stimuli/rescaled_final/1726_fw.mp4	0.0	83.10992193222046	0.10010099411010742
5	63.6995689868927	fix_pre	0		120	3.0	2.5	/experiments/AOT/AOT_stimuli/rescaled_final/1390_rv.mp4	0.0	83.21002292633057	0.9995419979095459
5	64.69911098480225	movie	1		244	3.0	2.5	/experiments/AOT/AOT_stimuli/rescaled_final/1390_rv.mp4	0.0	84.20956492424011	2.500465154647827
5	65.08325910568237	pulse	1	t		3.0	2.5	/experiments/AOT/AOT_stimuli/rescaled_final/1390_rv.mp4	0.0	84.59371304512024	
5	66.68302607536316	pulse	1	t		3.0	2.5	/experiments/AOT/AOT_stimuli/rescaled_final/1390_rv.mp4	0.0	86.19348001480103	
5	67.19957613945007	fix_post	2		12	3.0	2.5	/experiments/AOT/AOT_stimuli/rescaled_final/1390_rv.mp4	0.0	86.71003007888794	0.09999394416809082
6	67.29957008361816	fix_pre	0		119	4.0	2.5	/experiments/AOT/AOT_stimuli/rescaled_final/0924_fw.mp4	0.0	86.81002402305603	0.9916069507598877
6	68.28297519683838	pulse	0	t		4.0	2.5	/experiments/AOT/AOT_stimuli/rescaled_final/0924_fw.mp4	0.0	87.79342913627625	
6	68.29117703437805	movie	1		246	4.0	2.5	/experiments/AOT/AOT_stimuli/rescaled_final/0924_fw.mp4	0.0	87.80163097381592	2.5084469318389893
6	69.88226413726807	pulse	1	t		4.0	2.5	/experiments/AOT/AOT_stimuli/rescaled_final/0924_fw.mp4	0.0	89.39271807670593	
6	70.79962396621704	fix_post	2		12	4.0	2.5	/experiments/AOT/AOT_stimuli/rescaled_final/0924_fw.mp4	0.0	90.31007790565491	0.10004019737243652
7	70.89966416358948	fix_pre	0		120	5.0	2.5	/experiments/AOT/AOT_stimuli/rescaled_final/0668_rv.mp4	0.0	90.41011810302734	0.9997029304504395
7	71.48284602165222	pulse	0	t		5.0	2.5	/experiments/AOT/AOT_stimuli/rescaled_final/0668_rv.mp4	0.0	90.99329996109009	
7	71.89936709403992	movie	1		243	5.0	2.5	/experiments/AOT/AOT_stimuli/rescaled_final/0668_rv.mp4	0.0	91.40982103347778	2.5002338886260986
7	73.08307099342346	pulse	1	t		5.0	2.5	/experiments/AOT/AOT_stimuli/rescaled_final/0668_rv.mp4	0.0	92.59352493286133	
7	74.39960098266602	fix_post	2		12	5.0	2.5	/experiments/AOT/AOT_stimuli/rescaled_final/0668_rv.mp4	0.0	93.91005492210388	0.09984397888183594
8	74.49944496154785	fix_pre	0		120	6.0	2.5	blank	1.0	94.00989890098572	1.0000312328338623
8	74.68297815322876	pulse	0	t		6.0	2.5	blank	1.0	94.19343209266663	
8	75.49947619438171	movie	1		300	6.0	2.5	blank	1.0	95.00993013381958	2.5000147819519043
8	76.2830879688263	pulse	1	t		6.0	2.5	blank	1.0	95.79354190826416	
8	77.88287496566772	pulse	1	t		6.0	2.5	blank	1.0	97.39332890510559	
8	77.99949097633362	fix_post	2		12	6.0	2.5	blank	1.0	97.50994491577148	0.10003209114074707
9	78.09952306747437	fix_pre	0		120	7.0	2.5	/experiments/AOT/AOT_stimuli/rescaled_final/1174_rv.mp4	0.0	97.60997700691223	0.9998910427093506
9	79.09941411018372	movie	1		243	7.0	2.5	/experiments/AOT/AOT_stimuli/rescaled_final/1174_rv.mp4	0.0	98.60986804962158	2.4999449253082275
9	79.4830710887909	pulse	1	t		7.0	2.5	/experiments/AOT/AOT_stimuli/rescaled_final/1174_rv.mp4	0.0	98.99352502822876	
9	81.08298802375793	pulse	1	t		7.0	2.5	/experiments/AOT/AOT_stimuli/rescaled_final/1174_rv.mp4	0.0	100.5934419631958	
9	81.59935903549194	fix_post	2		12	7.0	2.5	/experiments/AOT/AOT_stimuli/rescaled_final/1174_rv.mp4	0.0	101.10981297492981	0.10009193420410156
10	81.69945096969604	fix_pre	0		119	8.0	2.5	/experiments/AOT/AOT_stimuli/rescaled_final/2176_rv.mp4	0.0	101.20990490913391	0.991631031036377
10	82.68290710449219	pulse	0	t		8.0	2.5	/experiments/AOT/AOT_stimuli/rescaled_final/2176_rv.mp4	0.0	102.19336104393005	
10	82.69108200073242	movie	1		247	8.0	2.5	/experiments/AOT/AOT_stimuli/rescaled_final/2176_rv.mp4	0.0	102.20153594017029	2.508371114730835
10	84.28246307373047	pulse	1	t		8.0	2.5	/experiments/AOT/AOT_stimuli/rescaled_final/2176_rv.mp4	0.0	103.79291701316833	
10	85.19945311546326	fix_post	2		12	8.0	2.5	/experiments/AOT/AOT_stimuli/rescaled_final/2176_rv.mp4	0.0	104.70990705490112	0.09993505477905273
11	85.29938817024231	fix_pre	0		120	9.0	2.5	/experiments/AOT/AOT_stimuli/rescaled_final/0873_rv.mp4	0.0	104.80984210968018	1.0001039505004883
11	85.88294196128845	pulse	0	t		9.0	2.5	/experiments/AOT/AOT_stimuli/rescaled_final/0873_rv.mp4	0.0	105.39339590072632	
11	86.2994921207428	movie	1		245	9.0	2.5	/experiments/AOT/AOT_stimuli/rescaled_final/0873_rv.mp4	0.0	105.80994606018066	2.4999330043792725
11	87.48295617103577	pulse	1	t		9.0	2.5	/experiments/AOT/AOT_stimuli/rescaled_final/0873_rv.mp4	0.0	106.99341011047363	
11	88.79942512512207	fix_post	2		12	9.0	2.5	/experiments/AOT/AOT_stimuli/rescaled_final/0873_rv.mp4	0.0	108.30987906455994	0.0999748706817627
12	88.89939999580383	fix_pre	0		120	10.0	2.5	/experiments/AOT/AOT_stimuli/rescaled_final/0057_rv.mp4	0.0	108.4098539352417	1.0000331401824951
12	89.0829119682312	pulse	0	t		10.0	2.5	/experiments/AOT/AOT_stimuli/rescaled_final/0057_rv.mp4	0.0	108.59336590766907	
12	89.89943313598633	movie	1		246	10.0	2.5	/experiments/AOT/AOT_stimuli/rescaled_final/0057_rv.mp4	0.0	109.4098870754242	2.4995720386505127
12	90.6828670501709	pulse	1	t		10.0	2.5	/experiments/AOT/AOT_stimuli/rescaled_final/0057_rv.mp4	0.0	110.19332098960876	
12	92.28151106834412	pulse	1	t		10.0	2.5	/experiments/AOT/AOT_stimuli/rescaled_final/0057_rv.mp4	0.0	111.79196500778198	
12	92.39900517463684	fix_post	2		12	10.0	2.5	/experiments/AOT/AOT_stimuli/rescaled_final/0057_rv.mp4	0.0	111.9094591140747	0.1003270149230957
13	92.49933218955994	fix_pre	0		120	11.0	2.5	/experiments/AOT/AOT_stimuli/rescaled_final/1781_rv.mp4	0.0	112.0097861289978	1.0000438690185547
13	93.49937605857849	movie	1		244	11.0	2.5	/experiments/AOT/AOT_stimuli/rescaled_final/1781_rv.mp4	0.0	113.00982999801636	2.500088930130005
13	93.88235306739807	pulse	1	t		11.0	2.5	/experiments/AOT/AOT_stimuli/rescaled_final/1781_rv.mp4	0.0	113.39280700683594	
13	95.48299312591553	pulse	1	t		11.0	2.5	/experiments/AOT/AOT_stimuli/rescaled_final/1781_rv.mp4	0.0	114.9934470653534	
13	95.9994649887085	fix_post	2		12	11.0	2.5	/experiments/AOT/AOT_stimuli/rescaled_final/1781_rv.mp4	0.0	115.50991892814636	0.09993410110473633
14	96.09939908981323	fix_pre	0		119	12.0	2.5	/experiments/AOT/AOT_stimuli/rescaled_final/0345_fw.mp4	0.0	115.6098530292511	0.9916679859161377
14	97.08284997940063	pulse	0	t		12.0	2.5	/experiments/AOT/AOT_stimuli/rescaled_final/0345_fw.mp4	0.0	116.5933039188385	
14	97.09106707572937	movie	1		244	12.0	2.5	/experiments/AOT/AOT_stimuli/rescaled_final/0345_fw.mp4	0.0	116.60152101516724	2.508265972137451
14	98.68270111083984	pulse	1	t		12.0	2.5	/experiments/AOT/AOT_stimuli/rescaled_final/0345_fw.mp4	0.0	118.19315505027771	
14	99.59933304786682	fix_post	2		12	12.0	2.5	/experiments/AOT/AOT_stimuli/rescaled_final/0345_fw.mp4	0.0	119.10978698730469	0.10010600090026855
15	99.69943904876709	fix_pre	0		120	13.0	2.5	blank	1.0	119.20989298820496	0.9999020099639893
15	100.28280806541443	pulse	0	t		13.0	2.5	blank	1.0	119.7932620048523	
15	100.69934105873108	movie	1		300	13.0	2.5	blank	1.0	120.20979499816895	2.499666929244995
15	101.88284707069397	pulse	1	t		13.0	2.5	blank	1.0	121.39330101013184	
15	103.19900798797607	fix_post	2		12	13.0	2.5	blank	1.0	122.70946192741394	0.10034704208374023
16	103.29935503005981	fix_pre	0		120	14.0	2.5	/experiments/AOT/AOT_stimuli/rescaled_final/0622_fw.mp4	0.0	122.80980896949768	0.9999380111694336
16	103.48284101486206	pulse	0	t		14.0	2.5	/experiments/AOT/AOT_stimuli/rescaled_final/0622_fw.mp4	0.0	122.99329495429993	
16	104.29929304122925	movie	1		243	14.0	2.5	/experiments/AOT/AOT_stimuli/rescaled_final/0622_fw.mp4	0.0	123.80974698066711	2.5000081062316895
16	105.08282208442688	pulse	1	t		14.0	2.5	/experiments/AOT/AOT_stimuli/rescaled_final/0622_fw.mp4	0.0	124.59327602386475	
16	106.68141913414001	pulse	1	t		14.0	2.5	/experiments/AOT/AOT_stimuli/rescaled_final/0622_fw.mp4	0.0	126.19187307357788	
16	106.79930114746094	fix_post	2		12	14.0	2.5	/experiments/AOT/AOT_stimuli/rescaled_final/0622_fw.mp4	0.0	126.3097550868988	0.10003495216369629
17	106.89933609962463	fix_pre	0		120	15.0	2.5	/experiments/AOT/AOT_stimuli/rescaled_final/2091_fw.mp4	0.0	126.4097900390625	0.9999580383300781
17	107.89929413795471	movie	1		245	15.0	2.5	/experiments/AOT/AOT_stimuli/rescaled_final/2091_fw.mp4	0.0	127.40974807739258	2.500001907348633
17	108.28242897987366	pulse	1	t		15.0	2.5	/experiments/AOT/AOT_stimuli/rescaled_final/2091_fw.mp4	0.0	127.79288291931152	
17	109.88269209861755	pulse	1	t		15.0	2.5	/experiments/AOT/AOT_stimuli/rescaled_final/2091_fw.mp4	0.0	129.39314603805542	
17	110.39929604530334	fix_post	2		12	15.0	2.5	/experiments/AOT/AOT_stimuli/rescaled_final/2091_fw.mp4	0.0	129.9097499847412	0.09956502914428711
18	110.49886107444763	fix_pre	0		119	16.0	2.5	/experiments/AOT/AOT_stimuli/rescaled_final/0773_fw.mp4	0.0	130.0093150138855	0.9921069145202637
18	111.48279118537903	pulse	0	t		16.0	2.5	/experiments/AOT/AOT_stimuli/rescaled_final/0773_fw.mp4	0.0	130.9932451248169	
18	111.4909679889679	movie	1		246	16.0	2.5	/experiments/AOT/AOT_stimuli/rescaled_final/0773_fw.mp4	0.0	131.00142192840576	2.5079071521759033
18	113.0822901725769	pulse	1	t		16.0	2.5	/experiments/AOT/AOT_stimuli/rescaled_final/0773_fw.mp4	0.0	132.59274411201477	
18	113.9988751411438	fix_post	2		12	16.0	2.5	/experiments/AOT/AOT_stimuli/rescaled_final/0773_fw.mp4	0.0	133.50932908058167	0.10044002532958984
19	114.09931516647339	fix_pre	0		120	17.0	2.5	/experiments/AOT/AOT_stimuli/rescaled_final/0767_fw.mp4	0.0	133.60976910591125	0.9999818801879883
19	114.6827540397644	pulse	0	t		17.0	2.5	/experiments/AOT/AOT_stimuli/rescaled_final/0767_fw.mp4	0.0	134.19320797920227	
19	115.09929704666138	movie	1		245	17.0	2.5	/experiments/AOT/AOT_stimuli/rescaled_final/0767_fw.mp4	0.0	134.60975098609924	2.499553918838501
19	116.28284001350403	pulse	1	t		17.0	2.5	/experiments/AOT/AOT_stimuli/rescaled_final/0767_fw.mp4	0.0	135.7932939529419	
19	117.59885096549988	fix_post	2		12	17.0	2.5	/experiments/AOT/AOT_stimuli/rescaled_final/0767_fw.mp4	0.0	137.10930490493774	0.10045003890991211
20	117.69930100440979	fix_pre	0		120	18.0	2.5	/experiments/AOT/AOT_stimuli/rescaled_final/1945_fw.mp4	0.0	137.20975494384766	0.9999661445617676
20	117.88270115852356	pulse	0	t		18.0	2.5	/experiments/AOT/AOT_stimuli/rescaled_final/1945_fw.mp4	0.0	137.39315509796143	
20	118.69926714897156	movie	1		244	18.0	2.5	/experiments/AOT/AOT_stimuli/rescaled_final/1945_fw.mp4	0.0	138.20972108840942	2.499924898147583
20	119.48275113105774	pulse	1	t		18.0	2.5	/experiments/AOT/AOT_stimuli/rescaled_final/1945_fw.mp4	0.0	138.9932050704956	
20	121.08139204978943	pulse	1	t		18.0	2.5	/experiments/AOT/AOT_stimuli/rescaled_final/1945_fw.mp4	0.0	140.5918459892273	
20	121.19919204711914	fix_post	2		12	18.0	2.5	/experiments/AOT/AOT_stimuli/rescaled_final/1945_fw.mp4	0.0	140.709645986557	0.10005807876586914
21	121.29925012588501	fix_pre	0		120	19.0	2.5	/experiments/AOT/AOT_stimuli/rescaled_final/1211_fw.mp4	0.0	140.80970406532288	0.9999279975891113
21	122.29917812347412	movie	1		244	19.0	2.5	/experiments/AOT/AOT_stimuli/rescaled_final/1211_fw.mp4	0.0	141.809632062912	2.4997830390930176
21	122.6827781200409	pulse	1	t		19.0	2.5	/experiments/AOT/AOT_stimuli/rescaled_final/1211_fw.mp4	0.0	142.19323205947876	
21	124.28268814086914	pulse	1	t		19.0	2.5	/experiments/AOT/AOT_stimuli/rescaled_final/1211_fw.mp4	0.0	143.793142080307	
21	124.79896116256714	fix_post	2		12	19.0	2.5	/experiments/AOT/AOT_stimuli/rescaled_final/1211_fw.mp4	0.0	144.309415102005	0.09984803199768066
22	124.89880919456482	fix_pre	0		119	20.0	2.5	blank	1.0	144.40926313400269	0.9921338558197021
22	125.882817029953	pulse	0	t		20.0	2.5	blank	1.0	145.39327096939087	
22	125.89094305038452	movie	1		301	20.0	2.5	blank	1.0	145.4013969898224	2.5082409381866455
22	127.48248410224915	pulse	1	t		20.0	2.5	blank	1.0	146.992938041687	
22	128.39918398857117	fix_post	2		12	20.0	2.5	blank	1.0	147.90963792800903	0.09966206550598145
23	128.49884605407715	fix_pre	0		120	21.0	2.5	/experiments/AOT/AOT_stimuli/rescaled_final/1726_rv.mp4	0.0	148.00929999351501	0.9999709129333496
23	129.08270406723022	pulse	0	t		21.0	2.5	/experiments/AOT/AOT_stimuli/rescaled_final/1726_rv.mp4	0.0	148.5931580066681	
23	129.4988169670105	movie	1		244	21.0	2.5	/experiments/AOT/AOT_stimuli/rescaled_final/1726_rv.mp4	0.0	149.00927090644836	2.4999990463256836
23	130.68270301818848	pulse	1	t		21.0	2.5	/experiments/AOT/AOT_stimuli/rescaled_final/1726_rv.mp4	0.0	150.19315695762634	
23	131.99881601333618	fix_post	2		12	21.0	2.5	/experiments/AOT/AOT_stimuli/rescaled_final/1726_rv.mp4	0.0	151.50926995277405	0.10037612915039062
24	132.09919214248657	fix_pre	0		120	22.0	2.5	/experiments/AOT/AOT_stimuli/rescaled_final/0141_fw.mp4	0.0	151.60964608192444	0.9995899200439453
24	132.28261303901672	pulse	0	t		22.0	2.5	/experiments/AOT/AOT_stimuli/rescaled_final/0141_fw.mp4	0.0	151.7930669784546	
24	133.09878206253052	movie	1		246	22.0	2.5	/experiments/AOT/AOT_stimuli/rescaled_final/0141_fw.mp4	0.0	152.60923600196838	2.5003581047058105
24	133.8826460838318	pulse	1	t		22.0	2.5	/experiments/AOT/AOT_stimuli/rescaled_final/0141_fw.mp4	0.0	153.39310002326965	
24	135.48111605644226	pulse	1	t		22.0	2.5	/experiments/AOT/AOT_stimuli/rescaled_final/0141_fw.mp4	0.0	154.99156999588013	
24	135.59914016723633	fix_post	2		12	22.0	2.5	/experiments/AOT/AOT_stimuli/rescaled_final/0141_fw.mp4	0.0	155.1095941066742	0.10000181198120117
25	135.69914197921753	fix_pre	0		120	23.0	2.5	/experiments/AOT/AOT_stimuli/rescaled_final/0207_rv.mp4	0.0	155.2095959186554	1.0000271797180176
25	136.69916915893555	movie	1		244	23.0	2.5	/experiments/AOT/AOT_stimuli/rescaled_final/0207_rv.mp4	0.0	156.2096230983734	2.5000388622283936
25	137.0836751461029	pulse	1	t		23.0	2.5	/experiments/AOT/AOT_stimuli/rescaled_final/0207_rv.mp4	0.0	156.59412908554077	
25	138.6825921535492	pulse	1	t		23.0	2.5	/experiments/AOT/AOT_stimuli/rescaled_final/0207_rv.mp4	0.0	158.19304609298706	
25	139.19920802116394	fix_post	2		12	23.0	2.5	/experiments/AOT/AOT_stimuli/rescaled_final/0207_rv.mp4	0.0	158.7096619606018	0.09958004951477051
26	139.2987880706787	fix_pre	0		119	24.0	2.5	/experiments/AOT/AOT_stimuli/rescaled_final/1227_rv.mp4	0.0	158.80924201011658	0.9920310974121094
26	140.28260207176208	pulse	0	t		24.0	2.5	/experiments/AOT/AOT_stimuli/rescaled_final/1227_rv.mp4	0.0	159.79305601119995	
26	140.29081916809082	movie	1		246	24.0	2.5	/experiments/AOT/AOT_stimuli/rescaled_final/1227_rv.mp4	0.0	159.8012731075287	2.5079169273376465
26	141.8819751739502	pulse	1	t		24.0	2.5	/experiments/AOT/AOT_stimuli/rescaled_final/1227_rv.mp4	0.0	161.39242911338806	
26	142.79873609542847	fix_post	2		12	24.0	2.5	/experiments/AOT/AOT_stimuli/rescaled_final/1227_rv.mp4	0.0	162.30919003486633	0.10043001174926758
27	142.89916610717773	fix_pre	0		120	25.0	2.5	/experiments/AOT/AOT_stimuli/rescaled_final/0622_fw.mp4	0.0	162.4096200466156	0.9996519088745117
27	143.48257613182068	pulse	0	t		25.0	2.5	/experiments/AOT/AOT_stimuli/rescaled_final/0622_fw.mp4	0.0	162.99303007125854	
27	143.89881801605225	movie	1		243	25.0	2.5	/experiments/AOT/AOT_stimuli/rescaled_final/0622_fw.mp4	0.0	163.4092719554901	2.5003859996795654
27	145.08269715309143	pulse	1	t		25.0	2.5	/experiments/AOT/AOT_stimuli/rescaled_final/0622_fw.mp4	0.0	164.5931510925293	
27	146.3992040157318	fix_post	2		12	25.0	2.5	/experiments/AOT/AOT_stimuli/rescaled_final/0622_fw.mp4	0.0	165.90965795516968	0.09992599487304688
28	146.49913001060486	fix_pre	0		120	26.0	2.5	/experiments/AOT/AOT_stimuli/rescaled_final/0836_rv.mp4	0.0	166.00958395004272	0.9999520778656006
28	146.68264508247375	pulse	0	t		26.0	2.5	/experiments/AOT/AOT_stimuli/rescaled_final/0836_rv.mp4	0.0	166.19309902191162	
28	147.49908208847046	movie	1		243	26.0	2.5	/experiments/AOT/AOT_stimuli/rescaled_final/0836_rv.mp4	0.0	167.00953602790833	2.4995980262756348
28	148.28266096115112	pulse	1	t		26.0	2.5	/experiments/AOT/AOT_stimuli/rescaled_final/0836_rv.mp4	0.0	167.793114900589	
28	149.8809461593628	pulse	1	t		26.0	2.5	/experiments/AOT/AOT_stimuli/rescaled_final/0836_rv.mp4	0.0	169.39140009880066	
28	149.9986801147461	fix_post	2		12	26.0	2.5	/experiments/AOT/AOT_stimuli/rescaled_final/0836_rv.mp4	0.0	169.50913405418396	0.10041689872741699
29	150.0990970134735	fix_pre	0		120	27.0	2.5	blank	1.0	169.60955095291138	1.0000991821289062
29	151.09919619560242	movie	1		300	27.0	2.5	blank	1.0	170.60965013504028	2.4995107650756836
29	151.48262214660645	pulse	1	t		27.0	2.5	blank	1.0	170.9930760860443	
29	153.0825901031494	pulse	1	t		27.0	2.5	blank	1.0	172.59304404258728	
29	153.5987069606781	fix_post	2		12	27.0	2.5	blank	1.0	173.10916090011597	0.1004190444946289
30	153.69912600517273	fix_pre	0		119	28.0	2.5	/experiments/AOT/AOT_stimuli/rescaled_final/0622_rv.mp4	0.0	173.2095799446106	0.9916081428527832
30	154.6827051639557	pulse	0	t		28.0	2.5	/experiments/AOT/AOT_stimuli/rescaled_final/0622_rv.mp4	0.0	174.19315910339355	
30	154.6907341480255	movie	1		245	28.0	2.5	/experiments/AOT/AOT_stimuli/rescaled_final/0622_rv.mp4	0.0	174.20118808746338	2.5083389282226562
30	156.28246903419495	pulse	1	t		28.0	2.5	/experiments/AOT/AOT_stimuli/rescaled_final/0622_rv.mp4	0.0	175.7929229736328	
30	157.19907307624817	fix_post	2		12	28.0	2.5	/experiments/AOT/AOT_stimuli/rescaled_final/0622_rv.mp4	0.0	176.70952701568604	0.10005402565002441
31	157.2991271018982	fix_pre	0		120	29.0	2.5	/experiments/AOT/AOT_stimuli/rescaled_final/1195_fw.mp4	0.0	176.80958104133606	0.9999730587005615
31	157.8825490474701	pulse	0	t		29.0	2.5	/experiments/AOT/AOT_stimuli/rescaled_final/1195_fw.mp4	0.0	177.39300298690796	
31	158.29910016059875	movie	1		246	29.0	2.5	/experiments/AOT/AOT_stimuli/rescaled_final/1195_fw.mp4	0.0	177.80955410003662	2.4995508193969727
31	159.48261308670044	pulse	1	t		29.0	2.5	/experiments/AOT/AOT_stimuli/rescaled_final/1195_fw.mp4	0.0	178.9930670261383	
31	160.79865097999573	fix_post	2		12	29.0	2.5	/experiments/AOT/AOT_stimuli/rescaled_final/1195_fw.mp4	0.0	180.3091049194336	0.10034799575805664
32	160.89899897575378	fix_pre	0		120	30.0	2.5	/experiments/AOT/AOT_stimuli/rescaled_final/0081_rv.mp4	0.0	180.40945291519165	1.0000860691070557
32	161.0824670791626	pulse	0	t		30.0	2.5	/experiments/AOT/AOT_stimuli/rescaled_final/0081_rv.mp4	0.0	180.59292101860046	
32	161.89908504486084	movie	1		244	30.0	2.5	/experiments/AOT/AOT_stimuli/rescaled_final/0081_rv.mp4	0.0	181.4095389842987	2.4999101161956787
32	162.68258118629456	pulse	1	t		30.0	2.5	/experiments/AOT/AOT_stimuli/rescaled_final/0081_rv.mp4	0.0	182.19303512573242	
32	164.280925989151	pulse	1	t		30.0	2.5	/experiments/AOT/AOT_stimuli/rescaled_final/0081_rv.mp4	0.0	183.79137992858887	
32	164.39899516105652	fix_post	2		12	30.0	2.5	/experiments/AOT/AOT_stimuli/rescaled_final/0081_rv.mp4	0.0	183.90944910049438	0.10006189346313477
33	164.49905705451965	fix_pre	0		120	31.0	2.5	/experiments/AOT/AOT_stimuli/rescaled_final/0550_rv.mp4	0.0	184.00951099395752	0.9999749660491943
33	165.49903202056885	movie	1		249	31.0	2.5	/experiments/AOT/AOT_stimuli/rescaled_final/0550_rv.mp4	0.0	185.0094859600067	2.4999840259552
33	165.8822250366211	pulse	1	t		31.0	2.5	/experiments/AOT/AOT_stimuli/rescaled_final/0550_rv.mp4	0.0	185.39267897605896	
33	167.48245906829834	pulse	1	t		31.0	2.5	/experiments/AOT/AOT_stimuli/rescaled_final/0550_rv.mp4	0.0	186.9929130077362	
33	167.99901604652405	fix_post	2		12	31.0	2.5	/experiments/AOT/AOT_stimuli/rescaled_final/0550_rv.mp4	0.0	187.5094699859619	0.1000680923461914
34	168.09908413887024	fix_pre	0		119	32.0	2.5	/experiments/AOT/AOT_stimuli/rescaled_final/1163_rv.mp4	0.0	187.6095380783081	0.9916520118713379
34	169.0824601650238	pulse	0	t		32.0	2.5	/experiments/AOT/AOT_stimuli/rescaled_final/1163_rv.mp4	0.0	188.59291410446167	
34	169.09073615074158	movie	1		245	32.0	2.5	/experiments/AOT/AOT_stimuli/rescaled_final/1163_rv.mp4	0.0	188.60119009017944	2.5078699588775635
34	170.68195915222168	pulse	1	t		32.0	2.5	/experiments/AOT/AOT_stimuli/rescaled_final/1163_rv.mp4	0.0	190.19241309165955	
34	171.59860610961914	fix_post	2		12	32.0	2.5	/experiments/AOT/AOT_stimuli/rescaled_final/1163_rv.mp4	0.0	191.109060049057	0.10004591941833496
35	171.69865202903748	fix_pre	0		120	33.0	2.5	/experiments/AOT/AOT_stimuli/rescaled_final/0413_fw.mp4	0.0	191.20910596847534	1.0003650188446045
35	172.28248500823975	pulse	0	t		33.0	2.5	/experiments/AOT/AOT_stimuli/rescaled_final/0413_fw.mp4	0.0	191.7929389476776	
35	172.69901704788208	movie	1		244	33.0	2.5	/experiments/AOT/AOT_stimuli/rescaled_final/0413_fw.mp4	0.0	192.20947098731995	2.5000741481781006
35	173.88259315490723	pulse	1	t		33.0	2.5	/experiments/AOT/AOT_stimuli/rescaled_final/0413_fw.mp4	0.0	193.3930470943451	
35	175.19909119606018	fix_post	2		12	33.0	2.5	/experiments/AOT/AOT_stimuli/rescaled_final/0413_fw.mp4	0.0	194.70954513549805	0.09993100166320801
36	175.2990221977234	fix_pre	0		120	34.0	2.5	blank	1.0	194.80947613716125	1.000004768371582
36	175.4825620651245	pulse	0	t		34.0	2.5	blank	1.0	194.99301600456238	
36	176.29902696609497	movie	1		300	34.0	2.5	blank	1.0	195.80948090553284	2.499932050704956
36	177.0823631286621	pulse	1	t		34.0	2.5	blank	1.0	196.59281706809998	
36	178.68249011039734	pulse	1	t		34.0	2.5	blank	1.0	198.1929440498352	
36	178.79895901679993	fix_post	2		12	34.0	2.5	blank	1.0	198.3094129562378	0.10002899169921875
37	178.89898800849915	fix_pre	0		120	35.0	2.5	/experiments/AOT/AOT_stimuli/rescaled_final/2128_fw.mp4	0.0	198.409441947937	1.0000030994415283
37	179.89899110794067	movie	1		245	35.0	2.5	/experiments/AOT/AOT_stimuli/rescaled_final/2128_fw.mp4	0.0	199.40944504737854	2.4997739791870117
37	180.28180718421936	pulse	1	t		35.0	2.5	/experiments/AOT/AOT_stimuli/rescaled_final/2128_fw.mp4	0.0	199.79226112365723	
37	181.88200902938843	pulse	1	t		35.0	2.5	/experiments/AOT/AOT_stimuli/rescaled_final/2128_fw.mp4	0.0	201.3924629688263	
37	182.39876508712769	fix_post	2		12	35.0	2.5	/experiments/AOT/AOT_stimuli/rescaled_final/2128_fw.mp4	0.0	201.90921902656555	0.09992194175720215
38	182.4986870288849	fix_pre	0		119	36.0	2.5	/experiments/AOT/AOT_stimuli/rescaled_final/0333_rv.mp4	0.0	202.00914096832275	0.9921891689300537
38	183.48227715492249	pulse	0	t		36.0	2.5	/experiments/AOT/AOT_stimuli/rescaled_final/0333_rv.mp4	0.0	202.99273109436035	
38	183.49087619781494	movie	1		245	36.0	2.5	/experiments/AOT/AOT_stimuli/rescaled_final/0333_rv.mp4	0.0	203.0013301372528	2.508168935775757
38	185.08225202560425	pulse	1	t		36.0	2.5	/experiments/AOT/AOT_stimuli/rescaled_final/0333_rv.mp4	0.0	204.59270596504211	
38	185.9990451335907	fix_post	2		12	36.0	2.5	/experiments/AOT/AOT_stimuli/rescaled_final/0333_rv.mp4	0.0	205.50949907302856	0.09947800636291504
39	186.0985231399536	fix_pre	0		120	37.0	2.5	/experiments/AOT/AOT_stimuli/rescaled_final/0658_fw.mp4	0.0	205.60897707939148	1.0004558563232422
39	186.68247509002686	pulse	0	t		37.0	2.5	/experiments/AOT/AOT_stimuli/rescaled_final/0658_fw.mp4	0.0	206.19292902946472	
39	187.09897899627686	movie	1		243	37.0	2.5	/experiments/AOT/AOT_stimuli/rescaled_final/0658_fw.mp4	0.0	206.60943293571472	2.4995551109313965
39	188.28248000144958	pulse	1	t		37.0	2.5	/experiments/AOT/AOT_stimuli/rescaled_final/0658_fw.mp4	0.0	207.79293394088745	
39	189.59853410720825	fix_post	2		12	37.0	2.5	/experiments/AOT/AOT_stimuli/rescaled_final/0658_fw.mp4	0.0	209.10898804664612	0.10037398338317871
40	189.69890809059143	fix_pre	0		120	38.0	2.5	/experiments/AOT/AOT_stimuli/rescaled_final/1935_rv.mp4	0.0	209.2093620300293	1.0000550746917725
40	189.8823001384735	pulse	0	t		38.0	2.5	/experiments/AOT/AOT_stimuli/rescaled_final/1935_rv.mp4	0.0	209.39275407791138	
40	190.6989631652832	movie	1		243	38.0	2.5	/experiments/AOT/AOT_stimuli/rescaled_final/1935_rv.mp4	0.0	210.20941710472107	2.4995598793029785
40	191.48237109184265	pulse	1	t		38.0	2.5	/experiments/AOT/AOT_stimuli/rescaled_final/1935_rv.mp4	0.0	210.99282503128052	
40	193.08106899261475	pulse	1	t		38.0	2.5	/experiments/AOT/AOT_stimuli/rescaled_final/1935_rv.mp4	0.0	212.5915229320526	
40	193.19852304458618	fix_post	2		12	38.0	2.5	/experiments/AOT/AOT_stimuli/rescaled_final/1935_rv.mp4	0.0	212.70897698402405	0.10036206245422363
41	193.2988851070404	fix_pre	0		120	39.0	2.5	/experiments/AOT/AOT_stimuli/rescaled_final/0309_fw.mp4	0.0	212.80933904647827	0.9996600151062012
41	194.2985451221466	movie	1		244	39.0	2.5	/experiments/AOT/AOT_stimuli/rescaled_final/0309_fw.mp4	0.0	213.80899906158447	2.5003559589385986
41	194.68200612068176	pulse	1	t		39.0	2.5	/experiments/AOT/AOT_stimuli/rescaled_final/0309_fw.mp4	0.0	214.19246006011963	
41	196.28234601020813	pulse	1	t		39.0	2.5	/experiments/AOT/AOT_stimuli/rescaled_final/0309_fw.mp4	0.0	215.792799949646	
41	196.7989010810852	fix_post	2		12	39.0	2.5	/experiments/AOT/AOT_stimuli/rescaled_final/0309_fw.mp4	0.0	216.30935502052307	0.10001397132873535
42	196.89891505241394	fix_pre	0		119	40.0	2.5	blank	1.0	216.4093689918518	0.9916939735412598
42	197.88239097595215	pulse	0	t		40.0	2.5	blank	1.0	217.39284491539001	
42	197.8906090259552	movie	1		301	40.0	2.5	blank	1.0	217.40106296539307	2.508286952972412
42	199.4823169708252	pulse	1	t		40.0	2.5	blank	1.0	218.99277091026306	
42	200.3988959789276	fix_post	2		12	40.0	2.5	blank	1.0	219.90934991836548	0.09992098808288574
43	200.4988169670105	fix_pre	0		120	41.0	2.5	/experiments/AOT/AOT_stimuli/rescaled_final/1685_rv.mp4	0.0	220.00927090644836	1.000068187713623
43	201.0823459625244	pulse	0	t		41.0	2.5	/experiments/AOT/AOT_stimuli/rescaled_final/1685_rv.mp4	0.0	220.59279990196228	
43	201.49888515472412	movie	1		245	41.0	2.5	/experiments/AOT/AOT_stimuli/rescaled_final/1685_rv.mp4	0.0	221.009339094162	2.4995479583740234
43	202.6823000907898	pulse	1	t		41.0	2.5	/experiments/AOT/AOT_stimuli/rescaled_final/1685_rv.mp4	0.0	222.19275403022766	
43	203.99843311309814	fix_post	2		12	41.0	2.5	/experiments/AOT/AOT_stimuli/rescaled_final/1685_rv.mp4	0.0	223.508887052536	0.10036492347717285
44	204.09879803657532	fix_pre	0		120	42.0	2.5	/experiments/AOT/AOT_stimuli/rescaled_final/1613_rv.mp4	0.0	223.60925197601318	1.0000431537628174
44	204.28233814239502	pulse	0	t		42.0	2.5	/experiments/AOT/AOT_stimuli/rescaled_final/1613_rv.mp4	0.0	223.79279208183289	
44	205.09884119033813	movie	1		246	42.0	2.5	/experiments/AOT/AOT_stimuli/rescaled_final/1613_rv.mp4	0.0	224.609295129776	2.5000298023223877
44	205.8823139667511	pulse	1	t		42.0	2.5	/experiments/AOT/AOT_stimuli/rescaled_final/1613_rv.mp4	0.0	225.39276790618896	
44	207.48230504989624	pulse	1	t		42.0	2.5	/experiments/AOT/AOT_stimuli/rescaled_final/1613_rv.mp4	0.0	226.9927589893341	
44	207.59887099266052	fix_post	2		12	42.0	2.5	/experiments/AOT/AOT_stimuli/rescaled_final/1613_rv.mp4	0.0	227.1093249320984	0.1000220775604248
45	207.69889307022095	fix_pre	0		120	43.0	2.5	/experiments/AOT/AOT_stimuli/rescaled_final/1628_rv.mp4	0.0	227.2093470096588	0.9999480247497559
45	208.6988410949707	movie	1		244	43.0	2.5	/experiments/AOT/AOT_stimuli/rescaled_final/1628_rv.mp4	0.0	228.20929503440857	2.4996490478515625
45	209.0819170475006	pulse	1	t		43.0	2.5	/experiments/AOT/AOT_stimuli/rescaled_final/1628_rv.mp4	0.0	228.59237098693848	
45	210.6823320388794	pulse	1	t		43.0	2.5	/experiments/AOT/AOT_stimuli/rescaled_final/1628_rv.mp4	0.0	230.19278597831726	
45	211.19849014282227	fix_post	2		12	43.0	2.5	/experiments/AOT/AOT_stimuli/rescaled_final/1628_rv.mp4	0.0	230.70894408226013	0.10029792785644531
46	211.2987880706787	fix_pre	0		119	44.0	2.5	/experiments/AOT/AOT_stimuli/rescaled_final/0678_fw.mp4	0.0	230.80924201011658	0.9916930198669434
46	212.2823371887207	pulse	0	t		44.0	2.5	/experiments/AOT/AOT_stimuli/rescaled_final/0678_fw.mp4	0.0	231.79279112815857	
46	212.29048109054565	movie	1		245	44.0	2.5	/experiments/AOT/AOT_stimuli/rescaled_final/0678_fw.mp4	0.0	231.80093502998352	2.5084049701690674
46	213.88250708580017	pulse	1	t		44.0	2.5	/experiments/AOT/AOT_stimuli/rescaled_final/0678_fw.mp4	0.0	233.39296102523804	
46	214.79888606071472	fix_post	2		12	44.0	2.5	/experiments/AOT/AOT_stimuli/rescaled_final/0678_fw.mp4	0.0	234.3093400001526	0.10006213188171387
47	214.89894819259644	fix_pre	0		120	45.0	2.5	/experiments/AOT/AOT_stimuli/rescaled_final/1964_rv.mp4	0.0	234.4094021320343	0.9998829364776611
47	215.48227405548096	pulse	0	t		45.0	2.5	/experiments/AOT/AOT_stimuli/rescaled_final/1964_rv.mp4	0.0	234.99272799491882	
47	215.8988311290741	movie	1		245	45.0	2.5	/experiments/AOT/AOT_stimuli/rescaled_final/1964_rv.mp4	0.0	235.40928506851196	2.4995369911193848
47	217.0824019908905	pulse	1	t		45.0	2.5	/experiments/AOT/AOT_stimuli/rescaled_final/1964_rv.mp4	0.0	236.59285593032837	
47	218.39836812019348	fix_post	2		12	45.0	2.5	/experiments/AOT/AOT_stimuli/rescaled_final/1964_rv.mp4	0.0	237.90882205963135	0.10038590431213379
48	218.49875402450562	fix_pre	0		120	46.0	2.5	/experiments/AOT/AOT_stimuli/rescaled_final/0085_fw.mp4	0.0	238.00920796394348	1.0000410079956055
48	218.6822600364685	pulse	0	t		46.0	2.5	/experiments/AOT/AOT_stimuli/rescaled_final/0085_fw.mp4	0.0	238.19271397590637	
48	219.49879503250122	movie	1		245	46.0	2.5	/experiments/AOT/AOT_stimuli/rescaled_final/0085_fw.mp4	0.0	239.0092489719391	2.499577045440674
48	220.28223514556885	pulse	1	t		46.0	2.5	/experiments/AOT/AOT_stimuli/rescaled_final/0085_fw.mp4	0.0	239.7926890850067	
48	221.88175201416016	pulse	1	t		46.0	2.5	/experiments/AOT/AOT_stimuli/rescaled_final/0085_fw.mp4	0.0	241.39220595359802	
48	221.9983720779419	fix_post	2		12	46.0	2.5	/experiments/AOT/AOT_stimuli/rescaled_final/0085_fw.mp4	0.0	241.50882601737976	0.10042810440063477
49	222.09880018234253	fix_pre	0		120	47.0	2.5	/experiments/AOT/AOT_stimuli/rescaled_final/0670_fw.mp4	0.0	241.6092541217804	0.9995238780975342
49	223.09832406044006	movie	1		245	47.0	2.5	/experiments/AOT/AOT_stimuli/rescaled_final/0670_fw.mp4	0.0	242.60877799987793	2.500020980834961
49	223.48188304901123	pulse	1	t		47.0	2.5	/experiments/AOT/AOT_stimuli/rescaled_final/0670_fw.mp4	0.0	242.9923369884491	
49	225.08225011825562	pulse	1	t		47.0	2.5	/experiments/AOT/AOT_stimuli/rescaled_final/0670_fw.mp4	0.0	244.59270405769348	
49	225.59834504127502	fix_post	2		12	47.0	2.5	/experiments/AOT/AOT_stimuli/rescaled_final/0670_fw.mp4	0.0	245.1087989807129	0.10037112236022949
50	225.69871616363525	fix_pre	0		119	48.0	2.5	blank	1.0	245.20917010307312	0.9917378425598145
50	226.68221402168274	pulse	0	t		48.0	2.5	blank	1.0	246.1926679611206	
50	226.69045400619507	movie	1		301	48.0	2.5	blank	1.0	246.20090794563293	2.5082571506500244
50	228.28211402893066	pulse	1	t		48.0	2.5	blank	1.0	247.79256796836853	
50	229.1987111568451	fix_post	2		12	48.0	2.5	blank	1.0	248.70916509628296	0.09971880912780762
51	229.2984299659729	fix_pre	0		120	49.0	2.5	/experiments/AOT/AOT_stimuli/rescaled_final/0126_fw.mp4	0.0	248.80888390541077	1.0002851486206055
51	229.8822021484375	pulse	0	t		49.0	2.5	/experiments/AOT/AOT_stimuli/rescaled_final/0126_fw.mp4	0.0	249.39265608787537	
51	230.2987151145935	movie	1		243	49.0	2.5	/experiments/AOT/AOT_stimuli/rescaled_final/0126_fw.mp4	0.0	249.80916905403137	2.5000128746032715
51	231.48224306106567	pulse	1	t		49.0	2.5	/experiments/AOT/AOT_stimuli/rescaled_final/0126_fw.mp4	0.0	250.99269700050354	
51	232.79872798919678	fix_post	2		12	49.0	2.5	/experiments/AOT/AOT_stimuli/rescaled_final/0126_fw.mp4	0.0	252.30918192863464	0.09996604919433594
52	232.8986940383911	fix_pre	0		120	50.0	2.5	/experiments/AOT/AOT_stimuli/rescaled_final/1943_fw.mp4	0.0	252.40914797782898	1.000093936920166
52	233.08220601081848	pulse	0	t		50.0	2.5	/experiments/AOT/AOT_stimuli/rescaled_final/1943_fw.mp4	0.0	252.59265995025635	
52	233.89878797531128	movie	1		245	50.0	2.5	/experiments/AOT/AOT_stimuli/rescaled_final/1943_fw.mp4	0.0	253.40924191474915	2.4995059967041016
52	234.68222618103027	pulse	1	t		50.0	2.5	/experiments/AOT/AOT_stimuli/rescaled_final/1943_fw.mp4	0.0	254.19268012046814	
52	236.28197407722473	pulse	1	t		50.0	2.5	/experiments/AOT/AOT_stimuli/rescaled_final/1943_fw.mp4	0.0	255.7924280166626	
52	236.39829397201538	fix_post	2		12	50.0	2.5	/experiments/AOT/AOT_stimuli/rescaled_final/1943_fw.mp4	0.0	255.90874791145325	0.10005402565002441
53	236.4983479976654	fix_pre	0		120	51.0	2.5	/experiments/AOT/AOT_stimuli/rescaled_final/1248_fw.mp4	0.0	256.00880193710327	1.0000600814819336
53	237.49840807914734	movie	1		244	51.0	2.5	/experiments/AOT/AOT_stimuli/rescaled_final/1248_fw.mp4	0.0	257.0088620185852	2.500257968902588
53	237.88291716575623	pulse	1	t		51.0	2.5	/experiments/AOT/AOT_stimuli/rescaled_final/1248_fw.mp4	0.0	257.3933711051941	
53	239.48208618164062	pulse	1	t		51.0	2.5	/experiments/AOT/AOT_stimuli/rescaled_final/1248_fw.mp4	0.0	258.9925401210785	
53	239.99866604804993	fix_post	2		12	51.0	2.5	/experiments/AOT/AOT_stimuli/rescaled_final/1248_fw.mp4	0.0	259.5091199874878	0.10000014305114746
54	240.09866619110107	fix_pre	0		119	52.0	2.5	/experiments/AOT/AOT_stimuli/rescaled_final/0665_rv.mp4	0.0	259.60912013053894	0.9916989803314209
54	241.08227109909058	pulse	0	t		52.0	2.5	/experiments/AOT/AOT_stimuli/rescaled_final/0665_rv.mp4	0.0	260.59272503852844	
54	241.0903651714325	movie	1		244	52.0	2.5	/experiments/AOT/AOT_stimuli/rescaled_final/0665_rv.mp4	0.0	260.60081911087036	2.507957935333252
54	242.6820650100708	pulse	1	t		52.0	2.5	/experiments/AOT/AOT_stimuli/rescaled_final/0665_rv.mp4	0.0	262.19251894950867	
54	243.59832310676575	fix_post	2		12	52.0	2.5	/experiments/AOT/AOT_stimuli/rescaled_final/0665_rv.mp4	0.0	263.1087770462036	0.10036396980285645
55	243.6986870765686	fix_pre	0		120	53.0	2.5	/experiments/AOT/AOT_stimuli/rescaled_final/1828_rv.mp4	0.0	263.20914101600647	0.9999279975891113
55	244.28216099739075	pulse	0	t		53.0	2.5	/experiments/AOT/AOT_stimuli/rescaled_final/1828_rv.mp4	0.0	263.7926149368286	
55	244.69861507415771	movie	1		246	53.0	2.5	/experiments/AOT/AOT_stimuli/rescaled_final/1828_rv.mp4	0.0	264.2090690135956	2.5000391006469727
55	245.88226699829102	pulse	1	t		53.0	2.5	/experiments/AOT/AOT_stimuli/rescaled_final/1828_rv.mp4	0.0	265.3927209377289	
55	247.1986541748047	fix_post	2		12	53.0	2.5	/experiments/AOT/AOT_stimuli/rescaled_final/1828_rv.mp4	0.0	266.70910811424255	0.0999460220336914
56	247.29860019683838	fix_pre	0		120	54.0	2.5	/experiments/AOT/AOT_stimuli/rescaled_final/0399_rv.mp4	0.0	266.80905413627625	1.0000197887420654
56	247.48213505744934	pulse	0	t		54.0	2.5	/experiments/AOT/AOT_stimuli/rescaled_final/0399_rv.mp4	0.0	266.9925889968872	
56	248.29861998558044	movie	1		247	54.0	2.5	/experiments/AOT/AOT_stimuli/rescaled_final/0399_rv.mp4	0.0	267.8090739250183	2.500007152557373
56	249.08205604553223	pulse	1	t		54.0	2.5	/experiments/AOT/AOT_stimuli/rescaled_final/0399_rv.mp4	0.0	268.5925099849701	
56	250.6821050643921	pulse	1	t		54.0	2.5	/experiments/AOT/AOT_stimuli/rescaled_final/0399_rv.mp4	0.0	270.19255900382996	
56	250.79862713813782	fix_post	2		12	54.0	2.5	/experiments/AOT/AOT_stimuli/rescaled_final/0399_rv.mp4	0.0	270.3090810775757	0.10004782676696777
57	250.89867496490479	fix_pre	0		120	55.0	2.5	blank	1.0	270.40912890434265	0.9999430179595947
57	251.89861798286438	movie	1		300	55.0	2.5	blank	1.0	271.40907192230225	2.499967098236084
57	252.28205919265747	pulse	1	t		55.0	2.5	blank	1.0	271.79251313209534	
57	253.88204216957092	pulse	1	t		55.0	2.5	blank	1.0	273.3924961090088	
57	254.39858508110046	fix_post	2		12	55.0	2.5	blank	1.0	273.90903902053833	0.10003304481506348
58	254.49861812591553	fix_pre	0		119	56.0	2.5	/experiments/AOT/AOT_stimuli/rescaled_final/0478_rv.mp4	0.0	274.0090720653534	0.9916539192199707
58	255.48216605186462	pulse	0	t		56.0	2.5	/experiments/AOT/AOT_stimuli/rescaled_final/0478_rv.mp4	0.0	274.9926199913025	
58	255.4902720451355	movie	1		245	56.0	2.5	/experiments/AOT/AOT_stimuli/rescaled_final/0478_rv.mp4	0.0	275.00072598457336	2.5083320140838623
58	257.0817279815674	pulse	1	t		56.0	2.5	/experiments/AOT/AOT_stimuli/rescaled_final/0478_rv.mp4	0.0	276.59218192100525	
58	257.99860405921936	fix_post	2		12	56.0	2.5	/experiments/AOT/AOT_stimuli/rescaled_final/0478_rv.mp4	0.0	277.5090579986572	0.0999600887298584
59	258.0985641479492	fix_pre	0		120	57.0	2.5	/experiments/AOT/AOT_stimuli/rescaled_final/1692_rv.mp4	0.0	277.6090180873871	0.9999828338623047
59	258.68203711509705	pulse	0	t		57.0	2.5	/experiments/AOT/AOT_stimuli/rescaled_final/1692_rv.mp4	0.0	278.1924910545349	
59	259.0985469818115	movie	1		243	57.0	2.5	/experiments/AOT/AOT_stimuli/rescaled_final/1692_rv.mp4	0.0	278.6090009212494	2.50007700920105
59	260.28212904930115	pulse	1	t		57.0	2.5	/experiments/AOT/AOT_stimuli/rescaled_final/1692_rv.mp4	0.0	279.792582988739	
59	261.5986239910126	fix_post	2		12	57.0	2.5	/experiments/AOT/AOT_stimuli/rescaled_final/1692_rv.mp4	0.0	281.10907793045044	0.09990119934082031
60	261.6985251903534	fix_pre	0		120	58.0	2.5	/experiments/AOT/AOT_stimuli/rescaled_final/0422_rv.mp4	0.0	281.20897912979126	1.000072956085205
60	261.88194012641907	pulse	0	t		58.0	2.5	/experiments/AOT/AOT_stimuli/rescaled_final/0422_rv.mp4	0.0	281.39239406585693	
60	262.6985981464386	movie	1		244	58.0	2.5	/experiments/AOT/AOT_stimuli/rescaled_final/0422_rv.mp4	0.0	282.20905208587646	2.499521017074585
60	263.4820511341095	pulse	1	t		58.0	2.5	/experiments/AOT/AOT_stimuli/rescaled_final/0422_rv.mp4	0.0	282.99250507354736	
60	265.0904321670532	pulse	1	t		58.0	2.5	/experiments/AOT/AOT_stimuli/rescaled_final/0422_rv.mp4	0.0	284.6008861064911	
60	265.1981191635132	fix_post	2		12	58.0	2.5	/experiments/AOT/AOT_stimuli/rescaled_final/0422_rv.mp4	0.0	284.70857310295105	0.10040593147277832
61	265.29852509498596	fix_pre	0		120	59.0	2.5	/experiments/AOT/AOT_stimuli/rescaled_final/1639_rv.mp4	0.0	284.8089790344238	1.0001180171966553
61	266.2986431121826	movie	1		245	59.0	2.5	/experiments/AOT/AOT_stimuli/rescaled_final/1639_rv.mp4	0.0	285.8090970516205	2.4999189376831055
61	266.6813781261444	pulse	1	t		59.0	2.5	/experiments/AOT/AOT_stimuli/rescaled_final/1639_rv.mp4	0.0	286.1918320655823	
61	268.28198313713074	pulse	1	t		59.0	2.5	/experiments/AOT/AOT_stimuli/rescaled_final/1639_rv.mp4	0.0	287.7924370765686	
61	268.7985620498657	fix_post	2		12	59.0	2.5	/experiments/AOT/AOT_stimuli/rescaled_final/1639_rv.mp4	0.0	288.3090159893036	0.0999600887298584
62	268.8985221385956	fix_pre	0		119	60.0	2.5	/experiments/AOT/AOT_stimuli/rescaled_final/1769_rv.mp4	0.0	288.40897607803345	0.9917759895324707
62	269.881973028183	pulse	0	t		60.0	2.5	/experiments/AOT/AOT_stimuli/rescaled_final/1769_rv.mp4	0.0	289.39242696762085	
62	269.89029812812805	movie	1		246	60.0	2.5	/experiments/AOT/AOT_stimuli/rescaled_final/1769_rv.mp4	0.0	289.4007520675659	2.508107900619507
62	271.483195066452	pulse	1	t		60.0	2.5	/experiments/AOT/AOT_stimuli/rescaled_final/1769_rv.mp4	0.0	290.9936490058899	
62	272.39840602874756	fix_post	2		12	60.0	2.5	/experiments/AOT/AOT_stimuli/rescaled_final/1769_rv.mp4	0.0	291.9088599681854	0.10006093978881836
63	272.4984669685364	fix_pre	0		120	61.0	2.5	/experiments/AOT/AOT_stimuli/rescaled_final/1408_rv.mp4	0.0	292.00892090797424	1.0000061988830566
63	273.08195519447327	pulse	0	t		61.0	2.5	/experiments/AOT/AOT_stimuli/rescaled_final/1408_rv.mp4	0.0	292.59240913391113	
63	273.49847316741943	movie	1		245	61.0	2.5	/experiments/AOT/AOT_stimuli/rescaled_final/1408_rv.mp4	0.0	293.0089271068573	2.500006914138794
63	274.68205213546753	pulse	1	t		61.0	2.5	/experiments/AOT/AOT_stimuli/rescaled_final/1408_rv.mp4	0.0	294.1925060749054	
63	275.9984800815582	fix_post	2		12	61.0	2.5	/experiments/AOT/AOT_stimuli/rescaled_final/1408_rv.mp4	0.0	295.5089340209961	0.10004496574401855
64	276.09852504730225	fix_pre	0		120	62.0	2.5	/experiments/AOT/AOT_stimuli/rescaled_final/1563_fw.mp4	0.0	295.6089789867401	0.9999270439147949
64	276.2819399833679	pulse	0	t		62.0	2.5	/experiments/AOT/AOT_stimuli/rescaled_final/1563_fw.mp4	0.0	295.7923939228058	
64	277.09845209121704	movie	1		244	62.0	2.5	/experiments/AOT/AOT_stimuli/rescaled_final/1563_fw.mp4	0.0	296.6089060306549	2.500027894973755
64	277.88196301460266	pulse	1	t		62.0	2.5	/experiments/AOT/AOT_stimuli/rescaled_final/1563_fw.mp4	0.0	297.3924169540405	
64	279.49023699760437	pulse	1	t		62.0	2.5	/experiments/AOT/AOT_stimuli/rescaled_final/1563_fw.mp4	0.0	299.00069093704224	
64	279.5984799861908	fix_post	2		12	62.0	2.5	/experiments/AOT/AOT_stimuli/rescaled_final/1563_fw.mp4	0.0	299.10893392562866	0.09998106956481934
65	279.6984610557556	fix_pre	0		120	63.0	2.5	blank	1.0	299.2089149951935	0.9995999336242676
65	280.6980609893799	movie	1		300	63.0	2.5	blank	1.0	300.20851492881775	2.500469207763672
65	281.0819489955902	pulse	1	t		63.0	2.5	blank	1.0	300.5924029350281	
65	282.68193006515503	pulse	1	t		63.0	2.5	blank	1.0	302.1923840045929	
65	283.19853019714355	fix_post	2		12	63.0	2.5	blank	1.0	302.7089841365814	0.09989094734191895
66	283.2984211444855	fix_pre	0		119	64.0	2.5	/experiments/AOT/AOT_stimuli/rescaled_final/1467_rv.mp4	0.0	302.80887508392334	0.9916830062866211
66	284.28190302848816	pulse	0	t		64.0	2.5	/experiments/AOT/AOT_stimuli/rescaled_final/1467_rv.mp4	0.0	303.792356967926	
66	284.2901041507721	movie	1		244	64.0	2.5	/experiments/AOT/AOT_stimuli/rescaled_final/1467_rv.mp4	0.0	303.80055809020996	2.5082290172576904
66	285.88165307044983	pulse	1	t		64.0	2.5	/experiments/AOT/AOT_stimuli/rescaled_final/1467_rv.mp4	0.0	305.3921070098877	
66	286.7983331680298	fix_post	2		12	64.0	2.5	/experiments/AOT/AOT_stimuli/rescaled_final/1467_rv.mp4	0.0	306.30878710746765	0.09974098205566406
67	286.89807415008545	fix_pre	0		120	65.0	2.5	/experiments/AOT/AOT_stimuli/rescaled_final/1195_rv.mp4	0.0	306.4085280895233	1.0004339218139648
67	287.48195600509644	pulse	0	t		65.0	2.5	/experiments/AOT/AOT_stimuli/rescaled_final/1195_rv.mp4	0.0	306.9924099445343	
67	287.8985080718994	movie	1		244	65.0	2.5	/experiments/AOT/AOT_stimuli/rescaled_final/1195_rv.mp4	0.0	307.4089620113373	2.4995169639587402
67	289.0819990634918	pulse	1	t		65.0	2.5	/experiments/AOT/AOT_stimuli/rescaled_final/1195_rv.mp4	0.0	308.5924530029297	
67	290.39802503585815	fix_post	2		12	65.0	2.5	/experiments/AOT/AOT_stimuli/rescaled_final/1195_rv.mp4	0.0	309.908478975296	0.10042309761047363
68	290.4984481334686	fix_pre	0		120	66.0	2.5	/experiments/AOT/AOT_stimuli/rescaled_final/1964_fw.mp4	0.0	310.0089020729065	1.0001749992370605
68	290.6819021701813	pulse	0	t		66.0	2.5	/experiments/AOT/AOT_stimuli/rescaled_final/1964_fw.mp4	0.0	310.19235610961914	
68	291.4986231327057	movie	1		247	66.0	2.5	/experiments/AOT/AOT_stimuli/rescaled_final/1964_fw.mp4	0.0	311.00907707214355	2.4996249675750732
68	292.28191208839417	pulse	1	t		66.0	2.5	/experiments/AOT/AOT_stimuli/rescaled_final/1964_fw.mp4	0.0	311.79236602783203	
68	293.8820641040802	pulse	1	t		66.0	2.5	/experiments/AOT/AOT_stimuli/rescaled_final/1964_fw.mp4	0.0	313.39251804351807	
68	293.99824810028076	fix_post	2		12	66.0	2.5	/experiments/AOT/AOT_stimuli/rescaled_final/1964_fw.mp4	0.0	313.5087020397186	0.09992790222167969
69	294.09817600250244	fix_pre	0		120	67.0	2.5	/experiments/AOT/AOT_stimuli/rescaled_final/1935_fw.mp4	0.0	313.6086299419403	1.0005090236663818
69	295.0986850261688	movie	1		246	67.0	2.5	/experiments/AOT/AOT_stimuli/rescaled_final/1935_fw.mp4	0.0	314.6091389656067	2.4997990131378174
69	295.4822909832001	pulse	1	t		67.0	2.5	/experiments/AOT/AOT_stimuli/rescaled_final/1935_fw.mp4	0.0	314.99274492263794	
69	297.081768989563	pulse	1	t		67.0	2.5	/experiments/AOT/AOT_stimuli/rescaled_final/1935_fw.mp4	0.0	316.59222292900085	
69	297.59848403930664	fix_post	2		12	67.0	2.5	/experiments/AOT/AOT_stimuli/rescaled_final/1935_fw.mp4	0.0	317.1089379787445	0.0999460220336914
70	297.69843006134033	fix_pre	0		119	68.0	2.5	blank	1.0	317.2088840007782	0.9916391372680664
70	298.68190002441406	pulse	0	t		68.0	2.5	blank	1.0	318.19235396385193	
70	298.6900691986084	movie	1		301	68.0	2.5	blank	1.0	318.20052313804626	2.5078999996185303
70	300.2818400859833	pulse	1	t		68.0	2.5	blank	1.0	319.79229402542114	
70	301.19796919822693	fix_post	2		12	68.0	2.5	blank	1.0	320.7084231376648	0.10041189193725586
71	301.2983810901642	fix_pre	0		120	69.0	2.5	/experiments/AOT/AOT_stimuli/rescaled_final/0181_fw.mp4	0.0	320.80883502960205	0.9995949268341064
71	301.8817970752716	pulse	0	t		69.0	2.5	/experiments/AOT/AOT_stimuli/rescaled_final/0181_fw.mp4	0.0	321.3922510147095	
71	302.2979760169983	movie	1		246	69.0	2.5	/experiments/AOT/AOT_stimuli/rescaled_final/0181_fw.mp4	0.0	321.80842995643616	2.5003509521484375
71	303.4818751811981	pulse	1	t		69.0	2.5	/experiments/AOT/AOT_stimuli/rescaled_final/0181_fw.mp4	0.0	322.992329120636	
71	304.79832696914673	fix_post	2		12	69.0	2.5	/experiments/AOT/AOT_stimuli/rescaled_final/0181_fw.mp4	0.0	324.3087809085846	0.10000801086425781
72	304.898334980011	fix_pre	0		120	70.0	2.5	/experiments/AOT/AOT_stimuli/rescaled_final/0095_rv.mp4	0.0	324.40878891944885	0.9999899864196777
72	305.0817801952362	pulse	0	t		70.0	2.5	/experiments/AOT/AOT_stimuli/rescaled_final/0095_rv.mp4	0.0	324.5922341346741	
72	305.89832496643066	movie	1		243	70.0	2.5	/experiments/AOT/AOT_stimuli/rescaled_final/0095_rv.mp4	0.0	325.40877890586853	2.500009059906006
72	306.6817500591278	pulse	1	t		70.0	2.5	/experiments/AOT/AOT_stimuli/rescaled_final/0095_rv.mp4	0.0	326.1922039985657	
72	308.29026103019714	pulse	1	t		70.0	2.5	/experiments/AOT/AOT_stimuli/rescaled_final/0095_rv.mp4	0.0	327.800714969635	
72	308.39833402633667	fix_post	2		12	70.0	2.5	/experiments/AOT/AOT_stimuli/rescaled_final/0095_rv.mp4	0.0	327.90878796577454	0.09998512268066406
73	308.49831914901733	fix_pre	0		120	71.0	2.5	/experiments/AOT/AOT_stimuli/rescaled_final/0615_rv.mp4	0.0	328.0087730884552	1.000067949295044
73	309.4983870983124	movie	1		245	71.0	2.5	/experiments/AOT/AOT_stimuli/rescaled_final/0615_rv.mp4	0.0	329.00884103775024	2.4999098777770996
73	309.88294506073	pulse	1	t		71.0	2.5	/experiments/AOT/AOT_stimuli/rescaled_final/0615_rv.mp4	0.0	329.39339900016785	
73	311.48181319236755	pulse	1	t		71.0	2.5	/experiments/AOT/AOT_stimuli/rescaled_final/0615_rv.mp4	0.0	330.9922671318054	
73	311.9982969760895	fix_post	2		12	71.0	2.5	/experiments/AOT/AOT_stimuli/rescaled_final/0615_rv.mp4	0.0	331.50875091552734	0.10007119178771973
74	312.0983681678772	fix_pre	0		119	72.0	2.5	/experiments/AOT/AOT_stimuli/rescaled_final/2028_rv.mp4	0.0	331.60882210731506	0.991657018661499
74	313.0817201137543	pulse	0	t		72.0	2.5	/experiments/AOT/AOT_stimuli/rescaled_final/2028_rv.mp4	0.0	332.59217405319214	
74	313.0900251865387	movie	1		246	72.0	2.5	/experiments/AOT/AOT_stimuli/rescaled_final/2028_rv.mp4	0.0	332.60047912597656	2.507880926132202
74	314.681519985199	pulse	1	t		72.0	2.5	/experiments/AOT/AOT_stimuli/rescaled_final/2028_rv.mp4	0.0	334.19197392463684	
74	315.5979061126709	fix_post	2		12	72.0	2.5	/experiments/AOT/AOT_stimuli/rescaled_final/2028_rv.mp4	0.0	335.10836005210876	0.10042905807495117
75	315.69833517074585	fix_pre	0		120	73.0	2.5	/experiments/AOT/AOT_stimuli/rescaled_final/0247_fw.mp4	0.0	335.2087891101837	1.000018835067749
75	316.2817289829254	pulse	0	t		73.0	2.5	/experiments/AOT/AOT_stimuli/rescaled_final/0247_fw.mp4	0.0	335.7921829223633	
75	316.6983540058136	movie	1		246	73.0	2.5	/experiments/AOT/AOT_stimuli/rescaled_final/0247_fw.mp4	0.0	336.20880794525146	2.499495029449463
75	317.8818051815033	pulse	1	t		73.0	2.5	/experiments/AOT/AOT_stimuli/rescaled_final/0247_fw.mp4	0.0	337.39225912094116	
75	319.19784903526306	fix_post	2		12	73.0	2.5	/experiments/AOT/AOT_stimuli/rescaled_final/0247_fw.mp4	0.0	338.7083029747009	0.1004800796508789
76	319.29832911491394	fix_pre	0		120	74.0	2.5	/experiments/AOT/AOT_stimuli/rescaled_final/1769_fw.mp4	0.0	338.8087830543518	0.9999558925628662
76	319.4817740917206	pulse	0	t		74.0	2.5	/experiments/AOT/AOT_stimuli/rescaled_final/1769_fw.mp4	0.0	338.99222803115845	
76	320.2982850074768	movie	1		244	74.0	2.5	/experiments/AOT/AOT_stimuli/rescaled_final/1769_fw.mp4	0.0	339.8087389469147	2.4995760917663574
76	321.081787109375	pulse	1	t		74.0	2.5	/experiments/AOT/AOT_stimuli/rescaled_final/1769_fw.mp4	0.0	340.59224104881287	
76	322.68124508857727	pulse	1	t		74.0	2.5	/experiments/AOT/AOT_stimuli/rescaled_final/1769_fw.mp4	0.0	342.19169902801514	
76	322.79786109924316	fix_post	2		12	74.0	2.5	/experiments/AOT/AOT_stimuli/rescaled_final/1769_fw.mp4	0.0	342.30831503868103	0.10043001174926758
77	322.89829111099243	fix_pre	0		120	75.0	2.5	blank	1.0	342.4087450504303	0.9999709129333496
77	323.8982620239258	movie	1		300	75.0	2.5	blank	1.0	343.40871596336365	2.500035047531128
77	324.28176498413086	pulse	1	t		75.0	2.5	blank	1.0	343.7922189235687	
77	325.88175797462463	pulse	1	t		75.0	2.5	blank	1.0	345.3922119140625	
77	326.3982970714569	fix_post	2		12	75.0	2.5	blank	1.0	345.9087510108948	0.0999140739440918
78	326.498211145401	fix_pre	0		119	76.0	2.5	/experiments/AOT/AOT_stimuli/rescaled_final/1958_fw.mp4	0.0	346.00866508483887	0.9917340278625488
78	327.48175597190857	pulse	0	t		76.0	2.5	/experiments/AOT/AOT_stimuli/rescaled_final/1958_fw.mp4	0.0	346.99220991134644	
78	327.48994517326355	movie	1		244	76.0	2.5	/experiments/AOT/AOT_stimuli/rescaled_final/1958_fw.mp4	0.0	347.0003991127014	2.507823944091797
78	329.0814371109009	pulse	1	t		76.0	2.5	/experiments/AOT/AOT_stimuli/rescaled_final/1958_fw.mp4	0.0	348.59189105033875	
78	329.99776911735535	fix_post	2		12	76.0	2.5	/experiments/AOT/AOT_stimuli/rescaled_final/1958_fw.mp4	0.0	349.5082230567932	0.1004939079284668
79	330.0982630252838	fix_pre	0		120	77.0	2.5	/experiments/AOT/AOT_stimuli/rescaled_final/0550_fw.mp4	0.0	349.6087169647217	1.0000269412994385
79	330.6816430091858	pulse	0	t		77.0	2.5	/experiments/AOT/AOT_stimuli/rescaled_final/0550_fw.mp4	0.0	350.19209694862366	
79	331.09828996658325	movie	1		246	77.0	2.5	/experiments/AOT/AOT_stimuli/rescaled_final/0550_fw.mp4	0.0	350.6087439060211	2.499918222427368
79	332.28176498413086	pulse	1	t		77.0	2.5	/experiments/AOT/AOT_stimuli/rescaled_final/0550_fw.mp4	0.0	351.7922189235687	
79	333.5982081890106	fix_post	2		12	77.0	2.5	/experiments/AOT/AOT_stimuli/rescaled_final/0550_fw.mp4	0.0	353.1086621284485	0.09995484352111816
80	333.69816303253174	fix_pre	0		120	78.0	2.5	/experiments/AOT/AOT_stimuli/rescaled_final/1157_rv.mp4	0.0	353.2086169719696	1.0000131130218506
80	333.88163709640503	pulse	0	t		78.0	2.5	/experiments/AOT/AOT_stimuli/rescaled_final/1157_rv.mp4	0.0	353.3920910358429	
80	334.6981761455536	movie	1		245	78.0	2.5	/experiments/AOT/AOT_stimuli/rescaled_final/1157_rv.mp4	0.0	354.20863008499146	2.499584913253784
80	335.4816720485687	pulse	1	t		78.0	2.5	/experiments/AOT/AOT_stimuli/rescaled_final/1157_rv.mp4	0.0	354.9921259880066	
80	337.0817801952362	pulse	1	t		78.0	2.5	/experiments/AOT/AOT_stimuli/rescaled_final/1157_rv.mp4	0.0	356.5922341346741	
80	337.1977610588074	fix_post	2		12	78.0	2.5	/experiments/AOT/AOT_stimuli/rescaled_final/1157_rv.mp4	0.0	356.70821499824524	0.10041308403015137
81	337.2981741428375	fix_pre	0		120	79.0	2.5	/experiments/AOT/AOT_stimuli/rescaled_final/1784_fw.mp4	0.0	356.8086280822754	0.9999580383300781
81	338.2981321811676	movie	1		243	79.0	2.5	/experiments/AOT/AOT_stimuli/rescaled_final/1784_fw.mp4	0.0	357.80858612060547	2.5000669956207275
81	338.6900200843811	pulse	1	t		79.0	2.5	/experiments/AOT/AOT_stimuli/rescaled_final/1784_fw.mp4	0.0	358.20047402381897	
81	340.28163599967957	pulse	1	t		79.0	2.5	/experiments/AOT/AOT_stimuli/rescaled_final/1784_fw.mp4	0.0	359.79208993911743	
81	340.79819917678833	fix_post	2		12	79.0	2.5	/experiments/AOT/AOT_stimuli/rescaled_final/1784_fw.mp4	0.0	360.3086531162262	0.09959793090820312
82	340.89779710769653	fix_pre	0		119	80.0	2.5	/experiments/AOT/AOT_stimuli/rescaled_final/2087_rv.mp4	0.0	360.4082510471344	0.9920110702514648
82	341.8816661834717	pulse	0	t		80.0	2.5	/experiments/AOT/AOT_stimuli/rescaled_final/2087_rv.mp4	0.0	361.39212012290955	
82	341.889808177948	movie	1		246	80.0	2.5	/experiments/AOT/AOT_stimuli/rescaled_final/2087_rv.mp4	0.0	361.40026211738586	2.5083799362182617
82	343.4825551509857	pulse	1	t		80.0	2.5	/experiments/AOT/AOT_stimuli/rescaled_final/2087_rv.mp4	0.0	362.9930090904236	
82	344.39818811416626	fix_post	2		12	80.0	2.5	/experiments/AOT/AOT_stimuli/rescaled_final/2087_rv.mp4	0.0	363.9086420536041	0.09999799728393555
83	344.4981861114502	fix_pre	0		120	81.0	2.5	/experiments/AOT/AOT_stimuli/rescaled_final/0081_fw.mp4	0.0	364.00864005088806	1.0000648498535156
83	345.0816080570221	pulse	0	t		81.0	2.5	/experiments/AOT/AOT_stimuli/rescaled_final/0081_fw.mp4	0.0	364.59206199645996	
83	345.4982509613037	movie	1		242	81.0	2.5	/experiments/AOT/AOT_stimuli/rescaled_final/0081_fw.mp4	0.0	365.0087049007416	2.4995181560516357
83	346.6816990375519	pulse	1	t		81.0	2.5	/experiments/AOT/AOT_stimuli/rescaled_final/0081_fw.mp4	0.0	366.19215297698975	
83	347.99776911735535	fix_post	2		12	81.0	2.5	/experiments/AOT/AOT_stimuli/rescaled_final/0081_fw.mp4	0.0	367.5082230567932	0.1000058650970459
84	348.0977749824524	fix_pre	0		120	82.0	2.5	/experiments/AOT/AOT_stimuli/rescaled_final/2126_fw.mp4	0.0	367.60822892189026	1.000028133392334
84	348.28122115135193	pulse	0	t		82.0	2.5	/experiments/AOT/AOT_stimuli/rescaled_final/2126_fw.mp4	0.0	367.7916750907898	
84	349.0978031158447	movie	1		243	82.0	2.5	/experiments/AOT/AOT_stimuli/rescaled_final/2126_fw.mp4	0.0	368.6082570552826	2.500298023223877
84	349.8816170692444	pulse	1	t		82.0	2.5	/experiments/AOT/AOT_stimuli/rescaled_final/2126_fw.mp4	0.0	369.39207100868225	
84	351.48993015289307	pulse	1	t		82.0	2.5	/experiments/AOT/AOT_stimuli/rescaled_final/2126_fw.mp4	0.0	371.00038409233093	
84	351.5981011390686	fix_post	2		12	82.0	2.5	/experiments/AOT/AOT_stimuli/rescaled_final/2126_fw.mp4	0.0	371.10855507850647	0.09996390342712402
85	351.6980650424957	fix_pre	0		120	83.0	2.5	blank	1.0	371.2085189819336	1.0001270771026611
85	352.6981921195984	movie	1		300	83.0	2.5	blank	1.0	372.20864605903625	2.499971866607666
85	353.08161902427673	pulse	1	t		83.0	2.5	blank	1.0	372.5920729637146	
85	354.6815960407257	pulse	1	t		83.0	2.5	blank	1.0	374.1920499801636	
85	355.19816398620605	fix_post	2		12	83.0	2.5	blank	1.0	374.7086179256439	0.09997820854187012
87	355.2981421947479	stim	0		1716					374.8085961341858	14.299964904785156
87	356.2816569805145	pulse	0	t						375.7921109199524	
87	357.8814899921417	pulse	0	t						377.3919439315796	
87	359.4815139770508	pulse	0	t						378.99196791648865	
87	361.08153319358826	pulse	0	t						380.5919871330261	
87	362.68153500556946	pulse	0	t						382.1919889450073	
87	364.2815320491791	pulse	0	t						383.79198598861694	
87	365.88155817985535	pulse	0	t						385.3920121192932	
87	367.481486082077	pulse	0	t						386.9919400215149	
87	369.0813629627228	pulse	0	t						388.59181690216064	
