trial_nr	onset	event_type	phase	response	nr_frames	movie_index	movie_duration	movie_file	blank	onset_abs	duration
0	0.14154720306396484	stim	0		1					16.642585039138794	0.00832819938659668
0	0.12183761596679688	response	0	space						16.622875452041626	
1	0.14987540245056152	stim	0		4793					16.65091323852539	39.95190787315369
1	40.089881896972656	pulse	0	t						56.590919733047485	
1	40.10178327560425	stim	1		1715					56.60282111167908	14.3062424659729
1	41.68956446647644	pulse	1	t						58.19060230255127	
1	43.289879322052	pulse	1	t						59.79091715812683	
1	44.89006328582764	pulse	1	t						61.391101121902466	
1	46.490384340286255	pulse	1	t						62.991422176361084	
1	48.09051513671875	pulse	1	t						64.59155297279358	
1	49.69077920913696	pulse	1	t						66.19181704521179	
1	51.291003465652466	pulse	1	t						67.7920413017273	
1	52.89126014709473	pulse	1	t						69.39229798316956	
2	54.40802574157715	fix_pre	0		11	0.0	2.5	/experiments/Knapen_AOT/AOT_stimuli/rescaled_final/0963_rv.mp4	0.0	70.90906357765198	0.10833597183227539
2	54.491535663604736	pulse	0	t		0.0	2.5	/experiments/Knapen_AOT/AOT_stimuli/rescaled_final/0963_rv.mp4	0.0	70.99257349967957	
2	54.516361713409424	movie	1		289	0.0	2.5	/experiments/Knapen_AOT/AOT_stimuli/rescaled_final/0963_rv.mp4	0.0	71.01739954948425	2.491971731185913
2	56.09063410758972	pulse	1	t		0.0	2.5	/experiments/Knapen_AOT/AOT_stimuli/rescaled_final/0963_rv.mp4	0.0	72.59167194366455	
2	57.00833344459534	fix_post	2		12	0.0	2.5	/experiments/Knapen_AOT/AOT_stimuli/rescaled_final/0963_rv.mp4	0.0	73.50937128067017	0.10005521774291992
3	57.10838866233826	fix_pre	0		120	1.0	2.5	/experiments/Knapen_AOT/AOT_stimuli/rescaled_final/2109_rv.mp4	0.0	73.60942649841309	1.0084631443023682
3	57.69208121299744	pulse	0	t		1.0	2.5	/experiments/Knapen_AOT/AOT_stimuli/rescaled_final/2109_rv.mp4	0.0	74.19311904907227	
3	58.116851806640625	movie	1		288	1.0	2.5	/experiments/Knapen_AOT/AOT_stimuli/rescaled_final/2109_rv.mp4	0.0	74.61788964271545	2.4920637607574463
3	59.2906539440155	pulse	1	t		1.0	2.5	/experiments/Knapen_AOT/AOT_stimuli/rescaled_final/2109_rv.mp4	0.0	75.79169178009033	
3	60.60891556739807	fix_post	2		12	1.0	2.5	/experiments/Knapen_AOT/AOT_stimuli/rescaled_final/2109_rv.mp4	0.0	77.1099534034729	0.09999752044677734
4	60.70891308784485	fix_pre	0		120	2.0	2.5	/experiments/Knapen_AOT/AOT_stimuli/rescaled_final/0075_fw.mp4	0.0	77.20995092391968	1.0084497928619385
4	60.89244055747986	pulse	0	t		2.0	2.5	/experiments/Knapen_AOT/AOT_stimuli/rescaled_final/0075_fw.mp4	0.0	77.39347839355469	
4	61.71736288070679	movie	1		265	2.0	2.5	/experiments/Knapen_AOT/AOT_stimuli/rescaled_final/0075_fw.mp4	0.0	78.21840071678162	2.4920568466186523
4	62.49051022529602	pulse	1	t		2.0	2.5	/experiments/Knapen_AOT/AOT_stimuli/rescaled_final/0075_fw.mp4	0.0	78.99154806137085	
4	64.09116530418396	pulse	1	t		2.0	2.5	/experiments/Knapen_AOT/AOT_stimuli/rescaled_final/0075_fw.mp4	0.0	80.59220314025879	
4	64.20941972732544	fix_post	2		12	2.0	2.5	/experiments/Knapen_AOT/AOT_stimuli/rescaled_final/0075_fw.mp4	0.0	80.71045756340027	0.1000218391418457
5	64.30944156646729	fix_pre	0		120	3.0	2.5	/experiments/Knapen_AOT/AOT_stimuli/rescaled_final/1578_rv.mp4	0.0	80.81047940254211	1.008490800857544
5	65.31793236732483	movie	1		277	3.0	2.5	/experiments/Knapen_AOT/AOT_stimuli/rescaled_final/1578_rv.mp4	0.0	81.81897020339966	2.492034673690796
5	65.69195485115051	pulse	1	t		3.0	2.5	/experiments/Knapen_AOT/AOT_stimuli/rescaled_final/1578_rv.mp4	0.0	82.19299268722534	
5	67.29153943061829	pulse	1	t		3.0	2.5	/experiments/Knapen_AOT/AOT_stimuli/rescaled_final/1578_rv.mp4	0.0	83.79257726669312	
5	67.80996704101562	fix_post	2		12	3.0	2.5	/experiments/Knapen_AOT/AOT_stimuli/rescaled_final/1578_rv.mp4	0.0	84.31100487709045	0.10012245178222656
6	67.91008949279785	fix_pre	0		119	4.0	2.5	/experiments/Knapen_AOT/AOT_stimuli/rescaled_final/0577_rv.mp4	0.0	84.41112732887268	1.000101089477539
6	68.89366173744202	pulse	0	t		4.0	2.5	/experiments/Knapen_AOT/AOT_stimuli/rescaled_final/0577_rv.mp4	0.0	85.39469957351685	
6	68.91019058227539	movie	1		274	4.0	2.5	/experiments/Knapen_AOT/AOT_stimuli/rescaled_final/0577_rv.mp4	0.0	85.41122841835022	2.5003349781036377
6	70.4941782951355	pulse	1	t		4.0	2.5	/experiments/Knapen_AOT/AOT_stimuli/rescaled_final/0577_rv.mp4	0.0	86.99521613121033	
6	71.41052556037903	fix_post	2		12	4.0	2.5	/experiments/Knapen_AOT/AOT_stimuli/rescaled_final/0577_rv.mp4	0.0	87.91156339645386	0.10000109672546387
7	71.51052665710449	fix_pre	0		120	5.0	2.5	/experiments/Knapen_AOT/AOT_stimuli/rescaled_final/1125_fw.mp4	0.0	88.01156449317932	1.0085108280181885
7	72.09413552284241	pulse	0	t		5.0	2.5	/experiments/Knapen_AOT/AOT_stimuli/rescaled_final/1125_fw.mp4	0.0	88.59517335891724	
7	72.51903748512268	movie	1		284	5.0	2.5	/experiments/Knapen_AOT/AOT_stimuli/rescaled_final/1125_fw.mp4	0.0	89.02007532119751	2.4920337200164795
7	73.69388675689697	pulse	1	t		5.0	2.5	/experiments/Knapen_AOT/AOT_stimuli/rescaled_final/1125_fw.mp4	0.0	90.1949245929718	
7	75.01107120513916	fix_post	2		12	5.0	2.5	/experiments/Knapen_AOT/AOT_stimuli/rescaled_final/1125_fw.mp4	0.0	91.51210904121399	0.09999847412109375
8	75.11106967926025	fix_pre	0		120	6.0	2.5	blank	1.0	91.61210751533508	1.0001132488250732
8	75.29465866088867	pulse	0	t		6.0	2.5	blank	1.0	91.7956964969635	
8	76.11118292808533	movie	1		300	6.0	2.5	blank	1.0	92.61222076416016	2.5003838539123535
8	76.89484000205994	pulse	1	t		6.0	2.5	blank	1.0	93.39587783813477	
8	78.49510836601257	pulse	1	t		6.0	2.5	blank	1.0	94.9961462020874	
8	78.61156678199768	fix_post	2		12	6.0	2.5	blank	1.0	95.11260461807251	0.10000920295715332
9	78.71157598495483	fix_pre	0		120	7.0	2.5	/experiments/Knapen_AOT/AOT_stimuli/rescaled_final/0590_fw.mp4	0.0	95.21261382102966	1.008573055267334
9	79.72014904022217	movie	1		278	7.0	2.5	/experiments/Knapen_AOT/AOT_stimuli/rescaled_final/0590_fw.mp4	0.0	96.221186876297	2.4920036792755127
9	80.09408497810364	pulse	1	t		7.0	2.5	/experiments/Knapen_AOT/AOT_stimuli/rescaled_final/0590_fw.mp4	0.0	96.59512281417847	
9	81.6936948299408	pulse	1	t		7.0	2.5	/experiments/Knapen_AOT/AOT_stimuli/rescaled_final/0590_fw.mp4	0.0	98.19473266601562	
9	82.21215271949768	fix_post	2		12	7.0	2.5	/experiments/Knapen_AOT/AOT_stimuli/rescaled_final/0590_fw.mp4	0.0	98.71319055557251	0.10004663467407227
10	82.31219935417175	fix_pre	0		119	8.0	2.5	/experiments/Knapen_AOT/AOT_stimuli/rescaled_final/0967_rv.mp4	0.0	98.81323719024658	1.000075101852417
10	83.29586100578308	pulse	0	t		8.0	2.5	/experiments/Knapen_AOT/AOT_stimuli/rescaled_final/0967_rv.mp4	0.0	99.79689884185791	
10	83.31227445602417	movie	1		283	8.0	2.5	/experiments/Knapen_AOT/AOT_stimuli/rescaled_final/0967_rv.mp4	0.0	99.813312292099	2.500444173812866
10	84.89448976516724	pulse	1	t		8.0	2.5	/experiments/Knapen_AOT/AOT_stimuli/rescaled_final/0967_rv.mp4	0.0	101.39552760124207	
10	85.81271862983704	fix_post	2		12	8.0	2.5	/experiments/Knapen_AOT/AOT_stimuli/rescaled_final/0967_rv.mp4	0.0	102.31375646591187	0.10001468658447266
11	85.91273331642151	fix_pre	0		120	9.0	2.5	/experiments/Knapen_AOT/AOT_stimuli/rescaled_final/0052_rv.mp4	0.0	102.41377115249634	1.0084888935089111
11	86.4966254234314	pulse	0	t		9.0	2.5	/experiments/Knapen_AOT/AOT_stimuli/rescaled_final/0052_rv.mp4	0.0	102.99766325950623	
11	86.92122220993042	movie	1		286	9.0	2.5	/experiments/Knapen_AOT/AOT_stimuli/rescaled_final/0052_rv.mp4	0.0	103.42226004600525	2.492018222808838
11	88.094562292099	pulse	1	t		9.0	2.5	/experiments/Knapen_AOT/AOT_stimuli/rescaled_final/0052_rv.mp4	0.0	104.59560012817383	
11	89.41324043273926	fix_post	2		12	9.0	2.5	/experiments/Knapen_AOT/AOT_stimuli/rescaled_final/0052_rv.mp4	0.0	105.91427826881409	0.10007166862487793
12	89.51331210136414	fix_pre	0		120	10.0	2.5	/experiments/Knapen_AOT/AOT_stimuli/rescaled_final/1464_fw.mp4	0.0	106.01434993743896	1.0084116458892822
12	89.6967511177063	pulse	0	t		10.0	2.5	/experiments/Knapen_AOT/AOT_stimuli/rescaled_final/1464_fw.mp4	0.0	106.19778895378113	
12	90.52172374725342	movie	1		286	10.0	2.5	/experiments/Knapen_AOT/AOT_stimuli/rescaled_final/1464_fw.mp4	0.0	107.02276158332825	2.4920196533203125
12	91.28915619850159	pulse	1	t		10.0	2.5	/experiments/Knapen_AOT/AOT_stimuli/rescaled_final/1464_fw.mp4	0.0	107.79019403457642	
12	92.8890221118927	pulse	1	t		10.0	2.5	/experiments/Knapen_AOT/AOT_stimuli/rescaled_final/1464_fw.mp4	0.0	109.39005994796753	
12	93.01374340057373	fix_post	2		12	10.0	2.5	/experiments/Knapen_AOT/AOT_stimuli/rescaled_final/1464_fw.mp4	0.0	109.51478123664856	0.10001516342163086
13	93.11375856399536	fix_pre	0		120	11.0	2.5	/experiments/Knapen_AOT/AOT_stimuli/rescaled_final/1147_rv.mp4	0.0	109.61479640007019	1.0085334777832031
13	94.12229204177856	movie	1		272	11.0	2.5	/experiments/Knapen_AOT/AOT_stimuli/rescaled_final/1147_rv.mp4	0.0	110.6233298778534	2.4920132160186768
13	94.48923230171204	pulse	1	t		11.0	2.5	/experiments/Knapen_AOT/AOT_stimuli/rescaled_final/1147_rv.mp4	0.0	110.99027013778687	
13	96.08944869041443	pulse	1	t		11.0	2.5	/experiments/Knapen_AOT/AOT_stimuli/rescaled_final/1147_rv.mp4	0.0	112.59048652648926	
13	96.61430525779724	fix_post	2		12	11.0	2.5	/experiments/Knapen_AOT/AOT_stimuli/rescaled_final/1147_rv.mp4	0.0	113.11534309387207	0.10003376007080078
14	96.71433901786804	fix_pre	0		118	12.0	2.5	/experiments/Knapen_AOT/AOT_stimuli/rescaled_final/1620_rv.mp4	0.0	113.21537685394287	0.9918205738067627
14	97.68969964981079	pulse	0	t		12.0	2.5	/experiments/Knapen_AOT/AOT_stimuli/rescaled_final/1620_rv.mp4	0.0	114.19073748588562	
14	97.7061595916748	movie	1		276	12.0	2.5	/experiments/Knapen_AOT/AOT_stimuli/rescaled_final/1620_rv.mp4	0.0	114.20719742774963	2.5003271102905273
14	99.28865194320679	pulse	1	t		12.0	2.5	/experiments/Knapen_AOT/AOT_stimuli/rescaled_final/1620_rv.mp4	0.0	115.78968977928162	
14	100.20648670196533	fix_post	2		12	12.0	2.5	/experiments/Knapen_AOT/AOT_stimuli/rescaled_final/1620_rv.mp4	0.0	116.70752453804016	0.1000669002532959
15	100.30655360221863	fix_pre	0		120	13.0	2.5	/experiments/Knapen_AOT/AOT_stimuli/rescaled_final/2109_rv.mp4	0.0	116.80759143829346	1.008495807647705
15	100.89042210578918	pulse	0	t		13.0	2.5	/experiments/Knapen_AOT/AOT_stimuli/rescaled_final/2109_rv.mp4	0.0	117.39145994186401	
15	101.31504940986633	movie	1		283	13.0	2.5	/experiments/Knapen_AOT/AOT_stimuli/rescaled_final/2109_rv.mp4	0.0	117.81608724594116	2.4920079708099365
15	102.48909950256348	pulse	1	t		13.0	2.5	/experiments/Knapen_AOT/AOT_stimuli/rescaled_final/2109_rv.mp4	0.0	118.9901373386383	
15	103.80705738067627	fix_post	2		12	13.0	2.5	/experiments/Knapen_AOT/AOT_stimuli/rescaled_final/2109_rv.mp4	0.0	120.3080952167511	0.10010766983032227
16	103.90716505050659	fix_pre	0		120	14.0	2.5	blank	1.0	120.40820288658142	1.0000567436218262
16	104.09069156646729	pulse	0	t		14.0	2.5	blank	1.0	120.59172940254211	
16	104.90722179412842	movie	1		300	14.0	2.5	blank	1.0	121.40825963020325	2.500342845916748
16	105.69086790084839	pulse	1	t		14.0	2.5	blank	1.0	122.19190573692322	
16	107.29109263420105	pulse	1	t		14.0	2.5	blank	1.0	123.79213047027588	
16	107.40756464004517	fix_post	2		12	14.0	2.5	blank	1.0	123.90860247612	0.1000359058380127
17	107.50760054588318	fix_pre	0		120	15.0	2.5	/experiments/Knapen_AOT/AOT_stimuli/rescaled_final/0421_rv.mp4	0.0	124.00863838195801	1.0084888935089111
17	108.51608943939209	movie	1		279	15.0	2.5	/experiments/Knapen_AOT/AOT_stimuli/rescaled_final/0421_rv.mp4	0.0	125.01712727546692	2.492030143737793
17	108.89008784294128	pulse	1	t		15.0	2.5	/experiments/Knapen_AOT/AOT_stimuli/rescaled_final/0421_rv.mp4	0.0	125.39112567901611	
17	110.489422082901	pulse	1	t		15.0	2.5	/experiments/Knapen_AOT/AOT_stimuli/rescaled_final/0421_rv.mp4	0.0	126.99045991897583	
17	111.00811958312988	fix_post	2		12	15.0	2.5	/experiments/Knapen_AOT/AOT_stimuli/rescaled_final/0421_rv.mp4	0.0	127.50915741920471	0.10002279281616211
18	111.10814237594604	fix_pre	0		119	16.0	2.5	/experiments/Knapen_AOT/AOT_stimuli/rescaled_final/0947_rv.mp4	0.0	127.60918021202087	1.0001134872436523
18	112.09192299842834	pulse	0	t		16.0	2.5	/experiments/Knapen_AOT/AOT_stimuli/rescaled_final/0947_rv.mp4	0.0	128.59296083450317	
18	112.1082558631897	movie	1		285	16.0	2.5	/experiments/Knapen_AOT/AOT_stimuli/rescaled_final/0947_rv.mp4	0.0	128.60929369926453	2.5004374980926514
18	113.69110488891602	pulse	1	t		16.0	2.5	/experiments/Knapen_AOT/AOT_stimuli/rescaled_final/0947_rv.mp4	0.0	130.19214272499084	
18	114.60869336128235	fix_post	2		12	16.0	2.5	/experiments/Knapen_AOT/AOT_stimuli/rescaled_final/0947_rv.mp4	0.0	131.10973119735718	0.10002565383911133
19	114.70871901512146	fix_pre	0		120	17.0	2.5	/experiments/Knapen_AOT/AOT_stimuli/rescaled_final/1589_rv.mp4	0.0	131.2097568511963	1.0084664821624756
19	115.29229068756104	pulse	0	t		17.0	2.5	/experiments/Knapen_AOT/AOT_stimuli/rescaled_final/1589_rv.mp4	0.0	131.79332852363586	
19	115.71718549728394	movie	1		281	17.0	2.5	/experiments/Knapen_AOT/AOT_stimuli/rescaled_final/1589_rv.mp4	0.0	132.21822333335876	2.4920177459716797
19	116.89152503013611	pulse	1	t		17.0	2.5	/experiments/Knapen_AOT/AOT_stimuli/rescaled_final/1589_rv.mp4	0.0	133.39256286621094	
19	118.20920324325562	fix_post	2		12	17.0	2.5	/experiments/Knapen_AOT/AOT_stimuli/rescaled_final/1589_rv.mp4	0.0	134.71024107933044	0.10001611709594727
20	118.30921936035156	fix_pre	0		120	18.0	2.5	/experiments/Knapen_AOT/AOT_stimuli/rescaled_final/0970_rv.mp4	0.0	134.8102571964264	1.008476734161377
20	118.49286198616028	pulse	0	t		18.0	2.5	/experiments/Knapen_AOT/AOT_stimuli/rescaled_final/0970_rv.mp4	0.0	134.9938998222351	
20	119.31769609451294	movie	1		287	18.0	2.5	/experiments/Knapen_AOT/AOT_stimuli/rescaled_final/0970_rv.mp4	0.0	135.81873393058777	2.4920527935028076
20	120.09160351753235	pulse	1	t		18.0	2.5	/experiments/Knapen_AOT/AOT_stimuli/rescaled_final/0970_rv.mp4	0.0	136.59264135360718	
20	121.69255876541138	pulse	1	t		18.0	2.5	/experiments/Knapen_AOT/AOT_stimuli/rescaled_final/0970_rv.mp4	0.0	138.1935966014862	
20	121.80974888801575	fix_post	2		12	18.0	2.5	/experiments/Knapen_AOT/AOT_stimuli/rescaled_final/0970_rv.mp4	0.0	138.31078672409058	0.1000051498413086
21	121.90975403785706	fix_pre	0		120	19.0	2.5	/experiments/Knapen_AOT/AOT_stimuli/rescaled_final/1036_fw.mp4	0.0	138.41079187393188	1.0085031986236572
21	122.91825723648071	movie	1		276	19.0	2.5	/experiments/Knapen_AOT/AOT_stimuli/rescaled_final/1036_fw.mp4	0.0	139.41929507255554	2.4920363426208496
21	123.29327034950256	pulse	1	t		19.0	2.5	/experiments/Knapen_AOT/AOT_stimuli/rescaled_final/1036_fw.mp4	0.0	139.7943081855774	
21	124.89156794548035	pulse	1	t		19.0	2.5	/experiments/Knapen_AOT/AOT_stimuli/rescaled_final/1036_fw.mp4	0.0	141.39260578155518	
21	125.41029357910156	fix_post	2		12	19.0	2.5	/experiments/Knapen_AOT/AOT_stimuli/rescaled_final/1036_fw.mp4	0.0	141.9113314151764	0.100006103515625
22	125.51029968261719	fix_pre	0		119	20.0	2.5	blank	1.0	142.01133751869202	0.9918980598449707
22	126.49405169487	pulse	0	t		20.0	2.5	blank	1.0	142.99508953094482	
22	126.50219774246216	movie	1		301	20.0	2.5	blank	1.0	143.003235578537	2.5086333751678467
22	128.0944423675537	pulse	1	t		20.0	2.5	blank	1.0	144.59548020362854	
22	129.01083111763	fix_post	2		12	20.0	2.5	blank	1.0	145.51186895370483	0.10005664825439453
23	129.1108877658844	fix_pre	0		120	21.0	2.5	/experiments/Knapen_AOT/AOT_stimuli/rescaled_final/1914_fw.mp4	0.0	145.61192560195923	1.0084872245788574
23	129.69447207450867	pulse	0	t		21.0	2.5	/experiments/Knapen_AOT/AOT_stimuli/rescaled_final/1914_fw.mp4	0.0	146.1955099105835	
23	130.11937499046326	movie	1		287	21.0	2.5	/experiments/Knapen_AOT/AOT_stimuli/rescaled_final/1914_fw.mp4	0.0	146.6204128265381	2.4921324253082275
23	131.29321956634521	pulse	1	t		21.0	2.5	/experiments/Knapen_AOT/AOT_stimuli/rescaled_final/1914_fw.mp4	0.0	147.79425740242004	
23	132.61150741577148	fix_post	2		12	21.0	2.5	/experiments/Knapen_AOT/AOT_stimuli/rescaled_final/1914_fw.mp4	0.0	149.1125452518463	0.09988141059875488
24	132.71138882637024	fix_pre	0		120	22.0	2.5	/experiments/Knapen_AOT/AOT_stimuli/rescaled_final/0577_rv.mp4	0.0	149.21242666244507	1.00852632522583
24	132.89498209953308	pulse	0	t		22.0	2.5	/experiments/Knapen_AOT/AOT_stimuli/rescaled_final/0577_rv.mp4	0.0	149.3960199356079	
24	133.71991515159607	movie	1		291	22.0	2.5	/experiments/Knapen_AOT/AOT_stimuli/rescaled_final/0577_rv.mp4	0.0	150.2209529876709	2.4919769763946533
24	134.49307680130005	pulse	1	t		22.0	2.5	/experiments/Knapen_AOT/AOT_stimuli/rescaled_final/0577_rv.mp4	0.0	150.99411463737488	
24	136.0915322303772	pulse	1	t		22.0	2.5	/experiments/Knapen_AOT/AOT_stimuli/rescaled_final/0577_rv.mp4	0.0	152.59257006645203	
24	136.21189212799072	fix_post	2		12	22.0	2.5	/experiments/Knapen_AOT/AOT_stimuli/rescaled_final/0577_rv.mp4	0.0	152.71292996406555	0.10000824928283691
25	136.31190037727356	fix_pre	0		120	23.0	2.5	/experiments/Knapen_AOT/AOT_stimuli/rescaled_final/0365_rv.mp4	0.0	152.8129382133484	1.0001180171966553
25	137.31201839447021	movie	1		295	23.0	2.5	/experiments/Knapen_AOT/AOT_stimuli/rescaled_final/0365_rv.mp4	0.0	153.81305623054504	2.5004024505615234
25	137.69195294380188	pulse	1	t		23.0	2.5	/experiments/Knapen_AOT/AOT_stimuli/rescaled_final/0365_rv.mp4	0.0	154.1929907798767	
25	139.2915153503418	pulse	1	t		23.0	2.5	/experiments/Knapen_AOT/AOT_stimuli/rescaled_final/0365_rv.mp4	0.0	155.79255318641663	
25	139.81242084503174	fix_post	2		12	23.0	2.5	/experiments/Knapen_AOT/AOT_stimuli/rescaled_final/0365_rv.mp4	0.0	156.31345868110657	0.1000206470489502
26	139.9124414920807	fix_pre	0		119	24.0	2.5	/experiments/Knapen_AOT/AOT_stimuli/rescaled_final/1775_rv.mp4	0.0	156.41347932815552	1.0002291202545166
26	140.889714717865	pulse	0	t		24.0	2.5	/experiments/Knapen_AOT/AOT_stimuli/rescaled_final/1775_rv.mp4	0.0	157.39075255393982	
26	140.9126706123352	movie	1		293	24.0	2.5	/experiments/Knapen_AOT/AOT_stimuli/rescaled_final/1775_rv.mp4	0.0	157.41370844841003	2.5002918243408203
26	142.4960331916809	pulse	1	t		24.0	2.5	/experiments/Knapen_AOT/AOT_stimuli/rescaled_final/1775_rv.mp4	0.0	158.99707102775574	
26	143.41296243667603	fix_post	2		12	24.0	2.5	/experiments/Knapen_AOT/AOT_stimuli/rescaled_final/1775_rv.mp4	0.0	159.91400027275085	0.10001349449157715
27	143.5129759311676	fix_pre	0		120	25.0	2.5	/experiments/Knapen_AOT/AOT_stimuli/rescaled_final/1470_fw.mp4	0.0	160.01401376724243	1.0001354217529297
27	144.08879280090332	pulse	0	t		25.0	2.5	/experiments/Knapen_AOT/AOT_stimuli/rescaled_final/1470_fw.mp4	0.0	160.58983063697815	
27	144.51311135292053	movie	1		294	25.0	2.5	/experiments/Knapen_AOT/AOT_stimuli/rescaled_final/1470_fw.mp4	0.0	161.01414918899536	2.5003952980041504
27	145.68886709213257	pulse	1	t		25.0	2.5	/experiments/Knapen_AOT/AOT_stimuli/rescaled_final/1470_fw.mp4	0.0	162.1899049282074	
27	147.01350665092468	fix_post	2		12	25.0	2.5	/experiments/Knapen_AOT/AOT_stimuli/rescaled_final/1470_fw.mp4	0.0	163.5145444869995	0.1000204086303711
28	147.11352705955505	fix_pre	0		120	26.0	2.5	/experiments/Knapen_AOT/AOT_stimuli/rescaled_final/0916_fw.mp4	0.0	163.61456489562988	1.0002379417419434
28	147.28870820999146	pulse	0	t		26.0	2.5	/experiments/Knapen_AOT/AOT_stimuli/rescaled_final/0916_fw.mp4	0.0	163.78974604606628	
28	148.113765001297	movie	1		286	26.0	2.5	/experiments/Knapen_AOT/AOT_stimuli/rescaled_final/0916_fw.mp4	0.0	164.61480283737183	2.5002973079681396
28	148.88944625854492	pulse	1	t		26.0	2.5	/experiments/Knapen_AOT/AOT_stimuli/rescaled_final/0916_fw.mp4	0.0	165.39048409461975	
28	150.48935103416443	pulse	1	t		26.0	2.5	/experiments/Knapen_AOT/AOT_stimuli/rescaled_final/0916_fw.mp4	0.0	166.99038887023926	
28	150.61406230926514	fix_post	2		12	26.0	2.5	/experiments/Knapen_AOT/AOT_stimuli/rescaled_final/0916_fw.mp4	0.0	167.11510014533997	0.10002422332763672
29	150.71408653259277	fix_pre	0		120	27.0	2.5	/experiments/Knapen_AOT/AOT_stimuli/rescaled_final/1744_rv.mp4	0.0	167.2151243686676	1.0085008144378662
29	151.72258734703064	movie	1		293	27.0	2.5	/experiments/Knapen_AOT/AOT_stimuli/rescaled_final/1744_rv.mp4	0.0	168.22362518310547	2.4837043285369873
29	152.08962440490723	pulse	1	t		27.0	2.5	/experiments/Knapen_AOT/AOT_stimuli/rescaled_final/1744_rv.mp4	0.0	168.59066224098206	
29	153.6896629333496	pulse	1	t		27.0	2.5	/experiments/Knapen_AOT/AOT_stimuli/rescaled_final/1744_rv.mp4	0.0	170.19070076942444	
29	154.20629167556763	fix_post	2		12	27.0	2.5	/experiments/Knapen_AOT/AOT_stimuli/rescaled_final/1744_rv.mp4	0.0	170.70732951164246	0.10003232955932617
30	154.30632400512695	fix_pre	0		119	28.0	2.5	blank	1.0	170.80736184120178	0.9917733669281006
30	155.2899329662323	pulse	0	t		28.0	2.5	blank	1.0	171.79097080230713	
30	155.29809737205505	movie	1		301	28.0	2.5	blank	1.0	171.79913520812988	2.508718967437744
30	156.89021563529968	pulse	1	t		28.0	2.5	blank	1.0	173.3912534713745	
30	157.8068163394928	fix_post	2		12	28.0	2.5	blank	1.0	174.30785417556763	0.10015630722045898
31	157.90697264671326	fix_pre	0		120	29.0	2.5	/experiments/Knapen_AOT/AOT_stimuli/rescaled_final/0060_fw.mp4	0.0	174.4080104827881	1.0083622932434082
31	158.4904658794403	pulse	0	t		29.0	2.5	/experiments/Knapen_AOT/AOT_stimuli/rescaled_final/0060_fw.mp4	0.0	174.99150371551514	
31	158.91533493995667	movie	1		283	29.0	2.5	/experiments/Knapen_AOT/AOT_stimuli/rescaled_final/0060_fw.mp4	0.0	175.4163727760315	2.4920477867126465
31	160.08936381340027	pulse	1	t		29.0	2.5	/experiments/Knapen_AOT/AOT_stimuli/rescaled_final/0060_fw.mp4	0.0	176.5904016494751	
31	161.4073827266693	fix_post	2		12	29.0	2.5	/experiments/Knapen_AOT/AOT_stimuli/rescaled_final/0060_fw.mp4	0.0	177.90842056274414	0.1000669002532959
32	161.5074496269226	fix_pre	0		120	30.0	2.5	/experiments/Knapen_AOT/AOT_stimuli/rescaled_final/0240_fw.mp4	0.0	178.00848746299744	1.0085465908050537
32	161.69096422195435	pulse	0	t		30.0	2.5	/experiments/Knapen_AOT/AOT_stimuli/rescaled_final/0240_fw.mp4	0.0	178.19200205802917	
32	162.51599621772766	movie	1		273	30.0	2.5	/experiments/Knapen_AOT/AOT_stimuli/rescaled_final/0240_fw.mp4	0.0	179.0170340538025	2.4919731616973877
32	163.29153299331665	pulse	1	t		30.0	2.5	/experiments/Knapen_AOT/AOT_stimuli/rescaled_final/0240_fw.mp4	0.0	179.79257082939148	
32	164.88928604125977	pulse	1	t		30.0	2.5	/experiments/Knapen_AOT/AOT_stimuli/rescaled_final/0240_fw.mp4	0.0	181.3903238773346	
32	165.00796937942505	fix_post	2		12	30.0	2.5	/experiments/Knapen_AOT/AOT_stimuli/rescaled_final/0240_fw.mp4	0.0	181.50900721549988	0.09997081756591797
33	165.10794019699097	fix_pre	0		120	31.0	2.5	/experiments/Knapen_AOT/AOT_stimuli/rescaled_final/1702_rv.mp4	0.0	181.6089780330658	1.0084888935089111
33	166.11642909049988	movie	1		286	31.0	2.5	/experiments/Knapen_AOT/AOT_stimuli/rescaled_final/1702_rv.mp4	0.0	182.6174669265747	2.4920151233673096
33	166.49018669128418	pulse	1	t		31.0	2.5	/experiments/Knapen_AOT/AOT_stimuli/rescaled_final/1702_rv.mp4	0.0	182.991224527359	
33	168.08975553512573	pulse	1	t		31.0	2.5	/experiments/Knapen_AOT/AOT_stimuli/rescaled_final/1702_rv.mp4	0.0	184.59079337120056	
33	168.6084442138672	fix_post	2		12	31.0	2.5	/experiments/Knapen_AOT/AOT_stimuli/rescaled_final/1702_rv.mp4	0.0	185.10948204994202	0.10001087188720703
34	168.7084550857544	fix_pre	0		119	32.0	2.5	/experiments/Knapen_AOT/AOT_stimuli/rescaled_final/1775_fw.mp4	0.0	185.20949292182922	1.000241756439209
34	169.69226908683777	pulse	0	t		32.0	2.5	/experiments/Knapen_AOT/AOT_stimuli/rescaled_final/1775_fw.mp4	0.0	186.1933069229126	
34	169.7086968421936	movie	1		276	32.0	2.5	/experiments/Knapen_AOT/AOT_stimuli/rescaled_final/1775_fw.mp4	0.0	186.20973467826843	2.5002994537353516
34	171.2908115386963	pulse	1	t		32.0	2.5	/experiments/Knapen_AOT/AOT_stimuli/rescaled_final/1775_fw.mp4	0.0	187.79184937477112	
34	172.20899629592896	fix_post	2		12	32.0	2.5	/experiments/Knapen_AOT/AOT_stimuli/rescaled_final/1775_fw.mp4	0.0	188.71003413200378	0.1000220775604248
35	172.30901837348938	fix_pre	0		120	33.0	2.5	blank	1.0	188.8100562095642	1.0002772808074951
35	172.8926022052765	pulse	0	t		33.0	2.5	blank	1.0	189.39364004135132	
35	173.30929565429688	movie	1		300	33.0	2.5	blank	1.0	189.8103334903717	2.5002059936523438
35	174.49290776252747	pulse	1	t		33.0	2.5	blank	1.0	190.9939455986023	
35	175.80950164794922	fix_post	2		12	33.0	2.5	blank	1.0	192.31053948402405	0.10005378723144531
36	175.90955543518066	fix_pre	0		120	34.0	2.5	/experiments/Knapen_AOT/AOT_stimuli/rescaled_final/0806_rv.mp4	0.0	192.4105932712555	1.0085258483886719
36	176.09311199188232	pulse	0	t		34.0	2.5	/experiments/Knapen_AOT/AOT_stimuli/rescaled_final/0806_rv.mp4	0.0	192.59414982795715	
36	176.91808128356934	movie	1		284	34.0	2.5	/experiments/Knapen_AOT/AOT_stimuli/rescaled_final/0806_rv.mp4	0.0	193.41911911964417	2.492068290710449
36	177.691712141037	pulse	1	t		34.0	2.5	/experiments/Knapen_AOT/AOT_stimuli/rescaled_final/0806_rv.mp4	0.0	194.19274997711182	
36	179.29286670684814	pulse	1	t		34.0	2.5	/experiments/Knapen_AOT/AOT_stimuli/rescaled_final/0806_rv.mp4	0.0	195.79390454292297	
36	179.41014957427979	fix_post	2		12	34.0	2.5	/experiments/Knapen_AOT/AOT_stimuli/rescaled_final/0806_rv.mp4	0.0	195.91118741035461	0.0999598503112793
37	179.51010942459106	fix_pre	0		120	35.0	2.5	/experiments/Knapen_AOT/AOT_stimuli/rescaled_final/1369_fw.mp4	0.0	196.0111472606659	1.00850510597229
37	180.51861453056335	movie	1		290	35.0	2.5	/experiments/Knapen_AOT/AOT_stimuli/rescaled_final/1369_fw.mp4	0.0	197.01965236663818	2.491973638534546
37	180.89267921447754	pulse	1	t		35.0	2.5	/experiments/Knapen_AOT/AOT_stimuli/rescaled_final/1369_fw.mp4	0.0	197.39371705055237	
37	182.49228620529175	pulse	1	t		35.0	2.5	/experiments/Knapen_AOT/AOT_stimuli/rescaled_final/1369_fw.mp4	0.0	198.99332404136658	
37	183.0105881690979	fix_post	2		12	35.0	2.5	/experiments/Knapen_AOT/AOT_stimuli/rescaled_final/1369_fw.mp4	0.0	199.51162600517273	0.10008597373962402
38	183.11067414283752	fix_pre	0		119	36.0	2.5	/experiments/Knapen_AOT/AOT_stimuli/rescaled_final/1772_rv.mp4	0.0	199.61171197891235	1.0001938343048096
38	184.0944118499756	pulse	0	t		36.0	2.5	/experiments/Knapen_AOT/AOT_stimuli/rescaled_final/1772_rv.mp4	0.0	200.59544968605042	
38	184.11086797714233	movie	1		292	36.0	2.5	/experiments/Knapen_AOT/AOT_stimuli/rescaled_final/1772_rv.mp4	0.0	200.61190581321716	2.5002737045288086
38	185.693523645401	pulse	1	t		36.0	2.5	/experiments/Knapen_AOT/AOT_stimuli/rescaled_final/1772_rv.mp4	0.0	202.19456148147583	
38	186.61114168167114	fix_post	2		12	36.0	2.5	/experiments/Knapen_AOT/AOT_stimuli/rescaled_final/1772_rv.mp4	0.0	203.11217951774597	0.10002255439758301
39	186.71116423606873	fix_pre	0		120	37.0	2.5	/experiments/Knapen_AOT/AOT_stimuli/rescaled_final/0687_fw.mp4	0.0	203.21220207214355	1.0085155963897705
39	187.2951512336731	pulse	0	t		37.0	2.5	/experiments/Knapen_AOT/AOT_stimuli/rescaled_final/0687_fw.mp4	0.0	203.79618906974792	
39	187.7196798324585	movie	1		284	37.0	2.5	/experiments/Knapen_AOT/AOT_stimuli/rescaled_final/0687_fw.mp4	0.0	204.22071766853333	2.492015838623047
39	188.8934211730957	pulse	1	t		37.0	2.5	/experiments/Knapen_AOT/AOT_stimuli/rescaled_final/0687_fw.mp4	0.0	205.39445900917053	
39	190.21169567108154	fix_post	2		12	37.0	2.5	/experiments/Knapen_AOT/AOT_stimuli/rescaled_final/0687_fw.mp4	0.0	206.71273350715637	0.10001516342163086
40	190.31171083450317	fix_pre	0		120	38.0	2.5	/experiments/Knapen_AOT/AOT_stimuli/rescaled_final/1780_rv.mp4	0.0	206.812748670578	1.008470058441162
40	190.4953944683075	pulse	0	t		38.0	2.5	/experiments/Knapen_AOT/AOT_stimuli/rescaled_final/1780_rv.mp4	0.0	206.99643230438232	
40	191.32018089294434	movie	1		270	38.0	2.5	/experiments/Knapen_AOT/AOT_stimuli/rescaled_final/1780_rv.mp4	0.0	207.82121872901917	2.4920425415039062
40	192.0951271057129	pulse	1	t		38.0	2.5	/experiments/Knapen_AOT/AOT_stimuli/rescaled_final/1780_rv.mp4	0.0	208.59616494178772	
40	193.6936333179474	pulse	1	t		38.0	2.5	/experiments/Knapen_AOT/AOT_stimuli/rescaled_final/1780_rv.mp4	0.0	210.19467115402222	
40	193.81222343444824	fix_post	2		12	38.0	2.5	/experiments/Knapen_AOT/AOT_stimuli/rescaled_final/1780_rv.mp4	0.0	210.31326127052307	0.10003185272216797
41	193.9122552871704	fix_pre	0		120	39.0	2.5	/experiments/Knapen_AOT/AOT_stimuli/rescaled_final/1370_rv.mp4	0.0	210.41329312324524	1.0084896087646484
41	194.92074489593506	movie	1		276	39.0	2.5	/experiments/Knapen_AOT/AOT_stimuli/rescaled_final/1370_rv.mp4	0.0	211.4217827320099	2.4920425415039062
41	195.29628920555115	pulse	1	t		39.0	2.5	/experiments/Knapen_AOT/AOT_stimuli/rescaled_final/1370_rv.mp4	0.0	211.79732704162598	
41	196.89447379112244	pulse	1	t		39.0	2.5	/experiments/Knapen_AOT/AOT_stimuli/rescaled_final/1370_rv.mp4	0.0	213.39551162719727	
41	197.41278743743896	fix_post	2		12	39.0	2.5	/experiments/Knapen_AOT/AOT_stimuli/rescaled_final/1370_rv.mp4	0.0	213.9138252735138	0.10007405281066895
42	197.51286149024963	fix_pre	0		119	40.0	2.5	/experiments/Knapen_AOT/AOT_stimuli/rescaled_final/1259_fw.mp4	0.0	214.01389932632446	1.0001177787780762
42	198.49658870697021	pulse	0	t		40.0	2.5	/experiments/Knapen_AOT/AOT_stimuli/rescaled_final/1259_fw.mp4	0.0	214.99762654304504	
42	198.5129792690277	movie	1		263	40.0	2.5	/experiments/Knapen_AOT/AOT_stimuli/rescaled_final/1259_fw.mp4	0.0	215.01401710510254	2.5005853176116943
42	200.09567880630493	pulse	1	t		40.0	2.5	/experiments/Knapen_AOT/AOT_stimuli/rescaled_final/1259_fw.mp4	0.0	216.59671664237976	
42	201.0135645866394	fix_post	2		12	40.0	2.5	/experiments/Knapen_AOT/AOT_stimuli/rescaled_final/1259_fw.mp4	0.0	217.51460242271423	0.09977102279663086
43	201.11333560943604	fix_pre	0		120	41.0	2.5	/experiments/Knapen_AOT/AOT_stimuli/rescaled_final/1540_fw.mp4	0.0	217.61437344551086	1.008573293685913
43	201.6899561882019	pulse	0	t		41.0	2.5	/experiments/Knapen_AOT/AOT_stimuli/rescaled_final/1540_fw.mp4	0.0	218.19099402427673	
43	202.12190890312195	movie	1		283	41.0	2.5	/experiments/Knapen_AOT/AOT_stimuli/rescaled_final/1540_fw.mp4	0.0	218.62294673919678	2.491966485977173
43	203.29548621177673	pulse	1	t		41.0	2.5	/experiments/Knapen_AOT/AOT_stimuli/rescaled_final/1540_fw.mp4	0.0	219.79652404785156	
43	204.61387538909912	fix_post	2		12	41.0	2.5	/experiments/Knapen_AOT/AOT_stimuli/rescaled_final/1540_fw.mp4	0.0	221.11491322517395	0.10002017021179199
44	204.7138955593109	fix_pre	0		120	42.0	2.5	blank	1.0	221.21493339538574	1.0001165866851807
44	204.88931274414062	pulse	0	t		42.0	2.5	blank	1.0	221.39035058021545	
44	205.7140121459961	movie	1		300	42.0	2.5	blank	1.0	222.21504998207092	2.5003769397735596
44	206.48936080932617	pulse	1	t		42.0	2.5	blank	1.0	222.990398645401	
44	208.08955359458923	pulse	1	t		42.0	2.5	blank	1.0	224.59059143066406	
44	208.21438908576965	fix_post	2		12	42.0	2.5	blank	1.0	224.71542692184448	0.10013508796691895
45	208.31452417373657	fix_pre	0		120	43.0	2.5	/experiments/Knapen_AOT/AOT_stimuli/rescaled_final/1548_rv.mp4	0.0	224.8155620098114	1.0084476470947266
45	209.3229718208313	movie	1		283	43.0	2.5	/experiments/Knapen_AOT/AOT_stimuli/rescaled_final/1548_rv.mp4	0.0	225.82400965690613	2.4920027256011963
45	209.68983817100525	pulse	1	t		43.0	2.5	/experiments/Knapen_AOT/AOT_stimuli/rescaled_final/1548_rv.mp4	0.0	226.19087600708008	
45	211.29019784927368	pulse	1	t		43.0	2.5	/experiments/Knapen_AOT/AOT_stimuli/rescaled_final/1548_rv.mp4	0.0	227.7912356853485	
45	211.8149745464325	fix_post	2		12	43.0	2.5	/experiments/Knapen_AOT/AOT_stimuli/rescaled_final/1548_rv.mp4	0.0	228.31601238250732	0.09999871253967285
46	211.91497325897217	fix_pre	0		118	44.0	2.5	/experiments/Knapen_AOT/AOT_stimuli/rescaled_final/0895_fw.mp4	0.0	228.416011095047	0.9921402931213379
46	212.8902943134308	pulse	0	t		44.0	2.5	/experiments/Knapen_AOT/AOT_stimuli/rescaled_final/0895_fw.mp4	0.0	229.39133214950562	
46	212.9071135520935	movie	1		283	44.0	2.5	/experiments/Knapen_AOT/AOT_stimuli/rescaled_final/0895_fw.mp4	0.0	229.40815138816833	2.5000317096710205
46	214.49057292938232	pulse	1	t		44.0	2.5	/experiments/Knapen_AOT/AOT_stimuli/rescaled_final/0895_fw.mp4	0.0	230.99161076545715	
46	215.40714526176453	fix_post	2		12	44.0	2.5	/experiments/Knapen_AOT/AOT_stimuli/rescaled_final/0895_fw.mp4	0.0	231.90818309783936	0.10009121894836426
47	215.5072364807129	fix_pre	0		120	45.0	2.5	/experiments/Knapen_AOT/AOT_stimuli/rescaled_final/0687_rv.mp4	0.0	232.00827431678772	1.008443832397461
47	216.09082865715027	pulse	0	t		45.0	2.5	/experiments/Knapen_AOT/AOT_stimuli/rescaled_final/0687_rv.mp4	0.0	232.5918664932251	
47	216.51568031311035	movie	1		270	45.0	2.5	/experiments/Knapen_AOT/AOT_stimuli/rescaled_final/0687_rv.mp4	0.0	233.01671814918518	2.492061138153076
47	217.69106674194336	pulse	1	t		45.0	2.5	/experiments/Knapen_AOT/AOT_stimuli/rescaled_final/0687_rv.mp4	0.0	234.1921045780182	
47	219.00774145126343	fix_post	2		12	45.0	2.5	/experiments/Knapen_AOT/AOT_stimuli/rescaled_final/0687_rv.mp4	0.0	235.50877928733826	0.10003066062927246
48	219.1077721118927	fix_pre	0		120	46.0	2.5	/experiments/Knapen_AOT/AOT_stimuli/rescaled_final/1609_rv.mp4	0.0	235.60880994796753	1.0084476470947266
48	219.29137682914734	pulse	0	t		46.0	2.5	/experiments/Knapen_AOT/AOT_stimuli/rescaled_final/1609_rv.mp4	0.0	235.79241466522217	
48	220.11621975898743	movie	1		269	46.0	2.5	/experiments/Knapen_AOT/AOT_stimuli/rescaled_final/1609_rv.mp4	0.0	236.61725759506226	2.4920105934143066
48	220.88997435569763	pulse	1	t		46.0	2.5	/experiments/Knapen_AOT/AOT_stimuli/rescaled_final/1609_rv.mp4	0.0	237.39101219177246	
48	222.49010014533997	pulse	1	t		46.0	2.5	/experiments/Knapen_AOT/AOT_stimuli/rescaled_final/1609_rv.mp4	0.0	238.9911379814148	
48	222.60823035240173	fix_post	2		12	46.0	2.5	/experiments/Knapen_AOT/AOT_stimuli/rescaled_final/1609_rv.mp4	0.0	239.10926818847656	0.10007023811340332
49	222.70830059051514	fix_pre	0		120	47.0	2.5	blank	1.0	239.20933842658997	1.0000839233398438
49	223.70838451385498	movie	1		300	47.0	2.5	blank	1.0	240.2094223499298	2.5004067420959473
49	224.09200310707092	pulse	1	t		47.0	2.5	blank	1.0	240.59304094314575	
49	225.69231510162354	pulse	1	t		47.0	2.5	blank	1.0	242.19335293769836	
49	226.20879125595093	fix_post	2		12	47.0	2.5	blank	1.0	242.70982909202576	0.10006952285766602
50	226.3088607788086	fix_pre	0		119	48.0	2.5	/experiments/Knapen_AOT/AOT_stimuli/rescaled_final/2063_rv.mp4	0.0	242.80989861488342	1.0000903606414795
50	227.2925169467926	pulse	0	t		48.0	2.5	/experiments/Knapen_AOT/AOT_stimuli/rescaled_final/2063_rv.mp4	0.0	243.79355478286743	
50	227.30895113945007	movie	1		268	48.0	2.5	/experiments/Knapen_AOT/AOT_stimuli/rescaled_final/2063_rv.mp4	0.0	243.8099889755249	2.5003514289855957
50	228.89222693443298	pulse	1	t		48.0	2.5	/experiments/Knapen_AOT/AOT_stimuli/rescaled_final/2063_rv.mp4	0.0	245.3932647705078	
50	229.80930256843567	fix_post	2		12	48.0	2.5	/experiments/Knapen_AOT/AOT_stimuli/rescaled_final/2063_rv.mp4	0.0	246.3103404045105	0.10003495216369629
51	229.90933752059937	fix_pre	0		120	49.0	2.5	/experiments/Knapen_AOT/AOT_stimuli/rescaled_final/1192_fw.mp4	0.0	246.4103753566742	1.0085084438323975
51	230.493070602417	pulse	0	t		49.0	2.5	/experiments/Knapen_AOT/AOT_stimuli/rescaled_final/1192_fw.mp4	0.0	246.99410843849182	
51	230.91784596443176	movie	1		287	49.0	2.5	/experiments/Knapen_AOT/AOT_stimuli/rescaled_final/1192_fw.mp4	0.0	247.4188838005066	2.4920101165771484
51	232.09198117256165	pulse	1	t		49.0	2.5	/experiments/Knapen_AOT/AOT_stimuli/rescaled_final/1192_fw.mp4	0.0	248.59301900863647	
51	233.4098560810089	fix_post	2		12	49.0	2.5	/experiments/Knapen_AOT/AOT_stimuli/rescaled_final/1192_fw.mp4	0.0	249.91089391708374	0.1000516414642334
52	233.50990772247314	fix_pre	0		120	50.0	2.5	/experiments/Knapen_AOT/AOT_stimuli/rescaled_final/1848_rv.mp4	0.0	250.01094555854797	1.008565902709961
52	233.69346070289612	pulse	0	t		50.0	2.5	/experiments/Knapen_AOT/AOT_stimuli/rescaled_final/1848_rv.mp4	0.0	250.19449853897095	
52	234.5184736251831	movie	1		278	50.0	2.5	/experiments/Knapen_AOT/AOT_stimuli/rescaled_final/1848_rv.mp4	0.0	251.01951146125793	2.491931438446045
52	235.29144287109375	pulse	1	t		50.0	2.5	/experiments/Knapen_AOT/AOT_stimuli/rescaled_final/1848_rv.mp4	0.0	251.79248070716858	
52	236.8921799659729	pulse	1	t		50.0	2.5	/experiments/Knapen_AOT/AOT_stimuli/rescaled_final/1848_rv.mp4	0.0	253.39321780204773	
52	237.01040506362915	fix_post	2		12	50.0	2.5	/experiments/Knapen_AOT/AOT_stimuli/rescaled_final/1848_rv.mp4	0.0	253.51144289970398	0.09999299049377441
53	237.11039805412292	fix_pre	0		120	51.0	2.5	/experiments/Knapen_AOT/AOT_stimuli/rescaled_final/1665_fw.mp4	0.0	253.61143589019775	1.0085132122039795
53	238.1189112663269	movie	1		291	51.0	2.5	/experiments/Knapen_AOT/AOT_stimuli/rescaled_final/1665_fw.mp4	0.0	254.61994910240173	2.4920263290405273
53	238.49275040626526	pulse	1	t		51.0	2.5	/experiments/Knapen_AOT/AOT_stimuli/rescaled_final/1665_fw.mp4	0.0	254.9937882423401	
53	240.09251618385315	pulse	1	t		51.0	2.5	/experiments/Knapen_AOT/AOT_stimuli/rescaled_final/1665_fw.mp4	0.0	256.593554019928	
53	240.61093759536743	fix_post	2		12	51.0	2.5	/experiments/Knapen_AOT/AOT_stimuli/rescaled_final/1665_fw.mp4	0.0	257.11197543144226	0.10002517700195312
54	240.71096277236938	fix_pre	0		119	52.0	2.5	/experiments/Knapen_AOT/AOT_stimuli/rescaled_final/1744_fw.mp4	0.0	257.2120006084442	1.0001497268676758
54	241.6946930885315	pulse	0	t		52.0	2.5	/experiments/Knapen_AOT/AOT_stimuli/rescaled_final/1744_fw.mp4	0.0	258.1957309246063	
54	241.71111249923706	movie	1		282	52.0	2.5	/experiments/Knapen_AOT/AOT_stimuli/rescaled_final/1744_fw.mp4	0.0	258.2121503353119	2.500363349914551
54	243.2934787273407	pulse	1	t		52.0	2.5	/experiments/Knapen_AOT/AOT_stimuli/rescaled_final/1744_fw.mp4	0.0	259.7945165634155	
54	244.2114758491516	fix_post	2		12	52.0	2.5	/experiments/Knapen_AOT/AOT_stimuli/rescaled_final/1744_fw.mp4	0.0	260.71251368522644	0.10001993179321289
55	244.31149578094482	fix_pre	0		120	53.0	2.5	/experiments/Knapen_AOT/AOT_stimuli/rescaled_final/0481_rv.mp4	0.0	260.81253361701965	1.00850510597229
55	244.89513421058655	pulse	0	t		53.0	2.5	/experiments/Knapen_AOT/AOT_stimuli/rescaled_final/0481_rv.mp4	0.0	261.3961720466614	
55	245.32000088691711	movie	1		267	53.0	2.5	/experiments/Knapen_AOT/AOT_stimuli/rescaled_final/0481_rv.mp4	0.0	261.82103872299194	2.4920201301574707
55	246.49347591400146	pulse	1	t		53.0	2.5	/experiments/Knapen_AOT/AOT_stimuli/rescaled_final/0481_rv.mp4	0.0	262.9945137500763	
55	247.81202101707458	fix_post	2		12	53.0	2.5	/experiments/Knapen_AOT/AOT_stimuli/rescaled_final/0481_rv.mp4	0.0	264.3130588531494	0.10015678405761719
56	247.9121778011322	fix_pre	0		120	54.0	2.5	blank	1.0	264.41321563720703	1.0000736713409424
56	248.09574627876282	pulse	0	t		54.0	2.5	blank	1.0	264.59678411483765	
56	248.91225147247314	movie	1		300	54.0	2.5	blank	1.0	265.413289308548	2.5003390312194824
56	249.69583749771118	pulse	1	t		54.0	2.5	blank	1.0	266.196875333786	
56	251.296204328537	pulse	1	t		54.0	2.5	blank	1.0	267.7972421646118	
56	251.41259050369263	fix_post	2		12	54.0	2.5	blank	1.0	267.91362833976746	0.10004162788391113
57	251.51263213157654	fix_pre	0		120	55.0	2.5	/experiments/Knapen_AOT/AOT_stimuli/rescaled_final/1665_rv.mp4	0.0	268.01366996765137	1.0084338188171387
57	252.52106595039368	movie	1		274	55.0	2.5	/experiments/Knapen_AOT/AOT_stimuli/rescaled_final/1665_rv.mp4	0.0	269.0221037864685	2.4920427799224854
57	252.89577865600586	pulse	1	t		55.0	2.5	/experiments/Knapen_AOT/AOT_stimuli/rescaled_final/1665_rv.mp4	0.0	269.3968164920807	
57	254.49518609046936	pulse	1	t		55.0	2.5	/experiments/Knapen_AOT/AOT_stimuli/rescaled_final/1665_rv.mp4	0.0	270.9962239265442	
57	255.01310873031616	fix_post	2		12	55.0	2.5	/experiments/Knapen_AOT/AOT_stimuli/rescaled_final/1665_rv.mp4	0.0	271.514146566391	0.09998893737792969
58	255.1130976676941	fix_pre	0		119	56.0	2.5	/experiments/Knapen_AOT/AOT_stimuli/rescaled_final/1370_fw.mp4	0.0	271.6141355037689	1.0001723766326904
58	256.0971348285675	pulse	0	t		56.0	2.5	/experiments/Knapen_AOT/AOT_stimuli/rescaled_final/1370_fw.mp4	0.0	272.59817266464233	
58	256.1132700443268	movie	1		251	56.0	2.5	/experiments/Knapen_AOT/AOT_stimuli/rescaled_final/1370_fw.mp4	0.0	272.6143078804016	2.500375986099243
58	257.6887683868408	pulse	1	t		56.0	2.5	/experiments/Knapen_AOT/AOT_stimuli/rescaled_final/1370_fw.mp4	0.0	274.18980622291565	
58	258.613646030426	fix_post	2		12	56.0	2.5	/experiments/Knapen_AOT/AOT_stimuli/rescaled_final/1370_fw.mp4	0.0	275.11468386650085	0.10000443458557129
59	258.7136504650116	fix_pre	0		120	57.0	2.5	/experiments/Knapen_AOT/AOT_stimuli/rescaled_final/1973_rv.mp4	0.0	275.2146883010864	1.0085158348083496
59	259.28959465026855	pulse	0	t		57.0	2.5	/experiments/Knapen_AOT/AOT_stimuli/rescaled_final/1973_rv.mp4	0.0	275.7906324863434	
59	259.72216629981995	movie	1		275	57.0	2.5	/experiments/Knapen_AOT/AOT_stimuli/rescaled_final/1973_rv.mp4	0.0	276.2232041358948	2.4920122623443604
59	260.8893747329712	pulse	1	t		57.0	2.5	/experiments/Knapen_AOT/AOT_stimuli/rescaled_final/1973_rv.mp4	0.0	277.390412569046	
59	262.2141785621643	fix_post	2		12	57.0	2.5	/experiments/Knapen_AOT/AOT_stimuli/rescaled_final/1973_rv.mp4	0.0	278.71521639823914	0.1000978946685791
60	262.3142764568329	fix_pre	0		120	58.0	2.5	/experiments/Knapen_AOT/AOT_stimuli/rescaled_final/1291_fw.mp4	0.0	278.8153142929077	1.008408546447754
60	262.4895372390747	pulse	0	t		58.0	2.5	/experiments/Knapen_AOT/AOT_stimuli/rescaled_final/1291_fw.mp4	0.0	278.99057507514954	
60	263.32268500328064	movie	1		269	58.0	2.5	/experiments/Knapen_AOT/AOT_stimuli/rescaled_final/1291_fw.mp4	0.0	279.82372283935547	2.4920411109924316
60	264.0889399051666	pulse	1	t		58.0	2.5	/experiments/Knapen_AOT/AOT_stimuli/rescaled_final/1291_fw.mp4	0.0	280.58997774124146	
60	265.6903131008148	pulse	1	t		58.0	2.5	/experiments/Knapen_AOT/AOT_stimuli/rescaled_final/1291_fw.mp4	0.0	282.19135093688965	
60	265.81472611427307	fix_post	2		12	58.0	2.5	/experiments/Knapen_AOT/AOT_stimuli/rescaled_final/1291_fw.mp4	0.0	282.3157639503479	0.10002517700195312
61	265.914751291275	fix_pre	0		120	59.0	2.5	/experiments/Knapen_AOT/AOT_stimuli/rescaled_final/1199_rv.mp4	0.0	282.41578912734985	1.0085227489471436
61	266.92327404022217	movie	1		289	59.0	2.5	/experiments/Knapen_AOT/AOT_stimuli/rescaled_final/1199_rv.mp4	0.0	283.424311876297	2.4920270442962646
61	267.29017972946167	pulse	1	t		59.0	2.5	/experiments/Knapen_AOT/AOT_stimuli/rescaled_final/1199_rv.mp4	0.0	283.7912175655365	
61	268.8906648159027	pulse	1	t		59.0	2.5	/experiments/Knapen_AOT/AOT_stimuli/rescaled_final/1199_rv.mp4	0.0	285.39170265197754	
61	269.41530108451843	fix_post	2		12	59.0	2.5	/experiments/Knapen_AOT/AOT_stimuli/rescaled_final/1199_rv.mp4	0.0	285.91633892059326	0.09998202323913574
62	269.51528310775757	fix_pre	0		118	60.0	2.5	/experiments/Knapen_AOT/AOT_stimuli/rescaled_final/2179_fw.mp4	0.0	286.0163209438324	0.991823673248291
62	270.4906120300293	pulse	0	t		60.0	2.5	/experiments/Knapen_AOT/AOT_stimuli/rescaled_final/2179_fw.mp4	0.0	286.9916498661041	
62	270.50710678100586	movie	1		279	60.0	2.5	/experiments/Knapen_AOT/AOT_stimuli/rescaled_final/2179_fw.mp4	0.0	287.0081446170807	2.500344753265381
62	272.08935046195984	pulse	1	t		60.0	2.5	/experiments/Knapen_AOT/AOT_stimuli/rescaled_final/2179_fw.mp4	0.0	288.59038829803467	
62	273.00745153427124	fix_post	2		12	60.0	2.5	/experiments/Knapen_AOT/AOT_stimuli/rescaled_final/2179_fw.mp4	0.0	289.50848937034607	0.10002517700195312
63	273.1074767112732	fix_pre	0		120	61.0	2.5	/experiments/Knapen_AOT/AOT_stimuli/rescaled_final/0991_fw.mp4	0.0	289.608514547348	1.008545160293579
63	273.69113779067993	pulse	0	t		61.0	2.5	/experiments/Knapen_AOT/AOT_stimuli/rescaled_final/0991_fw.mp4	0.0	290.19217562675476	
63	274.1160218715668	movie	1		272	61.0	2.5	/experiments/Knapen_AOT/AOT_stimuli/rescaled_final/0991_fw.mp4	0.0	290.6170597076416	2.4920051097869873
63	275.2899651527405	pulse	1	t		61.0	2.5	/experiments/Knapen_AOT/AOT_stimuli/rescaled_final/0991_fw.mp4	0.0	291.7910029888153	
63	276.60802698135376	fix_post	2		12	61.0	2.5	/experiments/Knapen_AOT/AOT_stimuli/rescaled_final/0991_fw.mp4	0.0	293.1090648174286	0.1001291275024414
64	276.7081561088562	fix_pre	0		120	62.0	2.5	/experiments/Knapen_AOT/AOT_stimuli/rescaled_final/1093_fw.mp4	0.0	293.20919394493103	1.008392095565796
64	276.8917145729065	pulse	0	t		62.0	2.5	/experiments/Knapen_AOT/AOT_stimuli/rescaled_final/1093_fw.mp4	0.0	293.3927524089813	
64	277.716548204422	movie	1		270	62.0	2.5	/experiments/Knapen_AOT/AOT_stimuli/rescaled_final/1093_fw.mp4	0.0	294.2175860404968	2.492006778717041
64	278.49103808403015	pulse	1	t		62.0	2.5	/experiments/Knapen_AOT/AOT_stimuli/rescaled_final/1093_fw.mp4	0.0	294.992075920105	
64	280.09042835235596	pulse	1	t		62.0	2.5	/experiments/Knapen_AOT/AOT_stimuli/rescaled_final/1093_fw.mp4	0.0	296.5914661884308	
64	280.20855498313904	fix_post	2		12	62.0	2.5	/experiments/Knapen_AOT/AOT_stimuli/rescaled_final/1093_fw.mp4	0.0	296.70959281921387	0.1000216007232666
65	280.3085765838623	fix_pre	0		120	63.0	2.5	blank	1.0	296.80961441993713	1.0001347064971924
65	281.3087112903595	movie	1		300	63.0	2.5	blank	1.0	297.8097491264343	2.5003697872161865
65	281.69230008125305	pulse	1	t		63.0	2.5	blank	1.0	298.1933379173279	
65	283.2925283908844	pulse	1	t		63.0	2.5	blank	1.0	299.79356622695923	
65	283.8090810775757	fix_post	2		12	63.0	2.5	blank	1.0	300.3101189136505	0.1000361442565918
66	283.9091172218323	fix_pre	0		119	64.0	2.5	/experiments/Knapen_AOT/AOT_stimuli/rescaled_final/0837_fw.mp4	0.0	300.4101550579071	1.0085129737854004
66	284.89291501045227	pulse	0	t		64.0	2.5	/experiments/Knapen_AOT/AOT_stimuli/rescaled_final/0837_fw.mp4	0.0	301.3939528465271	
66	284.9176301956177	movie	1		268	64.0	2.5	/experiments/Knapen_AOT/AOT_stimuli/rescaled_final/0837_fw.mp4	0.0	301.4186680316925	2.4919934272766113
66	286.49208784103394	pulse	1	t		64.0	2.5	/experiments/Knapen_AOT/AOT_stimuli/rescaled_final/0837_fw.mp4	0.0	302.99312567710876	
66	287.4096236228943	fix_post	2		12	64.0	2.5	/experiments/Knapen_AOT/AOT_stimuli/rescaled_final/0837_fw.mp4	0.0	303.9106614589691	0.10003829002380371
67	287.5096619129181	fix_pre	0		120	65.0	2.5	/experiments/Knapen_AOT/AOT_stimuli/rescaled_final/0925_rv.mp4	0.0	304.0106997489929	1.0085492134094238
67	288.0933241844177	pulse	0	t		65.0	2.5	/experiments/Knapen_AOT/AOT_stimuli/rescaled_final/0925_rv.mp4	0.0	304.59436202049255	
67	288.5182111263275	movie	1		283	65.0	2.5	/experiments/Knapen_AOT/AOT_stimuli/rescaled_final/0925_rv.mp4	0.0	305.01924896240234	2.4920010566711426
67	289.6922092437744	pulse	1	t		65.0	2.5	/experiments/Knapen_AOT/AOT_stimuli/rescaled_final/0925_rv.mp4	0.0	306.19324707984924	
67	291.01021218299866	fix_post	2		12	65.0	2.5	/experiments/Knapen_AOT/AOT_stimuli/rescaled_final/0925_rv.mp4	0.0	307.5112500190735	0.10001587867736816
68	291.110228061676	fix_pre	0		120	66.0	2.5	/experiments/Knapen_AOT/AOT_stimuli/rescaled_final/0081_fw.mp4	0.0	307.61126589775085	1.0084547996520996
68	291.2937824726105	pulse	0	t		66.0	2.5	/experiments/Knapen_AOT/AOT_stimuli/rescaled_final/0081_fw.mp4	0.0	307.7948203086853	
68	292.1186828613281	movie	1		261	66.0	2.5	/experiments/Knapen_AOT/AOT_stimuli/rescaled_final/0081_fw.mp4	0.0	308.61972069740295	2.49210262298584
68	292.892019033432	pulse	1	t		66.0	2.5	/experiments/Knapen_AOT/AOT_stimuli/rescaled_final/0081_fw.mp4	0.0	309.39305686950684	
68	294.49287486076355	pulse	1	t		66.0	2.5	/experiments/Knapen_AOT/AOT_stimuli/rescaled_final/0081_fw.mp4	0.0	310.9939126968384	
68	294.61078548431396	fix_post	2		12	66.0	2.5	/experiments/Knapen_AOT/AOT_stimuli/rescaled_final/0081_fw.mp4	0.0	311.1118233203888	0.09999585151672363
69	294.7107813358307	fix_pre	0		120	67.0	2.5	/experiments/Knapen_AOT/AOT_stimuli/rescaled_final/1435_rv.mp4	0.0	311.2118191719055	1.0084657669067383
69	295.7192471027374	movie	1		272	67.0	2.5	/experiments/Knapen_AOT/AOT_stimuli/rescaled_final/1435_rv.mp4	0.0	312.22028493881226	2.4919910430908203
69	296.0946133136749	pulse	1	t		67.0	2.5	/experiments/Knapen_AOT/AOT_stimuli/rescaled_final/1435_rv.mp4	0.0	312.59565114974976	
69	297.69310426712036	pulse	1	t		67.0	2.5	/experiments/Knapen_AOT/AOT_stimuli/rescaled_final/1435_rv.mp4	0.0	314.1941421031952	
69	298.21123814582825	fix_post	2		12	67.0	2.5	/experiments/Knapen_AOT/AOT_stimuli/rescaled_final/1435_rv.mp4	0.0	314.7122759819031	0.10007882118225098
70	298.3113169670105	fix_pre	0		119	68.0	2.5	/experiments/Knapen_AOT/AOT_stimuli/rescaled_final/1914_rv.mp4	0.0	314.8123548030853	1.0001814365386963
70	299.29504585266113	pulse	0	t		68.0	2.5	/experiments/Knapen_AOT/AOT_stimuli/rescaled_final/1914_rv.mp4	0.0	315.79608368873596	
70	299.3114984035492	movie	1		285	68.0	2.5	/experiments/Knapen_AOT/AOT_stimuli/rescaled_final/1914_rv.mp4	0.0	315.812536239624	2.500295639038086
70	300.8938388824463	pulse	1	t		68.0	2.5	/experiments/Knapen_AOT/AOT_stimuli/rescaled_final/1914_rv.mp4	0.0	317.3948767185211	
70	301.8117940425873	fix_post	2		12	68.0	2.5	/experiments/Knapen_AOT/AOT_stimuli/rescaled_final/1914_rv.mp4	0.0	318.3128318786621	0.10001683235168457
71	301.91181087493896	fix_pre	0		120	69.0	2.5	/experiments/Knapen_AOT/AOT_stimuli/rescaled_final/0983_fw.mp4	0.0	318.4128487110138	1.0085129737854004
71	302.49549555778503	pulse	0	t		69.0	2.5	/experiments/Knapen_AOT/AOT_stimuli/rescaled_final/0983_fw.mp4	0.0	318.99653339385986	
71	302.92032384872437	movie	1		271	69.0	2.5	/experiments/Knapen_AOT/AOT_stimuli/rescaled_final/0983_fw.mp4	0.0	319.4213616847992	2.49208664894104
71	304.0941879749298	pulse	1	t		69.0	2.5	/experiments/Knapen_AOT/AOT_stimuli/rescaled_final/0983_fw.mp4	0.0	320.59522581100464	
71	305.4124104976654	fix_post	2		12	69.0	2.5	/experiments/Knapen_AOT/AOT_stimuli/rescaled_final/0983_fw.mp4	0.0	321.91344833374023	0.09994935989379883
72	305.5123598575592	fix_pre	0		120	70.0	2.5	blank	1.0	322.01339769363403	1.0001435279846191
72	305.6960551738739	pulse	0	t		70.0	2.5	blank	1.0	322.19709300994873	
72	306.5125033855438	movie	1		300	70.0	2.5	blank	1.0	323.01354122161865	2.500392436981201
72	307.29620933532715	pulse	1	t		70.0	2.5	blank	1.0	323.797247171402	
72	308.8964149951935	pulse	1	t		70.0	2.5	blank	1.0	325.3974528312683	
72	309.012895822525	fix_post	2		12	70.0	2.5	blank	1.0	325.51393365859985	0.10003495216369629
73	309.1129307746887	fix_pre	0		120	71.0	2.5	/experiments/Knapen_AOT/AOT_stimuli/rescaled_final/1125_rv.mp4	0.0	325.61396861076355	1.0084917545318604
73	310.1214225292206	movie	1		258	71.0	2.5	/experiments/Knapen_AOT/AOT_stimuli/rescaled_final/1125_rv.mp4	0.0	326.6224603652954	2.491999387741089
73	310.495356798172	pulse	1	t		71.0	2.5	/experiments/Knapen_AOT/AOT_stimuli/rescaled_final/1125_rv.mp4	0.0	326.9963946342468	
73	312.0947115421295	pulse	1	t		71.0	2.5	/experiments/Knapen_AOT/AOT_stimuli/rescaled_final/1125_rv.mp4	0.0	328.59574937820435	
73	312.61342191696167	fix_post	2		12	71.0	2.5	/experiments/Knapen_AOT/AOT_stimuli/rescaled_final/1125_rv.mp4	0.0	329.1144597530365	0.10001540184020996
74	312.7134373188019	fix_pre	0		118	72.0	2.5	/experiments/Knapen_AOT/AOT_stimuli/rescaled_final/1840_rv.mp4	0.0	329.2144751548767	0.9920623302459717
74	313.6893036365509	pulse	0	t		72.0	2.5	/experiments/Knapen_AOT/AOT_stimuli/rescaled_final/1840_rv.mp4	0.0	330.19034147262573	
74	313.70549964904785	movie	1		283	72.0	2.5	/experiments/Knapen_AOT/AOT_stimuli/rescaled_final/1840_rv.mp4	0.0	330.2065374851227	2.5001301765441895
74	315.28933572769165	pulse	1	t		72.0	2.5	/experiments/Knapen_AOT/AOT_stimuli/rescaled_final/1840_rv.mp4	0.0	331.7903735637665	
74	316.20562982559204	fix_post	2		12	72.0	2.5	/experiments/Knapen_AOT/AOT_stimuli/rescaled_final/1840_rv.mp4	0.0	332.70666766166687	0.10003399848937988
75	316.3056638240814	fix_pre	0		120	73.0	2.5	/experiments/Knapen_AOT/AOT_stimuli/rescaled_final/0326_fw.mp4	0.0	332.80670166015625	1.0084717273712158
75	316.88927960395813	pulse	0	t		73.0	2.5	/experiments/Knapen_AOT/AOT_stimuli/rescaled_final/0326_fw.mp4	0.0	333.39031744003296	
75	317.31413555145264	movie	1		274	73.0	2.5	/experiments/Knapen_AOT/AOT_stimuli/rescaled_final/0326_fw.mp4	0.0	333.81517338752747	2.492037296295166
75	318.4896137714386	pulse	1	t		73.0	2.5	/experiments/Knapen_AOT/AOT_stimuli/rescaled_final/0326_fw.mp4	0.0	334.9906516075134	
75	319.8061728477478	fix_post	2		12	73.0	2.5	/experiments/Knapen_AOT/AOT_stimuli/rescaled_final/0326_fw.mp4	0.0	336.30721068382263	0.10001540184020996
76	319.906188249588	fix_pre	0		120	74.0	2.5	/experiments/Knapen_AOT/AOT_stimuli/rescaled_final/1464_fw.mp4	0.0	336.40722608566284	1.008514404296875
76	320.0897355079651	pulse	0	t		74.0	2.5	/experiments/Knapen_AOT/AOT_stimuli/rescaled_final/1464_fw.mp4	0.0	336.5907733440399	
76	320.9147026538849	movie	1		286	74.0	2.5	/experiments/Knapen_AOT/AOT_stimuli/rescaled_final/1464_fw.mp4	0.0	337.4157404899597	2.4920167922973633
76	321.6901092529297	pulse	1	t		74.0	2.5	/experiments/Knapen_AOT/AOT_stimuli/rescaled_final/1464_fw.mp4	0.0	338.1911470890045	
76	323.29025411605835	pulse	1	t		74.0	2.5	/experiments/Knapen_AOT/AOT_stimuli/rescaled_final/1464_fw.mp4	0.0	339.7912919521332	
76	323.40671944618225	fix_post	2		12	74.0	2.5	/experiments/Knapen_AOT/AOT_stimuli/rescaled_final/1464_fw.mp4	0.0	339.9077572822571	0.1000220775604248
77	323.5067415237427	fix_pre	0		120	75.0	2.5	/experiments/Knapen_AOT/AOT_stimuli/rescaled_final/0240_rv.mp4	0.0	340.0077793598175	1.0085041522979736
77	324.51524567604065	movie	1		285	75.0	2.5	/experiments/Knapen_AOT/AOT_stimuli/rescaled_final/0240_rv.mp4	0.0	341.0162835121155	2.492001533508301
77	324.8906936645508	pulse	1	t		75.0	2.5	/experiments/Knapen_AOT/AOT_stimuli/rescaled_final/0240_rv.mp4	0.0	341.3917315006256	
77	326.4909098148346	pulse	1	t		75.0	2.5	/experiments/Knapen_AOT/AOT_stimuli/rescaled_final/0240_rv.mp4	0.0	342.9919476509094	
77	327.00724720954895	fix_post	2		12	75.0	2.5	/experiments/Knapen_AOT/AOT_stimuli/rescaled_final/0240_rv.mp4	0.0	343.5082850456238	0.10008978843688965
78	327.10733699798584	fix_pre	0		119	76.0	2.5	blank	1.0	343.60837483406067	0.9917323589324951
78	328.09117579460144	pulse	0	t		76.0	2.5	blank	1.0	344.59221363067627	
78	328.09906935691833	movie	1		301	76.0	2.5	blank	1.0	344.60010719299316	2.5087287425994873
78	329.69120597839355	pulse	1	t		76.0	2.5	blank	1.0	346.1922438144684	
78	330.6077980995178	fix_post	2		12	76.0	2.5	blank	1.0	347.10883593559265	0.09998464584350586
79	330.7077827453613	fix_pre	0		120	77.0	2.5	/experiments/Knapen_AOT/AOT_stimuli/rescaled_final/1658_fw.mp4	0.0	347.20882058143616	1.0085322856903076
79	331.29173970222473	pulse	0	t		77.0	2.5	/experiments/Knapen_AOT/AOT_stimuli/rescaled_final/1658_fw.mp4	0.0	347.79277753829956	
79	331.71631503105164	movie	1		274	77.0	2.5	/experiments/Knapen_AOT/AOT_stimuli/rescaled_final/1658_fw.mp4	0.0	348.21735286712646	2.4920194149017334
79	332.8901472091675	pulse	1	t		77.0	2.5	/experiments/Knapen_AOT/AOT_stimuli/rescaled_final/1658_fw.mp4	0.0	349.3911850452423	
79	334.20833444595337	fix_post	2		12	77.0	2.5	/experiments/Knapen_AOT/AOT_stimuli/rescaled_final/1658_fw.mp4	0.0	350.7093722820282	0.1000514030456543
80	334.308385848999	fix_pre	0		120	78.0	2.5	/experiments/Knapen_AOT/AOT_stimuli/rescaled_final/2094_rv.mp4	0.0	350.80942368507385	1.0084648132324219
80	334.49194717407227	pulse	0	t		78.0	2.5	/experiments/Knapen_AOT/AOT_stimuli/rescaled_final/2094_rv.mp4	0.0	350.9929850101471	
80	335.31685066223145	movie	1		268	78.0	2.5	/experiments/Knapen_AOT/AOT_stimuli/rescaled_final/2094_rv.mp4	0.0	351.8178884983063	2.492018461227417
80	336.0925250053406	pulse	1	t		78.0	2.5	/experiments/Knapen_AOT/AOT_stimuli/rescaled_final/2094_rv.mp4	0.0	352.5935628414154	
80	337.69226574897766	pulse	1	t		78.0	2.5	/experiments/Knapen_AOT/AOT_stimuli/rescaled_final/2094_rv.mp4	0.0	354.1933035850525	
80	337.80886912345886	fix_post	2		12	78.0	2.5	/experiments/Knapen_AOT/AOT_stimuli/rescaled_final/2094_rv.mp4	0.0	354.3099069595337	0.10010004043579102
81	337.90896916389465	fix_pre	0		120	79.0	2.5	/experiments/Knapen_AOT/AOT_stimuli/rescaled_final/1369_fw.mp4	0.0	354.4100069999695	1.008552074432373
81	338.917521238327	movie	1		270	79.0	2.5	/experiments/Knapen_AOT/AOT_stimuli/rescaled_final/1369_fw.mp4	0.0	355.41855907440186	2.49188494682312
81	339.29325008392334	pulse	1	t		79.0	2.5	/experiments/Knapen_AOT/AOT_stimuli/rescaled_final/1369_fw.mp4	0.0	355.79428791999817	
81	340.8908579349518	pulse	1	t		79.0	2.5	/experiments/Knapen_AOT/AOT_stimuli/rescaled_final/1369_fw.mp4	0.0	357.3918957710266	
81	341.40940618515015	fix_post	2		12	79.0	2.5	/experiments/Knapen_AOT/AOT_stimuli/rescaled_final/1369_fw.mp4	0.0	357.910444021225	0.1000676155090332
82	341.5094738006592	fix_pre	0		119	80.0	2.5	/experiments/Knapen_AOT/AOT_stimuli/rescaled_final/1702_fw.mp4	0.0	358.010511636734	1.0001394748687744
82	342.493159532547	pulse	0	t		80.0	2.5	/experiments/Knapen_AOT/AOT_stimuli/rescaled_final/1702_fw.mp4	0.0	358.9941973686218	
82	342.50961327552795	movie	1		278	80.0	2.5	/experiments/Knapen_AOT/AOT_stimuli/rescaled_final/1702_fw.mp4	0.0	359.0106511116028	2.5003812313079834
82	344.0927803516388	pulse	1	t		80.0	2.5	/experiments/Knapen_AOT/AOT_stimuli/rescaled_final/1702_fw.mp4	0.0	360.5938181877136	
82	345.00999450683594	fix_post	2		12	80.0	2.5	/experiments/Knapen_AOT/AOT_stimuli/rescaled_final/1702_fw.mp4	0.0	361.51103234291077	0.10000896453857422
83	345.1100034713745	fix_pre	0		120	81.0	2.5	/experiments/Knapen_AOT/AOT_stimuli/rescaled_final/1923_rv.mp4	0.0	361.61104130744934	1.0084514617919922
83	345.69407749176025	pulse	0	t		81.0	2.5	/experiments/Knapen_AOT/AOT_stimuli/rescaled_final/1923_rv.mp4	0.0	362.1951153278351	
83	346.1184549331665	movie	1		271	81.0	2.5	/experiments/Knapen_AOT/AOT_stimuli/rescaled_final/1923_rv.mp4	0.0	362.61949276924133	2.492121458053589
83	347.29248785972595	pulse	1	t		81.0	2.5	/experiments/Knapen_AOT/AOT_stimuli/rescaled_final/1923_rv.mp4	0.0	363.7935256958008	
83	348.6105763912201	fix_post	2		12	81.0	2.5	/experiments/Knapen_AOT/AOT_stimuli/rescaled_final/1923_rv.mp4	0.0	365.1116142272949	0.10000085830688477
84	348.710577249527	fix_pre	0		120	82.0	2.5	blank	1.0	365.2116150856018	1.0001139640808105
84	348.89493227005005	pulse	0	t		82.0	2.5	blank	1.0	365.3959701061249	
84	349.7106912136078	movie	1		300	82.0	2.5	blank	1.0	366.2117290496826	2.5003349781036377
84	350.49493169784546	pulse	1	t		82.0	2.5	blank	1.0	366.9959695339203	
84	352.09494280815125	pulse	1	t		82.0	2.5	blank	1.0	368.5959806442261	
84	352.2110261917114	fix_post	2		12	82.0	2.5	blank	1.0	368.71206402778625	0.10003995895385742
85	352.3110661506653	fix_pre	0		120	83.0	2.5	/experiments/Knapen_AOT/AOT_stimuli/rescaled_final/0481_fw.mp4	0.0	368.8121039867401	1.0084729194641113
85	353.3195390701294	movie	1		278	83.0	2.5	/experiments/Knapen_AOT/AOT_stimuli/rescaled_final/0481_fw.mp4	0.0	369.8205769062042	2.492037057876587
85	353.69508600234985	pulse	1	t		83.0	2.5	/experiments/Knapen_AOT/AOT_stimuli/rescaled_final/0481_fw.mp4	0.0	370.1961238384247	
85	355.2930693626404	pulse	1	t		83.0	2.5	/experiments/Knapen_AOT/AOT_stimuli/rescaled_final/0481_fw.mp4	0.0	371.7941071987152	
85	355.811576128006	fix_post	2		12	83.0	2.5	/experiments/Knapen_AOT/AOT_stimuli/rescaled_final/0481_fw.mp4	0.0	372.3126139640808	0.10003113746643066
87	355.9116072654724	stim	0		1715					372.41264510154724	14.293813467025757
87	356.89529752731323	pulse	0	t						373.39633536338806	
87	358.49578285217285	pulse	0	t						374.9968206882477	
87	360.0961265563965	pulse	0	t						376.5971643924713	
87	361.69649386405945	pulse	0	t						378.1975317001343	
87	363.2967586517334	pulse	0	t						379.7977964878082	
87	364.89024901390076	pulse	0	t						381.3912868499756	
87	366.49005103111267	pulse	0	t						382.9910888671875	
87	368.0898849964142	pulse	0	t						384.590922832489	
87	369.6897475719452	pulse	0	t						386.19078540802	
