trial_nr	onset	event_type	phase	response	nr_frames	movie_index	movie_duration	movie_file	blank	onset_abs	duration
0	0.15828609466552734	stim	0		126					21.979517936706543	1.049880027770996
0	1.200167179107666	response	0	space						23.02139902114868	
1	1.2081661224365234	stim	0		4188					23.02939796447754	34.89992690086365
1	36.102397203445435	pulse	0	t						57.92362904548645	
1	36.10809302330017	stim	1		1717					57.92932486534119	14.308243036270142
1	37.700016021728516	pulse	1	t						59.52124786376953	
1	39.29984521865845	pulse	1	t						61.12107706069946	
1	40.899906158447266	pulse	1	t						62.72113800048828	
1	42.49993300437927	pulse	1	t						64.32116484642029	
1	44.09983420372009	pulse	1	t						65.92106604576111	
1	45.69979214668274	pulse	1	t						67.52102398872375	
1	47.29991006851196	pulse	1	t						69.12114191055298	
1	48.89995503425598	pulse	1	t						70.721186876297	
2	50.41633605957031	fix_pre	0		11	0.0	2.5	/experiments/AOT/AOT_stimuli/rescaled_final/0048_fw.mp4	0.0	72.23756790161133	0.09122514724731445
2	50.4994010925293	pulse	0	t		0.0	2.5	/experiments/AOT/AOT_stimuli/rescaled_final/0048_fw.mp4	0.0	72.32063293457031	
2	50.50756120681763	movie	1		244	0.0	2.5	/experiments/AOT/AOT_stimuli/rescaled_final/0048_fw.mp4	0.0	72.32879304885864	2.5089709758758545
2	52.09901022911072	pulse	1	t		0.0	2.5	/experiments/AOT/AOT_stimuli/rescaled_final/0048_fw.mp4	0.0	73.92024207115173	
2	53.01653218269348	fix_post	2		12	0.0	2.5	/experiments/AOT/AOT_stimuli/rescaled_final/0048_fw.mp4	0.0	74.8377640247345	0.10003185272216797
3	53.11656403541565	fix_pre	0		120	1.0	2.5	/experiments/AOT/AOT_stimuli/rescaled_final/0171_rv.mp4	0.0	74.93779587745667	0.9996981620788574
3	53.70014309883118	pulse	0	t		1.0	2.5	/experiments/AOT/AOT_stimuli/rescaled_final/0171_rv.mp4	0.0	75.52137494087219	
3	54.11626219749451	movie	1		242	1.0	2.5	/experiments/AOT/AOT_stimuli/rescaled_final/0171_rv.mp4	0.0	75.93749403953552	2.4996860027313232
3	55.29996299743652	pulse	1	t		1.0	2.5	/experiments/AOT/AOT_stimuli/rescaled_final/0171_rv.mp4	0.0	77.12119483947754	
3	56.61594820022583	fix_post	2		12	1.0	2.5	/experiments/AOT/AOT_stimuli/rescaled_final/0171_rv.mp4	0.0	78.43718004226685	0.10040593147277832
4	56.71635413169861	fix_pre	0		120	2.0	2.5	/experiments/AOT/AOT_stimuli/rescaled_final/0239_fw.mp4	0.0	78.53758597373962	0.9999849796295166
4	56.89985513687134	pulse	0	t		2.0	2.5	/experiments/AOT/AOT_stimuli/rescaled_final/0239_fw.mp4	0.0	78.72108697891235	
4	57.716339111328125	movie	1		244	2.0	2.5	/experiments/AOT/AOT_stimuli/rescaled_final/0239_fw.mp4	0.0	79.53757095336914	2.4999840259552
4	58.49966311454773	pulse	1	t		2.0	2.5	/experiments/AOT/AOT_stimuli/rescaled_final/0239_fw.mp4	0.0	80.32089495658875	
4	60.09849500656128	pulse	1	t		2.0	2.5	/experiments/AOT/AOT_stimuli/rescaled_final/0239_fw.mp4	0.0	81.9197268486023	
4	60.216323137283325	fix_post	2		12	2.0	2.5	/experiments/AOT/AOT_stimuli/rescaled_final/0239_fw.mp4	0.0	82.03755497932434	0.09996700286865234
5	60.31629014015198	fix_pre	0		120	3.0	2.5	/experiments/AOT/AOT_stimuli/rescaled_final/1651_fw.mp4	0.0	82.137521982193	0.999953031539917
5	61.316243171691895	movie	1		243	3.0	2.5	/experiments/AOT/AOT_stimuli/rescaled_final/1651_fw.mp4	0.0	83.13747501373291	2.500025987625122
5	61.69939112663269	pulse	1	t		3.0	2.5	/experiments/AOT/AOT_stimuli/rescaled_final/1651_fw.mp4	0.0	83.5206229686737	
5	63.29978322982788	pulse	1	t		3.0	2.5	/experiments/AOT/AOT_stimuli/rescaled_final/1651_fw.mp4	0.0	85.1210150718689	
5	63.81626915931702	fix_post	2		12	3.0	2.5	/experiments/AOT/AOT_stimuli/rescaled_final/1651_fw.mp4	0.0	85.63750100135803	0.09991598129272461
6	63.91618514060974	fix_pre	0		119	4.0	2.5	/experiments/AOT/AOT_stimuli/rescaled_final/0270_rv.mp4	0.0	85.73741698265076	0.9916930198669434
6	64.89967703819275	pulse	0	t		4.0	2.5	/experiments/AOT/AOT_stimuli/rescaled_final/0270_rv.mp4	0.0	86.72090888023376	
6	64.90787816047668	movie	1		246	4.0	2.5	/experiments/AOT/AOT_stimuli/rescaled_final/0270_rv.mp4	0.0	86.7291100025177	2.5083160400390625
6	66.49916410446167	pulse	1	t		4.0	2.5	/experiments/AOT/AOT_stimuli/rescaled_final/0270_rv.mp4	0.0	88.32039594650269	
6	67.41619420051575	fix_post	2		12	4.0	2.5	/experiments/AOT/AOT_stimuli/rescaled_final/0270_rv.mp4	0.0	89.23742604255676	0.09999990463256836
7	67.51619410514832	fix_pre	0		120	5.0	2.5	/experiments/AOT/AOT_stimuli/rescaled_final/0723_fw.mp4	0.0	89.33742594718933	1.0000889301300049
7	68.09965014457703	pulse	0	t		5.0	2.5	/experiments/AOT/AOT_stimuli/rescaled_final/0723_fw.mp4	0.0	89.92088198661804	
7	68.51628303527832	movie	1		246	5.0	2.5	/experiments/AOT/AOT_stimuli/rescaled_final/0723_fw.mp4	0.0	90.33751487731934	2.500019073486328
7	69.69976806640625	pulse	1	t		5.0	2.5	/experiments/AOT/AOT_stimuli/rescaled_final/0723_fw.mp4	0.0	91.52099990844727	
7	71.01630210876465	fix_post	2		12	5.0	2.5	/experiments/AOT/AOT_stimuli/rescaled_final/0723_fw.mp4	0.0	92.83753395080566	0.09993910789489746
8	71.11624121665955	fix_pre	0		120	6.0	2.5	blank	1.0	92.93747305870056	0.9999508857727051
8	71.29970216751099	pulse	0	t		6.0	2.5	blank	1.0	93.120934009552	
8	72.11619210243225	movie	1		300	6.0	2.5	blank	1.0	93.93742394447327	2.5000810623168945
8	72.8997311592102	pulse	1	t		6.0	2.5	blank	1.0	94.72096300125122	
8	74.4997169971466	pulse	1	t		6.0	2.5	blank	1.0	96.32094883918762	
8	74.61627316474915	fix_post	2		12	6.0	2.5	blank	1.0	96.43750500679016	0.09988594055175781
9	74.7161591053009	fix_pre	0		120	7.0	2.5	/experiments/AOT/AOT_stimuli/rescaled_final/0254_rv.mp4	0.0	96.53739094734192	1.000101089477539
9	75.71626019477844	movie	1		244	7.0	2.5	/experiments/AOT/AOT_stimuli/rescaled_final/0254_rv.mp4	0.0	97.53749203681946	2.4999330043792725
9	76.09910702705383	pulse	1	t		7.0	2.5	/experiments/AOT/AOT_stimuli/rescaled_final/0254_rv.mp4	0.0	97.92033886909485	
9	77.69965410232544	pulse	1	t		7.0	2.5	/experiments/AOT/AOT_stimuli/rescaled_final/0254_rv.mp4	0.0	99.52088594436646	
9	78.21619319915771	fix_post	2		12	7.0	2.5	/experiments/AOT/AOT_stimuli/rescaled_final/0254_rv.mp4	0.0	100.03742504119873	0.10005879402160645
10	78.31625199317932	fix_pre	0		119	8.0	2.5	/experiments/AOT/AOT_stimuli/rescaled_final/0722_fw.mp4	0.0	100.13748383522034	0.9916250705718994
10	79.29967904090881	pulse	0	t		8.0	2.5	/experiments/AOT/AOT_stimuli/rescaled_final/0722_fw.mp4	0.0	101.12091088294983	
10	79.30787706375122	movie	1		246	8.0	2.5	/experiments/AOT/AOT_stimuli/rescaled_final/0722_fw.mp4	0.0	101.12910890579224	2.508358955383301
10	80.89923405647278	pulse	1	t		8.0	2.5	/experiments/AOT/AOT_stimuli/rescaled_final/0722_fw.mp4	0.0	102.7204658985138	
10	81.81623601913452	fix_post	2		12	8.0	2.5	/experiments/AOT/AOT_stimuli/rescaled_final/0722_fw.mp4	0.0	103.63746786117554	0.10019898414611816
11	81.91643500328064	fix_pre	0		120	9.0	2.5	/experiments/AOT/AOT_stimuli/rescaled_final/0714_rv.mp4	0.0	103.73766684532166	0.9998061656951904
11	82.49972605705261	pulse	0	t		9.0	2.5	/experiments/AOT/AOT_stimuli/rescaled_final/0714_rv.mp4	0.0	104.32095789909363	
11	82.91624116897583	movie	1		243	9.0	2.5	/experiments/AOT/AOT_stimuli/rescaled_final/0714_rv.mp4	0.0	104.73747301101685	2.4999890327453613
11	84.09983921051025	pulse	1	t		9.0	2.5	/experiments/AOT/AOT_stimuli/rescaled_final/0714_rv.mp4	0.0	105.92107105255127	
11	85.41623020172119	fix_post	2		12	9.0	2.5	/experiments/AOT/AOT_stimuli/rescaled_final/0714_rv.mp4	0.0	107.2374620437622	0.09989094734191895
12	85.51612114906311	fix_pre	0		120	10.0	2.5	/experiments/AOT/AOT_stimuli/rescaled_final/1767_fw.mp4	0.0	107.33735299110413	1.0001418590545654
12	85.69964718818665	pulse	0	t		10.0	2.5	/experiments/AOT/AOT_stimuli/rescaled_final/1767_fw.mp4	0.0	107.52087903022766	
12	86.51626300811768	movie	1		246	10.0	2.5	/experiments/AOT/AOT_stimuli/rescaled_final/1767_fw.mp4	0.0	108.33749485015869	2.499843120574951
12	87.29964804649353	pulse	1	t		10.0	2.5	/experiments/AOT/AOT_stimuli/rescaled_final/1767_fw.mp4	0.0	109.12087988853455	
12	88.89825510978699	pulse	1	t		10.0	2.5	/experiments/AOT/AOT_stimuli/rescaled_final/1767_fw.mp4	0.0	110.719486951828	
12	89.01610612869263	fix_post	2		12	10.0	2.5	/experiments/AOT/AOT_stimuli/rescaled_final/1767_fw.mp4	0.0	110.83733797073364	0.10009503364562988
13	89.11620116233826	fix_pre	0		120	11.0	2.5	/experiments/AOT/AOT_stimuli/rescaled_final/1325_fw.mp4	0.0	110.93743300437927	0.9999790191650391
13	90.1161801815033	movie	1		245	11.0	2.5	/experiments/AOT/AOT_stimuli/rescaled_final/1325_fw.mp4	0.0	111.93741202354431	2.499985933303833
13	90.49964714050293	pulse	1	t		11.0	2.5	/experiments/AOT/AOT_stimuli/rescaled_final/1325_fw.mp4	0.0	112.32087898254395	
13	92.09962821006775	pulse	1	t		11.0	2.5	/experiments/AOT/AOT_stimuli/rescaled_final/1325_fw.mp4	0.0	113.92086005210876	
13	92.61616611480713	fix_post	2		12	11.0	2.5	/experiments/AOT/AOT_stimuli/rescaled_final/1325_fw.mp4	0.0	114.43739795684814	0.09987211227416992
14	92.7160382270813	fix_pre	0		119	12.0	2.5	blank	1.0	114.53727006912231	0.9917078018188477
14	93.69959020614624	pulse	0	t		12.0	2.5	blank	1.0	115.52082204818726	
14	93.70774602890015	movie	1		301	12.0	2.5	blank	1.0	115.52897787094116	2.5082621574401855
14	95.29964303970337	pulse	1	t		12.0	2.5	blank	1.0	117.12087488174438	
14	96.21600818634033	fix_post	2		12	12.0	2.5	blank	1.0	118.03724002838135	0.10010099411010742
15	96.31610918045044	fix_pre	0		120	13.0	2.5	/experiments/AOT/AOT_stimuli/rescaled_final/0723_rv.mp4	0.0	118.13734102249146	0.9998729228973389
15	96.89963102340698	pulse	0	t		13.0	2.5	/experiments/AOT/AOT_stimuli/rescaled_final/0723_rv.mp4	0.0	118.720862865448	
15	97.31598210334778	movie	1		245	13.0	2.5	/experiments/AOT/AOT_stimuli/rescaled_final/0723_rv.mp4	0.0	119.1372139453888	2.500109910964966
15	98.49966716766357	pulse	1	t		13.0	2.5	/experiments/AOT/AOT_stimuli/rescaled_final/0723_rv.mp4	0.0	120.32089900970459	
15	99.81609201431274	fix_post	2		12	13.0	2.5	/experiments/AOT/AOT_stimuli/rescaled_final/0723_rv.mp4	0.0	121.63732385635376	0.09997701644897461
16	99.91606903076172	fix_pre	0		120	14.0	2.5	/experiments/AOT/AOT_stimuli/rescaled_final/1608_fw.mp4	0.0	121.73730087280273	1.000096082687378
16	100.09959721565247	pulse	0	t		14.0	2.5	/experiments/AOT/AOT_stimuli/rescaled_final/1608_fw.mp4	0.0	121.92082905769348	
16	100.9161651134491	movie	1		243	14.0	2.5	/experiments/AOT/AOT_stimuli/rescaled_final/1608_fw.mp4	0.0	122.73739695549011	2.5
16	101.6995952129364	pulse	1	t		14.0	2.5	/experiments/AOT/AOT_stimuli/rescaled_final/1608_fw.mp4	0.0	123.52082705497742	
16	103.29836010932922	pulse	1	t		14.0	2.5	/experiments/AOT/AOT_stimuli/rescaled_final/1608_fw.mp4	0.0	125.11959195137024	
16	103.4161651134491	fix_post	2		12	14.0	2.5	/experiments/AOT/AOT_stimuli/rescaled_final/1608_fw.mp4	0.0	125.23739695549011	0.09995293617248535
17	103.51611804962158	fix_pre	0		120	15.0	2.5	/experiments/AOT/AOT_stimuli/rescaled_final/1076_rv.mp4	0.0	125.3373498916626	0.9999649524688721
17	104.51608300209045	movie	1		242	15.0	2.5	/experiments/AOT/AOT_stimuli/rescaled_final/1076_rv.mp4	0.0	126.33731484413147	2.499533176422119
17	104.90070414543152	pulse	1	t		15.0	2.5	/experiments/AOT/AOT_stimuli/rescaled_final/1076_rv.mp4	0.0	126.72193598747253	
17	106.49945712089539	pulse	1	t		15.0	2.5	/experiments/AOT/AOT_stimuli/rescaled_final/1076_rv.mp4	0.0	128.3206889629364	
17	107.01561617851257	fix_post	2		12	15.0	2.5	/experiments/AOT/AOT_stimuli/rescaled_final/1076_rv.mp4	0.0	128.8368480205536	0.10003805160522461
18	107.1156542301178	fix_pre	0		119	16.0	2.5	/experiments/AOT/AOT_stimuli/rescaled_final/1138_fw.mp4	0.0	128.9368860721588	0.991783857345581
18	108.09923601150513	pulse	0	t		16.0	2.5	/experiments/AOT/AOT_stimuli/rescaled_final/1138_fw.mp4	0.0	129.92046785354614	
18	108.10743808746338	movie	1		246	16.0	2.5	/experiments/AOT/AOT_stimuli/rescaled_final/1138_fw.mp4	0.0	129.9286699295044	2.508575916290283
18	109.69926905632019	pulse	1	t		16.0	2.5	/experiments/AOT/AOT_stimuli/rescaled_final/1138_fw.mp4	0.0	131.5205008983612	
18	110.61601400375366	fix_post	2		12	16.0	2.5	/experiments/AOT/AOT_stimuli/rescaled_final/1138_fw.mp4	0.0	132.43724584579468	0.1000680923461914
19	110.71608209609985	fix_pre	0		120	17.0	2.5	/experiments/AOT/AOT_stimuli/rescaled_final/1343_rv.mp4	0.0	132.53731393814087	0.999946117401123
19	111.29958820343018	pulse	0	t		17.0	2.5	/experiments/AOT/AOT_stimuli/rescaled_final/1343_rv.mp4	0.0	133.1208200454712	
19	111.71602821350098	movie	1		245	17.0	2.5	/experiments/AOT/AOT_stimuli/rescaled_final/1343_rv.mp4	0.0	133.537260055542	2.5000078678131104
19	112.89963722229004	pulse	1	t		17.0	2.5	/experiments/AOT/AOT_stimuli/rescaled_final/1343_rv.mp4	0.0	134.72086906433105	
19	114.21603608131409	fix_post	2		12	17.0	2.5	/experiments/AOT/AOT_stimuli/rescaled_final/1343_rv.mp4	0.0	136.0372679233551	0.10003304481506348
20	114.31606912612915	fix_pre	0		120	18.0	2.5	/experiments/AOT/AOT_stimuli/rescaled_final/1879_fw.mp4	0.0	136.13730096817017	0.9999949932098389
20	114.49951815605164	pulse	0	t		18.0	2.5	/experiments/AOT/AOT_stimuli/rescaled_final/1879_fw.mp4	0.0	136.32074999809265	
20	115.31606411933899	movie	1		246	18.0	2.5	/experiments/AOT/AOT_stimuli/rescaled_final/1879_fw.mp4	0.0	137.13729596138	2.499933958053589
20	116.09948706626892	pulse	1	t		18.0	2.5	/experiments/AOT/AOT_stimuli/rescaled_final/1879_fw.mp4	0.0	137.92071890830994	
20	117.69915914535522	pulse	1	t		18.0	2.5	/experiments/AOT/AOT_stimuli/rescaled_final/1879_fw.mp4	0.0	139.52039098739624	
20	117.81599807739258	fix_post	2		12	18.0	2.5	/experiments/AOT/AOT_stimuli/rescaled_final/1879_fw.mp4	0.0	139.6372299194336	0.10003495216369629
21	117.91603302955627	fix_pre	0		120	19.0	2.5	/experiments/AOT/AOT_stimuli/rescaled_final/1510_rv.mp4	0.0	139.7372648715973	0.9999639987945557
21	118.91599702835083	movie	1		243	19.0	2.5	/experiments/AOT/AOT_stimuli/rescaled_final/1510_rv.mp4	0.0	140.73722887039185	2.500030040740967
21	119.2991840839386	pulse	1	t		19.0	2.5	/experiments/AOT/AOT_stimuli/rescaled_final/1510_rv.mp4	0.0	141.12041592597961	
21	120.89942812919617	pulse	1	t		19.0	2.5	/experiments/AOT/AOT_stimuli/rescaled_final/1510_rv.mp4	0.0	142.72065997123718	
21	121.4160270690918	fix_post	2		12	19.0	2.5	/experiments/AOT/AOT_stimuli/rescaled_final/1510_rv.mp4	0.0	143.2372589111328	0.09987497329711914
22	121.51590204238892	fix_pre	0		119	20.0	2.5	blank	1.0	143.33713388442993	0.9916970729827881
22	122.49935412406921	pulse	0	t		20.0	2.5	blank	1.0	144.32058596611023	
22	122.5075991153717	movie	1		301	20.0	2.5	blank	1.0	144.32883095741272	2.508389949798584
22	124.09952306747437	pulse	1	t		20.0	2.5	blank	1.0	145.92075490951538	
22	125.01598906517029	fix_post	2		12	20.0	2.5	blank	1.0	146.8372209072113	0.10002493858337402
23	125.11601400375366	fix_pre	0		120	21.0	2.5	/experiments/AOT/AOT_stimuli/rescaled_final/1908_fw.mp4	0.0	146.93724584579468	0.999946117401123
23	125.69951701164246	pulse	0	t		21.0	2.5	/experiments/AOT/AOT_stimuli/rescaled_final/1908_fw.mp4	0.0	147.52074885368347	
23	126.11596012115479	movie	1		244	21.0	2.5	/experiments/AOT/AOT_stimuli/rescaled_final/1908_fw.mp4	0.0	147.9371919631958	2.5000391006469727
23	127.29952812194824	pulse	1	t		21.0	2.5	/experiments/AOT/AOT_stimuli/rescaled_final/1908_fw.mp4	0.0	149.12075996398926	
23	128.61599922180176	fix_post	2		12	21.0	2.5	/experiments/AOT/AOT_stimuli/rescaled_final/1908_fw.mp4	0.0	150.43723106384277	0.09987592697143555
24	128.7158751487732	fix_pre	0		120	22.0	2.5	/experiments/AOT/AOT_stimuli/rescaled_final/1424_rv.mp4	0.0	150.5371069908142	1.0000550746917725
24	128.8996012210846	pulse	0	t		22.0	2.5	/experiments/AOT/AOT_stimuli/rescaled_final/1424_rv.mp4	0.0	150.7208330631256	
24	129.71593022346497	movie	1		246	22.0	2.5	/experiments/AOT/AOT_stimuli/rescaled_final/1424_rv.mp4	0.0	151.53716206550598	2.500011920928955
24	130.49949312210083	pulse	1	t		22.0	2.5	/experiments/AOT/AOT_stimuli/rescaled_final/1424_rv.mp4	0.0	152.32072496414185	
24	132.0980041027069	pulse	1	t		22.0	2.5	/experiments/AOT/AOT_stimuli/rescaled_final/1424_rv.mp4	0.0	153.91923594474792	
24	132.21594214439392	fix_post	2		12	22.0	2.5	/experiments/AOT/AOT_stimuli/rescaled_final/1424_rv.mp4	0.0	154.03717398643494	0.10005497932434082
25	132.31599712371826	fix_pre	0		120	23.0	2.5	/experiments/AOT/AOT_stimuli/rescaled_final/0343_rv.mp4	0.0	154.13722896575928	1.0000600814819336
25	133.3160572052002	movie	1		244	23.0	2.5	/experiments/AOT/AOT_stimuli/rescaled_final/0343_rv.mp4	0.0	155.1372890472412	2.499828815460205
25	133.69915413856506	pulse	1	t		23.0	2.5	/experiments/AOT/AOT_stimuli/rescaled_final/0343_rv.mp4	0.0	155.52038598060608	
25	135.29944014549255	pulse	1	t		23.0	2.5	/experiments/AOT/AOT_stimuli/rescaled_final/0343_rv.mp4	0.0	157.12067198753357	
25	135.8158860206604	fix_post	2		12	23.0	2.5	/experiments/AOT/AOT_stimuli/rescaled_final/0343_rv.mp4	0.0	157.63711786270142	0.10005903244018555
26	135.9159450531006	fix_pre	0		119	24.0	2.5	/experiments/AOT/AOT_stimuli/rescaled_final/1822_rv.mp4	0.0	157.7371768951416	0.9916951656341553
26	136.89945816993713	pulse	0	t		24.0	2.5	/experiments/AOT/AOT_stimuli/rescaled_final/1822_rv.mp4	0.0	158.72069001197815	
26	136.90764021873474	movie	1		245	24.0	2.5	/experiments/AOT/AOT_stimuli/rescaled_final/1822_rv.mp4	0.0	158.72887206077576	2.5082077980041504
26	138.49954915046692	pulse	1	t		24.0	2.5	/experiments/AOT/AOT_stimuli/rescaled_final/1822_rv.mp4	0.0	160.32078099250793	
26	139.4158480167389	fix_post	2		12	24.0	2.5	/experiments/AOT/AOT_stimuli/rescaled_final/1822_rv.mp4	0.0	161.2370798587799	0.10009098052978516
27	139.51593899726868	fix_pre	0		120	25.0	2.5	/experiments/AOT/AOT_stimuli/rescaled_final/1981_fw.mp4	0.0	161.3371708393097	0.9999210834503174
27	140.09938621520996	pulse	0	t		25.0	2.5	/experiments/AOT/AOT_stimuli/rescaled_final/1981_fw.mp4	0.0	161.92061805725098	
27	140.515860080719	movie	1		243	25.0	2.5	/experiments/AOT/AOT_stimuli/rescaled_final/1981_fw.mp4	0.0	162.33709192276	2.500033140182495
27	141.69941020011902	pulse	1	t		25.0	2.5	/experiments/AOT/AOT_stimuli/rescaled_final/1981_fw.mp4	0.0	163.52064204216003	
27	143.0158932209015	fix_post	2		12	25.0	2.5	/experiments/AOT/AOT_stimuli/rescaled_final/1981_fw.mp4	0.0	164.8371250629425	0.10001897811889648
28	143.11591219902039	fix_pre	0		120	26.0	2.5	/experiments/AOT/AOT_stimuli/rescaled_final/1218_rv.mp4	0.0	164.9371440410614	0.9999399185180664
28	143.29951119422913	pulse	0	t		26.0	2.5	/experiments/AOT/AOT_stimuli/rescaled_final/1218_rv.mp4	0.0	165.12074303627014	
28	144.11585211753845	movie	1		245	26.0	2.5	/experiments/AOT/AOT_stimuli/rescaled_final/1218_rv.mp4	0.0	165.93708395957947	2.5000360012054443
28	144.89939212799072	pulse	1	t		26.0	2.5	/experiments/AOT/AOT_stimuli/rescaled_final/1218_rv.mp4	0.0	166.72062397003174	
28	146.49860501289368	pulse	1	t		26.0	2.5	/experiments/AOT/AOT_stimuli/rescaled_final/1218_rv.mp4	0.0	168.3198368549347	
28	146.6158881187439	fix_post	2		12	26.0	2.5	/experiments/AOT/AOT_stimuli/rescaled_final/1218_rv.mp4	0.0	168.4371199607849	0.10000300407409668
29	146.715891122818	fix_pre	0		120	27.0	2.5	blank	1.0	168.537122964859	1.0000560283660889
29	147.71594715118408	movie	1		300	27.0	2.5	blank	1.0	169.5371789932251	2.4999358654022217
29	148.09938311576843	pulse	1	t		27.0	2.5	blank	1.0	169.92061495780945	
29	149.699294090271	pulse	1	t		27.0	2.5	blank	1.0	171.520525932312	
29	150.2158830165863	fix_post	2		12	27.0	2.5	blank	1.0	172.03711485862732	0.09996199607849121
30	150.3158450126648	fix_pre	0		119	28.0	2.5	/experiments/AOT/AOT_stimuli/rescaled_final/1822_fw.mp4	0.0	172.1370768547058	0.9916520118713379
30	151.29939222335815	pulse	0	t		28.0	2.5	/experiments/AOT/AOT_stimuli/rescaled_final/1822_fw.mp4	0.0	173.12062406539917	
30	151.30749702453613	movie	1		244	28.0	2.5	/experiments/AOT/AOT_stimuli/rescaled_final/1822_fw.mp4	0.0	173.12872886657715	2.5083391666412354
30	152.89899921417236	pulse	1	t		28.0	2.5	/experiments/AOT/AOT_stimuli/rescaled_final/1822_fw.mp4	0.0	174.72023105621338	
30	153.81583619117737	fix_post	2		12	28.0	2.5	/experiments/AOT/AOT_stimuli/rescaled_final/1822_fw.mp4	0.0	175.63706803321838	0.10006499290466309
31	153.91590118408203	fix_pre	0		120	29.0	2.5	/experiments/AOT/AOT_stimuli/rescaled_final/1456_fw.mp4	0.0	175.73713302612305	0.9999170303344727
31	154.4993770122528	pulse	0	t		29.0	2.5	/experiments/AOT/AOT_stimuli/rescaled_final/1456_fw.mp4	0.0	176.32060885429382	
31	154.9158182144165	movie	1		243	29.0	2.5	/experiments/AOT/AOT_stimuli/rescaled_final/1456_fw.mp4	0.0	176.73705005645752	2.5000429153442383
31	156.09939312934875	pulse	1	t		29.0	2.5	/experiments/AOT/AOT_stimuli/rescaled_final/1456_fw.mp4	0.0	177.92062497138977	
31	157.41586112976074	fix_post	2		12	29.0	2.5	/experiments/AOT/AOT_stimuli/rescaled_final/1456_fw.mp4	0.0	179.23709297180176	0.10000896453857422
32	157.51587009429932	fix_pre	0		120	30.0	2.5	/experiments/AOT/AOT_stimuli/rescaled_final/1630_fw.mp4	0.0	179.33710193634033	0.9999949932098389
32	157.69933819770813	pulse	0	t		30.0	2.5	/experiments/AOT/AOT_stimuli/rescaled_final/1630_fw.mp4	0.0	179.52057003974915	
32	158.51586508750916	movie	1		243	30.0	2.5	/experiments/AOT/AOT_stimuli/rescaled_final/1630_fw.mp4	0.0	180.33709692955017	2.5000009536743164
32	159.29930019378662	pulse	1	t		30.0	2.5	/experiments/AOT/AOT_stimuli/rescaled_final/1630_fw.mp4	0.0	181.12053203582764	
32	160.89767622947693	pulse	1	t		30.0	2.5	/experiments/AOT/AOT_stimuli/rescaled_final/1630_fw.mp4	0.0	182.71890807151794	
32	161.01586604118347	fix_post	2		12	30.0	2.5	/experiments/AOT/AOT_stimuli/rescaled_final/1630_fw.mp4	0.0	182.8370978832245	0.099945068359375
33	161.11581110954285	fix_pre	0		120	31.0	2.5	/experiments/AOT/AOT_stimuli/rescaled_final/1522_fw.mp4	0.0	182.93704295158386	0.9999771118164062
33	162.11578822135925	movie	1		246	31.0	2.5	/experiments/AOT/AOT_stimuli/rescaled_final/1522_fw.mp4	0.0	183.93702006340027	2.5001938343048096
33	162.4987850189209	pulse	1	t		31.0	2.5	/experiments/AOT/AOT_stimuli/rescaled_final/1522_fw.mp4	0.0	184.3200168609619	
33	164.09935402870178	pulse	1	t		31.0	2.5	/experiments/AOT/AOT_stimuli/rescaled_final/1522_fw.mp4	0.0	185.9205858707428	
33	164.61598205566406	fix_post	2		12	31.0	2.5	/experiments/AOT/AOT_stimuli/rescaled_final/1522_fw.mp4	0.0	186.43721389770508	0.09994006156921387
34	164.71592211723328	fix_pre	0		119	32.0	2.5	/experiments/AOT/AOT_stimuli/rescaled_final/1498_fw.mp4	0.0	186.5371539592743	0.9915809631347656
34	165.69933199882507	pulse	0	t		32.0	2.5	/experiments/AOT/AOT_stimuli/rescaled_final/1498_fw.mp4	0.0	187.5205638408661	
34	165.70750308036804	movie	1		244	32.0	2.5	/experiments/AOT/AOT_stimuli/rescaled_final/1498_fw.mp4	0.0	187.52873492240906	2.508280038833618
34	167.29909920692444	pulse	1	t		32.0	2.5	/experiments/AOT/AOT_stimuli/rescaled_final/1498_fw.mp4	0.0	189.12033104896545	
34	168.21578311920166	fix_post	2		12	32.0	2.5	/experiments/AOT/AOT_stimuli/rescaled_final/1498_fw.mp4	0.0	190.03701496124268	0.09999799728393555
35	168.3157811164856	fix_pre	0		120	33.0	2.5	/experiments/AOT/AOT_stimuli/rescaled_final/0919_fw.mp4	0.0	190.1370129585266	0.9999470710754395
35	168.8992691040039	pulse	0	t		33.0	2.5	/experiments/AOT/AOT_stimuli/rescaled_final/0919_fw.mp4	0.0	190.72050094604492	
35	169.31572818756104	movie	1		243	33.0	2.5	/experiments/AOT/AOT_stimuli/rescaled_final/0919_fw.mp4	0.0	191.13696002960205	2.500123977661133
35	170.49937415122986	pulse	1	t		33.0	2.5	/experiments/AOT/AOT_stimuli/rescaled_final/0919_fw.mp4	0.0	192.32060599327087	
35	171.81585216522217	fix_post	2		12	33.0	2.5	/experiments/AOT/AOT_stimuli/rescaled_final/0919_fw.mp4	0.0	193.63708400726318	0.09987902641296387
36	171.91573119163513	fix_pre	0		120	34.0	2.5	blank	1.0	193.73696303367615	0.9999818801879883
36	172.0992271900177	pulse	0	t		34.0	2.5	blank	1.0	193.92045903205872	
36	172.91571307182312	movie	1		300	34.0	2.5	blank	1.0	194.73694491386414	2.500002145767212
36	173.69923615455627	pulse	1	t		34.0	2.5	blank	1.0	195.5204679965973	
36	175.29932117462158	pulse	1	t		34.0	2.5	blank	1.0	197.1205530166626	
36	175.41571521759033	fix_post	2		12	34.0	2.5	blank	1.0	197.23694705963135	0.09999489784240723
37	175.51571011543274	fix_pre	0		120	35.0	2.5	/experiments/AOT/AOT_stimuli/rescaled_final/1066_rv.mp4	0.0	197.33694195747375	1.0000019073486328
37	176.51571202278137	movie	1		244	35.0	2.5	/experiments/AOT/AOT_stimuli/rescaled_final/1066_rv.mp4	0.0	198.3369438648224	2.500054121017456
37	176.90060806274414	pulse	1	t		35.0	2.5	/experiments/AOT/AOT_stimuli/rescaled_final/1066_rv.mp4	0.0	198.72183990478516	
37	178.499165058136	pulse	1	t		35.0	2.5	/experiments/AOT/AOT_stimuli/rescaled_final/1066_rv.mp4	0.0	200.320396900177	
37	179.01576614379883	fix_post	2		12	35.0	2.5	/experiments/AOT/AOT_stimuli/rescaled_final/1066_rv.mp4	0.0	200.83699798583984	0.099884033203125
38	179.11565017700195	fix_pre	0		119	36.0	2.5	/experiments/AOT/AOT_stimuli/rescaled_final/1908_fw.mp4	0.0	200.93688201904297	0.9916679859161377
38	180.09911704063416	pulse	0	t		36.0	2.5	/experiments/AOT/AOT_stimuli/rescaled_final/1908_fw.mp4	0.0	201.92034888267517	
38	180.1073181629181	movie	1		248	36.0	2.5	/experiments/AOT/AOT_stimuli/rescaled_final/1908_fw.mp4	0.0	201.9285500049591	2.5083670616149902
38	181.698655128479	pulse	1	t		36.0	2.5	/experiments/AOT/AOT_stimuli/rescaled_final/1908_fw.mp4	0.0	203.51988697052002	
38	182.61568522453308	fix_post	2		12	36.0	2.5	/experiments/AOT/AOT_stimuli/rescaled_final/1908_fw.mp4	0.0	204.4369170665741	0.10000181198120117
39	182.71568703651428	fix_pre	0		120	37.0	2.5	/experiments/AOT/AOT_stimuli/rescaled_final/2167_rv.mp4	0.0	204.5369188785553	1.0000271797180176
39	183.29917812347412	pulse	0	t		37.0	2.5	/experiments/AOT/AOT_stimuli/rescaled_final/2167_rv.mp4	0.0	205.12040996551514	
39	183.7157142162323	movie	1		243	37.0	2.5	/experiments/AOT/AOT_stimuli/rescaled_final/2167_rv.mp4	0.0	205.53694605827332	2.4999539852142334
39	184.89923906326294	pulse	1	t		37.0	2.5	/experiments/AOT/AOT_stimuli/rescaled_final/2167_rv.mp4	0.0	206.72047090530396	
39	186.21566820144653	fix_post	2		12	37.0	2.5	/experiments/AOT/AOT_stimuli/rescaled_final/2167_rv.mp4	0.0	208.03690004348755	0.09995079040527344
40	186.3156189918518	fix_pre	0		120	38.0	2.5	/experiments/AOT/AOT_stimuli/rescaled_final/1343_fw.mp4	0.0	208.13685083389282	1.0000841617584229
40	186.49913716316223	pulse	0	t		38.0	2.5	/experiments/AOT/AOT_stimuli/rescaled_final/1343_fw.mp4	0.0	208.32036900520325	
40	187.31570315361023	movie	1		243	38.0	2.5	/experiments/AOT/AOT_stimuli/rescaled_final/1343_fw.mp4	0.0	209.13693499565125	2.4999568462371826
40	188.0991702079773	pulse	1	t		38.0	2.5	/experiments/AOT/AOT_stimuli/rescaled_final/1343_fw.mp4	0.0	209.9204020500183	
40	189.69803309440613	pulse	1	t		38.0	2.5	/experiments/AOT/AOT_stimuli/rescaled_final/1343_fw.mp4	0.0	211.51926493644714	
40	189.8156599998474	fix_post	2		12	38.0	2.5	/experiments/AOT/AOT_stimuli/rescaled_final/1343_fw.mp4	0.0	211.63689184188843	0.10018610954284668
41	189.91584610939026	fix_pre	0		120	39.0	2.5	/experiments/AOT/AOT_stimuli/rescaled_final/0456_rv.mp4	0.0	211.73707795143127	0.9997539520263672
41	190.91560006141663	movie	1		244	39.0	2.5	/experiments/AOT/AOT_stimuli/rescaled_final/0456_rv.mp4	0.0	212.73683190345764	2.500499963760376
41	191.29922103881836	pulse	1	t		39.0	2.5	/experiments/AOT/AOT_stimuli/rescaled_final/0456_rv.mp4	0.0	213.12045288085938	
41	192.89906120300293	pulse	1	t		39.0	2.5	/experiments/AOT/AOT_stimuli/rescaled_final/0456_rv.mp4	0.0	214.72029304504395	
41	193.416100025177	fix_post	2		12	39.0	2.5	/experiments/AOT/AOT_stimuli/rescaled_final/0456_rv.mp4	0.0	215.23733186721802	0.09954619407653809
42	193.51564621925354	fix_pre	0		119	40.0	2.5	/experiments/AOT/AOT_stimuli/rescaled_final/0714_rv.mp4	0.0	215.33687806129456	0.9916548728942871
42	194.49910020828247	pulse	0	t		40.0	2.5	/experiments/AOT/AOT_stimuli/rescaled_final/0714_rv.mp4	0.0	216.3203320503235	
42	194.50730109214783	movie	1		245	40.0	2.5	/experiments/AOT/AOT_stimuli/rescaled_final/0714_rv.mp4	0.0	216.32853293418884	2.50823712348938
42	196.09876608848572	pulse	1	t		40.0	2.5	/experiments/AOT/AOT_stimuli/rescaled_final/0714_rv.mp4	0.0	217.91999793052673	
42	197.0155382156372	fix_post	2		12	40.0	2.5	/experiments/AOT/AOT_stimuli/rescaled_final/0714_rv.mp4	0.0	218.83677005767822	0.10001087188720703
43	197.1155490875244	fix_pre	0		120	41.0	2.5	blank	1.0	218.93678092956543	1.000020980834961
43	197.69905400276184	pulse	0	t		41.0	2.5	blank	1.0	219.52028584480286	
43	198.11557006835938	movie	1		300	41.0	2.5	blank	1.0	219.9368019104004	2.500070095062256
43	199.2991120815277	pulse	1	t		41.0	2.5	blank	1.0	221.12034392356873	
43	200.61564016342163	fix_post	2		12	41.0	2.5	blank	1.0	222.43687200546265	0.09998703002929688
44	200.71562719345093	fix_pre	0		120	42.0	2.5	/experiments/AOT/AOT_stimuli/rescaled_final/0663_rv.mp4	0.0	222.53685903549194	1.0000498294830322
44	200.89910316467285	pulse	0	t		42.0	2.5	/experiments/AOT/AOT_stimuli/rescaled_final/0663_rv.mp4	0.0	222.72033500671387	
44	201.71567702293396	movie	1		244	42.0	2.5	/experiments/AOT/AOT_stimuli/rescaled_final/0663_rv.mp4	0.0	223.53690886497498	2.499904155731201
44	202.4990861415863	pulse	1	t		42.0	2.5	/experiments/AOT/AOT_stimuli/rescaled_final/0663_rv.mp4	0.0	224.32031798362732	
44	204.09754705429077	pulse	1	t		42.0	2.5	/experiments/AOT/AOT_stimuli/rescaled_final/0663_rv.mp4	0.0	225.9187788963318	
44	204.21558117866516	fix_post	2		12	42.0	2.5	/experiments/AOT/AOT_stimuli/rescaled_final/0663_rv.mp4	0.0	226.03681302070618	0.09999704360961914
45	204.31557822227478	fix_pre	0		120	43.0	2.5	/experiments/AOT/AOT_stimuli/rescaled_final/0270_fw.mp4	0.0	226.1368100643158	0.9999768733978271
45	205.3155550956726	movie	1		243	43.0	2.5	/experiments/AOT/AOT_stimuli/rescaled_final/0270_fw.mp4	0.0	227.13678693771362	2.499906063079834
45	205.69906401634216	pulse	1	t		43.0	2.5	/experiments/AOT/AOT_stimuli/rescaled_final/0270_fw.mp4	0.0	227.52029585838318	
45	207.29898715019226	pulse	1	t		43.0	2.5	/experiments/AOT/AOT_stimuli/rescaled_final/0270_fw.mp4	0.0	229.12021899223328	
45	207.81546115875244	fix_post	2		12	43.0	2.5	/experiments/AOT/AOT_stimuli/rescaled_final/0270_fw.mp4	0.0	229.63669300079346	0.10012292861938477
46	207.91558408737183	fix_pre	0		119	44.0	2.5	/experiments/AOT/AOT_stimuli/rescaled_final/1057_rv.mp4	0.0	229.73681592941284	0.9916470050811768
46	208.89909601211548	pulse	0	t		44.0	2.5	/experiments/AOT/AOT_stimuli/rescaled_final/1057_rv.mp4	0.0	230.7203278541565	
46	208.907231092453	movie	1		244	44.0	2.5	/experiments/AOT/AOT_stimuli/rescaled_final/1057_rv.mp4	0.0	230.72846293449402	2.5083320140838623
46	210.50031113624573	pulse	1	t		44.0	2.5	/experiments/AOT/AOT_stimuli/rescaled_final/1057_rv.mp4	0.0	232.32154297828674	
46	211.41556310653687	fix_post	2		12	44.0	2.5	/experiments/AOT/AOT_stimuli/rescaled_final/1057_rv.mp4	0.0	233.23679494857788	0.09990596771240234
47	211.51546907424927	fix_pre	0		120	45.0	2.5	/experiments/AOT/AOT_stimuli/rescaled_final/0171_fw.mp4	0.0	233.33670091629028	1.0000131130218506
47	212.09902119636536	pulse	0	t		45.0	2.5	/experiments/AOT/AOT_stimuli/rescaled_final/0171_fw.mp4	0.0	233.92025303840637	
47	212.51548218727112	movie	1		242	45.0	2.5	/experiments/AOT/AOT_stimuli/rescaled_final/0171_fw.mp4	0.0	234.33671402931213	2.500030040740967
47	213.69911408424377	pulse	1	t		45.0	2.5	/experiments/AOT/AOT_stimuli/rescaled_final/0171_fw.mp4	0.0	235.5203459262848	
47	215.01551222801208	fix_post	2		12	45.0	2.5	/experiments/AOT/AOT_stimuli/rescaled_final/0171_fw.mp4	0.0	236.8367440700531	0.09998488426208496
48	215.11549711227417	fix_pre	0		120	46.0	2.5	/experiments/AOT/AOT_stimuli/rescaled_final/1431_rv.mp4	0.0	236.93672895431519	1.0000569820404053
48	215.2989821434021	pulse	0	t		46.0	2.5	/experiments/AOT/AOT_stimuli/rescaled_final/1431_rv.mp4	0.0	237.12021398544312	
48	216.11555409431458	movie	1		245	46.0	2.5	/experiments/AOT/AOT_stimuli/rescaled_final/1431_rv.mp4	0.0	237.9367859363556	2.4995861053466797
48	216.89894604682922	pulse	1	t		46.0	2.5	/experiments/AOT/AOT_stimuli/rescaled_final/1431_rv.mp4	0.0	238.72017788887024	
48	218.49861812591553	pulse	1	t		46.0	2.5	/experiments/AOT/AOT_stimuli/rescaled_final/1431_rv.mp4	0.0	240.31984996795654	
48	218.61514019966125	fix_post	2		12	46.0	2.5	/experiments/AOT/AOT_stimuli/rescaled_final/1431_rv.mp4	0.0	240.43637204170227	0.09992790222167969
49	218.71506810188293	fix_pre	0		120	47.0	2.5	/experiments/AOT/AOT_stimuli/rescaled_final/0869_rv.mp4	0.0	240.53629994392395	1.0005180835723877
49	219.71558618545532	movie	1		244	47.0	2.5	/experiments/AOT/AOT_stimuli/rescaled_final/0869_rv.mp4	0.0	241.53681802749634	2.4998738765716553
49	220.09845209121704	pulse	1	t		47.0	2.5	/experiments/AOT/AOT_stimuli/rescaled_final/0869_rv.mp4	0.0	241.91968393325806	
49	221.69901418685913	pulse	1	t		47.0	2.5	/experiments/AOT/AOT_stimuli/rescaled_final/0869_rv.mp4	0.0	243.52024602890015	
49	222.21546006202698	fix_post	2		12	47.0	2.5	/experiments/AOT/AOT_stimuli/rescaled_final/0869_rv.mp4	0.0	244.036691904068	0.1000361442565918
50	222.31549620628357	fix_pre	0		119	48.0	2.5	blank	1.0	244.13672804832458	0.9916479587554932
50	223.29898118972778	pulse	0	t		48.0	2.5	blank	1.0	245.1202130317688	
50	223.30714416503906	movie	1		301	48.0	2.5	blank	1.0	245.12837600708008	2.508415937423706
50	224.89896321296692	pulse	1	t		48.0	2.5	blank	1.0	246.72019505500793	
50	225.81556010246277	fix_post	2		12	48.0	2.5	blank	1.0	247.63679194450378	0.09991002082824707
51	225.91547012329102	fix_pre	0		120	49.0	2.5	/experiments/AOT/AOT_stimuli/rescaled_final/1325_fw.mp4	0.0	247.73670196533203	0.9999899864196777
51	226.49885320663452	pulse	0	t		49.0	2.5	/experiments/AOT/AOT_stimuli/rescaled_final/1325_fw.mp4	0.0	248.32008504867554	
51	226.9154601097107	movie	1		244	49.0	2.5	/experiments/AOT/AOT_stimuli/rescaled_final/1325_fw.mp4	0.0	248.7366919517517	2.499962091445923
51	228.09900903701782	pulse	1	t		49.0	2.5	/experiments/AOT/AOT_stimuli/rescaled_final/1325_fw.mp4	0.0	249.92024087905884	
51	229.41542220115662	fix_post	2		12	49.0	2.5	/experiments/AOT/AOT_stimuli/rescaled_final/1325_fw.mp4	0.0	251.23665404319763	0.10002684593200684
52	229.51544904708862	fix_pre	0		120	50.0	2.5	/experiments/AOT/AOT_stimuli/rescaled_final/0723_rv.mp4	0.0	251.33668088912964	0.9999761581420898
52	229.6989231109619	pulse	0	t		50.0	2.5	/experiments/AOT/AOT_stimuli/rescaled_final/0723_rv.mp4	0.0	251.52015495300293	
52	230.5154252052307	movie	1		247	50.0	2.5	/experiments/AOT/AOT_stimuli/rescaled_final/0723_rv.mp4	0.0	252.33665704727173	2.5000789165496826
52	231.29888105392456	pulse	1	t		50.0	2.5	/experiments/AOT/AOT_stimuli/rescaled_final/0723_rv.mp4	0.0	253.12011289596558	
52	232.8989200592041	pulse	1	t		50.0	2.5	/experiments/AOT/AOT_stimuli/rescaled_final/0723_rv.mp4	0.0	254.72015190124512	
52	233.0155041217804	fix_post	2		12	50.0	2.5	/experiments/AOT/AOT_stimuli/rescaled_final/0723_rv.mp4	0.0	254.8367359638214	0.09992098808288574
53	233.11542510986328	fix_pre	0		120	51.0	2.5	/experiments/AOT/AOT_stimuli/rescaled_final/0766_rv.mp4	0.0	254.9366569519043	1.0000159740447998
53	234.11544108390808	movie	1		245	51.0	2.5	/experiments/AOT/AOT_stimuli/rescaled_final/0766_rv.mp4	0.0	255.9366729259491	2.499962091445923
53	234.49867820739746	pulse	1	t		51.0	2.5	/experiments/AOT/AOT_stimuli/rescaled_final/0766_rv.mp4	0.0	256.3199100494385	
53	236.09892320632935	pulse	1	t		51.0	2.5	/experiments/AOT/AOT_stimuli/rescaled_final/0766_rv.mp4	0.0	257.92015504837036	
53	236.615403175354	fix_post	2		12	51.0	2.5	/experiments/AOT/AOT_stimuli/rescaled_final/0766_rv.mp4	0.0	258.436635017395	0.10000896453857422
54	236.71541213989258	fix_pre	0		119	52.0	2.5	/experiments/AOT/AOT_stimuli/rescaled_final/1080_fw.mp4	0.0	258.5366439819336	0.9917540550231934
54	237.69899010658264	pulse	0	t		52.0	2.5	/experiments/AOT/AOT_stimuli/rescaled_final/1080_fw.mp4	0.0	259.52022194862366	
54	237.70716619491577	movie	1		245	52.0	2.5	/experiments/AOT/AOT_stimuli/rescaled_final/1080_fw.mp4	0.0	259.5283980369568	2.5082309246063232
54	239.2986090183258	pulse	1	t		52.0	2.5	/experiments/AOT/AOT_stimuli/rescaled_final/1080_fw.mp4	0.0	261.1198408603668	
54	240.2153971195221	fix_post	2		12	52.0	2.5	/experiments/AOT/AOT_stimuli/rescaled_final/1080_fw.mp4	0.0	262.0366289615631	0.09998798370361328
55	240.3153851032257	fix_pre	0		120	53.0	2.5	/experiments/AOT/AOT_stimuli/rescaled_final/1066_fw.mp4	0.0	262.1366169452667	1.000087022781372
55	240.898912191391	pulse	0	t		53.0	2.5	/experiments/AOT/AOT_stimuli/rescaled_final/1066_fw.mp4	0.0	262.720144033432	
55	241.31547212600708	movie	1		243	53.0	2.5	/experiments/AOT/AOT_stimuli/rescaled_final/1066_fw.mp4	0.0	263.1367039680481	2.499988079071045
55	242.49900913238525	pulse	1	t		53.0	2.5	/experiments/AOT/AOT_stimuli/rescaled_final/1066_fw.mp4	0.0	264.32024097442627	
55	243.81546020507812	fix_post	2		12	53.0	2.5	/experiments/AOT/AOT_stimuli/rescaled_final/1066_fw.mp4	0.0	265.63669204711914	0.09994387626647949
56	243.9154040813446	fix_pre	0		120	54.0	2.5	/experiments/AOT/AOT_stimuli/rescaled_final/1595_rv.mp4	0.0	265.7366359233856	0.9999499320983887
56	244.09895706176758	pulse	0	t		54.0	2.5	/experiments/AOT/AOT_stimuli/rescaled_final/1595_rv.mp4	0.0	265.9201889038086	
56	244.915354013443	movie	1		246	54.0	2.5	/experiments/AOT/AOT_stimuli/rescaled_final/1595_rv.mp4	0.0	266.736585855484	2.5000650882720947
56	245.69892811775208	pulse	1	t		54.0	2.5	/experiments/AOT/AOT_stimuli/rescaled_final/1595_rv.mp4	0.0	267.5201599597931	
56	247.2973530292511	pulse	1	t		54.0	2.5	/experiments/AOT/AOT_stimuli/rescaled_final/1595_rv.mp4	0.0	269.1185848712921	
56	247.4154191017151	fix_post	2		12	54.0	2.5	/experiments/AOT/AOT_stimuli/rescaled_final/1595_rv.mp4	0.0	269.2366509437561	0.09996795654296875
57	247.51538705825806	fix_pre	0		120	55.0	2.5	blank	1.0	269.3366189002991	0.9999611377716064
57	248.51534819602966	movie	1		300	55.0	2.5	blank	1.0	270.3365800380707	2.50002384185791
57	248.89878702163696	pulse	1	t		55.0	2.5	blank	1.0	270.720018863678	
57	250.49877214431763	pulse	1	t		55.0	2.5	blank	1.0	272.32000398635864	
57	251.01537203788757	fix_post	2		12	55.0	2.5	blank	1.0	272.8366038799286	0.09997010231018066
58	251.11534214019775	fix_pre	0		119	56.0	2.5	/experiments/AOT/AOT_stimuli/rescaled_final/0239_fw.mp4	0.0	272.93657398223877	0.9917399883270264
58	252.0989270210266	pulse	0	t		56.0	2.5	/experiments/AOT/AOT_stimuli/rescaled_final/0239_fw.mp4	0.0	273.9201588630676	
58	252.10708212852478	movie	1		244	56.0	2.5	/experiments/AOT/AOT_stimuli/rescaled_final/0239_fw.mp4	0.0	273.9283139705658	2.508228063583374
58	253.69847917556763	pulse	1	t		56.0	2.5	/experiments/AOT/AOT_stimuli/rescaled_final/0239_fw.mp4	0.0	275.51971101760864	
58	254.61531019210815	fix_post	2		12	56.0	2.5	/experiments/AOT/AOT_stimuli/rescaled_final/0239_fw.mp4	0.0	276.43654203414917	0.10006380081176758
59	254.71537399291992	fix_pre	0		120	57.0	2.5	/experiments/AOT/AOT_stimuli/rescaled_final/1037_rv.mp4	0.0	276.53660583496094	1.0001041889190674
59	255.29881501197815	pulse	0	t		57.0	2.5	/experiments/AOT/AOT_stimuli/rescaled_final/1037_rv.mp4	0.0	277.12004685401917	
59	255.715478181839	movie	1		245	57.0	2.5	/experiments/AOT/AOT_stimuli/rescaled_final/1037_rv.mp4	0.0	277.53671002388	2.499858856201172
59	256.8988800048828	pulse	1	t		57.0	2.5	/experiments/AOT/AOT_stimuli/rescaled_final/1037_rv.mp4	0.0	278.7201118469238	
59	258.21533703804016	fix_post	2		12	57.0	2.5	/experiments/AOT/AOT_stimuli/rescaled_final/1037_rv.mp4	0.0	280.0365688800812	0.09997415542602539
60	258.3153111934662	fix_pre	0		120	58.0	2.5	/experiments/AOT/AOT_stimuli/rescaled_final/0589_fw.mp4	0.0	280.1365430355072	1.0000519752502441
60	258.4987840652466	pulse	0	t		58.0	2.5	/experiments/AOT/AOT_stimuli/rescaled_final/0589_fw.mp4	0.0	280.3200159072876	
60	259.31536316871643	movie	1		247	58.0	2.5	/experiments/AOT/AOT_stimuli/rescaled_final/0589_fw.mp4	0.0	281.13659501075745	2.5000059604644775
60	260.09875106811523	pulse	1	t		58.0	2.5	/experiments/AOT/AOT_stimuli/rescaled_final/0589_fw.mp4	0.0	281.91998291015625	
60	261.6987190246582	pulse	1	t		58.0	2.5	/experiments/AOT/AOT_stimuli/rescaled_final/0589_fw.mp4	0.0	283.5199508666992	
60	261.8153691291809	fix_post	2		12	58.0	2.5	/experiments/AOT/AOT_stimuli/rescaled_final/0589_fw.mp4	0.0	283.6366009712219	0.0999150276184082
61	261.9152841567993	fix_pre	0		120	59.0	2.5	/experiments/AOT/AOT_stimuli/rescaled_final/2167_fw.mp4	0.0	283.73651599884033	1.0000829696655273
61	262.91536712646484	movie	1		242	59.0	2.5	/experiments/AOT/AOT_stimuli/rescaled_final/2167_fw.mp4	0.0	284.73659896850586	2.4999940395355225
61	263.2981631755829	pulse	1	t		59.0	2.5	/experiments/AOT/AOT_stimuli/rescaled_final/2167_fw.mp4	0.0	285.1193950176239	
61	264.89888310432434	pulse	1	t		59.0	2.5	/experiments/AOT/AOT_stimuli/rescaled_final/2167_fw.mp4	0.0	286.72011494636536	
61	265.41536116600037	fix_post	2		12	59.0	2.5	/experiments/AOT/AOT_stimuli/rescaled_final/2167_fw.mp4	0.0	287.2365930080414	0.09992790222167969
62	265.51528906822205	fix_pre	0		119	60.0	2.5	/experiments/AOT/AOT_stimuli/rescaled_final/1041_fw.mp4	0.0	287.33652091026306	0.9916400909423828
62	266.4986550807953	pulse	0	t		60.0	2.5	/experiments/AOT/AOT_stimuli/rescaled_final/1041_fw.mp4	0.0	288.3198869228363	
62	266.50692915916443	movie	1		245	60.0	2.5	/experiments/AOT/AOT_stimuli/rescaled_final/1041_fw.mp4	0.0	288.32816100120544	2.508368968963623
62	268.09830117225647	pulse	1	t		60.0	2.5	/experiments/AOT/AOT_stimuli/rescaled_final/1041_fw.mp4	0.0	289.9195330142975	
62	269.01529812812805	fix_post	2		12	60.0	2.5	/experiments/AOT/AOT_stimuli/rescaled_final/1041_fw.mp4	0.0	290.83652997016907	0.10016608238220215
63	269.11546421051025	fix_pre	0		120	61.0	2.5	/experiments/AOT/AOT_stimuli/rescaled_final/1630_rv.mp4	0.0	290.93669605255127	0.9998438358306885
63	269.6987450122833	pulse	0	t		61.0	2.5	/experiments/AOT/AOT_stimuli/rescaled_final/1630_rv.mp4	0.0	291.51997685432434	
63	270.11530804634094	movie	1		244	61.0	2.5	/experiments/AOT/AOT_stimuli/rescaled_final/1630_rv.mp4	0.0	291.93653988838196	2.5000710487365723
63	271.29890418052673	pulse	1	t		61.0	2.5	/experiments/AOT/AOT_stimuli/rescaled_final/1630_rv.mp4	0.0	293.12013602256775	
63	272.6153790950775	fix_post	2		12	61.0	2.5	/experiments/AOT/AOT_stimuli/rescaled_final/1630_rv.mp4	0.0	294.43661093711853	0.09993600845336914
64	272.7153151035309	fix_pre	0		120	62.0	2.5	/experiments/AOT/AOT_stimuli/rescaled_final/0406_fw.mp4	0.0	294.5365469455719	0.9999980926513672
64	272.8988800048828	pulse	0	t		62.0	2.5	/experiments/AOT/AOT_stimuli/rescaled_final/0406_fw.mp4	0.0	294.7201118469238	
64	273.71531319618225	movie	1		245	62.0	2.5	/experiments/AOT/AOT_stimuli/rescaled_final/0406_fw.mp4	0.0	295.53654503822327	2.500079870223999
64	274.49823808670044	pulse	1	t		62.0	2.5	/experiments/AOT/AOT_stimuli/rescaled_final/0406_fw.mp4	0.0	296.31946992874146	
64	276.09882402420044	pulse	1	t		62.0	2.5	/experiments/AOT/AOT_stimuli/rescaled_final/0406_fw.mp4	0.0	297.92005586624146	
64	276.21539306640625	fix_post	2		12	62.0	2.5	/experiments/AOT/AOT_stimuli/rescaled_final/0406_fw.mp4	0.0	298.03662490844727	0.10004711151123047
65	276.3154401779175	fix_pre	0		120	63.0	2.5	blank	1.0	298.1366720199585	0.9997780323028564
65	277.31521821022034	movie	1		300	63.0	2.5	blank	1.0	299.13645005226135	2.500152826309204
65	277.69866704940796	pulse	1	t		63.0	2.5	blank	1.0	299.519898891449	
65	279.29865407943726	pulse	1	t		63.0	2.5	blank	1.0	301.11988592147827	
65	279.81537103652954	fix_post	2		12	63.0	2.5	blank	1.0	301.63660287857056	0.09984207153320312
66	279.91521310806274	fix_pre	0		119	64.0	2.5	/experiments/AOT/AOT_stimuli/rescaled_final/0189_fw.mp4	0.0	301.73644495010376	0.9916670322418213
66	280.89867401123047	pulse	0	t		64.0	2.5	/experiments/AOT/AOT_stimuli/rescaled_final/0189_fw.mp4	0.0	302.7199058532715	
66	280.90688014030457	movie	1		245	64.0	2.5	/experiments/AOT/AOT_stimuli/rescaled_final/0189_fw.mp4	0.0	302.7281119823456	2.508293867111206
66	282.49833822250366	pulse	1	t		64.0	2.5	/experiments/AOT/AOT_stimuli/rescaled_final/0189_fw.mp4	0.0	304.3195700645447	
66	283.41517400741577	fix_post	2		12	64.0	2.5	/experiments/AOT/AOT_stimuli/rescaled_final/0189_fw.mp4	0.0	305.2364058494568	0.09998202323913574
67	283.5151560306549	fix_pre	0		120	65.0	2.5	/experiments/AOT/AOT_stimuli/rescaled_final/2133_rv.mp4	0.0	305.3363878726959	1.0000321865081787
67	284.09869599342346	pulse	0	t		65.0	2.5	/experiments/AOT/AOT_stimuli/rescaled_final/2133_rv.mp4	0.0	305.9199278354645	
67	284.5151882171631	movie	1		244	65.0	2.5	/experiments/AOT/AOT_stimuli/rescaled_final/2133_rv.mp4	0.0	306.3364200592041	2.5000038146972656
67	285.698646068573	pulse	1	t		65.0	2.5	/experiments/AOT/AOT_stimuli/rescaled_final/2133_rv.mp4	0.0	307.519877910614	
67	287.01519203186035	fix_post	2		12	65.0	2.5	/experiments/AOT/AOT_stimuli/rescaled_final/2133_rv.mp4	0.0	308.83642387390137	0.09996509552001953
68	287.11515712738037	fix_pre	0		120	66.0	2.5	/experiments/AOT/AOT_stimuli/rescaled_final/0038_rv.mp4	0.0	308.9363889694214	0.9999580383300781
68	287.2986431121826	pulse	0	t		66.0	2.5	/experiments/AOT/AOT_stimuli/rescaled_final/0038_rv.mp4	0.0	309.11987495422363	
68	288.11511516571045	movie	1		245	66.0	2.5	/experiments/AOT/AOT_stimuli/rescaled_final/0038_rv.mp4	0.0	309.93634700775146	2.4999849796295166
68	288.89861512184143	pulse	1	t		66.0	2.5	/experiments/AOT/AOT_stimuli/rescaled_final/0038_rv.mp4	0.0	310.71984696388245	
68	290.4985320568085	pulse	1	t		66.0	2.5	/experiments/AOT/AOT_stimuli/rescaled_final/0038_rv.mp4	0.0	312.3197638988495	
68	290.61510014533997	fix_post	2		12	66.0	2.5	/experiments/AOT/AOT_stimuli/rescaled_final/0038_rv.mp4	0.0	312.436331987381	0.09999394416809082
69	290.71509408950806	fix_pre	0		120	67.0	2.5	/experiments/AOT/AOT_stimuli/rescaled_final/1477_fw.mp4	0.0	312.5363259315491	1.0000920295715332
69	291.7151861190796	movie	1		245	67.0	2.5	/experiments/AOT/AOT_stimuli/rescaled_final/1477_fw.mp4	0.0	313.5364179611206	2.5000269412994385
69	292.09883403778076	pulse	1	t		67.0	2.5	/experiments/AOT/AOT_stimuli/rescaled_final/1477_fw.mp4	0.0	313.9200658798218	
69	293.6986520290375	pulse	1	t		67.0	2.5	/experiments/AOT/AOT_stimuli/rescaled_final/1477_fw.mp4	0.0	315.5198838710785	
69	294.215213060379	fix_post	2		12	67.0	2.5	/experiments/AOT/AOT_stimuli/rescaled_final/1477_fw.mp4	0.0	316.03644490242004	0.09992194175720215
70	294.31513500213623	fix_pre	0		119	68.0	2.5	/experiments/AOT/AOT_stimuli/rescaled_final/0501_rv.mp4	0.0	316.13636684417725	0.9916441440582275
70	295.2987411022186	pulse	0	t		68.0	2.5	/experiments/AOT/AOT_stimuli/rescaled_final/0501_rv.mp4	0.0	317.11997294425964	
70	295.30677914619446	movie	1		246	68.0	2.5	/experiments/AOT/AOT_stimuli/rescaled_final/0501_rv.mp4	0.0	317.1280109882355	2.5083210468292236
70	296.8986461162567	pulse	1	t		68.0	2.5	/experiments/AOT/AOT_stimuli/rescaled_final/0501_rv.mp4	0.0	318.71987795829773	
70	297.8151001930237	fix_post	2		12	68.0	2.5	/experiments/AOT/AOT_stimuli/rescaled_final/0501_rv.mp4	0.0	319.6363320350647	0.10001897811889648
71	297.9151191711426	fix_pre	0		120	69.0	2.5	/experiments/AOT/AOT_stimuli/rescaled_final/0179_fw.mp4	0.0	319.7363510131836	1.0000228881835938
71	298.49863505363464	pulse	0	t		69.0	2.5	/experiments/AOT/AOT_stimuli/rescaled_final/0179_fw.mp4	0.0	320.31986689567566	
71	298.9151420593262	movie	1		245	69.0	2.5	/experiments/AOT/AOT_stimuli/rescaled_final/0179_fw.mp4	0.0	320.7363739013672	2.499979019165039
71	300.0987820625305	pulse	1	t		69.0	2.5	/experiments/AOT/AOT_stimuli/rescaled_final/0179_fw.mp4	0.0	321.92001390457153	
71	301.4151210784912	fix_post	2		12	69.0	2.5	/experiments/AOT/AOT_stimuli/rescaled_final/0179_fw.mp4	0.0	323.2363529205322	0.09992694854736328
72	301.5150480270386	fix_pre	0		120	70.0	2.5	blank	1.0	323.3362798690796	1.0000410079956055
72	301.6986451148987	pulse	0	t		70.0	2.5	blank	1.0	323.5198769569397	
72	302.5150890350342	movie	1		300	70.0	2.5	blank	1.0	324.3363208770752	2.499979019165039
72	303.2985939979553	pulse	1	t		70.0	2.5	blank	1.0	325.11982583999634	
72	304.8985950946808	pulse	1	t		70.0	2.5	blank	1.0	326.7198269367218	
72	305.0150680541992	fix_post	2		12	70.0	2.5	blank	1.0	326.83629989624023	0.10004901885986328
73	305.1151170730591	fix_pre	0		120	71.0	2.5	/experiments/AOT/AOT_stimuli/rescaled_final/0179_rv.mp4	0.0	326.9363489151001	0.9999661445617676
73	306.11508321762085	movie	1		243	71.0	2.5	/experiments/AOT/AOT_stimuli/rescaled_final/0179_rv.mp4	0.0	327.93631505966187	2.5000059604644775
73	306.49859619140625	pulse	1	t		71.0	2.5	/experiments/AOT/AOT_stimuli/rescaled_final/0179_rv.mp4	0.0	328.31982803344727	
73	308.0985441207886	pulse	1	t		71.0	2.5	/experiments/AOT/AOT_stimuli/rescaled_final/0179_rv.mp4	0.0	329.9197759628296	
73	308.6150891780853	fix_post	2		12	71.0	2.5	/experiments/AOT/AOT_stimuli/rescaled_final/0179_rv.mp4	0.0	330.43632102012634	0.09996891021728516
74	308.7150580883026	fix_pre	0		119	72.0	2.5	/experiments/AOT/AOT_stimuli/rescaled_final/1703_rv.mp4	0.0	330.5362899303436	0.991624116897583
74	309.69854521751404	pulse	0	t		72.0	2.5	/experiments/AOT/AOT_stimuli/rescaled_final/1703_rv.mp4	0.0	331.51977705955505	
74	309.7066822052002	movie	1		246	72.0	2.5	/experiments/AOT/AOT_stimuli/rescaled_final/1703_rv.mp4	0.0	331.5279140472412	2.5084688663482666
74	311.29821515083313	pulse	1	t		72.0	2.5	/experiments/AOT/AOT_stimuli/rescaled_final/1703_rv.mp4	0.0	333.11944699287415	
74	312.21515107154846	fix_post	2		12	72.0	2.5	/experiments/AOT/AOT_stimuli/rescaled_final/1703_rv.mp4	0.0	334.0363829135895	0.09989500045776367
75	312.3150460720062	fix_pre	0		120	73.0	2.5	/experiments/AOT/AOT_stimuli/rescaled_final/0343_fw.mp4	0.0	334.13627791404724	1.000082015991211
75	312.89851117134094	pulse	0	t		73.0	2.5	/experiments/AOT/AOT_stimuli/rescaled_final/0343_fw.mp4	0.0	334.71974301338196	
75	313.31512808799744	movie	1		245	73.0	2.5	/experiments/AOT/AOT_stimuli/rescaled_final/0343_fw.mp4	0.0	335.13635993003845	2.4998600482940674
75	314.4986310005188	pulse	1	t		73.0	2.5	/experiments/AOT/AOT_stimuli/rescaled_final/0343_fw.mp4	0.0	336.3198628425598	
75	315.8149881362915	fix_post	2		12	73.0	2.5	/experiments/AOT/AOT_stimuli/rescaled_final/0343_fw.mp4	0.0	337.6362199783325	0.10013985633850098
76	315.91512799263	fix_pre	0		120	74.0	2.5	/experiments/AOT/AOT_stimuli/rescaled_final/1167_rv.mp4	0.0	337.736359834671	0.999967098236084
76	316.09860920906067	pulse	0	t		74.0	2.5	/experiments/AOT/AOT_stimuli/rescaled_final/1167_rv.mp4	0.0	337.9198410511017	
76	316.9150950908661	movie	1		245	74.0	2.5	/experiments/AOT/AOT_stimuli/rescaled_final/1167_rv.mp4	0.0	338.7363269329071	2.499998092651367
76	317.6986172199249	pulse	1	t		74.0	2.5	/experiments/AOT/AOT_stimuli/rescaled_final/1167_rv.mp4	0.0	339.51984906196594	
76	319.2984981536865	pulse	1	t		74.0	2.5	/experiments/AOT/AOT_stimuli/rescaled_final/1167_rv.mp4	0.0	341.11972999572754	
76	319.41509318351746	fix_post	2		12	74.0	2.5	/experiments/AOT/AOT_stimuli/rescaled_final/1167_rv.mp4	0.0	341.2363250255585	0.09990787506103516
77	319.5150010585785	fix_pre	0		120	75.0	2.5	/experiments/AOT/AOT_stimuli/rescaled_final/0932_fw.mp4	0.0	341.3362329006195	1.0001239776611328
77	320.5151250362396	movie	1		244	75.0	2.5	/experiments/AOT/AOT_stimuli/rescaled_final/0932_fw.mp4	0.0	342.33635687828064	2.499819040298462
77	320.89830708503723	pulse	1	t		75.0	2.5	/experiments/AOT/AOT_stimuli/rescaled_final/0932_fw.mp4	0.0	342.71953892707825	
77	322.4984230995178	pulse	1	t		75.0	2.5	/experiments/AOT/AOT_stimuli/rescaled_final/0932_fw.mp4	0.0	344.31965494155884	
77	323.0149440765381	fix_post	2		12	75.0	2.5	/experiments/AOT/AOT_stimuli/rescaled_final/0932_fw.mp4	0.0	344.8361759185791	0.10004711151123047
78	323.1149911880493	fix_pre	0		119	76.0	2.5	/experiments/AOT/AOT_stimuli/rescaled_final/0381_fw.mp4	0.0	344.93622303009033	0.9917609691619873
78	324.0984191894531	pulse	0	t		76.0	2.5	/experiments/AOT/AOT_stimuli/rescaled_final/0381_fw.mp4	0.0	345.91965103149414	
78	324.1067521572113	movie	1		247	76.0	2.5	/experiments/AOT/AOT_stimuli/rescaled_final/0381_fw.mp4	0.0	345.9279839992523	2.5083670616149902
78	325.69815707206726	pulse	1	t		76.0	2.5	/experiments/AOT/AOT_stimuli/rescaled_final/0381_fw.mp4	0.0	347.5193889141083	
78	326.6151192188263	fix_post	2		12	76.0	2.5	/experiments/AOT/AOT_stimuli/rescaled_final/0381_fw.mp4	0.0	348.4363510608673	0.09984993934631348
79	326.7149691581726	fix_pre	0		120	77.0	2.5	blank	1.0	348.5362010002136	1.0001170635223389
79	327.2984871864319	pulse	0	t		77.0	2.5	blank	1.0	349.1197190284729	
79	327.71508622169495	movie	1		300	77.0	2.5	blank	1.0	349.53631806373596	2.4999139308929443
79	328.8985152244568	pulse	1	t		77.0	2.5	blank	1.0	350.7197470664978	
79	330.2150001525879	fix_post	2		12	77.0	2.5	blank	1.0	352.0362319946289	0.09960389137268066
80	330.31460404396057	fix_pre	0		120	78.0	2.5	/experiments/AOT/AOT_stimuli/rescaled_final/0048_rv.mp4	0.0	352.1358358860016	1.0004611015319824
80	330.49857807159424	pulse	0	t		78.0	2.5	/experiments/AOT/AOT_stimuli/rescaled_final/0048_rv.mp4	0.0	352.31980991363525	
80	331.31506514549255	movie	1		247	78.0	2.5	/experiments/AOT/AOT_stimuli/rescaled_final/0048_rv.mp4	0.0	353.13629698753357	2.5000550746917725
80	332.09866309165955	pulse	1	t		78.0	2.5	/experiments/AOT/AOT_stimuli/rescaled_final/0048_rv.mp4	0.0	353.91989493370056	
80	333.69850301742554	pulse	1	t		78.0	2.5	/experiments/AOT/AOT_stimuli/rescaled_final/0048_rv.mp4	0.0	355.51973485946655	
80	333.8151202201843	fix_post	2		12	78.0	2.5	/experiments/AOT/AOT_stimuli/rescaled_final/0048_rv.mp4	0.0	355.63635206222534	0.09986281394958496
81	333.9149830341339	fix_pre	0		120	79.0	2.5	/experiments/AOT/AOT_stimuli/rescaled_final/1772_rv.mp4	0.0	355.7362148761749	1.000014066696167
81	334.9149971008301	movie	1		246	79.0	2.5	/experiments/AOT/AOT_stimuli/rescaled_final/1772_rv.mp4	0.0	356.7362289428711	2.499953031539917
81	335.2998640537262	pulse	1	t		79.0	2.5	/experiments/AOT/AOT_stimuli/rescaled_final/1772_rv.mp4	0.0	357.1210958957672	
81	336.89841318130493	pulse	1	t		79.0	2.5	/experiments/AOT/AOT_stimuli/rescaled_final/1772_rv.mp4	0.0	358.71964502334595	
81	337.41495013237	fix_post	2		12	79.0	2.5	/experiments/AOT/AOT_stimuli/rescaled_final/1772_rv.mp4	0.0	359.236181974411	0.09999203681945801
82	337.51494216918945	fix_pre	0		119	80.0	2.5	/experiments/AOT/AOT_stimuli/rescaled_final/1608_rv.mp4	0.0	359.33617401123047	0.9916319847106934
82	338.4984061717987	pulse	0	t		80.0	2.5	/experiments/AOT/AOT_stimuli/rescaled_final/1608_rv.mp4	0.0	360.3196380138397	
82	338.50657415390015	movie	1		246	80.0	2.5	/experiments/AOT/AOT_stimuli/rescaled_final/1608_rv.mp4	0.0	360.32780599594116	2.5082788467407227
82	340.0981340408325	pulse	1	t		80.0	2.5	/experiments/AOT/AOT_stimuli/rescaled_final/1608_rv.mp4	0.0	361.91936588287354	
82	341.01485300064087	fix_post	2		12	80.0	2.5	/experiments/AOT/AOT_stimuli/rescaled_final/1608_rv.mp4	0.0	362.8360848426819	0.10003519058227539
83	341.11488819122314	fix_pre	0		120	81.0	2.5	/experiments/AOT/AOT_stimuli/rescaled_final/1924_fw.mp4	0.0	362.93612003326416	1.0000228881835938
83	341.6983730792999	pulse	0	t		81.0	2.5	/experiments/AOT/AOT_stimuli/rescaled_final/1924_fw.mp4	0.0	363.51960492134094	
83	342.11491107940674	movie	1		247	81.0	2.5	/experiments/AOT/AOT_stimuli/rescaled_final/1924_fw.mp4	0.0	363.93614292144775	2.4999871253967285
83	343.29849100112915	pulse	1	t		81.0	2.5	/experiments/AOT/AOT_stimuli/rescaled_final/1924_fw.mp4	0.0	365.11972284317017	
83	344.61489820480347	fix_post	2		12	81.0	2.5	/experiments/AOT/AOT_stimuli/rescaled_final/1924_fw.mp4	0.0	366.4361300468445	0.10000300407409668
84	344.71490120887756	fix_pre	0		120	82.0	2.5	blank	1.0	366.5361330509186	1.0000529289245605
84	344.89835810661316	pulse	0	t		82.0	2.5	blank	1.0	366.7195899486542	
84	345.7149541378021	movie	1		300	82.0	2.5	blank	1.0	367.53618597984314	2.499894857406616
84	346.49837613105774	pulse	1	t		82.0	2.5	blank	1.0	368.31960797309875	
84	348.098393201828	pulse	1	t		82.0	2.5	blank	1.0	369.919625043869	
84	348.21484899520874	fix_post	2		12	82.0	2.5	blank	1.0	370.03608083724976	0.10002803802490234
85	348.31487703323364	fix_pre	0		120	83.0	2.5	/experiments/AOT/AOT_stimuli/rescaled_final/1571_rv.mp4	0.0	370.13610887527466	1.0000360012054443
85	349.3149130344391	movie	1		244	83.0	2.5	/experiments/AOT/AOT_stimuli/rescaled_final/1571_rv.mp4	0.0	371.1361448764801	2.4999771118164062
85	349.6993601322174	pulse	1	t		83.0	2.5	/experiments/AOT/AOT_stimuli/rescaled_final/1571_rv.mp4	0.0	371.5205919742584	
85	351.29835414886475	pulse	1	t		83.0	2.5	/experiments/AOT/AOT_stimuli/rescaled_final/1571_rv.mp4	0.0	373.11958599090576	
85	351.8148901462555	fix_post	2		12	83.0	2.5	/experiments/AOT/AOT_stimuli/rescaled_final/1571_rv.mp4	0.0	373.6361219882965	0.09995198249816895
87	351.91484212875366	stim	0		1716					373.7360739707947	14.299907922744751
87	352.89835500717163	pulse	0	t						374.71958684921265	
87	354.4982590675354	pulse	0	t						376.3194909095764	
87	356.09827613830566	pulse	0	t						377.9195079803467	
87	357.6983230113983	pulse	0	t						379.51955485343933	
87	359.29820108413696	pulse	0	t						381.119432926178	
87	360.89828300476074	pulse	0	t						382.71951484680176	
87	362.4983642101288	pulse	0	t						384.3195960521698	
87	364.0982961654663	pulse	0	t						385.9195280075073	
87	365.6981761455536	pulse	0	t						387.5194079875946	
