trial_nr	onset	event_type	phase	response	nr_frames	movie_index	movie_duration	movie_file	blank	onset_abs	duration
0	0.10822200775146484	stim	0		21					38.10819697380066	0.17504286766052246
0	0.2754518985748291	response	0	space						38.27542686462402	
1	0.2832648754119873	stim	0		4706					38.28323984146118	39.2164580821991
1	39.49592590332031	pulse	0	t						77.4959008693695	
1	39.499722957611084	stim	1		1717					77.49969792366028	14.308318853378296
1	41.091569900512695	pulse	1	t						79.09154486656189	
1	42.69152283668518	pulse	1	t						80.69149780273438	
1	44.29151201248169	pulse	1	t						82.29148697853088	
1	45.89159393310547	pulse	1	t						83.89156889915466	
1	47.49156188964844	pulse	1	t						85.49153685569763	
1	49.091447830200195	pulse	1	t						87.09142279624939	
1	50.691401958465576	pulse	1	t						88.69137692451477	
1	52.2914559841156	pulse	1	t						90.2914309501648	
2	53.80804181098938	fix_pre	0		11	0.0	2.5	/experiments/AOT/AOT_stimuli/rescaled_final/0993_rv.mp4	0.0	91.80801677703857	0.09160113334655762
2	53.891366958618164	pulse	0	t		0.0	2.5	/experiments/AOT/AOT_stimuli/rescaled_final/0993_rv.mp4	0.0	91.89134192466736	
2	53.89964294433594	movie	1		242	0.0	2.5	/experiments/AOT/AOT_stimuli/rescaled_final/0993_rv.mp4	0.0	91.89961791038513	2.507901906967163
2	55.491575956344604	pulse	1	t		0.0	2.5	/experiments/AOT/AOT_stimuli/rescaled_final/0993_rv.mp4	0.0	93.4915509223938	
2	56.4075448513031	fix_post	2		12	0.0	2.5	/experiments/AOT/AOT_stimuli/rescaled_final/0993_rv.mp4	0.0	94.4075198173523	0.1005091667175293
3	56.50805401802063	fix_pre	0		120	1.0	2.5	/experiments/AOT/AOT_stimuli/rescaled_final/0135_rv.mp4	0.0	94.50802898406982	0.9999089241027832
3	57.09139800071716	pulse	0	t		1.0	2.5	/experiments/AOT/AOT_stimuli/rescaled_final/0135_rv.mp4	0.0	95.09137296676636	
3	57.50796294212341	movie	1		241	1.0	2.5	/experiments/AOT/AOT_stimuli/rescaled_final/0135_rv.mp4	0.0	95.50793790817261	2.500079870223999
3	58.69146680831909	pulse	1	t		1.0	2.5	/experiments/AOT/AOT_stimuli/rescaled_final/0135_rv.mp4	0.0	96.69144177436829	
3	60.00804281234741	fix_post	2		12	1.0	2.5	/experiments/AOT/AOT_stimuli/rescaled_final/0135_rv.mp4	0.0	98.0080177783966	0.09990501403808594
4	60.1079478263855	fix_pre	0		120	2.0	2.5	/experiments/AOT/AOT_stimuli/rescaled_final/0570_rv.mp4	0.0	98.10792279243469	0.9996249675750732
4	60.29155778884888	pulse	0	t		2.0	2.5	/experiments/AOT/AOT_stimuli/rescaled_final/0570_rv.mp4	0.0	98.29153275489807	
4	61.10757279396057	movie	1		245	2.0	2.5	/experiments/AOT/AOT_stimuli/rescaled_final/0570_rv.mp4	0.0	99.10754776000977	2.500185012817383
4	61.89097285270691	pulse	1	t		2.0	2.5	/experiments/AOT/AOT_stimuli/rescaled_final/0570_rv.mp4	0.0	99.8909478187561	
4	63.4999098777771	pulse	1	t		2.0	2.5	/experiments/AOT/AOT_stimuli/rescaled_final/0570_rv.mp4	0.0	101.4998848438263	
4	63.607757806777954	fix_post	2		12	2.0	2.5	/experiments/AOT/AOT_stimuli/rescaled_final/0570_rv.mp4	0.0	101.60773277282715	0.10001516342163086
5	63.707772970199585	fix_pre	0		120	3.0	2.5	/experiments/AOT/AOT_stimuli/rescaled_final/0598_rv.mp4	0.0	101.70774793624878	1.0001380443572998
5	64.70791101455688	movie	1		249	3.0	2.5	/experiments/AOT/AOT_stimuli/rescaled_final/0598_rv.mp4	0.0	102.70788598060608	2.5000128746032715
5	65.0906708240509	pulse	1	t		3.0	2.5	/experiments/AOT/AOT_stimuli/rescaled_final/0598_rv.mp4	0.0	103.0906457901001	
5	66.69138884544373	pulse	1	t		3.0	2.5	/experiments/AOT/AOT_stimuli/rescaled_final/0598_rv.mp4	0.0	104.69136381149292	
5	67.20792388916016	fix_post	2		12	3.0	2.5	/experiments/AOT/AOT_stimuli/rescaled_final/0598_rv.mp4	0.0	105.20789885520935	0.10000300407409668
6	67.30792689323425	fix_pre	0		119	4.0	2.5	/experiments/AOT/AOT_stimuli/rescaled_final/0214_fw.mp4	0.0	105.30790185928345	0.9916520118713379
6	68.2913589477539	pulse	0	t		4.0	2.5	/experiments/AOT/AOT_stimuli/rescaled_final/0214_fw.mp4	0.0	106.2913339138031	
6	68.29957890510559	movie	1		244	4.0	2.5	/experiments/AOT/AOT_stimuli/rescaled_final/0214_fw.mp4	0.0	106.29955387115479	2.507875919342041
6	69.89169192314148	pulse	1	t		4.0	2.5	/experiments/AOT/AOT_stimuli/rescaled_final/0214_fw.mp4	0.0	107.89166688919067	
6	70.80745482444763	fix_post	2		12	4.0	2.5	/experiments/AOT/AOT_stimuli/rescaled_final/0214_fw.mp4	0.0	108.80742979049683	0.10010004043579102
7	70.90755486488342	fix_pre	0		120	5.0	2.5	/experiments/AOT/AOT_stimuli/rescaled_final/0972_rv.mp4	0.0	108.90752983093262	1.0002970695495605
7	71.49148988723755	pulse	0	t		5.0	2.5	/experiments/AOT/AOT_stimuli/rescaled_final/0972_rv.mp4	0.0	109.49146485328674	
7	71.90785193443298	movie	1		243	5.0	2.5	/experiments/AOT/AOT_stimuli/rescaled_final/0972_rv.mp4	0.0	109.90782690048218	2.500002861022949
7	73.09143900871277	pulse	1	t		5.0	2.5	/experiments/AOT/AOT_stimuli/rescaled_final/0972_rv.mp4	0.0	111.09141397476196	
7	74.40785479545593	fix_post	2		12	5.0	2.5	/experiments/AOT/AOT_stimuli/rescaled_final/0972_rv.mp4	0.0	112.40782976150513	0.10001015663146973
8	74.5078649520874	fix_pre	0		120	6.0	2.5	blank	1.0	112.5078399181366	0.999953031539917
8	74.69134283065796	pulse	0	t		6.0	2.5	blank	1.0	112.69131779670715	
8	75.50781798362732	movie	1		300	6.0	2.5	blank	1.0	113.50779294967651	2.5000150203704834
8	76.29132199287415	pulse	1	t		6.0	2.5	blank	1.0	114.29129695892334	
8	77.89135193824768	pulse	1	t		6.0	2.5	blank	1.0	115.89132690429688	
8	78.0078330039978	fix_post	2		12	6.0	2.5	blank	1.0	116.007807970047	0.09996700286865234
9	78.10780000686646	fix_pre	0		120	7.0	2.5	/experiments/AOT/AOT_stimuli/rescaled_final/0604_rv.mp4	0.0	116.10777497291565	1.0000348091125488
9	79.107834815979	movie	1		244	7.0	2.5	/experiments/AOT/AOT_stimuli/rescaled_final/0604_rv.mp4	0.0	117.1078097820282	2.4999840259552
9	79.49155783653259	pulse	1	t		7.0	2.5	/experiments/AOT/AOT_stimuli/rescaled_final/0604_rv.mp4	0.0	117.49153280258179	
9	81.09146094322205	pulse	1	t		7.0	2.5	/experiments/AOT/AOT_stimuli/rescaled_final/0604_rv.mp4	0.0	119.09143590927124	
9	81.6078188419342	fix_post	2		12	7.0	2.5	/experiments/AOT/AOT_stimuli/rescaled_final/0604_rv.mp4	0.0	119.6077938079834	0.10004901885986328
10	81.70786786079407	fix_pre	0		119	8.0	2.5	/experiments/AOT/AOT_stimuli/rescaled_final/0977_rv.mp4	0.0	119.70784282684326	0.9916441440582275
10	82.69137501716614	pulse	0	t		8.0	2.5	/experiments/AOT/AOT_stimuli/rescaled_final/0977_rv.mp4	0.0	120.69134998321533	
10	82.6995120048523	movie	1		248	8.0	2.5	/experiments/AOT/AOT_stimuli/rescaled_final/0977_rv.mp4	0.0	120.69948697090149	2.508340835571289
10	84.29077482223511	pulse	1	t		8.0	2.5	/experiments/AOT/AOT_stimuli/rescaled_final/0977_rv.mp4	0.0	122.2907497882843	
10	85.20785284042358	fix_post	2		12	8.0	2.5	/experiments/AOT/AOT_stimuli/rescaled_final/0977_rv.mp4	0.0	123.20782780647278	0.10000300407409668
11	85.30785584449768	fix_pre	0		120	9.0	2.5	/experiments/AOT/AOT_stimuli/rescaled_final/1625_rv.mp4	0.0	123.30783081054688	1.0000810623168945
11	85.89135098457336	pulse	0	t		9.0	2.5	/experiments/AOT/AOT_stimuli/rescaled_final/1625_rv.mp4	0.0	123.89132595062256	
11	86.30793690681458	movie	1		246	9.0	2.5	/experiments/AOT/AOT_stimuli/rescaled_final/1625_rv.mp4	0.0	124.30791187286377	2.5000879764556885
11	87.4913899898529	pulse	1	t		9.0	2.5	/experiments/AOT/AOT_stimuli/rescaled_final/1625_rv.mp4	0.0	125.4913649559021	
11	88.80802488327026	fix_post	2		12	9.0	2.5	/experiments/AOT/AOT_stimuli/rescaled_final/1625_rv.mp4	0.0	126.80799984931946	0.09977006912231445
12	88.90779495239258	fix_pre	0		120	10.0	2.5	/experiments/AOT/AOT_stimuli/rescaled_final/2113_rv.mp4	0.0	126.90776991844177	0.9999840259552002
12	89.09134292602539	pulse	0	t		10.0	2.5	/experiments/AOT/AOT_stimuli/rescaled_final/2113_rv.mp4	0.0	127.09131789207458	
12	89.90777897834778	movie	1		246	10.0	2.5	/experiments/AOT/AOT_stimuli/rescaled_final/2113_rv.mp4	0.0	127.90775394439697	2.499971866607666
12	90.69126486778259	pulse	1	t		10.0	2.5	/experiments/AOT/AOT_stimuli/rescaled_final/2113_rv.mp4	0.0	128.6912398338318	
12	92.29095888137817	pulse	1	t		10.0	2.5	/experiments/AOT/AOT_stimuli/rescaled_final/2113_rv.mp4	0.0	130.29093384742737	
12	92.40775084495544	fix_post	2		12	10.0	2.5	/experiments/AOT/AOT_stimuli/rescaled_final/2113_rv.mp4	0.0	130.40772581100464	0.1000361442565918
13	92.50778698921204	fix_pre	0		120	11.0	2.5	/experiments/AOT/AOT_stimuli/rescaled_final/0716_rv.mp4	0.0	130.50776195526123	1.0000100135803223
13	93.50779700279236	movie	1		243	11.0	2.5	/experiments/AOT/AOT_stimuli/rescaled_final/0716_rv.mp4	0.0	131.50777196884155	2.500027894973755
13	93.89099383354187	pulse	1	t		11.0	2.5	/experiments/AOT/AOT_stimuli/rescaled_final/0716_rv.mp4	0.0	131.89096879959106	
13	95.49128985404968	pulse	1	t		11.0	2.5	/experiments/AOT/AOT_stimuli/rescaled_final/0716_rv.mp4	0.0	133.49126482009888	
13	96.00782489776611	fix_post	2		12	11.0	2.5	/experiments/AOT/AOT_stimuli/rescaled_final/0716_rv.mp4	0.0	134.0077998638153	0.099945068359375
14	96.10776996612549	fix_pre	0		119	12.0	2.5	/experiments/AOT/AOT_stimuli/rescaled_final/2037_fw.mp4	0.0	134.10774493217468	0.991569995880127
14	97.09126996994019	pulse	0	t		12.0	2.5	/experiments/AOT/AOT_stimuli/rescaled_final/2037_fw.mp4	0.0	135.09124493598938	
14	97.09933996200562	movie	1		246	12.0	2.5	/experiments/AOT/AOT_stimuli/rescaled_final/2037_fw.mp4	0.0	135.0993149280548	2.5079848766326904
14	98.69129490852356	pulse	1	t		12.0	2.5	/experiments/AOT/AOT_stimuli/rescaled_final/2037_fw.mp4	0.0	136.69126987457275	
14	99.6073248386383	fix_post	2		12	12.0	2.5	/experiments/AOT/AOT_stimuli/rescaled_final/2037_fw.mp4	0.0	137.6072998046875	0.10039401054382324
15	99.70771884918213	fix_pre	0		120	13.0	2.5	/experiments/AOT/AOT_stimuli/rescaled_final/1919_fw.mp4	0.0	137.70769381523132	1.0000231266021729
15	100.29123902320862	pulse	0	t		13.0	2.5	/experiments/AOT/AOT_stimuli/rescaled_final/1919_fw.mp4	0.0	138.2912139892578	
15	100.7077419757843	movie	1		242	13.0	2.5	/experiments/AOT/AOT_stimuli/rescaled_final/1919_fw.mp4	0.0	138.7077169418335	2.499940872192383
15	101.89127898216248	pulse	1	t		13.0	2.5	/experiments/AOT/AOT_stimuli/rescaled_final/1919_fw.mp4	0.0	139.89125394821167	
15	103.20768284797668	fix_post	2		12	13.0	2.5	/experiments/AOT/AOT_stimuli/rescaled_final/1919_fw.mp4	0.0	141.20765781402588	0.09966301918029785
16	103.30734586715698	fix_pre	0		120	14.0	2.5	blank	1.0	141.30732083320618	0.9999289512634277
16	103.4911777973175	pulse	0	t		14.0	2.5	blank	1.0	141.4911527633667	
16	104.30727481842041	movie	1		300	14.0	2.5	blank	1.0	142.3072497844696	2.5004570484161377
16	105.09123587608337	pulse	1	t		14.0	2.5	blank	1.0	143.09121084213257	
16	106.69117593765259	pulse	1	t		14.0	2.5	blank	1.0	144.69115090370178	
16	106.80773186683655	fix_post	2		12	14.0	2.5	blank	1.0	144.80770683288574	0.0995180606842041
17	106.90724992752075	fix_pre	0		120	15.0	2.5	/experiments/AOT/AOT_stimuli/rescaled_final/1293_fw.mp4	0.0	144.90722489356995	1.0000240802764893
17	107.90727400779724	movie	1		243	15.0	2.5	/experiments/AOT/AOT_stimuli/rescaled_final/1293_fw.mp4	0.0	145.90724897384644	2.5003838539123535
17	108.29965496063232	pulse	1	t		15.0	2.5	/experiments/AOT/AOT_stimuli/rescaled_final/1293_fw.mp4	0.0	146.29962992668152	
17	109.89118695259094	pulse	1	t		15.0	2.5	/experiments/AOT/AOT_stimuli/rescaled_final/1293_fw.mp4	0.0	147.89116191864014	
17	110.4076578617096	fix_post	2		12	15.0	2.5	/experiments/AOT/AOT_stimuli/rescaled_final/1293_fw.mp4	0.0	148.4076328277588	0.10010194778442383
18	110.50775980949402	fix_pre	0		119	16.0	2.5	/experiments/AOT/AOT_stimuli/rescaled_final/0420_fw.mp4	0.0	148.5077347755432	0.9916260242462158
18	111.49120688438416	pulse	0	t		16.0	2.5	/experiments/AOT/AOT_stimuli/rescaled_final/0420_fw.mp4	0.0	149.49118185043335	
18	111.49938583374023	movie	1		245	16.0	2.5	/experiments/AOT/AOT_stimuli/rescaled_final/0420_fw.mp4	0.0	149.49936079978943	2.5082759857177734
18	113.0925087928772	pulse	1	t		16.0	2.5	/experiments/AOT/AOT_stimuli/rescaled_final/0420_fw.mp4	0.0	151.0924837589264	
18	114.00766181945801	fix_post	2		12	16.0	2.5	/experiments/AOT/AOT_stimuli/rescaled_final/0420_fw.mp4	0.0	152.0076367855072	0.10014820098876953
19	114.10781002044678	fix_pre	0		120	17.0	2.5	/experiments/AOT/AOT_stimuli/rescaled_final/1250_rv.mp4	0.0	152.10778498649597	0.9998688697814941
19	114.69115781784058	pulse	0	t		17.0	2.5	/experiments/AOT/AOT_stimuli/rescaled_final/1250_rv.mp4	0.0	152.69113278388977	
19	115.10767889022827	movie	1		247	17.0	2.5	/experiments/AOT/AOT_stimuli/rescaled_final/1250_rv.mp4	0.0	153.10765385627747	2.499634027481079
19	116.29119300842285	pulse	1	t		17.0	2.5	/experiments/AOT/AOT_stimuli/rescaled_final/1250_rv.mp4	0.0	154.29116797447205	
19	117.60731291770935	fix_post	2		12	17.0	2.5	/experiments/AOT/AOT_stimuli/rescaled_final/1250_rv.mp4	0.0	155.60728788375854	0.10038208961486816
20	117.70769500732422	fix_pre	0		120	18.0	2.5	/experiments/AOT/AOT_stimuli/rescaled_final/1447_fw.mp4	0.0	155.7076699733734	0.999741792678833
20	117.89120292663574	pulse	0	t		18.0	2.5	/experiments/AOT/AOT_stimuli/rescaled_final/1447_fw.mp4	0.0	155.89117789268494	
20	118.70743680000305	movie	1		244	18.0	2.5	/experiments/AOT/AOT_stimuli/rescaled_final/1447_fw.mp4	0.0	156.70741176605225	2.5002551078796387
20	119.49091482162476	pulse	1	t		18.0	2.5	/experiments/AOT/AOT_stimuli/rescaled_final/1447_fw.mp4	0.0	157.49088978767395	
20	121.09927296638489	pulse	1	t		18.0	2.5	/experiments/AOT/AOT_stimuli/rescaled_final/1447_fw.mp4	0.0	159.09924793243408	
20	121.20769190788269	fix_post	2		12	18.0	2.5	/experiments/AOT/AOT_stimuli/rescaled_final/1447_fw.mp4	0.0	159.20766687393188	0.1000509262084961
21	121.30774283409119	fix_pre	0		120	19.0	2.5	blank	1.0	159.30771780014038	0.9999439716339111
21	122.3076868057251	movie	1		300	19.0	2.5	blank	1.0	160.3076617717743	2.5000181198120117
21	122.69118785858154	pulse	1	t		19.0	2.5	blank	1.0	160.69116282463074	
21	124.29113483428955	pulse	1	t		19.0	2.5	blank	1.0	162.29110980033875	
21	124.80770492553711	fix_post	2		12	19.0	2.5	blank	1.0	162.8076798915863	0.0999300479888916
22	124.907634973526	fix_pre	0		119	20.0	2.5	/experiments/AOT/AOT_stimuli/rescaled_final/1837_rv.mp4	0.0	162.9076099395752	0.991614818572998
22	125.89105296134949	pulse	0	t		20.0	2.5	/experiments/AOT/AOT_stimuli/rescaled_final/1837_rv.mp4	0.0	163.89102792739868	
22	125.899249792099	movie	1		245	20.0	2.5	/experiments/AOT/AOT_stimuli/rescaled_final/1837_rv.mp4	0.0	163.8992247581482	2.5083491802215576
22	127.4909439086914	pulse	1	t		20.0	2.5	/experiments/AOT/AOT_stimuli/rescaled_final/1837_rv.mp4	0.0	165.4909188747406	
22	128.40759897232056	fix_post	2		12	20.0	2.5	/experiments/AOT/AOT_stimuli/rescaled_final/1837_rv.mp4	0.0	166.40757393836975	0.10007691383361816
23	128.50767588615417	fix_pre	0		120	21.0	2.5	/experiments/AOT/AOT_stimuli/rescaled_final/0135_rv.mp4	0.0	166.50765085220337	0.9999039173126221
23	129.0911169052124	pulse	0	t		21.0	2.5	/experiments/AOT/AOT_stimuli/rescaled_final/0135_rv.mp4	0.0	167.0910918712616	
23	129.5075798034668	movie	1		243	21.0	2.5	/experiments/AOT/AOT_stimuli/rescaled_final/0135_rv.mp4	0.0	167.507554769516	2.499967098236084
23	130.69112396240234	pulse	1	t		21.0	2.5	/experiments/AOT/AOT_stimuli/rescaled_final/0135_rv.mp4	0.0	168.69109892845154	
23	132.00754690170288	fix_post	2		12	21.0	2.5	/experiments/AOT/AOT_stimuli/rescaled_final/0135_rv.mp4	0.0	170.00752186775208	0.10002803802490234
24	132.10757493972778	fix_pre	0		120	22.0	2.5	/experiments/AOT/AOT_stimuli/rescaled_final/0827_fw.mp4	0.0	170.10754990577698	0.9999840259552002
24	132.29109597206116	pulse	0	t		22.0	2.5	/experiments/AOT/AOT_stimuli/rescaled_final/0827_fw.mp4	0.0	170.29107093811035	
24	133.10755896568298	movie	1		245	22.0	2.5	/experiments/AOT/AOT_stimuli/rescaled_final/0827_fw.mp4	0.0	171.10753393173218	2.500005006790161
24	133.89105892181396	pulse	1	t		22.0	2.5	/experiments/AOT/AOT_stimuli/rescaled_final/0827_fw.mp4	0.0	171.89103388786316	
24	135.49110388755798	pulse	1	t		22.0	2.5	/experiments/AOT/AOT_stimuli/rescaled_final/0827_fw.mp4	0.0	173.49107885360718	
24	135.60756397247314	fix_post	2		12	22.0	2.5	/experiments/AOT/AOT_stimuli/rescaled_final/0827_fw.mp4	0.0	173.60753893852234	0.09996199607849121
25	135.70752596855164	fix_pre	0		120	23.0	2.5	/experiments/AOT/AOT_stimuli/rescaled_final/1136_rv.mp4	0.0	173.70750093460083	1.0000278949737549
25	136.7075538635254	movie	1		246	23.0	2.5	/experiments/AOT/AOT_stimuli/rescaled_final/1136_rv.mp4	0.0	174.70752882957458	2.4999749660491943
25	137.09073090553284	pulse	1	t		23.0	2.5	/experiments/AOT/AOT_stimuli/rescaled_final/1136_rv.mp4	0.0	175.09070587158203	
25	138.69109296798706	pulse	1	t		23.0	2.5	/experiments/AOT/AOT_stimuli/rescaled_final/1136_rv.mp4	0.0	176.69106793403625	
25	139.20752882957458	fix_post	2		12	23.0	2.5	/experiments/AOT/AOT_stimuli/rescaled_final/1136_rv.mp4	0.0	177.20750379562378	0.10001516342163086
26	139.30754399299622	fix_pre	0		119	24.0	2.5	/experiments/AOT/AOT_stimuli/rescaled_final/1171_fw.mp4	0.0	177.3075189590454	0.9916918277740479
26	140.29111099243164	pulse	0	t		24.0	2.5	/experiments/AOT/AOT_stimuli/rescaled_final/1171_fw.mp4	0.0	178.29108595848083	
26	140.29923582077026	movie	1		245	24.0	2.5	/experiments/AOT/AOT_stimuli/rescaled_final/1171_fw.mp4	0.0	178.29921078681946	2.5082461833953857
26	141.89943599700928	pulse	1	t		24.0	2.5	/experiments/AOT/AOT_stimuli/rescaled_final/1171_fw.mp4	0.0	179.89941096305847	
26	142.80748200416565	fix_post	2		12	24.0	2.5	/experiments/AOT/AOT_stimuli/rescaled_final/1171_fw.mp4	0.0	180.80745697021484	0.10002279281616211
27	142.9075047969818	fix_pre	0		120	25.0	2.5	/experiments/AOT/AOT_stimuli/rescaled_final/0879_rv.mp4	0.0	180.907479763031	1.0000441074371338
27	143.49103784561157	pulse	0	t		25.0	2.5	/experiments/AOT/AOT_stimuli/rescaled_final/0879_rv.mp4	0.0	181.49101281166077	
27	143.90754890441895	movie	1		246	25.0	2.5	/experiments/AOT/AOT_stimuli/rescaled_final/0879_rv.mp4	0.0	181.90752387046814	2.4995369911193848
27	145.09106302261353	pulse	1	t		25.0	2.5	/experiments/AOT/AOT_stimuli/rescaled_final/0879_rv.mp4	0.0	183.09103798866272	
27	146.40708589553833	fix_post	2		12	25.0	2.5	/experiments/AOT/AOT_stimuli/rescaled_final/0879_rv.mp4	0.0	184.40706086158752	0.10050606727600098
28	146.50759196281433	fix_pre	0		120	26.0	2.5	blank	1.0	184.50756692886353	0.9995050430297852
28	146.69102382659912	pulse	0	t		26.0	2.5	blank	1.0	184.69099879264832	
28	147.50709700584412	movie	1		300	26.0	2.5	blank	1.0	185.5070719718933	2.5003650188446045
28	148.29102396965027	pulse	1	t		26.0	2.5	blank	1.0	186.29099893569946	
28	149.89102482795715	pulse	1	t		26.0	2.5	blank	1.0	187.89099979400635	
28	150.00746202468872	fix_post	2		12	26.0	2.5	blank	1.0	188.00743699073792	0.10006284713745117
29	150.10752487182617	fix_pre	0		120	27.0	2.5	/experiments/AOT/AOT_stimuli/rescaled_final/1501_fw.mp4	0.0	188.10749983787537	1.0000081062316895
29	151.10753297805786	movie	1		246	27.0	2.5	/experiments/AOT/AOT_stimuli/rescaled_final/1501_fw.mp4	0.0	189.10750794410706	2.4996650218963623
29	151.49074602127075	pulse	1	t		27.0	2.5	/experiments/AOT/AOT_stimuli/rescaled_final/1501_fw.mp4	0.0	189.49072098731995	
29	153.0910849571228	pulse	1	t		27.0	2.5	/experiments/AOT/AOT_stimuli/rescaled_final/1501_fw.mp4	0.0	191.091059923172	
29	153.60719799995422	fix_post	2		12	27.0	2.5	/experiments/AOT/AOT_stimuli/rescaled_final/1501_fw.mp4	0.0	191.60717296600342	0.10030078887939453
30	153.70749878883362	fix_pre	0		119	28.0	2.5	/experiments/AOT/AOT_stimuli/rescaled_final/0918_fw.mp4	0.0	191.7074737548828	0.9916350841522217
30	154.6909999847412	pulse	0	t		28.0	2.5	/experiments/AOT/AOT_stimuli/rescaled_final/0918_fw.mp4	0.0	192.6909749507904	
30	154.69913387298584	movie	1		247	28.0	2.5	/experiments/AOT/AOT_stimuli/rescaled_final/0918_fw.mp4	0.0	192.69910883903503	2.507925033569336
30	156.29937982559204	pulse	1	t		28.0	2.5	/experiments/AOT/AOT_stimuli/rescaled_final/0918_fw.mp4	0.0	194.29935479164124	
30	157.20705890655518	fix_post	2		12	28.0	2.5	/experiments/AOT/AOT_stimuli/rescaled_final/0918_fw.mp4	0.0	195.20703387260437	0.10045194625854492
31	157.30751085281372	fix_pre	0		120	29.0	2.5	/experiments/AOT/AOT_stimuli/rescaled_final/0337_fw.mp4	0.0	195.30748581886292	0.9996490478515625
31	157.8909888267517	pulse	0	t		29.0	2.5	/experiments/AOT/AOT_stimuli/rescaled_final/0337_fw.mp4	0.0	195.8909637928009	
31	158.30715990066528	movie	1		243	29.0	2.5	/experiments/AOT/AOT_stimuli/rescaled_final/0337_fw.mp4	0.0	196.30713486671448	2.500304937362671
31	159.49107885360718	pulse	1	t		29.0	2.5	/experiments/AOT/AOT_stimuli/rescaled_final/0337_fw.mp4	0.0	197.49105381965637	
31	160.80746483802795	fix_post	2		12	29.0	2.5	/experiments/AOT/AOT_stimuli/rescaled_final/0337_fw.mp4	0.0	198.80743980407715	0.1000220775604248
32	160.90748691558838	fix_pre	0		120	30.0	2.5	/experiments/AOT/AOT_stimuli/rescaled_final/1049_rv.mp4	0.0	198.90746188163757	1.0000410079956055
32	161.09098482131958	pulse	0	t		30.0	2.5	/experiments/AOT/AOT_stimuli/rescaled_final/1049_rv.mp4	0.0	199.09095978736877	
32	161.90752792358398	movie	1		244	30.0	2.5	/experiments/AOT/AOT_stimuli/rescaled_final/1049_rv.mp4	0.0	199.90750288963318	2.499501943588257
32	162.6908938884735	pulse	1	t		30.0	2.5	/experiments/AOT/AOT_stimuli/rescaled_final/1049_rv.mp4	0.0	200.6908688545227	
32	164.2913568019867	pulse	1	t		30.0	2.5	/experiments/AOT/AOT_stimuli/rescaled_final/1049_rv.mp4	0.0	202.2913317680359	
32	164.40702986717224	fix_post	2		12	30.0	2.5	/experiments/AOT/AOT_stimuli/rescaled_final/1049_rv.mp4	0.0	202.40700483322144	0.10040402412414551
33	164.5074338912964	fix_pre	0		120	31.0	2.5	/experiments/AOT/AOT_stimuli/rescaled_final/1180_rv.mp4	0.0	202.50740885734558	1.0000860691070557
33	165.50751996040344	movie	1		243	31.0	2.5	/experiments/AOT/AOT_stimuli/rescaled_final/1180_rv.mp4	0.0	203.50749492645264	2.499871015548706
33	165.89051985740662	pulse	1	t		31.0	2.5	/experiments/AOT/AOT_stimuli/rescaled_final/1180_rv.mp4	0.0	203.8904948234558	
33	167.49105501174927	pulse	1	t		31.0	2.5	/experiments/AOT/AOT_stimuli/rescaled_final/1180_rv.mp4	0.0	205.49102997779846	
33	168.00739097595215	fix_post	2		12	31.0	2.5	/experiments/AOT/AOT_stimuli/rescaled_final/1180_rv.mp4	0.0	206.00736594200134	0.10005593299865723
34	168.1074469089508	fix_pre	0		119	32.0	2.5	/experiments/AOT/AOT_stimuli/rescaled_final/1242_fw.mp4	0.0	206.107421875	0.9916219711303711
34	169.09098196029663	pulse	0	t		32.0	2.5	/experiments/AOT/AOT_stimuli/rescaled_final/1242_fw.mp4	0.0	207.09095692634583	
34	169.09906888008118	movie	1		245	32.0	2.5	/experiments/AOT/AOT_stimuli/rescaled_final/1242_fw.mp4	0.0	207.09904384613037	2.508423089981079
34	170.6909317970276	pulse	1	t		32.0	2.5	/experiments/AOT/AOT_stimuli/rescaled_final/1242_fw.mp4	0.0	208.69090676307678	
34	171.60749197006226	fix_post	2		12	32.0	2.5	/experiments/AOT/AOT_stimuli/rescaled_final/1242_fw.mp4	0.0	209.60746693611145	0.09990787506103516
35	171.7073998451233	fix_pre	0		120	33.0	2.5	blank	1.0	209.70737481117249	0.9995770454406738
35	172.2919089794159	pulse	0	t		33.0	2.5	blank	1.0	210.2918839454651	
35	172.70697689056396	movie	1		300	33.0	2.5	blank	1.0	210.70695185661316	2.500149965286255
35	173.89134287834167	pulse	1	t		33.0	2.5	blank	1.0	211.89131784439087	
35	175.20712685585022	fix_post	2		12	33.0	2.5	blank	1.0	213.2071018218994	0.10054397583007812
36	175.3076708316803	fix_pre	0		120	34.0	2.5	/experiments/AOT/AOT_stimuli/rescaled_final/0228_fw.mp4	0.0	213.3076457977295	0.9996881484985352
36	175.49147987365723	pulse	0	t		34.0	2.5	/experiments/AOT/AOT_stimuli/rescaled_final/0228_fw.mp4	0.0	213.49145483970642	
36	176.30735898017883	movie	1		245	34.0	2.5	/experiments/AOT/AOT_stimuli/rescaled_final/0228_fw.mp4	0.0	214.30733394622803	2.499630928039551
36	177.09090185165405	pulse	1	t		34.0	2.5	/experiments/AOT/AOT_stimuli/rescaled_final/0228_fw.mp4	0.0	215.09087681770325	
36	178.6911849975586	pulse	1	t		34.0	2.5	/experiments/AOT/AOT_stimuli/rescaled_final/0228_fw.mp4	0.0	216.6911599636078	
36	178.80698990821838	fix_post	2		12	34.0	2.5	/experiments/AOT/AOT_stimuli/rescaled_final/0228_fw.mp4	0.0	216.80696487426758	0.10032391548156738
37	178.90731382369995	fix_pre	0		120	35.0	2.5	/experiments/AOT/AOT_stimuli/rescaled_final/1293_fw.mp4	0.0	216.90728878974915	1.0000879764556885
37	179.90740180015564	movie	1		245	35.0	2.5	/experiments/AOT/AOT_stimuli/rescaled_final/1293_fw.mp4	0.0	217.90737676620483	2.499890089035034
37	180.29926180839539	pulse	1	t		35.0	2.5	/experiments/AOT/AOT_stimuli/rescaled_final/1293_fw.mp4	0.0	218.29923677444458	
37	181.8907549381256	pulse	1	t		35.0	2.5	/experiments/AOT/AOT_stimuli/rescaled_final/1293_fw.mp4	0.0	219.8907299041748	
37	182.40729188919067	fix_post	2		12	35.0	2.5	/experiments/AOT/AOT_stimuli/rescaled_final/1293_fw.mp4	0.0	220.40726685523987	0.10002994537353516
38	182.5073218345642	fix_pre	0		119	36.0	2.5	/experiments/AOT/AOT_stimuli/rescaled_final/2086_rv.mp4	0.0	220.5072968006134	0.9916880130767822
38	183.49077987670898	pulse	0	t		36.0	2.5	/experiments/AOT/AOT_stimuli/rescaled_final/2086_rv.mp4	0.0	221.49075484275818	
38	183.499009847641	movie	1		245	36.0	2.5	/experiments/AOT/AOT_stimuli/rescaled_final/2086_rv.mp4	0.0	221.49898481369019	2.508308172225952
38	185.09921193122864	pulse	1	t		36.0	2.5	/experiments/AOT/AOT_stimuli/rescaled_final/2086_rv.mp4	0.0	223.09918689727783	
38	186.00731801986694	fix_post	2		12	36.0	2.5	/experiments/AOT/AOT_stimuli/rescaled_final/2086_rv.mp4	0.0	224.00729298591614	0.09994292259216309
39	186.1072609424591	fix_pre	0		120	37.0	2.5	/experiments/AOT/AOT_stimuli/rescaled_final/1878_rv.mp4	0.0	224.1072359085083	0.9996159076690674
39	186.69083499908447	pulse	0	t		37.0	2.5	/experiments/AOT/AOT_stimuli/rescaled_final/1878_rv.mp4	0.0	224.69080996513367	
39	187.10687685012817	movie	1		244	37.0	2.5	/experiments/AOT/AOT_stimuli/rescaled_final/1878_rv.mp4	0.0	225.10685181617737	2.499958038330078
39	188.2917079925537	pulse	1	t		37.0	2.5	/experiments/AOT/AOT_stimuli/rescaled_final/1878_rv.mp4	0.0	226.2916829586029	
39	189.60683488845825	fix_post	2		12	37.0	2.5	/experiments/AOT/AOT_stimuli/rescaled_final/1878_rv.mp4	0.0	227.60680985450745	0.10043597221374512
40	189.707270860672	fix_pre	0		120	38.0	2.5	/experiments/AOT/AOT_stimuli/rescaled_final/0499_fw.mp4	0.0	227.7072458267212	1.0000791549682617
40	189.89148688316345	pulse	0	t		38.0	2.5	/experiments/AOT/AOT_stimuli/rescaled_final/0499_fw.mp4	0.0	227.89146184921265	
40	190.70735001564026	movie	1		242	38.0	2.5	/experiments/AOT/AOT_stimuli/rescaled_final/0499_fw.mp4	0.0	228.70732498168945	2.4999449253082275
40	191.49165892601013	pulse	1	t		38.0	2.5	/experiments/AOT/AOT_stimuli/rescaled_final/0499_fw.mp4	0.0	229.49163389205933	
40	193.09920287132263	pulse	1	t		38.0	2.5	/experiments/AOT/AOT_stimuli/rescaled_final/0499_fw.mp4	0.0	231.09917783737183	
40	193.2072949409485	fix_post	2		12	38.0	2.5	/experiments/AOT/AOT_stimuli/rescaled_final/0499_fw.mp4	0.0	231.20726990699768	0.09994196891784668
41	193.30723690986633	fix_pre	0		120	39.0	2.5	/experiments/AOT/AOT_stimuli/rescaled_final/1746_rv.mp4	0.0	231.30721187591553	1.0000789165496826
41	194.30731582641602	movie	1		242	39.0	2.5	/experiments/AOT/AOT_stimuli/rescaled_final/1746_rv.mp4	0.0	232.3072907924652	2.499556064605713
41	194.699156999588	pulse	1	t		39.0	2.5	/experiments/AOT/AOT_stimuli/rescaled_final/1746_rv.mp4	0.0	232.6991319656372	
41	196.29089999198914	pulse	1	t		39.0	2.5	/experiments/AOT/AOT_stimuli/rescaled_final/1746_rv.mp4	0.0	234.29087495803833	
41	196.80687189102173	fix_post	2		12	39.0	2.5	/experiments/AOT/AOT_stimuli/rescaled_final/1746_rv.mp4	0.0	234.80684685707092	0.10042095184326172
42	196.907292842865	fix_pre	0		119	40.0	2.5	/experiments/AOT/AOT_stimuli/rescaled_final/0106_rv.mp4	0.0	234.90726780891418	0.991685152053833
42	197.89068984985352	pulse	0	t		40.0	2.5	/experiments/AOT/AOT_stimuli/rescaled_final/0106_rv.mp4	0.0	235.8906648159027	
42	197.89897799491882	movie	1		245	40.0	2.5	/experiments/AOT/AOT_stimuli/rescaled_final/0106_rv.mp4	0.0	235.89895296096802	2.5079028606414795
42	199.49049592018127	pulse	1	t		40.0	2.5	/experiments/AOT/AOT_stimuli/rescaled_final/0106_rv.mp4	0.0	237.49047088623047	
42	200.4068808555603	fix_post	2		12	40.0	2.5	/experiments/AOT/AOT_stimuli/rescaled_final/0106_rv.mp4	0.0	238.4068558216095	0.10032296180725098
43	200.50720381736755	fix_pre	0		120	41.0	2.5	blank	1.0	238.50717878341675	1.0000619888305664
43	201.0908019542694	pulse	0	t		41.0	2.5	blank	1.0	239.0907769203186	
43	201.50726580619812	movie	1		300	41.0	2.5	blank	1.0	239.50724077224731	2.4995360374450684
43	202.69078302383423	pulse	1	t		41.0	2.5	blank	1.0	240.69075798988342	
43	204.0068018436432	fix_post	2		12	41.0	2.5	blank	1.0	242.00677680969238	0.10048794746398926
44	204.10728979110718	fix_pre	0		120	42.0	2.5	/experiments/AOT/AOT_stimuli/rescaled_final/0533_fw.mp4	0.0	242.10726475715637	0.9999470710754395
44	204.29161095619202	pulse	0	t		42.0	2.5	/experiments/AOT/AOT_stimuli/rescaled_final/0533_fw.mp4	0.0	242.2915859222412	
44	205.10723686218262	movie	1		244	42.0	2.5	/experiments/AOT/AOT_stimuli/rescaled_final/0533_fw.mp4	0.0	243.1072118282318	2.499591112136841
44	205.89169883728027	pulse	1	t		42.0	2.5	/experiments/AOT/AOT_stimuli/rescaled_final/0533_fw.mp4	0.0	243.89167380332947	
44	207.49912786483765	pulse	1	t		42.0	2.5	/experiments/AOT/AOT_stimuli/rescaled_final/0533_fw.mp4	0.0	245.49910283088684	
44	207.60682797431946	fix_post	2		12	42.0	2.5	/experiments/AOT/AOT_stimuli/rescaled_final/0533_fw.mp4	0.0	245.60680294036865	0.10045886039733887
45	207.7072868347168	fix_pre	0		120	43.0	2.5	/experiments/AOT/AOT_stimuli/rescaled_final/0336_rv.mp4	0.0	245.707261800766	0.9998641014099121
45	208.7071509361267	movie	1		244	43.0	2.5	/experiments/AOT/AOT_stimuli/rescaled_final/0336_rv.mp4	0.0	246.7071259021759	2.500123977661133
45	209.0990788936615	pulse	1	t		43.0	2.5	/experiments/AOT/AOT_stimuli/rescaled_final/0336_rv.mp4	0.0	247.0990538597107	
45	210.6916220188141	pulse	1	t		43.0	2.5	/experiments/AOT/AOT_stimuli/rescaled_final/0336_rv.mp4	0.0	248.69159698486328	
45	211.20727491378784	fix_post	2		12	43.0	2.5	/experiments/AOT/AOT_stimuli/rescaled_final/0336_rv.mp4	0.0	249.20724987983704	0.09952688217163086
46	211.30680179595947	fix_pre	0		119	44.0	2.5	/experiments/AOT/AOT_stimuli/rescaled_final/1763_rv.mp4	0.0	249.30677676200867	0.9921281337738037
46	212.29081082344055	pulse	0	t		44.0	2.5	/experiments/AOT/AOT_stimuli/rescaled_final/1763_rv.mp4	0.0	250.29078578948975	
46	212.29892992973328	movie	1		244	44.0	2.5	/experiments/AOT/AOT_stimuli/rescaled_final/1763_rv.mp4	0.0	250.29890489578247	2.5081419944763184
46	213.8907608985901	pulse	1	t		44.0	2.5	/experiments/AOT/AOT_stimuli/rescaled_final/1763_rv.mp4	0.0	251.89073586463928	
46	214.8070719242096	fix_post	2		12	44.0	2.5	/experiments/AOT/AOT_stimuli/rescaled_final/1763_rv.mp4	0.0	252.8070468902588	0.09967589378356934
47	214.90674781799316	fix_pre	0		120	45.0	2.5	/experiments/AOT/AOT_stimuli/rescaled_final/1375_fw.mp4	0.0	252.90672278404236	1.000478982925415
47	215.4906439781189	pulse	0	t		45.0	2.5	/experiments/AOT/AOT_stimuli/rescaled_final/1375_fw.mp4	0.0	253.4906189441681	
47	215.90722680091858	movie	1		242	45.0	2.5	/experiments/AOT/AOT_stimuli/rescaled_final/1375_fw.mp4	0.0	253.90720176696777	2.4994871616363525
47	217.09072995185852	pulse	1	t		45.0	2.5	/experiments/AOT/AOT_stimuli/rescaled_final/1375_fw.mp4	0.0	255.09070491790771	
47	218.40671396255493	fix_post	2		12	45.0	2.5	/experiments/AOT/AOT_stimuli/rescaled_final/1375_fw.mp4	0.0	256.4066889286041	0.10055088996887207
48	218.5072648525238	fix_pre	0		120	46.0	2.5	/experiments/AOT/AOT_stimuli/rescaled_final/1764_rv.mp4	0.0	256.507239818573	0.9999289512634277
48	218.6906750202179	pulse	0	t		46.0	2.5	/experiments/AOT/AOT_stimuli/rescaled_final/1764_rv.mp4	0.0	256.6906499862671	
48	219.50719380378723	movie	1		244	46.0	2.5	/experiments/AOT/AOT_stimuli/rescaled_final/1764_rv.mp4	0.0	257.5071687698364	2.499922037124634
48	220.29160380363464	pulse	1	t		46.0	2.5	/experiments/AOT/AOT_stimuli/rescaled_final/1764_rv.mp4	0.0	258.29157876968384	
48	221.89903497695923	pulse	1	t		46.0	2.5	/experiments/AOT/AOT_stimuli/rescaled_final/1764_rv.mp4	0.0	259.8990099430084	
48	222.00711584091187	fix_post	2		12	46.0	2.5	/experiments/AOT/AOT_stimuli/rescaled_final/1764_rv.mp4	0.0	260.00709080696106	0.1000211238861084
49	222.10713696479797	fix_pre	0		120	47.0	2.5	/experiments/AOT/AOT_stimuli/rescaled_final/0686_fw.mp4	0.0	260.10711193084717	0.9996490478515625
49	223.10678601264954	movie	1		244	47.0	2.5	/experiments/AOT/AOT_stimuli/rescaled_final/0686_fw.mp4	0.0	261.10676097869873	2.500539779663086
49	223.49906301498413	pulse	1	t		47.0	2.5	/experiments/AOT/AOT_stimuli/rescaled_final/0686_fw.mp4	0.0	261.4990379810333	
49	225.0916199684143	pulse	1	t		47.0	2.5	/experiments/AOT/AOT_stimuli/rescaled_final/0686_fw.mp4	0.0	263.0915949344635	
49	225.60732579231262	fix_post	2		12	47.0	2.5	/experiments/AOT/AOT_stimuli/rescaled_final/0686_fw.mp4	0.0	263.6073007583618	0.09984612464904785
50	225.70717191696167	fix_pre	0		120	48.0	2.5	blank	1.0	263.70714688301086	0.9998989105224609
50	226.69153499603271	pulse	0	t		48.0	2.5	blank	1.0	264.6915099620819	
50	226.70707082748413	movie	1		301	48.0	2.5	blank	1.0	264.7070457935333	2.5080480575561523
50	228.29061794281006	pulse	1	t		48.0	2.5	blank	1.0	266.29059290885925	
50	229.21511888504028	fix_post	2		12	48.0	2.5	blank	1.0	267.2150938510895	0.10035490989685059
51	229.31547379493713	fix_pre	0		120	49.0	2.5	/experiments/AOT/AOT_stimuli/rescaled_final/0993_fw.mp4	0.0	267.3154487609863	0.9996170997619629
51	229.89130091667175	pulse	0	t		49.0	2.5	/experiments/AOT/AOT_stimuli/rescaled_final/0993_fw.mp4	0.0	267.89127588272095	
51	230.3150908946991	movie	1		243	49.0	2.5	/experiments/AOT/AOT_stimuli/rescaled_final/0993_fw.mp4	0.0	268.3150658607483	2.50040602684021
51	231.49156093597412	pulse	1	t		49.0	2.5	/experiments/AOT/AOT_stimuli/rescaled_final/0993_fw.mp4	0.0	269.4915359020233	
51	232.8154969215393	fix_post	2		12	49.0	2.5	/experiments/AOT/AOT_stimuli/rescaled_final/0993_fw.mp4	0.0	270.8154718875885	0.09997987747192383
52	232.91547679901123	fix_pre	0		120	50.0	2.5	/experiments/AOT/AOT_stimuli/rescaled_final/2082_fw.mp4	0.0	270.9154517650604	1.0000040531158447
52	233.09064888954163	pulse	0	t		50.0	2.5	/experiments/AOT/AOT_stimuli/rescaled_final/2082_fw.mp4	0.0	271.0906238555908	
52	233.91548085212708	movie	1		244	50.0	2.5	/experiments/AOT/AOT_stimuli/rescaled_final/2082_fw.mp4	0.0	271.91545581817627	2.49992299079895
52	234.6906659603119	pulse	1	t		50.0	2.5	/experiments/AOT/AOT_stimuli/rescaled_final/2082_fw.mp4	0.0	272.6906409263611	
52	236.29761791229248	pulse	1	t		50.0	2.5	/experiments/AOT/AOT_stimuli/rescaled_final/2082_fw.mp4	0.0	274.2975928783417	
52	236.41540384292603	fix_post	2		12	50.0	2.5	/experiments/AOT/AOT_stimuli/rescaled_final/2082_fw.mp4	0.0	274.4153788089752	0.10009098052978516
53	236.5154948234558	fix_pre	0		120	51.0	2.5	/experiments/AOT/AOT_stimuli/rescaled_final/0883_rv.mp4	0.0	274.515469789505	0.999500036239624
53	237.51499485969543	movie	1		244	51.0	2.5	/experiments/AOT/AOT_stimuli/rescaled_final/0883_rv.mp4	0.0	275.51496982574463	2.5003740787506104
53	237.89869785308838	pulse	1	t		51.0	2.5	/experiments/AOT/AOT_stimuli/rescaled_final/0883_rv.mp4	0.0	275.8986728191376	
53	239.49148678779602	pulse	1	t		51.0	2.5	/experiments/AOT/AOT_stimuli/rescaled_final/0883_rv.mp4	0.0	277.4914617538452	
53	240.01536893844604	fix_post	2		12	51.0	2.5	/experiments/AOT/AOT_stimuli/rescaled_final/0883_rv.mp4	0.0	278.01534390449524	0.10004997253417969
54	240.11541891098022	fix_pre	0		119	52.0	2.5	/experiments/AOT/AOT_stimuli/rescaled_final/0509_fw.mp4	0.0	278.1153938770294	0.9916529655456543
54	241.09130883216858	pulse	0	t		52.0	2.5	/experiments/AOT/AOT_stimuli/rescaled_final/0509_fw.mp4	0.0	279.0912837982178	
54	241.10707187652588	movie	1		250	52.0	2.5	/experiments/AOT/AOT_stimuli/rescaled_final/0509_fw.mp4	0.0	279.1070468425751	2.5083560943603516
54	242.69827699661255	pulse	1	t		52.0	2.5	/experiments/AOT/AOT_stimuli/rescaled_final/0509_fw.mp4	0.0	280.69825196266174	
54	243.61542797088623	fix_post	2		12	52.0	2.5	/experiments/AOT/AOT_stimuli/rescaled_final/0509_fw.mp4	0.0	281.6154029369354	0.09995794296264648
55	243.71538591384888	fix_pre	0		120	53.0	2.5	/experiments/AOT/AOT_stimuli/rescaled_final/0532_rv.mp4	0.0	281.71536087989807	0.9996490478515625
55	244.2914538383484	pulse	0	t		53.0	2.5	/experiments/AOT/AOT_stimuli/rescaled_final/0532_rv.mp4	0.0	282.2914288043976	
55	244.71503496170044	movie	1		247	53.0	2.5	/experiments/AOT/AOT_stimuli/rescaled_final/0532_rv.mp4	0.0	282.71500992774963	2.5002708435058594
55	245.89884281158447	pulse	1	t		53.0	2.5	/experiments/AOT/AOT_stimuli/rescaled_final/0532_rv.mp4	0.0	283.89881777763367	
55	247.2153058052063	fix_post	2		12	53.0	2.5	/experiments/AOT/AOT_stimuli/rescaled_final/0532_rv.mp4	0.0	285.2152807712555	0.1000981330871582
56	247.31540393829346	fix_pre	0		120	54.0	2.5	/experiments/AOT/AOT_stimuli/rescaled_final/1265_fw.mp4	0.0	285.31537890434265	0.9999918937683105
56	247.4905138015747	pulse	0	t		54.0	2.5	/experiments/AOT/AOT_stimuli/rescaled_final/1265_fw.mp4	0.0	285.4904887676239	
56	248.31539583206177	movie	1		244	54.0	2.5	/experiments/AOT/AOT_stimuli/rescaled_final/1265_fw.mp4	0.0	286.31537079811096	2.5000131130218506
56	249.0905499458313	pulse	1	t		54.0	2.5	/experiments/AOT/AOT_stimuli/rescaled_final/1265_fw.mp4	0.0	287.0905249118805	
56	250.69053983688354	pulse	1	t		54.0	2.5	/experiments/AOT/AOT_stimuli/rescaled_final/1265_fw.mp4	0.0	288.69051480293274	
56	250.81540894508362	fix_post	2		12	54.0	2.5	/experiments/AOT/AOT_stimuli/rescaled_final/1265_fw.mp4	0.0	288.8153839111328	0.09992790222167969
57	250.9153368473053	fix_pre	0		120	55.0	2.5	/experiments/AOT/AOT_stimuli/rescaled_final/0420_rv.mp4	0.0	288.9153118133545	1.000028133392334
57	251.91536498069763	movie	1		243	55.0	2.5	/experiments/AOT/AOT_stimuli/rescaled_final/0420_rv.mp4	0.0	289.9153399467468	2.499950885772705
57	252.29843878746033	pulse	1	t		55.0	2.5	/experiments/AOT/AOT_stimuli/rescaled_final/0420_rv.mp4	0.0	290.2984137535095	
57	253.8914918899536	pulse	1	t		55.0	2.5	/experiments/AOT/AOT_stimuli/rescaled_final/0420_rv.mp4	0.0	291.8914668560028	
57	254.41531586647034	fix_post	2		12	55.0	2.5	/experiments/AOT/AOT_stimuli/rescaled_final/0420_rv.mp4	0.0	292.41529083251953	0.0999600887298584
58	254.5152759552002	fix_pre	0		119	56.0	2.5	blank	1.0	292.5152509212494	0.9917409420013428
58	255.49164080619812	pulse	0	t		56.0	2.5	blank	1.0	293.4916157722473	
58	255.50701689720154	movie	1		301	56.0	2.5	blank	1.0	293.50699186325073	2.5078840255737305
58	257.0913188457489	pulse	1	t		56.0	2.5	blank	1.0	295.0912938117981	
58	258.01490092277527	fix_post	2		12	56.0	2.5	blank	1.0	296.01487588882446	0.10050296783447266
59	258.11540389060974	fix_pre	0		120	57.0	2.5	/experiments/AOT/AOT_stimuli/rescaled_final/1290_rv.mp4	0.0	296.11537885665894	0.9999189376831055
59	258.6913080215454	pulse	0	t		57.0	2.5	/experiments/AOT/AOT_stimuli/rescaled_final/1290_rv.mp4	0.0	296.6912829875946	
59	259.11532282829285	movie	1		244	57.0	2.5	/experiments/AOT/AOT_stimuli/rescaled_final/1290_rv.mp4	0.0	297.11529779434204	2.499922037124634
59	260.2989068031311	pulse	1	t		57.0	2.5	/experiments/AOT/AOT_stimuli/rescaled_final/1290_rv.mp4	0.0	298.2988817691803	
59	261.6152448654175	fix_post	2		12	57.0	2.5	/experiments/AOT/AOT_stimuli/rescaled_final/1290_rv.mp4	0.0	299.6152198314667	0.09998607635498047
60	261.71523094177246	fix_pre	0		120	58.0	2.5	/experiments/AOT/AOT_stimuli/rescaled_final/0880_rv.mp4	0.0	299.71520590782166	0.9996778964996338
60	261.89129281044006	pulse	0	t		58.0	2.5	/experiments/AOT/AOT_stimuli/rescaled_final/0880_rv.mp4	0.0	299.89126777648926	
60	262.7149088382721	movie	1		247	58.0	2.5	/experiments/AOT/AOT_stimuli/rescaled_final/0880_rv.mp4	0.0	300.7148838043213	2.500425100326538
60	263.4913020133972	pulse	1	t		58.0	2.5	/experiments/AOT/AOT_stimuli/rescaled_final/0880_rv.mp4	0.0	301.4912769794464	
60	265.0904610157013	pulse	1	t		58.0	2.5	/experiments/AOT/AOT_stimuli/rescaled_final/0880_rv.mp4	0.0	303.0904359817505	
60	265.21533393859863	fix_post	2		12	58.0	2.5	/experiments/AOT/AOT_stimuli/rescaled_final/0880_rv.mp4	0.0	303.2153089046478	0.09954595565795898
61	265.3148798942566	fix_pre	0		120	59.0	2.5	/experiments/AOT/AOT_stimuli/rescaled_final/1565_fw.mp4	0.0	303.3148548603058	1.0004229545593262
61	266.3153028488159	movie	1		245	59.0	2.5	/experiments/AOT/AOT_stimuli/rescaled_final/1565_fw.mp4	0.0	304.3152778148651	2.4996001720428467
61	266.690477848053	pulse	1	t		59.0	2.5	/experiments/AOT/AOT_stimuli/rescaled_final/1565_fw.mp4	0.0	304.6904528141022	
61	268.2914228439331	pulse	1	t		59.0	2.5	/experiments/AOT/AOT_stimuli/rescaled_final/1565_fw.mp4	0.0	306.2913978099823	
61	268.81490302085876	fix_post	2		12	59.0	2.5	/experiments/AOT/AOT_stimuli/rescaled_final/1565_fw.mp4	0.0	306.81487798690796	0.10032796859741211
62	268.9152309894562	fix_pre	0		119	60.0	2.5	/experiments/AOT/AOT_stimuli/rescaled_final/0555_fw.mp4	0.0	306.91520595550537	0.9916658401489258
62	269.89109683036804	pulse	0	t		60.0	2.5	/experiments/AOT/AOT_stimuli/rescaled_final/0555_fw.mp4	0.0	307.89107179641724	
62	269.9068968296051	movie	1		245	60.0	2.5	/experiments/AOT/AOT_stimuli/rescaled_final/0555_fw.mp4	0.0	307.9068717956543	2.5078980922698975
62	271.49813199043274	pulse	1	t		60.0	2.5	/experiments/AOT/AOT_stimuli/rescaled_final/0555_fw.mp4	0.0	309.49810695648193	
62	272.414794921875	fix_post	2		12	60.0	2.5	/experiments/AOT/AOT_stimuli/rescaled_final/0555_fw.mp4	0.0	310.4147698879242	0.10007309913635254
63	272.51486802101135	fix_pre	0		120	61.0	2.5	/experiments/AOT/AOT_stimuli/rescaled_final/0532_rv.mp4	0.0	310.51484298706055	1.00032377243042
63	273.09120202064514	pulse	0	t		61.0	2.5	/experiments/AOT/AOT_stimuli/rescaled_final/0532_rv.mp4	0.0	311.09117698669434	
63	273.5151917934418	movie	1		245	61.0	2.5	/experiments/AOT/AOT_stimuli/rescaled_final/0532_rv.mp4	0.0	311.51516675949097	2.499603033065796
63	274.69880199432373	pulse	1	t		61.0	2.5	/experiments/AOT/AOT_stimuli/rescaled_final/0532_rv.mp4	0.0	312.6987769603729	
63	276.01479482650757	fix_post	2		12	61.0	2.5	/experiments/AOT/AOT_stimuli/rescaled_final/0532_rv.mp4	0.0	314.01476979255676	0.10043811798095703
64	276.1152329444885	fix_pre	0		120	62.0	2.5	blank	1.0	314.1152079105377	0.9999899864196777
64	276.2911949157715	pulse	0	t		62.0	2.5	blank	1.0	314.2911698818207	
64	277.1152229309082	movie	1		300	62.0	2.5	blank	1.0	315.1151978969574	2.499976873397827
64	277.89115691185	pulse	1	t		62.0	2.5	blank	1.0	315.89113187789917	
64	279.4904088973999	pulse	1	t		62.0	2.5	blank	1.0	317.4903838634491	
64	279.61519980430603	fix_post	2		12	62.0	2.5	blank	1.0	317.6151747703552	0.10003805160522461
65	279.71523785591125	fix_pre	0		120	63.0	2.5	/experiments/AOT/AOT_stimuli/rescaled_final/0157_fw.mp4	0.0	317.71521282196045	0.9999139308929443
65	280.7151517868042	movie	1		243	63.0	2.5	/experiments/AOT/AOT_stimuli/rescaled_final/0157_fw.mp4	0.0	318.7151267528534	2.499617099761963
65	281.0983648300171	pulse	1	t		63.0	2.5	/experiments/AOT/AOT_stimuli/rescaled_final/0157_fw.mp4	0.0	319.0983397960663	
65	282.69047689437866	pulse	1	t		63.0	2.5	/experiments/AOT/AOT_stimuli/rescaled_final/0157_fw.mp4	0.0	320.69045186042786	
65	283.21476888656616	fix_post	2		12	63.0	2.5	/experiments/AOT/AOT_stimuli/rescaled_final/0157_fw.mp4	0.0	321.21474385261536	0.10051894187927246
66	283.31528782844543	fix_pre	0		119	64.0	2.5	/experiments/AOT/AOT_stimuli/rescaled_final/1516_rv.mp4	0.0	321.31526279449463	0.9915690422058105
66	284.2982997894287	pulse	0	t		64.0	2.5	/experiments/AOT/AOT_stimuli/rescaled_final/1516_rv.mp4	0.0	322.2982747554779	
66	284.30685687065125	movie	1		246	64.0	2.5	/experiments/AOT/AOT_stimuli/rescaled_final/1516_rv.mp4	0.0	322.30683183670044	2.5081639289855957
66	285.8976650238037	pulse	1	t		64.0	2.5	/experiments/AOT/AOT_stimuli/rescaled_final/1516_rv.mp4	0.0	323.8976399898529	
66	286.81502079963684	fix_post	2		12	64.0	2.5	/experiments/AOT/AOT_stimuli/rescaled_final/1516_rv.mp4	0.0	324.81499576568604	0.10032200813293457
67	286.9153428077698	fix_pre	0		120	65.0	2.5	/experiments/AOT/AOT_stimuli/rescaled_final/0135_fw.mp4	0.0	324.91531777381897	1.0002450942993164
67	287.49158096313477	pulse	0	t		65.0	2.5	/experiments/AOT/AOT_stimuli/rescaled_final/0135_fw.mp4	0.0	325.49155592918396	
67	287.9155879020691	movie	1		244	65.0	2.5	/experiments/AOT/AOT_stimuli/rescaled_final/0135_fw.mp4	0.0	325.9155628681183	2.499129056930542
67	289.0987288951874	pulse	1	t		65.0	2.5	/experiments/AOT/AOT_stimuli/rescaled_final/0135_fw.mp4	0.0	327.0987038612366	
67	290.41471695899963	fix_post	2		12	65.0	2.5	/experiments/AOT/AOT_stimuli/rescaled_final/0135_fw.mp4	0.0	328.4146919250488	0.10048294067382812
68	290.51519989967346	fix_pre	0		120	66.0	2.5	/experiments/AOT/AOT_stimuli/rescaled_final/0560_rv.mp4	0.0	328.51517486572266	0.9999799728393555
68	290.691143989563	pulse	0	t		66.0	2.5	/experiments/AOT/AOT_stimuli/rescaled_final/0560_rv.mp4	0.0	328.6911189556122	
68	291.5151798725128	movie	1		247	66.0	2.5	/experiments/AOT/AOT_stimuli/rescaled_final/0560_rv.mp4	0.0	329.515154838562	2.4995851516723633
68	292.29116201400757	pulse	1	t		66.0	2.5	/experiments/AOT/AOT_stimuli/rescaled_final/0560_rv.mp4	0.0	330.29113698005676	
68	293.8910789489746	pulse	1	t		66.0	2.5	/experiments/AOT/AOT_stimuli/rescaled_final/0560_rv.mp4	0.0	331.8910539150238	
68	294.0147650241852	fix_post	2		12	66.0	2.5	/experiments/AOT/AOT_stimuli/rescaled_final/0560_rv.mp4	0.0	332.0147399902344	0.09995079040527344
69	294.11471581459045	fix_pre	0		120	67.0	2.5	/experiments/AOT/AOT_stimuli/rescaled_final/1615_rv.mp4	0.0	332.11469078063965	1.0004169940948486
69	295.1151328086853	movie	1		246	67.0	2.5	/experiments/AOT/AOT_stimuli/rescaled_final/1615_rv.mp4	0.0	333.1151077747345	2.4995250701904297
69	295.4979889392853	pulse	1	t		67.0	2.5	/experiments/AOT/AOT_stimuli/rescaled_final/1615_rv.mp4	0.0	333.4979639053345	
69	297.0912148952484	pulse	1	t		67.0	2.5	/experiments/AOT/AOT_stimuli/rescaled_final/1615_rv.mp4	0.0	335.0911898612976	
69	297.61465787887573	fix_post	2		12	67.0	2.5	/experiments/AOT/AOT_stimuli/rescaled_final/1615_rv.mp4	0.0	335.6146328449249	0.10046195983886719
70	297.7151198387146	fix_pre	0		119	68.0	2.5	blank	1.0	335.7150948047638	0.9916470050811768
70	298.6910789012909	pulse	0	t		68.0	2.5	blank	1.0	336.6910538673401	
70	298.7067668437958	movie	1		301	68.0	2.5	blank	1.0	336.70674180984497	2.5083200931549072
70	300.29862785339355	pulse	1	t		68.0	2.5	blank	1.0	338.29860281944275	
70	301.2150869369507	fix_post	2		12	68.0	2.5	blank	1.0	339.2150619029999	0.10001301765441895
71	301.3150999546051	fix_pre	0		120	69.0	2.5	/experiments/AOT/AOT_stimuli/rescaled_final/0031_fw.mp4	0.0	339.3150749206543	0.9999709129333496
71	301.8911988735199	pulse	0	t		69.0	2.5	/experiments/AOT/AOT_stimuli/rescaled_final/0031_fw.mp4	0.0	339.8911738395691	
71	302.31507086753845	movie	1		245	69.0	2.5	/experiments/AOT/AOT_stimuli/rescaled_final/0031_fw.mp4	0.0	340.31504583358765	2.5000710487365723
71	303.4986729621887	pulse	1	t		69.0	2.5	/experiments/AOT/AOT_stimuli/rescaled_final/0031_fw.mp4	0.0	341.4986479282379	
71	304.815141916275	fix_post	2		12	69.0	2.5	/experiments/AOT/AOT_stimuli/rescaled_final/0031_fw.mp4	0.0	342.8151168823242	0.09993600845336914
72	304.9150779247284	fix_pre	0		120	70.0	2.5	/experiments/AOT/AOT_stimuli/rescaled_final/2001_rv.mp4	0.0	342.9150528907776	0.9996700286865234
72	305.0911250114441	pulse	0	t		70.0	2.5	/experiments/AOT/AOT_stimuli/rescaled_final/2001_rv.mp4	0.0	343.0910999774933	
72	305.9147479534149	movie	1		243	70.0	2.5	/experiments/AOT/AOT_stimuli/rescaled_final/2001_rv.mp4	0.0	343.9147229194641	2.500311851501465
72	306.6910488605499	pulse	1	t		70.0	2.5	/experiments/AOT/AOT_stimuli/rescaled_final/2001_rv.mp4	0.0	344.6910238265991	
72	308.2969768047333	pulse	1	t		70.0	2.5	/experiments/AOT/AOT_stimuli/rescaled_final/2001_rv.mp4	0.0	346.29695177078247	
72	308.4150598049164	fix_post	2		12	70.0	2.5	/experiments/AOT/AOT_stimuli/rescaled_final/2001_rv.mp4	0.0	346.4150347709656	0.09992814064025879
73	308.51498794555664	fix_pre	0		120	71.0	2.5	/experiments/AOT/AOT_stimuli/rescaled_final/1208_rv.mp4	0.0	346.51496291160583	1.0000979900360107
73	309.51508593559265	movie	1		247	71.0	2.5	/experiments/AOT/AOT_stimuli/rescaled_final/1208_rv.mp4	0.0	347.51506090164185	2.4999940395355225
73	309.8985188007355	pulse	1	t		71.0	2.5	/experiments/AOT/AOT_stimuli/rescaled_final/1208_rv.mp4	0.0	347.89849376678467	
73	311.4910879135132	pulse	1	t		71.0	2.5	/experiments/AOT/AOT_stimuli/rescaled_final/1208_rv.mp4	0.0	349.4910628795624	
73	312.0150799751282	fix_post	2		12	71.0	2.5	/experiments/AOT/AOT_stimuli/rescaled_final/1208_rv.mp4	0.0	350.01505494117737	0.09996700286865234
74	312.1150469779968	fix_pre	0		119	72.0	2.5	/experiments/AOT/AOT_stimuli/rescaled_final/1624_rv.mp4	0.0	350.115021944046	0.9916470050811768
74	313.09095001220703	pulse	0	t		72.0	2.5	/experiments/AOT/AOT_stimuli/rescaled_final/1624_rv.mp4	0.0	351.0909249782562	
74	313.106693983078	movie	1		246	72.0	2.5	/experiments/AOT/AOT_stimuli/rescaled_final/1624_rv.mp4	0.0	351.1066689491272	2.508356809616089
74	314.69798588752747	pulse	1	t		72.0	2.5	/experiments/AOT/AOT_stimuli/rescaled_final/1624_rv.mp4	0.0	352.69796085357666	
74	315.6150507926941	fix_post	2		12	72.0	2.5	/experiments/AOT/AOT_stimuli/rescaled_final/1624_rv.mp4	0.0	353.6150257587433	0.09995603561401367
75	315.7150068283081	fix_pre	0		120	73.0	2.5	/experiments/AOT/AOT_stimuli/rescaled_final/0015_fw.mp4	0.0	353.7149817943573	0.9999761581420898
75	316.2986309528351	pulse	0	t		73.0	2.5	/experiments/AOT/AOT_stimuli/rescaled_final/0015_fw.mp4	0.0	354.2986059188843	
75	316.7149829864502	movie	1		245	73.0	2.5	/experiments/AOT/AOT_stimuli/rescaled_final/0015_fw.mp4	0.0	354.7149579524994	2.4995980262756348
75	317.8985879421234	pulse	1	t		73.0	2.5	/experiments/AOT/AOT_stimuli/rescaled_final/0015_fw.mp4	0.0	355.8985629081726	
75	319.21458101272583	fix_post	2		12	73.0	2.5	/experiments/AOT/AOT_stimuli/rescaled_final/0015_fw.mp4	0.0	357.214555978775	0.10050797462463379
76	319.31508898735046	fix_pre	0		120	74.0	2.5	/experiments/AOT/AOT_stimuli/rescaled_final/0491_rv.mp4	0.0	357.31506395339966	0.9999048709869385
76	319.4985818862915	pulse	0	t		74.0	2.5	/experiments/AOT/AOT_stimuli/rescaled_final/0491_rv.mp4	0.0	357.4985568523407	
76	320.3149938583374	movie	1		244	74.0	2.5	/experiments/AOT/AOT_stimuli/rescaled_final/0491_rv.mp4	0.0	358.3149688243866	2.5000569820404053
76	321.0910379886627	pulse	1	t		74.0	2.5	/experiments/AOT/AOT_stimuli/rescaled_final/0491_rv.mp4	0.0	359.0910129547119	
76	322.69715189933777	pulse	1	t		74.0	2.5	/experiments/AOT/AOT_stimuli/rescaled_final/0491_rv.mp4	0.0	360.69712686538696	
76	322.8150508403778	fix_post	2		12	74.0	2.5	/experiments/AOT/AOT_stimuli/rescaled_final/0491_rv.mp4	0.0	360.815025806427	0.09996700286865234
77	322.91501784324646	fix_pre	0		120	75.0	2.5	/experiments/AOT/AOT_stimuli/rescaled_final/0965_fw.mp4	0.0	360.91499280929565	1.000040054321289
77	323.91505789756775	movie	1		244	75.0	2.5	/experiments/AOT/AOT_stimuli/rescaled_final/0965_fw.mp4	0.0	361.91503286361694	2.4999349117279053
77	324.2982017993927	pulse	1	t		75.0	2.5	/experiments/AOT/AOT_stimuli/rescaled_final/0965_fw.mp4	0.0	362.2981767654419	
77	325.89116382598877	pulse	1	t		75.0	2.5	/experiments/AOT/AOT_stimuli/rescaled_final/0965_fw.mp4	0.0	363.89113879203796	
77	326.41499280929565	fix_post	2		12	75.0	2.5	/experiments/AOT/AOT_stimuli/rescaled_final/0965_fw.mp4	0.0	364.41496777534485	0.09959697723388672
78	326.51458978652954	fix_pre	0		119	76.0	2.5	blank	1.0	364.51456475257874	0.9920430183410645
78	327.49088978767395	pulse	0	t		76.0	2.5	blank	1.0	365.49086475372314	
78	327.5066328048706	movie	1		301	76.0	2.5	blank	1.0	365.5066077709198	2.508378028869629
78	329.0910019874573	pulse	1	t		76.0	2.5	blank	1.0	367.09097695350647	
78	330.01501083374023	fix_post	2		12	76.0	2.5	blank	1.0	368.01498579978943	0.09998297691345215
79	330.1149938106537	fix_pre	0		120	77.0	2.5	/experiments/AOT/AOT_stimuli/rescaled_final/1809_fw.mp4	0.0	368.1149687767029	0.999946117401123
79	330.69092202186584	pulse	0	t		77.0	2.5	/experiments/AOT/AOT_stimuli/rescaled_final/1809_fw.mp4	0.0	368.69089698791504	
79	331.1149399280548	movie	1		244	77.0	2.5	/experiments/AOT/AOT_stimuli/rescaled_final/1809_fw.mp4	0.0	369.114914894104	2.4995858669281006
79	332.2985179424286	pulse	1	t		77.0	2.5	/experiments/AOT/AOT_stimuli/rescaled_final/1809_fw.mp4	0.0	370.2984929084778	
79	333.6145257949829	fix_post	2		12	77.0	2.5	/experiments/AOT/AOT_stimuli/rescaled_final/1809_fw.mp4	0.0	371.6145007610321	0.10039710998535156
80	333.71492290496826	fix_pre	0		120	78.0	2.5	/experiments/AOT/AOT_stimuli/rescaled_final/1618_rv.mp4	0.0	371.71489787101746	0.9999959468841553
80	333.89844489097595	pulse	0	t		78.0	2.5	/experiments/AOT/AOT_stimuli/rescaled_final/1618_rv.mp4	0.0	371.89841985702515	
80	334.7149188518524	movie	1		247	78.0	2.5	/experiments/AOT/AOT_stimuli/rescaled_final/1618_rv.mp4	0.0	372.7148938179016	2.4999771118164062
80	335.4917209148407	pulse	1	t		78.0	2.5	/experiments/AOT/AOT_stimuli/rescaled_final/1618_rv.mp4	0.0	373.4916958808899	
80	337.0910608768463	pulse	1	t		78.0	2.5	/experiments/AOT/AOT_stimuli/rescaled_final/1618_rv.mp4	0.0	375.0910358428955	
80	337.2148959636688	fix_post	2		12	78.0	2.5	/experiments/AOT/AOT_stimuli/rescaled_final/1618_rv.mp4	0.0	375.214870929718	0.10004305839538574
81	337.3149390220642	fix_pre	0		120	79.0	2.5	/experiments/AOT/AOT_stimuli/rescaled_final/1131_fw.mp4	0.0	375.3149139881134	1.000025987625122
81	338.31496500968933	movie	1		246	79.0	2.5	/experiments/AOT/AOT_stimuli/rescaled_final/1131_fw.mp4	0.0	376.3149399757385	2.4999518394470215
81	338.6978018283844	pulse	1	t		79.0	2.5	/experiments/AOT/AOT_stimuli/rescaled_final/1131_fw.mp4	0.0	376.6977767944336	
81	340.29787397384644	pulse	1	t		79.0	2.5	/experiments/AOT/AOT_stimuli/rescaled_final/1131_fw.mp4	0.0	378.29784893989563	
81	340.81491684913635	fix_post	2		12	79.0	2.5	/experiments/AOT/AOT_stimuli/rescaled_final/1131_fw.mp4	0.0	378.81489181518555	0.10002994537353516
82	340.9149467945099	fix_pre	0		119	80.0	2.5	/experiments/AOT/AOT_stimuli/rescaled_final/0339_fw.mp4	0.0	378.9149217605591	0.9919061660766602
82	341.8984909057617	pulse	0	t		80.0	2.5	/experiments/AOT/AOT_stimuli/rescaled_final/0339_fw.mp4	0.0	379.8984658718109	
82	341.90685296058655	movie	1		248	80.0	2.5	/experiments/AOT/AOT_stimuli/rescaled_final/0339_fw.mp4	0.0	379.90682792663574	2.5080409049987793
82	343.4983329772949	pulse	1	t		80.0	2.5	/experiments/AOT/AOT_stimuli/rescaled_final/0339_fw.mp4	0.0	381.4983079433441	
82	344.4148938655853	fix_post	2		12	80.0	2.5	/experiments/AOT/AOT_stimuli/rescaled_final/0339_fw.mp4	0.0	382.4148688316345	0.10007905960083008
83	344.51497292518616	fix_pre	0		120	81.0	2.5	/experiments/AOT/AOT_stimuli/rescaled_final/1571_rv.mp4	0.0	382.51494789123535	1.0000150203704834
83	345.09090089797974	pulse	0	t		81.0	2.5	/experiments/AOT/AOT_stimuli/rescaled_final/1571_rv.mp4	0.0	383.09087586402893	
83	345.51498794555664	movie	1		244	81.0	2.5	/experiments/AOT/AOT_stimuli/rescaled_final/1571_rv.mp4	0.0	383.51496291160583	2.4998888969421387
83	346.6909120082855	pulse	1	t		81.0	2.5	/experiments/AOT/AOT_stimuli/rescaled_final/1571_rv.mp4	0.0	384.6908869743347	
83	348.0148768424988	fix_post	2		12	81.0	2.5	/experiments/AOT/AOT_stimuli/rescaled_final/1571_rv.mp4	0.0	386.014851808548	0.09997797012329102
84	348.11485481262207	fix_pre	0		120	82.0	2.5	blank	1.0	386.11482977867126	0.9999730587005615
84	348.29836082458496	pulse	0	t		82.0	2.5	blank	1.0	386.29833579063416	
84	349.11482787132263	movie	1		300	82.0	2.5	blank	1.0	387.1148028373718	2.500082015991211
84	349.8983368873596	pulse	1	t		82.0	2.5	blank	1.0	387.8983118534088	
84	351.49831199645996	pulse	1	t		82.0	2.5	blank	1.0	389.49828696250916	
84	351.61490988731384	fix_post	2		12	82.0	2.5	blank	1.0	389.61488485336304	0.09990191459655762
85	351.7148118019104	fix_pre	0		120	83.0	2.5	/experiments/AOT/AOT_stimuli/rescaled_final/0915_rv.mp4	0.0	389.7147867679596	0.9999802112579346
85	352.71479201316833	movie	1		245	83.0	2.5	/experiments/AOT/AOT_stimuli/rescaled_final/0915_rv.mp4	0.0	390.71476697921753	2.500011920928955
85	353.0994567871094	pulse	1	t		83.0	2.5	/experiments/AOT/AOT_stimuli/rescaled_final/0915_rv.mp4	0.0	391.09943175315857	
85	354.69099402427673	pulse	1	t		83.0	2.5	/experiments/AOT/AOT_stimuli/rescaled_final/0915_rv.mp4	0.0	392.6909689903259	
85	355.2148039340973	fix_post	2		12	83.0	2.5	/experiments/AOT/AOT_stimuli/rescaled_final/0915_rv.mp4	0.0	393.2147789001465	0.09982705116271973
87	355.31463098526	stim	0		1716					393.3146059513092	14.300148010253906
87	356.29089283943176	pulse	0	t						394.29086780548096	
87	357.89095187187195	pulse	0	t						395.89092683792114	
87	359.4910218715668	pulse	0	t						397.49099683761597	
87	361.09097695350647	pulse	0	t						399.09095191955566	
87	362.6908359527588	pulse	0	t						400.690810918808	
87	364.29818081855774	pulse	0	t						402.29815578460693	
87	365.8982789516449	pulse	0	t						403.8982539176941	
87	367.49829602241516	pulse	0	t						405.49827098846436	
87	369.09827995300293	pulse	0	t						407.0982549190521	
