trial_nr	onset	event_type	phase	response	nr_frames	movie_index	movie_duration	movie_file	blank	onset_abs	duration
0	0.18315505981445312	stim	0		72					47.50259208679199	0.6001110076904297
0	0.7680530548095703	response	0	space						48.08749008178711	
1	0.7832660675048828	stim	0		4475					48.10270309448242	37.3101019859314
1	38.078444957733154	pulse	0	t						85.3978819847107	
1	38.09336805343628	stim	1		1715					85.41280508041382	14.297737836837769
1	39.672662019729614	pulse	1	t						86.99209904670715	
1	41.27284288406372	pulse	1	t						88.59227991104126	
1	42.87312698364258	pulse	1	t						90.19256401062012	
1	44.473373889923096	pulse	1	t						91.79281091690063	
1	46.07360887527466	pulse	1	t						93.3930459022522	
1	47.67372488975525	pulse	1	t						94.99316191673279	
1	49.27393388748169	pulse	1	t						96.59337091445923	
1	50.87425494194031	pulse	1	t						98.19369196891785	
2	52.39110589027405	fix_pre	0		11	0.0	2.5	/experiments/knapen_AOT/AOT_stimuli/rescaled_final/2000_rv.mp4	0.0	99.71054291725159	0.09157919883728027
2	52.47462606430054	pulse	0	t		0.0	2.5	/experiments/knapen_AOT/AOT_stimuli/rescaled_final/2000_rv.mp4	0.0	99.79406309127808	
2	52.48268508911133	movie	1		242	0.0	2.5	/experiments/knapen_AOT/AOT_stimuli/rescaled_final/2000_rv.mp4	0.0	99.80212211608887	2.5087249279022217
2	54.07583498954773	pulse	1	t		0.0	2.5	/experiments/knapen_AOT/AOT_stimuli/rescaled_final/2000_rv.mp4	0.0	101.39527201652527	
2	54.99141001701355	fix_post	2		12	0.0	2.5	/experiments/knapen_AOT/AOT_stimuli/rescaled_final/2000_rv.mp4	0.0	102.31084704399109	0.10000395774841309
3	55.09141397476196	fix_pre	0		120	1.0	2.5	/experiments/knapen_AOT/AOT_stimuli/rescaled_final/1442_fw.mp4	0.0	102.4108510017395	1.0001840591430664
3	55.674941062927246	pulse	0	t		1.0	2.5	/experiments/knapen_AOT/AOT_stimuli/rescaled_final/1442_fw.mp4	0.0	102.99437808990479	
3	56.09159803390503	movie	1		242	1.0	2.5	/experiments/knapen_AOT/AOT_stimuli/rescaled_final/1442_fw.mp4	0.0	103.41103506088257	2.500443935394287
3	57.275404930114746	pulse	1	t		1.0	2.5	/experiments/knapen_AOT/AOT_stimuli/rescaled_final/1442_fw.mp4	0.0	104.59484195709229	
3	58.592041969299316	fix_post	2		12	1.0	2.5	/experiments/knapen_AOT/AOT_stimuli/rescaled_final/1442_fw.mp4	0.0	105.91147899627686	0.09990811347961426
4	58.69195008277893	fix_pre	0		120	2.0	2.5	/experiments/knapen_AOT/AOT_stimuli/rescaled_final/1328_rv.mp4	0.0	106.01138710975647	1.0001718997955322
4	58.867960929870605	pulse	0	t		2.0	2.5	/experiments/knapen_AOT/AOT_stimuli/rescaled_final/1328_rv.mp4	0.0	106.18739795684814	
4	59.69212198257446	movie	1		243	2.0	2.5	/experiments/knapen_AOT/AOT_stimuli/rescaled_final/1328_rv.mp4	0.0	107.011559009552	2.5005428791046143
4	60.46844506263733	pulse	1	t		2.0	2.5	/experiments/knapen_AOT/AOT_stimuli/rescaled_final/1328_rv.mp4	0.0	107.78788208961487	
4	62.07579302787781	pulse	1	t		2.0	2.5	/experiments/knapen_AOT/AOT_stimuli/rescaled_final/1328_rv.mp4	0.0	109.39523005485535	
4	62.19266486167908	fix_post	2		12	2.0	2.5	/experiments/knapen_AOT/AOT_stimuli/rescaled_final/1328_rv.mp4	0.0	109.51210188865662	0.0998070240020752
5	62.29247188568115	fix_pre	0		120	3.0	2.5	/experiments/knapen_AOT/AOT_stimuli/rescaled_final/1318_fw.mp4	0.0	109.61190891265869	1.0001401901245117
5	63.292612075805664	movie	1		241	3.0	2.5	/experiments/knapen_AOT/AOT_stimuli/rescaled_final/1318_fw.mp4	0.0	110.6120491027832	2.4920928478240967
5	63.676677942276	pulse	1	t		3.0	2.5	/experiments/knapen_AOT/AOT_stimuli/rescaled_final/1318_fw.mp4	0.0	110.99611496925354	
5	65.26835989952087	pulse	1	t		3.0	2.5	/experiments/knapen_AOT/AOT_stimuli/rescaled_final/1318_fw.mp4	0.0	112.58779692649841	
5	65.78470492362976	fix_post	2		12	3.0	2.5	/experiments/knapen_AOT/AOT_stimuli/rescaled_final/1318_fw.mp4	0.0	113.1041419506073	0.0999610424041748
6	65.88466596603394	fix_pre	0		119	4.0	2.5	/experiments/knapen_AOT/AOT_stimuli/rescaled_final/0729_fw.mp4	0.0	113.20410299301147	0.9918270111083984
6	66.8683590888977	pulse	0	t		4.0	2.5	/experiments/knapen_AOT/AOT_stimuli/rescaled_final/0729_fw.mp4	0.0	114.18779611587524	
6	66.87649297714233	movie	1		243	4.0	2.5	/experiments/knapen_AOT/AOT_stimuli/rescaled_final/0729_fw.mp4	0.0	114.19593000411987	2.508729934692383
6	68.47303199768066	pulse	1	t		4.0	2.5	/experiments/knapen_AOT/AOT_stimuli/rescaled_final/0729_fw.mp4	0.0	115.7924690246582	
6	69.38522291183472	fix_post	2		12	4.0	2.5	/experiments/knapen_AOT/AOT_stimuli/rescaled_final/0729_fw.mp4	0.0	116.70465993881226	0.1000211238861084
7	69.48524403572083	fix_pre	0		120	5.0	2.5	/experiments/knapen_AOT/AOT_stimuli/rescaled_final/0217_rv.mp4	0.0	116.80468106269836	1.0000908374786377
7	70.06878304481506	pulse	0	t		5.0	2.5	/experiments/knapen_AOT/AOT_stimuli/rescaled_final/0217_rv.mp4	0.0	117.3882200717926	
7	70.48533487319946	movie	1		242	5.0	2.5	/experiments/knapen_AOT/AOT_stimuli/rescaled_final/0217_rv.mp4	0.0	117.804771900177	2.5005152225494385
7	71.66910099983215	pulse	1	t		5.0	2.5	/experiments/knapen_AOT/AOT_stimuli/rescaled_final/0217_rv.mp4	0.0	118.98853802680969	
7	72.9858500957489	fix_post	2		12	5.0	2.5	/experiments/knapen_AOT/AOT_stimuli/rescaled_final/0217_rv.mp4	0.0	120.30528712272644	0.09985494613647461
8	73.08570504188538	fix_pre	0		120	6.0	2.5	/experiments/knapen_AOT/AOT_stimuli/rescaled_final/0217_fw.mp4	0.0	120.40514206886292	1.0001800060272217
8	73.26926803588867	pulse	0	t		6.0	2.5	/experiments/knapen_AOT/AOT_stimuli/rescaled_final/0217_fw.mp4	0.0	120.58870506286621	
8	74.0858850479126	movie	1		243	6.0	2.5	/experiments/knapen_AOT/AOT_stimuli/rescaled_final/0217_fw.mp4	0.0	121.40532207489014	2.500427007675171
8	74.8695809841156	pulse	1	t		6.0	2.5	/experiments/knapen_AOT/AOT_stimuli/rescaled_final/0217_fw.mp4	0.0	122.18901801109314	
8	76.46956300735474	pulse	1	t		6.0	2.5	/experiments/knapen_AOT/AOT_stimuli/rescaled_final/0217_fw.mp4	0.0	123.78900003433228	
8	76.58631205558777	fix_post	2		12	6.0	2.5	/experiments/knapen_AOT/AOT_stimuli/rescaled_final/0217_fw.mp4	0.0	123.90574908256531	0.1000068187713623
9	76.68631887435913	fix_pre	0		120	7.0	2.5	blank	1.0	124.00575590133667	1.0001060962677002
9	77.68642497062683	movie	1		299	7.0	2.5	blank	1.0	125.00586199760437	2.492048978805542
9	78.06994891166687	pulse	1	t		7.0	2.5	blank	1.0	125.38938593864441	
9	79.6703269481659	pulse	1	t		7.0	2.5	blank	1.0	126.98976397514343	
9	80.17847394943237	fix_post	2		12	7.0	2.5	blank	1.0	127.49791097640991	0.10003805160522461
10	80.2785120010376	fix_pre	0		120	8.0	2.5	/experiments/knapen_AOT/AOT_stimuli/rescaled_final/0935_rv.mp4	0.0	127.59794902801514	1.0000910758972168
10	81.27059388160706	pulse	0	t		8.0	2.5	/experiments/knapen_AOT/AOT_stimuli/rescaled_final/0935_rv.mp4	0.0	128.5900309085846	
10	81.27860307693481	movie	1		243	8.0	2.5	/experiments/knapen_AOT/AOT_stimuli/rescaled_final/0935_rv.mp4	0.0	128.59804010391235	2.5087568759918213
10	82.87119007110596	pulse	1	t		8.0	2.5	/experiments/knapen_AOT/AOT_stimuli/rescaled_final/0935_rv.mp4	0.0	130.1906270980835	
10	83.78735995292664	fix_post	2		12	8.0	2.5	/experiments/knapen_AOT/AOT_stimuli/rescaled_final/0935_rv.mp4	0.0	131.10679697990417	0.10003995895385742
11	83.8873999118805	fix_pre	0		120	9.0	2.5	/experiments/knapen_AOT/AOT_stimuli/rescaled_final/1574_fw.mp4	0.0	131.20683693885803	1.0001070499420166
11	84.47090005874634	pulse	0	t		9.0	2.5	/experiments/knapen_AOT/AOT_stimuli/rescaled_final/1574_fw.mp4	0.0	131.79033708572388	
11	84.88750696182251	movie	1		242	9.0	2.5	/experiments/knapen_AOT/AOT_stimuli/rescaled_final/1574_fw.mp4	0.0	132.20694398880005	2.5003421306610107
11	86.071280002594	pulse	1	t		9.0	2.5	/experiments/knapen_AOT/AOT_stimuli/rescaled_final/1574_fw.mp4	0.0	133.39071702957153	
11	87.38784909248352	fix_post	2		12	9.0	2.5	/experiments/knapen_AOT/AOT_stimuli/rescaled_final/1574_fw.mp4	0.0	134.70728611946106	0.10000300407409668
12	87.48785209655762	fix_pre	0		120	10.0	2.5	/experiments/knapen_AOT/AOT_stimuli/rescaled_final/1399_rv.mp4	0.0	134.80728912353516	1.0002098083496094
12	87.67147994041443	pulse	0	t		10.0	2.5	/experiments/knapen_AOT/AOT_stimuli/rescaled_final/1399_rv.mp4	0.0	134.99091696739197	
12	88.48806190490723	movie	1		243	10.0	2.5	/experiments/knapen_AOT/AOT_stimuli/rescaled_final/1399_rv.mp4	0.0	135.80749893188477	2.500519037246704
12	89.27175688743591	pulse	1	t		10.0	2.5	/experiments/knapen_AOT/AOT_stimuli/rescaled_final/1399_rv.mp4	0.0	136.59119391441345	
12	90.87195992469788	pulse	1	t		10.0	2.5	/experiments/knapen_AOT/AOT_stimuli/rescaled_final/1399_rv.mp4	0.0	138.19139695167542	
12	90.98858094215393	fix_post	2		12	10.0	2.5	/experiments/knapen_AOT/AOT_stimuli/rescaled_final/1399_rv.mp4	0.0	138.30801796913147	0.09992313385009766
13	91.08850407600403	fix_pre	0		120	11.0	2.5	/experiments/knapen_AOT/AOT_stimuli/rescaled_final/0511_rv.mp4	0.0	138.40794110298157	1.0000638961791992
13	92.08856797218323	movie	1		242	11.0	2.5	/experiments/knapen_AOT/AOT_stimuli/rescaled_final/0511_rv.mp4	0.0	139.40800499916077	2.49224591255188
13	92.47669005393982	pulse	1	t		11.0	2.5	/experiments/knapen_AOT/AOT_stimuli/rescaled_final/0511_rv.mp4	0.0	139.79612708091736	
13	94.07237792015076	pulse	1	t		11.0	2.5	/experiments/knapen_AOT/AOT_stimuli/rescaled_final/0511_rv.mp4	0.0	141.3918149471283	
13	94.58081388473511	fix_post	2		12	11.0	2.5	/experiments/knapen_AOT/AOT_stimuli/rescaled_final/0511_rv.mp4	0.0	141.90025091171265	0.09981799125671387
14	94.68063187599182	fix_pre	0		120	12.0	2.5	/experiments/knapen_AOT/AOT_stimuli/rescaled_final/1575_fw.mp4	0.0	142.00006890296936	1.0001001358032227
14	95.67284607887268	pulse	0	t		12.0	2.5	/experiments/knapen_AOT/AOT_stimuli/rescaled_final/1575_fw.mp4	0.0	142.99228310585022	
14	95.68073201179504	movie	1		244	12.0	2.5	/experiments/knapen_AOT/AOT_stimuli/rescaled_final/1575_fw.mp4	0.0	143.00016903877258	2.5088469982147217
14	97.27717590332031	pulse	1	t		12.0	2.5	/experiments/knapen_AOT/AOT_stimuli/rescaled_final/1575_fw.mp4	0.0	144.59661293029785	
14	98.18957901000977	fix_post	2		12	12.0	2.5	/experiments/knapen_AOT/AOT_stimuli/rescaled_final/1575_fw.mp4	0.0	145.5090160369873	0.09997105598449707
15	98.28955006599426	fix_pre	0		120	13.0	2.5	blank	1.0	145.6089870929718	1.0000929832458496
15	98.87309908866882	pulse	0	t		13.0	2.5	blank	1.0	146.19253611564636	
15	99.28964304924011	movie	1		300	13.0	2.5	blank	1.0	146.60908007621765	2.5003838539123535
15	100.47336506843567	pulse	1	t		13.0	2.5	blank	1.0	147.7928020954132	
15	101.79002690315247	fix_post	2		12	13.0	2.5	blank	1.0	149.10946393013	0.10004496574401855
16	101.89007186889648	fix_pre	0		120	14.0	2.5	/experiments/knapen_AOT/AOT_stimuli/rescaled_final/0149_rv.mp4	0.0	149.20950889587402	1.000108003616333
16	102.07362294197083	pulse	0	t		14.0	2.5	/experiments/knapen_AOT/AOT_stimuli/rescaled_final/0149_rv.mp4	0.0	149.39305996894836	
16	102.89017987251282	movie	1		239	14.0	2.5	/experiments/knapen_AOT/AOT_stimuli/rescaled_final/0149_rv.mp4	0.0	150.20961689949036	2.500603199005127
16	103.67387700080872	pulse	1	t		14.0	2.5	/experiments/knapen_AOT/AOT_stimuli/rescaled_final/0149_rv.mp4	0.0	150.99331402778625	
16	105.27405095100403	pulse	1	t		14.0	2.5	/experiments/knapen_AOT/AOT_stimuli/rescaled_final/0149_rv.mp4	0.0	152.59348797798157	
16	105.39078307151794	fix_post	2		12	14.0	2.5	/experiments/knapen_AOT/AOT_stimuli/rescaled_final/0149_rv.mp4	0.0	152.71022009849548	0.09983992576599121
17	105.49062299728394	fix_pre	0		120	15.0	2.5	/experiments/knapen_AOT/AOT_stimuli/rescaled_final/1553_fw.mp4	0.0	152.81006002426147	1.000087022781372
17	106.49071002006531	movie	1		242	15.0	2.5	/experiments/knapen_AOT/AOT_stimuli/rescaled_final/1553_fw.mp4	0.0	153.81014704704285	2.4921090602874756
17	106.87494993209839	pulse	1	t		15.0	2.5	/experiments/knapen_AOT/AOT_stimuli/rescaled_final/1553_fw.mp4	0.0	154.19438695907593	
17	108.474534034729	pulse	1	t		15.0	2.5	/experiments/knapen_AOT/AOT_stimuli/rescaled_final/1553_fw.mp4	0.0	155.79397106170654	
17	108.98281908035278	fix_post	2		12	15.0	2.5	/experiments/knapen_AOT/AOT_stimuli/rescaled_final/1553_fw.mp4	0.0	156.30225610733032	0.09991693496704102
18	109.08273601531982	fix_pre	0		120	16.0	2.5	/experiments/knapen_AOT/AOT_stimuli/rescaled_final/1221_rv.mp4	0.0	156.40217304229736	1.000148057937622
18	110.07488107681274	pulse	0	t		16.0	2.5	/experiments/knapen_AOT/AOT_stimuli/rescaled_final/1221_rv.mp4	0.0	157.39431810379028	
18	110.08288407325745	movie	1		243	16.0	2.5	/experiments/knapen_AOT/AOT_stimuli/rescaled_final/1221_rv.mp4	0.0	157.40232110023499	2.50881290435791
18	111.6757459640503	pulse	1	t		16.0	2.5	/experiments/knapen_AOT/AOT_stimuli/rescaled_final/1221_rv.mp4	0.0	158.99518299102783	
18	112.59169697761536	fix_post	2		12	16.0	2.5	/experiments/knapen_AOT/AOT_stimuli/rescaled_final/1221_rv.mp4	0.0	159.9111340045929	0.09997797012329102
19	112.69167494773865	fix_pre	0		120	17.0	2.5	/experiments/knapen_AOT/AOT_stimuli/rescaled_final/0439_rv.mp4	0.0	160.0111119747162	1.0001440048217773
19	113.27519297599792	pulse	0	t		17.0	2.5	/experiments/knapen_AOT/AOT_stimuli/rescaled_final/0439_rv.mp4	0.0	160.59463000297546	
19	113.69181895256042	movie	1		242	17.0	2.5	/experiments/knapen_AOT/AOT_stimuli/rescaled_final/0439_rv.mp4	0.0	161.01125597953796	2.5005760192871094
19	114.87556004524231	pulse	1	t		17.0	2.5	/experiments/knapen_AOT/AOT_stimuli/rescaled_final/0439_rv.mp4	0.0	162.19499707221985	
19	116.19239497184753	fix_post	2		12	17.0	2.5	/experiments/knapen_AOT/AOT_stimuli/rescaled_final/0439_rv.mp4	0.0	163.51183199882507	0.09980607032775879
20	116.2922010421753	fix_pre	0		120	18.0	2.5	/experiments/knapen_AOT/AOT_stimuli/rescaled_final/0935_rv.mp4	0.0	163.61163806915283	1.000114917755127
20	116.47565388679504	pulse	0	t		18.0	2.5	/experiments/knapen_AOT/AOT_stimuli/rescaled_final/0935_rv.mp4	0.0	163.79509091377258	
20	117.29231595993042	movie	1		242	18.0	2.5	/experiments/knapen_AOT/AOT_stimuli/rescaled_final/0935_rv.mp4	0.0	164.61175298690796	2.5004141330718994
20	118.07586288452148	pulse	1	t		18.0	2.5	/experiments/knapen_AOT/AOT_stimuli/rescaled_final/0935_rv.mp4	0.0	165.39529991149902	
20	119.67573595046997	pulse	1	t		18.0	2.5	/experiments/knapen_AOT/AOT_stimuli/rescaled_final/0935_rv.mp4	0.0	166.9951729774475	
20	119.79273009300232	fix_post	2		12	18.0	2.5	/experiments/knapen_AOT/AOT_stimuli/rescaled_final/0935_rv.mp4	0.0	167.11216711997986	0.10000491142272949
21	119.89273500442505	fix_pre	0		120	19.0	2.5	/experiments/knapen_AOT/AOT_stimuli/rescaled_final/1291_fw.mp4	0.0	167.2121720314026	1.0001170635223389
21	120.89285206794739	movie	1		242	19.0	2.5	/experiments/knapen_AOT/AOT_stimuli/rescaled_final/1291_fw.mp4	0.0	168.21228909492493	2.4921789169311523
21	121.27694201469421	pulse	1	t		19.0	2.5	/experiments/knapen_AOT/AOT_stimuli/rescaled_final/1291_fw.mp4	0.0	168.59637904167175	
21	122.86952686309814	pulse	1	t		19.0	2.5	/experiments/knapen_AOT/AOT_stimuli/rescaled_final/1291_fw.mp4	0.0	170.18896389007568	
21	123.38503098487854	fix_post	2		12	19.0	2.5	/experiments/knapen_AOT/AOT_stimuli/rescaled_final/1291_fw.mp4	0.0	170.70446801185608	0.09989309310913086
22	123.48492407798767	fix_pre	0		120	20.0	2.5	blank	1.0	170.8043611049652	1.0001318454742432
22	124.46942591667175	pulse	0	t		20.0	2.5	blank	1.0	171.7888629436493	
22	124.48505592346191	movie	1		301	20.0	2.5	blank	1.0	171.80449295043945	2.5087549686431885
22	126.06875586509705	pulse	1	t		20.0	2.5	blank	1.0	173.38819289207458	
22	126.9938108921051	fix_post	2		12	20.0	2.5	blank	1.0	174.31324791908264	0.10004305839538574
23	127.09385395050049	fix_pre	0		120	21.0	2.5	/experiments/knapen_AOT/AOT_stimuli/rescaled_final/0439_rv.mp4	0.0	174.41329097747803	1.0001790523529053
23	127.66907095909119	pulse	0	t		21.0	2.5	/experiments/knapen_AOT/AOT_stimuli/rescaled_final/0439_rv.mp4	0.0	174.98850798606873	
23	128.0940330028534	movie	1		242	21.0	2.5	/experiments/knapen_AOT/AOT_stimuli/rescaled_final/0439_rv.mp4	0.0	175.41347002983093	2.500319004058838
23	129.2732710838318	pulse	1	t		21.0	2.5	/experiments/knapen_AOT/AOT_stimuli/rescaled_final/0439_rv.mp4	0.0	176.59270811080933	
23	130.59435200691223	fix_post	2		12	21.0	2.5	/experiments/knapen_AOT/AOT_stimuli/rescaled_final/0439_rv.mp4	0.0	177.91378903388977	0.10002303123474121
24	130.69437503814697	fix_pre	0		120	22.0	2.5	/experiments/knapen_AOT/AOT_stimuli/rescaled_final/0357_rv.mp4	0.0	178.0138120651245	1.0000889301300049
24	130.8695249557495	pulse	0	t		22.0	2.5	/experiments/knapen_AOT/AOT_stimuli/rescaled_final/0357_rv.mp4	0.0	178.18896198272705	
24	131.69446396827698	movie	1		243	22.0	2.5	/experiments/knapen_AOT/AOT_stimuli/rescaled_final/0357_rv.mp4	0.0	179.01390099525452	2.500577926635742
24	132.46976399421692	pulse	1	t		22.0	2.5	/experiments/knapen_AOT/AOT_stimuli/rescaled_final/0357_rv.mp4	0.0	179.78920102119446	
24	134.06998991966248	pulse	1	t		22.0	2.5	/experiments/knapen_AOT/AOT_stimuli/rescaled_final/0357_rv.mp4	0.0	181.38942694664001	
24	134.19504189491272	fix_post	2		12	22.0	2.5	/experiments/knapen_AOT/AOT_stimuli/rescaled_final/0357_rv.mp4	0.0	181.51447892189026	0.099822998046875
25	134.2948648929596	fix_pre	0		119	23.0	2.5	/experiments/knapen_AOT/AOT_stimuli/rescaled_final/1281_fw.mp4	0.0	181.61430191993713	0.991779088973999
25	135.2866439819336	movie	1		243	23.0	2.5	/experiments/knapen_AOT/AOT_stimuli/rescaled_final/1281_fw.mp4	0.0	182.60608100891113	2.5005860328674316
25	135.6705470085144	pulse	1	t		23.0	2.5	/experiments/knapen_AOT/AOT_stimuli/rescaled_final/1281_fw.mp4	0.0	182.98998403549194	
25	137.2704770565033	pulse	1	t		23.0	2.5	/experiments/knapen_AOT/AOT_stimuli/rescaled_final/1281_fw.mp4	0.0	184.58991408348083	
25	137.78723001480103	fix_post	2		12	23.0	2.5	/experiments/knapen_AOT/AOT_stimuli/rescaled_final/1281_fw.mp4	0.0	185.10666704177856	0.09989595413208008
26	137.8871259689331	fix_pre	0		119	24.0	2.5	/experiments/knapen_AOT/AOT_stimuli/rescaled_final/1896_fw.mp4	0.0	185.20656299591064	0.9918739795684814
26	138.87073588371277	pulse	0	t		24.0	2.5	/experiments/knapen_AOT/AOT_stimuli/rescaled_final/1896_fw.mp4	0.0	186.1901729106903	
26	138.8789999485016	movie	1		244	24.0	2.5	/experiments/knapen_AOT/AOT_stimuli/rescaled_final/1896_fw.mp4	0.0	186.19843697547913	2.508683919906616
26	140.47177600860596	pulse	1	t		24.0	2.5	/experiments/knapen_AOT/AOT_stimuli/rescaled_final/1896_fw.mp4	0.0	187.7912130355835	
26	141.3876838684082	fix_post	2		12	24.0	2.5	/experiments/knapen_AOT/AOT_stimuli/rescaled_final/1896_fw.mp4	0.0	188.70712089538574	0.09992218017578125
27	141.48760604858398	fix_pre	0		120	25.0	2.5	/experiments/knapen_AOT/AOT_stimuli/rescaled_final/1393_rv.mp4	0.0	188.80704307556152	1.000135898590088
27	142.07123708724976	pulse	0	t		25.0	2.5	/experiments/knapen_AOT/AOT_stimuli/rescaled_final/1393_rv.mp4	0.0	189.3906741142273	
27	142.48774194717407	movie	1		243	25.0	2.5	/experiments/knapen_AOT/AOT_stimuli/rescaled_final/1393_rv.mp4	0.0	189.8071789741516	2.5005619525909424
27	143.67160201072693	pulse	1	t		25.0	2.5	/experiments/knapen_AOT/AOT_stimuli/rescaled_final/1393_rv.mp4	0.0	190.99103903770447	
27	144.98830389976501	fix_post	2		12	25.0	2.5	/experiments/knapen_AOT/AOT_stimuli/rescaled_final/1393_rv.mp4	0.0	192.30774092674255	0.09984397888183594
28	145.08814787864685	fix_pre	0		120	26.0	2.5	/experiments/knapen_AOT/AOT_stimuli/rescaled_final/1426_fw.mp4	0.0	192.4075849056244	1.0001721382141113
28	145.27176094055176	pulse	0	t		26.0	2.5	/experiments/knapen_AOT/AOT_stimuli/rescaled_final/1426_fw.mp4	0.0	192.5911979675293	
28	146.08832001686096	movie	1		245	26.0	2.5	/experiments/knapen_AOT/AOT_stimuli/rescaled_final/1426_fw.mp4	0.0	193.4077570438385	2.500398874282837
28	146.8719379901886	pulse	1	t		26.0	2.5	/experiments/knapen_AOT/AOT_stimuli/rescaled_final/1426_fw.mp4	0.0	194.19137501716614	
28	148.47221302986145	pulse	1	t		26.0	2.5	/experiments/knapen_AOT/AOT_stimuli/rescaled_final/1426_fw.mp4	0.0	195.791650056839	
28	148.5887188911438	fix_post	2		12	26.0	2.5	/experiments/knapen_AOT/AOT_stimuli/rescaled_final/1426_fw.mp4	0.0	195.90815591812134	0.09992218017578125
29	148.68864107131958	fix_pre	0		119	27.0	2.5	/experiments/knapen_AOT/AOT_stimuli/rescaled_final/1982_rv.mp4	0.0	196.00807809829712	0.9918389320373535
29	149.68048000335693	movie	1		243	27.0	2.5	/experiments/knapen_AOT/AOT_stimuli/rescaled_final/1982_rv.mp4	0.0	196.99991703033447	2.5003628730773926
29	150.0724458694458	pulse	1	t		27.0	2.5	/experiments/knapen_AOT/AOT_stimuli/rescaled_final/1982_rv.mp4	0.0	197.39188289642334	
29	151.6727590560913	pulse	1	t		27.0	2.5	/experiments/knapen_AOT/AOT_stimuli/rescaled_final/1982_rv.mp4	0.0	198.99219608306885	
29	152.18084287643433	fix_post	2		12	27.0	2.5	/experiments/knapen_AOT/AOT_stimuli/rescaled_final/1982_rv.mp4	0.0	199.50027990341187	0.10010409355163574
30	152.28094696998596	fix_pre	0		120	28.0	2.5	blank	1.0	199.6003839969635	1.0001580715179443
30	153.27283906936646	pulse	0	t		28.0	2.5	blank	1.0	200.592276096344	
30	153.2811050415039	movie	1		301	28.0	2.5	blank	1.0	200.60054206848145	2.5086188316345215
30	154.87306308746338	pulse	1	t		28.0	2.5	blank	1.0	202.19250011444092	
30	155.78972387313843	fix_post	2		12	28.0	2.5	blank	1.0	203.10916090011597	0.09998917579650879
31	155.88971304893494	fix_pre	0		120	29.0	2.5	/experiments/knapen_AOT/AOT_stimuli/rescaled_final/0015_rv.mp4	0.0	203.20915007591248	1.0001838207244873
31	156.47343492507935	pulse	0	t		29.0	2.5	/experiments/knapen_AOT/AOT_stimuli/rescaled_final/0015_rv.mp4	0.0	203.79287195205688	
31	156.88989686965942	movie	1		243	29.0	2.5	/experiments/knapen_AOT/AOT_stimuli/rescaled_final/0015_rv.mp4	0.0	204.20933389663696	2.5005722045898438
31	158.07376194000244	pulse	1	t		29.0	2.5	/experiments/knapen_AOT/AOT_stimuli/rescaled_final/0015_rv.mp4	0.0	205.39319896697998	
31	159.39046907424927	fix_post	2		12	29.0	2.5	/experiments/knapen_AOT/AOT_stimuli/rescaled_final/0015_rv.mp4	0.0	206.7099061012268	0.09985184669494629
32	159.4903209209442	fix_pre	0		120	30.0	2.5	/experiments/knapen_AOT/AOT_stimuli/rescaled_final/0420_fw.mp4	0.0	206.80975794792175	1.0001349449157715
32	159.67385005950928	pulse	0	t		30.0	2.5	/experiments/knapen_AOT/AOT_stimuli/rescaled_final/0420_fw.mp4	0.0	206.99328708648682	
32	160.49045586585999	movie	1		243	30.0	2.5	/experiments/knapen_AOT/AOT_stimuli/rescaled_final/0420_fw.mp4	0.0	207.80989289283752	2.500429153442383
32	161.27402591705322	pulse	1	t		30.0	2.5	/experiments/knapen_AOT/AOT_stimuli/rescaled_final/0420_fw.mp4	0.0	208.59346294403076	
32	162.87410402297974	pulse	1	t		30.0	2.5	/experiments/knapen_AOT/AOT_stimuli/rescaled_final/0420_fw.mp4	0.0	210.19354104995728	
32	162.99088501930237	fix_post	2		12	30.0	2.5	/experiments/knapen_AOT/AOT_stimuli/rescaled_final/0420_fw.mp4	0.0	210.3103220462799	0.0999288558959961
33	163.09081387519836	fix_pre	0		119	31.0	2.5	/experiments/knapen_AOT/AOT_stimuli/rescaled_final/2121_fw.mp4	0.0	210.4102509021759	0.9918780326843262
33	164.0826919078827	movie	1		242	31.0	2.5	/experiments/knapen_AOT/AOT_stimuli/rescaled_final/2121_fw.mp4	0.0	211.40212893486023	2.500545024871826
33	164.47472286224365	pulse	1	t		31.0	2.5	/experiments/knapen_AOT/AOT_stimuli/rescaled_final/2121_fw.mp4	0.0	211.7941598892212	
33	166.07489705085754	pulse	1	t		31.0	2.5	/experiments/knapen_AOT/AOT_stimuli/rescaled_final/2121_fw.mp4	0.0	213.39433407783508	
33	166.58323693275452	fix_post	2		12	31.0	2.5	/experiments/knapen_AOT/AOT_stimuli/rescaled_final/2121_fw.mp4	0.0	213.90267395973206	0.09982705116271973
34	166.68306398391724	fix_pre	0		120	32.0	2.5	/experiments/knapen_AOT/AOT_stimuli/rescaled_final/0845_rv.mp4	0.0	214.00250101089478	1.0001111030578613
34	167.6750009059906	pulse	0	t		32.0	2.5	/experiments/knapen_AOT/AOT_stimuli/rescaled_final/0845_rv.mp4	0.0	214.99443793296814	
34	167.6831750869751	movie	1		241	32.0	2.5	/experiments/knapen_AOT/AOT_stimuli/rescaled_final/0845_rv.mp4	0.0	215.00261211395264	2.508762836456299
34	169.27582788467407	pulse	1	t		32.0	2.5	/experiments/knapen_AOT/AOT_stimuli/rescaled_final/0845_rv.mp4	0.0	216.5952649116516	
34	170.1919379234314	fix_post	2		12	32.0	2.5	/experiments/knapen_AOT/AOT_stimuli/rescaled_final/0845_rv.mp4	0.0	217.51137495040894	0.09993696212768555
35	170.29187488555908	fix_pre	0		120	33.0	2.5	/experiments/knapen_AOT/AOT_stimuli/rescaled_final/1596_fw.mp4	0.0	217.61131191253662	1.0001749992370605
35	170.87561297416687	pulse	0	t		33.0	2.5	/experiments/knapen_AOT/AOT_stimuli/rescaled_final/1596_fw.mp4	0.0	218.1950500011444	
35	171.29204988479614	movie	1		243	33.0	2.5	/experiments/knapen_AOT/AOT_stimuli/rescaled_final/1596_fw.mp4	0.0	218.61148691177368	2.5005881786346436
35	172.46883487701416	pulse	1	t		33.0	2.5	/experiments/knapen_AOT/AOT_stimuli/rescaled_final/1596_fw.mp4	0.0	219.7882719039917	
35	173.7926380634308	fix_post	2		12	33.0	2.5	/experiments/knapen_AOT/AOT_stimuli/rescaled_final/1596_fw.mp4	0.0	221.11207509040833	0.09984803199768066
36	173.89248609542847	fix_pre	0		120	34.0	2.5	/experiments/knapen_AOT/AOT_stimuli/rescaled_final/0773_rv.mp4	0.0	221.211923122406	1.0001189708709717
36	174.06852793693542	pulse	0	t		34.0	2.5	/experiments/knapen_AOT/AOT_stimuli/rescaled_final/0773_rv.mp4	0.0	221.38796496391296	
36	174.89260506629944	movie	1		242	34.0	2.5	/experiments/knapen_AOT/AOT_stimuli/rescaled_final/0773_rv.mp4	0.0	222.21204209327698	2.4921488761901855
36	175.66879200935364	pulse	1	t		34.0	2.5	/experiments/knapen_AOT/AOT_stimuli/rescaled_final/0773_rv.mp4	0.0	222.98822903633118	
36	177.27630400657654	pulse	1	t		34.0	2.5	/experiments/knapen_AOT/AOT_stimuli/rescaled_final/0773_rv.mp4	0.0	224.59574103355408	
36	177.38475394248962	fix_post	2		13	34.0	2.5	/experiments/knapen_AOT/AOT_stimuli/rescaled_final/0773_rv.mp4	0.0	224.70419096946716	0.10824203491210938
37	177.49299597740173	fix_pre	0		120	35.0	2.5	blank	1.0	224.81243300437927	1.0001718997955322
37	178.49316787719727	movie	1		299	35.0	2.5	blank	1.0	225.8126049041748	2.4919731616973877
37	178.86915707588196	pulse	1	t		35.0	2.5	blank	1.0	226.1885941028595	
37	180.46863794326782	pulse	1	t		35.0	2.5	blank	1.0	227.78807497024536	
37	180.98514103889465	fix_post	2		12	35.0	2.5	blank	1.0	228.3045780658722	0.10001397132873535
38	181.0851550102234	fix_pre	0		119	36.0	2.5	/experiments/knapen_AOT/AOT_stimuli/rescaled_final/0013_fw.mp4	0.0	228.40459203720093	0.9918038845062256
38	182.06877899169922	pulse	0	t		36.0	2.5	/experiments/knapen_AOT/AOT_stimuli/rescaled_final/0013_fw.mp4	0.0	229.38821601867676	
38	182.07695889472961	movie	1		244	36.0	2.5	/experiments/knapen_AOT/AOT_stimuli/rescaled_final/0013_fw.mp4	0.0	229.39639592170715	2.5087730884552
38	183.6697690486908	pulse	1	t		36.0	2.5	/experiments/knapen_AOT/AOT_stimuli/rescaled_final/0013_fw.mp4	0.0	230.98920607566833	
38	184.58573198318481	fix_post	2		12	36.0	2.5	/experiments/knapen_AOT/AOT_stimuli/rescaled_final/0013_fw.mp4	0.0	231.90516901016235	0.09994792938232422
39	184.68567991256714	fix_pre	0		120	37.0	2.5	/experiments/knapen_AOT/AOT_stimuli/rescaled_final/0911_rv.mp4	0.0	232.00511693954468	1.0001499652862549
39	185.2692859172821	pulse	0	t		37.0	2.5	/experiments/knapen_AOT/AOT_stimuli/rescaled_final/0911_rv.mp4	0.0	232.58872294425964	
39	185.6858298778534	movie	1		243	37.0	2.5	/experiments/knapen_AOT/AOT_stimuli/rescaled_final/0911_rv.mp4	0.0	233.00526690483093	2.5004220008850098
39	186.86963486671448	pulse	1	t		37.0	2.5	/experiments/knapen_AOT/AOT_stimuli/rescaled_final/0911_rv.mp4	0.0	234.18907189369202	
39	188.1862518787384	fix_post	2		12	37.0	2.5	/experiments/knapen_AOT/AOT_stimuli/rescaled_final/0911_rv.mp4	0.0	235.50568890571594	0.1000220775604248
40	188.28627395629883	fix_pre	0		120	38.0	2.5	/experiments/knapen_AOT/AOT_stimuli/rescaled_final/0268_rv.mp4	0.0	235.60571098327637	1.0001370906829834
40	188.4697709083557	pulse	0	t		38.0	2.5	/experiments/knapen_AOT/AOT_stimuli/rescaled_final/0268_rv.mp4	0.0	235.78920793533325	
40	189.2864110469818	movie	1		243	38.0	2.5	/experiments/knapen_AOT/AOT_stimuli/rescaled_final/0268_rv.mp4	0.0	236.60584807395935	2.5003349781036377
40	190.0699770450592	pulse	1	t		38.0	2.5	/experiments/knapen_AOT/AOT_stimuli/rescaled_final/0268_rv.mp4	0.0	237.38941407203674	
40	191.6702799797058	pulse	1	t		38.0	2.5	/experiments/knapen_AOT/AOT_stimuli/rescaled_final/0268_rv.mp4	0.0	238.98971700668335	
40	191.78674602508545	fix_post	2		12	38.0	2.5	/experiments/knapen_AOT/AOT_stimuli/rescaled_final/0268_rv.mp4	0.0	239.106183052063	0.10001492500305176
41	191.8867609500885	fix_pre	0		119	39.0	2.5	/experiments/knapen_AOT/AOT_stimuli/rescaled_final/0397_rv.mp4	0.0	239.20619797706604	0.9918410778045654
41	192.87860202789307	movie	1		243	39.0	2.5	/experiments/knapen_AOT/AOT_stimuli/rescaled_final/0397_rv.mp4	0.0	240.1980390548706	2.500498056411743
41	193.27060198783875	pulse	1	t		39.0	2.5	/experiments/knapen_AOT/AOT_stimuli/rescaled_final/0397_rv.mp4	0.0	240.59003901481628	
41	194.87081289291382	pulse	1	t		39.0	2.5	/experiments/knapen_AOT/AOT_stimuli/rescaled_final/0397_rv.mp4	0.0	242.19024991989136	
41	195.3791000843048	fix_post	2		12	39.0	2.5	/experiments/knapen_AOT/AOT_stimuli/rescaled_final/0397_rv.mp4	0.0	242.69853711128235	0.0999288558959961
42	195.4790289402008	fix_pre	0		120	40.0	2.5	blank	1.0	242.79846596717834	1.0000779628753662
42	196.47100687026978	pulse	0	t		40.0	2.5	blank	1.0	243.79044389724731	
42	196.47910690307617	movie	1		301	40.0	2.5	blank	1.0	243.7985439300537	2.5087411403656006
42	198.07134699821472	pulse	1	t		40.0	2.5	blank	1.0	245.39078402519226	
42	198.98784804344177	fix_post	2		12	40.0	2.5	blank	1.0	246.3072850704193	0.09998297691345215
43	199.08783102035522	fix_pre	0		120	41.0	2.5	/experiments/knapen_AOT/AOT_stimuli/rescaled_final/0845_fw.mp4	0.0	246.40726804733276	1.0002210140228271
43	199.67154598236084	pulse	0	t		41.0	2.5	/experiments/knapen_AOT/AOT_stimuli/rescaled_final/0845_fw.mp4	0.0	246.99098300933838	
43	200.08805203437805	movie	1		244	41.0	2.5	/experiments/knapen_AOT/AOT_stimuli/rescaled_final/0845_fw.mp4	0.0	247.4074890613556	2.5003650188446045
43	201.27173900604248	pulse	1	t		41.0	2.5	/experiments/knapen_AOT/AOT_stimuli/rescaled_final/0845_fw.mp4	0.0	248.59117603302002	
43	202.58841705322266	fix_post	2		12	41.0	2.5	/experiments/knapen_AOT/AOT_stimuli/rescaled_final/0845_fw.mp4	0.0	249.9078540802002	0.10002684593200684
44	202.68844389915466	fix_pre	0		120	42.0	2.5	/experiments/knapen_AOT/AOT_stimuli/rescaled_final/0771_fw.mp4	0.0	250.0078809261322	1.0001220703125
44	202.87210488319397	pulse	0	t		42.0	2.5	/experiments/knapen_AOT/AOT_stimuli/rescaled_final/0771_fw.mp4	0.0	250.1915419101715	
44	203.68856596946716	movie	1		244	42.0	2.5	/experiments/knapen_AOT/AOT_stimuli/rescaled_final/0771_fw.mp4	0.0	251.0080029964447	2.500420093536377
44	204.47229099273682	pulse	1	t		42.0	2.5	/experiments/knapen_AOT/AOT_stimuli/rescaled_final/0771_fw.mp4	0.0	251.79172801971436	
44	206.07220697402954	pulse	1	t		42.0	2.5	/experiments/knapen_AOT/AOT_stimuli/rescaled_final/0771_fw.mp4	0.0	253.39164400100708	
44	206.18898606300354	fix_post	2		12	42.0	2.5	/experiments/knapen_AOT/AOT_stimuli/rescaled_final/0771_fw.mp4	0.0	253.50842308998108	0.10001397132873535
45	206.28900003433228	fix_pre	0		120	43.0	2.5	/experiments/knapen_AOT/AOT_stimuli/rescaled_final/2126_rv.mp4	0.0	253.60843706130981	1.0000779628753662
45	207.28907799720764	movie	1		241	43.0	2.5	/experiments/knapen_AOT/AOT_stimuli/rescaled_final/2126_rv.mp4	0.0	254.60851502418518	2.4921839237213135
45	207.67323207855225	pulse	1	t		43.0	2.5	/experiments/knapen_AOT/AOT_stimuli/rescaled_final/2126_rv.mp4	0.0	254.99266910552979	
45	209.27284288406372	pulse	1	t		43.0	2.5	/experiments/knapen_AOT/AOT_stimuli/rescaled_final/2126_rv.mp4	0.0	256.59227991104126	
45	209.78126192092896	fix_post	2		12	43.0	2.5	/experiments/knapen_AOT/AOT_stimuli/rescaled_final/2126_rv.mp4	0.0	257.1006989479065	0.09994196891784668
46	209.8812038898468	fix_pre	0		120	44.0	2.5	/experiments/knapen_AOT/AOT_stimuli/rescaled_final/1893_rv.mp4	0.0	257.20064091682434	1.0001051425933838
46	210.87320804595947	pulse	0	t		44.0	2.5	/experiments/knapen_AOT/AOT_stimuli/rescaled_final/1893_rv.mp4	0.0	258.192645072937	
46	210.88130903244019	movie	1		244	44.0	2.5	/experiments/knapen_AOT/AOT_stimuli/rescaled_final/1893_rv.mp4	0.0	258.2007460594177	2.508772850036621
46	212.47456097602844	pulse	1	t		44.0	2.5	/experiments/knapen_AOT/AOT_stimuli/rescaled_final/1893_rv.mp4	0.0	259.793998003006	
46	213.3900818824768	fix_post	2		12	44.0	2.5	/experiments/knapen_AOT/AOT_stimuli/rescaled_final/1893_rv.mp4	0.0	260.70951890945435	0.09994816780090332
47	213.4900300502777	fix_pre	0		120	45.0	2.5	/experiments/knapen_AOT/AOT_stimuli/rescaled_final/1354_rv.mp4	0.0	260.80946707725525	1.0001659393310547
47	214.07361602783203	pulse	0	t		45.0	2.5	/experiments/knapen_AOT/AOT_stimuli/rescaled_final/1354_rv.mp4	0.0	261.39305305480957	
47	214.49019598960876	movie	1		242	45.0	2.5	/experiments/knapen_AOT/AOT_stimuli/rescaled_final/1354_rv.mp4	0.0	261.8096330165863	2.50050687789917
47	215.67392086982727	pulse	1	t		45.0	2.5	/experiments/knapen_AOT/AOT_stimuli/rescaled_final/1354_rv.mp4	0.0	262.9933578968048	
47	216.99070286750793	fix_post	2		12	45.0	2.5	/experiments/knapen_AOT/AOT_stimuli/rescaled_final/1354_rv.mp4	0.0	264.3101398944855	0.09986519813537598
48	217.0905680656433	fix_pre	0		120	46.0	2.5	/experiments/knapen_AOT/AOT_stimuli/rescaled_final/2125_fw.mp4	0.0	264.41000509262085	1.0001299381256104
48	217.2741289138794	pulse	0	t		46.0	2.5	/experiments/knapen_AOT/AOT_stimuli/rescaled_final/2125_fw.mp4	0.0	264.59356594085693	
48	218.09069800376892	movie	1		244	46.0	2.5	/experiments/knapen_AOT/AOT_stimuli/rescaled_final/2125_fw.mp4	0.0	265.41013503074646	2.500415086746216
48	218.87444186210632	pulse	1	t		46.0	2.5	/experiments/knapen_AOT/AOT_stimuli/rescaled_final/2125_fw.mp4	0.0	266.19387888908386	
48	220.474524974823	pulse	1	t		46.0	2.5	/experiments/knapen_AOT/AOT_stimuli/rescaled_final/2125_fw.mp4	0.0	267.79396200180054	
48	220.59111309051514	fix_post	2		12	46.0	2.5	/experiments/knapen_AOT/AOT_stimuli/rescaled_final/2125_fw.mp4	0.0	267.9105501174927	0.10001993179321289
49	220.69113302230835	fix_pre	0		120	47.0	2.5	/experiments/knapen_AOT/AOT_stimuli/rescaled_final/1448_fw.mp4	0.0	268.0105700492859	1.0000958442687988
49	221.69122886657715	movie	1		242	47.0	2.5	/experiments/knapen_AOT/AOT_stimuli/rescaled_final/1448_fw.mp4	0.0	269.0106658935547	2.4920430183410645
49	222.0793890953064	pulse	1	t		47.0	2.5	/experiments/knapen_AOT/AOT_stimuli/rescaled_final/1448_fw.mp4	0.0	269.39882612228394	
49	223.67500686645508	pulse	1	t		47.0	2.5	/experiments/knapen_AOT/AOT_stimuli/rescaled_final/1448_fw.mp4	0.0	270.9944438934326	
49	224.1832718849182	fix_post	2		12	47.0	2.5	/experiments/knapen_AOT/AOT_stimuli/rescaled_final/1448_fw.mp4	0.0	271.50270891189575	0.10005807876586914
50	224.28332996368408	fix_pre	0		120	48.0	2.5	/experiments/knapen_AOT/AOT_stimuli/rescaled_final/0499_rv.mp4	0.0	271.6027669906616	1.000101089477539
50	225.27536988258362	pulse	0	t		48.0	2.5	/experiments/knapen_AOT/AOT_stimuli/rescaled_final/0499_rv.mp4	0.0	272.59480690956116	
50	225.28343105316162	movie	1		244	48.0	2.5	/experiments/knapen_AOT/AOT_stimuli/rescaled_final/0499_rv.mp4	0.0	272.60286808013916	2.5087358951568604
50	226.87673902511597	pulse	1	t		48.0	2.5	/experiments/knapen_AOT/AOT_stimuli/rescaled_final/0499_rv.mp4	0.0	274.1961760520935	
50	227.79216694831848	fix_post	2		12	48.0	2.5	/experiments/knapen_AOT/AOT_stimuli/rescaled_final/0499_rv.mp4	0.0	275.111603975296	0.10001707077026367
51	227.89218401908875	fix_pre	0		120	49.0	2.5	blank	1.0	275.2116210460663	1.0001530647277832
51	228.46821188926697	pulse	0	t		49.0	2.5	blank	1.0	275.7876489162445	
51	228.89233708381653	movie	1		300	49.0	2.5	blank	1.0	276.21177411079407	2.5003488063812256
51	230.06867003440857	pulse	1	t		49.0	2.5	blank	1.0	277.3881070613861	
51	231.39268589019775	fix_post	2		12	49.0	2.5	blank	1.0	278.7121229171753	0.10003209114074707
52	231.4927179813385	fix_pre	0		120	50.0	2.5	/experiments/knapen_AOT/AOT_stimuli/rescaled_final/0080_rv.mp4	0.0	278.81215500831604	1.000154972076416
52	231.66868686676025	pulse	0	t		50.0	2.5	/experiments/knapen_AOT/AOT_stimuli/rescaled_final/0080_rv.mp4	0.0	278.9881238937378	
52	232.49287295341492	movie	1		243	50.0	2.5	/experiments/knapen_AOT/AOT_stimuli/rescaled_final/0080_rv.mp4	0.0	279.81230998039246	2.5005240440368652
52	233.268208026886	pulse	1	t		50.0	2.5	/experiments/knapen_AOT/AOT_stimuli/rescaled_final/0080_rv.mp4	0.0	280.5876450538635	
52	234.8683009147644	pulse	1	t		50.0	2.5	/experiments/knapen_AOT/AOT_stimuli/rescaled_final/0080_rv.mp4	0.0	282.18773794174194	
52	234.99339699745178	fix_post	2		12	50.0	2.5	/experiments/knapen_AOT/AOT_stimuli/rescaled_final/0080_rv.mp4	0.0	282.3128340244293	0.09986686706542969
53	235.0932638645172	fix_pre	0		116	51.0	2.5	/experiments/knapen_AOT/AOT_stimuli/rescaled_final/0081_rv.mp4	0.0	282.41270089149475	1.0001111030578613
53	236.09337496757507	movie	1		241	51.0	2.5	/experiments/knapen_AOT/AOT_stimuli/rescaled_final/0081_rv.mp4	0.0	283.4128119945526	2.4921579360961914
53	236.4685730934143	pulse	1	t		51.0	2.5	/experiments/knapen_AOT/AOT_stimuli/rescaled_final/0081_rv.mp4	0.0	283.78801012039185	
53	238.06890988349915	pulse	1	t		51.0	2.5	/experiments/knapen_AOT/AOT_stimuli/rescaled_final/0081_rv.mp4	0.0	285.3883469104767	
53	238.58553290367126	fix_post	2		12	51.0	2.5	/experiments/knapen_AOT/AOT_stimuli/rescaled_final/0081_rv.mp4	0.0	285.9049699306488	0.09998607635498047
54	238.68551898002625	fix_pre	0		119	52.0	2.5	/experiments/knapen_AOT/AOT_stimuli/rescaled_final/1651_fw.mp4	0.0	286.0049560070038	0.9917209148406982
54	239.66910099983215	pulse	0	t		52.0	2.5	/experiments/knapen_AOT/AOT_stimuli/rescaled_final/1651_fw.mp4	0.0	286.9885380268097	
54	239.67723989486694	movie	1		243	52.0	2.5	/experiments/knapen_AOT/AOT_stimuli/rescaled_final/1651_fw.mp4	0.0	286.9966769218445	2.508869171142578
54	241.27066802978516	pulse	1	t		52.0	2.5	/experiments/knapen_AOT/AOT_stimuli/rescaled_final/1651_fw.mp4	0.0	288.5901050567627	
54	242.18610906600952	fix_post	2		12	52.0	2.5	/experiments/knapen_AOT/AOT_stimuli/rescaled_final/1651_fw.mp4	0.0	289.50554609298706	0.09998893737792969
55	242.28609800338745	fix_pre	0		120	53.0	2.5	/experiments/knapen_AOT/AOT_stimuli/rescaled_final/1377_rv.mp4	0.0	289.605535030365	1.0000050067901611
55	242.8695900440216	pulse	0	t		53.0	2.5	/experiments/knapen_AOT/AOT_stimuli/rescaled_final/1377_rv.mp4	0.0	290.18902707099915	
55	243.2861030101776	movie	1		242	53.0	2.5	/experiments/knapen_AOT/AOT_stimuli/rescaled_final/1377_rv.mp4	0.0	290.60554003715515	2.500609874725342
55	244.46989703178406	pulse	1	t		53.0	2.5	/experiments/knapen_AOT/AOT_stimuli/rescaled_final/1377_rv.mp4	0.0	291.7893340587616	
55	245.78671288490295	fix_post	2		12	53.0	2.5	/experiments/knapen_AOT/AOT_stimuli/rescaled_final/1377_rv.mp4	0.0	293.1061499118805	0.09981513023376465
56	245.88652801513672	fix_pre	0		120	54.0	2.5	/experiments/knapen_AOT/AOT_stimuli/rescaled_final/0626_fw.mp4	0.0	293.20596504211426	1.0001249313354492
56	246.07002091407776	pulse	0	t		54.0	2.5	/experiments/knapen_AOT/AOT_stimuli/rescaled_final/0626_fw.mp4	0.0	293.3894579410553	
56	246.88665294647217	movie	1		244	54.0	2.5	/experiments/knapen_AOT/AOT_stimuli/rescaled_final/0626_fw.mp4	0.0	294.2060899734497	2.500399112701416
56	247.6703019142151	pulse	1	t		54.0	2.5	/experiments/knapen_AOT/AOT_stimuli/rescaled_final/0626_fw.mp4	0.0	294.9897389411926	
56	249.27057003974915	pulse	1	t		54.0	2.5	/experiments/knapen_AOT/AOT_stimuli/rescaled_final/0626_fw.mp4	0.0	296.5900070667267	
56	249.38705205917358	fix_post	2		12	54.0	2.5	/experiments/knapen_AOT/AOT_stimuli/rescaled_final/0626_fw.mp4	0.0	296.7064890861511	0.1000368595123291
57	249.4870889186859	fix_pre	0		120	55.0	2.5	/experiments/knapen_AOT/AOT_stimuli/rescaled_final/0773_fw.mp4	0.0	296.80652594566345	1.000128984451294
57	250.4872179031372	movie	1		242	55.0	2.5	/experiments/knapen_AOT/AOT_stimuli/rescaled_final/0773_fw.mp4	0.0	297.80665493011475	2.4922330379486084
57	250.87112402915955	pulse	1	t		55.0	2.5	/experiments/knapen_AOT/AOT_stimuli/rescaled_final/0773_fw.mp4	0.0	298.1905610561371	
57	252.47097086906433	pulse	1	t		55.0	2.5	/experiments/knapen_AOT/AOT_stimuli/rescaled_final/0773_fw.mp4	0.0	299.79040789604187	
57	252.97945094108582	fix_post	2		12	55.0	2.5	/experiments/knapen_AOT/AOT_stimuli/rescaled_final/0773_fw.mp4	0.0	300.29888796806335	0.09984302520751953
58	253.07929396629333	fix_pre	0		120	56.0	2.5	blank	1.0	300.3987309932709	1.0000979900360107
58	254.07125806808472	pulse	0	t		56.0	2.5	blank	1.0	301.39069509506226	
58	254.07939195632935	movie	1		301	56.0	2.5	blank	1.0	301.3988289833069	2.5087549686431885
58	255.6716070175171	pulse	1	t		56.0	2.5	blank	1.0	302.99104404449463	
58	256.58814692497253	fix_post	2		12	56.0	2.5	blank	1.0	303.9075839519501	0.09999704360961914
59	256.68814396858215	fix_pre	0		120	57.0	2.5	/experiments/knapen_AOT/AOT_stimuli/rescaled_final/1418_fw.mp4	0.0	304.0075809955597	1.0000929832458496
59	257.27181696891785	pulse	0	t		57.0	2.5	/experiments/knapen_AOT/AOT_stimuli/rescaled_final/1418_fw.mp4	0.0	304.5912539958954	
59	257.688236951828	movie	1		243	57.0	2.5	/experiments/knapen_AOT/AOT_stimuli/rescaled_final/1418_fw.mp4	0.0	305.00767397880554	2.500554084777832
59	258.87198305130005	pulse	1	t		57.0	2.5	/experiments/knapen_AOT/AOT_stimuli/rescaled_final/1418_fw.mp4	0.0	306.1914200782776	
59	260.18879103660583	fix_post	2		12	57.0	2.5	/experiments/knapen_AOT/AOT_stimuli/rescaled_final/1418_fw.mp4	0.0	307.5082280635834	0.09986495971679688
60	260.28865599632263	fix_pre	0		120	58.0	2.5	/experiments/knapen_AOT/AOT_stimuli/rescaled_final/0101_fw.mp4	0.0	307.60809302330017	1.0001730918884277
60	260.47234201431274	pulse	0	t		58.0	2.5	/experiments/knapen_AOT/AOT_stimuli/rescaled_final/0101_fw.mp4	0.0	307.7917790412903	
60	261.28882908821106	movie	1		242	58.0	2.5	/experiments/knapen_AOT/AOT_stimuli/rescaled_final/0101_fw.mp4	0.0	308.6082661151886	2.5004498958587646
60	262.0724449157715	pulse	1	t		58.0	2.5	/experiments/knapen_AOT/AOT_stimuli/rescaled_final/0101_fw.mp4	0.0	309.391881942749	
60	263.6727080345154	pulse	1	t		58.0	2.5	/experiments/knapen_AOT/AOT_stimuli/rescaled_final/0101_fw.mp4	0.0	310.9921450614929	
60	263.7892789840698	fix_post	2		12	58.0	2.5	/experiments/knapen_AOT/AOT_stimuli/rescaled_final/0101_fw.mp4	0.0	311.10871601104736	0.09990501403808594
61	263.8891839981079	fix_pre	0		120	59.0	2.5	/experiments/knapen_AOT/AOT_stimuli/rescaled_final/1451_fw.mp4	0.0	311.20862102508545	1.0002119541168213
61	264.88939595222473	movie	1		241	59.0	2.5	/experiments/knapen_AOT/AOT_stimuli/rescaled_final/1451_fw.mp4	0.0	312.20883297920227	2.4921951293945312
61	265.2734498977661	pulse	1	t		59.0	2.5	/experiments/knapen_AOT/AOT_stimuli/rescaled_final/1451_fw.mp4	0.0	312.59288692474365	
61	266.87324690818787	pulse	1	t		59.0	2.5	/experiments/knapen_AOT/AOT_stimuli/rescaled_final/1451_fw.mp4	0.0	314.1926839351654	
61	267.38159108161926	fix_post	2		12	59.0	2.5	/experiments/knapen_AOT/AOT_stimuli/rescaled_final/1451_fw.mp4	0.0	314.7010281085968	0.09986686706542969
62	267.4814579486847	fix_pre	0		120	60.0	2.5	/experiments/knapen_AOT/AOT_stimuli/rescaled_final/1480_rv.mp4	0.0	314.80089497566223	1.0000951290130615
62	268.473375082016	pulse	0	t		60.0	2.5	/experiments/knapen_AOT/AOT_stimuli/rescaled_final/1480_rv.mp4	0.0	315.79281210899353	
62	268.48155307769775	movie	1		243	60.0	2.5	/experiments/knapen_AOT/AOT_stimuli/rescaled_final/1480_rv.mp4	0.0	315.8009901046753	2.5087428092956543
62	270.07415103912354	pulse	1	t		60.0	2.5	/experiments/knapen_AOT/AOT_stimuli/rescaled_final/1480_rv.mp4	0.0	317.3935880661011	
62	270.9902958869934	fix_post	2		12	60.0	2.5	/experiments/knapen_AOT/AOT_stimuli/rescaled_final/1480_rv.mp4	0.0	318.30973291397095	0.1000521183013916
63	271.0903480052948	fix_pre	0		120	61.0	2.5	/experiments/knapen_AOT/AOT_stimuli/rescaled_final/1333_fw.mp4	0.0	318.40978503227234	1.0001280307769775
63	271.6739490032196	pulse	0	t		61.0	2.5	/experiments/knapen_AOT/AOT_stimuli/rescaled_final/1333_fw.mp4	0.0	318.99338603019714	
63	272.0904760360718	movie	1		244	61.0	2.5	/experiments/knapen_AOT/AOT_stimuli/rescaled_final/1333_fw.mp4	0.0	319.4099130630493	2.5003390312194824
63	273.2741858959198	pulse	1	t		61.0	2.5	/experiments/knapen_AOT/AOT_stimuli/rescaled_final/1333_fw.mp4	0.0	320.59362292289734	
63	274.59081506729126	fix_post	2		12	61.0	2.5	/experiments/knapen_AOT/AOT_stimuli/rescaled_final/1333_fw.mp4	0.0	321.9102520942688	0.10001182556152344
64	274.6908268928528	fix_pre	0		120	62.0	2.5	/experiments/knapen_AOT/AOT_stimuli/rescaled_final/1188_fw.mp4	0.0	322.0102639198303	1.0001730918884277
64	274.8743450641632	pulse	0	t		62.0	2.5	/experiments/knapen_AOT/AOT_stimuli/rescaled_final/1188_fw.mp4	0.0	322.19378209114075	
64	275.6909999847412	movie	1		243	62.0	2.5	/experiments/knapen_AOT/AOT_stimuli/rescaled_final/1188_fw.mp4	0.0	323.01043701171875	2.5004420280456543
64	276.4747838973999	pulse	1	t		62.0	2.5	/experiments/knapen_AOT/AOT_stimuli/rescaled_final/1188_fw.mp4	0.0	323.79422092437744	
64	278.0746839046478	pulse	1	t		62.0	2.5	/experiments/knapen_AOT/AOT_stimuli/rescaled_final/1188_fw.mp4	0.0	325.39412093162537	
64	278.19144201278687	fix_post	2		12	62.0	2.5	/experiments/knapen_AOT/AOT_stimuli/rescaled_final/1188_fw.mp4	0.0	325.5108790397644	0.09989285469055176
65	278.2913348674774	fix_pre	0		120	63.0	2.5	blank	1.0	325.61077189445496	1.0001351833343506
65	279.29147005081177	movie	1		300	63.0	2.5	blank	1.0	326.6109070777893	2.5003769397735596
65	279.67508602142334	pulse	1	t		63.0	2.5	blank	1.0	326.9945230484009	
65	281.2752568721771	pulse	1	t		63.0	2.5	blank	1.0	328.59469389915466	
65	281.7918469905853	fix_post	2		12	63.0	2.5	blank	1.0	329.11128401756287	0.10001993179321289
66	281.89186692237854	fix_pre	0		119	64.0	2.5	/experiments/knapen_AOT/AOT_stimuli/rescaled_final/1066_fw.mp4	0.0	329.2113039493561	0.9917819499969482
66	282.87559700012207	pulse	0	t		64.0	2.5	/experiments/knapen_AOT/AOT_stimuli/rescaled_final/1066_fw.mp4	0.0	330.1950340270996	
66	282.8836488723755	movie	1		244	64.0	2.5	/experiments/knapen_AOT/AOT_stimuli/rescaled_final/1066_fw.mp4	0.0	330.203085899353	2.5087530612945557
66	284.4802989959717	pulse	1	t		64.0	2.5	/experiments/knapen_AOT/AOT_stimuli/rescaled_final/1066_fw.mp4	0.0	331.7997360229492	
66	285.39240193367004	fix_post	2		12	64.0	2.5	/experiments/knapen_AOT/AOT_stimuli/rescaled_final/1066_fw.mp4	0.0	332.7118389606476	0.100006103515625
67	285.49240803718567	fix_pre	0		120	65.0	2.5	/experiments/knapen_AOT/AOT_stimuli/rescaled_final/1937_rv.mp4	0.0	332.8118450641632	1.0001840591430664
67	286.0759789943695	pulse	0	t		65.0	2.5	/experiments/knapen_AOT/AOT_stimuli/rescaled_final/1937_rv.mp4	0.0	333.39541602134705	
67	286.49259209632874	movie	1		243	65.0	2.5	/experiments/knapen_AOT/AOT_stimuli/rescaled_final/1937_rv.mp4	0.0	333.8120291233063	2.5005109310150146
67	287.6692600250244	pulse	1	t		65.0	2.5	/experiments/knapen_AOT/AOT_stimuli/rescaled_final/1937_rv.mp4	0.0	334.98869705200195	
67	288.99310302734375	fix_post	2		12	65.0	2.5	/experiments/knapen_AOT/AOT_stimuli/rescaled_final/1937_rv.mp4	0.0	336.3125400543213	0.09992790222167969
68	289.09303092956543	fix_pre	0		120	66.0	2.5	/experiments/knapen_AOT/AOT_stimuli/rescaled_final/0059_rv.mp4	0.0	336.41246795654297	1.0000889301300049
68	289.26898407936096	pulse	0	t		66.0	2.5	/experiments/knapen_AOT/AOT_stimuli/rescaled_final/0059_rv.mp4	0.0	336.5884211063385	
68	290.09311985969543	movie	1		242	66.0	2.5	/experiments/knapen_AOT/AOT_stimuli/rescaled_final/0059_rv.mp4	0.0	337.412556886673	2.5004780292510986
68	290.86936593055725	pulse	1	t		66.0	2.5	/experiments/knapen_AOT/AOT_stimuli/rescaled_final/0059_rv.mp4	0.0	338.1888029575348	
68	292.47767186164856	pulse	1	t		66.0	2.5	/experiments/knapen_AOT/AOT_stimuli/rescaled_final/0059_rv.mp4	0.0	339.7971088886261	
68	292.59359788894653	fix_post	2		12	66.0	2.5	/experiments/knapen_AOT/AOT_stimuli/rescaled_final/0059_rv.mp4	0.0	339.9130349159241	0.09992504119873047
69	292.69352293014526	fix_pre	0		120	67.0	2.5	/experiments/knapen_AOT/AOT_stimuli/rescaled_final/0015_fw.mp4	0.0	340.0129599571228	1.0001189708709717
69	293.69364190101624	movie	1		242	67.0	2.5	/experiments/knapen_AOT/AOT_stimuli/rescaled_final/0015_fw.mp4	0.0	341.0130789279938	2.492133140563965
69	294.0689699649811	pulse	1	t		67.0	2.5	/experiments/knapen_AOT/AOT_stimuli/rescaled_final/0015_fw.mp4	0.0	341.3884069919586	
69	295.66924691200256	pulse	1	t		67.0	2.5	/experiments/knapen_AOT/AOT_stimuli/rescaled_final/0015_fw.mp4	0.0	342.9886839389801	
69	296.1857750415802	fix_post	2		12	67.0	2.5	/experiments/knapen_AOT/AOT_stimuli/rescaled_final/0015_fw.mp4	0.0	343.50521206855774	0.09990692138671875
70	296.2856819629669	fix_pre	0		119	68.0	2.5	/experiments/knapen_AOT/AOT_stimuli/rescaled_final/2157_rv.mp4	0.0	343.60511898994446	0.9918570518493652
70	297.26933693885803	pulse	0	t		68.0	2.5	/experiments/knapen_AOT/AOT_stimuli/rescaled_final/2157_rv.mp4	0.0	344.58877396583557	
70	297.2775390148163	movie	1		243	68.0	2.5	/experiments/knapen_AOT/AOT_stimuli/rescaled_final/2157_rv.mp4	0.0	344.5969760417938	2.5087668895721436
70	298.870817899704	pulse	1	t		68.0	2.5	/experiments/knapen_AOT/AOT_stimuli/rescaled_final/2157_rv.mp4	0.0	346.1902549266815	
70	299.7863059043884	fix_post	2		12	68.0	2.5	/experiments/knapen_AOT/AOT_stimuli/rescaled_final/2157_rv.mp4	0.0	347.10574293136597	0.09990811347961426
71	299.88621401786804	fix_pre	0		120	69.0	2.5	blank	1.0	347.2056510448456	1.000182867050171
71	300.4698190689087	pulse	0	t		69.0	2.5	blank	1.0	347.78925609588623	
71	300.8863968849182	movie	1		300	69.0	2.5	blank	1.0	348.20583391189575	2.500322103500366
71	302.0700879096985	pulse	1	t		69.0	2.5	blank	1.0	349.389524936676	
71	303.3867189884186	fix_post	2		12	69.0	2.5	blank	1.0	350.7061560153961	0.10002493858337402
72	303.48674392700195	fix_pre	0		120	70.0	2.5	/experiments/knapen_AOT/AOT_stimuli/rescaled_final/1125_fw.mp4	0.0	350.8061809539795	1.0001800060272217
72	303.6703510284424	pulse	0	t		70.0	2.5	/experiments/knapen_AOT/AOT_stimuli/rescaled_final/1125_fw.mp4	0.0	350.9897880554199	
72	304.4869239330292	movie	1		238	70.0	2.5	/experiments/knapen_AOT/AOT_stimuli/rescaled_final/1125_fw.mp4	0.0	351.8063609600067	2.5005650520324707
72	305.2705569267273	pulse	1	t		70.0	2.5	/experiments/knapen_AOT/AOT_stimuli/rescaled_final/1125_fw.mp4	0.0	352.58999395370483	
72	306.8708438873291	pulse	1	t		70.0	2.5	/experiments/knapen_AOT/AOT_stimuli/rescaled_final/1125_fw.mp4	0.0	354.19028091430664	
72	306.98748898506165	fix_post	2		12	70.0	2.5	/experiments/knapen_AOT/AOT_stimuli/rescaled_final/1125_fw.mp4	0.0	354.3069260120392	0.09984993934631348
73	307.08733892440796	fix_pre	0		120	71.0	2.5	/experiments/knapen_AOT/AOT_stimuli/rescaled_final/0911_rv.mp4	0.0	354.4067759513855	1.0001029968261719
73	308.08744192123413	movie	1		242	71.0	2.5	/experiments/knapen_AOT/AOT_stimuli/rescaled_final/0911_rv.mp4	0.0	355.40687894821167	2.492051124572754
73	308.4716548919678	pulse	1	t		71.0	2.5	/experiments/knapen_AOT/AOT_stimuli/rescaled_final/0911_rv.mp4	0.0	355.7910919189453	
73	310.0713930130005	pulse	1	t		71.0	2.5	/experiments/knapen_AOT/AOT_stimuli/rescaled_final/0911_rv.mp4	0.0	357.390830039978	
73	310.5794930458069	fix_post	2		12	71.0	2.5	/experiments/knapen_AOT/AOT_stimuli/rescaled_final/0911_rv.mp4	0.0	357.8989300727844	0.10004997253417969
74	310.67954301834106	fix_pre	0		120	72.0	2.5	/experiments/knapen_AOT/AOT_stimuli/rescaled_final/1259_rv.mp4	0.0	357.9989800453186	1.0001158714294434
74	311.6714940071106	pulse	0	t		72.0	2.5	/experiments/knapen_AOT/AOT_stimuli/rescaled_final/1259_rv.mp4	0.0	358.99093103408813	
74	311.6796588897705	movie	1		244	72.0	2.5	/experiments/knapen_AOT/AOT_stimuli/rescaled_final/1259_rv.mp4	0.0	358.99909591674805	2.5087599754333496
74	313.2724199295044	pulse	1	t		72.0	2.5	/experiments/knapen_AOT/AOT_stimuli/rescaled_final/1259_rv.mp4	0.0	360.59185695648193	
74	314.18841886520386	fix_post	2		12	72.0	2.5	/experiments/knapen_AOT/AOT_stimuli/rescaled_final/1259_rv.mp4	0.0	361.5078558921814	0.10000419616699219
75	314.28842306137085	fix_pre	0		120	73.0	2.5	/experiments/knapen_AOT/AOT_stimuli/rescaled_final/0008_rv.mp4	0.0	361.6078600883484	1.000152826309204
75	314.8719868659973	pulse	0	t		73.0	2.5	/experiments/knapen_AOT/AOT_stimuli/rescaled_final/0008_rv.mp4	0.0	362.19142389297485	
75	315.28857588768005	movie	1		242	73.0	2.5	/experiments/knapen_AOT/AOT_stimuli/rescaled_final/0008_rv.mp4	0.0	362.6080129146576	2.5004191398620605
75	316.4722969532013	pulse	1	t		73.0	2.5	/experiments/knapen_AOT/AOT_stimuli/rescaled_final/0008_rv.mp4	0.0	363.79173398017883	
75	317.7889950275421	fix_post	2		12	73.0	2.5	/experiments/knapen_AOT/AOT_stimuli/rescaled_final/0008_rv.mp4	0.0	365.10843205451965	0.10001397132873535
76	317.88900899887085	fix_pre	0		120	74.0	2.5	/experiments/knapen_AOT/AOT_stimuli/rescaled_final/1444_fw.mp4	0.0	365.2084460258484	1.0000839233398438
76	318.0725300312042	pulse	0	t		74.0	2.5	/experiments/knapen_AOT/AOT_stimuli/rescaled_final/1444_fw.mp4	0.0	365.39196705818176	
76	318.8890929222107	movie	1		243	74.0	2.5	/experiments/knapen_AOT/AOT_stimuli/rescaled_final/1444_fw.mp4	0.0	366.20852994918823	2.500365972518921
76	319.67276787757874	pulse	1	t		74.0	2.5	/experiments/knapen_AOT/AOT_stimuli/rescaled_final/1444_fw.mp4	0.0	366.9922049045563	
76	321.27281188964844	pulse	1	t		74.0	2.5	/experiments/knapen_AOT/AOT_stimuli/rescaled_final/1444_fw.mp4	0.0	368.592248916626	
76	321.3894588947296	fix_post	2		12	74.0	2.5	/experiments/knapen_AOT/AOT_stimuli/rescaled_final/1444_fw.mp4	0.0	368.70889592170715	0.1000211238861084
77	321.4894800186157	fix_pre	0		120	75.0	2.5	/experiments/knapen_AOT/AOT_stimuli/rescaled_final/0735_rv.mp4	0.0	368.80891704559326	1.0000860691070557
77	322.4895660877228	movie	1		243	75.0	2.5	/experiments/knapen_AOT/AOT_stimuli/rescaled_final/0735_rv.mp4	0.0	369.8090031147003	2.4920578002929688
77	322.87373900413513	pulse	1	t		75.0	2.5	/experiments/knapen_AOT/AOT_stimuli/rescaled_final/0735_rv.mp4	0.0	370.19317603111267	
77	324.4735279083252	pulse	1	t		75.0	2.5	/experiments/knapen_AOT/AOT_stimuli/rescaled_final/0735_rv.mp4	0.0	371.79296493530273	
77	324.98162388801575	fix_post	2		12	75.0	2.5	/experiments/knapen_AOT/AOT_stimuli/rescaled_final/0735_rv.mp4	0.0	372.3010609149933	0.10001397132873535
78	325.0816378593445	fix_pre	0		120	76.0	2.5	/experiments/knapen_AOT/AOT_stimuli/rescaled_final/0511_fw.mp4	0.0	372.401074886322	1.0001740455627441
78	326.0737249851227	pulse	0	t		76.0	2.5	/experiments/knapen_AOT/AOT_stimuli/rescaled_final/0511_fw.mp4	0.0	373.3931620121002	
78	326.0818119049072	movie	1		245	76.0	2.5	/experiments/knapen_AOT/AOT_stimuli/rescaled_final/0511_fw.mp4	0.0	373.40124893188477	2.5087661743164062
78	327.67460107803345	pulse	1	t		76.0	2.5	/experiments/knapen_AOT/AOT_stimuli/rescaled_final/0511_fw.mp4	0.0	374.994038105011	
78	328.59057807922363	fix_post	2		12	76.0	2.5	/experiments/knapen_AOT/AOT_stimuli/rescaled_final/0511_fw.mp4	0.0	375.9100151062012	0.09999489784240723
79	328.69057297706604	fix_pre	0		120	77.0	2.5	blank	1.0	376.0100100040436	1.0000710487365723
79	329.2741549015045	pulse	0	t		77.0	2.5	blank	1.0	376.59359192848206	
79	329.6906440258026	movie	1		300	77.0	2.5	blank	1.0	377.01008105278015	2.50036883354187
79	330.8744649887085	pulse	1	t		77.0	2.5	blank	1.0	378.19390201568604	
79	332.1910128593445	fix_post	2		12	77.0	2.5	blank	1.0	379.510449886322	0.10011720657348633
80	332.29113006591797	fix_pre	0		120	78.0	2.5	/experiments/knapen_AOT/AOT_stimuli/rescaled_final/2121_rv.mp4	0.0	379.6105670928955	1.0000519752502441
80	332.4746880531311	pulse	0	t		78.0	2.5	/experiments/knapen_AOT/AOT_stimuli/rescaled_final/2121_rv.mp4	0.0	379.79412508010864	
80	333.2911820411682	movie	1		242	78.0	2.5	/experiments/knapen_AOT/AOT_stimuli/rescaled_final/2121_rv.mp4	0.0	380.61061906814575	2.5006349086761475
80	334.07488107681274	pulse	1	t		78.0	2.5	/experiments/knapen_AOT/AOT_stimuli/rescaled_final/2121_rv.mp4	0.0	381.3943181037903	
80	335.6749930381775	pulse	1	t		78.0	2.5	/experiments/knapen_AOT/AOT_stimuli/rescaled_final/2121_rv.mp4	0.0	382.99443006515503	
80	335.79181694984436	fix_post	2		12	78.0	2.5	/experiments/knapen_AOT/AOT_stimuli/rescaled_final/2121_rv.mp4	0.0	383.1112539768219	0.09982013702392578
81	335.8916370868683	fix_pre	0		120	79.0	2.5	/experiments/knapen_AOT/AOT_stimuli/rescaled_final/0268_fw.mp4	0.0	383.2110741138458	1.0000879764556885
81	336.891725063324	movie	1		242	79.0	2.5	/experiments/knapen_AOT/AOT_stimuli/rescaled_final/0268_fw.mp4	0.0	384.2111620903015	2.492039918899536
81	337.2793960571289	pulse	1	t		79.0	2.5	/experiments/knapen_AOT/AOT_stimuli/rescaled_final/0268_fw.mp4	0.0	384.59883308410645	
81	338.8756709098816	pulse	1	t		79.0	2.5	/experiments/knapen_AOT/AOT_stimuli/rescaled_final/0268_fw.mp4	0.0	386.19510793685913	
81	339.3837649822235	fix_post	2		12	79.0	2.5	/experiments/knapen_AOT/AOT_stimuli/rescaled_final/0268_fw.mp4	0.0	386.70320200920105	0.10002708435058594
82	339.4837920665741	fix_pre	0		120	80.0	2.5	/experiments/knapen_AOT/AOT_stimuli/rescaled_final/1442_rv.mp4	0.0	386.80322909355164	1.0001518726348877
82	340.4758229255676	pulse	0	t		80.0	2.5	/experiments/knapen_AOT/AOT_stimuli/rescaled_final/1442_rv.mp4	0.0	387.79525995254517	
82	340.483943939209	movie	1		243	80.0	2.5	/experiments/knapen_AOT/AOT_stimuli/rescaled_final/1442_rv.mp4	0.0	387.8033809661865	2.5087881088256836
82	342.0767250061035	pulse	1	t		80.0	2.5	/experiments/knapen_AOT/AOT_stimuli/rescaled_final/1442_rv.mp4	0.0	389.39616203308105	
82	342.99273204803467	fix_post	2		12	80.0	2.5	/experiments/knapen_AOT/AOT_stimuli/rescaled_final/1442_rv.mp4	0.0	390.3121690750122	0.09990787506103516
83	343.0926399230957	fix_pre	0		120	81.0	2.5	/experiments/knapen_AOT/AOT_stimuli/rescaled_final/0187_fw.mp4	0.0	390.41207695007324	1.0001850128173828
83	343.6686520576477	pulse	0	t		81.0	2.5	/experiments/knapen_AOT/AOT_stimuli/rescaled_final/0187_fw.mp4	0.0	390.98808908462524	
83	344.0928249359131	movie	1		244	81.0	2.5	/experiments/knapen_AOT/AOT_stimuli/rescaled_final/0187_fw.mp4	0.0	391.4122619628906	2.5004310607910156
83	345.2689220905304	pulse	1	t		81.0	2.5	/experiments/knapen_AOT/AOT_stimuli/rescaled_final/0187_fw.mp4	0.0	392.58835911750793	
83	346.5932559967041	fix_post	2		12	81.0	2.5	/experiments/knapen_AOT/AOT_stimuli/rescaled_final/0187_fw.mp4	0.0	393.91269302368164	0.09999394416809082
84	346.6932499408722	fix_pre	0		120	82.0	2.5	/experiments/knapen_AOT/AOT_stimuli/rescaled_final/0707_fw.mp4	0.0	394.01268696784973	1.0001530647277832
84	346.869215965271	pulse	0	t		82.0	2.5	/experiments/knapen_AOT/AOT_stimuli/rescaled_final/0707_fw.mp4	0.0	394.18865299224854	
84	347.6934030056	movie	1		243	82.0	2.5	/experiments/knapen_AOT/AOT_stimuli/rescaled_final/0707_fw.mp4	0.0	395.0128400325775	2.500351905822754
84	348.4686598777771	pulse	1	t		82.0	2.5	/experiments/knapen_AOT/AOT_stimuli/rescaled_final/0707_fw.mp4	0.0	395.78809690475464	
84	350.06890296936035	pulse	1	t		82.0	2.5	/experiments/knapen_AOT/AOT_stimuli/rescaled_final/0707_fw.mp4	0.0	397.3883399963379	
84	350.19375491142273	fix_post	2		12	82.0	2.5	/experiments/knapen_AOT/AOT_stimuli/rescaled_final/0707_fw.mp4	0.0	397.51319193840027	0.09997797012329102
85	350.293732881546	fix_pre	0		120	83.0	2.5	blank	1.0	397.61316990852356	1.000169038772583
85	351.2939019203186	movie	1		299	83.0	2.5	blank	1.0	398.61333894729614	2.492072105407715
85	351.66910886764526	pulse	1	t		83.0	2.5	blank	1.0	398.9885458946228	
85	353.2694149017334	pulse	1	t		83.0	2.5	blank	1.0	400.58885192871094	
85	353.7859740257263	fix_post	2		12	83.0	2.5	blank	1.0	401.10541105270386	0.10001492500305176
87	353.88598895072937	stim	0		1716					401.2054259777069	14.302138090133667
87	354.8697130680084	pulse	0	t						402.18915009498596	
87	356.46981287002563	pulse	0	t						403.7892498970032	
87	358.0700480937958	pulse	0	t						405.3894851207733	
87	359.67030906677246	pulse	0	t						406.98974609375	
87	361.27057790756226	pulse	0	t						408.5900149345398	
87	362.8708109855652	pulse	0	t						410.1902480125427	
87	364.47108602523804	pulse	0	t						411.7905230522156	
87	366.07130789756775	pulse	0	t						413.3907449245453	
87	367.67150497436523	pulse	0	t						414.9909420013428	
