trial_nr	onset	event_type	phase	response	nr_frames	movie_index	movie_duration	movie_file	blank	onset_abs	duration
0	0.1331470012664795	stim	0		33					19.9008629322052	0.27498912811279297
0	0.3928840160369873	response	0	space						20.160599946975708	
1	0.40813612937927246	stim	0		4611					20.175852060317993	38.42476797103882
1	38.829408168792725	pulse	0	t						58.597124099731445	
1	38.83290410041809	stim	1		1717					58.60062003135681	14.308410882949829
1	40.4247829914093	pulse	1	t						60.19249892234802	
1	42.02482604980469	pulse	1	t						61.79254198074341	
1	43.624802112579346	pulse	1	t						63.392518043518066	
1	45.2248330116272	pulse	1	t						64.99254894256592	
1	46.824767112731934	pulse	1	t						66.59248304367065	
1	48.42473602294922	pulse	1	t						68.19245195388794	
1	50.02480506896973	pulse	1	t						69.79252099990845	
1	51.62478804588318	pulse	1	t						71.3925039768219	
2	53.14131498336792	fix_pre	0		11	0.0	2.5	/experiments/AOT/AOT_stimuli/rescaled_final/1472_fw.mp4	0.0	72.90903091430664	0.09163212776184082
2	53.224822998046875	pulse	0	t		0.0	2.5	/experiments/AOT/AOT_stimuli/rescaled_final/1472_fw.mp4	0.0	72.9925389289856	
2	53.23294711112976	movie	1		244	0.0	2.5	/experiments/AOT/AOT_stimuli/rescaled_final/1472_fw.mp4	0.0	73.00066304206848	2.508280038833618
2	54.82425904273987	pulse	1	t		0.0	2.5	/experiments/AOT/AOT_stimuli/rescaled_final/1472_fw.mp4	0.0	74.59197497367859	
2	55.74122714996338	fix_post	2		12	0.0	2.5	/experiments/AOT/AOT_stimuli/rescaled_final/1472_fw.mp4	0.0	75.5089430809021	0.10004782676696777
3	55.84127497673035	fix_pre	0		120	1.0	2.5	/experiments/AOT/AOT_stimuli/rescaled_final/1619_rv.mp4	0.0	75.60899090766907	0.9999680519104004
3	56.424766063690186	pulse	0	t		1.0	2.5	/experiments/AOT/AOT_stimuli/rescaled_final/1619_rv.mp4	0.0	76.1924819946289	
3	56.84124302864075	movie	1		243	1.0	2.5	/experiments/AOT/AOT_stimuli/rescaled_final/1619_rv.mp4	0.0	76.60895895957947	2.4996140003204346
3	58.024819135665894	pulse	1	t		1.0	2.5	/experiments/AOT/AOT_stimuli/rescaled_final/1619_rv.mp4	0.0	77.79253506660461	
3	59.34085702896118	fix_post	2		12	1.0	2.5	/experiments/AOT/AOT_stimuli/rescaled_final/1619_rv.mp4	0.0	79.1085729598999	0.10035896301269531
4	59.44121599197388	fix_pre	0		120	2.0	2.5	/experiments/AOT/AOT_stimuli/rescaled_final/0080_fw.mp4	0.0	79.2089319229126	1.0000171661376953
4	59.624667167663574	pulse	0	t		2.0	2.5	/experiments/AOT/AOT_stimuli/rescaled_final/0080_fw.mp4	0.0	79.3923830986023	
4	60.44123315811157	movie	1		245	2.0	2.5	/experiments/AOT/AOT_stimuli/rescaled_final/0080_fw.mp4	0.0	80.2089490890503	2.499964952468872
4	61.22468709945679	pulse	1	t		2.0	2.5	/experiments/AOT/AOT_stimuli/rescaled_final/0080_fw.mp4	0.0	80.99240303039551	
4	62.824772119522095	pulse	1	t		2.0	2.5	/experiments/AOT/AOT_stimuli/rescaled_final/0080_fw.mp4	0.0	82.59248805046082	
4	62.941198110580444	fix_post	2		12	2.0	2.5	/experiments/AOT/AOT_stimuli/rescaled_final/0080_fw.mp4	0.0	82.70891404151917	0.10002493858337402
5	63.04122304916382	fix_pre	0		120	3.0	2.5	/experiments/AOT/AOT_stimuli/rescaled_final/1388_rv.mp4	0.0	82.80893898010254	0.9999690055847168
5	64.04119205474854	movie	1		244	3.0	2.5	/experiments/AOT/AOT_stimuli/rescaled_final/1388_rv.mp4	0.0	83.80890798568726	2.4996259212493896
5	64.42581009864807	pulse	1	t		3.0	2.5	/experiments/AOT/AOT_stimuli/rescaled_final/1388_rv.mp4	0.0	84.19352602958679	
5	66.02466607093811	pulse	1	t		3.0	2.5	/experiments/AOT/AOT_stimuli/rescaled_final/1388_rv.mp4	0.0	85.79238200187683	
5	66.54081797599792	fix_post	2		12	3.0	2.5	/experiments/AOT/AOT_stimuli/rescaled_final/1388_rv.mp4	0.0	86.30853390693665	0.10041213035583496
6	66.64123010635376	fix_pre	0		119	4.0	2.5	/experiments/AOT/AOT_stimuli/rescaled_final/1181_fw.mp4	0.0	86.40894603729248	0.9916419982910156
6	67.62475204467773	pulse	0	t		4.0	2.5	/experiments/AOT/AOT_stimuli/rescaled_final/1181_fw.mp4	0.0	87.39246797561646	
6	67.63287210464478	movie	1		246	4.0	2.5	/experiments/AOT/AOT_stimuli/rescaled_final/1181_fw.mp4	0.0	87.4005880355835	2.5081169605255127
6	69.22464203834534	pulse	1	t		4.0	2.5	/experiments/AOT/AOT_stimuli/rescaled_final/1181_fw.mp4	0.0	88.99235796928406	
6	70.14098906517029	fix_post	2		12	4.0	2.5	/experiments/AOT/AOT_stimuli/rescaled_final/1181_fw.mp4	0.0	89.90870499610901	0.09998202323913574
7	70.24097108840942	fix_pre	0		120	5.0	2.5	blank	1.0	90.00868701934814	1.0000579357147217
7	70.82489013671875	pulse	0	t		5.0	2.5	blank	1.0	90.59260606765747	
7	71.24102902412415	movie	1		300	5.0	2.5	blank	1.0	91.00874495506287	2.5002100467681885
7	72.42472100257874	pulse	1	t		5.0	2.5	blank	1.0	92.19243693351746	
7	73.74123907089233	fix_post	2		12	5.0	2.5	blank	1.0	93.50895500183105	0.09999704360961914
8	73.84123611450195	fix_pre	0		120	6.0	2.5	/experiments/AOT/AOT_stimuli/rescaled_final/0469_rv.mp4	0.0	93.60895204544067	0.9999349117279053
8	74.0246651172638	pulse	0	t		6.0	2.5	/experiments/AOT/AOT_stimuli/rescaled_final/0469_rv.mp4	0.0	93.79238104820251	
8	74.84117102622986	movie	1		243	6.0	2.5	/experiments/AOT/AOT_stimuli/rescaled_final/0469_rv.mp4	0.0	94.60888695716858	2.4995341300964355
8	75.624587059021	pulse	1	t		6.0	2.5	/experiments/AOT/AOT_stimuli/rescaled_final/0469_rv.mp4	0.0	95.39230298995972	
8	77.23301815986633	pulse	1	t		6.0	2.5	/experiments/AOT/AOT_stimuli/rescaled_final/0469_rv.mp4	0.0	97.00073409080505	
8	77.3407051563263	fix_post	2		12	6.0	2.5	/experiments/AOT/AOT_stimuli/rescaled_final/0469_rv.mp4	0.0	97.10842108726501	0.1004338264465332
9	77.44113898277283	fix_pre	0		120	7.0	2.5	/experiments/AOT/AOT_stimuli/rescaled_final/2132_rv.mp4	0.0	97.20885491371155	0.9996790885925293
9	78.44081807136536	movie	1		243	7.0	2.5	/experiments/AOT/AOT_stimuli/rescaled_final/2132_rv.mp4	0.0	98.20853400230408	2.5002400875091553
9	78.82418704032898	pulse	1	t		7.0	2.5	/experiments/AOT/AOT_stimuli/rescaled_final/2132_rv.mp4	0.0	98.5919029712677	
9	80.42463302612305	pulse	1	t		7.0	2.5	/experiments/AOT/AOT_stimuli/rescaled_final/2132_rv.mp4	0.0	100.19234895706177	
9	80.94105815887451	fix_post	2		12	7.0	2.5	/experiments/AOT/AOT_stimuli/rescaled_final/2132_rv.mp4	0.0	100.70877408981323	0.1001119613647461
10	81.04117012023926	fix_pre	0		119	8.0	2.5	/experiments/AOT/AOT_stimuli/rescaled_final/1355_fw.mp4	0.0	100.80888605117798	0.991703987121582
10	82.02461814880371	pulse	0	t		8.0	2.5	/experiments/AOT/AOT_stimuli/rescaled_final/1355_fw.mp4	0.0	101.79233407974243	
10	82.03287410736084	movie	1		246	8.0	2.5	/experiments/AOT/AOT_stimuli/rescaled_final/1355_fw.mp4	0.0	101.80059003829956	2.508197069168091
10	83.62411308288574	pulse	1	t		8.0	2.5	/experiments/AOT/AOT_stimuli/rescaled_final/1355_fw.mp4	0.0	103.39182901382446	
10	84.54107117652893	fix_post	2		12	8.0	2.5	/experiments/AOT/AOT_stimuli/rescaled_final/1355_fw.mp4	0.0	104.30878710746765	0.09998393058776855
11	84.6410551071167	fix_pre	0		120	9.0	2.5	/experiments/AOT/AOT_stimuli/rescaled_final/0510_fw.mp4	0.0	104.40877103805542	1.0000560283660889
11	85.2245740890503	pulse	0	t		9.0	2.5	/experiments/AOT/AOT_stimuli/rescaled_final/0510_fw.mp4	0.0	104.99229001998901	
11	85.64111113548279	movie	1		247	9.0	2.5	/experiments/AOT/AOT_stimuli/rescaled_final/0510_fw.mp4	0.0	105.40882706642151	2.499945878982544
11	86.82460713386536	pulse	1	t		9.0	2.5	/experiments/AOT/AOT_stimuli/rescaled_final/0510_fw.mp4	0.0	106.59232306480408	
11	88.14105701446533	fix_post	2		12	9.0	2.5	/experiments/AOT/AOT_stimuli/rescaled_final/0510_fw.mp4	0.0	107.90877294540405	0.1000370979309082
12	88.24109411239624	fix_pre	0		120	10.0	2.5	/experiments/AOT/AOT_stimuli/rescaled_final/1147_fw.mp4	0.0	108.00881004333496	0.99993896484375
12	88.42462611198425	pulse	0	t		10.0	2.5	/experiments/AOT/AOT_stimuli/rescaled_final/1147_fw.mp4	0.0	108.19234204292297	
12	89.24103307723999	movie	1		243	10.0	2.5	/experiments/AOT/AOT_stimuli/rescaled_final/1147_fw.mp4	0.0	109.00874900817871	2.50007700920105
12	90.0246331691742	pulse	1	t		10.0	2.5	/experiments/AOT/AOT_stimuli/rescaled_final/1147_fw.mp4	0.0	109.79234910011292	
12	91.63297510147095	pulse	1	t		10.0	2.5	/experiments/AOT/AOT_stimuli/rescaled_final/1147_fw.mp4	0.0	111.40069103240967	
12	91.74111008644104	fix_post	2		12	10.0	2.5	/experiments/AOT/AOT_stimuli/rescaled_final/1147_fw.mp4	0.0	111.50882601737976	0.09996891021728516
13	91.84107899665833	fix_pre	0		120	11.0	2.5	/experiments/AOT/AOT_stimuli/rescaled_final/1314_rv.mp4	0.0	111.60879492759705	0.9999699592590332
13	92.84104895591736	movie	1		243	11.0	2.5	/experiments/AOT/AOT_stimuli/rescaled_final/1314_rv.mp4	0.0	112.60876488685608	2.500084161758423
13	93.22436904907227	pulse	1	t		11.0	2.5	/experiments/AOT/AOT_stimuli/rescaled_final/1314_rv.mp4	0.0	112.99208498001099	
13	94.824627161026	pulse	1	t		11.0	2.5	/experiments/AOT/AOT_stimuli/rescaled_final/1314_rv.mp4	0.0	114.59234309196472	
13	95.34113311767578	fix_post	2		12	11.0	2.5	/experiments/AOT/AOT_stimuli/rescaled_final/1314_rv.mp4	0.0	115.1088490486145	0.09995794296264648
14	95.44109106063843	fix_pre	0		119	12.0	2.5	/experiments/AOT/AOT_stimuli/rescaled_final/0546_rv.mp4	0.0	115.20880699157715	0.9916329383850098
14	96.42454314231873	pulse	0	t		12.0	2.5	/experiments/AOT/AOT_stimuli/rescaled_final/0546_rv.mp4	0.0	116.19225907325745	
14	96.43272399902344	movie	1		246	12.0	2.5	/experiments/AOT/AOT_stimuli/rescaled_final/0546_rv.mp4	0.0	116.20043992996216	2.5083470344543457
14	98.02419304847717	pulse	1	t		12.0	2.5	/experiments/AOT/AOT_stimuli/rescaled_final/0546_rv.mp4	0.0	117.7919089794159	
14	98.94107103347778	fix_post	2		12	12.0	2.5	/experiments/AOT/AOT_stimuli/rescaled_final/0546_rv.mp4	0.0	118.7087869644165	0.09997415542602539
15	99.04104518890381	fix_pre	0		120	13.0	2.5	/experiments/AOT/AOT_stimuli/rescaled_final/0933_fw.mp4	0.0	118.80876111984253	1.0001039505004883
15	99.62458515167236	pulse	0	t		13.0	2.5	/experiments/AOT/AOT_stimuli/rescaled_final/0933_fw.mp4	0.0	119.39230108261108	
15	100.0411491394043	movie	1		243	13.0	2.5	/experiments/AOT/AOT_stimuli/rescaled_final/0933_fw.mp4	0.0	119.80886507034302	2.499912977218628
15	101.22461605072021	pulse	1	t		13.0	2.5	/experiments/AOT/AOT_stimuli/rescaled_final/0933_fw.mp4	0.0	120.99233198165894	
15	102.54106211662292	fix_post	2		12	13.0	2.5	/experiments/AOT/AOT_stimuli/rescaled_final/0933_fw.mp4	0.0	122.30877804756165	0.0999898910522461
16	102.64105200767517	fix_pre	0		120	14.0	2.5	blank	1.0	122.40876793861389	0.999547004699707
16	102.82455396652222	pulse	0	t		14.0	2.5	blank	1.0	122.59226989746094	
16	103.64059901237488	movie	1		300	14.0	2.5	blank	1.0	123.4083149433136	2.500373125076294
16	104.42455315589905	pulse	1	t		14.0	2.5	blank	1.0	124.19226908683777	
16	106.02450704574585	pulse	1	t		14.0	2.5	blank	1.0	125.79222297668457	
16	106.14097213745117	fix_post	2		12	14.0	2.5	blank	1.0	125.90868806838989	0.10005593299865723
17	106.24102807044983	fix_pre	0		120	15.0	2.5	/experiments/AOT/AOT_stimuli/rescaled_final/0133_fw.mp4	0.0	126.00874400138855	0.9995920658111572
17	107.24062013626099	movie	1		245	15.0	2.5	/experiments/AOT/AOT_stimuli/rescaled_final/0133_fw.mp4	0.0	127.0083360671997	2.500356912612915
17	107.62569904327393	pulse	1	t		15.0	2.5	/experiments/AOT/AOT_stimuli/rescaled_final/0133_fw.mp4	0.0	127.39341497421265	
17	109.22446417808533	pulse	1	t		15.0	2.5	/experiments/AOT/AOT_stimuli/rescaled_final/0133_fw.mp4	0.0	128.99218010902405	
17	109.7409770488739	fix_post	2		12	15.0	2.5	/experiments/AOT/AOT_stimuli/rescaled_final/0133_fw.mp4	0.0	129.50869297981262	0.09995412826538086
18	109.84093117713928	fix_pre	0		119	16.0	2.5	/experiments/AOT/AOT_stimuli/rescaled_final/0861_rv.mp4	0.0	129.608647108078	0.9917809963226318
18	110.82448816299438	pulse	0	t		16.0	2.5	/experiments/AOT/AOT_stimuli/rescaled_final/0861_rv.mp4	0.0	130.5922040939331	
18	110.83271217346191	movie	1		244	16.0	2.5	/experiments/AOT/AOT_stimuli/rescaled_final/0861_rv.mp4	0.0	130.60042810440063	2.5078248977661133
18	112.42419409751892	pulse	1	t		16.0	2.5	/experiments/AOT/AOT_stimuli/rescaled_final/0861_rv.mp4	0.0	132.19191002845764	
18	113.34053707122803	fix_post	2		12	16.0	2.5	/experiments/AOT/AOT_stimuli/rescaled_final/0861_rv.mp4	0.0	133.10825300216675	0.10038590431213379
19	113.44092297554016	fix_pre	0		120	17.0	2.5	/experiments/AOT/AOT_stimuli/rescaled_final/1231_fw.mp4	0.0	133.20863890647888	1.0000550746917725
19	114.02450704574585	pulse	0	t		17.0	2.5	/experiments/AOT/AOT_stimuli/rescaled_final/1231_fw.mp4	0.0	133.79222297668457	
19	114.44097805023193	movie	1		243	17.0	2.5	/experiments/AOT/AOT_stimuli/rescaled_final/1231_fw.mp4	0.0	134.20869398117065	2.499993085861206
19	115.62459707260132	pulse	1	t		17.0	2.5	/experiments/AOT/AOT_stimuli/rescaled_final/1231_fw.mp4	0.0	135.39231300354004	
19	116.94097113609314	fix_post	2		12	17.0	2.5	/experiments/AOT/AOT_stimuli/rescaled_final/1231_fw.mp4	0.0	136.70868706703186	0.10006403923034668
20	117.04103517532349	fix_pre	0		120	18.0	2.5	/experiments/AOT/AOT_stimuli/rescaled_final/2041_rv.mp4	0.0	136.8087511062622	0.9999308586120605
20	117.22447800636292	pulse	0	t		18.0	2.5	/experiments/AOT/AOT_stimuli/rescaled_final/2041_rv.mp4	0.0	136.99219393730164	
20	118.04096603393555	movie	1		243	18.0	2.5	/experiments/AOT/AOT_stimuli/rescaled_final/2041_rv.mp4	0.0	137.80868196487427	2.500117063522339
20	118.82441115379333	pulse	1	t		18.0	2.5	/experiments/AOT/AOT_stimuli/rescaled_final/2041_rv.mp4	0.0	138.59212708473206	
20	120.43285799026489	pulse	1	t		18.0	2.5	/experiments/AOT/AOT_stimuli/rescaled_final/2041_rv.mp4	0.0	140.2005739212036	
20	120.54108309745789	fix_post	2		12	18.0	2.5	/experiments/AOT/AOT_stimuli/rescaled_final/2041_rv.mp4	0.0	140.3087990283966	0.09983205795288086
21	120.64091515541077	fix_pre	0		120	19.0	2.5	/experiments/AOT/AOT_stimuli/rescaled_final/1038_rv.mp4	0.0	140.4086310863495	1.0001280307769775
21	121.64104318618774	movie	1		243	19.0	2.5	/experiments/AOT/AOT_stimuli/rescaled_final/1038_rv.mp4	0.0	141.40875911712646	2.4999709129333496
21	122.02414202690125	pulse	1	t		19.0	2.5	/experiments/AOT/AOT_stimuli/rescaled_final/1038_rv.mp4	0.0	141.79185795783997	
21	123.62437009811401	pulse	1	t		19.0	2.5	/experiments/AOT/AOT_stimuli/rescaled_final/1038_rv.mp4	0.0	143.39208602905273	
21	124.1410140991211	fix_post	2		12	19.0	2.5	/experiments/AOT/AOT_stimuli/rescaled_final/1038_rv.mp4	0.0	143.90873003005981	0.09997892379760742
22	124.2409930229187	fix_pre	0		119	20.0	2.5	/experiments/AOT/AOT_stimuli/rescaled_final/0175_fw.mp4	0.0	144.00870895385742	0.9916529655456543
22	125.22405099868774	pulse	0	t		20.0	2.5	/experiments/AOT/AOT_stimuli/rescaled_final/0175_fw.mp4	0.0	144.99176692962646	
22	125.23264598846436	movie	1		245	20.0	2.5	/experiments/AOT/AOT_stimuli/rescaled_final/0175_fw.mp4	0.0	145.00036191940308	2.508256196975708
22	126.82393312454224	pulse	1	t		20.0	2.5	/experiments/AOT/AOT_stimuli/rescaled_final/0175_fw.mp4	0.0	146.59164905548096	
22	127.74090218544006	fix_post	2		12	20.0	2.5	/experiments/AOT/AOT_stimuli/rescaled_final/0175_fw.mp4	0.0	147.50861811637878	0.09999489784240723
23	127.84089708328247	fix_pre	0		120	21.0	2.5	blank	1.0	147.6086130142212	1.0000529289245605
23	128.4244041442871	pulse	0	t		21.0	2.5	blank	1.0	148.19212007522583	
23	128.84095001220703	movie	1		300	21.0	2.5	blank	1.0	148.60866594314575	2.499547004699707
23	130.02441310882568	pulse	1	t		21.0	2.5	blank	1.0	149.7921290397644	
23	131.34049701690674	fix_post	2		12	21.0	2.5	blank	1.0	151.10821294784546	0.10048103332519531
24	131.44097805023193	fix_pre	0		120	22.0	2.5	/experiments/AOT/AOT_stimuli/rescaled_final/0519_rv.mp4	0.0	151.20869398117065	0.9999709129333496
24	131.62445306777954	pulse	0	t		22.0	2.5	/experiments/AOT/AOT_stimuli/rescaled_final/0519_rv.mp4	0.0	151.39216899871826	
24	132.44094896316528	movie	1		246	22.0	2.5	/experiments/AOT/AOT_stimuli/rescaled_final/0519_rv.mp4	0.0	152.208664894104	2.4999470710754395
24	133.22434902191162	pulse	1	t		22.0	2.5	/experiments/AOT/AOT_stimuli/rescaled_final/0519_rv.mp4	0.0	152.99206495285034	
24	134.8327920436859	pulse	1	t		22.0	2.5	/experiments/AOT/AOT_stimuli/rescaled_final/0519_rv.mp4	0.0	154.60050797462463	
24	134.94089603424072	fix_post	2		12	22.0	2.5	/experiments/AOT/AOT_stimuli/rescaled_final/0519_rv.mp4	0.0	154.70861196517944	0.10001707077026367
25	135.040913105011	fix_pre	0		120	23.0	2.5	/experiments/AOT/AOT_stimuli/rescaled_final/1495_fw.mp4	0.0	154.8086290359497	0.9999880790710449
25	136.04090118408203	movie	1		246	23.0	2.5	/experiments/AOT/AOT_stimuli/rescaled_final/1495_fw.mp4	0.0	155.80861711502075	2.499976873397827
25	136.42431116104126	pulse	1	t		23.0	2.5	/experiments/AOT/AOT_stimuli/rescaled_final/1495_fw.mp4	0.0	156.19202709197998	
25	138.02432012557983	pulse	1	t		23.0	2.5	/experiments/AOT/AOT_stimuli/rescaled_final/1495_fw.mp4	0.0	157.79203605651855	
25	138.54087805747986	fix_post	2		12	23.0	2.5	/experiments/AOT/AOT_stimuli/rescaled_final/1495_fw.mp4	0.0	158.30859398841858	0.09989404678344727
26	138.6407721042633	fix_pre	0		119	24.0	2.5	/experiments/AOT/AOT_stimuli/rescaled_final/0165_rv.mp4	0.0	158.40848803520203	0.9917330741882324
26	139.62436509132385	pulse	0	t		24.0	2.5	/experiments/AOT/AOT_stimuli/rescaled_final/0165_rv.mp4	0.0	159.39208102226257	
26	139.63250517845154	movie	1		246	24.0	2.5	/experiments/AOT/AOT_stimuli/rescaled_final/0165_rv.mp4	0.0	159.40022110939026	2.5083699226379395
26	141.22425818443298	pulse	1	t		24.0	2.5	/experiments/AOT/AOT_stimuli/rescaled_final/0165_rv.mp4	0.0	160.9919741153717	
26	142.14087510108948	fix_post	2		12	24.0	2.5	/experiments/AOT/AOT_stimuli/rescaled_final/0165_rv.mp4	0.0	161.9085910320282	0.10019087791442871
27	142.2410659790039	fix_pre	0		120	25.0	2.5	/experiments/AOT/AOT_stimuli/rescaled_final/0692_rv.mp4	0.0	162.00878190994263	0.999805212020874
27	142.8243100643158	pulse	0	t		25.0	2.5	/experiments/AOT/AOT_stimuli/rescaled_final/0692_rv.mp4	0.0	162.59202599525452	
27	143.24087119102478	movie	1		242	25.0	2.5	/experiments/AOT/AOT_stimuli/rescaled_final/0692_rv.mp4	0.0	163.0085871219635	2.4995639324188232
27	144.42449808120728	pulse	1	t		25.0	2.5	/experiments/AOT/AOT_stimuli/rescaled_final/0692_rv.mp4	0.0	164.192214012146	
27	145.7404351234436	fix_post	2		12	25.0	2.5	/experiments/AOT/AOT_stimuli/rescaled_final/0692_rv.mp4	0.0	165.50815105438232	0.1003580093383789
28	145.84079313278198	fix_pre	0		120	26.0	2.5	/experiments/AOT/AOT_stimuli/rescaled_final/2130_rv.mp4	0.0	165.6085090637207	0.9995858669281006
28	146.0242521762848	pulse	0	t		26.0	2.5	/experiments/AOT/AOT_stimuli/rescaled_final/2130_rv.mp4	0.0	165.7919681072235	
28	146.84037899971008	movie	1		244	26.0	2.5	/experiments/AOT/AOT_stimuli/rescaled_final/2130_rv.mp4	0.0	166.6080949306488	2.4999430179595947
28	147.62419509887695	pulse	1	t		26.0	2.5	/experiments/AOT/AOT_stimuli/rescaled_final/2130_rv.mp4	0.0	167.39191102981567	
28	149.22425603866577	pulse	1	t		26.0	2.5	/experiments/AOT/AOT_stimuli/rescaled_final/2130_rv.mp4	0.0	168.9919719696045	
28	149.34032201766968	fix_post	2		12	26.0	2.5	/experiments/AOT/AOT_stimuli/rescaled_final/2130_rv.mp4	0.0	169.1080379486084	0.10008406639099121
29	149.44040608406067	fix_pre	0		120	27.0	2.5	blank	1.0	169.2081220149994	1.000391960144043
29	150.4407980442047	movie	1		300	27.0	2.5	blank	1.0	170.20851397514343	2.4995429515838623
29	150.82424807548523	pulse	1	t		27.0	2.5	blank	1.0	170.59196400642395	
29	152.4242901802063	pulse	1	t		27.0	2.5	blank	1.0	172.19200611114502	
29	152.94034099578857	fix_post	2		12	27.0	2.5	blank	1.0	172.7080569267273	0.10037612915039062
30	153.04071712493896	fix_pre	0		119	28.0	2.5	/experiments/AOT/AOT_stimuli/rescaled_final/2146_rv.mp4	0.0	172.80843305587769	0.9916858673095703
30	154.0243170261383	pulse	0	t		28.0	2.5	/experiments/AOT/AOT_stimuli/rescaled_final/2146_rv.mp4	0.0	173.79203295707703	
30	154.03240299224854	movie	1		247	28.0	2.5	/experiments/AOT/AOT_stimuli/rescaled_final/2146_rv.mp4	0.0	173.80011892318726	2.508287191390991
30	155.62382698059082	pulse	1	t		28.0	2.5	/experiments/AOT/AOT_stimuli/rescaled_final/2146_rv.mp4	0.0	175.39154291152954	
30	156.54069018363953	fix_post	2		12	28.0	2.5	/experiments/AOT/AOT_stimuli/rescaled_final/2146_rv.mp4	0.0	176.30840611457825	0.10010695457458496
31	156.6407971382141	fix_pre	0		120	29.0	2.5	/experiments/AOT/AOT_stimuli/rescaled_final/1669_fw.mp4	0.0	176.40851306915283	0.9999368190765381
31	157.22428703308105	pulse	0	t		29.0	2.5	/experiments/AOT/AOT_stimuli/rescaled_final/1669_fw.mp4	0.0	176.99200296401978	
31	157.64073395729065	movie	1		244	29.0	2.5	/experiments/AOT/AOT_stimuli/rescaled_final/1669_fw.mp4	0.0	177.40844988822937	2.499577045440674
31	158.82433009147644	pulse	1	t		29.0	2.5	/experiments/AOT/AOT_stimuli/rescaled_final/1669_fw.mp4	0.0	178.59204602241516	
31	160.14031100273132	fix_post	2		12	29.0	2.5	/experiments/AOT/AOT_stimuli/rescaled_final/1669_fw.mp4	0.0	179.90802693367004	0.10044312477111816
32	160.24075412750244	fix_pre	0		120	30.0	2.5	/experiments/AOT/AOT_stimuli/rescaled_final/1630_rv.mp4	0.0	180.00847005844116	0.9999909400939941
32	160.42425513267517	pulse	0	t		30.0	2.5	/experiments/AOT/AOT_stimuli/rescaled_final/1630_rv.mp4	0.0	180.1919710636139	
32	161.24074506759644	movie	1		243	30.0	2.5	/experiments/AOT/AOT_stimuli/rescaled_final/1630_rv.mp4	0.0	181.00846099853516	2.4995710849761963
32	162.0242371559143	pulse	1	t		30.0	2.5	/experiments/AOT/AOT_stimuli/rescaled_final/1630_rv.mp4	0.0	181.79195308685303	
32	163.6326711177826	pulse	1	t		30.0	2.5	/experiments/AOT/AOT_stimuli/rescaled_final/1630_rv.mp4	0.0	183.4003870487213	
32	163.74031615257263	fix_post	2		12	30.0	2.5	/experiments/AOT/AOT_stimuli/rescaled_final/1630_rv.mp4	0.0	183.50803208351135	0.10000085830688477
33	163.84031701087952	fix_pre	0		120	31.0	2.5	/experiments/AOT/AOT_stimuli/rescaled_final/0370_fw.mp4	0.0	183.60803294181824	1.0004291534423828
33	164.8407461643219	movie	1		243	31.0	2.5	/experiments/AOT/AOT_stimuli/rescaled_final/0370_fw.mp4	0.0	184.60846209526062	2.4995570182800293
33	165.2243139743805	pulse	1	t		31.0	2.5	/experiments/AOT/AOT_stimuli/rescaled_final/0370_fw.mp4	0.0	184.9920299053192	
33	166.82421207427979	pulse	1	t		31.0	2.5	/experiments/AOT/AOT_stimuli/rescaled_final/0370_fw.mp4	0.0	186.5919280052185	
33	167.34030318260193	fix_post	2		12	31.0	2.5	/experiments/AOT/AOT_stimuli/rescaled_final/0370_fw.mp4	0.0	187.10801911354065	0.10005593299865723
34	167.4403591156006	fix_pre	0		119	32.0	2.5	/experiments/AOT/AOT_stimuli/rescaled_final/0269_rv.mp4	0.0	187.2080750465393	0.9920220375061035
34	168.42422699928284	pulse	0	t		32.0	2.5	/experiments/AOT/AOT_stimuli/rescaled_final/0269_rv.mp4	0.0	188.19194293022156	
34	168.4323811531067	movie	1		245	32.0	2.5	/experiments/AOT/AOT_stimuli/rescaled_final/0269_rv.mp4	0.0	188.2000970840454	2.508359909057617
34	170.02425003051758	pulse	1	t		32.0	2.5	/experiments/AOT/AOT_stimuli/rescaled_final/0269_rv.mp4	0.0	189.7919659614563	
34	170.9407410621643	fix_post	2		12	32.0	2.5	/experiments/AOT/AOT_stimuli/rescaled_final/0269_rv.mp4	0.0	190.70845699310303	0.0999460220336914
35	171.040687084198	fix_pre	0		120	33.0	2.5	/experiments/AOT/AOT_stimuli/rescaled_final/1963_fw.mp4	0.0	190.80840301513672	1.0000319480895996
35	171.6242241859436	pulse	0	t		33.0	2.5	/experiments/AOT/AOT_stimuli/rescaled_final/1963_fw.mp4	0.0	191.39194011688232	
35	172.0407190322876	movie	1		244	33.0	2.5	/experiments/AOT/AOT_stimuli/rescaled_final/1963_fw.mp4	0.0	191.80843496322632	2.499907970428467
35	173.22422313690186	pulse	1	t		33.0	2.5	/experiments/AOT/AOT_stimuli/rescaled_final/1963_fw.mp4	0.0	192.99193906784058	
35	174.54062700271606	fix_post	2		12	33.0	2.5	/experiments/AOT/AOT_stimuli/rescaled_final/1963_fw.mp4	0.0	194.30834293365479	0.10009217262268066
36	174.64071917533875	fix_pre	0		120	34.0	2.5	blank	1.0	194.40843510627747	0.9995288848876953
36	174.82421708106995	pulse	0	t		34.0	2.5	blank	1.0	194.59193301200867	
36	175.64024806022644	movie	1		300	34.0	2.5	blank	1.0	195.40796399116516	2.5004289150238037
36	176.42424511909485	pulse	1	t		34.0	2.5	blank	1.0	196.19196105003357	
36	178.02413201332092	pulse	1	t		34.0	2.5	blank	1.0	197.79184794425964	
36	178.14067697525024	fix_post	2		12	34.0	2.5	blank	1.0	197.90839290618896	0.09999608993530273
37	178.24067306518555	fix_pre	0		120	35.0	2.5	/experiments/AOT/AOT_stimuli/rescaled_final/1690_rv.mp4	0.0	198.00838899612427	0.9996960163116455
37	179.2403690814972	movie	1		245	35.0	2.5	/experiments/AOT/AOT_stimuli/rescaled_final/1690_rv.mp4	0.0	199.0080850124359	2.500058889389038
37	179.63257098197937	pulse	1	t		35.0	2.5	/experiments/AOT/AOT_stimuli/rescaled_final/1690_rv.mp4	0.0	199.4002869129181	
37	181.2237479686737	pulse	1	t		35.0	2.5	/experiments/AOT/AOT_stimuli/rescaled_final/1690_rv.mp4	0.0	200.99146389961243	
37	181.74042797088623	fix_post	2		12	35.0	2.5	/experiments/AOT/AOT_stimuli/rescaled_final/1690_rv.mp4	0.0	201.50814390182495	0.0999150276184082
38	181.84034299850464	fix_pre	0		119	36.0	2.5	/experiments/AOT/AOT_stimuli/rescaled_final/0519_fw.mp4	0.0	201.60805892944336	0.992307186126709
38	182.82438611984253	pulse	0	t		36.0	2.5	/experiments/AOT/AOT_stimuli/rescaled_final/0519_fw.mp4	0.0	202.59210205078125	
38	182.83265018463135	movie	1		247	36.0	2.5	/experiments/AOT/AOT_stimuli/rescaled_final/0519_fw.mp4	0.0	202.60036611557007	2.508025884628296
38	184.43260598182678	pulse	1	t		36.0	2.5	/experiments/AOT/AOT_stimuli/rescaled_final/0519_fw.mp4	0.0	204.2003219127655	
38	185.34067606925964	fix_post	2		12	36.0	2.5	/experiments/AOT/AOT_stimuli/rescaled_final/0519_fw.mp4	0.0	205.10839200019836	0.1000220775604248
39	185.44069814682007	fix_pre	0		120	37.0	2.5	/experiments/AOT/AOT_stimuli/rescaled_final/0313_rv.mp4	0.0	205.2084140777588	0.9999809265136719
39	186.02419996261597	pulse	0	t		37.0	2.5	/experiments/AOT/AOT_stimuli/rescaled_final/0313_rv.mp4	0.0	205.7919158935547	
39	186.44067907333374	movie	1		245	37.0	2.5	/experiments/AOT/AOT_stimuli/rescaled_final/0313_rv.mp4	0.0	206.20839500427246	2.5000009536743164
39	187.62412905693054	pulse	1	t		37.0	2.5	/experiments/AOT/AOT_stimuli/rescaled_final/0313_rv.mp4	0.0	207.39184498786926	
39	188.94068002700806	fix_post	2		12	37.0	2.5	/experiments/AOT/AOT_stimuli/rescaled_final/0313_rv.mp4	0.0	208.70839595794678	0.0999901294708252
40	189.04067015647888	fix_pre	0		120	38.0	2.5	/experiments/AOT/AOT_stimuli/rescaled_final/1945_fw.mp4	0.0	208.8083860874176	0.9999589920043945
40	189.22405099868774	pulse	0	t		38.0	2.5	/experiments/AOT/AOT_stimuli/rescaled_final/1945_fw.mp4	0.0	208.99176692962646	
40	190.04062914848328	movie	1		243	38.0	2.5	/experiments/AOT/AOT_stimuli/rescaled_final/1945_fw.mp4	0.0	209.808345079422	2.5000648498535156
40	190.82401299476624	pulse	1	t		38.0	2.5	/experiments/AOT/AOT_stimuli/rescaled_final/1945_fw.mp4	0.0	210.59172892570496	
40	192.4325029850006	pulse	1	t		38.0	2.5	/experiments/AOT/AOT_stimuli/rescaled_final/1945_fw.mp4	0.0	212.20021891593933	
40	192.5406939983368	fix_post	2		12	38.0	2.5	/experiments/AOT/AOT_stimuli/rescaled_final/1945_fw.mp4	0.0	212.3084099292755	0.09987497329711914
41	192.6405689716339	fix_pre	0		120	39.0	2.5	/experiments/AOT/AOT_stimuli/rescaled_final/0907_fw.mp4	0.0	212.40828490257263	1.0000231266021729
41	193.64059209823608	movie	1		244	39.0	2.5	/experiments/AOT/AOT_stimuli/rescaled_final/0907_fw.mp4	0.0	213.4083080291748	2.499574899673462
41	194.02514004707336	pulse	1	t		39.0	2.5	/experiments/AOT/AOT_stimuli/rescaled_final/0907_fw.mp4	0.0	213.79285597801208	
41	195.62403917312622	pulse	1	t		39.0	2.5	/experiments/AOT/AOT_stimuli/rescaled_final/0907_fw.mp4	0.0	215.39175510406494	
41	196.14016699790955	fix_post	2		12	39.0	2.5	/experiments/AOT/AOT_stimuli/rescaled_final/0907_fw.mp4	0.0	215.90788292884827	0.1003720760345459
42	196.2405390739441	fix_pre	0		119	40.0	2.5	/experiments/AOT/AOT_stimuli/rescaled_final/0246_fw.mp4	0.0	216.0082550048828	0.9916579723358154
42	197.2241780757904	pulse	0	t		40.0	2.5	/experiments/AOT/AOT_stimuli/rescaled_final/0246_fw.mp4	0.0	216.99189400672913	
42	197.2321970462799	movie	1		248	40.0	2.5	/experiments/AOT/AOT_stimuli/rescaled_final/0246_fw.mp4	0.0	216.99991297721863	2.508376121520996
42	198.83249616622925	pulse	1	t		40.0	2.5	/experiments/AOT/AOT_stimuli/rescaled_final/0246_fw.mp4	0.0	218.60021209716797	
42	199.7405731678009	fix_post	2		12	40.0	2.5	/experiments/AOT/AOT_stimuli/rescaled_final/0246_fw.mp4	0.0	219.50828909873962	0.10003900527954102
43	199.84061217308044	fix_pre	0		120	41.0	2.5	/experiments/AOT/AOT_stimuli/rescaled_final/0411_rv.mp4	0.0	219.60832810401917	1.0000669956207275
43	200.42413115501404	pulse	0	t		41.0	2.5	/experiments/AOT/AOT_stimuli/rescaled_final/0411_rv.mp4	0.0	220.19184708595276	
43	200.84067916870117	movie	1		246	41.0	2.5	/experiments/AOT/AOT_stimuli/rescaled_final/0411_rv.mp4	0.0	220.6083950996399	2.4999308586120605
43	202.0241060256958	pulse	1	t		41.0	2.5	/experiments/AOT/AOT_stimuli/rescaled_final/0411_rv.mp4	0.0	221.79182195663452	
43	203.34061002731323	fix_post	2		12	41.0	2.5	/experiments/AOT/AOT_stimuli/rescaled_final/0411_rv.mp4	0.0	223.10832595825195	0.10005402565002441
44	203.44066405296326	fix_pre	0		120	42.0	2.5	blank	1.0	223.20837998390198	0.9999120235443115
44	203.62409210205078	pulse	0	t		42.0	2.5	blank	1.0	223.3918080329895	
44	204.44057607650757	movie	1		300	42.0	2.5	blank	1.0	224.2082920074463	2.4999139308929443
44	205.2240171432495	pulse	1	t		42.0	2.5	blank	1.0	224.99173307418823	
44	206.82403111457825	pulse	1	t		42.0	2.5	blank	1.0	226.59174704551697	
44	206.9404900074005	fix_post	2		12	42.0	2.5	blank	1.0	226.70820593833923	0.10000014305114746
45	207.04049015045166	fix_pre	0		120	43.0	2.5	/experiments/AOT/AOT_stimuli/rescaled_final/0692_fw.mp4	0.0	226.80820608139038	0.9999549388885498
45	208.0404450893402	movie	1		243	43.0	2.5	/experiments/AOT/AOT_stimuli/rescaled_final/0692_fw.mp4	0.0	227.80816102027893	2.5000948905944824
45	208.42514395713806	pulse	1	t		43.0	2.5	/experiments/AOT/AOT_stimuli/rescaled_final/0692_fw.mp4	0.0	228.19285988807678	
45	210.0239601135254	pulse	1	t		43.0	2.5	/experiments/AOT/AOT_stimuli/rescaled_final/0692_fw.mp4	0.0	229.7916760444641	
45	210.5405399799347	fix_post	2		12	43.0	2.5	/experiments/AOT/AOT_stimuli/rescaled_final/0692_fw.mp4	0.0	230.3082559108734	0.09991812705993652
46	210.64045810699463	fix_pre	0		119	44.0	2.5	/experiments/AOT/AOT_stimuli/rescaled_final/0503_fw.mp4	0.0	230.40817403793335	0.9917428493499756
46	211.62398409843445	pulse	0	t		44.0	2.5	/experiments/AOT/AOT_stimuli/rescaled_final/0503_fw.mp4	0.0	231.39170002937317	
46	211.6322009563446	movie	1		244	44.0	2.5	/experiments/AOT/AOT_stimuli/rescaled_final/0503_fw.mp4	0.0	231.39991688728333	2.5083651542663574
46	213.2252950668335	pulse	1	t		44.0	2.5	/experiments/AOT/AOT_stimuli/rescaled_final/0503_fw.mp4	0.0	232.99301099777222	
46	214.14056611061096	fix_post	2		12	44.0	2.5	/experiments/AOT/AOT_stimuli/rescaled_final/0503_fw.mp4	0.0	233.90828204154968	0.09993696212768555
47	214.24050307273865	fix_pre	0		120	45.0	2.5	/experiments/AOT/AOT_stimuli/rescaled_final/1276_rv.mp4	0.0	234.00821900367737	1.0000228881835938
47	214.824853181839	pulse	0	t		45.0	2.5	/experiments/AOT/AOT_stimuli/rescaled_final/1276_rv.mp4	0.0	234.5925691127777	
47	215.24052596092224	movie	1		244	45.0	2.5	/experiments/AOT/AOT_stimuli/rescaled_final/1276_rv.mp4	0.0	235.00824189186096	2.4999871253967285
47	216.42507219314575	pulse	1	t		45.0	2.5	/experiments/AOT/AOT_stimuli/rescaled_final/1276_rv.mp4	0.0	236.19278812408447	
47	217.74051308631897	fix_post	2		12	45.0	2.5	/experiments/AOT/AOT_stimuli/rescaled_final/1276_rv.mp4	0.0	237.5082290172577	0.1000070571899414
48	217.8405201435089	fix_pre	0		120	46.0	2.5	/experiments/AOT/AOT_stimuli/rescaled_final/0130_fw.mp4	0.0	237.60823607444763	0.9999608993530273
48	218.02396607398987	pulse	0	t		46.0	2.5	/experiments/AOT/AOT_stimuli/rescaled_final/0130_fw.mp4	0.0	237.7916820049286	
48	218.84048104286194	movie	1		245	46.0	2.5	/experiments/AOT/AOT_stimuli/rescaled_final/0130_fw.mp4	0.0	238.60819697380066	2.5000200271606445
48	219.62398409843445	pulse	1	t		46.0	2.5	/experiments/AOT/AOT_stimuli/rescaled_final/0130_fw.mp4	0.0	239.39170002937317	
48	221.22437405586243	pulse	1	t		46.0	2.5	/experiments/AOT/AOT_stimuli/rescaled_final/0130_fw.mp4	0.0	240.99208998680115	
48	221.34050107002258	fix_post	2		12	46.0	2.5	/experiments/AOT/AOT_stimuli/rescaled_final/0130_fw.mp4	0.0	241.1082170009613	0.09993290901184082
49	221.44043397903442	fix_pre	0		120	47.0	2.5	/experiments/AOT/AOT_stimuli/rescaled_final/1620_fw.mp4	0.0	241.20814990997314	1.000049114227295
49	222.44048309326172	movie	1		246	47.0	2.5	/experiments/AOT/AOT_stimuli/rescaled_final/1620_fw.mp4	0.0	242.20819902420044	2.499527931213379
49	222.83231401443481	pulse	1	t		47.0	2.5	/experiments/AOT/AOT_stimuli/rescaled_final/1620_fw.mp4	0.0	242.60002994537354	
49	224.42389702796936	pulse	1	t		47.0	2.5	/experiments/AOT/AOT_stimuli/rescaled_final/1620_fw.mp4	0.0	244.19161295890808	
49	224.9400110244751	fix_post	2		12	47.0	2.5	/experiments/AOT/AOT_stimuli/rescaled_final/1620_fw.mp4	0.0	244.70772695541382	0.10048294067382812
50	225.04049396514893	fix_pre	0		119	48.0	2.5	blank	1.0	244.80820989608765	0.991732120513916
50	226.02396416664124	pulse	0	t		48.0	2.5	blank	1.0	245.79168009757996	
50	226.03222608566284	movie	1		301	48.0	2.5	blank	1.0	245.79994201660156	2.5081839561462402
50	227.62396812438965	pulse	1	t		48.0	2.5	blank	1.0	247.39168405532837	
50	228.54041004180908	fix_post	2		12	48.0	2.5	blank	1.0	248.3081259727478	0.09998202323913574
51	228.64039206504822	fix_pre	0		120	49.0	2.5	/experiments/AOT/AOT_stimuli/rescaled_final/1084_fw.mp4	0.0	248.40810799598694	1.0000860691070557
51	229.22388410568237	pulse	0	t		49.0	2.5	/experiments/AOT/AOT_stimuli/rescaled_final/1084_fw.mp4	0.0	248.9916000366211	
51	229.64047813415527	movie	1		244	49.0	2.5	/experiments/AOT/AOT_stimuli/rescaled_final/1084_fw.mp4	0.0	249.408194065094	2.4995110034942627
51	230.82486510276794	pulse	1	t		49.0	2.5	/experiments/AOT/AOT_stimuli/rescaled_final/1084_fw.mp4	0.0	250.59258103370667	
51	232.13998913764954	fix_post	2		12	49.0	2.5	/experiments/AOT/AOT_stimuli/rescaled_final/1084_fw.mp4	0.0	251.90770506858826	0.10045790672302246
52	232.24044704437256	fix_pre	0		120	50.0	2.5	/experiments/AOT/AOT_stimuli/rescaled_final/1276_fw.mp4	0.0	252.00816297531128	0.9999921321868896
52	232.42469906806946	pulse	0	t		50.0	2.5	/experiments/AOT/AOT_stimuli/rescaled_final/1276_fw.mp4	0.0	252.19241499900818	
52	233.24043917655945	movie	1		244	50.0	2.5	/experiments/AOT/AOT_stimuli/rescaled_final/1276_fw.mp4	0.0	253.00815510749817	2.4997189044952393
52	234.02471208572388	pulse	1	t		50.0	2.5	/experiments/AOT/AOT_stimuli/rescaled_final/1276_fw.mp4	0.0	253.7924280166626	
52	235.6323139667511	pulse	1	t		50.0	2.5	/experiments/AOT/AOT_stimuli/rescaled_final/1276_fw.mp4	0.0	255.40002989768982	
52	235.7401580810547	fix_post	2		12	50.0	2.5	/experiments/AOT/AOT_stimuli/rescaled_final/1276_fw.mp4	0.0	255.5078740119934	0.09981489181518555
53	235.83997297286987	fix_pre	0		120	51.0	2.5	/experiments/AOT/AOT_stimuli/rescaled_final/0861_rv.mp4	0.0	255.6076889038086	1.000035047531128
53	236.840008020401	movie	1		243	51.0	2.5	/experiments/AOT/AOT_stimuli/rescaled_final/0861_rv.mp4	0.0	256.6077239513397	2.5003840923309326
53	237.2245490550995	pulse	1	t		51.0	2.5	/experiments/AOT/AOT_stimuli/rescaled_final/0861_rv.mp4	0.0	256.9922649860382	
53	238.82378816604614	pulse	1	t		51.0	2.5	/experiments/AOT/AOT_stimuli/rescaled_final/0861_rv.mp4	0.0	258.59150409698486	
53	239.34039211273193	fix_post	2		12	51.0	2.5	/experiments/AOT/AOT_stimuli/rescaled_final/0861_rv.mp4	0.0	259.10810804367065	0.09994101524353027
54	239.44033312797546	fix_pre	0		119	52.0	2.5	/experiments/AOT/AOT_stimuli/rescaled_final/1397_rv.mp4	0.0	259.2080490589142	0.9917678833007812
54	240.42397904396057	pulse	0	t		52.0	2.5	/experiments/AOT/AOT_stimuli/rescaled_final/1397_rv.mp4	0.0	260.1916949748993	
54	240.43210101127625	movie	1		246	52.0	2.5	/experiments/AOT/AOT_stimuli/rescaled_final/1397_rv.mp4	0.0	260.19981694221497	2.508270025253296
54	242.03228902816772	pulse	1	t		52.0	2.5	/experiments/AOT/AOT_stimuli/rescaled_final/1397_rv.mp4	0.0	261.80000495910645	
54	242.94037103652954	fix_post	2		12	52.0	2.5	/experiments/AOT/AOT_stimuli/rescaled_final/1397_rv.mp4	0.0	262.70808696746826	0.09993815422058105
55	243.04030919075012	fix_pre	0		120	53.0	2.5	/experiments/AOT/AOT_stimuli/rescaled_final/1495_rv.mp4	0.0	262.80802512168884	1.0001587867736816
55	243.62390398979187	pulse	0	t		53.0	2.5	/experiments/AOT/AOT_stimuli/rescaled_final/1495_rv.mp4	0.0	263.3916199207306	
55	244.0404679775238	movie	1		247	53.0	2.5	/experiments/AOT/AOT_stimuli/rescaled_final/1495_rv.mp4	0.0	263.8081839084625	2.499890089035034
55	245.22389006614685	pulse	1	t		53.0	2.5	/experiments/AOT/AOT_stimuli/rescaled_final/1495_rv.mp4	0.0	264.99160599708557	
55	246.54035806655884	fix_post	2		12	53.0	2.5	/experiments/AOT/AOT_stimuli/rescaled_final/1495_rv.mp4	0.0	266.30807399749756	0.10018396377563477
56	246.64054203033447	fix_pre	0		120	54.0	2.5	blank	1.0	266.4082579612732	0.9998359680175781
56	246.8247790336609	pulse	0	t		54.0	2.5	blank	1.0	266.5924949645996	
56	247.64037799835205	movie	1		300	54.0	2.5	blank	1.0	267.40809392929077	2.4998860359191895
56	248.42469310760498	pulse	1	t		54.0	2.5	blank	1.0	268.1924090385437	
56	250.02470302581787	pulse	1	t		54.0	2.5	blank	1.0	269.7924189567566	
56	250.14026403427124	fix_post	2		12	54.0	2.5	blank	1.0	269.90797996520996	0.10006093978881836
57	250.24032497406006	fix_pre	0		120	55.0	2.5	/experiments/AOT/AOT_stimuli/rescaled_final/1501_fw.mp4	0.0	270.0080409049988	0.9999949932098389
57	251.2403199672699	movie	1		244	55.0	2.5	/experiments/AOT/AOT_stimuli/rescaled_final/1501_fw.mp4	0.0	271.0080358982086	2.499566078186035
57	251.6322090625763	pulse	1	t		55.0	2.5	/experiments/AOT/AOT_stimuli/rescaled_final/1501_fw.mp4	0.0	271.399924993515	
57	253.22481513023376	pulse	1	t		55.0	2.5	/experiments/AOT/AOT_stimuli/rescaled_final/1501_fw.mp4	0.0	272.9925310611725	
57	253.73988604545593	fix_post	2		12	55.0	2.5	/experiments/AOT/AOT_stimuli/rescaled_final/1501_fw.mp4	0.0	273.50760197639465	0.10034894943237305
58	253.8402349948883	fix_pre	0		119	56.0	2.5	/experiments/AOT/AOT_stimuli/rescaled_final/1968_fw.mp4	0.0	273.607950925827	0.9916911125183105
58	254.82379698753357	pulse	0	t		56.0	2.5	/experiments/AOT/AOT_stimuli/rescaled_final/1968_fw.mp4	0.0	274.5915129184723	
58	254.83192610740662	movie	1		245	56.0	2.5	/experiments/AOT/AOT_stimuli/rescaled_final/1968_fw.mp4	0.0	274.59964203834534	2.508347988128662
58	256.4322190284729	pulse	1	t		56.0	2.5	/experiments/AOT/AOT_stimuli/rescaled_final/1968_fw.mp4	0.0	276.1999349594116	
58	257.3402740955353	fix_post	2		12	56.0	2.5	/experiments/AOT/AOT_stimuli/rescaled_final/1968_fw.mp4	0.0	277.107990026474	0.0999898910522461
59	257.4402639865875	fix_pre	0		120	57.0	2.5	/experiments/AOT/AOT_stimuli/rescaled_final/0852_rv.mp4	0.0	277.20797991752625	1.0000200271606445
59	258.023805141449	pulse	0	t		57.0	2.5	/experiments/AOT/AOT_stimuli/rescaled_final/0852_rv.mp4	0.0	277.7915210723877	
59	258.44028401374817	movie	1		243	57.0	2.5	/experiments/AOT/AOT_stimuli/rescaled_final/0852_rv.mp4	0.0	278.2079999446869	2.4999821186065674
59	259.62389397621155	pulse	1	t		57.0	2.5	/experiments/AOT/AOT_stimuli/rescaled_final/0852_rv.mp4	0.0	279.39160990715027	
59	260.94026613235474	fix_post	2		12	57.0	2.5	/experiments/AOT/AOT_stimuli/rescaled_final/0852_rv.mp4	0.0	280.70798206329346	0.09958386421203613
60	261.0398499965668	fix_pre	0		120	58.0	2.5	/experiments/AOT/AOT_stimuli/rescaled_final/1669_fw.mp4	0.0	280.8075659275055	1.0001060962677002
60	261.2237751483917	pulse	0	t		58.0	2.5	/experiments/AOT/AOT_stimuli/rescaled_final/1669_fw.mp4	0.0	280.99149107933044	
60	262.0399560928345	movie	1		246	58.0	2.5	/experiments/AOT/AOT_stimuli/rescaled_final/1669_fw.mp4	0.0	281.8076720237732	2.500498056411743
60	262.82464718818665	pulse	1	t		58.0	2.5	/experiments/AOT/AOT_stimuli/rescaled_final/1669_fw.mp4	0.0	282.59236311912537	
60	264.4321839809418	pulse	1	t		58.0	2.5	/experiments/AOT/AOT_stimuli/rescaled_final/1669_fw.mp4	0.0	284.1998999118805	
60	264.5404541492462	fix_post	2		12	58.0	2.5	/experiments/AOT/AOT_stimuli/rescaled_final/1669_fw.mp4	0.0	284.30817008018494	0.09940481185913086
61	264.63985896110535	fix_pre	0		120	59.0	2.5	/experiments/AOT/AOT_stimuli/rescaled_final/2175_fw.mp4	0.0	284.40757489204407	1.0004041194915771
61	265.6402630805969	movie	1		247	59.0	2.5	/experiments/AOT/AOT_stimuli/rescaled_final/2175_fw.mp4	0.0	285.40797901153564	2.500016927719116
61	266.0321509838104	pulse	1	t		59.0	2.5	/experiments/AOT/AOT_stimuli/rescaled_final/2175_fw.mp4	0.0	285.79986691474915	
61	267.62463116645813	pulse	1	t		59.0	2.5	/experiments/AOT/AOT_stimuli/rescaled_final/2175_fw.mp4	0.0	287.39234709739685	
61	268.14028000831604	fix_post	2		12	59.0	2.5	/experiments/AOT/AOT_stimuli/rescaled_final/2175_fw.mp4	0.0	287.90799593925476	0.10003805160522461
62	268.24031805992126	fix_pre	0		120	60.0	2.5	/experiments/AOT/AOT_stimuli/rescaled_final/1992_rv.mp4	0.0	288.00803399086	0.9999699592590332
62	269.2244839668274	pulse	0	t		60.0	2.5	/experiments/AOT/AOT_stimuli/rescaled_final/1992_rv.mp4	0.0	288.9921998977661	
62	269.2402880191803	movie	1		246	60.0	2.5	/experiments/AOT/AOT_stimuli/rescaled_final/1992_rv.mp4	0.0	289.008003950119	2.50822114944458
62	270.8315360546112	pulse	1	t		60.0	2.5	/experiments/AOT/AOT_stimuli/rescaled_final/1992_rv.mp4	0.0	290.5992519855499	
62	271.7485091686249	fix_post	2		12	60.0	2.5	/experiments/AOT/AOT_stimuli/rescaled_final/1992_rv.mp4	0.0	291.5162250995636	0.10001802444458008
63	271.84852719306946	fix_pre	0		120	61.0	2.5	/experiments/AOT/AOT_stimuli/rescaled_final/1445_fw.mp4	0.0	291.6162431240082	0.9999668598175049
63	272.4238829612732	pulse	0	t		61.0	2.5	/experiments/AOT/AOT_stimuli/rescaled_final/1445_fw.mp4	0.0	292.1915988922119	
63	272.84849405288696	movie	1		243	61.0	2.5	/experiments/AOT/AOT_stimuli/rescaled_final/1445_fw.mp4	0.0	292.6162099838257	2.499635934829712
63	274.02491998672485	pulse	1	t		61.0	2.5	/experiments/AOT/AOT_stimuli/rescaled_final/1445_fw.mp4	0.0	293.7926359176636	
63	275.3481299877167	fix_post	2		12	61.0	2.5	/experiments/AOT/AOT_stimuli/rescaled_final/1445_fw.mp4	0.0	295.1158459186554	0.10039806365966797
64	275.44852805137634	fix_pre	0		120	62.0	2.5	/experiments/AOT/AOT_stimuli/rescaled_final/0807_rv.mp4	0.0	295.21624398231506	0.9999880790710449
64	275.62366700172424	pulse	0	t		62.0	2.5	/experiments/AOT/AOT_stimuli/rescaled_final/0807_rv.mp4	0.0	295.39138293266296	
64	276.4485161304474	movie	1		243	62.0	2.5	/experiments/AOT/AOT_stimuli/rescaled_final/0807_rv.mp4	0.0	296.2162320613861	2.4999680519104004
64	277.2237231731415	pulse	1	t		62.0	2.5	/experiments/AOT/AOT_stimuli/rescaled_final/0807_rv.mp4	0.0	296.9914391040802	
64	278.830402135849	pulse	1	t		62.0	2.5	/experiments/AOT/AOT_stimuli/rescaled_final/0807_rv.mp4	0.0	298.5981180667877	
64	278.9484841823578	fix_post	2		12	62.0	2.5	/experiments/AOT/AOT_stimuli/rescaled_final/0807_rv.mp4	0.0	298.7162001132965	0.10010886192321777
65	279.048593044281	fix_pre	0		120	63.0	2.5	blank	1.0	298.8163089752197	0.9999709129333496
65	280.04856395721436	movie	1		300	63.0	2.5	blank	1.0	299.8162798881531	2.4999170303344727
65	280.42459297180176	pulse	1	t		63.0	2.5	blank	1.0	300.1923089027405	
65	282.02459597587585	pulse	1	t		63.0	2.5	blank	1.0	301.7923119068146	
65	282.5484809875488	fix_post	2		12	63.0	2.5	blank	1.0	302.31619691848755	0.10002708435058594
66	282.6485080718994	fix_pre	0		119	64.0	2.5	/experiments/AOT/AOT_stimuli/rescaled_final/0156_fw.mp4	0.0	302.41622400283813	0.9916820526123047
66	283.624498128891	pulse	0	t		64.0	2.5	/experiments/AOT/AOT_stimuli/rescaled_final/0156_fw.mp4	0.0	303.3922140598297	
66	283.6401901245117	movie	1		244	64.0	2.5	/experiments/AOT/AOT_stimuli/rescaled_final/0156_fw.mp4	0.0	303.40790605545044	2.5078659057617188
66	285.23174715042114	pulse	1	t		64.0	2.5	/experiments/AOT/AOT_stimuli/rescaled_final/0156_fw.mp4	0.0	304.99946308135986	
66	286.14805603027344	fix_post	2		12	64.0	2.5	/experiments/AOT/AOT_stimuli/rescaled_final/0156_fw.mp4	0.0	305.91577196121216	0.10039496421813965
67	286.2484509944916	fix_pre	0		120	65.0	2.5	/experiments/AOT/AOT_stimuli/rescaled_final/0602_rv.mp4	0.0	306.0161669254303	1.000054121017456
67	286.8244559764862	pulse	0	t		65.0	2.5	/experiments/AOT/AOT_stimuli/rescaled_final/0602_rv.mp4	0.0	306.5921719074249	
67	287.24850511550903	movie	1		244	65.0	2.5	/experiments/AOT/AOT_stimuli/rescaled_final/0602_rv.mp4	0.0	307.01622104644775	2.499940872192383
67	288.43212509155273	pulse	1	t		65.0	2.5	/experiments/AOT/AOT_stimuli/rescaled_final/0602_rv.mp4	0.0	308.19984102249146	
67	289.7484459877014	fix_post	2		12	65.0	2.5	/experiments/AOT/AOT_stimuli/rescaled_final/0602_rv.mp4	0.0	309.51616191864014	0.09962797164916992
68	289.8480739593506	fix_pre	0		120	66.0	2.5	/experiments/AOT/AOT_stimuli/rescaled_final/1355_fw.mp4	0.0	309.6157898902893	1.0004842281341553
68	290.0236699581146	pulse	0	t		66.0	2.5	/experiments/AOT/AOT_stimuli/rescaled_final/1355_fw.mp4	0.0	309.79138588905334	
68	290.84855818748474	movie	1		248	66.0	2.5	/experiments/AOT/AOT_stimuli/rescaled_final/1355_fw.mp4	0.0	310.61627411842346	2.4999828338623047
68	291.62411618232727	pulse	1	t		66.0	2.5	/experiments/AOT/AOT_stimuli/rescaled_final/1355_fw.mp4	0.0	311.391832113266	
68	293.2236750125885	pulse	1	t		66.0	2.5	/experiments/AOT/AOT_stimuli/rescaled_final/1355_fw.mp4	0.0	312.9913909435272	
68	293.34854102134705	fix_post	2		12	66.0	2.5	/experiments/AOT/AOT_stimuli/rescaled_final/1355_fw.mp4	0.0	313.11625695228577	0.10000300407409668
69	293.44854402542114	fix_pre	0		120	67.0	2.5	/experiments/AOT/AOT_stimuli/rescaled_final/0962_rv.mp4	0.0	313.21625995635986	0.999751091003418
69	294.44829511642456	movie	1		246	67.0	2.5	/experiments/AOT/AOT_stimuli/rescaled_final/0962_rv.mp4	0.0	314.2160110473633	2.5001230239868164
69	294.83139300346375	pulse	1	t		67.0	2.5	/experiments/AOT/AOT_stimuli/rescaled_final/0962_rv.mp4	0.0	314.59910893440247	
69	296.4245901107788	pulse	1	t		67.0	2.5	/experiments/AOT/AOT_stimuli/rescaled_final/0962_rv.mp4	0.0	316.19230604171753	
69	296.9484181404114	fix_post	2		12	67.0	2.5	/experiments/AOT/AOT_stimuli/rescaled_final/0962_rv.mp4	0.0	316.7161340713501	0.10005688667297363
70	297.04847502708435	fix_pre	0		119	68.0	2.5	blank	1.0	316.81619095802307	0.9917769432067871
70	298.0244221687317	pulse	0	t		68.0	2.5	blank	1.0	317.7921380996704	
70	298.04025197029114	movie	1		301	68.0	2.5	blank	1.0	317.80796790122986	2.508186101913452
70	299.62438106536865	pulse	1	t		68.0	2.5	blank	1.0	319.3920969963074	
70	300.5484380722046	fix_post	2		12	68.0	2.5	blank	1.0	320.3161540031433	0.10002899169921875
71	300.6484670639038	fix_pre	0		120	69.0	2.5	/experiments/AOT/AOT_stimuli/rescaled_final/1355_rv.mp4	0.0	320.41618299484253	0.9999759197235107
71	301.2243239879608	pulse	0	t		69.0	2.5	/experiments/AOT/AOT_stimuli/rescaled_final/1355_rv.mp4	0.0	320.99203991889954	
71	301.6484429836273	movie	1		246	69.0	2.5	/experiments/AOT/AOT_stimuli/rescaled_final/1355_rv.mp4	0.0	321.41615891456604	2.50003719329834
71	302.8247940540314	pulse	1	t		69.0	2.5	/experiments/AOT/AOT_stimuli/rescaled_final/1355_rv.mp4	0.0	322.5925099849701	
71	304.14848017692566	fix_post	2		12	69.0	2.5	/experiments/AOT/AOT_stimuli/rescaled_final/1355_rv.mp4	0.0	323.9161961078644	0.09992098808288574
72	304.24840116500854	fix_pre	0		120	70.0	2.5	/experiments/AOT/AOT_stimuli/rescaled_final/2006_rv.mp4	0.0	324.01611709594727	0.9999690055847168
72	304.42443203926086	pulse	0	t		70.0	2.5	/experiments/AOT/AOT_stimuli/rescaled_final/2006_rv.mp4	0.0	324.1921479701996	
72	305.24837017059326	movie	1		244	70.0	2.5	/experiments/AOT/AOT_stimuli/rescaled_final/2006_rv.mp4	0.0	325.016086101532	2.5
72	306.02445912361145	pulse	1	t		70.0	2.5	/experiments/AOT/AOT_stimuli/rescaled_final/2006_rv.mp4	0.0	325.79217505455017	
72	307.63043117523193	pulse	1	t		70.0	2.5	/experiments/AOT/AOT_stimuli/rescaled_final/2006_rv.mp4	0.0	327.39814710617065	
72	307.74837017059326	fix_post	2		12	70.0	2.5	/experiments/AOT/AOT_stimuli/rescaled_final/2006_rv.mp4	0.0	327.516086101532	0.10003495216369629
73	307.84840512275696	fix_pre	0		120	71.0	2.5	/experiments/AOT/AOT_stimuli/rescaled_final/1919_rv.mp4	0.0	327.6161210536957	0.9999709129333496
73	308.8483760356903	movie	1		246	71.0	2.5	/experiments/AOT/AOT_stimuli/rescaled_final/1919_rv.mp4	0.0	328.616091966629	2.5000410079956055
73	309.22351598739624	pulse	1	t		71.0	2.5	/experiments/AOT/AOT_stimuli/rescaled_final/1919_rv.mp4	0.0	328.99123191833496	
73	310.82356905937195	pulse	1	t		71.0	2.5	/experiments/AOT/AOT_stimuli/rescaled_final/1919_rv.mp4	0.0	330.59128499031067	
73	311.3484170436859	fix_post	2		12	71.0	2.5	/experiments/AOT/AOT_stimuli/rescaled_final/1919_rv.mp4	0.0	331.11613297462463	0.09988999366760254
74	311.4483070373535	fix_pre	0		119	72.0	2.5	/experiments/AOT/AOT_stimuli/rescaled_final/0544_rv.mp4	0.0	331.21602296829224	0.9916930198669434
74	312.42444801330566	pulse	0	t		72.0	2.5	/experiments/AOT/AOT_stimuli/rescaled_final/0544_rv.mp4	0.0	332.1921639442444	
74	312.44000005722046	movie	1		246	72.0	2.5	/experiments/AOT/AOT_stimuli/rescaled_final/0544_rv.mp4	0.0	332.2077159881592	2.5079100131988525
74	314.03143095970154	pulse	1	t		72.0	2.5	/experiments/AOT/AOT_stimuli/rescaled_final/0544_rv.mp4	0.0	333.79914689064026	
74	314.9479100704193	fix_post	2		12	72.0	2.5	/experiments/AOT/AOT_stimuli/rescaled_final/0544_rv.mp4	0.0	334.71562600135803	0.09999299049377441
75	315.0479030609131	fix_pre	0		120	73.0	2.5	/experiments/AOT/AOT_stimuli/rescaled_final/0945_fw.mp4	0.0	334.8156189918518	1.00040602684021
75	315.62437415122986	pulse	0	t		73.0	2.5	/experiments/AOT/AOT_stimuli/rescaled_final/0945_fw.mp4	0.0	335.3920900821686	
75	316.0483090877533	movie	1		245	73.0	2.5	/experiments/AOT/AOT_stimuli/rescaled_final/0945_fw.mp4	0.0	335.816025018692	2.5000929832458496
75	317.2319321632385	pulse	1	t		73.0	2.5	/experiments/AOT/AOT_stimuli/rescaled_final/0945_fw.mp4	0.0	336.99964809417725	
75	318.54840207099915	fix_post	2		12	73.0	2.5	/experiments/AOT/AOT_stimuli/rescaled_final/0945_fw.mp4	0.0	338.31611800193787	0.09997701644897461
76	318.6483790874481	fix_pre	0		120	74.0	2.5	/experiments/AOT/AOT_stimuli/rescaled_final/0544_fw.mp4	0.0	338.41609501838684	1.0000190734863281
76	318.8243200778961	pulse	0	t		74.0	2.5	/experiments/AOT/AOT_stimuli/rescaled_final/0544_fw.mp4	0.0	338.59203600883484	
76	319.64839816093445	movie	1		245	74.0	2.5	/experiments/AOT/AOT_stimuli/rescaled_final/0544_fw.mp4	0.0	339.41611409187317	2.4999148845672607
76	320.42442297935486	pulse	1	t		74.0	2.5	/experiments/AOT/AOT_stimuli/rescaled_final/0544_fw.mp4	0.0	340.1921389102936	
76	322.030513048172	pulse	1	t		74.0	2.5	/experiments/AOT/AOT_stimuli/rescaled_final/0544_fw.mp4	0.0	341.7982289791107	
76	322.1483130455017	fix_post	2		12	74.0	2.5	/experiments/AOT/AOT_stimuli/rescaled_final/0544_fw.mp4	0.0	341.91602897644043	0.09995508193969727
77	322.2482681274414	fix_pre	0		120	75.0	2.5	/experiments/AOT/AOT_stimuli/rescaled_final/0175_rv.mp4	0.0	342.0159840583801	0.9996109008789062
77	323.2478790283203	movie	1		244	75.0	2.5	/experiments/AOT/AOT_stimuli/rescaled_final/0175_rv.mp4	0.0	343.01559495925903	2.5000600814819336
77	323.6314001083374	pulse	1	t		75.0	2.5	/experiments/AOT/AOT_stimuli/rescaled_final/0175_rv.mp4	0.0	343.3991160392761	
77	325.22355008125305	pulse	1	t		75.0	2.5	/experiments/AOT/AOT_stimuli/rescaled_final/0175_rv.mp4	0.0	344.9912660121918	
77	325.74793910980225	fix_post	2		12	75.0	2.5	/experiments/AOT/AOT_stimuli/rescaled_final/0175_rv.mp4	0.0	345.51565504074097	0.09999990463256836
78	325.8479390144348	fix_pre	0		119	76.0	2.5	blank	1.0	345.61565494537354	0.9920861721038818
78	326.83183002471924	pulse	0	t		76.0	2.5	blank	1.0	346.59954595565796	
78	326.8400251865387	movie	1		301	76.0	2.5	blank	1.0	346.6077411174774	2.507903814315796
78	328.42420196533203	pulse	1	t		76.0	2.5	blank	1.0	348.19191789627075	
78	329.3479290008545	fix_post	2		12	76.0	2.5	blank	1.0	349.1156449317932	0.10034012794494629
79	329.44826912879944	fix_pre	0		120	77.0	2.5	/experiments/AOT/AOT_stimuli/rescaled_final/1495_fw.mp4	0.0	349.21598505973816	1.000011920928955
79	330.0242760181427	pulse	0	t		77.0	2.5	/experiments/AOT/AOT_stimuli/rescaled_final/1495_fw.mp4	0.0	349.7919919490814	
79	330.4482810497284	movie	1		244	77.0	2.5	/experiments/AOT/AOT_stimuli/rescaled_final/1495_fw.mp4	0.0	350.2159969806671	2.499974012374878
79	331.63190603256226	pulse	1	t		77.0	2.5	/experiments/AOT/AOT_stimuli/rescaled_final/1495_fw.mp4	0.0	351.399621963501	
79	332.94825506210327	fix_post	2		12	77.0	2.5	/experiments/AOT/AOT_stimuli/rescaled_final/1495_fw.mp4	0.0	352.715970993042	0.10001301765441895
80	333.0482680797577	fix_pre	0		120	78.0	2.5	/experiments/AOT/AOT_stimuli/rescaled_final/1506_rv.mp4	0.0	352.8159840106964	0.9999001026153564
80	333.2242920398712	pulse	0	t		78.0	2.5	/experiments/AOT/AOT_stimuli/rescaled_final/1506_rv.mp4	0.0	352.99200797080994	
80	334.04816818237305	movie	1		244	78.0	2.5	/experiments/AOT/AOT_stimuli/rescaled_final/1506_rv.mp4	0.0	353.81588411331177	2.5000648498535156
80	334.82440400123596	pulse	1	t		78.0	2.5	/experiments/AOT/AOT_stimuli/rescaled_final/1506_rv.mp4	0.0	354.5921199321747	
80	336.42986607551575	pulse	1	t		78.0	2.5	/experiments/AOT/AOT_stimuli/rescaled_final/1506_rv.mp4	0.0	356.19758200645447	
80	336.54823303222656	fix_post	2		12	78.0	2.5	/experiments/AOT/AOT_stimuli/rescaled_final/1506_rv.mp4	0.0	356.3159489631653	0.10008502006530762
81	336.64831805229187	fix_pre	0		120	79.0	2.5	/experiments/AOT/AOT_stimuli/rescaled_final/1547_rv.mp4	0.0	356.4160339832306	0.9999539852142334
81	337.6482720375061	movie	1		244	79.0	2.5	/experiments/AOT/AOT_stimuli/rescaled_final/1547_rv.mp4	0.0	357.4159879684448	2.5000431537628174
81	338.0314040184021	pulse	1	t		79.0	2.5	/experiments/AOT/AOT_stimuli/rescaled_final/1547_rv.mp4	0.0	357.7991199493408	
81	339.62435507774353	pulse	1	t		79.0	2.5	/experiments/AOT/AOT_stimuli/rescaled_final/1547_rv.mp4	0.0	359.39207100868225	
81	340.1483151912689	fix_post	2		12	79.0	2.5	/experiments/AOT/AOT_stimuli/rescaled_final/1547_rv.mp4	0.0	359.91603112220764	0.0998837947845459
82	340.24819898605347	fix_pre	0		119	80.0	2.5	/experiments/AOT/AOT_stimuli/rescaled_final/0861_fw.mp4	0.0	360.0159149169922	0.9916989803314209
82	341.22415804862976	pulse	0	t		80.0	2.5	/experiments/AOT/AOT_stimuli/rescaled_final/0861_fw.mp4	0.0	360.9918739795685	
82	341.2398979663849	movie	1		244	80.0	2.5	/experiments/AOT/AOT_stimuli/rescaled_final/0861_fw.mp4	0.0	361.0076138973236	2.5082881450653076
82	342.8319079875946	pulse	1	t		80.0	2.5	/experiments/AOT/AOT_stimuli/rescaled_final/0861_fw.mp4	0.0	362.5996239185333	
82	343.7481861114502	fix_post	2		12	80.0	2.5	/experiments/AOT/AOT_stimuli/rescaled_final/0861_fw.mp4	0.0	363.5159020423889	0.0996999740600586
83	343.84788608551025	fix_pre	0		120	81.0	2.5	/experiments/AOT/AOT_stimuli/rescaled_final/1919_fw.mp4	0.0	363.615602016449	1.000338077545166
83	344.4242889881134	pulse	0	t		81.0	2.5	/experiments/AOT/AOT_stimuli/rescaled_final/1919_fw.mp4	0.0	364.1920049190521	
83	344.8482241630554	movie	1		244	81.0	2.5	/experiments/AOT/AOT_stimuli/rescaled_final/1919_fw.mp4	0.0	364.61594009399414	2.4995949268341064
83	346.03188705444336	pulse	1	t		81.0	2.5	/experiments/AOT/AOT_stimuli/rescaled_final/1919_fw.mp4	0.0	365.7996029853821	
83	347.3478190898895	fix_post	2		12	81.0	2.5	/experiments/AOT/AOT_stimuli/rescaled_final/1919_fw.mp4	0.0	367.11553502082825	0.10033893585205078
84	347.4481580257416	fix_pre	0		120	82.0	2.5	/experiments/AOT/AOT_stimuli/rescaled_final/1483_fw.mp4	0.0	367.2158739566803	1.0001511573791504
84	347.6242561340332	pulse	0	t		82.0	2.5	/experiments/AOT/AOT_stimuli/rescaled_final/1483_fw.mp4	0.0	367.3919720649719	
84	348.4483091831207	movie	1		243	82.0	2.5	/experiments/AOT/AOT_stimuli/rescaled_final/1483_fw.mp4	0.0	368.21602511405945	2.4997777938842773
84	349.2242021560669	pulse	1	t		82.0	2.5	/experiments/AOT/AOT_stimuli/rescaled_final/1483_fw.mp4	0.0	368.9919180870056	
84	350.8298351764679	pulse	1	t		82.0	2.5	/experiments/AOT/AOT_stimuli/rescaled_final/1483_fw.mp4	0.0	370.5975511074066	
84	350.948086977005	fix_post	2		12	82.0	2.5	/experiments/AOT/AOT_stimuli/rescaled_final/1483_fw.mp4	0.0	370.7158029079437	0.1000511646270752
85	351.0481381416321	fix_pre	0		120	83.0	2.5	blank	1.0	370.8158540725708	0.9996638298034668
85	352.04780197143555	movie	1		300	83.0	2.5	blank	1.0	371.81551790237427	2.5004351139068604
85	352.42422103881836	pulse	1	t		83.0	2.5	blank	1.0	372.1919369697571	
85	354.02405405044556	pulse	1	t		83.0	2.5	blank	1.0	373.7917699813843	
85	354.5482370853424	fix_post	2		12	83.0	2.5	blank	1.0	374.3159530162811	0.09996294975280762
87	354.6482000350952	stim	0		1716					374.41591596603394	14.299965143203735
87	355.62425208091736	pulse	0	t						375.3919680118561	
87	357.2241270542145	pulse	0	t						376.9918429851532	
87	358.82418298721313	pulse	0	t						378.59189891815186	
87	360.4316110610962	pulse	0	t						380.1993269920349	
87	362.02412700653076	pulse	0	t						381.7918429374695	
87	363.62422919273376	pulse	0	t						383.3919451236725	
87	365.22417998313904	pulse	0	t						384.99189591407776	
87	366.82422399520874	pulse	0	t						386.59193992614746	
87	368.42418003082275	pulse	0	t						388.1918959617615	
