trial_nr	onset	event_type	phase	response	nr_frames	movie_index	movie_duration	movie_file	blank	onset_abs	duration
0	0.20816802978515625	stim	0		62					24.477957010269165	0.516732931137085
0	0.7167768478393555	response	0	space						24.986565828323364	
1	0.7249009609222412	stim	0		4947					24.99468994140625	41.2434720993042
1	41.95322299003601	pulse	0	t						66.22301197052002	
1	41.96837306022644	stim	1		1715					66.23816204071045	14.298168897628784
1	43.54810190200806	pulse	1	t						67.81789088249207	
1	45.148454904556274	pulse	1	t						69.41824388504028	
1	46.748477935791016	pulse	1	t						71.01826691627502	
1	48.34878492355347	pulse	1	t						72.61857390403748	
1	49.94897794723511	pulse	1	t						74.21876692771912	
1	51.54926085472107	pulse	1	t						75.81904983520508	
1	53.14941692352295	pulse	1	t						77.41920590400696	
1	54.749825954437256	pulse	1	t						79.01961493492126	
2	56.266541957855225	fix_pre	0		11	0.0	2.5	/experiments/knapen_AOT/AOT_stimuli/rescaled_final/0524_fw.mp4	0.0	80.53633093833923	0.09166693687438965
2	56.349945068359375	pulse	0	t		0.0	2.5	/experiments/knapen_AOT/AOT_stimuli/rescaled_final/0524_fw.mp4	0.0	80.61973404884338	
2	56.358208894729614	movie	1		242	0.0	2.5	/experiments/knapen_AOT/AOT_stimuli/rescaled_final/0524_fw.mp4	0.0	80.62799787521362	2.508646011352539
2	57.95077085494995	pulse	1	t		0.0	2.5	/experiments/knapen_AOT/AOT_stimuli/rescaled_final/0524_fw.mp4	0.0	82.22055983543396	
2	58.86685490608215	fix_post	2		12	0.0	2.5	/experiments/knapen_AOT/AOT_stimuli/rescaled_final/0524_fw.mp4	0.0	83.13664388656616	0.10001397132873535
3	58.96686887741089	fix_pre	0		120	1.0	2.5	/experiments/knapen_AOT/AOT_stimuli/rescaled_final/1562_fw.mp4	0.0	83.2366578578949	1.00018310546875
3	59.550508975982666	pulse	0	t		1.0	2.5	/experiments/knapen_AOT/AOT_stimuli/rescaled_final/1562_fw.mp4	0.0	83.82029795646667	
3	59.96705198287964	movie	1		244	1.0	2.5	/experiments/knapen_AOT/AOT_stimuli/rescaled_final/1562_fw.mp4	0.0	84.23684096336365	2.5003368854522705
3	61.150956869125366	pulse	1	t		1.0	2.5	/experiments/knapen_AOT/AOT_stimuli/rescaled_final/1562_fw.mp4	0.0	85.42074584960938	
3	62.46738886833191	fix_post	2		12	1.0	2.5	/experiments/knapen_AOT/AOT_stimuli/rescaled_final/1562_fw.mp4	0.0	86.73717784881592	0.10001015663146973
4	62.56739902496338	fix_pre	0		120	2.0	2.5	/experiments/knapen_AOT/AOT_stimuli/rescaled_final/0192_rv.mp4	0.0	86.83718800544739	1.0001640319824219
4	62.75099205970764	pulse	0	t		2.0	2.5	/experiments/knapen_AOT/AOT_stimuli/rescaled_final/0192_rv.mp4	0.0	87.02078104019165	
4	63.5675630569458	movie	1		246	2.0	2.5	/experiments/knapen_AOT/AOT_stimuli/rescaled_final/0192_rv.mp4	0.0	87.83735203742981	2.5003788471221924
4	64.35127592086792	pulse	1	t		2.0	2.5	/experiments/knapen_AOT/AOT_stimuli/rescaled_final/0192_rv.mp4	0.0	88.62106490135193	
4	65.9514389038086	pulse	1	t		2.0	2.5	/experiments/knapen_AOT/AOT_stimuli/rescaled_final/0192_rv.mp4	0.0	90.2212278842926	
4	66.067941904068	fix_post	2		12	2.0	2.5	/experiments/knapen_AOT/AOT_stimuli/rescaled_final/0192_rv.mp4	0.0	90.337730884552	0.10003113746643066
5	66.16797304153442	fix_pre	0		120	3.0	2.5	/experiments/knapen_AOT/AOT_stimuli/rescaled_final/1168_fw.mp4	0.0	90.43776202201843	1.0001749992370605
5	67.16814804077148	movie	1		244	3.0	2.5	/experiments/knapen_AOT/AOT_stimuli/rescaled_final/1168_fw.mp4	0.0	91.4379370212555	2.4920268058776855
5	67.55659985542297	pulse	1	t		3.0	2.5	/experiments/knapen_AOT/AOT_stimuli/rescaled_final/1168_fw.mp4	0.0	91.82638883590698	
5	69.15202784538269	pulse	1	t		3.0	2.5	/experiments/knapen_AOT/AOT_stimuli/rescaled_final/1168_fw.mp4	0.0	93.4218168258667	
5	69.66017484664917	fix_post	2		12	3.0	2.5	/experiments/knapen_AOT/AOT_stimuli/rescaled_final/1168_fw.mp4	0.0	93.92996382713318	0.10001015663146973
6	69.76018500328064	fix_pre	0		120	4.0	2.5	/experiments/knapen_AOT/AOT_stimuli/rescaled_final/1405_rv.mp4	0.0	94.02997398376465	1.0001039505004883
6	70.75216293334961	pulse	0	t		4.0	2.5	/experiments/knapen_AOT/AOT_stimuli/rescaled_final/1405_rv.mp4	0.0	95.02195191383362	
6	70.76028895378113	movie	1		246	4.0	2.5	/experiments/knapen_AOT/AOT_stimuli/rescaled_final/1405_rv.mp4	0.0	95.03007793426514	2.508730888366699
6	72.35282707214355	pulse	1	t		4.0	2.5	/experiments/knapen_AOT/AOT_stimuli/rescaled_final/1405_rv.mp4	0.0	96.62261605262756	
6	73.26901984214783	fix_post	2		12	4.0	2.5	/experiments/knapen_AOT/AOT_stimuli/rescaled_final/1405_rv.mp4	0.0	97.53880882263184	0.1000220775604248
7	73.36904191970825	fix_pre	0		120	5.0	2.5	blank	1.0	97.63883090019226	1.0001420974731445
7	73.95267295837402	pulse	0	t		5.0	2.5	blank	1.0	98.22246193885803	
7	74.3691840171814	movie	1		300	5.0	2.5	blank	1.0	98.6389729976654	2.5003459453582764
7	75.552973985672	pulse	1	t		5.0	2.5	blank	1.0	99.822762966156	
7	76.86952996253967	fix_post	2		12	5.0	2.5	blank	1.0	101.13931894302368	0.10011100769042969
8	76.9696409702301	fix_pre	0		120	6.0	2.5	/experiments/knapen_AOT/AOT_stimuli/rescaled_final/1446_fw.mp4	0.0	101.23942995071411	1.000087022781372
8	77.15314888954163	pulse	0	t		6.0	2.5	/experiments/knapen_AOT/AOT_stimuli/rescaled_final/1446_fw.mp4	0.0	101.42293787002563	
8	77.96972799301147	movie	1		244	6.0	2.5	/experiments/knapen_AOT/AOT_stimuli/rescaled_final/1446_fw.mp4	0.0	102.23951697349548	2.5003490447998047
8	78.75336003303528	pulse	1	t		6.0	2.5	/experiments/knapen_AOT/AOT_stimuli/rescaled_final/1446_fw.mp4	0.0	103.02314901351929	
8	80.35365891456604	pulse	1	t		6.0	2.5	/experiments/knapen_AOT/AOT_stimuli/rescaled_final/1446_fw.mp4	0.0	104.62344789505005	
8	80.47007703781128	fix_post	2		12	6.0	2.5	/experiments/knapen_AOT/AOT_stimuli/rescaled_final/1446_fw.mp4	0.0	104.73986601829529	0.10007095336914062
9	80.57014799118042	fix_pre	0		119	7.0	2.5	/experiments/knapen_AOT/AOT_stimuli/rescaled_final/0490_fw.mp4	0.0	104.83993697166443	0.9918179512023926
9	81.56196594238281	movie	1		244	7.0	2.5	/experiments/knapen_AOT/AOT_stimuli/rescaled_final/0490_fw.mp4	0.0	105.83175492286682	2.5003139972686768
9	81.95398902893066	pulse	1	t		7.0	2.5	/experiments/knapen_AOT/AOT_stimuli/rescaled_final/0490_fw.mp4	0.0	106.22377800941467	
9	83.55410099029541	pulse	1	t		7.0	2.5	/experiments/knapen_AOT/AOT_stimuli/rescaled_final/0490_fw.mp4	0.0	107.82388997077942	
9	84.06227993965149	fix_post	2		12	7.0	2.5	/experiments/knapen_AOT/AOT_stimuli/rescaled_final/0490_fw.mp4	0.0	108.3320689201355	0.10002803802490234
10	84.16230797767639	fix_pre	0		119	8.0	2.5	/experiments/knapen_AOT/AOT_stimuli/rescaled_final/2166_fw.mp4	0.0	108.4320969581604	1.0001890659332275
10	85.15430998802185	pulse	0	t		8.0	2.5	/experiments/knapen_AOT/AOT_stimuli/rescaled_final/2166_fw.mp4	0.0	109.42409896850586	
10	85.16249704360962	movie	1		245	8.0	2.5	/experiments/knapen_AOT/AOT_stimuli/rescaled_final/2166_fw.mp4	0.0	109.43228602409363	2.508659839630127
10	86.7556779384613	pulse	1	t		8.0	2.5	/experiments/knapen_AOT/AOT_stimuli/rescaled_final/2166_fw.mp4	0.0	111.02546691894531	
10	87.67115688323975	fix_post	2		12	8.0	2.5	/experiments/knapen_AOT/AOT_stimuli/rescaled_final/2166_fw.mp4	0.0	111.94094586372375	0.10003399848937988
11	87.77119088172913	fix_pre	0		120	9.0	2.5	/experiments/knapen_AOT/AOT_stimuli/rescaled_final/1202_rv.mp4	0.0	112.04097986221313	1.0001499652862549
11	88.35476684570312	pulse	0	t		9.0	2.5	/experiments/knapen_AOT/AOT_stimuli/rescaled_final/1202_rv.mp4	0.0	112.62455582618713	
11	88.77134084701538	movie	1		244	9.0	2.5	/experiments/knapen_AOT/AOT_stimuli/rescaled_final/1202_rv.mp4	0.0	113.04112982749939	2.500373125076294
11	89.95522689819336	pulse	1	t		9.0	2.5	/experiments/knapen_AOT/AOT_stimuli/rescaled_final/1202_rv.mp4	0.0	114.22501587867737	
11	91.27171397209167	fix_post	2		12	9.0	2.5	/experiments/knapen_AOT/AOT_stimuli/rescaled_final/1202_rv.mp4	0.0	115.54150295257568	0.09999990463256836
12	91.37171387672424	fix_pre	0		120	10.0	2.5	/experiments/knapen_AOT/AOT_stimuli/rescaled_final/1349_rv.mp4	0.0	115.64150285720825	1.0002081394195557
12	91.55531692504883	pulse	0	t		10.0	2.5	/experiments/knapen_AOT/AOT_stimuli/rescaled_final/1349_rv.mp4	0.0	115.82510590553284	
12	92.3719220161438	movie	1		244	10.0	2.5	/experiments/knapen_AOT/AOT_stimuli/rescaled_final/1349_rv.mp4	0.0	116.64171099662781	2.500324010848999
12	93.14816284179688	pulse	1	t		10.0	2.5	/experiments/knapen_AOT/AOT_stimuli/rescaled_final/1349_rv.mp4	0.0	117.41795182228088	
12	94.75569987297058	pulse	1	t		10.0	2.5	/experiments/knapen_AOT/AOT_stimuli/rescaled_final/1349_rv.mp4	0.0	119.02548885345459	
12	94.8722460269928	fix_post	2		12	10.0	2.5	/experiments/knapen_AOT/AOT_stimuli/rescaled_final/1349_rv.mp4	0.0	119.1420350074768	0.1000068187713623
13	94.97225284576416	fix_pre	0		119	11.0	2.5	/experiments/knapen_AOT/AOT_stimuli/rescaled_final/1419_fw.mp4	0.0	119.24204182624817	0.9918642044067383
13	95.9641170501709	movie	1		244	11.0	2.5	/experiments/knapen_AOT/AOT_stimuli/rescaled_final/1419_fw.mp4	0.0	120.23390603065491	2.500321865081787
13	96.35620594024658	pulse	1	t		11.0	2.5	/experiments/knapen_AOT/AOT_stimuli/rescaled_final/1419_fw.mp4	0.0	120.62599492073059	
13	97.94886302947998	pulse	1	t		11.0	2.5	/experiments/knapen_AOT/AOT_stimuli/rescaled_final/1419_fw.mp4	0.0	122.21865200996399	
13	98.46443891525269	fix_post	2		12	11.0	2.5	/experiments/knapen_AOT/AOT_stimuli/rescaled_final/1419_fw.mp4	0.0	122.7342278957367	0.10003113746643066
14	98.56447005271912	fix_pre	0		119	12.0	2.5	/experiments/knapen_AOT/AOT_stimuli/rescaled_final/1939_rv.mp4	0.0	122.83425903320312	0.9917938709259033
14	99.54824805259705	pulse	0	t		12.0	2.5	/experiments/knapen_AOT/AOT_stimuli/rescaled_final/1939_rv.mp4	0.0	123.81803703308105	
14	99.55626392364502	movie	1		245	12.0	2.5	/experiments/knapen_AOT/AOT_stimuli/rescaled_final/1939_rv.mp4	0.0	123.82605290412903	2.5087249279022217
14	101.15290784835815	pulse	1	t		12.0	2.5	/experiments/knapen_AOT/AOT_stimuli/rescaled_final/1939_rv.mp4	0.0	125.42269682884216	
14	102.06498885154724	fix_post	2		12	12.0	2.5	/experiments/knapen_AOT/AOT_stimuli/rescaled_final/1939_rv.mp4	0.0	126.33477783203125	0.10001516342163086
15	102.16500401496887	fix_pre	0		120	13.0	2.5	blank	1.0	126.43479299545288	1.0001819133758545
15	102.74854898452759	pulse	0	t		13.0	2.5	blank	1.0	127.0183379650116	
15	103.16518592834473	movie	1		300	13.0	2.5	blank	1.0	127.43497490882874	2.5003409385681152
15	104.34883689880371	pulse	1	t		13.0	2.5	blank	1.0	128.61862587928772	
15	105.66552686691284	fix_post	2		12	13.0	2.5	blank	1.0	129.93531584739685	0.09998703002929688
16	105.76551389694214	fix_pre	0		120	14.0	2.5	/experiments/knapen_AOT/AOT_stimuli/rescaled_final/1713_fw.mp4	0.0	130.03530287742615	1.000195026397705
16	105.94920301437378	pulse	0	t		14.0	2.5	/experiments/knapen_AOT/AOT_stimuli/rescaled_final/1713_fw.mp4	0.0	130.2189919948578	
16	106.76570892333984	movie	1		244	14.0	2.5	/experiments/knapen_AOT/AOT_stimuli/rescaled_final/1713_fw.mp4	0.0	131.03549790382385	2.500365972518921
16	107.54941201210022	pulse	1	t		14.0	2.5	/experiments/knapen_AOT/AOT_stimuli/rescaled_final/1713_fw.mp4	0.0	131.81920099258423	
16	109.14965796470642	pulse	1	t		14.0	2.5	/experiments/knapen_AOT/AOT_stimuli/rescaled_final/1713_fw.mp4	0.0	133.41944694519043	
16	109.26607489585876	fix_post	2		12	14.0	2.5	/experiments/knapen_AOT/AOT_stimuli/rescaled_final/1713_fw.mp4	0.0	133.53586387634277	0.1000220775604248
17	109.36609697341919	fix_pre	0		120	15.0	2.5	/experiments/knapen_AOT/AOT_stimuli/rescaled_final/1142_fw.mp4	0.0	133.6358859539032	1.0001180171966553
17	110.36621499061584	movie	1		244	15.0	2.5	/experiments/knapen_AOT/AOT_stimuli/rescaled_final/1142_fw.mp4	0.0	134.63600397109985	2.4920339584350586
17	110.7510118484497	pulse	1	t		15.0	2.5	/experiments/knapen_AOT/AOT_stimuli/rescaled_final/1142_fw.mp4	0.0	135.02080082893372	
17	112.34999990463257	pulse	1	t		15.0	2.5	/experiments/knapen_AOT/AOT_stimuli/rescaled_final/1142_fw.mp4	0.0	136.61978888511658	
17	112.8582489490509	fix_post	2		12	15.0	2.5	/experiments/knapen_AOT/AOT_stimuli/rescaled_final/1142_fw.mp4	0.0	137.1280379295349	0.10000991821289062
18	112.9582588672638	fix_pre	0		120	16.0	2.5	/experiments/knapen_AOT/AOT_stimuli/rescaled_final/1711_rv.mp4	0.0	137.2280478477478	1.000148057937622
18	113.95034098625183	pulse	0	t		16.0	2.5	/experiments/knapen_AOT/AOT_stimuli/rescaled_final/1711_rv.mp4	0.0	138.22012996673584	
18	113.95840692520142	movie	1		245	16.0	2.5	/experiments/knapen_AOT/AOT_stimuli/rescaled_final/1711_rv.mp4	0.0	138.22819590568542	2.5087101459503174
18	115.5509078502655	pulse	1	t		16.0	2.5	/experiments/knapen_AOT/AOT_stimuli/rescaled_final/1711_rv.mp4	0.0	139.8206968307495	
18	116.46711707115173	fix_post	2		12	16.0	2.5	/experiments/knapen_AOT/AOT_stimuli/rescaled_final/1711_rv.mp4	0.0	140.73690605163574	0.10012197494506836
19	116.5672390460968	fix_pre	0		120	17.0	2.5	/experiments/knapen_AOT/AOT_stimuli/rescaled_final/1031_fw.mp4	0.0	140.8370280265808	1.0000908374786377
19	117.1508059501648	pulse	0	t		17.0	2.5	/experiments/knapen_AOT/AOT_stimuli/rescaled_final/1031_fw.mp4	0.0	141.4205949306488	
19	117.56732988357544	movie	1		245	17.0	2.5	/experiments/knapen_AOT/AOT_stimuli/rescaled_final/1031_fw.mp4	0.0	141.83711886405945	2.500326156616211
19	118.75119185447693	pulse	1	t		17.0	2.5	/experiments/knapen_AOT/AOT_stimuli/rescaled_final/1031_fw.mp4	0.0	143.02098083496094	
19	120.06765604019165	fix_post	2		12	17.0	2.5	/experiments/knapen_AOT/AOT_stimuli/rescaled_final/1031_fw.mp4	0.0	144.33744502067566	0.10000395774841309
20	120.16765999794006	fix_pre	0		120	18.0	2.5	/experiments/knapen_AOT/AOT_stimuli/rescaled_final/0367_rv.mp4	0.0	144.43744897842407	1.0001778602600098
20	120.35130596160889	pulse	0	t		18.0	2.5	/experiments/knapen_AOT/AOT_stimuli/rescaled_final/0367_rv.mp4	0.0	144.6210949420929	
20	121.16783785820007	movie	1		244	18.0	2.5	/experiments/knapen_AOT/AOT_stimuli/rescaled_final/0367_rv.mp4	0.0	145.43762683868408	2.5003821849823
20	121.95151591300964	pulse	1	t		18.0	2.5	/experiments/knapen_AOT/AOT_stimuli/rescaled_final/0367_rv.mp4	0.0	146.22130489349365	
20	123.54921984672546	pulse	1	t		18.0	2.5	/experiments/knapen_AOT/AOT_stimuli/rescaled_final/0367_rv.mp4	0.0	147.81900882720947	
20	123.66822004318237	fix_post	2		12	18.0	2.5	/experiments/knapen_AOT/AOT_stimuli/rescaled_final/0367_rv.mp4	0.0	147.93800902366638	0.0999917984008789
21	123.76821184158325	fix_pre	0		120	19.0	2.5	/experiments/knapen_AOT/AOT_stimuli/rescaled_final/0402_fw.mp4	0.0	148.03800082206726	1.000209093093872
21	124.76842093467712	movie	1		243	19.0	2.5	/experiments/knapen_AOT/AOT_stimuli/rescaled_final/0402_fw.mp4	0.0	149.03820991516113	2.491997003555298
21	125.15254998207092	pulse	1	t		19.0	2.5	/experiments/knapen_AOT/AOT_stimuli/rescaled_final/0402_fw.mp4	0.0	149.42233896255493	
21	126.75230002403259	pulse	1	t		19.0	2.5	/experiments/knapen_AOT/AOT_stimuli/rescaled_final/0402_fw.mp4	0.0	151.0220890045166	
21	127.26041793823242	fix_post	2		12	19.0	2.5	/experiments/knapen_AOT/AOT_stimuli/rescaled_final/0402_fw.mp4	0.0	151.53020691871643	0.10003805160522461
22	127.36045598983765	fix_pre	0		120	20.0	2.5	blank	1.0	151.63024497032166	1.000135898590088
22	128.3523919582367	pulse	0	t		20.0	2.5	blank	1.0	152.6221809387207	
22	128.36059188842773	movie	1		301	20.0	2.5	blank	1.0	152.63038086891174	2.5086820125579834
22	129.95264291763306	pulse	1	t		20.0	2.5	blank	1.0	154.22243189811707	
22	130.86927390098572	fix_post	2		12	20.0	2.5	blank	1.0	155.13906288146973	0.10004115104675293
23	130.96931505203247	fix_pre	0		120	21.0	2.5	/experiments/knapen_AOT/AOT_stimuli/rescaled_final/1805_rv.mp4	0.0	155.23910403251648	1.0001378059387207
23	131.55290293693542	pulse	0	t		21.0	2.5	/experiments/knapen_AOT/AOT_stimuli/rescaled_final/1805_rv.mp4	0.0	155.82269191741943	
23	131.9694528579712	movie	1		245	21.0	2.5	/experiments/knapen_AOT/AOT_stimuli/rescaled_final/1805_rv.mp4	0.0	156.2392418384552	2.500425100326538
23	133.1533238887787	pulse	1	t		21.0	2.5	/experiments/knapen_AOT/AOT_stimuli/rescaled_final/1805_rv.mp4	0.0	157.4231128692627	
23	134.46987795829773	fix_post	2		12	21.0	2.5	/experiments/knapen_AOT/AOT_stimuli/rescaled_final/1805_rv.mp4	0.0	158.73966693878174	0.0999760627746582
24	134.5698540210724	fix_pre	0		120	22.0	2.5	/experiments/knapen_AOT/AOT_stimuli/rescaled_final/0294_rv.mp4	0.0	158.8396430015564	1.000128984451294
24	134.75346302986145	pulse	0	t		22.0	2.5	/experiments/knapen_AOT/AOT_stimuli/rescaled_final/0294_rv.mp4	0.0	159.02325201034546	
24	135.56998300552368	movie	1		241	22.0	2.5	/experiments/knapen_AOT/AOT_stimuli/rescaled_final/0294_rv.mp4	0.0	159.8397719860077	2.500386953353882
24	136.35377883911133	pulse	1	t		22.0	2.5	/experiments/knapen_AOT/AOT_stimuli/rescaled_final/0294_rv.mp4	0.0	160.62356781959534	
24	137.95391988754272	pulse	1	t		22.0	2.5	/experiments/knapen_AOT/AOT_stimuli/rescaled_final/0294_rv.mp4	0.0	162.22370886802673	
24	138.07036995887756	fix_post	2		12	22.0	2.5	/experiments/knapen_AOT/AOT_stimuli/rescaled_final/0294_rv.mp4	0.0	162.34015893936157	0.09998703002929688
25	138.17035698890686	fix_pre	0		120	23.0	2.5	/experiments/knapen_AOT/AOT_stimuli/rescaled_final/1773_rv.mp4	0.0	162.44014596939087	1.000274896621704
25	139.17063188552856	movie	1		243	23.0	2.5	/experiments/knapen_AOT/AOT_stimuli/rescaled_final/1773_rv.mp4	0.0	163.44042086601257	2.4919650554656982
25	139.5547649860382	pulse	1	t		23.0	2.5	/experiments/knapen_AOT/AOT_stimuli/rescaled_final/1773_rv.mp4	0.0	163.82455396652222	
25	141.15436601638794	pulse	1	t		23.0	2.5	/experiments/knapen_AOT/AOT_stimuli/rescaled_final/1773_rv.mp4	0.0	165.42415499687195	
25	141.66259694099426	fix_post	2		12	23.0	2.5	/experiments/knapen_AOT/AOT_stimuli/rescaled_final/1773_rv.mp4	0.0	165.93238592147827	0.10002613067626953
26	141.76262307167053	fix_pre	0		120	24.0	2.5	/experiments/knapen_AOT/AOT_stimuli/rescaled_final/0405_fw.mp4	0.0	166.03241205215454	1.000112771987915
26	142.75454807281494	pulse	0	t		24.0	2.5	/experiments/knapen_AOT/AOT_stimuli/rescaled_final/0405_fw.mp4	0.0	167.02433705329895	
26	142.76273584365845	movie	1		244	24.0	2.5	/experiments/knapen_AOT/AOT_stimuli/rescaled_final/0405_fw.mp4	0.0	167.03252482414246	2.508772134780884
26	144.35534286499023	pulse	1	t		24.0	2.5	/experiments/knapen_AOT/AOT_stimuli/rescaled_final/0405_fw.mp4	0.0	168.62513184547424	
26	145.27150797843933	fix_post	2		12	24.0	2.5	/experiments/knapen_AOT/AOT_stimuli/rescaled_final/0405_fw.mp4	0.0	169.54129695892334	0.09997892379760742
27	145.37148690223694	fix_pre	0		120	25.0	2.5	/experiments/knapen_AOT/AOT_stimuli/rescaled_final/1321_rv.mp4	0.0	169.64127588272095	1.000180959701538
27	145.9550540447235	pulse	0	t		25.0	2.5	/experiments/knapen_AOT/AOT_stimuli/rescaled_final/1321_rv.mp4	0.0	170.22484302520752	
27	146.37166786193848	movie	1		245	25.0	2.5	/experiments/knapen_AOT/AOT_stimuli/rescaled_final/1321_rv.mp4	0.0	170.64145684242249	2.5003151893615723
27	147.55542492866516	pulse	1	t		25.0	2.5	/experiments/knapen_AOT/AOT_stimuli/rescaled_final/1321_rv.mp4	0.0	171.82521390914917	
27	148.87198305130005	fix_post	2		12	25.0	2.5	/experiments/knapen_AOT/AOT_stimuli/rescaled_final/1321_rv.mp4	0.0	173.14177203178406	0.09999394416809082
28	148.97197699546814	fix_pre	0		120	26.0	2.5	blank	1.0	173.24176597595215	1.0002000331878662
28	149.14802193641663	pulse	0	t		26.0	2.5	blank	1.0	173.41781091690063	
28	149.972177028656	movie	1		300	26.0	2.5	blank	1.0	174.24196600914001	2.5003700256347656
28	150.74824905395508	pulse	1	t		26.0	2.5	blank	1.0	175.0180380344391	
28	152.34842085838318	pulse	1	t		26.0	2.5	blank	1.0	176.6182098388672	
28	152.47254705429077	fix_post	2		12	26.0	2.5	blank	1.0	176.74233603477478	0.09996700286865234
29	152.57251405715942	fix_pre	0		120	27.0	2.5	/experiments/knapen_AOT/AOT_stimuli/rescaled_final/0924_fw.mp4	0.0	176.84230303764343	1.0002539157867432
29	153.57276797294617	movie	1		243	27.0	2.5	/experiments/knapen_AOT/AOT_stimuli/rescaled_final/0924_fw.mp4	0.0	177.84255695343018	2.492002010345459
29	153.94796895980835	pulse	1	t		27.0	2.5	/experiments/knapen_AOT/AOT_stimuli/rescaled_final/0924_fw.mp4	0.0	178.21775794029236	
29	155.54820084571838	pulse	1	t		27.0	2.5	/experiments/knapen_AOT/AOT_stimuli/rescaled_final/0924_fw.mp4	0.0	179.8179898262024	
29	156.06476998329163	fix_post	2		12	27.0	2.5	/experiments/knapen_AOT/AOT_stimuli/rescaled_final/0924_fw.mp4	0.0	180.33455896377563	0.10004496574401855
30	156.16481494903564	fix_pre	0		119	28.0	2.5	/experiments/knapen_AOT/AOT_stimuli/rescaled_final/1820_rv.mp4	0.0	180.43460392951965	0.991811990737915
30	157.1483678817749	pulse	0	t		28.0	2.5	/experiments/knapen_AOT/AOT_stimuli/rescaled_final/1820_rv.mp4	0.0	181.4181568622589	
30	157.15662693977356	movie	1		245	28.0	2.5	/experiments/knapen_AOT/AOT_stimuli/rescaled_final/1820_rv.mp4	0.0	181.42641592025757	2.5086441040039062
30	158.74939584732056	pulse	1	t		28.0	2.5	/experiments/knapen_AOT/AOT_stimuli/rescaled_final/1820_rv.mp4	0.0	183.01918482780457	
30	159.66527104377747	fix_post	2		12	28.0	2.5	/experiments/knapen_AOT/AOT_stimuli/rescaled_final/1820_rv.mp4	0.0	183.93506002426147	0.10000300407409668
31	159.76527404785156	fix_pre	0		120	29.0	2.5	/experiments/knapen_AOT/AOT_stimuli/rescaled_final/0093_rv.mp4	0.0	184.03506302833557	1.0001540184020996
31	160.34901785850525	pulse	0	t		29.0	2.5	/experiments/knapen_AOT/AOT_stimuli/rescaled_final/0093_rv.mp4	0.0	184.61880683898926	
31	160.76542806625366	movie	1		244	29.0	2.5	/experiments/knapen_AOT/AOT_stimuli/rescaled_final/0093_rv.mp4	0.0	185.03521704673767	2.5004239082336426
31	161.9492108821869	pulse	1	t		29.0	2.5	/experiments/knapen_AOT/AOT_stimuli/rescaled_final/0093_rv.mp4	0.0	186.2189998626709	
31	163.2658519744873	fix_post	2		12	29.0	2.5	/experiments/knapen_AOT/AOT_stimuli/rescaled_final/0093_rv.mp4	0.0	187.5356409549713	0.09997391700744629
32	163.36582589149475	fix_pre	0		120	30.0	2.5	/experiments/knapen_AOT/AOT_stimuli/rescaled_final/0860_fw.mp4	0.0	187.63561487197876	1.000133991241455
32	163.54929184913635	pulse	0	t		30.0	2.5	/experiments/knapen_AOT/AOT_stimuli/rescaled_final/0860_fw.mp4	0.0	187.81908082962036	
32	164.3659598827362	movie	1		244	30.0	2.5	/experiments/knapen_AOT/AOT_stimuli/rescaled_final/0860_fw.mp4	0.0	188.63574886322021	2.5003490447998047
32	165.1495499610901	pulse	1	t		30.0	2.5	/experiments/knapen_AOT/AOT_stimuli/rescaled_final/0860_fw.mp4	0.0	189.4193389415741	
32	166.74992203712463	pulse	1	t		30.0	2.5	/experiments/knapen_AOT/AOT_stimuli/rescaled_final/0860_fw.mp4	0.0	191.01971101760864	
32	166.866308927536	fix_post	2		12	30.0	2.5	/experiments/knapen_AOT/AOT_stimuli/rescaled_final/0860_fw.mp4	0.0	191.13609790802002	0.10001611709594727
33	166.96632504463196	fix_pre	0		119	31.0	2.5	/experiments/knapen_AOT/AOT_stimuli/rescaled_final/0315_rv.mp4	0.0	191.23611402511597	0.9918408393859863
33	167.95816588401794	movie	1		245	31.0	2.5	/experiments/knapen_AOT/AOT_stimuli/rescaled_final/0315_rv.mp4	0.0	192.22795486450195	2.500365972518921
33	168.35020899772644	pulse	1	t		31.0	2.5	/experiments/knapen_AOT/AOT_stimuli/rescaled_final/0315_rv.mp4	0.0	192.61999797821045	
33	169.95032000541687	pulse	1	t		31.0	2.5	/experiments/knapen_AOT/AOT_stimuli/rescaled_final/0315_rv.mp4	0.0	194.22010898590088	
33	170.45853185653687	fix_post	2		12	31.0	2.5	/experiments/knapen_AOT/AOT_stimuli/rescaled_final/0315_rv.mp4	0.0	194.72832083702087	0.10000014305114746
34	170.558531999588	fix_pre	0		120	32.0	2.5	/experiments/knapen_AOT/AOT_stimuli/rescaled_final/2146_fw.mp4	0.0	194.82832098007202	1.000148057937622
34	171.550616979599	pulse	0	t		32.0	2.5	/experiments/knapen_AOT/AOT_stimuli/rescaled_final/2146_fw.mp4	0.0	195.820405960083	
34	171.55868005752563	movie	1		245	32.0	2.5	/experiments/knapen_AOT/AOT_stimuli/rescaled_final/2146_fw.mp4	0.0	195.82846903800964	2.50870680809021
34	173.15126705169678	pulse	1	t		32.0	2.5	/experiments/knapen_AOT/AOT_stimuli/rescaled_final/2146_fw.mp4	0.0	197.4210560321808	
34	174.06738686561584	fix_post	2		12	32.0	2.5	/experiments/knapen_AOT/AOT_stimuli/rescaled_final/2146_fw.mp4	0.0	198.33717584609985	0.10004210472106934
35	174.1674289703369	fix_pre	0		120	33.0	2.5	/experiments/knapen_AOT/AOT_stimuli/rescaled_final/1540_fw.mp4	0.0	198.43721795082092	1.0001220703125
35	174.7511110305786	pulse	0	t		33.0	2.5	/experiments/knapen_AOT/AOT_stimuli/rescaled_final/1540_fw.mp4	0.0	199.02090001106262	
35	175.1675510406494	movie	1		245	33.0	2.5	/experiments/knapen_AOT/AOT_stimuli/rescaled_final/1540_fw.mp4	0.0	199.43734002113342	2.5004568099975586
35	176.3514268398285	pulse	1	t		33.0	2.5	/experiments/knapen_AOT/AOT_stimuli/rescaled_final/1540_fw.mp4	0.0	200.6212158203125	
35	177.66800785064697	fix_post	2		12	33.0	2.5	/experiments/knapen_AOT/AOT_stimuli/rescaled_final/1540_fw.mp4	0.0	201.93779683113098	0.10003805160522461
36	177.7680459022522	fix_pre	0		120	34.0	2.5	blank	1.0	202.0378348827362	1.0001981258392334
36	177.9514880180359	pulse	0	t		34.0	2.5	blank	1.0	202.2212769985199	
36	178.76824402809143	movie	1		300	34.0	2.5	blank	1.0	203.03803300857544	2.5002758502960205
36	179.55180597305298	pulse	1	t		34.0	2.5	blank	1.0	203.821594953537	
36	181.15210485458374	pulse	1	t		34.0	2.5	blank	1.0	205.42189383506775	
36	181.26851987838745	fix_post	2		12	34.0	2.5	blank	1.0	205.53830885887146	0.09995412826538086
37	181.36847400665283	fix_pre	0		120	35.0	2.5	/experiments/knapen_AOT/AOT_stimuli/rescaled_final/1187_fw.mp4	0.0	205.63826298713684	1.0001590251922607
37	182.3686330318451	movie	1		242	35.0	2.5	/experiments/knapen_AOT/AOT_stimuli/rescaled_final/1187_fw.mp4	0.0	206.6384220123291	2.492079973220825
37	182.75288200378418	pulse	1	t		35.0	2.5	/experiments/knapen_AOT/AOT_stimuli/rescaled_final/1187_fw.mp4	0.0	207.0226709842682	
37	184.35240983963013	pulse	1	t		35.0	2.5	/experiments/knapen_AOT/AOT_stimuli/rescaled_final/1187_fw.mp4	0.0	208.62219882011414	
37	184.86071300506592	fix_post	2		12	35.0	2.5	/experiments/knapen_AOT/AOT_stimuli/rescaled_final/1187_fw.mp4	0.0	209.13050198554993	0.10005402565002441
38	184.96076703071594	fix_pre	0		120	36.0	2.5	/experiments/knapen_AOT/AOT_stimuli/rescaled_final/0761_fw.mp4	0.0	209.23055601119995	1.0001029968261719
38	185.95272397994995	pulse	0	t		36.0	2.5	/experiments/knapen_AOT/AOT_stimuli/rescaled_final/0761_fw.mp4	0.0	210.22251296043396	
38	185.96087002754211	movie	1		246	36.0	2.5	/experiments/knapen_AOT/AOT_stimuli/rescaled_final/0761_fw.mp4	0.0	210.23065900802612	2.508671998977661
38	187.55728387832642	pulse	1	t		36.0	2.5	/experiments/knapen_AOT/AOT_stimuli/rescaled_final/0761_fw.mp4	0.0	211.82707285881042	
38	188.46954202651978	fix_post	2		12	36.0	2.5	/experiments/knapen_AOT/AOT_stimuli/rescaled_final/0761_fw.mp4	0.0	212.73933100700378	0.10008001327514648
39	188.56962203979492	fix_pre	0		120	37.0	2.5	/experiments/knapen_AOT/AOT_stimuli/rescaled_final/0402_fw.mp4	0.0	212.83941102027893	1.000087022781372
39	189.15329098701477	pulse	0	t		37.0	2.5	/experiments/knapen_AOT/AOT_stimuli/rescaled_final/0402_fw.mp4	0.0	213.42307996749878	
39	189.5697090625763	movie	1		244	37.0	2.5	/experiments/knapen_AOT/AOT_stimuli/rescaled_final/0402_fw.mp4	0.0	213.8394980430603	2.500386953353882
39	190.7491488456726	pulse	1	t		37.0	2.5	/experiments/knapen_AOT/AOT_stimuli/rescaled_final/0402_fw.mp4	0.0	215.01893782615662	
39	192.07009601593018	fix_post	2		12	37.0	2.5	/experiments/knapen_AOT/AOT_stimuli/rescaled_final/0402_fw.mp4	0.0	216.33988499641418	0.10009098052978516
40	192.17018699645996	fix_pre	0		120	38.0	2.5	/experiments/knapen_AOT/AOT_stimuli/rescaled_final/1001_fw.mp4	0.0	216.43997597694397	1.0000910758972168
40	192.3536138534546	pulse	0	t		38.0	2.5	/experiments/knapen_AOT/AOT_stimuli/rescaled_final/1001_fw.mp4	0.0	216.6234028339386	
40	193.17027807235718	movie	1		244	38.0	2.5	/experiments/knapen_AOT/AOT_stimuli/rescaled_final/1001_fw.mp4	0.0	217.4400670528412	2.5003349781036377
40	193.95413398742676	pulse	1	t		38.0	2.5	/experiments/knapen_AOT/AOT_stimuli/rescaled_final/1001_fw.mp4	0.0	218.22392296791077	
40	195.55402398109436	pulse	1	t		38.0	2.5	/experiments/knapen_AOT/AOT_stimuli/rescaled_final/1001_fw.mp4	0.0	219.82381296157837	
40	195.67061305046082	fix_post	2		10	38.0	2.5	/experiments/knapen_AOT/AOT_stimuli/rescaled_final/1001_fw.mp4	0.0	219.94040203094482	0.1000368595123291
41	195.77064990997314	fix_pre	0		120	39.0	2.5	/experiments/knapen_AOT/AOT_stimuli/rescaled_final/1614_fw.mp4	0.0	220.04043889045715	1.0001461505889893
41	196.77079606056213	movie	1		244	39.0	2.5	/experiments/knapen_AOT/AOT_stimuli/rescaled_final/1614_fw.mp4	0.0	221.04058504104614	2.492034912109375
41	197.15494894981384	pulse	1	t		39.0	2.5	/experiments/knapen_AOT/AOT_stimuli/rescaled_final/1614_fw.mp4	0.0	221.42473793029785	
41	198.7473578453064	pulse	1	t		39.0	2.5	/experiments/knapen_AOT/AOT_stimuli/rescaled_final/1614_fw.mp4	0.0	223.0171468257904	
41	199.2628309726715	fix_post	2		12	39.0	2.5	/experiments/knapen_AOT/AOT_stimuli/rescaled_final/1614_fw.mp4	0.0	223.53261995315552	0.10005593299865723
42	199.36288690567017	fix_pre	0		120	40.0	2.5	blank	1.0	223.63267588615417	1.000195026397705
42	200.35483288764954	pulse	0	t		40.0	2.5	blank	1.0	224.62462186813354	
42	200.36308193206787	movie	1		301	40.0	2.5	blank	1.0	224.63287091255188	2.508646011352539
42	201.94757795333862	pulse	1	t		40.0	2.5	blank	1.0	226.21736693382263	
42	202.8717279434204	fix_post	2		12	40.0	2.5	blank	1.0	227.14151692390442	0.10004091262817383
43	202.97176885604858	fix_pre	0		120	41.0	2.5	/experiments/knapen_AOT/AOT_stimuli/rescaled_final/1690_rv.mp4	0.0	227.2415578365326	1.0000741481781006
43	203.54789304733276	pulse	0	t		41.0	2.5	/experiments/knapen_AOT/AOT_stimuli/rescaled_final/1690_rv.mp4	0.0	227.81768202781677	
43	203.97184300422668	movie	1		244	41.0	2.5	/experiments/knapen_AOT/AOT_stimuli/rescaled_final/1690_rv.mp4	0.0	228.2416319847107	2.5003879070281982
43	205.14833092689514	pulse	1	t		41.0	2.5	/experiments/knapen_AOT/AOT_stimuli/rescaled_final/1690_rv.mp4	0.0	229.41811990737915	
43	206.47223091125488	fix_post	2		12	41.0	2.5	/experiments/knapen_AOT/AOT_stimuli/rescaled_final/1690_rv.mp4	0.0	230.7420198917389	0.1000821590423584
44	206.57231307029724	fix_pre	0		120	42.0	2.5	/experiments/knapen_AOT/AOT_stimuli/rescaled_final/0519_rv.mp4	0.0	230.84210205078125	1.0000808238983154
44	206.7482569217682	pulse	0	t		42.0	2.5	/experiments/knapen_AOT/AOT_stimuli/rescaled_final/0519_rv.mp4	0.0	231.0180459022522	
44	207.57239389419556	movie	1		244	42.0	2.5	/experiments/knapen_AOT/AOT_stimuli/rescaled_final/0519_rv.mp4	0.0	231.84218287467957	2.5003890991210938
44	208.34770894050598	pulse	1	t		42.0	2.5	/experiments/knapen_AOT/AOT_stimuli/rescaled_final/0519_rv.mp4	0.0	232.61749792099	
44	209.94790291786194	pulse	1	t		42.0	2.5	/experiments/knapen_AOT/AOT_stimuli/rescaled_final/0519_rv.mp4	0.0	234.21769189834595	
44	210.07278299331665	fix_post	2		12	42.0	2.5	/experiments/knapen_AOT/AOT_stimuli/rescaled_final/0519_rv.mp4	0.0	234.34257197380066	0.09999895095825195
45	210.1727819442749	fix_pre	0		119	43.0	2.5	/experiments/knapen_AOT/AOT_stimuli/rescaled_final/1390_fw.mp4	0.0	234.4425709247589	0.9918279647827148
45	211.16460990905762	movie	1		244	43.0	2.5	/experiments/knapen_AOT/AOT_stimuli/rescaled_final/1390_fw.mp4	0.0	235.43439888954163	2.500399112701416
45	211.5487198829651	pulse	1	t		43.0	2.5	/experiments/knapen_AOT/AOT_stimuli/rescaled_final/1390_fw.mp4	0.0	235.8185088634491	
45	213.1484088897705	pulse	1	t		43.0	2.5	/experiments/knapen_AOT/AOT_stimuli/rescaled_final/1390_fw.mp4	0.0	237.41819787025452	
45	213.66500902175903	fix_post	2		12	43.0	2.5	/experiments/knapen_AOT/AOT_stimuli/rescaled_final/1390_fw.mp4	0.0	237.93479800224304	0.10002398490905762
46	213.7650330066681	fix_pre	0		119	44.0	2.5	/experiments/knapen_AOT/AOT_stimuli/rescaled_final/1542_rv.mp4	0.0	238.0348219871521	0.9918160438537598
46	214.74861192703247	pulse	0	t		44.0	2.5	/experiments/knapen_AOT/AOT_stimuli/rescaled_final/1542_rv.mp4	0.0	239.01840090751648	
46	214.75684905052185	movie	1		245	44.0	2.5	/experiments/knapen_AOT/AOT_stimuli/rescaled_final/1542_rv.mp4	0.0	239.02663803100586	2.5086658000946045
46	216.3494429588318	pulse	1	t		44.0	2.5	/experiments/knapen_AOT/AOT_stimuli/rescaled_final/1542_rv.mp4	0.0	240.6192319393158	
46	217.26551485061646	fix_post	2		12	44.0	2.5	/experiments/knapen_AOT/AOT_stimuli/rescaled_final/1542_rv.mp4	0.0	241.53530383110046	0.10001707077026367
47	217.36553192138672	fix_pre	0		120	45.0	2.5	/experiments/knapen_AOT/AOT_stimuli/rescaled_final/1446_fw.mp4	0.0	241.63532090187073	1.0001790523529053
47	217.94916105270386	pulse	0	t		45.0	2.5	/experiments/knapen_AOT/AOT_stimuli/rescaled_final/1446_fw.mp4	0.0	242.21895003318787	
47	218.36571097373962	movie	1		244	45.0	2.5	/experiments/knapen_AOT/AOT_stimuli/rescaled_final/1446_fw.mp4	0.0	242.63549995422363	2.5003600120544434
47	219.54943990707397	pulse	1	t		45.0	2.5	/experiments/knapen_AOT/AOT_stimuli/rescaled_final/1446_fw.mp4	0.0	243.81922888755798	
47	220.86607098579407	fix_post	2		12	45.0	2.5	/experiments/knapen_AOT/AOT_stimuli/rescaled_final/1446_fw.mp4	0.0	245.13585996627808	0.10000491142272949
48	220.9660758972168	fix_pre	0		120	46.0	2.5	/experiments/knapen_AOT/AOT_stimuli/rescaled_final/0905_rv.mp4	0.0	245.2358648777008	1.0001440048217773
48	221.14962792396545	pulse	0	t		46.0	2.5	/experiments/knapen_AOT/AOT_stimuli/rescaled_final/0905_rv.mp4	0.0	245.41941690444946	
48	221.96621990203857	movie	1		247	46.0	2.5	/experiments/knapen_AOT/AOT_stimuli/rescaled_final/0905_rv.mp4	0.0	246.23600888252258	2.5003671646118164
48	222.74984407424927	pulse	1	t		46.0	2.5	/experiments/knapen_AOT/AOT_stimuli/rescaled_final/0905_rv.mp4	0.0	247.01963305473328	
48	224.35015487670898	pulse	1	t		46.0	2.5	/experiments/knapen_AOT/AOT_stimuli/rescaled_final/0905_rv.mp4	0.0	248.619943857193	
48	224.4665870666504	fix_post	2		12	46.0	2.5	/experiments/knapen_AOT/AOT_stimuli/rescaled_final/0905_rv.mp4	0.0	248.7363760471344	0.10001087188720703
49	224.5665979385376	fix_pre	0		119	47.0	2.5	/experiments/knapen_AOT/AOT_stimuli/rescaled_final/0927_fw.mp4	0.0	248.8363869190216	0.9918310642242432
49	225.55842900276184	movie	1		243	47.0	2.5	/experiments/knapen_AOT/AOT_stimuli/rescaled_final/0927_fw.mp4	0.0	249.82821798324585	2.5003669261932373
49	225.9503870010376	pulse	1	t		47.0	2.5	/experiments/knapen_AOT/AOT_stimuli/rescaled_final/0927_fw.mp4	0.0	250.2201759815216	
49	227.55058002471924	pulse	1	t		47.0	2.5	/experiments/knapen_AOT/AOT_stimuli/rescaled_final/0927_fw.mp4	0.0	251.82036900520325	
49	228.05879592895508	fix_post	2		12	47.0	2.5	/experiments/knapen_AOT/AOT_stimuli/rescaled_final/0927_fw.mp4	0.0	252.3285849094391	0.10000491142272949
50	228.1588008403778	fix_pre	0		120	48.0	2.5	/experiments/knapen_AOT/AOT_stimuli/rescaled_final/0750_rv.mp4	0.0	252.42858982086182	1.0002081394195557
50	229.1508378982544	pulse	0	t		48.0	2.5	/experiments/knapen_AOT/AOT_stimuli/rescaled_final/0750_rv.mp4	0.0	253.4206268787384	
50	229.15900897979736	movie	1		246	48.0	2.5	/experiments/knapen_AOT/AOT_stimuli/rescaled_final/0750_rv.mp4	0.0	253.42879796028137	2.5086488723754883
50	230.7523410320282	pulse	1	t		48.0	2.5	/experiments/knapen_AOT/AOT_stimuli/rescaled_final/0750_rv.mp4	0.0	255.0221300125122	
50	231.66765785217285	fix_post	2		12	48.0	2.5	/experiments/knapen_AOT/AOT_stimuli/rescaled_final/0750_rv.mp4	0.0	255.93744683265686	0.09999418258666992
51	231.76765203475952	fix_pre	0		120	49.0	2.5	blank	1.0	256.03744101524353	1.000187873840332
51	232.3513069152832	pulse	0	t		49.0	2.5	blank	1.0	256.6210958957672	
51	232.76783990859985	movie	1		300	49.0	2.5	blank	1.0	257.03762888908386	2.5003740787506104
51	233.95149207115173	pulse	1	t		49.0	2.5	blank	1.0	258.22128105163574	
51	235.26821398735046	fix_post	2		12	49.0	2.5	blank	1.0	259.5380029678345	0.10001087188720703
52	235.36822485923767	fix_pre	0		120	50.0	2.5	/experiments/knapen_AOT/AOT_stimuli/rescaled_final/0189_rv.mp4	0.0	259.6380138397217	1.0001420974731445
52	235.55189490318298	pulse	0	t		50.0	2.5	/experiments/knapen_AOT/AOT_stimuli/rescaled_final/0189_rv.mp4	0.0	259.821683883667	
52	236.36836695671082	movie	1		243	50.0	2.5	/experiments/knapen_AOT/AOT_stimuli/rescaled_final/0189_rv.mp4	0.0	260.6381559371948	2.5003769397735596
52	237.1519820690155	pulse	1	t		50.0	2.5	/experiments/knapen_AOT/AOT_stimuli/rescaled_final/0189_rv.mp4	0.0	261.4217710494995	
52	238.75220584869385	pulse	1	t		50.0	2.5	/experiments/knapen_AOT/AOT_stimuli/rescaled_final/0189_rv.mp4	0.0	263.02199482917786	
52	238.86874389648438	fix_post	2		12	50.0	2.5	/experiments/knapen_AOT/AOT_stimuli/rescaled_final/0189_rv.mp4	0.0	263.1385328769684	0.09999704360961914
53	238.968740940094	fix_pre	0		120	51.0	2.5	/experiments/knapen_AOT/AOT_stimuli/rescaled_final/0636_rv.mp4	0.0	263.238529920578	1.0001559257507324
53	239.96889686584473	movie	1		243	51.0	2.5	/experiments/knapen_AOT/AOT_stimuli/rescaled_final/0636_rv.mp4	0.0	264.23868584632874	2.4920451641082764
53	240.35310292243958	pulse	1	t		51.0	2.5	/experiments/knapen_AOT/AOT_stimuli/rescaled_final/0636_rv.mp4	0.0	264.6228919029236	
53	241.95286107063293	pulse	1	t		51.0	2.5	/experiments/knapen_AOT/AOT_stimuli/rescaled_final/0636_rv.mp4	0.0	266.22265005111694	
53	242.460942029953	fix_post	2		12	51.0	2.5	/experiments/knapen_AOT/AOT_stimuli/rescaled_final/0636_rv.mp4	0.0	266.730731010437	0.10001492500305176
54	242.56095695495605	fix_pre	0		120	52.0	2.5	/experiments/knapen_AOT/AOT_stimuli/rescaled_final/1540_rv.mp4	0.0	266.83074593544006	1.000175952911377
54	243.55297803878784	pulse	0	t		52.0	2.5	/experiments/knapen_AOT/AOT_stimuli/rescaled_final/1540_rv.mp4	0.0	267.82276701927185	
54	243.56113290786743	movie	1		246	52.0	2.5	/experiments/knapen_AOT/AOT_stimuli/rescaled_final/1540_rv.mp4	0.0	267.83092188835144	2.5086870193481445
54	245.15826106071472	pulse	1	t		52.0	2.5	/experiments/knapen_AOT/AOT_stimuli/rescaled_final/1540_rv.mp4	0.0	269.42805004119873	
54	246.06981992721558	fix_post	2		12	52.0	2.5	/experiments/knapen_AOT/AOT_stimuli/rescaled_final/1540_rv.mp4	0.0	270.3396089076996	0.10000205039978027
55	246.16982197761536	fix_pre	0		120	53.0	2.5	/experiments/knapen_AOT/AOT_stimuli/rescaled_final/1192_rv.mp4	0.0	270.43961095809937	1.000166893005371
55	246.75343489646912	pulse	0	t		53.0	2.5	/experiments/knapen_AOT/AOT_stimuli/rescaled_final/1192_rv.mp4	0.0	271.0232238769531	
55	247.16998887062073	movie	1		243	53.0	2.5	/experiments/knapen_AOT/AOT_stimuli/rescaled_final/1192_rv.mp4	0.0	271.43977785110474	2.5003530979156494
55	248.35379600524902	pulse	1	t		53.0	2.5	/experiments/knapen_AOT/AOT_stimuli/rescaled_final/1192_rv.mp4	0.0	272.62358498573303	
55	249.67034196853638	fix_post	2		12	53.0	2.5	/experiments/knapen_AOT/AOT_stimuli/rescaled_final/1192_rv.mp4	0.0	273.9401309490204	0.10003209114074707
56	249.77037405967712	fix_pre	0		120	54.0	2.5	/experiments/knapen_AOT/AOT_stimuli/rescaled_final/1506_rv.mp4	0.0	274.04016304016113	1.000199794769287
56	249.9539909362793	pulse	0	t		54.0	2.5	/experiments/knapen_AOT/AOT_stimuli/rescaled_final/1506_rv.mp4	0.0	274.2237799167633	
56	250.7705738544464	movie	1		243	54.0	2.5	/experiments/knapen_AOT/AOT_stimuli/rescaled_final/1506_rv.mp4	0.0	275.0403628349304	2.5003151893615723
56	251.55416893959045	pulse	1	t		54.0	2.5	/experiments/knapen_AOT/AOT_stimuli/rescaled_final/1506_rv.mp4	0.0	275.82395792007446	
56	253.15432691574097	pulse	1	t		54.0	2.5	/experiments/knapen_AOT/AOT_stimuli/rescaled_final/1506_rv.mp4	0.0	277.424115896225	
56	253.27088904380798	fix_post	2		12	54.0	2.5	/experiments/knapen_AOT/AOT_stimuli/rescaled_final/1506_rv.mp4	0.0	277.540678024292	0.10004687309265137
57	253.37093591690063	fix_pre	0		120	55.0	2.5	blank	1.0	277.64072489738464	1.0001749992370605
57	254.3711109161377	movie	1		299	55.0	2.5	blank	1.0	278.6408998966217	2.4919769763946533
57	254.7546510696411	pulse	1	t		55.0	2.5	blank	1.0	279.0244400501251	
57	256.35498690605164	pulse	1	t		55.0	2.5	blank	1.0	280.62477588653564	
57	256.86308789253235	fix_post	2		9	55.0	2.5	blank	1.0	281.13287687301636	0.10003399848937988
58	256.96312189102173	fix_pre	0		120	56.0	2.5	/experiments/knapen_AOT/AOT_stimuli/rescaled_final/1972_rv.mp4	0.0	281.23291087150574	1.000136137008667
58	257.95514488220215	pulse	0	t		56.0	2.5	/experiments/knapen_AOT/AOT_stimuli/rescaled_final/1972_rv.mp4	0.0	282.22493386268616	
58	257.9632580280304	movie	1		247	56.0	2.5	/experiments/knapen_AOT/AOT_stimuli/rescaled_final/1972_rv.mp4	0.0	282.2330470085144	2.508711814880371
58	259.5562250614166	pulse	1	t		56.0	2.5	/experiments/knapen_AOT/AOT_stimuli/rescaled_final/1972_rv.mp4	0.0	283.82601404190063	
58	260.47196984291077	fix_post	2		12	56.0	2.5	/experiments/knapen_AOT/AOT_stimuli/rescaled_final/1972_rv.mp4	0.0	284.7417588233948	0.10005712509155273
59	260.5720269680023	fix_pre	0		120	57.0	2.5	/experiments/knapen_AOT/AOT_stimuli/rescaled_final/1613_fw.mp4	0.0	284.8418159484863	1.000154972076416
59	261.1480710506439	pulse	0	t		57.0	2.5	/experiments/knapen_AOT/AOT_stimuli/rescaled_final/1613_fw.mp4	0.0	285.41786003112793	
59	261.57218194007874	movie	1		245	57.0	2.5	/experiments/knapen_AOT/AOT_stimuli/rescaled_final/1613_fw.mp4	0.0	285.84197092056274	2.500338077545166
59	262.75171995162964	pulse	1	t		57.0	2.5	/experiments/knapen_AOT/AOT_stimuli/rescaled_final/1613_fw.mp4	0.0	287.02150893211365	
59	264.0725200176239	fix_post	2		12	57.0	2.5	/experiments/knapen_AOT/AOT_stimuli/rescaled_final/1613_fw.mp4	0.0	288.3423089981079	0.0999908447265625
60	264.17251086235046	fix_pre	0		120	58.0	2.5	/experiments/knapen_AOT/AOT_stimuli/rescaled_final/1263_fw.mp4	0.0	288.4422998428345	1.0001649856567383
60	264.34854006767273	pulse	0	t		58.0	2.5	/experiments/knapen_AOT/AOT_stimuli/rescaled_final/1263_fw.mp4	0.0	288.61832904815674	
60	265.1726758480072	movie	1		245	58.0	2.5	/experiments/knapen_AOT/AOT_stimuli/rescaled_final/1263_fw.mp4	0.0	289.4424648284912	2.500349998474121
60	265.9489278793335	pulse	1	t		58.0	2.5	/experiments/knapen_AOT/AOT_stimuli/rescaled_final/1263_fw.mp4	0.0	290.2187168598175	
60	267.54910492897034	pulse	1	t		58.0	2.5	/experiments/knapen_AOT/AOT_stimuli/rescaled_final/1263_fw.mp4	0.0	291.81889390945435	
60	267.6730258464813	fix_post	2		12	58.0	2.5	/experiments/knapen_AOT/AOT_stimuli/rescaled_final/1263_fw.mp4	0.0	291.94281482696533	0.10005307197570801
61	267.77307891845703	fix_pre	0		120	59.0	2.5	/experiments/knapen_AOT/AOT_stimuli/rescaled_final/0749_fw.mp4	0.0	292.04286789894104	1.0001170635223389
61	268.77319598197937	movie	1		244	59.0	2.5	/experiments/knapen_AOT/AOT_stimuli/rescaled_final/0749_fw.mp4	0.0	293.0429849624634	2.4920339584350586
61	269.1484639644623	pulse	1	t		59.0	2.5	/experiments/knapen_AOT/AOT_stimuli/rescaled_final/0749_fw.mp4	0.0	293.4182529449463	
61	270.7487459182739	pulse	1	t		59.0	2.5	/experiments/knapen_AOT/AOT_stimuli/rescaled_final/0749_fw.mp4	0.0	295.01853489875793	
61	271.26522994041443	fix_post	2		12	59.0	2.5	/experiments/knapen_AOT/AOT_stimuli/rescaled_final/0749_fw.mp4	0.0	295.53501892089844	0.10006594657897949
62	271.3652958869934	fix_pre	0		119	60.0	2.5	/experiments/knapen_AOT/AOT_stimuli/rescaled_final/1632_fw.mp4	0.0	295.6350848674774	0.991779088973999
62	272.3489239215851	pulse	0	t		60.0	2.5	/experiments/knapen_AOT/AOT_stimuli/rescaled_final/1632_fw.mp4	0.0	296.6187129020691	
62	272.3570749759674	movie	1		246	60.0	2.5	/experiments/knapen_AOT/AOT_stimuli/rescaled_final/1632_fw.mp4	0.0	296.6268639564514	2.508715867996216
62	273.95002603530884	pulse	1	t		60.0	2.5	/experiments/knapen_AOT/AOT_stimuli/rescaled_final/1632_fw.mp4	0.0	298.21981501579285	
62	274.8657908439636	fix_post	2		12	60.0	2.5	/experiments/knapen_AOT/AOT_stimuli/rescaled_final/1632_fw.mp4	0.0	299.13557982444763	0.10003399848937988
63	274.965824842453	fix_pre	0		120	61.0	2.5	blank	1.0	299.235613822937	1.0000991821289062
63	275.5493519306183	pulse	0	t		61.0	2.5	blank	1.0	299.8191409111023	
63	275.9659240245819	movie	1		300	61.0	2.5	blank	1.0	300.2357130050659	2.500389814376831
63	277.1496238708496	pulse	1	t		61.0	2.5	blank	1.0	301.4194128513336	
63	278.46631383895874	fix_post	2		12	61.0	2.5	blank	1.0	302.73610281944275	0.10001111030578613
64	278.5663249492645	fix_pre	0		120	62.0	2.5	/experiments/knapen_AOT/AOT_stimuli/rescaled_final/2146_rv.mp4	0.0	302.83611392974854	1.0001540184020996
64	278.74984407424927	pulse	0	t		62.0	2.5	/experiments/knapen_AOT/AOT_stimuli/rescaled_final/2146_rv.mp4	0.0	303.0196330547333	
64	279.5664789676666	movie	1		244	62.0	2.5	/experiments/knapen_AOT/AOT_stimuli/rescaled_final/2146_rv.mp4	0.0	303.83626794815063	2.5004680156707764
64	280.3501799106598	pulse	1	t		62.0	2.5	/experiments/knapen_AOT/AOT_stimuli/rescaled_final/2146_rv.mp4	0.0	304.6199688911438	
64	281.9503319263458	pulse	1	t		62.0	2.5	/experiments/knapen_AOT/AOT_stimuli/rescaled_final/2146_rv.mp4	0.0	306.22012090682983	
64	282.0669469833374	fix_post	2		12	62.0	2.5	/experiments/knapen_AOT/AOT_stimuli/rescaled_final/2146_rv.mp4	0.0	306.3367359638214	0.09993696212768555
65	282.1668839454651	fix_pre	0		120	63.0	2.5	/experiments/knapen_AOT/AOT_stimuli/rescaled_final/0474_rv.mp4	0.0	306.4366729259491	1.0002429485321045
65	283.1671268939972	movie	1		244	63.0	2.5	/experiments/knapen_AOT/AOT_stimuli/rescaled_final/0474_rv.mp4	0.0	307.4369158744812	2.4919140338897705
65	283.55121397972107	pulse	1	t		63.0	2.5	/experiments/knapen_AOT/AOT_stimuli/rescaled_final/0474_rv.mp4	0.0	307.8210029602051	
65	285.1509749889374	pulse	1	t		63.0	2.5	/experiments/knapen_AOT/AOT_stimuli/rescaled_final/0474_rv.mp4	0.0	309.4207639694214	
65	285.65904092788696	fix_post	2		12	63.0	2.5	/experiments/knapen_AOT/AOT_stimuli/rescaled_final/0474_rv.mp4	0.0	309.928829908371	0.10012006759643555
66	285.7591609954834	fix_pre	0		120	64.0	2.5	/experiments/knapen_AOT/AOT_stimuli/rescaled_final/0267_rv.mp4	0.0	310.0289499759674	1.0000510215759277
66	286.75109100341797	pulse	0	t		64.0	2.5	/experiments/knapen_AOT/AOT_stimuli/rescaled_final/0267_rv.mp4	0.0	311.020879983902	
66	286.7592120170593	movie	1		247	64.0	2.5	/experiments/knapen_AOT/AOT_stimuli/rescaled_final/0267_rv.mp4	0.0	311.02900099754333	2.508704900741577
66	288.3524558544159	pulse	1	t		64.0	2.5	/experiments/knapen_AOT/AOT_stimuli/rescaled_final/0267_rv.mp4	0.0	312.6222448348999	
66	289.2679169178009	fix_post	2		12	64.0	2.5	/experiments/knapen_AOT/AOT_stimuli/rescaled_final/0267_rv.mp4	0.0	313.5377058982849	0.10004806518554688
67	289.36796498298645	fix_pre	0		120	65.0	2.5	/experiments/knapen_AOT/AOT_stimuli/rescaled_final/1300_rv.mp4	0.0	313.63775396347046	1.0002379417419434
67	289.9515299797058	pulse	0	t		65.0	2.5	/experiments/knapen_AOT/AOT_stimuli/rescaled_final/1300_rv.mp4	0.0	314.2213189601898	
67	290.3682029247284	movie	1		247	65.0	2.5	/experiments/knapen_AOT/AOT_stimuli/rescaled_final/1300_rv.mp4	0.0	314.6379919052124	2.500256061553955
67	291.55187606811523	pulse	1	t		65.0	2.5	/experiments/knapen_AOT/AOT_stimuli/rescaled_final/1300_rv.mp4	0.0	315.82166504859924	
67	292.86845898628235	fix_post	2		12	65.0	2.5	/experiments/knapen_AOT/AOT_stimuli/rescaled_final/1300_rv.mp4	0.0	317.13824796676636	0.10002899169921875
68	292.96848797798157	fix_pre	0		120	66.0	2.5	/experiments/knapen_AOT/AOT_stimuli/rescaled_final/0676_fw.mp4	0.0	317.2382769584656	1.000148057937622
68	293.1521520614624	pulse	0	t		66.0	2.5	/experiments/knapen_AOT/AOT_stimuli/rescaled_final/0676_fw.mp4	0.0	317.4219410419464	
68	293.9686360359192	movie	1		244	66.0	2.5	/experiments/knapen_AOT/AOT_stimuli/rescaled_final/0676_fw.mp4	0.0	318.2384250164032	2.5003979206085205
68	294.75238490104675	pulse	1	t		66.0	2.5	/experiments/knapen_AOT/AOT_stimuli/rescaled_final/0676_fw.mp4	0.0	319.02217388153076	
68	296.3526430130005	pulse	1	t		66.0	2.5	/experiments/knapen_AOT/AOT_stimuli/rescaled_final/0676_fw.mp4	0.0	320.6224319934845	
68	296.4690339565277	fix_post	2		12	66.0	2.5	/experiments/knapen_AOT/AOT_stimuli/rescaled_final/0676_fw.mp4	0.0	320.7388229370117	0.09999704360961914
69	296.56903100013733	fix_pre	0		120	67.0	2.5	/experiments/knapen_AOT/AOT_stimuli/rescaled_final/1820_fw.mp4	0.0	320.83881998062134	1.0001518726348877
69	297.5691828727722	movie	1		244	67.0	2.5	/experiments/knapen_AOT/AOT_stimuli/rescaled_final/1820_fw.mp4	0.0	321.8389718532562	2.492025136947632
69	297.95329904556274	pulse	1	t		67.0	2.5	/experiments/knapen_AOT/AOT_stimuli/rescaled_final/1820_fw.mp4	0.0	322.22308802604675	
69	299.5531098842621	pulse	1	t		67.0	2.5	/experiments/knapen_AOT/AOT_stimuli/rescaled_final/1820_fw.mp4	0.0	323.8228988647461	
69	300.06120800971985	fix_post	2		12	67.0	2.5	/experiments/knapen_AOT/AOT_stimuli/rescaled_final/1820_fw.mp4	0.0	324.33099699020386	0.10003805160522461
70	300.1612460613251	fix_pre	0		120	68.0	2.5	/experiments/knapen_AOT/AOT_stimuli/rescaled_final/1850_fw.mp4	0.0	324.4310350418091	1.0001168251037598
70	301.1533749103546	pulse	0	t		68.0	2.5	/experiments/knapen_AOT/AOT_stimuli/rescaled_final/1850_fw.mp4	0.0	325.4231638908386	
70	301.16136288642883	movie	1		245	68.0	2.5	/experiments/knapen_AOT/AOT_stimuli/rescaled_final/1850_fw.mp4	0.0	325.43115186691284	2.508733034133911
70	302.75386691093445	pulse	1	t		68.0	2.5	/experiments/knapen_AOT/AOT_stimuli/rescaled_final/1850_fw.mp4	0.0	327.02365589141846	
70	303.67009592056274	fix_post	2		12	68.0	2.5	/experiments/knapen_AOT/AOT_stimuli/rescaled_final/1850_fw.mp4	0.0	327.93988490104675	0.1000070571899414
71	303.7701029777527	fix_pre	0		120	69.0	2.5	/experiments/knapen_AOT/AOT_stimuli/rescaled_final/1001_rv.mp4	0.0	328.0398919582367	1.0001559257507324
71	304.3536970615387	pulse	0	t		69.0	2.5	/experiments/knapen_AOT/AOT_stimuli/rescaled_final/1001_rv.mp4	0.0	328.6234860420227	
71	304.7702589035034	movie	1		245	69.0	2.5	/experiments/knapen_AOT/AOT_stimuli/rescaled_final/1001_rv.mp4	0.0	329.0400478839874	2.5004501342773438
71	305.9540579319	pulse	1	t		69.0	2.5	/experiments/knapen_AOT/AOT_stimuli/rescaled_final/1001_rv.mp4	0.0	330.22384691238403	
71	307.27070903778076	fix_post	2		12	69.0	2.5	/experiments/knapen_AOT/AOT_stimuli/rescaled_final/1001_rv.mp4	0.0	331.54049801826477	0.09993791580200195
72	307.37064695358276	fix_pre	0		120	70.0	2.5	blank	1.0	331.6404359340668	1.000175952911377
72	307.55428886413574	pulse	0	t		70.0	2.5	blank	1.0	331.82407784461975	
72	308.37082290649414	movie	1		300	70.0	2.5	blank	1.0	332.64061188697815	2.5003910064697266
72	309.154415845871	pulse	1	t		70.0	2.5	blank	1.0	333.424204826355	
72	310.7546389102936	pulse	1	t		70.0	2.5	blank	1.0	335.0244278907776	
72	310.87121391296387	fix_post	2		12	70.0	2.5	blank	1.0	335.1410028934479	0.0999910831451416
73	310.971204996109	fix_pre	0		120	71.0	2.5	/experiments/knapen_AOT/AOT_stimuli/rescaled_final/0546_fw.mp4	0.0	335.240993976593	1.0001280307769775
73	311.971333026886	movie	1		243	71.0	2.5	/experiments/knapen_AOT/AOT_stimuli/rescaled_final/0546_fw.mp4	0.0	336.24112200737	2.4920599460601807
73	312.3555760383606	pulse	1	t		71.0	2.5	/experiments/knapen_AOT/AOT_stimuli/rescaled_final/0546_fw.mp4	0.0	336.6253650188446	
73	313.9478249549866	pulse	1	t		71.0	2.5	/experiments/knapen_AOT/AOT_stimuli/rescaled_final/0546_fw.mp4	0.0	338.2176139354706	
73	314.46339297294617	fix_post	2		10	71.0	2.5	/experiments/knapen_AOT/AOT_stimuli/rescaled_final/0546_fw.mp4	0.0	338.7331819534302	0.10001397132873535
74	314.5634069442749	fix_pre	0		120	72.0	2.5	/experiments/knapen_AOT/AOT_stimuli/rescaled_final/1768_fw.mp4	0.0	338.8331959247589	1.0002179145812988
74	315.54783296585083	pulse	0	t		72.0	2.5	/experiments/knapen_AOT/AOT_stimuli/rescaled_final/1768_fw.mp4	0.0	339.81762194633484	
74	315.5636248588562	movie	1		244	72.0	2.5	/experiments/knapen_AOT/AOT_stimuli/rescaled_final/1768_fw.mp4	0.0	339.8334138393402	2.5085971355438232
74	317.1603989601135	pulse	1	t		72.0	2.5	/experiments/knapen_AOT/AOT_stimuli/rescaled_final/1768_fw.mp4	0.0	341.43018794059753	
74	318.0722219944	fix_post	2		12	72.0	2.5	/experiments/knapen_AOT/AOT_stimuli/rescaled_final/1768_fw.mp4	0.0	342.34201097488403	0.10001397132873535
75	318.17223596572876	fix_pre	0		120	73.0	2.5	/experiments/knapen_AOT/AOT_stimuli/rescaled_final/0636_fw.mp4	0.0	342.44202494621277	1.0001580715179443
75	318.7484059333801	pulse	0	t		73.0	2.5	/experiments/knapen_AOT/AOT_stimuli/rescaled_final/0636_fw.mp4	0.0	343.01819491386414	
75	319.1723940372467	movie	1		245	73.0	2.5	/experiments/knapen_AOT/AOT_stimuli/rescaled_final/0636_fw.mp4	0.0	343.4421830177307	2.500411033630371
75	320.348513841629	pulse	1	t		73.0	2.5	/experiments/knapen_AOT/AOT_stimuli/rescaled_final/0636_fw.mp4	0.0	344.61830282211304	
75	321.6728050708771	fix_post	2		12	73.0	2.5	/experiments/knapen_AOT/AOT_stimuli/rescaled_final/0636_fw.mp4	0.0	345.9425940513611	0.09995484352111816
76	321.7727599143982	fix_pre	0		120	74.0	2.5	/experiments/knapen_AOT/AOT_stimuli/rescaled_final/1181_fw.mp4	0.0	346.0425488948822	1.0001559257507324
76	321.94794392585754	pulse	0	t		74.0	2.5	/experiments/knapen_AOT/AOT_stimuli/rescaled_final/1181_fw.mp4	0.0	346.21773290634155	
76	322.7729158401489	movie	1		244	74.0	2.5	/experiments/knapen_AOT/AOT_stimuli/rescaled_final/1181_fw.mp4	0.0	347.04270482063293	2.500380039215088
76	323.5481970310211	pulse	1	t		74.0	2.5	/experiments/knapen_AOT/AOT_stimuli/rescaled_final/1181_fw.mp4	0.0	347.8179860115051	
76	325.14841389656067	pulse	1	t		74.0	2.5	/experiments/knapen_AOT/AOT_stimuli/rescaled_final/1181_fw.mp4	0.0	349.4182028770447	
76	325.273295879364	fix_post	2		12	74.0	2.5	/experiments/knapen_AOT/AOT_stimuli/rescaled_final/1181_fw.mp4	0.0	349.543084859848	0.10002613067626953
77	325.3733220100403	fix_pre	0		119	75.0	2.5	blank	1.0	349.6431109905243	0.9918148517608643
77	326.36513686180115	movie	1		300	75.0	2.5	blank	1.0	350.63492584228516	2.5003931522369385
77	326.74895000457764	pulse	1	t		75.0	2.5	blank	1.0	351.01873898506165	
77	328.34901785850525	pulse	1	t		75.0	2.5	blank	1.0	352.61880683898926	
77	328.8655300140381	fix_post	2		12	75.0	2.5	blank	1.0	353.1353189945221	0.10007190704345703
78	328.96560192108154	fix_pre	0		119	76.0	2.5	/experiments/knapen_AOT/AOT_stimuli/rescaled_final/2084_fw.mp4	0.0	353.23539090156555	0.9917199611663818
78	329.9492349624634	pulse	0	t		76.0	2.5	/experiments/knapen_AOT/AOT_stimuli/rescaled_final/2084_fw.mp4	0.0	354.2190239429474	
78	329.9573218822479	movie	1		244	76.0	2.5	/experiments/knapen_AOT/AOT_stimuli/rescaled_final/2084_fw.mp4	0.0	354.22711086273193	2.5087811946868896
78	331.55067896842957	pulse	1	t		76.0	2.5	/experiments/knapen_AOT/AOT_stimuli/rescaled_final/2084_fw.mp4	0.0	355.8204679489136	
78	332.4661030769348	fix_post	2		12	76.0	2.5	/experiments/knapen_AOT/AOT_stimuli/rescaled_final/2084_fw.mp4	0.0	356.7358920574188	0.09998488426208496
79	332.5660879611969	fix_pre	0		120	77.0	2.5	/experiments/knapen_AOT/AOT_stimuli/rescaled_final/1791_rv.mp4	0.0	356.8358769416809	1.0001580715179443
79	333.1497628688812	pulse	0	t		77.0	2.5	/experiments/knapen_AOT/AOT_stimuli/rescaled_final/1791_rv.mp4	0.0	357.41955184936523	
79	333.56624603271484	movie	1		245	77.0	2.5	/experiments/knapen_AOT/AOT_stimuli/rescaled_final/1791_rv.mp4	0.0	357.83603501319885	2.500324010848999
79	334.7500669956207	pulse	1	t		77.0	2.5	/experiments/knapen_AOT/AOT_stimuli/rescaled_final/1791_rv.mp4	0.0	359.01985597610474	
79	336.06657004356384	fix_post	2		12	77.0	2.5	/experiments/knapen_AOT/AOT_stimuli/rescaled_final/1791_rv.mp4	0.0	360.33635902404785	0.10005784034729004
80	336.16662788391113	fix_pre	0		120	78.0	2.5	/experiments/knapen_AOT/AOT_stimuli/rescaled_final/1097_rv.mp4	0.0	360.43641686439514	1.0001661777496338
80	336.3501579761505	pulse	0	t		78.0	2.5	/experiments/knapen_AOT/AOT_stimuli/rescaled_final/1097_rv.mp4	0.0	360.6199469566345	
80	337.16679406166077	movie	1		245	78.0	2.5	/experiments/knapen_AOT/AOT_stimuli/rescaled_final/1097_rv.mp4	0.0	361.4365830421448	2.5003678798675537
80	337.9503860473633	pulse	1	t		78.0	2.5	/experiments/knapen_AOT/AOT_stimuli/rescaled_final/1097_rv.mp4	0.0	362.2201750278473	
80	339.5481300354004	pulse	1	t		78.0	2.5	/experiments/knapen_AOT/AOT_stimuli/rescaled_final/1097_rv.mp4	0.0	363.8179190158844	
80	339.6671619415283	fix_post	2		12	78.0	2.5	/experiments/knapen_AOT/AOT_stimuli/rescaled_final/1097_rv.mp4	0.0	363.93695092201233	0.09997892379760742
81	339.7671408653259	fix_pre	0		119	79.0	2.5	/experiments/knapen_AOT/AOT_stimuli/rescaled_final/1496_fw.mp4	0.0	364.03692984580994	0.991847038269043
81	340.75898790359497	movie	1		246	79.0	2.5	/experiments/knapen_AOT/AOT_stimuli/rescaled_final/1496_fw.mp4	0.0	365.028776884079	2.5003271102905273
81	341.15114998817444	pulse	1	t		79.0	2.5	/experiments/knapen_AOT/AOT_stimuli/rescaled_final/1496_fw.mp4	0.0	365.42093896865845	
81	342.75111293792725	pulse	1	t		79.0	2.5	/experiments/knapen_AOT/AOT_stimuli/rescaled_final/1496_fw.mp4	0.0	367.02090191841125	
81	343.2593150138855	fix_post	2		12	79.0	2.5	/experiments/knapen_AOT/AOT_stimuli/rescaled_final/1496_fw.mp4	0.0	367.5291039943695	0.10002398490905762
82	343.35933899879456	fix_pre	0		120	80.0	2.5	/experiments/knapen_AOT/AOT_stimuli/rescaled_final/0856_fw.mp4	0.0	367.62912797927856	1.0002520084381104
82	344.351350069046	pulse	0	t		80.0	2.5	/experiments/knapen_AOT/AOT_stimuli/rescaled_final/0856_fw.mp4	0.0	368.62113904953003	
82	344.35959100723267	movie	1		245	80.0	2.5	/experiments/knapen_AOT/AOT_stimuli/rescaled_final/0856_fw.mp4	0.0	368.6293799877167	2.5086050033569336
82	345.9532780647278	pulse	1	t		80.0	2.5	/experiments/knapen_AOT/AOT_stimuli/rescaled_final/0856_fw.mp4	0.0	370.2230670452118	
82	346.8681960105896	fix_post	2		12	80.0	2.5	/experiments/knapen_AOT/AOT_stimuli/rescaled_final/0856_fw.mp4	0.0	371.1379849910736	0.10002899169921875
83	346.9682250022888	fix_pre	0		120	81.0	2.5	/experiments/knapen_AOT/AOT_stimuli/rescaled_final/1155_rv.mp4	0.0	371.2380139827728	1.00016188621521
83	347.5519189834595	pulse	0	t		81.0	2.5	/experiments/knapen_AOT/AOT_stimuli/rescaled_final/1155_rv.mp4	0.0	371.8217079639435	
83	347.968386888504	movie	1		245	81.0	2.5	/experiments/knapen_AOT/AOT_stimuli/rescaled_final/1155_rv.mp4	0.0	372.23817586898804	2.500399112701416
83	349.1521589756012	pulse	1	t		81.0	2.5	/experiments/knapen_AOT/AOT_stimuli/rescaled_final/1155_rv.mp4	0.0	373.4219479560852	
83	350.46878600120544	fix_post	2		12	81.0	2.5	/experiments/knapen_AOT/AOT_stimuli/rescaled_final/1155_rv.mp4	0.0	374.73857498168945	0.0999898910522461
84	350.5687758922577	fix_pre	0		120	82.0	2.5	/experiments/knapen_AOT/AOT_stimuli/rescaled_final/1805_fw.mp4	0.0	374.8385648727417	1.0001261234283447
84	350.75231194496155	pulse	0	t		82.0	2.5	/experiments/knapen_AOT/AOT_stimuli/rescaled_final/1805_fw.mp4	0.0	375.02210092544556	
84	351.56890201568604	movie	1		244	82.0	2.5	/experiments/knapen_AOT/AOT_stimuli/rescaled_final/1805_fw.mp4	0.0	375.83869099617004	2.5003628730773926
84	352.3525140285492	pulse	1	t		82.0	2.5	/experiments/knapen_AOT/AOT_stimuli/rescaled_final/1805_fw.mp4	0.0	376.6223030090332	
84	353.9526090621948	pulse	1	t		82.0	2.5	/experiments/knapen_AOT/AOT_stimuli/rescaled_final/1805_fw.mp4	0.0	378.22239804267883	
84	354.0692648887634	fix_post	2		12	82.0	2.5	/experiments/knapen_AOT/AOT_stimuli/rescaled_final/1805_fw.mp4	0.0	378.33905386924744	0.1000220775604248
85	354.16928696632385	fix_pre	0		119	83.0	2.5	blank	1.0	378.43907594680786	0.9918179512023926
85	355.16110491752625	movie	1		300	83.0	2.5	blank	1.0	379.43089389801025	2.5003809928894043
85	355.5531589984894	pulse	1	t		83.0	2.5	blank	1.0	379.8229479789734	
85	357.1533019542694	pulse	1	t		83.0	2.5	blank	1.0	381.4230909347534	
85	357.66148591041565	fix_post	2		12	83.0	2.5	blank	1.0	381.93127489089966	0.09999608993530273
87	357.76148200035095	stim	0		1716					382.03127098083496	14.302219867706299
87	358.75346207618713	pulse	0	t						383.02325105667114	
87	360.3538579940796	pulse	0	t						384.6236469745636	
87	361.9540798664093	pulse	0	t						386.2238688468933	
87	363.5542838573456	pulse	0	t						387.8240728378296	
87	365.15435099601746	pulse	0	t						389.42413997650146	
87	366.75462794303894	pulse	0	t						391.02441692352295	
87	368.3549909591675	pulse	0	t						392.6247799396515	
87	369.9552118778229	pulse	0	t						394.2250008583069	
87	371.55539107322693	pulse	0	t						395.82518005371094	
