trial_nr	onset	event_type	phase	response	nr_frames	movie_index	movie_duration	movie_file	blank	onset_abs	duration
0	0.1748507022857666	stim	0		1					19.27260732650757	0.01654338836669922
0	0.17787814140319824	response	0	space						19.275634765625	
1	0.19139409065246582	stim	0		4612					19.289150714874268	38.44908142089844
1	38.630494117736816	pulse	0	t						57.72825074195862	
1	38.6404755115509	stim	1		1715					57.738232135772705	14.300509452819824
1	40.222758054733276	pulse	1	t						59.32051467895508	
1	41.822833776474	pulse	1	t						60.9205904006958	
1	43.42326259613037	pulse	1	t						62.52101922035217	
1	45.023221492767334	pulse	1	t						64.12097811698914	
1	46.623491048812866	pulse	1	t						65.72124767303467	
1	48.223711252212524	pulse	1	t						67.32146787643433	
1	49.823994398117065	pulse	1	t						68.92175102233887	
1	51.42419075965881	pulse	1	t						70.52194738388062	
2	52.94098496437073	fix_pre	0		11	0.0	2.5	/experiments/Knapen_AOT/AOT_stimuli/rescaled_final/1372_rv.mp4	0.0	72.03874158859253	0.1083526611328125
2	53.024503231048584	pulse	0	t		0.0	2.5	/experiments/Knapen_AOT/AOT_stimuli/rescaled_final/1372_rv.mp4	0.0	72.12225985527039	
2	53.04933762550354	movie	1		280	0.0	2.5	/experiments/Knapen_AOT/AOT_stimuli/rescaled_final/1372_rv.mp4	0.0	72.14709424972534	2.4919683933258057
2	54.623226165771484	pulse	1	t		0.0	2.5	/experiments/Knapen_AOT/AOT_stimuli/rescaled_final/1372_rv.mp4	0.0	73.72098278999329	
2	55.541306018829346	fix_post	2		12	0.0	2.5	/experiments/Knapen_AOT/AOT_stimuli/rescaled_final/1372_rv.mp4	0.0	74.63906264305115	0.10000777244567871
3	55.641313791275024	fix_pre	0		120	1.0	2.5	/experiments/Knapen_AOT/AOT_stimuli/rescaled_final/1551_fw.mp4	0.0	74.73907041549683	1.0085303783416748
3	56.225013971328735	pulse	0	t		1.0	2.5	/experiments/Knapen_AOT/AOT_stimuli/rescaled_final/1551_fw.mp4	0.0	75.32277059555054	
3	56.6498441696167	movie	1		286	1.0	2.5	/experiments/Knapen_AOT/AOT_stimuli/rescaled_final/1551_fw.mp4	0.0	75.7476007938385	2.4920196533203125
3	57.8232581615448	pulse	1	t		1.0	2.5	/experiments/Knapen_AOT/AOT_stimuli/rescaled_final/1551_fw.mp4	0.0	76.9210147857666	
3	59.14186382293701	fix_post	2		12	1.0	2.5	/experiments/Knapen_AOT/AOT_stimuli/rescaled_final/1551_fw.mp4	0.0	78.23962044715881	0.10001087188720703
4	59.24187469482422	fix_pre	0		120	2.0	2.5	/experiments/Knapen_AOT/AOT_stimuli/rescaled_final/1463_rv.mp4	0.0	78.33963131904602	1.008474588394165
4	59.425474882125854	pulse	0	t		2.0	2.5	/experiments/Knapen_AOT/AOT_stimuli/rescaled_final/1463_rv.mp4	0.0	78.52323150634766	
4	60.250349283218384	movie	1		287	2.0	2.5	/experiments/Knapen_AOT/AOT_stimuli/rescaled_final/1463_rv.mp4	0.0	79.34810590744019	2.492056131362915
4	61.02380967140198	pulse	1	t		2.0	2.5	/experiments/Knapen_AOT/AOT_stimuli/rescaled_final/1463_rv.mp4	0.0	80.12156629562378	
4	62.62390947341919	pulse	1	t		2.0	2.5	/experiments/Knapen_AOT/AOT_stimuli/rescaled_final/1463_rv.mp4	0.0	81.72166609764099	
4	62.7424054145813	fix_post	2		12	2.0	2.5	/experiments/Knapen_AOT/AOT_stimuli/rescaled_final/1463_rv.mp4	0.0	81.8401620388031	0.10000324249267578
5	62.842408657073975	fix_pre	0		120	3.0	2.5	/experiments/Knapen_AOT/AOT_stimuli/rescaled_final/1689_rv.mp4	0.0	81.94016528129578	1.0085935592651367
5	63.85100221633911	movie	1		285	3.0	2.5	/experiments/Knapen_AOT/AOT_stimuli/rescaled_final/1689_rv.mp4	0.0	82.94875884056091	2.4919233322143555
5	64.22481894493103	pulse	1	t		3.0	2.5	/experiments/Knapen_AOT/AOT_stimuli/rescaled_final/1689_rv.mp4	0.0	83.32257556915283	
5	65.82573318481445	pulse	1	t		3.0	2.5	/experiments/Knapen_AOT/AOT_stimuli/rescaled_final/1689_rv.mp4	0.0	84.92348980903625	
5	66.34292554855347	fix_post	2		12	3.0	2.5	/experiments/Knapen_AOT/AOT_stimuli/rescaled_final/1689_rv.mp4	0.0	85.44068217277527	0.10001850128173828
6	66.4429440498352	fix_pre	0		119	4.0	2.5	/experiments/Knapen_AOT/AOT_stimuli/rescaled_final/0722_rv.mp4	0.0	85.540700674057	1.000115156173706
6	67.42664098739624	pulse	0	t		4.0	2.5	/experiments/Knapen_AOT/AOT_stimuli/rescaled_final/0722_rv.mp4	0.0	86.52439761161804	
6	67.44305920600891	movie	1		289	4.0	2.5	/experiments/Knapen_AOT/AOT_stimuli/rescaled_final/0722_rv.mp4	0.0	86.54081583023071	2.5004539489746094
6	69.02542972564697	pulse	1	t		4.0	2.5	/experiments/Knapen_AOT/AOT_stimuli/rescaled_final/0722_rv.mp4	0.0	88.12318634986877	
6	69.94351315498352	fix_post	2		12	4.0	2.5	/experiments/Knapen_AOT/AOT_stimuli/rescaled_final/0722_rv.mp4	0.0	89.04126977920532	0.0999753475189209
7	70.04348850250244	fix_pre	0		120	5.0	2.5	/experiments/Knapen_AOT/AOT_stimuli/rescaled_final/0914_rv.mp4	0.0	89.14124512672424	1.0085017681121826
7	70.62712693214417	pulse	0	t		5.0	2.5	/experiments/Knapen_AOT/AOT_stimuli/rescaled_final/0914_rv.mp4	0.0	89.72488355636597	
7	71.05199027061462	movie	1		287	5.0	2.5	/experiments/Knapen_AOT/AOT_stimuli/rescaled_final/0914_rv.mp4	0.0	90.14974689483643	2.4920220375061035
7	72.22536563873291	pulse	1	t		5.0	2.5	/experiments/Knapen_AOT/AOT_stimuli/rescaled_final/0914_rv.mp4	0.0	91.32312226295471	
7	73.54401230812073	fix_post	2		12	5.0	2.5	/experiments/Knapen_AOT/AOT_stimuli/rescaled_final/0914_rv.mp4	0.0	92.64176893234253	0.10005307197570801
8	73.64406538009644	fix_pre	0		120	6.0	2.5	/experiments/Knapen_AOT/AOT_stimuli/rescaled_final/1430_fw.mp4	0.0	92.74182200431824	1.008495569229126
8	73.82803440093994	pulse	0	t		6.0	2.5	/experiments/Knapen_AOT/AOT_stimuli/rescaled_final/1430_fw.mp4	0.0	92.92579102516174	
8	74.65256094932556	movie	1		288	6.0	2.5	/experiments/Knapen_AOT/AOT_stimuli/rescaled_final/1430_fw.mp4	0.0	93.75031757354736	2.49200701713562
8	75.42573928833008	pulse	1	t		6.0	2.5	/experiments/Knapen_AOT/AOT_stimuli/rescaled_final/1430_fw.mp4	0.0	94.52349591255188	
8	77.02610063552856	pulse	1	t		6.0	2.5	/experiments/Knapen_AOT/AOT_stimuli/rescaled_final/1430_fw.mp4	0.0	96.12385725975037	
8	77.14456796646118	fix_post	2		12	6.0	2.5	/experiments/Knapen_AOT/AOT_stimuli/rescaled_final/1430_fw.mp4	0.0	96.24232459068298	0.10002017021179199
9	77.24458813667297	fix_pre	0		120	7.0	2.5	blank	1.0	96.34234476089478	1.0001251697540283
9	78.244713306427	movie	1		300	7.0	2.5	blank	1.0	97.3424699306488	2.5003740787506104
9	78.62071061134338	pulse	1	t		7.0	2.5	blank	1.0	97.71846723556519	
9	80.22084164619446	pulse	1	t		7.0	2.5	blank	1.0	99.31859827041626	
9	80.74508738517761	fix_post	2		12	7.0	2.5	blank	1.0	99.84284400939941	0.10002350807189941
10	80.84511089324951	fix_pre	0		118	8.0	2.5	/experiments/Knapen_AOT/AOT_stimuli/rescaled_final/2083_fw.mp4	0.0	99.94286751747131	0.991863489151001
10	81.82054662704468	pulse	0	t		8.0	2.5	/experiments/Knapen_AOT/AOT_stimuli/rescaled_final/2083_fw.mp4	0.0	100.91830325126648	
10	81.83697438240051	movie	1		271	8.0	2.5	/experiments/Knapen_AOT/AOT_stimuli/rescaled_final/2083_fw.mp4	0.0	100.93473100662231	2.5003182888031006
10	83.42080664634705	pulse	1	t		8.0	2.5	/experiments/Knapen_AOT/AOT_stimuli/rescaled_final/2083_fw.mp4	0.0	102.51856327056885	
10	84.33729267120361	fix_post	2		12	8.0	2.5	/experiments/Knapen_AOT/AOT_stimuli/rescaled_final/2083_fw.mp4	0.0	103.43504929542542	0.1000833511352539
11	84.43737602233887	fix_pre	0		120	9.0	2.5	/experiments/Knapen_AOT/AOT_stimuli/rescaled_final/1090_rv.mp4	0.0	103.53513264656067	1.008451223373413
11	85.02098035812378	pulse	0	t		9.0	2.5	/experiments/Knapen_AOT/AOT_stimuli/rescaled_final/1090_rv.mp4	0.0	104.11873698234558	
11	85.44582724571228	movie	1		286	9.0	2.5	/experiments/Knapen_AOT/AOT_stimuli/rescaled_final/1090_rv.mp4	0.0	104.54358386993408	2.492086172103882
11	86.62107992172241	pulse	1	t		9.0	2.5	/experiments/Knapen_AOT/AOT_stimuli/rescaled_final/1090_rv.mp4	0.0	105.71883654594421	
11	87.93791341781616	fix_post	2		12	9.0	2.5	/experiments/Knapen_AOT/AOT_stimuli/rescaled_final/1090_rv.mp4	0.0	107.03567004203796	0.09997153282165527
12	88.03788495063782	fix_pre	0		120	10.0	2.5	/experiments/Knapen_AOT/AOT_stimuli/rescaled_final/0019_fw.mp4	0.0	107.13564157485962	1.0084786415100098
12	88.221435546875	pulse	0	t		10.0	2.5	/experiments/Knapen_AOT/AOT_stimuli/rescaled_final/0019_fw.mp4	0.0	107.3191921710968	
12	89.04636359214783	movie	1		268	10.0	2.5	/experiments/Knapen_AOT/AOT_stimuli/rescaled_final/0019_fw.mp4	0.0	108.14412021636963	2.492018699645996
12	89.8209400177002	pulse	1	t		10.0	2.5	/experiments/Knapen_AOT/AOT_stimuli/rescaled_final/0019_fw.mp4	0.0	108.918696641922	
12	91.42213916778564	pulse	1	t		10.0	2.5	/experiments/Knapen_AOT/AOT_stimuli/rescaled_final/0019_fw.mp4	0.0	110.51989579200745	
12	91.53838229179382	fix_post	2		12	10.0	2.5	/experiments/Knapen_AOT/AOT_stimuli/rescaled_final/0019_fw.mp4	0.0	110.63613891601562	0.10001969337463379
13	91.63840198516846	fix_pre	0		120	11.0	2.5	/experiments/Knapen_AOT/AOT_stimuli/rescaled_final/1938_rv.mp4	0.0	110.73615860939026	1.0084953308105469
13	92.646897315979	movie	1		291	11.0	2.5	/experiments/Knapen_AOT/AOT_stimuli/rescaled_final/1938_rv.mp4	0.0	111.7446539402008	2.492021322250366
13	93.02237796783447	pulse	1	t		11.0	2.5	/experiments/Knapen_AOT/AOT_stimuli/rescaled_final/1938_rv.mp4	0.0	112.12013459205627	
13	94.62069320678711	pulse	1	t		11.0	2.5	/experiments/Knapen_AOT/AOT_stimuli/rescaled_final/1938_rv.mp4	0.0	113.71844983100891	
13	95.13891863822937	fix_post	2		12	11.0	2.5	/experiments/Knapen_AOT/AOT_stimuli/rescaled_final/1938_rv.mp4	0.0	114.23667526245117	0.10001921653747559
14	95.23893785476685	fix_pre	0		119	12.0	2.5	blank	1.0	114.33669447898865	0.9918375015258789
14	96.22266960144043	pulse	0	t		12.0	2.5	blank	1.0	115.32042622566223	
14	96.23077535629272	movie	1		301	12.0	2.5	blank	1.0	115.32853198051453	2.5087082386016846
14	97.82288813591003	pulse	1	t		12.0	2.5	blank	1.0	116.92064476013184	
14	98.73948359489441	fix_post	2		12	12.0	2.5	blank	1.0	117.83724021911621	0.09999346733093262
15	98.83947706222534	fix_pre	0		120	13.0	2.5	/experiments/Knapen_AOT/AOT_stimuli/rescaled_final/0120_fw.mp4	0.0	117.93723368644714	1.008554220199585
15	99.42325735092163	pulse	0	t		13.0	2.5	/experiments/Knapen_AOT/AOT_stimuli/rescaled_final/0120_fw.mp4	0.0	118.52101397514343	
15	99.84803128242493	movie	1		285	13.0	2.5	/experiments/Knapen_AOT/AOT_stimuli/rescaled_final/0120_fw.mp4	0.0	118.94578790664673	2.491989850997925
15	101.02148199081421	pulse	1	t		13.0	2.5	/experiments/Knapen_AOT/AOT_stimuli/rescaled_final/0120_fw.mp4	0.0	120.11923861503601	
15	102.34002113342285	fix_post	2		12	13.0	2.5	/experiments/Knapen_AOT/AOT_stimuli/rescaled_final/0120_fw.mp4	0.0	121.43777775764465	0.09999632835388184
16	102.44001746177673	fix_pre	0		120	14.0	2.5	/experiments/Knapen_AOT/AOT_stimuli/rescaled_final/1083_rv.mp4	0.0	121.53777408599854	1.008488416671753
16	102.62363076210022	pulse	0	t		14.0	2.5	/experiments/Knapen_AOT/AOT_stimuli/rescaled_final/1083_rv.mp4	0.0	121.72138738632202	
16	103.44850587844849	movie	1		285	14.0	2.5	/experiments/Knapen_AOT/AOT_stimuli/rescaled_final/1083_rv.mp4	0.0	122.54626250267029	2.492050886154175
16	104.22226023674011	pulse	1	t		14.0	2.5	/experiments/Knapen_AOT/AOT_stimuli/rescaled_final/1083_rv.mp4	0.0	123.32001686096191	
16	105.82189321517944	pulse	1	t		14.0	2.5	/experiments/Knapen_AOT/AOT_stimuli/rescaled_final/1083_rv.mp4	0.0	124.91964983940125	
16	105.94055676460266	fix_post	2		12	14.0	2.5	/experiments/Knapen_AOT/AOT_stimuli/rescaled_final/1083_rv.mp4	0.0	125.03831338882446	0.10002326965332031
17	106.04058003425598	fix_pre	0		120	15.0	2.5	/experiments/Knapen_AOT/AOT_stimuli/rescaled_final/2102_rv.mp4	0.0	125.13833665847778	1.0085206031799316
17	107.04910063743591	movie	1		278	15.0	2.5	/experiments/Knapen_AOT/AOT_stimuli/rescaled_final/2102_rv.mp4	0.0	126.14685726165771	2.4919815063476562
17	107.42399263381958	pulse	1	t		15.0	2.5	/experiments/Knapen_AOT/AOT_stimuli/rescaled_final/2102_rv.mp4	0.0	126.52174925804138	
17	109.0225887298584	pulse	1	t		15.0	2.5	/experiments/Knapen_AOT/AOT_stimuli/rescaled_final/2102_rv.mp4	0.0	128.1203453540802	
17	109.54108214378357	fix_post	2		12	15.0	2.5	/experiments/Knapen_AOT/AOT_stimuli/rescaled_final/2102_rv.mp4	0.0	128.63883876800537	0.1000216007232666
18	109.64110374450684	fix_pre	0		119	16.0	2.5	/experiments/Knapen_AOT/AOT_stimuli/rescaled_final/0777_fw.mp4	0.0	128.73886036872864	1.0001933574676514
18	110.62485694885254	pulse	0	t		16.0	2.5	/experiments/Knapen_AOT/AOT_stimuli/rescaled_final/0777_fw.mp4	0.0	129.72261357307434	
18	110.64129710197449	movie	1		281	16.0	2.5	/experiments/Knapen_AOT/AOT_stimuli/rescaled_final/0777_fw.mp4	0.0	129.7390537261963	2.500333070755005
18	112.22377848625183	pulse	1	t		16.0	2.5	/experiments/Knapen_AOT/AOT_stimuli/rescaled_final/0777_fw.mp4	0.0	131.32153511047363	
18	113.14163017272949	fix_post	2		12	16.0	2.5	/experiments/Knapen_AOT/AOT_stimuli/rescaled_final/0777_fw.mp4	0.0	132.2393867969513	0.10002279281616211
19	113.24165296554565	fix_pre	0		120	17.0	2.5	/experiments/Knapen_AOT/AOT_stimuli/rescaled_final/1350_rv.mp4	0.0	132.33940958976746	1.0085642337799072
19	113.82529044151306	pulse	0	t		17.0	2.5	/experiments/Knapen_AOT/AOT_stimuli/rescaled_final/1350_rv.mp4	0.0	132.92304706573486	
19	114.25021719932556	movie	1		270	17.0	2.5	/experiments/Knapen_AOT/AOT_stimuli/rescaled_final/1350_rv.mp4	0.0	133.34797382354736	2.491954803466797
19	115.42568445205688	pulse	1	t		17.0	2.5	/experiments/Knapen_AOT/AOT_stimuli/rescaled_final/1350_rv.mp4	0.0	134.5234410762787	
19	116.74217200279236	fix_post	2		12	17.0	2.5	/experiments/Knapen_AOT/AOT_stimuli/rescaled_final/1350_rv.mp4	0.0	135.83992862701416	0.10007882118225098
20	116.84225082397461	fix_pre	0		120	18.0	2.5	/experiments/Knapen_AOT/AOT_stimuli/rescaled_final/0284_rv.mp4	0.0	135.9400074481964	1.0084526538848877
20	117.0259735584259	pulse	0	t		18.0	2.5	/experiments/Knapen_AOT/AOT_stimuli/rescaled_final/0284_rv.mp4	0.0	136.1237301826477	
20	117.8507034778595	movie	1		274	18.0	2.5	/experiments/Knapen_AOT/AOT_stimuli/rescaled_final/0284_rv.mp4	0.0	136.9484601020813	2.492018699645996
20	118.62457966804504	pulse	1	t		18.0	2.5	/experiments/Knapen_AOT/AOT_stimuli/rescaled_final/0284_rv.mp4	0.0	137.72233629226685	
20	120.22432088851929	pulse	1	t		18.0	2.5	/experiments/Knapen_AOT/AOT_stimuli/rescaled_final/0284_rv.mp4	0.0	139.3220775127411	
20	120.3427221775055	fix_post	2		12	18.0	2.5	/experiments/Knapen_AOT/AOT_stimuli/rescaled_final/0284_rv.mp4	0.0	139.4404788017273	0.1000211238861084
21	120.4427433013916	fix_pre	0		120	19.0	2.5	blank	1.0	139.5404999256134	1.0001533031463623
21	121.44289660453796	movie	1		300	19.0	2.5	blank	1.0	140.54065322875977	2.5003504753112793
21	121.826486825943	pulse	1	t		19.0	2.5	blank	1.0	140.9242434501648	
21	123.42669725418091	pulse	1	t		19.0	2.5	blank	1.0	142.5244538784027	
21	123.94324707984924	fix_post	2		12	19.0	2.5	blank	1.0	143.04100370407104	0.10006403923034668
22	124.04331111907959	fix_pre	0		119	20.0	2.5	/experiments/Knapen_AOT/AOT_stimuli/rescaled_final/1254_fw.mp4	0.0	143.1410677433014	1.0001258850097656
22	125.02694821357727	pulse	0	t		20.0	2.5	/experiments/Knapen_AOT/AOT_stimuli/rescaled_final/1254_fw.mp4	0.0	144.12470483779907	
22	125.04343700408936	movie	1		270	20.0	2.5	/experiments/Knapen_AOT/AOT_stimuli/rescaled_final/1254_fw.mp4	0.0	144.14119362831116	2.500361680984497
22	126.62571549415588	pulse	1	t		20.0	2.5	/experiments/Knapen_AOT/AOT_stimuli/rescaled_final/1254_fw.mp4	0.0	145.72347211837769	
22	127.54379868507385	fix_post	2		12	20.0	2.5	/experiments/Knapen_AOT/AOT_stimuli/rescaled_final/1254_fw.mp4	0.0	146.64155530929565	0.10008454322814941
23	127.643883228302	fix_pre	0		120	21.0	2.5	/experiments/Knapen_AOT/AOT_stimuli/rescaled_final/0921_fw.mp4	0.0	146.7416398525238	1.0084667205810547
23	128.22752904891968	pulse	0	t		21.0	2.5	/experiments/Knapen_AOT/AOT_stimuli/rescaled_final/0921_fw.mp4	0.0	147.32528567314148	
23	128.65234994888306	movie	1		284	21.0	2.5	/experiments/Knapen_AOT/AOT_stimuli/rescaled_final/0921_fw.mp4	0.0	147.75010657310486	2.491995334625244
23	129.82590174674988	pulse	1	t		21.0	2.5	/experiments/Knapen_AOT/AOT_stimuli/rescaled_final/0921_fw.mp4	0.0	148.92365837097168	
23	131.1443452835083	fix_post	2		12	21.0	2.5	/experiments/Knapen_AOT/AOT_stimuli/rescaled_final/0921_fw.mp4	0.0	150.2421019077301	0.10003900527954102
24	131.24438428878784	fix_pre	0		120	22.0	2.5	/experiments/Knapen_AOT/AOT_stimuli/rescaled_final/0402_fw.mp4	0.0	150.34214091300964	1.0085210800170898
24	131.42791485786438	pulse	0	t		22.0	2.5	/experiments/Knapen_AOT/AOT_stimuli/rescaled_final/0402_fw.mp4	0.0	150.52567148208618	
24	132.25290536880493	movie	1		280	22.0	2.5	/experiments/Knapen_AOT/AOT_stimuli/rescaled_final/0402_fw.mp4	0.0	151.35066199302673	2.492027759552002
24	133.0260808467865	pulse	1	t		22.0	2.5	/experiments/Knapen_AOT/AOT_stimuli/rescaled_final/0402_fw.mp4	0.0	152.1238374710083	
24	134.62654447555542	pulse	1	t		22.0	2.5	/experiments/Knapen_AOT/AOT_stimuli/rescaled_final/0402_fw.mp4	0.0	153.72430109977722	
24	134.74493312835693	fix_post	2		12	22.0	2.5	/experiments/Knapen_AOT/AOT_stimuli/rescaled_final/0402_fw.mp4	0.0	153.84268975257874	0.09996914863586426
25	134.8449022769928	fix_pre	0		120	23.0	2.5	/experiments/Knapen_AOT/AOT_stimuli/rescaled_final/1790_fw.mp4	0.0	153.9426589012146	1.008479356765747
25	135.85338163375854	movie	1		264	23.0	2.5	/experiments/Knapen_AOT/AOT_stimuli/rescaled_final/1790_fw.mp4	0.0	154.95113825798035	2.492048501968384
25	136.22721457481384	pulse	1	t		23.0	2.5	/experiments/Knapen_AOT/AOT_stimuli/rescaled_final/1790_fw.mp4	0.0	155.32497119903564	
25	137.82072186470032	pulse	1	t		23.0	2.5	/experiments/Knapen_AOT/AOT_stimuli/rescaled_final/1790_fw.mp4	0.0	156.91847848892212	
25	138.34543013572693	fix_post	2		12	23.0	2.5	/experiments/Knapen_AOT/AOT_stimuli/rescaled_final/1790_fw.mp4	0.0	157.44318675994873	0.1000680923461914
26	138.44549822807312	fix_pre	0		118	24.0	2.5	/experiments/Knapen_AOT/AOT_stimuli/rescaled_final/1938_rv.mp4	0.0	157.54325485229492	0.9917652606964111
26	139.42081594467163	pulse	0	t		24.0	2.5	/experiments/Knapen_AOT/AOT_stimuli/rescaled_final/1938_rv.mp4	0.0	158.51857256889343	
26	139.43726348876953	movie	1		288	24.0	2.5	/experiments/Knapen_AOT/AOT_stimuli/rescaled_final/1938_rv.mp4	0.0	158.53502011299133	2.5003652572631836
26	141.0196464061737	pulse	1	t		24.0	2.5	/experiments/Knapen_AOT/AOT_stimuli/rescaled_final/1938_rv.mp4	0.0	160.1174030303955	
26	141.93762874603271	fix_post	2		12	24.0	2.5	/experiments/Knapen_AOT/AOT_stimuli/rescaled_final/1938_rv.mp4	0.0	161.03538537025452	0.10001015663146973
27	142.03763890266418	fix_pre	0		120	25.0	2.5	/experiments/Knapen_AOT/AOT_stimuli/rescaled_final/1617_rv.mp4	0.0	161.135395526886	1.0084810256958008
27	142.62149691581726	pulse	0	t		25.0	2.5	/experiments/Knapen_AOT/AOT_stimuli/rescaled_final/1617_rv.mp4	0.0	161.71925354003906	
27	143.04611992835999	movie	1		286	25.0	2.5	/experiments/Knapen_AOT/AOT_stimuli/rescaled_final/1617_rv.mp4	0.0	162.1438765525818	2.492067813873291
27	144.22151851654053	pulse	1	t		25.0	2.5	/experiments/Knapen_AOT/AOT_stimuli/rescaled_final/1617_rv.mp4	0.0	163.31927514076233	
27	145.53818774223328	fix_post	2		12	25.0	2.5	/experiments/Knapen_AOT/AOT_stimuli/rescaled_final/1617_rv.mp4	0.0	164.63594436645508	0.10002851486206055
28	145.63821625709534	fix_pre	0		120	26.0	2.5	blank	1.0	164.73597288131714	1.0002119541168213
28	145.82177066802979	pulse	0	t		26.0	2.5	blank	1.0	164.9195272922516	
28	146.63842821121216	movie	1		300	26.0	2.5	blank	1.0	165.73618483543396	2.500282049179077
28	147.42200303077698	pulse	1	t		26.0	2.5	blank	1.0	166.51975965499878	
28	149.0222716331482	pulse	1	t		26.0	2.5	blank	1.0	168.12002825737	
28	149.13871026039124	fix_post	2		12	26.0	2.5	blank	1.0	168.23646688461304	0.10001254081726074
29	149.2387228012085	fix_pre	0		120	27.0	2.5	/experiments/Knapen_AOT/AOT_stimuli/rescaled_final/0563_rv.mp4	0.0	168.3364794254303	1.008516788482666
29	150.24723958969116	movie	1		273	27.0	2.5	/experiments/Knapen_AOT/AOT_stimuli/rescaled_final/0563_rv.mp4	0.0	169.34499621391296	2.492021083831787
29	150.62063694000244	pulse	1	t		27.0	2.5	/experiments/Knapen_AOT/AOT_stimuli/rescaled_final/0563_rv.mp4	0.0	169.71839356422424	
29	152.22083640098572	pulse	1	t		27.0	2.5	/experiments/Knapen_AOT/AOT_stimuli/rescaled_final/0563_rv.mp4	0.0	171.31859302520752	
29	152.73926067352295	fix_post	2		12	27.0	2.5	/experiments/Knapen_AOT/AOT_stimuli/rescaled_final/0563_rv.mp4	0.0	171.83701729774475	0.10001611709594727
30	152.8392767906189	fix_pre	0		119	28.0	2.5	/experiments/Knapen_AOT/AOT_stimuli/rescaled_final/1850_fw.mp4	0.0	171.9370334148407	1.0001206398010254
30	153.82297682762146	pulse	0	t		28.0	2.5	/experiments/Knapen_AOT/AOT_stimuli/rescaled_final/1850_fw.mp4	0.0	172.92073345184326	
30	153.83939743041992	movie	1		280	28.0	2.5	/experiments/Knapen_AOT/AOT_stimuli/rescaled_final/1850_fw.mp4	0.0	172.93715405464172	2.5004966259002686
30	155.42189478874207	pulse	1	t		28.0	2.5	/experiments/Knapen_AOT/AOT_stimuli/rescaled_final/1850_fw.mp4	0.0	174.51965141296387	
30	156.3398940563202	fix_post	2		12	28.0	2.5	/experiments/Knapen_AOT/AOT_stimuli/rescaled_final/1850_fw.mp4	0.0	175.437650680542	0.0999305248260498
31	156.43982458114624	fix_pre	0		120	29.0	2.5	/experiments/Knapen_AOT/AOT_stimuli/rescaled_final/1905_fw.mp4	0.0	175.53758120536804	1.0085031986236572
31	157.02345824241638	pulse	0	t		29.0	2.5	/experiments/Knapen_AOT/AOT_stimuli/rescaled_final/1905_fw.mp4	0.0	176.12121486663818	
31	157.4483277797699	movie	1		291	29.0	2.5	/experiments/Knapen_AOT/AOT_stimuli/rescaled_final/1905_fw.mp4	0.0	176.5460844039917	2.4920153617858887
31	158.62192344665527	pulse	1	t		29.0	2.5	/experiments/Knapen_AOT/AOT_stimuli/rescaled_final/1905_fw.mp4	0.0	177.71968007087708	
31	159.9403431415558	fix_post	2		12	29.0	2.5	/experiments/Knapen_AOT/AOT_stimuli/rescaled_final/1905_fw.mp4	0.0	179.0380997657776	0.0999915599822998
32	160.0403347015381	fix_pre	0		120	30.0	2.5	/experiments/Knapen_AOT/AOT_stimuli/rescaled_final/0921_fw.mp4	0.0	179.1380913257599	1.0085813999176025
32	160.2240800857544	pulse	0	t		30.0	2.5	/experiments/Knapen_AOT/AOT_stimuli/rescaled_final/0921_fw.mp4	0.0	179.3218367099762	
32	161.0489161014557	movie	1		280	30.0	2.5	/experiments/Knapen_AOT/AOT_stimuli/rescaled_final/0921_fw.mp4	0.0	180.1466727256775	2.4919726848602295
32	161.82240629196167	pulse	1	t		30.0	2.5	/experiments/Knapen_AOT/AOT_stimuli/rescaled_final/0921_fw.mp4	0.0	180.92016291618347	
32	163.4224603176117	pulse	1	t		30.0	2.5	/experiments/Knapen_AOT/AOT_stimuli/rescaled_final/0921_fw.mp4	0.0	182.5202169418335	
32	163.54088878631592	fix_post	2		12	30.0	2.5	/experiments/Knapen_AOT/AOT_stimuli/rescaled_final/0921_fw.mp4	0.0	182.63864541053772	0.10001111030578613
33	163.6408998966217	fix_pre	0		120	31.0	2.5	/experiments/Knapen_AOT/AOT_stimuli/rescaled_final/1162_rv.mp4	0.0	182.7386565208435	1.0085172653198242
33	164.64941716194153	movie	1		269	31.0	2.5	/experiments/Knapen_AOT/AOT_stimuli/rescaled_final/1162_rv.mp4	0.0	183.74717378616333	2.4921560287475586
33	165.0243730545044	pulse	1	t		31.0	2.5	/experiments/Knapen_AOT/AOT_stimuli/rescaled_final/1162_rv.mp4	0.0	184.1221296787262	
33	166.6230366230011	pulse	1	t		31.0	2.5	/experiments/Knapen_AOT/AOT_stimuli/rescaled_final/1162_rv.mp4	0.0	185.7207932472229	
33	167.1415731906891	fix_post	2		12	31.0	2.5	/experiments/Knapen_AOT/AOT_stimuli/rescaled_final/1162_rv.mp4	0.0	186.2393298149109	0.09990477561950684
34	167.2414779663086	fix_pre	0		119	32.0	2.5	/experiments/Knapen_AOT/AOT_stimuli/rescaled_final/2165_rv.mp4	0.0	186.3392345905304	1.0001106262207031
34	168.2251968383789	pulse	0	t		32.0	2.5	/experiments/Knapen_AOT/AOT_stimuli/rescaled_final/2165_rv.mp4	0.0	187.3229534626007	
34	168.2415885925293	movie	1		279	32.0	2.5	/experiments/Knapen_AOT/AOT_stimuli/rescaled_final/2165_rv.mp4	0.0	187.3393452167511	2.5003786087036133
34	169.82397055625916	pulse	1	t		32.0	2.5	/experiments/Knapen_AOT/AOT_stimuli/rescaled_final/2165_rv.mp4	0.0	188.92172718048096	
34	170.7419672012329	fix_post	2		12	32.0	2.5	/experiments/Knapen_AOT/AOT_stimuli/rescaled_final/2165_rv.mp4	0.0	189.8397238254547	0.10001778602600098
35	170.8419849872589	fix_pre	0		120	33.0	2.5	/experiments/Knapen_AOT/AOT_stimuli/rescaled_final/1782_fw.mp4	0.0	189.9397416114807	1.008486032485962
35	171.42573356628418	pulse	0	t		33.0	2.5	/experiments/Knapen_AOT/AOT_stimuli/rescaled_final/1782_fw.mp4	0.0	190.52349019050598	
35	171.85047101974487	movie	1		278	33.0	2.5	/experiments/Knapen_AOT/AOT_stimuli/rescaled_final/1782_fw.mp4	0.0	190.94822764396667	2.4921176433563232
35	173.0256633758545	pulse	1	t		33.0	2.5	/experiments/Knapen_AOT/AOT_stimuli/rescaled_final/1782_fw.mp4	0.0	192.1234200000763	
35	174.3425886631012	fix_post	2		12	33.0	2.5	/experiments/Knapen_AOT/AOT_stimuli/rescaled_final/1782_fw.mp4	0.0	193.440345287323	0.09994387626647949
36	174.44253253936768	fix_pre	0		120	34.0	2.5	/experiments/Knapen_AOT/AOT_stimuli/rescaled_final/0654_rv.mp4	0.0	193.54028916358948	1.0085184574127197
36	174.62619805335999	pulse	0	t		34.0	2.5	/experiments/Knapen_AOT/AOT_stimuli/rescaled_final/0654_rv.mp4	0.0	193.7239546775818	
36	175.4510509967804	movie	1		264	34.0	2.5	/experiments/Knapen_AOT/AOT_stimuli/rescaled_final/0654_rv.mp4	0.0	194.5488076210022	2.491994619369507
36	176.22425150871277	pulse	1	t		34.0	2.5	/experiments/Knapen_AOT/AOT_stimuli/rescaled_final/0654_rv.mp4	0.0	195.32200813293457	
36	177.8267855644226	pulse	1	t		34.0	2.5	/experiments/Knapen_AOT/AOT_stimuli/rescaled_final/0654_rv.mp4	0.0	196.9245421886444	
36	177.9430456161499	fix_post	2		12	34.0	2.5	/experiments/Knapen_AOT/AOT_stimuli/rescaled_final/0654_rv.mp4	0.0	197.0408022403717	0.10012483596801758
37	178.04317045211792	fix_pre	0		120	35.0	2.5	blank	1.0	197.14092707633972	1.000225305557251
37	179.04339575767517	movie	1		300	35.0	2.5	blank	1.0	198.14115238189697	2.500209331512451
37	179.42737126350403	pulse	1	t		35.0	2.5	blank	1.0	198.52512788772583	
37	181.0275330543518	pulse	1	t		35.0	2.5	blank	1.0	200.1252896785736	
37	181.54360508918762	fix_post	2		12	35.0	2.5	blank	1.0	200.64136171340942	0.10004091262817383
38	181.6436460018158	fix_pre	0		119	36.0	2.5	/experiments/Knapen_AOT/AOT_stimuli/rescaled_final/0013_rv.mp4	0.0	200.7414026260376	1.000140905380249
38	182.62063097953796	pulse	0	t		36.0	2.5	/experiments/Knapen_AOT/AOT_stimuli/rescaled_final/0013_rv.mp4	0.0	201.71838760375977	
38	182.64378690719604	movie	1		272	36.0	2.5	/experiments/Knapen_AOT/AOT_stimuli/rescaled_final/0013_rv.mp4	0.0	201.74154353141785	2.5003340244293213
38	184.22617053985596	pulse	1	t		36.0	2.5	/experiments/Knapen_AOT/AOT_stimuli/rescaled_final/0013_rv.mp4	0.0	203.32392716407776	
38	185.14412093162537	fix_post	2		12	36.0	2.5	/experiments/Knapen_AOT/AOT_stimuli/rescaled_final/0013_rv.mp4	0.0	204.24187755584717	0.10004258155822754
39	185.2441635131836	fix_pre	0		120	37.0	2.5	/experiments/Knapen_AOT/AOT_stimuli/rescaled_final/0604_rv.mp4	0.0	204.3419201374054	1.0084545612335205
39	185.82779550552368	pulse	0	t		37.0	2.5	/experiments/Knapen_AOT/AOT_stimuli/rescaled_final/0604_rv.mp4	0.0	204.92555212974548	
39	186.25261807441711	movie	1		283	37.0	2.5	/experiments/Knapen_AOT/AOT_stimuli/rescaled_final/0604_rv.mp4	0.0	205.35037469863892	2.4920907020568848
39	187.42673230171204	pulse	1	t		37.0	2.5	/experiments/Knapen_AOT/AOT_stimuli/rescaled_final/0604_rv.mp4	0.0	206.52448892593384	
39	188.744708776474	fix_post	2		12	37.0	2.5	/experiments/Knapen_AOT/AOT_stimuli/rescaled_final/0604_rv.mp4	0.0	207.8424654006958	0.0999906063079834
40	188.84469938278198	fix_pre	0		120	38.0	2.5	/experiments/Knapen_AOT/AOT_stimuli/rescaled_final/0455_rv.mp4	0.0	207.94245600700378	1.0084857940673828
40	189.0202100276947	pulse	0	t		38.0	2.5	/experiments/Knapen_AOT/AOT_stimuli/rescaled_final/0455_rv.mp4	0.0	208.1179666519165	
40	189.85318517684937	movie	1		286	38.0	2.5	/experiments/Knapen_AOT/AOT_stimuli/rescaled_final/0455_rv.mp4	0.0	208.95094180107117	2.4920263290405273
40	190.62024235725403	pulse	1	t		38.0	2.5	/experiments/Knapen_AOT/AOT_stimuli/rescaled_final/0455_rv.mp4	0.0	209.71799898147583	
40	192.22053956985474	pulse	1	t		38.0	2.5	/experiments/Knapen_AOT/AOT_stimuli/rescaled_final/0455_rv.mp4	0.0	211.31829619407654	
40	192.3452115058899	fix_post	2		12	38.0	2.5	/experiments/Knapen_AOT/AOT_stimuli/rescaled_final/0455_rv.mp4	0.0	211.4429681301117	0.10000443458557129
41	192.44521594047546	fix_pre	0		120	39.0	2.5	/experiments/Knapen_AOT/AOT_stimuli/rescaled_final/1102_rv.mp4	0.0	211.54297256469727	1.0085275173187256
41	193.4537434577942	movie	1		287	39.0	2.5	/experiments/Knapen_AOT/AOT_stimuli/rescaled_final/1102_rv.mp4	0.0	212.551500082016	2.4920289516448975
41	193.82069277763367	pulse	1	t		39.0	2.5	/experiments/Knapen_AOT/AOT_stimuli/rescaled_final/1102_rv.mp4	0.0	212.91844940185547	
41	195.42097306251526	pulse	1	t		39.0	2.5	/experiments/Knapen_AOT/AOT_stimuli/rescaled_final/1102_rv.mp4	0.0	214.51872968673706	
41	195.9457724094391	fix_post	2		12	39.0	2.5	/experiments/Knapen_AOT/AOT_stimuli/rescaled_final/1102_rv.mp4	0.0	215.0435290336609	0.10001778602600098
42	196.0457901954651	fix_pre	0		118	40.0	2.5	blank	1.0	215.1435468196869	0.9834315776824951
42	197.0212173461914	pulse	0	t		40.0	2.5	blank	1.0	216.1189739704132	
42	197.02922177314758	movie	1		301	40.0	2.5	blank	1.0	216.12697839736938	2.5087339878082275
42	198.6214461326599	pulse	1	t		40.0	2.5	blank	1.0	217.7192027568817	
42	199.5379557609558	fix_post	2		12	40.0	2.5	blank	1.0	218.6357123851776	0.10008382797241211
43	199.63803958892822	fix_pre	0		120	41.0	2.5	/experiments/Knapen_AOT/AOT_stimuli/rescaled_final/1905_rv.mp4	0.0	218.73579621315002	1.0084304809570312
43	200.22184014320374	pulse	0	t		41.0	2.5	/experiments/Knapen_AOT/AOT_stimuli/rescaled_final/1905_rv.mp4	0.0	219.31959676742554	
43	200.64647006988525	movie	1		278	41.0	2.5	/experiments/Knapen_AOT/AOT_stimuli/rescaled_final/1905_rv.mp4	0.0	219.74422669410706	2.492037296295166
43	201.82192754745483	pulse	1	t		41.0	2.5	/experiments/Knapen_AOT/AOT_stimuli/rescaled_final/1905_rv.mp4	0.0	220.91968417167664	
43	203.13850736618042	fix_post	2		12	41.0	2.5	/experiments/Knapen_AOT/AOT_stimuli/rescaled_final/1905_rv.mp4	0.0	222.23626399040222	0.1000053882598877
44	203.2385127544403	fix_pre	0		120	42.0	2.5	/experiments/Knapen_AOT/AOT_stimuli/rescaled_final/1434_fw.mp4	0.0	222.3362693786621	1.008495807647705
44	203.42213201522827	pulse	0	t		42.0	2.5	/experiments/Knapen_AOT/AOT_stimuli/rescaled_final/1434_fw.mp4	0.0	222.51988863945007	
44	204.247008562088	movie	1		278	42.0	2.5	/experiments/Knapen_AOT/AOT_stimuli/rescaled_final/1434_fw.mp4	0.0	223.34476518630981	2.49208664894104
44	205.02058243751526	pulse	1	t		42.0	2.5	/experiments/Knapen_AOT/AOT_stimuli/rescaled_final/1434_fw.mp4	0.0	224.11833906173706	
44	206.62288904190063	pulse	1	t		42.0	2.5	/experiments/Knapen_AOT/AOT_stimuli/rescaled_final/1434_fw.mp4	0.0	225.72064566612244	
44	206.73909521102905	fix_post	2		12	42.0	2.5	/experiments/Knapen_AOT/AOT_stimuli/rescaled_final/1434_fw.mp4	0.0	225.83685183525085	0.10001087188720703
45	206.83910608291626	fix_pre	0		120	43.0	2.5	/experiments/Knapen_AOT/AOT_stimuli/rescaled_final/0838_fw.mp4	0.0	225.93686270713806	1.0085084438323975
45	207.84761452674866	movie	1		277	43.0	2.5	/experiments/Knapen_AOT/AOT_stimuli/rescaled_final/0838_fw.mp4	0.0	226.94537115097046	2.491997241973877
45	208.22138619422913	pulse	1	t		43.0	2.5	/experiments/Knapen_AOT/AOT_stimuli/rescaled_final/0838_fw.mp4	0.0	227.31914281845093	
45	209.82111430168152	pulse	1	t		43.0	2.5	/experiments/Knapen_AOT/AOT_stimuli/rescaled_final/0838_fw.mp4	0.0	228.91887092590332	
45	210.33961176872253	fix_post	2		12	43.0	2.5	/experiments/Knapen_AOT/AOT_stimuli/rescaled_final/0838_fw.mp4	0.0	229.43736839294434	0.10002636909484863
46	210.43963813781738	fix_pre	0		119	44.0	2.5	/experiments/Knapen_AOT/AOT_stimuli/rescaled_final/0563_fw.mp4	0.0	229.53739476203918	1.0000922679901123
46	211.42330932617188	pulse	0	t		44.0	2.5	/experiments/Knapen_AOT/AOT_stimuli/rescaled_final/0563_fw.mp4	0.0	230.52106595039368	
46	211.4397304058075	movie	1		283	44.0	2.5	/experiments/Knapen_AOT/AOT_stimuli/rescaled_final/0563_fw.mp4	0.0	230.5374870300293	2.5003933906555176
46	213.02361869812012	pulse	1	t		44.0	2.5	/experiments/Knapen_AOT/AOT_stimuli/rescaled_final/0563_fw.mp4	0.0	232.12137532234192	
46	213.940123796463	fix_post	2		12	44.0	2.5	/experiments/Knapen_AOT/AOT_stimuli/rescaled_final/0563_fw.mp4	0.0	233.03788042068481	0.10008454322814941
47	214.04020833969116	fix_pre	0		120	45.0	2.5	/experiments/Knapen_AOT/AOT_stimuli/rescaled_final/0645_rv.mp4	0.0	233.13796496391296	1.0084218978881836
47	214.62373304367065	pulse	0	t		45.0	2.5	/experiments/Knapen_AOT/AOT_stimuli/rescaled_final/0645_rv.mp4	0.0	233.72148966789246	
47	215.04863023757935	movie	1		285	45.0	2.5	/experiments/Knapen_AOT/AOT_stimuli/rescaled_final/0645_rv.mp4	0.0	234.14638686180115	2.4920217990875244
47	216.22249388694763	pulse	1	t		45.0	2.5	/experiments/Knapen_AOT/AOT_stimuli/rescaled_final/0645_rv.mp4	0.0	235.32025051116943	
47	217.54065203666687	fix_post	2		12	45.0	2.5	/experiments/Knapen_AOT/AOT_stimuli/rescaled_final/0645_rv.mp4	0.0	236.63840866088867	0.10004425048828125
48	217.64069628715515	fix_pre	0		120	46.0	2.5	/experiments/Knapen_AOT/AOT_stimuli/rescaled_final/0013_fw.mp4	0.0	236.73845291137695	1.008498191833496
48	217.82429099082947	pulse	0	t		46.0	2.5	/experiments/Knapen_AOT/AOT_stimuli/rescaled_final/0013_fw.mp4	0.0	236.92204761505127	
48	218.64919447898865	movie	1		261	46.0	2.5	/experiments/Knapen_AOT/AOT_stimuli/rescaled_final/0013_fw.mp4	0.0	237.74695110321045	2.4920876026153564
48	219.4238932132721	pulse	1	t		46.0	2.5	/experiments/Knapen_AOT/AOT_stimuli/rescaled_final/0013_fw.mp4	0.0	238.5216498374939	
48	221.0248544216156	pulse	1	t		46.0	2.5	/experiments/Knapen_AOT/AOT_stimuli/rescaled_final/0013_fw.mp4	0.0	240.1226110458374	
48	221.141282081604	fix_post	2		12	46.0	2.5	/experiments/Knapen_AOT/AOT_stimuli/rescaled_final/0013_fw.mp4	0.0	240.2390387058258	0.09999299049377441
49	221.24127507209778	fix_pre	0		120	47.0	2.5	/experiments/Knapen_AOT/AOT_stimuli/rescaled_final/1659_fw.mp4	0.0	240.33903169631958	1.0084333419799805
49	222.24970841407776	movie	1		286	47.0	2.5	/experiments/Knapen_AOT/AOT_stimuli/rescaled_final/1659_fw.mp4	0.0	241.34746503829956	2.492048740386963
49	222.6249098777771	pulse	1	t		47.0	2.5	/experiments/Knapen_AOT/AOT_stimuli/rescaled_final/1659_fw.mp4	0.0	241.7226665019989	
49	224.22337102890015	pulse	1	t		47.0	2.5	/experiments/Knapen_AOT/AOT_stimuli/rescaled_final/1659_fw.mp4	0.0	243.32112765312195	
49	224.74175715446472	fix_post	2		12	47.0	2.5	/experiments/Knapen_AOT/AOT_stimuli/rescaled_final/1659_fw.mp4	0.0	243.83951377868652	0.10001897811889648
50	224.84177613258362	fix_pre	0		119	48.0	2.5	blank	1.0	243.93953275680542	0.9918179512023926
50	225.82547855377197	pulse	0	t		48.0	2.5	blank	1.0	244.92323517799377	
50	225.833594083786	movie	1		301	48.0	2.5	blank	1.0	244.9313507080078	2.5086939334869385
50	227.42567348480225	pulse	1	t		48.0	2.5	blank	1.0	246.52343010902405	
50	228.34228801727295	fix_post	2		12	48.0	2.5	blank	1.0	247.44004464149475	0.10010600090026855
51	228.44239401817322	fix_pre	0		120	49.0	2.5	/experiments/Knapen_AOT/AOT_stimuli/rescaled_final/1201_fw.mp4	0.0	247.54015064239502	1.0084385871887207
51	229.0259211063385	pulse	0	t		49.0	2.5	/experiments/Knapen_AOT/AOT_stimuli/rescaled_final/1201_fw.mp4	0.0	248.1236777305603	
51	229.45083260536194	movie	1		285	49.0	2.5	/experiments/Knapen_AOT/AOT_stimuli/rescaled_final/1201_fw.mp4	0.0	248.54858922958374	2.4920108318328857
51	230.62450242042542	pulse	1	t		49.0	2.5	/experiments/Knapen_AOT/AOT_stimuli/rescaled_final/1201_fw.mp4	0.0	249.72225904464722	
51	231.94284343719482	fix_post	2		12	49.0	2.5	/experiments/Knapen_AOT/AOT_stimuli/rescaled_final/1201_fw.mp4	0.0	251.04060006141663	0.10000872611999512
52	232.04285216331482	fix_pre	0		120	50.0	2.5	/experiments/Knapen_AOT/AOT_stimuli/rescaled_final/2112_rv.mp4	0.0	251.14060878753662	1.0085151195526123
52	232.2264120578766	pulse	0	t		50.0	2.5	/experiments/Knapen_AOT/AOT_stimuli/rescaled_final/2112_rv.mp4	0.0	251.3241686820984	
52	233.05136728286743	movie	1		284	50.0	2.5	/experiments/Knapen_AOT/AOT_stimuli/rescaled_final/2112_rv.mp4	0.0	252.14912390708923	2.4920623302459717
52	233.8248896598816	pulse	1	t		50.0	2.5	/experiments/Knapen_AOT/AOT_stimuli/rescaled_final/2112_rv.mp4	0.0	252.9226462841034	
52	235.42494559288025	pulse	1	t		50.0	2.5	/experiments/Knapen_AOT/AOT_stimuli/rescaled_final/2112_rv.mp4	0.0	254.52270221710205	
52	235.5434296131134	fix_post	2		12	50.0	2.5	/experiments/Knapen_AOT/AOT_stimuli/rescaled_final/2112_rv.mp4	0.0	254.6411862373352	0.1000211238861084
53	235.6434507369995	fix_pre	0		120	51.0	2.5	/experiments/Knapen_AOT/AOT_stimuli/rescaled_final/0898_rv.mp4	0.0	254.7412073612213	1.008453130722046
53	236.65190386772156	movie	1		284	51.0	2.5	/experiments/Knapen_AOT/AOT_stimuli/rescaled_final/0898_rv.mp4	0.0	255.74966049194336	2.49200701713562
53	237.02582550048828	pulse	1	t		51.0	2.5	/experiments/Knapen_AOT/AOT_stimuli/rescaled_final/0898_rv.mp4	0.0	256.1235821247101	
53	238.62557530403137	pulse	1	t		51.0	2.5	/experiments/Knapen_AOT/AOT_stimuli/rescaled_final/0898_rv.mp4	0.0	257.7233319282532	
53	239.14391088485718	fix_post	2		12	51.0	2.5	/experiments/Knapen_AOT/AOT_stimuli/rescaled_final/0898_rv.mp4	0.0	258.241667509079	0.10001587867736816
54	239.24392676353455	fix_pre	0		119	52.0	2.5	/experiments/Knapen_AOT/AOT_stimuli/rescaled_final/0069_fw.mp4	0.0	258.34168338775635	1.0085268020629883
54	240.22770166397095	pulse	0	t		52.0	2.5	/experiments/Knapen_AOT/AOT_stimuli/rescaled_final/0069_fw.mp4	0.0	259.32545828819275	
54	240.25245356559753	movie	1		273	52.0	2.5	/experiments/Knapen_AOT/AOT_stimuli/rescaled_final/0069_fw.mp4	0.0	259.35021018981934	2.4920036792755127
54	241.82722544670105	pulse	1	t		52.0	2.5	/experiments/Knapen_AOT/AOT_stimuli/rescaled_final/0069_fw.mp4	0.0	260.92498207092285	
54	242.74445724487305	fix_post	2		12	52.0	2.5	/experiments/Knapen_AOT/AOT_stimuli/rescaled_final/0069_fw.mp4	0.0	261.84221386909485	0.10001444816589355
55	242.84447169303894	fix_pre	0		120	53.0	2.5	/experiments/Knapen_AOT/AOT_stimuli/rescaled_final/0029_fw.mp4	0.0	261.94222831726074	1.0085077285766602
55	243.42115211486816	pulse	0	t		53.0	2.5	/experiments/Knapen_AOT/AOT_stimuli/rescaled_final/0029_fw.mp4	0.0	262.51890873908997	
55	243.8529794216156	movie	1		269	53.0	2.5	/experiments/Knapen_AOT/AOT_stimuli/rescaled_final/0029_fw.mp4	0.0	262.9507360458374	2.4920201301574707
55	245.02850484848022	pulse	1	t		53.0	2.5	/experiments/Knapen_AOT/AOT_stimuli/rescaled_final/0029_fw.mp4	0.0	264.126261472702	
55	246.34499955177307	fix_post	2		12	53.0	2.5	/experiments/Knapen_AOT/AOT_stimuli/rescaled_final/0029_fw.mp4	0.0	265.4427561759949	0.10001516342163086
56	246.4450147151947	fix_pre	0		120	54.0	2.5	/experiments/Knapen_AOT/AOT_stimuli/rescaled_final/1963_fw.mp4	0.0	265.5427713394165	1.0085487365722656
56	246.62057948112488	pulse	0	t		54.0	2.5	/experiments/Knapen_AOT/AOT_stimuli/rescaled_final/1963_fw.mp4	0.0	265.7183361053467	
56	247.45356345176697	movie	1		285	54.0	2.5	/experiments/Knapen_AOT/AOT_stimuli/rescaled_final/1963_fw.mp4	0.0	266.55132007598877	2.49200439453125
56	248.22046494483948	pulse	1	t		54.0	2.5	/experiments/Knapen_AOT/AOT_stimuli/rescaled_final/1963_fw.mp4	0.0	267.3182215690613	
56	249.8207836151123	pulse	1	t		54.0	2.5	/experiments/Knapen_AOT/AOT_stimuli/rescaled_final/1963_fw.mp4	0.0	268.9185402393341	
56	249.94556784629822	fix_post	2		12	54.0	2.5	/experiments/Knapen_AOT/AOT_stimuli/rescaled_final/1963_fw.mp4	0.0	269.04332447052	0.10010480880737305
57	250.0456726551056	fix_pre	0		120	55.0	2.5	/experiments/Knapen_AOT/AOT_stimuli/rescaled_final/1090_rv.mp4	0.0	269.1434292793274	1.0083997249603271
57	251.05407238006592	movie	1		284	55.0	2.5	/experiments/Knapen_AOT/AOT_stimuli/rescaled_final/1090_rv.mp4	0.0	270.1518290042877	2.4920003414154053
57	251.4211618900299	pulse	1	t		55.0	2.5	/experiments/Knapen_AOT/AOT_stimuli/rescaled_final/1090_rv.mp4	0.0	270.5189185142517	
57	253.02118015289307	pulse	1	t		55.0	2.5	/experiments/Knapen_AOT/AOT_stimuli/rescaled_final/1090_rv.mp4	0.0	272.11893677711487	
57	253.54607272148132	fix_post	2		12	55.0	2.5	/experiments/Knapen_AOT/AOT_stimuli/rescaled_final/1090_rv.mp4	0.0	272.6438293457031	0.10001802444458008
58	253.6460907459259	fix_pre	0		118	56.0	2.5	blank	1.0	272.7438473701477	0.9834616184234619
58	254.62142372131348	pulse	0	t		56.0	2.5	blank	1.0	273.7191803455353	
58	254.62955236434937	movie	1		301	56.0	2.5	blank	1.0	273.72730898857117	2.5087242126464844
58	256.2219412326813	pulse	1	t		56.0	2.5	blank	1.0	275.3196978569031	
58	257.13827657699585	fix_post	2		12	56.0	2.5	blank	1.0	276.23603320121765	0.10001349449157715
59	257.2382900714874	fix_pre	0		120	57.0	2.5	/experiments/Knapen_AOT/AOT_stimuli/rescaled_final/0309_fw.mp4	0.0	276.33604669570923	1.0085303783416748
59	257.822057723999	pulse	0	t		57.0	2.5	/experiments/Knapen_AOT/AOT_stimuli/rescaled_final/0309_fw.mp4	0.0	276.9198143482208	
59	258.2468204498291	movie	1		261	57.0	2.5	/experiments/Knapen_AOT/AOT_stimuli/rescaled_final/0309_fw.mp4	0.0	277.3445770740509	2.492001533508301
59	259.4210638999939	pulse	1	t		57.0	2.5	/experiments/Knapen_AOT/AOT_stimuli/rescaled_final/0309_fw.mp4	0.0	278.5188205242157	
59	260.7388219833374	fix_post	2		12	57.0	2.5	/experiments/Knapen_AOT/AOT_stimuli/rescaled_final/0309_fw.mp4	0.0	279.8365786075592	0.10007786750793457
60	260.83889985084534	fix_pre	0		120	58.0	2.5	/experiments/Knapen_AOT/AOT_stimuli/rescaled_final/0352_rv.mp4	0.0	279.93665647506714	1.0084002017974854
60	261.0224983692169	pulse	0	t		58.0	2.5	/experiments/Knapen_AOT/AOT_stimuli/rescaled_final/0352_rv.mp4	0.0	280.1202549934387	
60	261.8473000526428	movie	1		276	58.0	2.5	/experiments/Knapen_AOT/AOT_stimuli/rescaled_final/0352_rv.mp4	0.0	280.9450566768646	2.4920620918273926
60	262.62152576446533	pulse	1	t		58.0	2.5	/experiments/Knapen_AOT/AOT_stimuli/rescaled_final/0352_rv.mp4	0.0	281.71928238868713	
60	264.2209177017212	pulse	1	t		58.0	2.5	/experiments/Knapen_AOT/AOT_stimuli/rescaled_final/0352_rv.mp4	0.0	283.318674325943	
60	264.3393621444702	fix_post	2		12	58.0	2.5	/experiments/Knapen_AOT/AOT_stimuli/rescaled_final/0352_rv.mp4	0.0	283.437118768692	0.10001802444458008
61	264.4393801689148	fix_pre	0		120	59.0	2.5	/experiments/Knapen_AOT/AOT_stimuli/rescaled_final/0182_rv.mp4	0.0	283.5371367931366	1.0085241794586182
61	265.4479043483734	movie	1		269	59.0	2.5	/experiments/Knapen_AOT/AOT_stimuli/rescaled_final/0182_rv.mp4	0.0	284.5456609725952	2.4919955730438232
61	265.8218116760254	pulse	1	t		59.0	2.5	/experiments/Knapen_AOT/AOT_stimuli/rescaled_final/0182_rv.mp4	0.0	284.9195683002472	
61	267.42158031463623	pulse	1	t		59.0	2.5	/experiments/Knapen_AOT/AOT_stimuli/rescaled_final/0182_rv.mp4	0.0	286.51933693885803	
61	267.93989992141724	fix_post	2		12	59.0	2.5	/experiments/Knapen_AOT/AOT_stimuli/rescaled_final/0182_rv.mp4	0.0	287.03765654563904	0.1000516414642334
62	268.03995156288147	fix_pre	0		119	60.0	2.5	/experiments/Knapen_AOT/AOT_stimuli/rescaled_final/0407_fw.mp4	0.0	287.13770818710327	1.0085639953613281
62	269.02368545532227	pulse	0	t		60.0	2.5	/experiments/Knapen_AOT/AOT_stimuli/rescaled_final/0407_fw.mp4	0.0	288.12144207954407	
62	269.0485155582428	movie	1		266	60.0	2.5	/experiments/Knapen_AOT/AOT_stimuli/rescaled_final/0407_fw.mp4	0.0	288.1462721824646	2.491928815841675
62	270.6240429878235	pulse	1	t		60.0	2.5	/experiments/Knapen_AOT/AOT_stimuli/rescaled_final/0407_fw.mp4	0.0	289.7217996120453	
62	271.5404443740845	fix_post	2		12	60.0	2.5	/experiments/Knapen_AOT/AOT_stimuli/rescaled_final/0407_fw.mp4	0.0	290.6382009983063	0.10002470016479492
63	271.64046907424927	fix_pre	0		120	61.0	2.5	/experiments/Knapen_AOT/AOT_stimuli/rescaled_final/0622_fw.mp4	0.0	290.73822569847107	1.0085067749023438
63	272.2241506576538	pulse	0	t		61.0	2.5	/experiments/Knapen_AOT/AOT_stimuli/rescaled_final/0622_fw.mp4	0.0	291.3219072818756	
63	272.6489758491516	movie	1		283	61.0	2.5	/experiments/Knapen_AOT/AOT_stimuli/rescaled_final/0622_fw.mp4	0.0	291.7467324733734	2.4920601844787598
63	273.82263803482056	pulse	1	t		61.0	2.5	/experiments/Knapen_AOT/AOT_stimuli/rescaled_final/0622_fw.mp4	0.0	292.92039465904236	
63	275.14103603363037	fix_post	2		12	61.0	2.5	/experiments/Knapen_AOT/AOT_stimuli/rescaled_final/0622_fw.mp4	0.0	294.2387926578522	0.09998488426208496
64	275.24102091789246	fix_pre	0		120	62.0	2.5	/experiments/Knapen_AOT/AOT_stimuli/rescaled_final/0604_rv.mp4	0.0	294.33877754211426	1.0084748268127441
64	275.424599647522	pulse	0	t		62.0	2.5	/experiments/Knapen_AOT/AOT_stimuli/rescaled_final/0604_rv.mp4	0.0	294.5223562717438	
64	276.2494957447052	movie	1		282	62.0	2.5	/experiments/Knapen_AOT/AOT_stimuli/rescaled_final/0604_rv.mp4	0.0	295.347252368927	2.492063522338867
64	277.0230598449707	pulse	1	t		62.0	2.5	/experiments/Knapen_AOT/AOT_stimuli/rescaled_final/0604_rv.mp4	0.0	296.1208164691925	
64	278.62329840660095	pulse	1	t		62.0	2.5	/experiments/Knapen_AOT/AOT_stimuli/rescaled_final/0604_rv.mp4	0.0	297.72105503082275	
64	278.74155926704407	fix_post	2		12	62.0	2.5	/experiments/Knapen_AOT/AOT_stimuli/rescaled_final/0604_rv.mp4	0.0	297.83931589126587	0.0999913215637207
65	278.8415505886078	fix_pre	0		120	63.0	2.5	blank	1.0	297.9393072128296	1.0001931190490723
65	279.84174370765686	movie	1		300	63.0	2.5	blank	1.0	298.93950033187866	2.500338315963745
65	280.225298166275	pulse	1	t		63.0	2.5	blank	1.0	299.3230547904968	
65	281.825541973114	pulse	1	t		63.0	2.5	blank	1.0	300.9232985973358	
65	282.3420820236206	fix_post	2		12	63.0	2.5	blank	1.0	301.4398386478424	0.10000944137573242
66	282.44209146499634	fix_pre	0		119	64.0	2.5	/experiments/Knapen_AOT/AOT_stimuli/rescaled_final/0979_rv.mp4	0.0	301.53984808921814	1.0001566410064697
66	283.4257824420929	pulse	0	t		64.0	2.5	/experiments/Knapen_AOT/AOT_stimuli/rescaled_final/0979_rv.mp4	0.0	302.5235390663147	
66	283.4422481060028	movie	1		276	64.0	2.5	/experiments/Knapen_AOT/AOT_stimuli/rescaled_final/0979_rv.mp4	0.0	302.5400047302246	2.5003602504730225
66	285.026193857193	pulse	1	t		64.0	2.5	/experiments/Knapen_AOT/AOT_stimuli/rescaled_final/0979_rv.mp4	0.0	304.1239504814148	
66	285.94260835647583	fix_post	2		12	64.0	2.5	/experiments/Knapen_AOT/AOT_stimuli/rescaled_final/0979_rv.mp4	0.0	305.04036498069763	0.10001683235168457
67	286.0426251888275	fix_pre	0		120	65.0	2.5	/experiments/Knapen_AOT/AOT_stimuli/rescaled_final/0792_rv.mp4	0.0	305.1403818130493	1.008528232574463
67	286.6262810230255	pulse	0	t		65.0	2.5	/experiments/Knapen_AOT/AOT_stimuli/rescaled_final/0792_rv.mp4	0.0	305.7240376472473	
67	287.051153421402	movie	1		271	65.0	2.5	/experiments/Knapen_AOT/AOT_stimuli/rescaled_final/0792_rv.mp4	0.0	306.1489100456238	2.4920084476470947
67	288.2251298427582	pulse	1	t		65.0	2.5	/experiments/Knapen_AOT/AOT_stimuli/rescaled_final/0792_rv.mp4	0.0	307.32288646698	
67	289.5431618690491	fix_post	2		12	65.0	2.5	/experiments/Knapen_AOT/AOT_stimuli/rescaled_final/0792_rv.mp4	0.0	308.6409184932709	0.09999704360961914
68	289.6431589126587	fix_pre	0		120	66.0	2.5	/experiments/Knapen_AOT/AOT_stimuli/rescaled_final/1211_fw.mp4	0.0	308.7409155368805	1.008481502532959
68	289.82700634002686	pulse	0	t		66.0	2.5	/experiments/Knapen_AOT/AOT_stimuli/rescaled_final/1211_fw.mp4	0.0	308.92476296424866	
68	290.65164041519165	movie	1		280	66.0	2.5	/experiments/Knapen_AOT/AOT_stimuli/rescaled_final/1211_fw.mp4	0.0	309.74939703941345	2.492056369781494
68	291.42651987075806	pulse	1	t		66.0	2.5	/experiments/Knapen_AOT/AOT_stimuli/rescaled_final/1211_fw.mp4	0.0	310.52427649497986	
68	293.02545261383057	pulse	1	t		66.0	2.5	/experiments/Knapen_AOT/AOT_stimuli/rescaled_final/1211_fw.mp4	0.0	312.12320923805237	
68	293.14369678497314	fix_post	2		12	66.0	2.5	/experiments/Knapen_AOT/AOT_stimuli/rescaled_final/1211_fw.mp4	0.0	312.24145340919495	0.1000063419342041
69	293.24370312690735	fix_pre	0		120	67.0	2.5	/experiments/Knapen_AOT/AOT_stimuli/rescaled_final/0186_fw.mp4	0.0	312.34145975112915	1.0085363388061523
69	294.2522394657135	movie	1		263	67.0	2.5	/experiments/Knapen_AOT/AOT_stimuli/rescaled_final/0186_fw.mp4	0.0	313.3499960899353	2.4920411109924316
69	294.6262149810791	pulse	1	t		67.0	2.5	/experiments/Knapen_AOT/AOT_stimuli/rescaled_final/0186_fw.mp4	0.0	313.7239716053009	
69	296.2263045310974	pulse	1	t		67.0	2.5	/experiments/Knapen_AOT/AOT_stimuli/rescaled_final/0186_fw.mp4	0.0	315.3240611553192	
69	296.74428057670593	fix_post	2		12	67.0	2.5	/experiments/Knapen_AOT/AOT_stimuli/rescaled_final/0186_fw.mp4	0.0	315.84203720092773	0.10004138946533203
70	296.84432196617126	fix_pre	0		119	68.0	2.5	/experiments/Knapen_AOT/AOT_stimuli/rescaled_final/0507_fw.mp4	0.0	315.94207859039307	1.0000865459442139
70	297.828245639801	pulse	0	t		68.0	2.5	/experiments/Knapen_AOT/AOT_stimuli/rescaled_final/0507_fw.mp4	0.0	316.9260022640228	
70	297.8444085121155	movie	1		264	68.0	2.5	/experiments/Knapen_AOT/AOT_stimuli/rescaled_final/0507_fw.mp4	0.0	316.9421651363373	2.508711814880371
70	299.42715191841125	pulse	1	t		68.0	2.5	/experiments/Knapen_AOT/AOT_stimuli/rescaled_final/0507_fw.mp4	0.0	318.52490854263306	
70	300.35312032699585	fix_post	2		11	68.0	2.5	/experiments/Knapen_AOT/AOT_stimuli/rescaled_final/0507_fw.mp4	0.0	319.45087695121765	0.09168434143066406
71	300.4448046684265	fix_pre	0		120	69.0	2.5	/experiments/Knapen_AOT/AOT_stimuli/rescaled_final/0398_fw.mp4	0.0	319.5425612926483	1.0085346698760986
71	301.0284764766693	pulse	0	t		69.0	2.5	/experiments/Knapen_AOT/AOT_stimuli/rescaled_final/0398_fw.mp4	0.0	320.1262331008911	
71	301.4533393383026	movie	1		271	69.0	2.5	/experiments/Knapen_AOT/AOT_stimuli/rescaled_final/0398_fw.mp4	0.0	320.5510959625244	2.491995096206665
71	302.627023935318	pulse	1	t		69.0	2.5	/experiments/Knapen_AOT/AOT_stimuli/rescaled_final/0398_fw.mp4	0.0	321.7247805595398	
71	303.9453344345093	fix_post	2		12	69.0	2.5	/experiments/Knapen_AOT/AOT_stimuli/rescaled_final/0398_fw.mp4	0.0	323.0430910587311	0.09999442100524902
72	304.0453288555145	fix_pre	0		120	70.0	2.5	blank	1.0	323.1430854797363	1.0001580715179443
72	304.22137451171875	pulse	0	t		70.0	2.5	blank	1.0	323.31913113594055	
72	305.04548692703247	movie	1		300	70.0	2.5	blank	1.0	324.1432435512543	2.5003812313079834
72	305.82097601890564	pulse	1	t		70.0	2.5	blank	1.0	324.91873264312744	
72	307.42125248908997	pulse	1	t		70.0	2.5	blank	1.0	326.51900911331177	
72	307.54586815834045	fix_post	2		12	70.0	2.5	blank	1.0	326.64362478256226	0.10003328323364258
73	307.6459014415741	fix_pre	0		120	71.0	2.5	/experiments/Knapen_AOT/AOT_stimuli/rescaled_final/0631_rv.mp4	0.0	326.7436580657959	1.008453369140625
73	308.6543548107147	movie	1		268	71.0	2.5	/experiments/Knapen_AOT/AOT_stimuli/rescaled_final/0631_rv.mp4	0.0	327.7521114349365	2.4920389652252197
73	309.0213873386383	pulse	1	t		71.0	2.5	/experiments/Knapen_AOT/AOT_stimuli/rescaled_final/0631_rv.mp4	0.0	328.1191439628601	
73	310.6220963001251	pulse	1	t		71.0	2.5	/experiments/Knapen_AOT/AOT_stimuli/rescaled_final/0631_rv.mp4	0.0	329.7198529243469	
73	311.14639377593994	fix_post	2		12	71.0	2.5	/experiments/Knapen_AOT/AOT_stimuli/rescaled_final/0631_rv.mp4	0.0	330.24415040016174	0.10002613067626953
74	311.2464199066162	fix_pre	0		118	72.0	2.5	/experiments/Knapen_AOT/AOT_stimuli/rescaled_final/0898_rv.mp4	0.0	330.344176530838	0.9918487071990967
74	312.22178530693054	pulse	0	t		72.0	2.5	/experiments/Knapen_AOT/AOT_stimuli/rescaled_final/0898_rv.mp4	0.0	331.31954193115234	
74	312.2382686138153	movie	1		272	72.0	2.5	/experiments/Knapen_AOT/AOT_stimuli/rescaled_final/0898_rv.mp4	0.0	331.3360252380371	2.5003349781036377
74	313.8220853805542	pulse	1	t		72.0	2.5	/experiments/Knapen_AOT/AOT_stimuli/rescaled_final/0898_rv.mp4	0.0	332.919842004776	
74	314.73860359191895	fix_post	2		12	72.0	2.5	/experiments/Knapen_AOT/AOT_stimuli/rescaled_final/0898_rv.mp4	0.0	333.83636021614075	0.10003328323364258
75	314.8386368751526	fix_pre	0		120	73.0	2.5	/experiments/Knapen_AOT/AOT_stimuli/rescaled_final/1755_fw.mp4	0.0	333.9363934993744	1.0084891319274902
75	315.4223165512085	pulse	0	t		73.0	2.5	/experiments/Knapen_AOT/AOT_stimuli/rescaled_final/1755_fw.mp4	0.0	334.5200731754303	
75	315.8471260070801	movie	1		275	73.0	2.5	/experiments/Knapen_AOT/AOT_stimuli/rescaled_final/1755_fw.mp4	0.0	334.9448826313019	2.492034435272217
75	317.0227904319763	pulse	1	t		73.0	2.5	/experiments/Knapen_AOT/AOT_stimuli/rescaled_final/1755_fw.mp4	0.0	336.1205470561981	
75	318.3391604423523	fix_post	2		12	73.0	2.5	/experiments/Knapen_AOT/AOT_stimuli/rescaled_final/1755_fw.mp4	0.0	337.4369170665741	0.09999680519104004
76	318.43915724754333	fix_pre	0		119	74.0	2.5	/experiments/Knapen_AOT/AOT_stimuli/rescaled_final/1278_rv.mp4	0.0	337.53691387176514	1.0085208415985107
76	318.62301445007324	pulse	0	t		74.0	2.5	/experiments/Knapen_AOT/AOT_stimuli/rescaled_final/1278_rv.mp4	0.0	337.72077107429504	
76	319.44767808914185	movie	1		263	74.0	2.5	/experiments/Knapen_AOT/AOT_stimuli/rescaled_final/1278_rv.mp4	0.0	338.54543471336365	2.492037057876587
76	320.2214481830597	pulse	1	t		74.0	2.5	/experiments/Knapen_AOT/AOT_stimuli/rescaled_final/1278_rv.mp4	0.0	339.3192048072815	
76	321.82328367233276	pulse	1	t		74.0	2.5	/experiments/Knapen_AOT/AOT_stimuli/rescaled_final/1278_rv.mp4	0.0	340.92104029655457	
76	321.93971514701843	fix_post	2		12	74.0	2.5	/experiments/Knapen_AOT/AOT_stimuli/rescaled_final/1278_rv.mp4	0.0	341.03747177124023	0.09998798370361328
77	322.03970313072205	fix_pre	0		120	75.0	2.5	/experiments/Knapen_AOT/AOT_stimuli/rescaled_final/1938_fw.mp4	0.0	341.13745975494385	1.008474349975586
77	323.04817748069763	movie	1		272	75.0	2.5	/experiments/Knapen_AOT/AOT_stimuli/rescaled_final/1938_fw.mp4	0.0	342.14593410491943	2.4920578002929688
77	323.42231249809265	pulse	1	t		75.0	2.5	/experiments/Knapen_AOT/AOT_stimuli/rescaled_final/1938_fw.mp4	0.0	342.52006912231445	
77	325.0222418308258	pulse	1	t		75.0	2.5	/experiments/Knapen_AOT/AOT_stimuli/rescaled_final/1938_fw.mp4	0.0	344.1199984550476	
77	325.5402352809906	fix_post	2		12	75.0	2.5	/experiments/Knapen_AOT/AOT_stimuli/rescaled_final/1938_fw.mp4	0.0	344.6379919052124	0.10001707077026367
78	325.64025235176086	fix_pre	0		119	76.0	2.5	blank	1.0	344.73800897598267	0.9917709827423096
78	326.62476897239685	pulse	0	t		76.0	2.5	blank	1.0	345.72252559661865	
78	326.6320233345032	movie	1		301	76.0	2.5	blank	1.0	345.729779958725	2.508763551712036
78	328.224458694458	pulse	1	t		76.0	2.5	blank	1.0	347.3222153186798	
78	329.1407868862152	fix_post	2		12	76.0	2.5	blank	1.0	348.238543510437	0.10002422332763672
79	329.24081110954285	fix_pre	0		120	77.0	2.5	/experiments/Knapen_AOT/AOT_stimuli/rescaled_final/0512_fw.mp4	0.0	348.33856773376465	1.0084714889526367
79	329.82440161705017	pulse	0	t		77.0	2.5	/experiments/Knapen_AOT/AOT_stimuli/rescaled_final/0512_fw.mp4	0.0	348.922158241272	
79	330.2492825984955	movie	1		276	77.0	2.5	/experiments/Knapen_AOT/AOT_stimuli/rescaled_final/0512_fw.mp4	0.0	349.3470392227173	2.492063045501709
79	331.42299818992615	pulse	1	t		77.0	2.5	/experiments/Knapen_AOT/AOT_stimuli/rescaled_final/0512_fw.mp4	0.0	350.52075481414795	
79	332.7413456439972	fix_post	2		12	77.0	2.5	/experiments/Knapen_AOT/AOT_stimuli/rescaled_final/0512_fw.mp4	0.0	351.839102268219	0.09998822212219238
80	332.8413338661194	fix_pre	0		120	78.0	2.5	/experiments/Knapen_AOT/AOT_stimuli/rescaled_final/0604_fw.mp4	0.0	351.9390904903412	1.008514404296875
80	333.0249037742615	pulse	0	t		78.0	2.5	/experiments/Knapen_AOT/AOT_stimuli/rescaled_final/0604_fw.mp4	0.0	352.1226603984833	
80	333.84984827041626	movie	1		279	78.0	2.5	/experiments/Knapen_AOT/AOT_stimuli/rescaled_final/0604_fw.mp4	0.0	352.94760489463806	2.4920148849487305
80	334.62364506721497	pulse	1	t		78.0	2.5	/experiments/Knapen_AOT/AOT_stimuli/rescaled_final/0604_fw.mp4	0.0	353.72140169143677	
80	336.223539352417	pulse	1	t		78.0	2.5	/experiments/Knapen_AOT/AOT_stimuli/rescaled_final/0604_fw.mp4	0.0	355.3212959766388	
80	336.341863155365	fix_post	2		12	78.0	2.5	/experiments/Knapen_AOT/AOT_stimuli/rescaled_final/0604_fw.mp4	0.0	355.4396197795868	0.10003399848937988
81	336.44189715385437	fix_pre	0		120	79.0	2.5	/experiments/Knapen_AOT/AOT_stimuli/rescaled_final/1022_rv.mp4	0.0	355.5396537780762	1.0084640979766846
81	337.45036125183105	movie	1		272	79.0	2.5	/experiments/Knapen_AOT/AOT_stimuli/rescaled_final/1022_rv.mp4	0.0	356.54811787605286	2.4920735359191895
81	337.8258213996887	pulse	1	t		79.0	2.5	/experiments/Knapen_AOT/AOT_stimuli/rescaled_final/1022_rv.mp4	0.0	356.9235780239105	
81	339.4239835739136	pulse	1	t		79.0	2.5	/experiments/Knapen_AOT/AOT_stimuli/rescaled_final/1022_rv.mp4	0.0	358.5217401981354	
81	339.94243478775024	fix_post	2		11	79.0	2.5	/experiments/Knapen_AOT/AOT_stimuli/rescaled_final/1022_rv.mp4	0.0	359.04019141197205	0.09999990463256836
82	340.0424346923828	fix_pre	0		119	80.0	2.5	/experiments/Knapen_AOT/AOT_stimuli/rescaled_final/2045_rv.mp4	0.0	359.1401913166046	1.0001273155212402
82	341.026123046875	pulse	0	t		80.0	2.5	/experiments/Knapen_AOT/AOT_stimuli/rescaled_final/2045_rv.mp4	0.0	360.1238796710968	
82	341.04256200790405	movie	1		269	80.0	2.5	/experiments/Knapen_AOT/AOT_stimuli/rescaled_final/2045_rv.mp4	0.0	360.14031863212585	2.5003907680511475
82	342.625363111496	pulse	1	t		80.0	2.5	/experiments/Knapen_AOT/AOT_stimuli/rescaled_final/2045_rv.mp4	0.0	361.7231197357178	
82	343.5429527759552	fix_post	2		12	80.0	2.5	/experiments/Knapen_AOT/AOT_stimuli/rescaled_final/2045_rv.mp4	0.0	362.640709400177	0.1000218391418457
83	343.64297461509705	fix_pre	0		120	81.0	2.5	/experiments/Knapen_AOT/AOT_stimuli/rescaled_final/1850_fw.mp4	0.0	362.74073123931885	1.0085926055908203
83	344.2267076969147	pulse	0	t		81.0	2.5	/experiments/Knapen_AOT/AOT_stimuli/rescaled_final/1850_fw.mp4	0.0	363.3244643211365	
83	344.65156722068787	movie	1		274	81.0	2.5	/experiments/Knapen_AOT/AOT_stimuli/rescaled_final/1850_fw.mp4	0.0	363.74932384490967	2.4919629096984863
83	345.8273272514343	pulse	1	t		81.0	2.5	/experiments/Knapen_AOT/AOT_stimuli/rescaled_final/1850_fw.mp4	0.0	364.9250838756561	
83	347.14353013038635	fix_post	2		12	81.0	2.5	/experiments/Knapen_AOT/AOT_stimuli/rescaled_final/1850_fw.mp4	0.0	366.24128675460815	0.09997129440307617
84	347.24350142478943	fix_pre	0		120	82.0	2.5	/experiments/Knapen_AOT/AOT_stimuli/rescaled_final/1282_rv.mp4	0.0	366.34125804901123	1.0085246562957764
84	347.42717146873474	pulse	0	t		82.0	2.5	/experiments/Knapen_AOT/AOT_stimuli/rescaled_final/1282_rv.mp4	0.0	366.52492809295654	
84	348.2520260810852	movie	1		271	82.0	2.5	/experiments/Knapen_AOT/AOT_stimuli/rescaled_final/1282_rv.mp4	0.0	367.349782705307	2.491939067840576
84	349.0253164768219	pulse	1	t		82.0	2.5	/experiments/Knapen_AOT/AOT_stimuli/rescaled_final/1282_rv.mp4	0.0	368.1230731010437	
84	350.6256902217865	pulse	1	t		82.0	2.5	/experiments/Knapen_AOT/AOT_stimuli/rescaled_final/1282_rv.mp4	0.0	369.7234468460083	
84	350.7439651489258	fix_post	2		12	82.0	2.5	/experiments/Knapen_AOT/AOT_stimuli/rescaled_final/1282_rv.mp4	0.0	369.8417217731476	0.1000826358795166
85	350.8440477848053	fix_pre	0		120	83.0	2.5	blank	1.0	369.9418044090271	1.0001347064971924
85	351.8441824913025	movie	1		300	83.0	2.5	blank	1.0	370.9419391155243	2.500373601913452
85	352.2278130054474	pulse	1	t		83.0	2.5	blank	1.0	371.3255696296692	
85	353.82815313339233	pulse	1	t		83.0	2.5	blank	1.0	372.92590975761414	
85	354.34455609321594	fix_post	2		12	83.0	2.5	blank	1.0	373.44231271743774	0.09998726844787598
87	354.4445433616638	stim	0		1715					373.5422999858856	14.293996572494507
87	355.4204726219177	pulse	0	t						374.5182292461395	
87	357.0202910900116	pulse	0	t						376.1180477142334	
87	358.62067699432373	pulse	0	t						377.71843361854553	
87	360.2207431793213	pulse	0	t						379.3184998035431	
87	361.8209512233734	pulse	0	t						380.9187078475952	
87	363.42132353782654	pulse	0	t						382.51908016204834	
87	365.02139711380005	pulse	0	t						384.11915373802185	
87	366.62161660194397	pulse	0	t						385.71937322616577	
87	368.22192215919495	pulse	0	t						387.31967878341675	
