trial_nr	onset	event_type	phase	response	nr_frames	movie_index	movie_duration	movie_file	blank	onset_abs	duration
0	0.13329482078552246	stim	0		42					37.97377586364746	0.3500080108642578
0	0.47528982162475586	response	0	space						38.315770864486694	
1	0.4833028316497803	stim	0		4800					38.32378387451172	39.999786138534546
1	40.47876691818237	pulse	0	t						78.31924796104431	
1	40.483088970184326	stim	1		1717					78.32357001304626	14.308266878128052
1	42.07488799095154	pulse	1	t						79.91536903381348	
1	43.674861907958984	pulse	1	t						81.51534295082092	
1	45.274815797805786	pulse	1	t						83.11529684066772	
1	46.87484288215637	pulse	1	t						84.71532392501831	
1	48.47480392456055	pulse	1	t						86.31528496742249	
1	50.07479977607727	pulse	1	t						87.91528081893921	
1	51.674824953079224	pulse	1	t						89.51530599594116	
1	53.27481985092163	pulse	1	t						91.11530089378357	
2	54.79135584831238	fix_pre	0		11	0.0	2.5	/experiments/AOT/AOT_stimuli/rescaled_final/0140_rv.mp4	0.0	92.63183689117432	0.09168410301208496
2	54.874873876571655	pulse	0	t		0.0	2.5	/experiments/AOT/AOT_stimuli/rescaled_final/0140_rv.mp4	0.0	92.7153549194336	
2	54.88303995132446	movie	1		241	0.0	2.5	/experiments/AOT/AOT_stimuli/rescaled_final/0140_rv.mp4	0.0	92.7235209941864	2.5083439350128174
2	56.475921869277954	pulse	1	t		0.0	2.5	/experiments/AOT/AOT_stimuli/rescaled_final/0140_rv.mp4	0.0	94.31640291213989	
2	57.39138388633728	fix_post	2		12	0.0	2.5	/experiments/AOT/AOT_stimuli/rescaled_final/0140_rv.mp4	0.0	95.23186492919922	0.10001802444458008
3	57.49140191078186	fix_pre	0		120	1.0	2.5	/experiments/AOT/AOT_stimuli/rescaled_final/0826_rv.mp4	0.0	95.3318829536438	0.9999780654907227
3	58.074893951416016	pulse	0	t		1.0	2.5	/experiments/AOT/AOT_stimuli/rescaled_final/0826_rv.mp4	0.0	95.91537499427795	
3	58.49137997627258	movie	1		243	1.0	2.5	/experiments/AOT/AOT_stimuli/rescaled_final/0826_rv.mp4	0.0	96.33186101913452	2.499929904937744
3	59.67491579055786	pulse	1	t		1.0	2.5	/experiments/AOT/AOT_stimuli/rescaled_final/0826_rv.mp4	0.0	97.5153968334198	
3	60.99130988121033	fix_post	2		12	1.0	2.5	/experiments/AOT/AOT_stimuli/rescaled_final/0826_rv.mp4	0.0	98.83179092407227	0.10004591941833496
4	61.09135580062866	fix_pre	0		120	2.0	2.5	/experiments/AOT/AOT_stimuli/rescaled_final/0013_fw.mp4	0.0	98.9318368434906	0.9999880790710449
4	61.274847984313965	pulse	0	t		2.0	2.5	/experiments/AOT/AOT_stimuli/rescaled_final/0013_fw.mp4	0.0	99.1153290271759	
4	62.09134387969971	movie	1		245	2.0	2.5	/experiments/AOT/AOT_stimuli/rescaled_final/0013_fw.mp4	0.0	99.93182492256165	2.4999730587005615
4	62.87500476837158	pulse	1	t		2.0	2.5	/experiments/AOT/AOT_stimuli/rescaled_final/0013_fw.mp4	0.0	100.71548581123352	
4	64.47355079650879	pulse	1	t		2.0	2.5	/experiments/AOT/AOT_stimuli/rescaled_final/0013_fw.mp4	0.0	102.31403183937073	
4	64.59131693840027	fix_post	2		12	2.0	2.5	/experiments/AOT/AOT_stimuli/rescaled_final/0013_fw.mp4	0.0	102.4317979812622	0.09996604919433594
5	64.6912829875946	fix_pre	0		120	3.0	2.5	/experiments/AOT/AOT_stimuli/rescaled_final/1717_rv.mp4	0.0	102.53176403045654	1.0000998973846436
5	65.69138288497925	movie	1		245	3.0	2.5	/experiments/AOT/AOT_stimuli/rescaled_final/1717_rv.mp4	0.0	103.53186392784119	2.500148057937622
5	66.07372999191284	pulse	1	t		3.0	2.5	/experiments/AOT/AOT_stimuli/rescaled_final/1717_rv.mp4	0.0	103.91421103477478	
5	67.67499494552612	pulse	1	t		3.0	2.5	/experiments/AOT/AOT_stimuli/rescaled_final/1717_rv.mp4	0.0	105.51547598838806	
5	68.19153094291687	fix_post	2		12	3.0	2.5	/experiments/AOT/AOT_stimuli/rescaled_final/1717_rv.mp4	0.0	106.03201198577881	0.09968996047973633
6	68.2912209033966	fix_pre	0		119	4.0	2.5	/experiments/AOT/AOT_stimuli/rescaled_final/1765_rv.mp4	0.0	106.13170194625854	0.9918560981750488
6	69.27483582496643	pulse	0	t		4.0	2.5	/experiments/AOT/AOT_stimuli/rescaled_final/1765_rv.mp4	0.0	107.11531686782837	
6	69.28307700157166	movie	1		246	4.0	2.5	/experiments/AOT/AOT_stimuli/rescaled_final/1765_rv.mp4	0.0	107.1235580444336	2.5077898502349854
6	70.87467885017395	pulse	1	t		4.0	2.5	/experiments/AOT/AOT_stimuli/rescaled_final/1765_rv.mp4	0.0	108.71515989303589	
6	71.79086685180664	fix_post	2		12	4.0	2.5	/experiments/AOT/AOT_stimuli/rescaled_final/1765_rv.mp4	0.0	109.63134789466858	0.10036396980285645
7	71.8912308216095	fix_pre	0		120	5.0	2.5	/experiments/AOT/AOT_stimuli/rescaled_final/0207_rv.mp4	0.0	109.73171186447144	1.000197172164917
7	72.47477698326111	pulse	0	t		5.0	2.5	/experiments/AOT/AOT_stimuli/rescaled_final/0207_rv.mp4	0.0	110.31525802612305	
7	72.89142799377441	movie	1		244	5.0	2.5	/experiments/AOT/AOT_stimuli/rescaled_final/0207_rv.mp4	0.0	110.73190903663635	2.4997689723968506
7	74.07481098175049	pulse	1	t		5.0	2.5	/experiments/AOT/AOT_stimuli/rescaled_final/0207_rv.mp4	0.0	111.91529202461243	
7	75.39119696617126	fix_post	2		12	5.0	2.5	/experiments/AOT/AOT_stimuli/rescaled_final/0207_rv.mp4	0.0	113.2316780090332	0.10003399848937988
8	75.49123096466064	fix_pre	0		120	6.0	2.5	blank	1.0	113.33171200752258	1.0000360012054443
8	75.67485690116882	pulse	0	t		6.0	2.5	blank	1.0	113.51533794403076	
8	76.49126696586609	movie	1		300	6.0	2.5	blank	1.0	114.33174800872803	2.4999749660491943
8	77.27477383613586	pulse	1	t		6.0	2.5	blank	1.0	115.1152548789978	
8	78.87467885017395	pulse	1	t		6.0	2.5	blank	1.0	116.71515989303589	
8	78.99124193191528	fix_post	2		12	6.0	2.5	blank	1.0	116.83172297477722	0.09994792938232422
9	79.09118986129761	fix_pre	0		120	7.0	2.5	/experiments/AOT/AOT_stimuli/rescaled_final/1207_fw.mp4	0.0	116.93167090415955	0.9997360706329346
9	80.09092593193054	movie	1		244	7.0	2.5	/experiments/AOT/AOT_stimuli/rescaled_final/1207_fw.mp4	0.0	117.93140697479248	2.5002858638763428
9	80.47432684898376	pulse	1	t		7.0	2.5	/experiments/AOT/AOT_stimuli/rescaled_final/1207_fw.mp4	0.0	118.3148078918457	
9	82.0746898651123	pulse	1	t		7.0	2.5	/experiments/AOT/AOT_stimuli/rescaled_final/1207_fw.mp4	0.0	119.91517090797424	
9	82.59121179580688	fix_post	2		12	7.0	2.5	/experiments/AOT/AOT_stimuli/rescaled_final/1207_fw.mp4	0.0	120.43169283866882	0.10003519058227539
10	82.69124698638916	fix_pre	0		119	8.0	2.5	/experiments/AOT/AOT_stimuli/rescaled_final/0247_rv.mp4	0.0	120.5317280292511	0.9916479587554932
10	83.67478084564209	pulse	0	t		8.0	2.5	/experiments/AOT/AOT_stimuli/rescaled_final/0247_rv.mp4	0.0	121.51526188850403	
10	83.68289494514465	movie	1		245	8.0	2.5	/experiments/AOT/AOT_stimuli/rescaled_final/0247_rv.mp4	0.0	121.52337598800659	2.508312940597534
10	85.27434086799622	pulse	1	t		8.0	2.5	/experiments/AOT/AOT_stimuli/rescaled_final/0247_rv.mp4	0.0	123.11482191085815	
10	86.19120788574219	fix_post	2		12	8.0	2.5	/experiments/AOT/AOT_stimuli/rescaled_final/0247_rv.mp4	0.0	124.03168892860413	0.09957194328308105
11	86.29077982902527	fix_pre	0		120	9.0	2.5	/experiments/AOT/AOT_stimuli/rescaled_final/0013_rv.mp4	0.0	124.1312608718872	1.0004620552062988
11	86.87470889091492	pulse	0	t		9.0	2.5	/experiments/AOT/AOT_stimuli/rescaled_final/0013_rv.mp4	0.0	124.71518993377686	
11	87.29124188423157	movie	1		244	9.0	2.5	/experiments/AOT/AOT_stimuli/rescaled_final/0013_rv.mp4	0.0	125.1317229270935	2.499958038330078
11	88.47475099563599	pulse	1	t		9.0	2.5	/experiments/AOT/AOT_stimuli/rescaled_final/0013_rv.mp4	0.0	126.31523203849792	
11	89.79119992256165	fix_post	2		12	9.0	2.5	/experiments/AOT/AOT_stimuli/rescaled_final/0013_rv.mp4	0.0	127.63168096542358	0.10000085830688477
12	89.89120078086853	fix_pre	0		120	10.0	2.5	/experiments/AOT/AOT_stimuli/rescaled_final/0315_fw.mp4	0.0	127.73168182373047	0.9999871253967285
12	90.0747389793396	pulse	0	t		10.0	2.5	/experiments/AOT/AOT_stimuli/rescaled_final/0315_fw.mp4	0.0	127.91522002220154	
12	90.89118790626526	movie	1		246	10.0	2.5	/experiments/AOT/AOT_stimuli/rescaled_final/0315_fw.mp4	0.0	128.7316689491272	2.499631881713867
12	91.67475199699402	pulse	1	t		10.0	2.5	/experiments/AOT/AOT_stimuli/rescaled_final/0315_fw.mp4	0.0	129.51523303985596	
12	93.27349877357483	pulse	1	t		10.0	2.5	/experiments/AOT/AOT_stimuli/rescaled_final/0315_fw.mp4	0.0	131.11397981643677	
12	93.39081978797913	fix_post	2		12	10.0	2.5	/experiments/AOT/AOT_stimuli/rescaled_final/0315_fw.mp4	0.0	131.23130083084106	0.10035920143127441
13	93.4911789894104	fix_pre	0		120	11.0	2.5	/experiments/AOT/AOT_stimuli/rescaled_final/0826_fw.mp4	0.0	131.33166003227234	0.9999549388885498
13	94.49113392829895	movie	1		245	11.0	2.5	/experiments/AOT/AOT_stimuli/rescaled_final/0826_fw.mp4	0.0	132.3316149711609	2.4995739459991455
13	94.87511491775513	pulse	1	t		11.0	2.5	/experiments/AOT/AOT_stimuli/rescaled_final/0826_fw.mp4	0.0	132.71559596061707	
13	96.47473192214966	pulse	1	t		11.0	2.5	/experiments/AOT/AOT_stimuli/rescaled_final/0826_fw.mp4	0.0	134.3152129650116	
13	96.9907078742981	fix_post	2		12	11.0	2.5	/experiments/AOT/AOT_stimuli/rescaled_final/0826_fw.mp4	0.0	134.83118891716003	0.10038900375366211
14	97.09109687805176	fix_pre	0		119	12.0	2.5	/experiments/AOT/AOT_stimuli/rescaled_final/1211_rv.mp4	0.0	134.9315779209137	0.9917540550231934
14	98.0746819972992	pulse	0	t		12.0	2.5	/experiments/AOT/AOT_stimuli/rescaled_final/1211_rv.mp4	0.0	135.91516304016113	
14	98.08285093307495	movie	1		245	12.0	2.5	/experiments/AOT/AOT_stimuli/rescaled_final/1211_rv.mp4	0.0	135.9233319759369	2.5083119869232178
14	99.67426300048828	pulse	1	t		12.0	2.5	/experiments/AOT/AOT_stimuli/rescaled_final/1211_rv.mp4	0.0	137.51474404335022	
14	100.59116291999817	fix_post	2		12	12.0	2.5	/experiments/AOT/AOT_stimuli/rescaled_final/1211_rv.mp4	0.0	138.4316439628601	0.10016894340515137
15	100.69133186340332	fix_pre	0		120	13.0	2.5	/experiments/AOT/AOT_stimuli/rescaled_final/2138_fw.mp4	0.0	138.53181290626526	0.9998891353607178
15	101.27467179298401	pulse	0	t		13.0	2.5	/experiments/AOT/AOT_stimuli/rescaled_final/2138_fw.mp4	0.0	139.11515283584595	
15	101.69122099876404	movie	1		243	13.0	2.5	/experiments/AOT/AOT_stimuli/rescaled_final/2138_fw.mp4	0.0	139.53170204162598	2.4994778633117676
15	102.8746988773346	pulse	1	t		13.0	2.5	/experiments/AOT/AOT_stimuli/rescaled_final/2138_fw.mp4	0.0	140.71517992019653	
15	104.1906988620758	fix_post	2		12	13.0	2.5	/experiments/AOT/AOT_stimuli/rescaled_final/2138_fw.mp4	0.0	142.03117990493774	0.10012197494506836
16	104.29082083702087	fix_pre	0		120	14.0	2.5	blank	1.0	142.1313018798828	0.9999361038208008
16	104.4746367931366	pulse	0	t		14.0	2.5	blank	1.0	142.31511783599854	
16	105.29075694084167	movie	1		300	14.0	2.5	blank	1.0	143.1312379837036	2.50039005279541
16	106.07468581199646	pulse	1	t		14.0	2.5	blank	1.0	143.9151668548584	
16	107.67463397979736	pulse	1	t		14.0	2.5	blank	1.0	145.5151150226593	
16	107.79114699363708	fix_post	2		12	14.0	2.5	blank	1.0	145.63162803649902	0.09958195686340332
17	107.89072895050049	fix_pre	0		120	15.0	2.5	/experiments/AOT/AOT_stimuli/rescaled_final/2025_rv.mp4	0.0	145.73120999336243	0.9999299049377441
17	108.89065885543823	movie	1		244	15.0	2.5	/experiments/AOT/AOT_stimuli/rescaled_final/2025_rv.mp4	0.0	146.73113989830017	2.50046706199646
17	109.27439379692078	pulse	1	t		15.0	2.5	/experiments/AOT/AOT_stimuli/rescaled_final/2025_rv.mp4	0.0	147.11487483978271	
17	110.87463784217834	pulse	1	t		15.0	2.5	/experiments/AOT/AOT_stimuli/rescaled_final/2025_rv.mp4	0.0	148.71511888504028	
17	111.39112591743469	fix_post	2		12	15.0	2.5	/experiments/AOT/AOT_stimuli/rescaled_final/2025_rv.mp4	0.0	149.23160696029663	0.099945068359375
18	111.49107098579407	fix_pre	0		119	16.0	2.5	/experiments/AOT/AOT_stimuli/rescaled_final/1647_rv.mp4	0.0	149.331552028656	0.99167799949646
18	112.47471785545349	pulse	0	t		16.0	2.5	/experiments/AOT/AOT_stimuli/rescaled_final/1647_rv.mp4	0.0	150.31519889831543	
18	112.48274898529053	movie	1		245	16.0	2.5	/experiments/AOT/AOT_stimuli/rescaled_final/1647_rv.mp4	0.0	150.32323002815247	2.50837779045105
18	114.07594299316406	pulse	1	t		16.0	2.5	/experiments/AOT/AOT_stimuli/rescaled_final/1647_rv.mp4	0.0	151.916424036026	
18	114.99112677574158	fix_post	2		12	16.0	2.5	/experiments/AOT/AOT_stimuli/rescaled_final/1647_rv.mp4	0.0	152.83160781860352	0.10003209114074707
19	115.09115886688232	fix_pre	0		120	17.0	2.5	/experiments/AOT/AOT_stimuli/rescaled_final/0239_fw.mp4	0.0	152.93163990974426	0.9999210834503174
19	115.67458486557007	pulse	0	t		17.0	2.5	/experiments/AOT/AOT_stimuli/rescaled_final/0239_fw.mp4	0.0	153.515065908432	
19	116.09107995033264	movie	1		244	17.0	2.5	/experiments/AOT/AOT_stimuli/rescaled_final/0239_fw.mp4	0.0	153.93156099319458	2.499950885772705
19	117.27464985847473	pulse	1	t		17.0	2.5	/experiments/AOT/AOT_stimuli/rescaled_final/0239_fw.mp4	0.0	155.11513090133667	
19	118.59103083610535	fix_post	2		12	17.0	2.5	/experiments/AOT/AOT_stimuli/rescaled_final/0239_fw.mp4	0.0	156.43151187896729	0.1000511646270752
20	118.69108200073242	fix_pre	0		120	18.0	2.5	/experiments/AOT/AOT_stimuli/rescaled_final/1360_rv.mp4	0.0	156.53156304359436	1.0001018047332764
20	118.87469482421875	pulse	0	t		18.0	2.5	/experiments/AOT/AOT_stimuli/rescaled_final/1360_rv.mp4	0.0	156.7151758670807	
20	119.6911838054657	movie	1		245	18.0	2.5	/experiments/AOT/AOT_stimuli/rescaled_final/1360_rv.mp4	0.0	157.53166484832764	2.4996321201324463
20	120.47470092773438	pulse	1	t		18.0	2.5	/experiments/AOT/AOT_stimuli/rescaled_final/1360_rv.mp4	0.0	158.3151819705963	
20	122.07303786277771	pulse	1	t		18.0	2.5	/experiments/AOT/AOT_stimuli/rescaled_final/1360_rv.mp4	0.0	159.91351890563965	
20	122.19081592559814	fix_post	2		12	18.0	2.5	/experiments/AOT/AOT_stimuli/rescaled_final/1360_rv.mp4	0.0	160.03129696846008	0.09985804557800293
21	122.29067397117615	fix_pre	0		120	19.0	2.5	blank	1.0	160.1311550140381	1.0005278587341309
21	123.29120182991028	movie	1		300	19.0	2.5	blank	1.0	161.13168287277222	2.4999260902404785
21	123.67493796348572	pulse	1	t		19.0	2.5	blank	1.0	161.51541900634766	
21	125.27449798583984	pulse	1	t		19.0	2.5	blank	1.0	163.11497902870178	
21	125.79112792015076	fix_post	2		12	19.0	2.5	blank	1.0	163.6316089630127	0.09992790222167969
22	125.89105582237244	fix_pre	0		119	20.0	2.5	/experiments/AOT/AOT_stimuli/rescaled_final/1034_fw.mp4	0.0	163.73153686523438	0.9916560649871826
22	126.87451887130737	pulse	0	t		20.0	2.5	/experiments/AOT/AOT_stimuli/rescaled_final/1034_fw.mp4	0.0	164.7149999141693	
22	126.88271188735962	movie	1		247	20.0	2.5	/experiments/AOT/AOT_stimuli/rescaled_final/1034_fw.mp4	0.0	164.72319293022156	2.5079240798950195
22	128.4739968776703	pulse	1	t		20.0	2.5	/experiments/AOT/AOT_stimuli/rescaled_final/1034_fw.mp4	0.0	166.31447792053223	
22	129.39063596725464	fix_post	2		12	20.0	2.5	/experiments/AOT/AOT_stimuli/rescaled_final/1034_fw.mp4	0.0	167.23111701011658	0.09989094734191895
23	129.49052691459656	fix_pre	0		120	21.0	2.5	/experiments/AOT/AOT_stimuli/rescaled_final/0355_fw.mp4	0.0	167.3310079574585	1.0005030632019043
23	130.07438588142395	pulse	0	t		21.0	2.5	/experiments/AOT/AOT_stimuli/rescaled_final/0355_fw.mp4	0.0	167.9148669242859	
23	130.49102997779846	movie	1		247	21.0	2.5	/experiments/AOT/AOT_stimuli/rescaled_final/0355_fw.mp4	0.0	168.3315110206604	2.499910831451416
23	131.67449593544006	pulse	1	t		21.0	2.5	/experiments/AOT/AOT_stimuli/rescaled_final/0355_fw.mp4	0.0	169.514976978302	
23	132.99094080924988	fix_post	2		12	21.0	2.5	/experiments/AOT/AOT_stimuli/rescaled_final/0355_fw.mp4	0.0	170.83142185211182	0.10004210472106934
24	133.09098291397095	fix_pre	0		120	22.0	2.5	/experiments/AOT/AOT_stimuli/rescaled_final/0057_fw.mp4	0.0	170.93146395683289	0.9999608993530273
24	133.2745189666748	pulse	0	t		22.0	2.5	/experiments/AOT/AOT_stimuli/rescaled_final/0057_fw.mp4	0.0	171.11500000953674	
24	134.09094381332397	movie	1		247	22.0	2.5	/experiments/AOT/AOT_stimuli/rescaled_final/0057_fw.mp4	0.0	171.9314248561859	2.499591112136841
24	134.87436890602112	pulse	1	t		22.0	2.5	/experiments/AOT/AOT_stimuli/rescaled_final/0057_fw.mp4	0.0	172.71484994888306	
24	136.47044277191162	pulse	1	t		22.0	2.5	/experiments/AOT/AOT_stimuli/rescaled_final/0057_fw.mp4	0.0	174.31092381477356	
24	136.59053492546082	fix_post	2		12	22.0	2.5	/experiments/AOT/AOT_stimuli/rescaled_final/0057_fw.mp4	0.0	174.43101596832275	0.10002589225769043
25	136.6905608177185	fix_pre	0		120	23.0	2.5	/experiments/AOT/AOT_stimuli/rescaled_final/1613_fw.mp4	0.0	174.53104186058044	1.0003430843353271
25	137.69090390205383	movie	1		246	23.0	2.5	/experiments/AOT/AOT_stimuli/rescaled_final/1613_fw.mp4	0.0	175.53138494491577	2.5000929832458496
25	138.0741307735443	pulse	1	t		23.0	2.5	/experiments/AOT/AOT_stimuli/rescaled_final/1613_fw.mp4	0.0	175.91461181640625	
25	139.67438793182373	pulse	1	t		23.0	2.5	/experiments/AOT/AOT_stimuli/rescaled_final/1613_fw.mp4	0.0	177.51486897468567	
25	140.19099688529968	fix_post	2		12	23.0	2.5	/experiments/AOT/AOT_stimuli/rescaled_final/1613_fw.mp4	0.0	178.03147792816162	0.09989809989929199
26	140.29089498519897	fix_pre	0		119	24.0	2.5	/experiments/AOT/AOT_stimuli/rescaled_final/0210_rv.mp4	0.0	178.1313760280609	0.9917209148406982
26	141.27443981170654	pulse	0	t		24.0	2.5	/experiments/AOT/AOT_stimuli/rescaled_final/0210_rv.mp4	0.0	179.11492085456848	
26	141.28261590003967	movie	1		245	24.0	2.5	/experiments/AOT/AOT_stimuli/rescaled_final/0210_rv.mp4	0.0	179.1230969429016	2.507880926132202
26	142.87465476989746	pulse	1	t		24.0	2.5	/experiments/AOT/AOT_stimuli/rescaled_final/0210_rv.mp4	0.0	180.7151358127594	
26	143.79049682617188	fix_post	2		12	24.0	2.5	/experiments/AOT/AOT_stimuli/rescaled_final/0210_rv.mp4	0.0	181.6309778690338	0.10040497779846191
27	143.89090180397034	fix_pre	0		120	25.0	2.5	/experiments/AOT/AOT_stimuli/rescaled_final/0585_rv.mp4	0.0	181.73138284683228	1.0000531673431396
27	144.47444200515747	pulse	0	t		25.0	2.5	/experiments/AOT/AOT_stimuli/rescaled_final/0585_rv.mp4	0.0	182.3149230480194	
27	144.89095497131348	movie	1		245	25.0	2.5	/experiments/AOT/AOT_stimuli/rescaled_final/0585_rv.mp4	0.0	182.73143601417542	2.499948024749756
27	146.0745768547058	pulse	1	t		25.0	2.5	/experiments/AOT/AOT_stimuli/rescaled_final/0585_rv.mp4	0.0	183.91505789756775	
27	147.39090299606323	fix_post	2		12	25.0	2.5	/experiments/AOT/AOT_stimuli/rescaled_final/0585_rv.mp4	0.0	185.23138403892517	0.09994792938232422
28	147.49085092544556	fix_pre	0		120	26.0	2.5	blank	1.0	185.3313319683075	1.0000569820404053
28	147.6744418144226	pulse	0	t		26.0	2.5	blank	1.0	185.51492285728455	
28	148.49090790748596	movie	1		300	26.0	2.5	blank	1.0	186.3313889503479	2.4999940395355225
28	149.2744379043579	pulse	1	t		26.0	2.5	blank	1.0	187.11491894721985	
28	150.8744249343872	pulse	1	t		26.0	2.5	blank	1.0	188.71490597724915	
28	150.99090194702148	fix_post	2		12	26.0	2.5	blank	1.0	188.83138298988342	0.10003495216369629
29	151.09093689918518	fix_pre	0		120	27.0	2.5	/experiments/AOT/AOT_stimuli/rescaled_final/1692_fw.mp4	0.0	188.93141794204712	1.0000040531158447
29	152.09094095230103	movie	1		245	27.0	2.5	/experiments/AOT/AOT_stimuli/rescaled_final/1692_fw.mp4	0.0	189.93142199516296	2.499959945678711
29	152.47412180900574	pulse	1	t		27.0	2.5	/experiments/AOT/AOT_stimuli/rescaled_final/1692_fw.mp4	0.0	190.31460285186768	
29	154.07435488700867	pulse	1	t		27.0	2.5	/experiments/AOT/AOT_stimuli/rescaled_final/1692_fw.mp4	0.0	191.9148359298706	
29	154.59090089797974	fix_post	2		12	27.0	2.5	/experiments/AOT/AOT_stimuli/rescaled_final/1692_fw.mp4	0.0	192.43138194084167	0.0999150276184082
30	154.69081592559814	fix_pre	0		119	28.0	2.5	/experiments/AOT/AOT_stimuli/rescaled_final/1034_rv.mp4	0.0	192.53129696846008	0.9917609691619873
30	155.67449378967285	pulse	0	t		28.0	2.5	/experiments/AOT/AOT_stimuli/rescaled_final/1034_rv.mp4	0.0	193.5149748325348	
30	155.68257689476013	movie	1		247	28.0	2.5	/experiments/AOT/AOT_stimuli/rescaled_final/1034_rv.mp4	0.0	193.52305793762207	2.5082359313964844
30	157.27403283119202	pulse	1	t		28.0	2.5	/experiments/AOT/AOT_stimuli/rescaled_final/1034_rv.mp4	0.0	195.11451387405396	
30	158.19081282615662	fix_post	2		12	28.0	2.5	/experiments/AOT/AOT_stimuli/rescaled_final/1034_rv.mp4	0.0	196.03129386901855	0.10008001327514648
31	158.29089283943176	fix_pre	0		120	29.0	2.5	/experiments/AOT/AOT_stimuli/rescaled_final/0016_fw.mp4	0.0	196.1313738822937	0.9995360374450684
31	158.87439894676208	pulse	0	t		29.0	2.5	/experiments/AOT/AOT_stimuli/rescaled_final/0016_fw.mp4	0.0	196.71487998962402	
31	159.29042887687683	movie	1		244	29.0	2.5	/experiments/AOT/AOT_stimuli/rescaled_final/0016_fw.mp4	0.0	197.13090991973877	2.5000290870666504
31	160.47446179389954	pulse	1	t		29.0	2.5	/experiments/AOT/AOT_stimuli/rescaled_final/0016_fw.mp4	0.0	198.31494283676147	
31	161.79045796394348	fix_post	2		12	29.0	2.5	/experiments/AOT/AOT_stimuli/rescaled_final/0016_fw.mp4	0.0	199.63093900680542	0.10038900375366211
32	161.89084696769714	fix_pre	0		120	30.0	2.5	/experiments/AOT/AOT_stimuli/rescaled_final/0448_fw.mp4	0.0	199.73132801055908	1.0000250339508057
32	162.07436394691467	pulse	0	t		30.0	2.5	/experiments/AOT/AOT_stimuli/rescaled_final/0448_fw.mp4	0.0	199.9148449897766	
32	162.89087200164795	movie	1		242	30.0	2.5	/experiments/AOT/AOT_stimuli/rescaled_final/0448_fw.mp4	0.0	200.7313530445099	2.49955677986145
32	163.67430782318115	pulse	1	t		30.0	2.5	/experiments/AOT/AOT_stimuli/rescaled_final/0448_fw.mp4	0.0	201.5147888660431	
32	165.2726879119873	pulse	1	t		30.0	2.5	/experiments/AOT/AOT_stimuli/rescaled_final/0448_fw.mp4	0.0	203.11316895484924	
32	165.3904287815094	fix_post	2		12	30.0	2.5	/experiments/AOT/AOT_stimuli/rescaled_final/0448_fw.mp4	0.0	203.23090982437134	0.1004021167755127
33	165.4908308982849	fix_pre	0		120	31.0	2.5	/experiments/AOT/AOT_stimuli/rescaled_final/1956_rv.mp4	0.0	203.33131194114685	0.9996628761291504
33	166.49049377441406	movie	1		243	31.0	2.5	/experiments/AOT/AOT_stimuli/rescaled_final/1956_rv.mp4	0.0	204.330974817276	2.499911069869995
33	166.87456679344177	pulse	1	t		31.0	2.5	/experiments/AOT/AOT_stimuli/rescaled_final/1956_rv.mp4	0.0	204.7150478363037	
33	168.47433996200562	pulse	1	t		31.0	2.5	/experiments/AOT/AOT_stimuli/rescaled_final/1956_rv.mp4	0.0	206.31482100486755	
33	168.99040484428406	fix_post	2		12	31.0	2.5	/experiments/AOT/AOT_stimuli/rescaled_final/1956_rv.mp4	0.0	206.830885887146	0.10045194625854492
34	169.0908567905426	fix_pre	0		119	32.0	2.5	/experiments/AOT/AOT_stimuli/rescaled_final/2126_rv.mp4	0.0	206.93133783340454	0.9916532039642334
34	170.0743968486786	pulse	0	t		32.0	2.5	/experiments/AOT/AOT_stimuli/rescaled_final/2126_rv.mp4	0.0	207.91487789154053	
34	170.08250999450684	movie	1		244	32.0	2.5	/experiments/AOT/AOT_stimuli/rescaled_final/2126_rv.mp4	0.0	207.92299103736877	2.507891893386841
34	171.67441987991333	pulse	1	t		32.0	2.5	/experiments/AOT/AOT_stimuli/rescaled_final/2126_rv.mp4	0.0	209.51490092277527	
34	172.59040188789368	fix_post	2		12	32.0	2.5	/experiments/AOT/AOT_stimuli/rescaled_final/2126_rv.mp4	0.0	210.43088293075562	0.10046195983886719
35	172.69086384773254	fix_pre	0		120	33.0	2.5	/experiments/AOT/AOT_stimuli/rescaled_final/1613_rv.mp4	0.0	210.53134489059448	0.9999589920043945
35	173.274395942688	pulse	0	t		33.0	2.5	/experiments/AOT/AOT_stimuli/rescaled_final/1613_rv.mp4	0.0	211.11487698554993	
35	173.69082283973694	movie	1		245	33.0	2.5	/experiments/AOT/AOT_stimuli/rescaled_final/1613_rv.mp4	0.0	211.53130388259888	2.4995529651641846
35	174.87441277503967	pulse	1	t		33.0	2.5	/experiments/AOT/AOT_stimuli/rescaled_final/1613_rv.mp4	0.0	212.7148938179016	
35	176.19037580490112	fix_post	2		12	33.0	2.5	/experiments/AOT/AOT_stimuli/rescaled_final/1613_rv.mp4	0.0	214.03085684776306	0.10043597221374512
36	176.29081177711487	fix_pre	0		120	34.0	2.5	/experiments/AOT/AOT_stimuli/rescaled_final/0712_rv.mp4	0.0	214.1312928199768	0.9995460510253906
36	176.47427678108215	pulse	0	t		34.0	2.5	/experiments/AOT/AOT_stimuli/rescaled_final/0712_rv.mp4	0.0	214.3147578239441	
36	177.29035782814026	movie	1		246	34.0	2.5	/experiments/AOT/AOT_stimuli/rescaled_final/0712_rv.mp4	0.0	215.1308388710022	2.5006840229034424
36	178.07387590408325	pulse	1	t		34.0	2.5	/experiments/AOT/AOT_stimuli/rescaled_final/0712_rv.mp4	0.0	215.9143569469452	
36	179.67003893852234	pulse	1	t		34.0	2.5	/experiments/AOT/AOT_stimuli/rescaled_final/0712_rv.mp4	0.0	217.51051998138428	
36	179.7910418510437	fix_post	2		12	34.0	2.5	/experiments/AOT/AOT_stimuli/rescaled_final/0712_rv.mp4	0.0	217.63152289390564	0.10009598731994629
37	179.89113783836365	fix_pre	0		120	35.0	2.5	blank	1.0	217.7316188812256	0.9996590614318848
37	180.89079689979553	movie	1		300	35.0	2.5	blank	1.0	218.73127794265747	2.499972105026245
37	181.27435088157654	pulse	1	t		35.0	2.5	blank	1.0	219.11483192443848	
37	182.87428283691406	pulse	1	t		35.0	2.5	blank	1.0	220.714763879776	
37	183.39076900482178	fix_post	2		12	35.0	2.5	blank	1.0	221.23125004768372	0.1000208854675293
38	183.4907898902893	fix_pre	0		119	36.0	2.5	/experiments/AOT/AOT_stimuli/rescaled_final/0790_rv.mp4	0.0	221.33127093315125	0.9916191101074219
38	184.4743149280548	pulse	0	t		36.0	2.5	/experiments/AOT/AOT_stimuli/rescaled_final/0790_rv.mp4	0.0	222.31479597091675	
38	184.48240900039673	movie	1		245	36.0	2.5	/experiments/AOT/AOT_stimuli/rescaled_final/0790_rv.mp4	0.0	222.32289004325867	2.5082898139953613
38	186.07424092292786	pulse	1	t		36.0	2.5	/experiments/AOT/AOT_stimuli/rescaled_final/0790_rv.mp4	0.0	223.9147219657898	
38	186.9906988143921	fix_post	2		12	36.0	2.5	/experiments/AOT/AOT_stimuli/rescaled_final/0790_rv.mp4	0.0	224.83117985725403	0.10002017021179199
39	187.09071898460388	fix_pre	0		120	37.0	2.5	/experiments/AOT/AOT_stimuli/rescaled_final/0896_rv.mp4	0.0	224.93120002746582	0.9999809265136719
39	187.67437386512756	pulse	0	t		37.0	2.5	/experiments/AOT/AOT_stimuli/rescaled_final/0896_rv.mp4	0.0	225.5148549079895	
39	188.09069991111755	movie	1		243	37.0	2.5	/experiments/AOT/AOT_stimuli/rescaled_final/0896_rv.mp4	0.0	225.9311809539795	2.5000059604644775
39	189.27428698539734	pulse	1	t		37.0	2.5	/experiments/AOT/AOT_stimuli/rescaled_final/0896_rv.mp4	0.0	227.11476802825928	
39	190.59070587158203	fix_post	2		12	37.0	2.5	/experiments/AOT/AOT_stimuli/rescaled_final/0896_rv.mp4	0.0	228.43118691444397	0.09995412826538086
40	190.6906599998474	fix_pre	0		120	38.0	2.5	/experiments/AOT/AOT_stimuli/rescaled_final/0422_rv.mp4	0.0	228.53114104270935	1.0000598430633545
40	190.87416982650757	pulse	0	t		38.0	2.5	/experiments/AOT/AOT_stimuli/rescaled_final/0422_rv.mp4	0.0	228.7146508693695	
40	191.69071984291077	movie	1		244	38.0	2.5	/experiments/AOT/AOT_stimuli/rescaled_final/0422_rv.mp4	0.0	229.5312008857727	2.4999890327453613
40	192.47414088249207	pulse	1	t		38.0	2.5	/experiments/AOT/AOT_stimuli/rescaled_final/0422_rv.mp4	0.0	230.314621925354	
40	194.07321977615356	pulse	1	t		38.0	2.5	/experiments/AOT/AOT_stimuli/rescaled_final/0422_rv.mp4	0.0	231.9137008190155	
40	194.19070887565613	fix_post	2		12	38.0	2.5	/experiments/AOT/AOT_stimuli/rescaled_final/0422_rv.mp4	0.0	232.03118991851807	0.0999760627746582
41	194.2906849384308	fix_pre	0		120	39.0	2.5	/experiments/AOT/AOT_stimuli/rescaled_final/0557_fw.mp4	0.0	232.13116598129272	1.0000050067901611
41	195.29068994522095	movie	1		244	39.0	2.5	/experiments/AOT/AOT_stimuli/rescaled_final/0557_fw.mp4	0.0	233.13117098808289	2.5000948905944824
41	195.67547178268433	pulse	1	t		39.0	2.5	/experiments/AOT/AOT_stimuli/rescaled_final/0557_fw.mp4	0.0	233.51595282554626	
41	197.27419996261597	pulse	1	t		39.0	2.5	/experiments/AOT/AOT_stimuli/rescaled_final/0557_fw.mp4	0.0	235.1146810054779	
41	197.79078483581543	fix_post	2		12	39.0	2.5	/experiments/AOT/AOT_stimuli/rescaled_final/0557_fw.mp4	0.0	235.63126587867737	0.09987616539001465
42	197.89066100120544	fix_pre	0		119	40.0	2.5	blank	1.0	235.73114204406738	0.991689920425415
42	198.87420892715454	pulse	0	t		40.0	2.5	blank	1.0	236.71468997001648	
42	198.88235092163086	movie	1		301	40.0	2.5	blank	1.0	236.7228319644928	2.50826096534729
42	200.47423195838928	pulse	1	t		40.0	2.5	blank	1.0	238.31471300125122	
42	201.39061188697815	fix_post	2		12	40.0	2.5	blank	1.0	239.2310929298401	0.10010910034179688
43	201.49072098731995	fix_pre	0		120	41.0	2.5	/experiments/AOT/AOT_stimuli/rescaled_final/1717_fw.mp4	0.0	239.33120203018188	0.9999938011169434
43	202.07425785064697	pulse	0	t		41.0	2.5	/experiments/AOT/AOT_stimuli/rescaled_final/1717_fw.mp4	0.0	239.9147388935089	
43	202.4907147884369	movie	1		243	41.0	2.5	/experiments/AOT/AOT_stimuli/rescaled_final/1717_fw.mp4	0.0	240.33119583129883	2.4999451637268066
43	203.6742558479309	pulse	1	t		41.0	2.5	/experiments/AOT/AOT_stimuli/rescaled_final/1717_fw.mp4	0.0	241.51473689079285	
43	204.9906599521637	fix_post	2		12	41.0	2.5	/experiments/AOT/AOT_stimuli/rescaled_final/1717_fw.mp4	0.0	242.83114099502563	0.09997892379760742
44	205.0906388759613	fix_pre	0		120	42.0	2.5	/experiments/AOT/AOT_stimuli/rescaled_final/0210_rv.mp4	0.0	242.93111991882324	1.0002479553222656
44	205.27415800094604	pulse	0	t		42.0	2.5	/experiments/AOT/AOT_stimuli/rescaled_final/0210_rv.mp4	0.0	243.11463904380798	
44	206.09088683128357	movie	1		243	42.0	2.5	/experiments/AOT/AOT_stimuli/rescaled_final/0210_rv.mp4	0.0	243.9313678741455	2.4997010231018066
44	206.87409090995789	pulse	1	t		42.0	2.5	/experiments/AOT/AOT_stimuli/rescaled_final/0210_rv.mp4	0.0	244.71457195281982	
44	208.47288990020752	pulse	1	t		42.0	2.5	/experiments/AOT/AOT_stimuli/rescaled_final/0210_rv.mp4	0.0	246.31337094306946	
44	208.59058785438538	fix_post	2		12	42.0	2.5	/experiments/AOT/AOT_stimuli/rescaled_final/0210_rv.mp4	0.0	246.43106889724731	0.10001206398010254
45	208.69059991836548	fix_pre	0		120	43.0	2.5	/experiments/AOT/AOT_stimuli/rescaled_final/0315_rv.mp4	0.0	246.53108096122742	1.000032901763916
45	209.6906328201294	movie	1		245	43.0	2.5	/experiments/AOT/AOT_stimuli/rescaled_final/0315_rv.mp4	0.0	247.53111386299133	2.4997100830078125
45	210.07381677627563	pulse	1	t		43.0	2.5	/experiments/AOT/AOT_stimuli/rescaled_final/0315_rv.mp4	0.0	247.91429781913757	
45	211.67418885231018	pulse	1	t		43.0	2.5	/experiments/AOT/AOT_stimuli/rescaled_final/0315_rv.mp4	0.0	249.51466989517212	
45	212.1903429031372	fix_post	2		12	43.0	2.5	/experiments/AOT/AOT_stimuli/rescaled_final/0315_rv.mp4	0.0	250.03082394599915	0.10025691986083984
46	212.29059982299805	fix_pre	0		119	44.0	2.5	/experiments/AOT/AOT_stimuli/rescaled_final/1856_rv.mp4	0.0	250.13108086585999	0.991732120513916
46	213.27413177490234	pulse	0	t		44.0	2.5	/experiments/AOT/AOT_stimuli/rescaled_final/1856_rv.mp4	0.0	251.11461281776428	
46	213.28233194351196	movie	1		244	44.0	2.5	/experiments/AOT/AOT_stimuli/rescaled_final/1856_rv.mp4	0.0	251.1228129863739	2.508297920227051
46	214.8736448287964	pulse	1	t		44.0	2.5	/experiments/AOT/AOT_stimuli/rescaled_final/1856_rv.mp4	0.0	252.71412587165833	
46	215.790629863739	fix_post	2		12	44.0	2.5	/experiments/AOT/AOT_stimuli/rescaled_final/1856_rv.mp4	0.0	253.63111090660095	0.09995603561401367
47	215.89058589935303	fix_pre	0		120	45.0	2.5	/experiments/AOT/AOT_stimuli/rescaled_final/1316_rv.mp4	0.0	253.73106694221497	1.0000100135803223
47	216.47410488128662	pulse	0	t		45.0	2.5	/experiments/AOT/AOT_stimuli/rescaled_final/1316_rv.mp4	0.0	254.31458592414856	
47	216.89059591293335	movie	1		244	45.0	2.5	/experiments/AOT/AOT_stimuli/rescaled_final/1316_rv.mp4	0.0	254.7310769557953	2.5000200271606445
47	218.07427787780762	pulse	1	t		45.0	2.5	/experiments/AOT/AOT_stimuli/rescaled_final/1316_rv.mp4	0.0	255.91475892066956	
47	219.390615940094	fix_post	2		12	45.0	2.5	/experiments/AOT/AOT_stimuli/rescaled_final/1316_rv.mp4	0.0	257.23109698295593	0.0999610424041748
48	219.49057698249817	fix_pre	0		120	46.0	2.5	/experiments/AOT/AOT_stimuli/rescaled_final/2087_rv.mp4	0.0	257.3310580253601	1.0000619888305664
48	219.67413091659546	pulse	0	t		46.0	2.5	/experiments/AOT/AOT_stimuli/rescaled_final/2087_rv.mp4	0.0	257.5146119594574	
48	220.49063897132874	movie	1		243	46.0	2.5	/experiments/AOT/AOT_stimuli/rescaled_final/2087_rv.mp4	0.0	258.3311200141907	2.4999308586120605
48	221.27405381202698	pulse	1	t		46.0	2.5	/experiments/AOT/AOT_stimuli/rescaled_final/2087_rv.mp4	0.0	259.1145348548889	
48	222.87256789207458	pulse	1	t		46.0	2.5	/experiments/AOT/AOT_stimuli/rescaled_final/2087_rv.mp4	0.0	260.7130489349365	
48	222.9905698299408	fix_post	2		12	46.0	2.5	/experiments/AOT/AOT_stimuli/rescaled_final/2087_rv.mp4	0.0	260.83105087280273	0.09996414184570312
49	223.0905339717865	fix_pre	0		120	47.0	2.5	/experiments/AOT/AOT_stimuli/rescaled_final/2091_fw.mp4	0.0	260.93101501464844	1.0000789165496826
49	224.09061288833618	movie	1		243	47.0	2.5	/experiments/AOT/AOT_stimuli/rescaled_final/2091_fw.mp4	0.0	261.9310939311981	2.5000150203704834
49	224.4738688468933	pulse	1	t		47.0	2.5	/experiments/AOT/AOT_stimuli/rescaled_final/2091_fw.mp4	0.0	262.31434988975525	
49	226.07407879829407	pulse	1	t		47.0	2.5	/experiments/AOT/AOT_stimuli/rescaled_final/2091_fw.mp4	0.0	263.914559841156	
49	226.59062790870667	fix_post	2		12	47.0	2.5	/experiments/AOT/AOT_stimuli/rescaled_final/2091_fw.mp4	0.0	264.4311089515686	0.09999489784240723
50	226.69062280654907	fix_pre	0		119	48.0	2.5	/experiments/AOT/AOT_stimuli/rescaled_final/0615_fw.mp4	0.0	264.531103849411	0.9916441440582275
50	227.6741578578949	pulse	0	t		48.0	2.5	/experiments/AOT/AOT_stimuli/rescaled_final/0615_fw.mp4	0.0	265.51463890075684	
50	227.6822669506073	movie	1		244	48.0	2.5	/experiments/AOT/AOT_stimuli/rescaled_final/0615_fw.mp4	0.0	265.52274799346924	2.5083088874816895
50	229.27380800247192	pulse	1	t		48.0	2.5	/experiments/AOT/AOT_stimuli/rescaled_final/0615_fw.mp4	0.0	267.11428904533386	
50	230.190575838089	fix_post	2		12	48.0	2.5	/experiments/AOT/AOT_stimuli/rescaled_final/0615_fw.mp4	0.0	268.0310568809509	0.09999513626098633
51	230.29057097434998	fix_pre	0		120	49.0	2.5	blank	1.0	268.1310520172119	0.9996488094329834
51	230.87407684326172	pulse	0	t		49.0	2.5	blank	1.0	268.71455788612366	
51	231.29021978378296	movie	1		300	49.0	2.5	blank	1.0	269.1307008266449	2.49989914894104
51	232.4740469455719	pulse	1	t		49.0	2.5	blank	1.0	270.31452798843384	
51	233.790118932724	fix_post	2		12	49.0	2.5	blank	1.0	271.63059997558594	0.10004305839538574
52	233.89016199111938	fix_pre	0		120	50.0	2.5	/experiments/AOT/AOT_stimuli/rescaled_final/0141_fw.mp4	0.0	271.7306430339813	1.0001168251037598
52	234.07359886169434	pulse	0	t		50.0	2.5	/experiments/AOT/AOT_stimuli/rescaled_final/0141_fw.mp4	0.0	271.9140799045563	
52	234.89027881622314	movie	1		244	50.0	2.5	/experiments/AOT/AOT_stimuli/rescaled_final/0141_fw.mp4	0.0	272.7307598590851	2.500230073928833
52	235.6738579273224	pulse	1	t		50.0	2.5	/experiments/AOT/AOT_stimuli/rescaled_final/0141_fw.mp4	0.0	273.5143389701843	
52	237.27276992797852	pulse	1	t		50.0	2.5	/experiments/AOT/AOT_stimuli/rescaled_final/0141_fw.mp4	0.0	275.11325097084045	
52	237.39050889015198	fix_post	2		12	50.0	2.5	/experiments/AOT/AOT_stimuli/rescaled_final/0141_fw.mp4	0.0	275.2309899330139	0.10002589225769043
53	237.49053478240967	fix_pre	0		120	51.0	2.5	/experiments/AOT/AOT_stimuli/rescaled_final/0367_rv.mp4	0.0	275.3310158252716	1.0000600814819336
53	238.4905948638916	movie	1		245	51.0	2.5	/experiments/AOT/AOT_stimuli/rescaled_final/0367_rv.mp4	0.0	276.33107590675354	2.4994819164276123
53	238.87356281280518	pulse	1	t		51.0	2.5	/experiments/AOT/AOT_stimuli/rescaled_final/0367_rv.mp4	0.0	276.7140438556671	
53	240.47397184371948	pulse	1	t		51.0	2.5	/experiments/AOT/AOT_stimuli/rescaled_final/0367_rv.mp4	0.0	278.3144528865814	
53	240.9900767803192	fix_post	2		12	51.0	2.5	/experiments/AOT/AOT_stimuli/rescaled_final/0367_rv.mp4	0.0	278.83055782318115	0.1004340648651123
54	241.09051084518433	fix_pre	0		119	52.0	2.5	/experiments/AOT/AOT_stimuli/rescaled_final/1093_fw.mp4	0.0	278.93099188804626	0.9915850162506104
54	242.0739369392395	pulse	0	t		52.0	2.5	/experiments/AOT/AOT_stimuli/rescaled_final/1093_fw.mp4	0.0	279.91441798210144	
54	242.08209586143494	movie	1		248	52.0	2.5	/experiments/AOT/AOT_stimuli/rescaled_final/1093_fw.mp4	0.0	279.9225769042969	2.5080559253692627
54	243.67515897750854	pulse	1	t		52.0	2.5	/experiments/AOT/AOT_stimuli/rescaled_final/1093_fw.mp4	0.0	281.5156400203705	
54	244.5901517868042	fix_post	2		12	52.0	2.5	/experiments/AOT/AOT_stimuli/rescaled_final/1093_fw.mp4	0.0	282.43063282966614	0.1003410816192627
55	244.69049286842346	fix_pre	0		120	53.0	2.5	/experiments/AOT/AOT_stimuli/rescaled_final/1945_rv.mp4	0.0	282.5309739112854	0.999953031539917
55	245.27397990226746	pulse	0	t		53.0	2.5	/experiments/AOT/AOT_stimuli/rescaled_final/1945_rv.mp4	0.0	283.1144609451294	
55	245.69044589996338	movie	1		247	53.0	2.5	/experiments/AOT/AOT_stimuli/rescaled_final/1945_rv.mp4	0.0	283.5309269428253	2.500070095062256
55	246.87410593032837	pulse	1	t		53.0	2.5	/experiments/AOT/AOT_stimuli/rescaled_final/1945_rv.mp4	0.0	284.7145869731903	
55	248.19051599502563	fix_post	2		12	53.0	2.5	/experiments/AOT/AOT_stimuli/rescaled_final/1945_rv.mp4	0.0	286.0309970378876	0.09988784790039062
56	248.29040384292603	fix_pre	0		120	54.0	2.5	blank	1.0	286.13088488578796	1.0001590251922607
56	248.47393679618835	pulse	0	t		54.0	2.5	blank	1.0	286.3144178390503	
56	249.2905628681183	movie	1		300	54.0	2.5	blank	1.0	287.1310439109802	2.499969959259033
56	250.07396292686462	pulse	1	t		54.0	2.5	blank	1.0	287.91444396972656	
56	251.67399787902832	pulse	1	t		54.0	2.5	blank	1.0	289.51447892189026	
56	251.79053282737732	fix_post	2		12	54.0	2.5	blank	1.0	289.63101387023926	0.099884033203125
57	251.89041686058044	fix_pre	0		120	55.0	2.5	/experiments/AOT/AOT_stimuli/rescaled_final/1563_rv.mp4	0.0	289.7308979034424	0.9999949932098389
57	252.89041185379028	movie	1		244	55.0	2.5	/experiments/AOT/AOT_stimuli/rescaled_final/1563_rv.mp4	0.0	290.7308928966522	2.499980926513672
57	253.27487683296204	pulse	1	t		55.0	2.5	/experiments/AOT/AOT_stimuli/rescaled_final/1563_rv.mp4	0.0	291.115357875824	
57	254.87393379211426	pulse	1	t		55.0	2.5	/experiments/AOT/AOT_stimuli/rescaled_final/1563_rv.mp4	0.0	292.7144148349762	
57	255.39039278030396	fix_post	2		12	55.0	2.5	/experiments/AOT/AOT_stimuli/rescaled_final/1563_rv.mp4	0.0	293.2308738231659	0.10003304481506348
58	255.49042582511902	fix_pre	0		119	56.0	2.5	/experiments/AOT/AOT_stimuli/rescaled_final/1140_fw.mp4	0.0	293.33090686798096	0.9916219711303711
58	256.47397685050964	pulse	0	t		56.0	2.5	/experiments/AOT/AOT_stimuli/rescaled_final/1140_fw.mp4	0.0	294.3144578933716	
58	256.4820477962494	movie	1		244	56.0	2.5	/experiments/AOT/AOT_stimuli/rescaled_final/1140_fw.mp4	0.0	294.3225288391113	2.5078961849212646
58	258.07377195358276	pulse	1	t		56.0	2.5	/experiments/AOT/AOT_stimuli/rescaled_final/1140_fw.mp4	0.0	295.9142529964447	
58	258.98994398117065	fix_post	2		12	56.0	2.5	/experiments/AOT/AOT_stimuli/rescaled_final/1140_fw.mp4	0.0	296.8304250240326	0.10004496574401855
59	259.0899889469147	fix_pre	0		120	57.0	2.5	/experiments/AOT/AOT_stimuli/rescaled_final/0309_rv.mp4	0.0	296.9304699897766	1.000356912612915
59	259.67389392852783	pulse	0	t		57.0	2.5	/experiments/AOT/AOT_stimuli/rescaled_final/0309_rv.mp4	0.0	297.51437497138977	
59	260.0903458595276	movie	1		244	57.0	2.5	/experiments/AOT/AOT_stimuli/rescaled_final/0309_rv.mp4	0.0	297.9308269023895	2.4996230602264404
59	261.27404594421387	pulse	1	t		57.0	2.5	/experiments/AOT/AOT_stimuli/rescaled_final/0309_rv.mp4	0.0	299.1145269870758	
59	262.589968919754	fix_post	2		12	57.0	2.5	/experiments/AOT/AOT_stimuli/rescaled_final/0309_rv.mp4	0.0	300.43044996261597	0.10047006607055664
60	262.6904389858246	fix_pre	0		120	58.0	2.5	/experiments/AOT/AOT_stimuli/rescaled_final/1362_rv.mp4	0.0	300.5309200286865	1.0000379085540771
60	262.87393498420715	pulse	0	t		58.0	2.5	/experiments/AOT/AOT_stimuli/rescaled_final/1362_rv.mp4	0.0	300.7144160270691	
60	263.69047689437866	movie	1		243	58.0	2.5	/experiments/AOT/AOT_stimuli/rescaled_final/1362_rv.mp4	0.0	301.5309579372406	2.4995028972625732
60	264.4739317893982	pulse	1	t		58.0	2.5	/experiments/AOT/AOT_stimuli/rescaled_final/1362_rv.mp4	0.0	302.31441283226013	
60	266.0725598335266	pulse	1	t		58.0	2.5	/experiments/AOT/AOT_stimuli/rescaled_final/1362_rv.mp4	0.0	303.91304087638855	
60	266.18997979164124	fix_post	2		12	58.0	2.5	/experiments/AOT/AOT_stimuli/rescaled_final/1362_rv.mp4	0.0	304.0304608345032	0.10036921501159668
61	266.29034900665283	fix_pre	0		120	59.0	2.5	/experiments/AOT/AOT_stimuli/rescaled_final/0712_rv.mp4	0.0	304.13083004951477	0.9998588562011719
61	267.290207862854	movie	1		244	59.0	2.5	/experiments/AOT/AOT_stimuli/rescaled_final/0712_rv.mp4	0.0	305.13068890571594	2.4996631145477295
61	267.6737937927246	pulse	1	t		59.0	2.5	/experiments/AOT/AOT_stimuli/rescaled_final/0712_rv.mp4	0.0	305.51427483558655	
61	269.2738859653473	pulse	1	t		59.0	2.5	/experiments/AOT/AOT_stimuli/rescaled_final/0712_rv.mp4	0.0	307.11436700820923	
61	269.78987097740173	fix_post	2		12	59.0	2.5	/experiments/AOT/AOT_stimuli/rescaled_final/0712_rv.mp4	0.0	307.6303520202637	0.10044097900390625
62	269.89031195640564	fix_pre	0		119	60.0	2.5	/experiments/AOT/AOT_stimuli/rescaled_final/1140_rv.mp4	0.0	307.7307929992676	0.9917328357696533
62	270.87376379966736	pulse	0	t		60.0	2.5	/experiments/AOT/AOT_stimuli/rescaled_final/1140_rv.mp4	0.0	308.7142448425293	
62	270.8820447921753	movie	1		245	60.0	2.5	/experiments/AOT/AOT_stimuli/rescaled_final/1140_rv.mp4	0.0	308.72252583503723	2.5082571506500244
62	272.4736249446869	pulse	1	t		60.0	2.5	/experiments/AOT/AOT_stimuli/rescaled_final/1140_rv.mp4	0.0	310.3141059875488	
62	273.3903019428253	fix_post	2		12	60.0	2.5	/experiments/AOT/AOT_stimuli/rescaled_final/1140_rv.mp4	0.0	311.23078298568726	0.09962296485900879
63	273.4899249076843	fix_pre	0		120	61.0	2.5	/experiments/AOT/AOT_stimuli/rescaled_final/0939_rv.mp4	0.0	311.33040595054626	1.000424861907959
63	274.07382798194885	pulse	0	t		61.0	2.5	/experiments/AOT/AOT_stimuli/rescaled_final/0939_rv.mp4	0.0	311.9143090248108	
63	274.4903497695923	movie	1		244	61.0	2.5	/experiments/AOT/AOT_stimuli/rescaled_final/0939_rv.mp4	0.0	312.3308308124542	2.4996471405029297
63	275.6739058494568	pulse	1	t		61.0	2.5	/experiments/AOT/AOT_stimuli/rescaled_final/0939_rv.mp4	0.0	313.5143868923187	
63	276.9899969100952	fix_post	2		12	61.0	2.5	/experiments/AOT/AOT_stimuli/rescaled_final/0939_rv.mp4	0.0	314.83047795295715	0.1002810001373291
64	277.09027791023254	fix_pre	0		120	62.0	2.5	blank	1.0	314.9307589530945	1.0000560283660889
64	277.27384877204895	pulse	0	t		62.0	2.5	blank	1.0	315.1143298149109	
64	278.09033393859863	movie	1		300	62.0	2.5	blank	1.0	315.93081498146057	2.5000109672546387
64	278.8738739490509	pulse	1	t		62.0	2.5	blank	1.0	316.71435499191284	
64	280.473858833313	pulse	1	t		62.0	2.5	blank	1.0	318.3143398761749	
64	280.59034490585327	fix_post	2		12	62.0	2.5	blank	1.0	318.4308259487152	0.10001397132873535
65	280.690358877182	fix_pre	0		120	63.0	2.5	/experiments/AOT/AOT_stimuli/rescaled_final/2091_rv.mp4	0.0	318.53083992004395	0.9995410442352295
65	281.68989992141724	movie	1		244	63.0	2.5	/experiments/AOT/AOT_stimuli/rescaled_final/2091_rv.mp4	0.0	319.5303809642792	2.5003609657287598
65	282.07338190078735	pulse	1	t		63.0	2.5	/experiments/AOT/AOT_stimuli/rescaled_final/2091_rv.mp4	0.0	319.9138629436493	
65	283.6737759113312	pulse	1	t		63.0	2.5	/experiments/AOT/AOT_stimuli/rescaled_final/2091_rv.mp4	0.0	321.5142569541931	
65	284.190260887146	fix_post	2		12	63.0	2.5	/experiments/AOT/AOT_stimuli/rescaled_final/2091_rv.mp4	0.0	322.03074193000793	0.10007405281066895
66	284.29033493995667	fix_pre	0		119	64.0	2.5	/experiments/AOT/AOT_stimuli/rescaled_final/1227_fw.mp4	0.0	322.1308159828186	0.9916808605194092
66	285.27387285232544	pulse	0	t		64.0	2.5	/experiments/AOT/AOT_stimuli/rescaled_final/1227_fw.mp4	0.0	323.1143538951874	
66	285.2820158004761	movie	1		245	64.0	2.5	/experiments/AOT/AOT_stimuli/rescaled_final/1227_fw.mp4	0.0	323.122496843338	2.5082790851593018
66	286.87339878082275	pulse	1	t		64.0	2.5	/experiments/AOT/AOT_stimuli/rescaled_final/1227_fw.mp4	0.0	324.7138798236847	
66	287.7902948856354	fix_post	2		12	64.0	2.5	/experiments/AOT/AOT_stimuli/rescaled_final/1227_fw.mp4	0.0	325.6307759284973	0.10000491142272949
67	287.8902997970581	fix_pre	0		120	65.0	2.5	/experiments/AOT/AOT_stimuli/rescaled_final/0767_fw.mp4	0.0	325.73078083992004	1.000014066696167
67	288.4738259315491	pulse	0	t		65.0	2.5	/experiments/AOT/AOT_stimuli/rescaled_final/0767_fw.mp4	0.0	326.314306974411	
67	288.8903138637543	movie	1		247	65.0	2.5	/experiments/AOT/AOT_stimuli/rescaled_final/0767_fw.mp4	0.0	326.7307949066162	2.50020694732666
67	290.07341480255127	pulse	1	t		65.0	2.5	/experiments/AOT/AOT_stimuli/rescaled_final/0767_fw.mp4	0.0	327.9138958454132	
67	291.39052081108093	fix_post	2		12	65.0	2.5	/experiments/AOT/AOT_stimuli/rescaled_final/0767_fw.mp4	0.0	329.23100185394287	0.09962201118469238
68	291.4901428222656	fix_pre	0		120	66.0	2.5	/experiments/AOT/AOT_stimuli/rescaled_final/0670_rv.mp4	0.0	329.33062386512756	1.0001230239868164
68	291.67364382743835	pulse	0	t		66.0	2.5	/experiments/AOT/AOT_stimuli/rescaled_final/0670_rv.mp4	0.0	329.5141248703003	
68	292.49026584625244	movie	1		244	66.0	2.5	/experiments/AOT/AOT_stimuli/rescaled_final/0670_rv.mp4	0.0	330.3307468891144	2.4995529651641846
68	293.2737879753113	pulse	1	t		66.0	2.5	/experiments/AOT/AOT_stimuli/rescaled_final/0670_rv.mp4	0.0	331.1142690181732	
68	294.8722069263458	pulse	1	t		66.0	2.5	/experiments/AOT/AOT_stimuli/rescaled_final/0670_rv.mp4	0.0	332.71268796920776	
68	294.9898188114166	fix_post	2		12	66.0	2.5	/experiments/AOT/AOT_stimuli/rescaled_final/0670_rv.mp4	0.0	332.83029985427856	0.0999610424041748
69	295.0897798538208	fix_pre	0		120	67.0	2.5	/experiments/AOT/AOT_stimuli/rescaled_final/0976_rv.mp4	0.0	332.93026089668274	1.0004589557647705
69	296.09023880958557	movie	1		246	67.0	2.5	/experiments/AOT/AOT_stimuli/rescaled_final/0976_rv.mp4	0.0	333.9307198524475	2.499969005584717
69	296.47342681884766	pulse	1	t		67.0	2.5	/experiments/AOT/AOT_stimuli/rescaled_final/0976_rv.mp4	0.0	334.3139078617096	
69	298.0737099647522	pulse	1	t		67.0	2.5	/experiments/AOT/AOT_stimuli/rescaled_final/0976_rv.mp4	0.0	335.91419100761414	
69	298.5902078151703	fix_post	2		12	67.0	2.5	/experiments/AOT/AOT_stimuli/rescaled_final/0976_rv.mp4	0.0	336.4306888580322	0.10003519058227539
70	298.69024300575256	fix_pre	0		119	68.0	2.5	blank	1.0	336.5307240486145	0.9916558265686035
70	299.67369198799133	pulse	0	t		68.0	2.5	blank	1.0	337.51417303085327	
70	299.68189883232117	movie	1		301	68.0	2.5	blank	1.0	337.5223798751831	2.508350133895874
70	301.27374386787415	pulse	1	t		68.0	2.5	blank	1.0	339.1142249107361	
70	302.19024896621704	fix_post	2		12	68.0	2.5	blank	1.0	340.030730009079	0.09993100166320801
71	302.29017996788025	fix_pre	0		120	69.0	2.5	/experiments/AOT/AOT_stimuli/rescaled_final/1390_fw.mp4	0.0	340.1306610107422	0.9995729923248291
71	302.8736779689789	pulse	0	t		69.0	2.5	/experiments/AOT/AOT_stimuli/rescaled_final/1390_fw.mp4	0.0	340.7141590118408	
71	303.2897529602051	movie	1		244	69.0	2.5	/experiments/AOT/AOT_stimuli/rescaled_final/1390_fw.mp4	0.0	341.130234003067	2.500483989715576
71	304.4738748073578	pulse	1	t		69.0	2.5	/experiments/AOT/AOT_stimuli/rescaled_final/1390_fw.mp4	0.0	342.3143558502197	
71	305.79023694992065	fix_post	2		12	69.0	2.5	/experiments/AOT/AOT_stimuli/rescaled_final/1390_fw.mp4	0.0	343.6307179927826	0.09990501403808594
72	305.89014196395874	fix_pre	0		120	70.0	2.5	/experiments/AOT/AOT_stimuli/rescaled_final/0057_fw.mp4	0.0	343.7306230068207	1.0000619888305664
72	306.073805809021	pulse	0	t		70.0	2.5	/experiments/AOT/AOT_stimuli/rescaled_final/0057_fw.mp4	0.0	343.91428685188293	
72	306.8902039527893	movie	1		246	70.0	2.5	/experiments/AOT/AOT_stimuli/rescaled_final/0057_fw.mp4	0.0	344.73068499565125	2.4999709129333496
72	307.6736738681793	pulse	1	t		70.0	2.5	/experiments/AOT/AOT_stimuli/rescaled_final/0057_fw.mp4	0.0	345.51415491104126	
72	309.2695028781891	pulse	1	t		70.0	2.5	/experiments/AOT/AOT_stimuli/rescaled_final/0057_fw.mp4	0.0	347.109983921051	
72	309.39017486572266	fix_post	2		12	70.0	2.5	/experiments/AOT/AOT_stimuli/rescaled_final/0057_fw.mp4	0.0	347.2306559085846	0.09998893737792969
73	309.4901638031006	fix_pre	0		120	71.0	2.5	/experiments/AOT/AOT_stimuli/rescaled_final/0085_rv.mp4	0.0	347.3306448459625	0.9996540546417236
73	310.4898178577423	movie	1		245	71.0	2.5	/experiments/AOT/AOT_stimuli/rescaled_final/0085_rv.mp4	0.0	348.33029890060425	2.4999561309814453
73	310.8734369277954	pulse	1	t		71.0	2.5	/experiments/AOT/AOT_stimuli/rescaled_final/0085_rv.mp4	0.0	348.71391797065735	
73	312.4737069606781	pulse	1	t		71.0	2.5	/experiments/AOT/AOT_stimuli/rescaled_final/0085_rv.mp4	0.0	350.31418800354004	
73	312.98977398872375	fix_post	2		12	71.0	2.5	/experiments/AOT/AOT_stimuli/rescaled_final/0085_rv.mp4	0.0	350.8302550315857	0.10044193267822266
74	313.090215921402	fix_pre	0		119	72.0	2.5	/experiments/AOT/AOT_stimuli/rescaled_final/0924_fw.mp4	0.0	350.9306969642639	0.9915390014648438
74	314.0736999511719	pulse	0	t		72.0	2.5	/experiments/AOT/AOT_stimuli/rescaled_final/0924_fw.mp4	0.0	351.9141809940338	
74	314.0817549228668	movie	1		247	72.0	2.5	/experiments/AOT/AOT_stimuli/rescaled_final/0924_fw.mp4	0.0	351.92223596572876	2.508310079574585
74	315.6733729839325	pulse	1	t		72.0	2.5	/experiments/AOT/AOT_stimuli/rescaled_final/0924_fw.mp4	0.0	353.51385402679443	
74	316.5900650024414	fix_post	2		12	72.0	2.5	/experiments/AOT/AOT_stimuli/rescaled_final/0924_fw.mp4	0.0	354.43054604530334	0.09972286224365234
75	316.68978786468506	fix_pre	0		120	73.0	2.5	/experiments/AOT/AOT_stimuli/rescaled_final/0166_fw.mp4	0.0	354.530268907547	1.0002729892730713
75	317.27365279197693	pulse	0	t		73.0	2.5	/experiments/AOT/AOT_stimuli/rescaled_final/0166_fw.mp4	0.0	355.11413383483887	
75	317.69006085395813	movie	1		243	73.0	2.5	/experiments/AOT/AOT_stimuli/rescaled_final/0166_fw.mp4	0.0	355.53054189682007	2.4996590614318848
75	318.87372279167175	pulse	1	t		73.0	2.5	/experiments/AOT/AOT_stimuli/rescaled_final/0166_fw.mp4	0.0	356.7142038345337	
75	320.18971991539	fix_post	2		12	73.0	2.5	/experiments/AOT/AOT_stimuli/rescaled_final/0166_fw.mp4	0.0	358.03020095825195	0.10046195983886719
76	320.2901818752289	fix_pre	0		120	74.0	2.5	/experiments/AOT/AOT_stimuli/rescaled_final/1851_fw.mp4	0.0	358.1306629180908	0.9999399185180664
76	320.47360396385193	pulse	0	t		74.0	2.5	/experiments/AOT/AOT_stimuli/rescaled_final/1851_fw.mp4	0.0	358.31408500671387	
76	321.29012179374695	movie	1		245	74.0	2.5	/experiments/AOT/AOT_stimuli/rescaled_final/1851_fw.mp4	0.0	359.1306028366089	2.500101089477539
76	322.07356691360474	pulse	1	t		74.0	2.5	/experiments/AOT/AOT_stimuli/rescaled_final/1851_fw.mp4	0.0	359.9140479564667	
76	323.6696689128876	pulse	1	t		74.0	2.5	/experiments/AOT/AOT_stimuli/rescaled_final/1851_fw.mp4	0.0	361.5101499557495	
76	323.7902228832245	fix_post	2		12	74.0	2.5	/experiments/AOT/AOT_stimuli/rescaled_final/1851_fw.mp4	0.0	361.6307039260864	0.09990191459655762
77	323.89012479782104	fix_pre	0		120	75.0	2.5	/experiments/AOT/AOT_stimuli/rescaled_final/0779_rv.mp4	0.0	361.730605840683	0.9995741844177246
77	324.88969898223877	movie	1		246	75.0	2.5	/experiments/AOT/AOT_stimuli/rescaled_final/0779_rv.mp4	0.0	362.7301800251007	2.5003058910369873
77	325.27329683303833	pulse	1	t		75.0	2.5	/experiments/AOT/AOT_stimuli/rescaled_final/0779_rv.mp4	0.0	363.11377787590027	
77	326.8735988140106	pulse	1	t		75.0	2.5	/experiments/AOT/AOT_stimuli/rescaled_final/0779_rv.mp4	0.0	364.71407985687256	
77	327.39000487327576	fix_post	2		12	75.0	2.5	/experiments/AOT/AOT_stimuli/rescaled_final/0779_rv.mp4	0.0	365.2304859161377	0.1001579761505127
78	327.49016284942627	fix_pre	0		119	76.0	2.5	blank	1.0	365.3306438922882	0.9915950298309326
78	328.4736168384552	pulse	0	t		76.0	2.5	blank	1.0	366.31409788131714	
78	328.4817578792572	movie	1		301	76.0	2.5	blank	1.0	366.32223892211914	2.508294105529785
78	330.07361483573914	pulse	1	t		76.0	2.5	blank	1.0	367.9140958786011	
78	330.990051984787	fix_post	2		12	76.0	2.5	blank	1.0	368.8305330276489	0.1000058650970459
79	331.09005784988403	fix_pre	0		120	77.0	2.5	/experiments/AOT/AOT_stimuli/rescaled_final/0574_fw.mp4	0.0	368.930538892746	1.0000641345977783
79	331.6736328601837	pulse	0	t		77.0	2.5	/experiments/AOT/AOT_stimuli/rescaled_final/0574_fw.mp4	0.0	369.51411390304565	
79	332.0901219844818	movie	1		247	77.0	2.5	/experiments/AOT/AOT_stimuli/rescaled_final/0574_fw.mp4	0.0	369.93060302734375	2.50016188621521
79	333.2736418247223	pulse	1	t		77.0	2.5	/experiments/AOT/AOT_stimuli/rescaled_final/0574_fw.mp4	0.0	371.11412286758423	
79	334.590283870697	fix_post	2		12	77.0	2.5	/experiments/AOT/AOT_stimuli/rescaled_final/0574_fw.mp4	0.0	372.43076491355896	0.09934496879577637
80	334.6896288394928	fix_pre	0		120	78.0	2.5	/experiments/AOT/AOT_stimuli/rescaled_final/1629_rv.mp4	0.0	372.53010988235474	1.0004620552062988
80	334.8737368583679	pulse	0	t		78.0	2.5	/experiments/AOT/AOT_stimuli/rescaled_final/1629_rv.mp4	0.0	372.71421790122986	
80	335.6900908946991	movie	1		243	78.0	2.5	/experiments/AOT/AOT_stimuli/rescaled_final/1629_rv.mp4	0.0	373.53057193756104	2.499521017074585
80	336.4735269546509	pulse	1	t		78.0	2.5	/experiments/AOT/AOT_stimuli/rescaled_final/1629_rv.mp4	0.0	374.3140079975128	
80	338.0720717906952	pulse	1	t		78.0	2.5	/experiments/AOT/AOT_stimuli/rescaled_final/1629_rv.mp4	0.0	375.91255283355713	
80	338.1896119117737	fix_post	2		12	78.0	2.5	/experiments/AOT/AOT_stimuli/rescaled_final/1629_rv.mp4	0.0	376.0300929546356	0.10038495063781738
81	338.2899968624115	fix_pre	0		120	79.0	2.5	/experiments/AOT/AOT_stimuli/rescaled_final/0247_fw.mp4	0.0	376.13047790527344	1.0000650882720947
81	339.2900619506836	movie	1		244	79.0	2.5	/experiments/AOT/AOT_stimuli/rescaled_final/0247_fw.mp4	0.0	377.13054299354553	2.500056028366089
81	339.67304396629333	pulse	1	t		79.0	2.5	/experiments/AOT/AOT_stimuli/rescaled_final/0247_fw.mp4	0.0	377.5135250091553	
81	341.273521900177	pulse	1	t		79.0	2.5	/experiments/AOT/AOT_stimuli/rescaled_final/0247_fw.mp4	0.0	379.11400294303894	
81	341.7901179790497	fix_post	2		12	79.0	2.5	/experiments/AOT/AOT_stimuli/rescaled_final/0247_fw.mp4	0.0	379.6305990219116	0.09983301162719727
82	341.8899509906769	fix_pre	0		119	80.0	2.5	/experiments/AOT/AOT_stimuli/rescaled_final/1707_fw.mp4	0.0	379.7304320335388	0.9917898178100586
82	342.87365078926086	pulse	0	t		80.0	2.5	/experiments/AOT/AOT_stimuli/rescaled_final/1707_fw.mp4	0.0	380.7141318321228	
82	342.88174080848694	movie	1		244	80.0	2.5	/experiments/AOT/AOT_stimuli/rescaled_final/1707_fw.mp4	0.0	380.7222218513489	2.5079751014709473
82	344.47253799438477	pulse	1	t		80.0	2.5	/experiments/AOT/AOT_stimuli/rescaled_final/1707_fw.mp4	0.0	382.3130190372467	
82	345.3897159099579	fix_post	2		12	80.0	2.5	/experiments/AOT/AOT_stimuli/rescaled_final/1707_fw.mp4	0.0	383.2301969528198	0.09993505477905273
83	345.48965096473694	fix_pre	0		120	81.0	2.5	/experiments/AOT/AOT_stimuli/rescaled_final/1795_rv.mp4	0.0	383.3301320075989	1.0001089572906494
83	346.0732238292694	pulse	0	t		81.0	2.5	/experiments/AOT/AOT_stimuli/rescaled_final/1795_rv.mp4	0.0	383.91370487213135	
83	346.4897599220276	movie	1		244	81.0	2.5	/experiments/AOT/AOT_stimuli/rescaled_final/1795_rv.mp4	0.0	384.3302409648895	2.5002598762512207
83	347.67350792884827	pulse	1	t		81.0	2.5	/experiments/AOT/AOT_stimuli/rescaled_final/1795_rv.mp4	0.0	385.5139889717102	
83	348.9900197982788	fix_post	2		12	81.0	2.5	/experiments/AOT/AOT_stimuli/rescaled_final/1795_rv.mp4	0.0	386.83050084114075	0.09996414184570312
84	349.0899839401245	fix_pre	0		120	82.0	2.5	blank	1.0	386.93046498298645	1.0000669956207275
84	349.2734389305115	pulse	0	t		82.0	2.5	blank	1.0	387.1139199733734	
84	350.09005093574524	movie	1		300	82.0	2.5	blank	1.0	387.9305319786072	2.5
84	350.8734858036041	pulse	1	t		82.0	2.5	blank	1.0	388.71396684646606	
84	352.47352290153503	pulse	1	t		82.0	2.5	blank	1.0	390.314003944397	
84	352.59005093574524	fix_post	2		12	82.0	2.5	blank	1.0	390.4305319786072	0.10013604164123535
85	352.6901869773865	fix_pre	0		120	83.0	2.5	/experiments/AOT/AOT_stimuli/rescaled_final/0819_rv.mp4	0.0	390.5306680202484	0.9997990131378174
85	353.6899859905243	movie	1		246	83.0	2.5	/experiments/AOT/AOT_stimuli/rescaled_final/0819_rv.mp4	0.0	391.53046703338623	2.4998979568481445
85	354.07352590560913	pulse	1	t		83.0	2.5	/experiments/AOT/AOT_stimuli/rescaled_final/0819_rv.mp4	0.0	391.91400694847107	
85	355.6734268665314	pulse	1	t		83.0	2.5	/experiments/AOT/AOT_stimuli/rescaled_final/0819_rv.mp4	0.0	393.5139079093933	
85	356.18988394737244	fix_post	2		12	83.0	2.5	/experiments/AOT/AOT_stimuli/rescaled_final/0819_rv.mp4	0.0	394.0303649902344	0.10006189346313477
87	356.28994584083557	stim	0		1716					394.1304268836975	14.300009965896606
87	357.2734069824219	pulse	0	t						395.1138880252838	
87	358.873409986496	pulse	0	t						396.7138910293579	
87	360.4733898639679	pulse	0	t						398.31387090682983	
87	362.07340478897095	pulse	0	t						399.9138858318329	
87	363.6733658313751	pulse	0	t						401.51384687423706	
87	365.2733860015869	pulse	0	t						403.11386704444885	
87	366.87336778640747	pulse	0	t						404.7138488292694	
87	368.4732868671417	pulse	0	t						406.31376791000366	
87	370.0733439922333	pulse	0	t						407.9138250350952	
