trial_nr	onset	event_type	phase	response	nr_frames	movie_index	movie_duration	movie_file	blank	onset_abs	duration
0	0.14987802505493164	stim	0		106					21.05114221572876	0.8833568096160889
0	1.0251810550689697	response	0	space						21.926445245742798	
1	1.0332348346710205	stim	0		4256					21.93449902534485	35.47485303878784
1	36.496654987335205	pulse	0	t						57.39791917800903	
1	36.50808787345886	stim	1		1716					57.40935206413269	14.299854040145874
1	38.0912549495697	pulse	1	t						58.99251914024353	
1	39.69129991531372	pulse	1	t						60.59256410598755	
1	41.29153800010681	pulse	1	t						62.19280219078064	
1	42.89153695106506	pulse	1	t						63.79280114173889	
1	44.491617918014526	pulse	1	t						65.39288210868835	
1	46.09145188331604	pulse	1	t						66.99271607398987	
1	47.69147300720215	pulse	1	t						68.59273719787598	
1	49.291404008865356	pulse	1	t						70.19266819953918	
2	50.807941913604736	fix_pre	0		11	0.0	2.5	/experiments/AOT/AOT_stimuli/rescaled_final/1750_rv.mp4	0.0	71.70920610427856	0.09164309501647949
2	50.89140605926514	pulse	0	t		0.0	2.5	/experiments/AOT/AOT_stimuli/rescaled_final/1750_rv.mp4	0.0	71.79267024993896	
2	50.899585008621216	movie	1		244	0.0	2.5	/experiments/AOT/AOT_stimuli/rescaled_final/1750_rv.mp4	0.0	71.80084919929504	2.5083730220794678
2	52.49113702774048	pulse	1	t		0.0	2.5	/experiments/AOT/AOT_stimuli/rescaled_final/1750_rv.mp4	0.0	73.3924012184143	
2	53.407958030700684	fix_post	2		12	0.0	2.5	/experiments/AOT/AOT_stimuli/rescaled_final/1750_rv.mp4	0.0	74.30922222137451	0.09999585151672363
3	53.50795388221741	fix_pre	0		120	1.0	2.5	/experiments/AOT/AOT_stimuli/rescaled_final/0267_fw.mp4	0.0	74.40921807289124	0.9999690055847168
3	54.09150004386902	pulse	0	t		1.0	2.5	/experiments/AOT/AOT_stimuli/rescaled_final/0267_fw.mp4	0.0	74.99276423454285	
3	54.507922887802124	movie	1		244	1.0	2.5	/experiments/AOT/AOT_stimuli/rescaled_final/0267_fw.mp4	0.0	75.40918707847595	2.5000641345977783
3	55.6915328502655	pulse	1	t		1.0	2.5	/experiments/AOT/AOT_stimuli/rescaled_final/0267_fw.mp4	0.0	76.59279704093933	
3	57.0079870223999	fix_post	2		12	1.0	2.5	/experiments/AOT/AOT_stimuli/rescaled_final/0267_fw.mp4	0.0	77.90925121307373	0.09995889663696289
4	57.107945919036865	fix_pre	0		120	2.0	2.5	/experiments/AOT/AOT_stimuli/rescaled_final/2104_fw.mp4	0.0	78.0092101097107	1.0000109672546387
4	57.29148197174072	pulse	0	t		2.0	2.5	/experiments/AOT/AOT_stimuli/rescaled_final/2104_fw.mp4	0.0	78.19274616241455	
4	58.107956886291504	movie	1		243	2.0	2.5	/experiments/AOT/AOT_stimuli/rescaled_final/2104_fw.mp4	0.0	79.00922107696533	2.499559164047241
4	58.89139485359192	pulse	1	t		2.0	2.5	/experiments/AOT/AOT_stimuli/rescaled_final/2104_fw.mp4	0.0	79.79265904426575	
4	60.499757051467896	pulse	1	t		2.0	2.5	/experiments/AOT/AOT_stimuli/rescaled_final/2104_fw.mp4	0.0	81.40102124214172	
4	60.607516050338745	fix_post	2		12	2.0	2.5	/experiments/AOT/AOT_stimuli/rescaled_final/2104_fw.mp4	0.0	81.50878024101257	0.10042500495910645
5	60.70794105529785	fix_pre	0		120	3.0	2.5	/experiments/AOT/AOT_stimuli/rescaled_final/1885_rv.mp4	0.0	81.60920524597168	0.9995608329772949
5	61.70750188827515	movie	1		245	3.0	2.5	/experiments/AOT/AOT_stimuli/rescaled_final/1885_rv.mp4	0.0	82.60876607894897	2.500408172607422
5	62.09125304222107	pulse	1	t		3.0	2.5	/experiments/AOT/AOT_stimuli/rescaled_final/1885_rv.mp4	0.0	82.9925172328949	
5	63.69141483306885	pulse	1	t		3.0	2.5	/experiments/AOT/AOT_stimuli/rescaled_final/1885_rv.mp4	0.0	84.59267902374268	
5	64.20791006088257	fix_post	2		12	3.0	2.5	/experiments/AOT/AOT_stimuli/rescaled_final/1885_rv.mp4	0.0	85.1091742515564	0.10003995895385742
6	64.30795001983643	fix_pre	0		119	4.0	2.5	/experiments/AOT/AOT_stimuli/rescaled_final/0028_rv.mp4	0.0	85.20921421051025	0.9915478229522705
6	65.291424036026	pulse	0	t		4.0	2.5	/experiments/AOT/AOT_stimuli/rescaled_final/0028_rv.mp4	0.0	86.19268822669983	
6	65.2994978427887	movie	1		247	4.0	2.5	/experiments/AOT/AOT_stimuli/rescaled_final/0028_rv.mp4	0.0	86.20076203346252	2.5084731578826904
6	66.89148497581482	pulse	1	t		4.0	2.5	/experiments/AOT/AOT_stimuli/rescaled_final/0028_rv.mp4	0.0	87.79274916648865	
6	67.80797100067139	fix_post	2		12	4.0	2.5	/experiments/AOT/AOT_stimuli/rescaled_final/0028_rv.mp4	0.0	88.70923519134521	0.09996795654296875
7	67.90793895721436	fix_pre	0		120	5.0	2.5	/experiments/AOT/AOT_stimuli/rescaled_final/1395_fw.mp4	0.0	88.80920314788818	0.9999270439147949
7	68.49135494232178	pulse	0	t		5.0	2.5	/experiments/AOT/AOT_stimuli/rescaled_final/1395_fw.mp4	0.0	89.3926191329956	
7	68.90786600112915	movie	1		245	5.0	2.5	/experiments/AOT/AOT_stimuli/rescaled_final/1395_fw.mp4	0.0	89.80913019180298	2.499619960784912
7	70.09140706062317	pulse	1	t		5.0	2.5	/experiments/AOT/AOT_stimuli/rescaled_final/1395_fw.mp4	0.0	90.992671251297	
7	71.40748596191406	fix_post	2		12	5.0	2.5	/experiments/AOT/AOT_stimuli/rescaled_final/1395_fw.mp4	0.0	92.30875015258789	0.10062503814697266
8	71.50811100006104	fix_pre	0		120	6.0	2.5	blank	1.0	92.40937519073486	0.9997599124908447
8	71.69142603874207	pulse	0	t		6.0	2.5	blank	1.0	92.5926902294159	
8	72.50787091255188	movie	1		300	6.0	2.5	blank	1.0	93.40913510322571	2.50006103515625
8	73.29136085510254	pulse	1	t		6.0	2.5	blank	1.0	94.19262504577637	
8	74.89132499694824	pulse	1	t		6.0	2.5	blank	1.0	95.79258918762207	
8	75.00793194770813	fix_post	2		12	6.0	2.5	blank	1.0	95.90919613838196	0.09999394416809082
9	75.10792589187622	fix_pre	0		120	7.0	2.5	/experiments/AOT/AOT_stimuli/rescaled_final/0748_fw.mp4	0.0	96.00919008255005	0.999657154083252
9	76.10758304595947	movie	1		245	7.0	2.5	/experiments/AOT/AOT_stimuli/rescaled_final/0748_fw.mp4	0.0	97.0088472366333	2.5002458095550537
9	76.4909029006958	pulse	1	t		7.0	2.5	/experiments/AOT/AOT_stimuli/rescaled_final/0748_fw.mp4	0.0	97.39216709136963	
9	78.09136605262756	pulse	1	t		7.0	2.5	/experiments/AOT/AOT_stimuli/rescaled_final/0748_fw.mp4	0.0	98.99263024330139	
9	78.60782885551453	fix_post	2		12	7.0	2.5	/experiments/AOT/AOT_stimuli/rescaled_final/0748_fw.mp4	0.0	99.50909304618835	0.10009312629699707
10	78.70792198181152	fix_pre	0		119	8.0	2.5	/experiments/AOT/AOT_stimuli/rescaled_final/1235_fw.mp4	0.0	99.60918617248535	0.9915740489959717
10	79.69136190414429	pulse	0	t		8.0	2.5	/experiments/AOT/AOT_stimuli/rescaled_final/1235_fw.mp4	0.0	100.59262609481812	
10	79.6994960308075	movie	1		244	8.0	2.5	/experiments/AOT/AOT_stimuli/rescaled_final/1235_fw.mp4	0.0	100.60076022148132	2.508452892303467
10	81.29130792617798	pulse	1	t		8.0	2.5	/experiments/AOT/AOT_stimuli/rescaled_final/1235_fw.mp4	0.0	102.1925721168518	
10	82.20794892311096	fix_post	2		12	8.0	2.5	/experiments/AOT/AOT_stimuli/rescaled_final/1235_fw.mp4	0.0	103.10921311378479	0.09998106956481934
11	82.30792999267578	fix_pre	0		120	9.0	2.5	/experiments/AOT/AOT_stimuli/rescaled_final/0782_rv.mp4	0.0	103.20919418334961	0.9999048709869385
11	82.89136290550232	pulse	0	t		9.0	2.5	/experiments/AOT/AOT_stimuli/rescaled_final/0782_rv.mp4	0.0	103.79262709617615	
11	83.30783486366272	movie	1		244	9.0	2.5	/experiments/AOT/AOT_stimuli/rescaled_final/0782_rv.mp4	0.0	104.20909905433655	2.500041961669922
11	84.49141883850098	pulse	1	t		9.0	2.5	/experiments/AOT/AOT_stimuli/rescaled_final/0782_rv.mp4	0.0	105.3926830291748	
11	85.80787682533264	fix_post	2		12	9.0	2.5	/experiments/AOT/AOT_stimuli/rescaled_final/0782_rv.mp4	0.0	106.70914101600647	0.100006103515625
12	85.90788292884827	fix_pre	0		120	10.0	2.5	/experiments/AOT/AOT_stimuli/rescaled_final/1760_fw.mp4	0.0	106.8091471195221	0.9999620914459229
12	86.09133505821228	pulse	0	t		10.0	2.5	/experiments/AOT/AOT_stimuli/rescaled_final/1760_fw.mp4	0.0	106.99259924888611	
12	86.90784502029419	movie	1		243	10.0	2.5	/experiments/AOT/AOT_stimuli/rescaled_final/1760_fw.mp4	0.0	107.80910921096802	2.4999518394470215
12	87.69134783744812	pulse	1	t		10.0	2.5	/experiments/AOT/AOT_stimuli/rescaled_final/1760_fw.mp4	0.0	108.59261202812195	
12	89.29968094825745	pulse	1	t		10.0	2.5	/experiments/AOT/AOT_stimuli/rescaled_final/1760_fw.mp4	0.0	110.20094513893127	
12	89.40779685974121	fix_post	2		12	10.0	2.5	/experiments/AOT/AOT_stimuli/rescaled_final/1760_fw.mp4	0.0	110.30906105041504	0.10004210472106934
13	89.50783896446228	fix_pre	0		120	11.0	2.5	/experiments/AOT/AOT_stimuli/rescaled_final/1769_rv.mp4	0.0	110.40910315513611	1.0000360012054443
13	90.50787496566772	movie	1		243	11.0	2.5	/experiments/AOT/AOT_stimuli/rescaled_final/1769_rv.mp4	0.0	111.40913915634155	2.500005006790161
13	90.89099097251892	pulse	1	t		11.0	2.5	/experiments/AOT/AOT_stimuli/rescaled_final/1769_rv.mp4	0.0	111.79225516319275	
13	92.49130582809448	pulse	1	t		11.0	2.5	/experiments/AOT/AOT_stimuli/rescaled_final/1769_rv.mp4	0.0	113.39257001876831	
13	93.00787997245789	fix_post	2		12	11.0	2.5	/experiments/AOT/AOT_stimuli/rescaled_final/1769_rv.mp4	0.0	113.90914416313171	0.09999394416809082
14	93.10787391662598	fix_pre	0		119	12.0	2.5	blank	1.0	114.0091381072998	0.9911730289459229
14	94.09088802337646	pulse	0	t		12.0	2.5	blank	1.0	114.9921522140503	
14	94.0990469455719	movie	1		301	12.0	2.5	blank	1.0	115.00031113624573	2.5086209774017334
14	95.69146585464478	pulse	1	t		12.0	2.5	blank	1.0	116.5927300453186	
14	96.60766792297363	fix_post	2		12	12.0	2.5	blank	1.0	117.50893211364746	0.10002994537353516
15	96.70769786834717	fix_pre	0		120	13.0	2.5	/experiments/AOT/AOT_stimuli/rescaled_final/0234_fw.mp4	0.0	117.608962059021	1.0001859664916992
15	97.29119086265564	pulse	0	t		13.0	2.5	/experiments/AOT/AOT_stimuli/rescaled_final/0234_fw.mp4	0.0	118.19245505332947	
15	97.70788383483887	movie	1		244	13.0	2.5	/experiments/AOT/AOT_stimuli/rescaled_final/0234_fw.mp4	0.0	118.6091480255127	2.499852180480957
15	98.8912980556488	pulse	1	t		13.0	2.5	/experiments/AOT/AOT_stimuli/rescaled_final/0234_fw.mp4	0.0	119.79256224632263	
15	100.20773601531982	fix_post	2		12	13.0	2.5	/experiments/AOT/AOT_stimuli/rescaled_final/0234_fw.mp4	0.0	121.10900020599365	0.10001802444458008
16	100.3077540397644	fix_pre	0		120	14.0	2.5	/experiments/AOT/AOT_stimuli/rescaled_final/1750_fw.mp4	0.0	121.20901823043823	0.9996688365936279
16	100.49126291275024	pulse	0	t		14.0	2.5	/experiments/AOT/AOT_stimuli/rescaled_final/1750_fw.mp4	0.0	121.39252710342407	
16	101.30742287635803	movie	1		243	14.0	2.5	/experiments/AOT/AOT_stimuli/rescaled_final/1750_fw.mp4	0.0	122.20868706703186	2.500357151031494
16	102.09119391441345	pulse	1	t		14.0	2.5	/experiments/AOT/AOT_stimuli/rescaled_final/1750_fw.mp4	0.0	122.99245810508728	
16	103.69960403442383	pulse	1	t		14.0	2.5	/experiments/AOT/AOT_stimuli/rescaled_final/1750_fw.mp4	0.0	124.60086822509766	
16	103.80778002738953	fix_post	2		12	14.0	2.5	/experiments/AOT/AOT_stimuli/rescaled_final/1750_fw.mp4	0.0	124.70904421806335	0.09988999366760254
17	103.90767002105713	fix_pre	0		120	15.0	2.5	/experiments/AOT/AOT_stimuli/rescaled_final/2162_rv.mp4	0.0	124.80893421173096	1.0001299381256104
17	104.90779995918274	movie	1		244	15.0	2.5	/experiments/AOT/AOT_stimuli/rescaled_final/2162_rv.mp4	0.0	125.80906414985657	2.4999279975891113
17	105.29087996482849	pulse	1	t		15.0	2.5	/experiments/AOT/AOT_stimuli/rescaled_final/2162_rv.mp4	0.0	126.19214415550232	
17	106.89112997055054	pulse	1	t		15.0	2.5	/experiments/AOT/AOT_stimuli/rescaled_final/2162_rv.mp4	0.0	127.79239416122437	
17	107.40772795677185	fix_post	2		12	15.0	2.5	/experiments/AOT/AOT_stimuli/rescaled_final/2162_rv.mp4	0.0	128.30899214744568	0.0999910831451416
18	107.50771903991699	fix_pre	0		119	16.0	2.5	/experiments/AOT/AOT_stimuli/rescaled_final/0099_fw.mp4	0.0	128.40898323059082	0.9916489124298096
18	108.49121499061584	pulse	0	t		16.0	2.5	/experiments/AOT/AOT_stimuli/rescaled_final/0099_fw.mp4	0.0	129.39247918128967	
18	108.4993679523468	movie	1		247	16.0	2.5	/experiments/AOT/AOT_stimuli/rescaled_final/0099_fw.mp4	0.0	129.40063214302063	2.508294105529785
18	110.0908088684082	pulse	1	t		16.0	2.5	/experiments/AOT/AOT_stimuli/rescaled_final/0099_fw.mp4	0.0	130.99207305908203	
18	111.00766205787659	fix_post	2		12	16.0	2.5	/experiments/AOT/AOT_stimuli/rescaled_final/0099_fw.mp4	0.0	131.90892624855042	0.10004782676696777
19	111.10770988464355	fix_pre	0		120	17.0	2.5	/experiments/AOT/AOT_stimuli/rescaled_final/1737_fw.mp4	0.0	132.00897407531738	0.9999361038208008
19	111.69122791290283	pulse	0	t		17.0	2.5	/experiments/AOT/AOT_stimuli/rescaled_final/1737_fw.mp4	0.0	132.59249210357666	
19	112.10764598846436	movie	1		245	17.0	2.5	/experiments/AOT/AOT_stimuli/rescaled_final/1737_fw.mp4	0.0	133.00891017913818	2.5000669956207275
19	113.29133796691895	pulse	1	t		17.0	2.5	/experiments/AOT/AOT_stimuli/rescaled_final/1737_fw.mp4	0.0	134.19260215759277	
19	114.60771298408508	fix_post	2		12	17.0	2.5	/experiments/AOT/AOT_stimuli/rescaled_final/1737_fw.mp4	0.0	135.5089771747589	0.09997296333312988
20	114.70768594741821	fix_pre	0		120	18.0	2.5	/experiments/AOT/AOT_stimuli/rescaled_final/1915_rv.mp4	0.0	135.60895013809204	0.9999809265136719
20	114.89117884635925	pulse	0	t		18.0	2.5	/experiments/AOT/AOT_stimuli/rescaled_final/1915_rv.mp4	0.0	135.79244303703308	
20	115.70766687393188	movie	1		242	18.0	2.5	/experiments/AOT/AOT_stimuli/rescaled_final/1915_rv.mp4	0.0	136.6089310646057	2.5000181198120117
20	116.49111485481262	pulse	1	t		18.0	2.5	/experiments/AOT/AOT_stimuli/rescaled_final/1915_rv.mp4	0.0	137.39237904548645	
20	118.09959888458252	pulse	1	t		18.0	2.5	/experiments/AOT/AOT_stimuli/rescaled_final/1915_rv.mp4	0.0	139.00086307525635	
20	118.2076849937439	fix_post	2		12	18.0	2.5	/experiments/AOT/AOT_stimuli/rescaled_final/1915_rv.mp4	0.0	139.10894918441772	0.10003900527954102
21	118.30772399902344	fix_pre	0		120	19.0	2.5	/experiments/AOT/AOT_stimuli/rescaled_final/0311_rv.mp4	0.0	139.20898818969727	0.9999349117279053
21	119.30765891075134	movie	1		243	19.0	2.5	/experiments/AOT/AOT_stimuli/rescaled_final/0311_rv.mp4	0.0	140.20892310142517	2.4999840259552
21	119.69086694717407	pulse	1	t		19.0	2.5	/experiments/AOT/AOT_stimuli/rescaled_final/0311_rv.mp4	0.0	140.5921311378479	
21	121.29128503799438	pulse	1	t		19.0	2.5	/experiments/AOT/AOT_stimuli/rescaled_final/0311_rv.mp4	0.0	142.1925492286682	
21	121.80764293670654	fix_post	2		12	19.0	2.5	/experiments/AOT/AOT_stimuli/rescaled_final/0311_rv.mp4	0.0	142.70890712738037	0.10007596015930176
22	121.90771889686584	fix_pre	0		119	20.0	2.5	blank	1.0	142.80898308753967	0.9916090965270996
22	122.89117097854614	pulse	0	t		20.0	2.5	blank	1.0	143.79243516921997	
22	122.89932799339294	movie	1		301	20.0	2.5	blank	1.0	143.80059218406677	2.5082578659057617
22	124.49109387397766	pulse	1	t		20.0	2.5	blank	1.0	145.3923580646515	
22	125.4075858592987	fix_post	2		12	20.0	2.5	blank	1.0	146.30885004997253	0.10008811950683594
23	125.50767397880554	fix_pre	0		120	21.0	2.5	/experiments/AOT/AOT_stimuli/rescaled_final/2086_rv.mp4	0.0	146.40893816947937	0.9999380111694336
23	126.09119296073914	pulse	0	t		21.0	2.5	/experiments/AOT/AOT_stimuli/rescaled_final/2086_rv.mp4	0.0	146.99245715141296	
23	126.50761198997498	movie	1		244	21.0	2.5	/experiments/AOT/AOT_stimuli/rescaled_final/2086_rv.mp4	0.0	147.4088761806488	2.4999630451202393
23	127.69124794006348	pulse	1	t		21.0	2.5	/experiments/AOT/AOT_stimuli/rescaled_final/2086_rv.mp4	0.0	148.5925121307373	
23	129.00757503509521	fix_post	2		12	21.0	2.5	/experiments/AOT/AOT_stimuli/rescaled_final/2086_rv.mp4	0.0	149.90883922576904	0.10007190704345703
24	129.10764694213867	fix_pre	0		120	22.0	2.5	/experiments/AOT/AOT_stimuli/rescaled_final/2029_fw.mp4	0.0	150.0089111328125	0.9995729923248291
24	129.2911548614502	pulse	0	t		22.0	2.5	/experiments/AOT/AOT_stimuli/rescaled_final/2029_fw.mp4	0.0	150.19241905212402	
24	130.1072199344635	movie	1		246	22.0	2.5	/experiments/AOT/AOT_stimuli/rescaled_final/2029_fw.mp4	0.0	151.00848412513733	2.5003890991210938
24	130.8910789489746	pulse	1	t		22.0	2.5	/experiments/AOT/AOT_stimuli/rescaled_final/2029_fw.mp4	0.0	151.79234313964844	
24	132.49941492080688	pulse	1	t		22.0	2.5	/experiments/AOT/AOT_stimuli/rescaled_final/2029_fw.mp4	0.0	153.4006791114807	
24	132.6076090335846	fix_post	2		12	22.0	2.5	/experiments/AOT/AOT_stimuli/rescaled_final/2029_fw.mp4	0.0	153.50887322425842	0.09954094886779785
25	132.7071499824524	fix_pre	0		120	23.0	2.5	/experiments/AOT/AOT_stimuli/rescaled_final/0820_fw.mp4	0.0	153.60841417312622	1.0004959106445312
25	133.70764589309692	movie	1		245	23.0	2.5	/experiments/AOT/AOT_stimuli/rescaled_final/0820_fw.mp4	0.0	154.60891008377075	2.499951124191284
25	134.09959483146667	pulse	1	t		23.0	2.5	/experiments/AOT/AOT_stimuli/rescaled_final/0820_fw.mp4	0.0	155.0008590221405	
25	135.6912488937378	pulse	1	t		23.0	2.5	/experiments/AOT/AOT_stimuli/rescaled_final/0820_fw.mp4	0.0	156.59251308441162	
25	136.2075970172882	fix_post	2		12	23.0	2.5	/experiments/AOT/AOT_stimuli/rescaled_final/0820_fw.mp4	0.0	157.10886120796204	0.10001993179321289
26	136.30761694908142	fix_pre	0		119	24.0	2.5	/experiments/AOT/AOT_stimuli/rescaled_final/1917_fw.mp4	0.0	157.20888113975525	0.9917149543762207
26	137.29108905792236	pulse	0	t		24.0	2.5	/experiments/AOT/AOT_stimuli/rescaled_final/1917_fw.mp4	0.0	158.1923532485962	
26	137.29933190345764	movie	1		247	24.0	2.5	/experiments/AOT/AOT_stimuli/rescaled_final/1917_fw.mp4	0.0	158.20059609413147	2.508190155029297
26	138.89091801643372	pulse	1	t		24.0	2.5	/experiments/AOT/AOT_stimuli/rescaled_final/1917_fw.mp4	0.0	159.79218220710754	
26	139.80752205848694	fix_post	2		12	24.0	2.5	/experiments/AOT/AOT_stimuli/rescaled_final/1917_fw.mp4	0.0	160.70878624916077	0.10007977485656738
27	139.9076018333435	fix_pre	0		120	25.0	2.5	/experiments/AOT/AOT_stimuli/rescaled_final/0290_rv.mp4	0.0	160.80886602401733	1.000028133392334
27	140.4910638332367	pulse	0	t		25.0	2.5	/experiments/AOT/AOT_stimuli/rescaled_final/0290_rv.mp4	0.0	161.39232802391052	
27	140.90762996673584	movie	1		245	25.0	2.5	/experiments/AOT/AOT_stimuli/rescaled_final/0290_rv.mp4	0.0	161.80889415740967	2.5000150203704834
27	142.0911259651184	pulse	1	t		25.0	2.5	/experiments/AOT/AOT_stimuli/rescaled_final/0290_rv.mp4	0.0	162.99239015579224	
27	143.40764498710632	fix_post	2		12	25.0	2.5	/experiments/AOT/AOT_stimuli/rescaled_final/0290_rv.mp4	0.0	164.30890917778015	0.09984898567199707
28	143.50749397277832	fix_pre	0		120	26.0	2.5	blank	1.0	164.40875816345215	1.0000779628753662
28	143.6910970211029	pulse	0	t		26.0	2.5	blank	1.0	164.59236121177673	
28	144.5075719356537	movie	1		300	26.0	2.5	blank	1.0	165.40883612632751	2.499922037124634
28	145.2910919189453	pulse	1	t		26.0	2.5	blank	1.0	166.19235610961914	
28	146.89098501205444	pulse	1	t		26.0	2.5	blank	1.0	167.79224920272827	
28	147.00749397277832	fix_post	2		12	26.0	2.5	blank	1.0	167.90875816345215	0.10003995895385742
29	147.10753393173218	fix_pre	0		120	27.0	2.5	/experiments/AOT/AOT_stimuli/rescaled_final/2097_fw.mp4	0.0	168.008798122406	1.000049114227295
29	148.10758304595947	movie	1		245	27.0	2.5	/experiments/AOT/AOT_stimuli/rescaled_final/2097_fw.mp4	0.0	169.0088472366333	2.4999289512634277
29	148.49936890602112	pulse	1	t		27.0	2.5	/experiments/AOT/AOT_stimuli/rescaled_final/2097_fw.mp4	0.0	169.40063309669495	
29	150.09149289131165	pulse	1	t		27.0	2.5	/experiments/AOT/AOT_stimuli/rescaled_final/2097_fw.mp4	0.0	170.99275708198547	
29	150.6075119972229	fix_post	2		12	27.0	2.5	/experiments/AOT/AOT_stimuli/rescaled_final/2097_fw.mp4	0.0	171.50877618789673	0.10005593299865723
30	150.70756793022156	fix_pre	0		119	28.0	2.5	/experiments/AOT/AOT_stimuli/rescaled_final/2179_fw.mp4	0.0	171.60883212089539	0.9914031028747559
30	151.6911599636078	pulse	0	t		28.0	2.5	/experiments/AOT/AOT_stimuli/rescaled_final/2179_fw.mp4	0.0	172.59242415428162	
30	151.6989710330963	movie	1		245	28.0	2.5	/experiments/AOT/AOT_stimuli/rescaled_final/2179_fw.mp4	0.0	172.60023522377014	2.508111000061035
30	153.29932689666748	pulse	1	t		28.0	2.5	/experiments/AOT/AOT_stimuli/rescaled_final/2179_fw.mp4	0.0	174.2005910873413	
30	154.20708203315735	fix_post	2		12	28.0	2.5	/experiments/AOT/AOT_stimuli/rescaled_final/2179_fw.mp4	0.0	175.10834622383118	0.10043001174926758
31	154.30751204490662	fix_pre	0		120	29.0	2.5	/experiments/AOT/AOT_stimuli/rescaled_final/2163_rv.mp4	0.0	175.20877623558044	0.9999639987945557
31	154.89097094535828	pulse	0	t		29.0	2.5	/experiments/AOT/AOT_stimuli/rescaled_final/2163_rv.mp4	0.0	175.7922351360321	
31	155.30747604370117	movie	1		247	29.0	2.5	/experiments/AOT/AOT_stimuli/rescaled_final/2163_rv.mp4	0.0	176.208740234375	2.5000159740448
31	156.49101495742798	pulse	1	t		29.0	2.5	/experiments/AOT/AOT_stimuli/rescaled_final/2163_rv.mp4	0.0	177.3922791481018	
31	157.80749201774597	fix_post	2		12	29.0	2.5	/experiments/AOT/AOT_stimuli/rescaled_final/2163_rv.mp4	0.0	178.7087562084198	0.10001683235168457
32	157.90750885009766	fix_pre	0		120	30.0	2.5	/experiments/AOT/AOT_stimuli/rescaled_final/2049_rv.mp4	0.0	178.80877304077148	0.9999260902404785
32	158.09097003936768	pulse	0	t		30.0	2.5	/experiments/AOT/AOT_stimuli/rescaled_final/2049_rv.mp4	0.0	178.9922342300415	
32	158.90743494033813	movie	1		244	30.0	2.5	/experiments/AOT/AOT_stimuli/rescaled_final/2049_rv.mp4	0.0	179.80869913101196	2.499953031539917
32	159.6909840106964	pulse	1	t		30.0	2.5	/experiments/AOT/AOT_stimuli/rescaled_final/2049_rv.mp4	0.0	180.59224820137024	
32	161.29093194007874	pulse	1	t		30.0	2.5	/experiments/AOT/AOT_stimuli/rescaled_final/2049_rv.mp4	0.0	182.19219613075256	
32	161.40738797187805	fix_post	2		12	30.0	2.5	/experiments/AOT/AOT_stimuli/rescaled_final/2049_rv.mp4	0.0	182.30865216255188	0.10003805160522461
33	161.50742602348328	fix_pre	0		120	31.0	2.5	/experiments/AOT/AOT_stimuli/rescaled_final/2072_rv.mp4	0.0	182.4086902141571	1.0000379085540771
33	162.50746393203735	movie	1		246	31.0	2.5	/experiments/AOT/AOT_stimuli/rescaled_final/2072_rv.mp4	0.0	183.40872812271118	2.4995479583740234
33	162.89932703971863	pulse	1	t		31.0	2.5	/experiments/AOT/AOT_stimuli/rescaled_final/2072_rv.mp4	0.0	183.80059123039246	
33	164.4917390346527	pulse	1	t		31.0	2.5	/experiments/AOT/AOT_stimuli/rescaled_final/2072_rv.mp4	0.0	185.39300322532654	
33	165.00701189041138	fix_post	2		12	31.0	2.5	/experiments/AOT/AOT_stimuli/rescaled_final/2072_rv.mp4	0.0	185.9082760810852	0.10036516189575195
34	165.10737705230713	fix_pre	0		119	32.0	2.5	/experiments/AOT/AOT_stimuli/rescaled_final/2091_fw.mp4	0.0	186.00864124298096	0.9916708469390869
34	166.090970993042	pulse	0	t		32.0	2.5	/experiments/AOT/AOT_stimuli/rescaled_final/2091_fw.mp4	0.0	186.99223518371582	
34	166.09904789924622	movie	1		246	32.0	2.5	/experiments/AOT/AOT_stimuli/rescaled_final/2091_fw.mp4	0.0	187.00031208992004	2.5084290504455566
34	167.6993968486786	pulse	1	t		32.0	2.5	/experiments/AOT/AOT_stimuli/rescaled_final/2091_fw.mp4	0.0	188.60066103935242	
34	168.60747694969177	fix_post	2		12	32.0	2.5	/experiments/AOT/AOT_stimuli/rescaled_final/2091_fw.mp4	0.0	189.5087411403656	0.09995102882385254
35	168.70742797851562	fix_pre	0		120	33.0	2.5	/experiments/AOT/AOT_stimuli/rescaled_final/0621_fw.mp4	0.0	189.60869216918945	1.000025987625122
35	169.29090690612793	pulse	0	t		33.0	2.5	/experiments/AOT/AOT_stimuli/rescaled_final/0621_fw.mp4	0.0	190.19217109680176	
35	169.70745396614075	movie	1		243	33.0	2.5	/experiments/AOT/AOT_stimuli/rescaled_final/0621_fw.mp4	0.0	190.60871815681458	2.499940872192383
35	170.8909740447998	pulse	1	t		33.0	2.5	/experiments/AOT/AOT_stimuli/rescaled_final/0621_fw.mp4	0.0	191.79223823547363	
35	172.20739483833313	fix_post	2		12	33.0	2.5	/experiments/AOT/AOT_stimuli/rescaled_final/0621_fw.mp4	0.0	193.10865902900696	0.10004305839538574
36	172.30743789672852	fix_pre	0		120	34.0	2.5	/experiments/AOT/AOT_stimuli/rescaled_final/2051_fw.mp4	0.0	193.20870208740234	1.0001349449157715
36	172.490895986557	pulse	0	t		34.0	2.5	/experiments/AOT/AOT_stimuli/rescaled_final/2051_fw.mp4	0.0	193.39216017723083	
36	173.3075728416443	movie	1		243	34.0	2.5	/experiments/AOT/AOT_stimuli/rescaled_final/2051_fw.mp4	0.0	194.20883703231812	2.4993510246276855
36	174.09087204933167	pulse	1	t		34.0	2.5	/experiments/AOT/AOT_stimuli/rescaled_final/2051_fw.mp4	0.0	194.9921362400055	
36	175.69926500320435	pulse	1	t		34.0	2.5	/experiments/AOT/AOT_stimuli/rescaled_final/2051_fw.mp4	0.0	196.60052919387817	
36	175.80692386627197	fix_post	2		12	34.0	2.5	/experiments/AOT/AOT_stimuli/rescaled_final/2051_fw.mp4	0.0	196.7081880569458	0.10051202774047852
37	175.90743589401245	fix_pre	0		120	35.0	2.5	blank	1.0	196.80870008468628	0.9999439716339111
37	176.90737986564636	movie	1		300	35.0	2.5	blank	1.0	197.8086440563202	2.4999611377716064
37	177.29096484184265	pulse	1	t		35.0	2.5	blank	1.0	198.19222903251648	
37	178.89161896705627	pulse	1	t		35.0	2.5	blank	1.0	199.7928831577301	
37	179.40734100341797	fix_post	2		12	35.0	2.5	blank	1.0	200.3086051940918	0.10003495216369629
38	179.50737595558167	fix_pre	0		120	36.0	2.5	/experiments/AOT/AOT_stimuli/rescaled_final/0674_rv.mp4	0.0	200.4086401462555	0.9999489784240723
38	180.49166703224182	pulse	0	t		36.0	2.5	/experiments/AOT/AOT_stimuli/rescaled_final/0674_rv.mp4	0.0	201.39293122291565	
38	180.50732493400574	movie	1		247	36.0	2.5	/experiments/AOT/AOT_stimuli/rescaled_final/0674_rv.mp4	0.0	201.40858912467957	2.5084149837493896
38	182.0987000465393	pulse	1	t		36.0	2.5	/experiments/AOT/AOT_stimuli/rescaled_final/0674_rv.mp4	0.0	202.99996423721313	
38	183.01573991775513	fix_post	2		12	36.0	2.5	/experiments/AOT/AOT_stimuli/rescaled_final/0674_rv.mp4	0.0	203.91700410842896	0.09998607635498047
39	183.1157259941101	fix_pre	0		120	37.0	2.5	/experiments/AOT/AOT_stimuli/rescaled_final/0915_fw.mp4	0.0	204.01699018478394	0.9999978542327881
39	183.6908769607544	pulse	0	t		37.0	2.5	/experiments/AOT/AOT_stimuli/rescaled_final/0915_fw.mp4	0.0	204.59214115142822	
39	184.1157238483429	movie	1		245	37.0	2.5	/experiments/AOT/AOT_stimuli/rescaled_final/0915_fw.mp4	0.0	205.01698803901672	2.499993085861206
39	185.2992720603943	pulse	1	t		37.0	2.5	/experiments/AOT/AOT_stimuli/rescaled_final/0915_fw.mp4	0.0	206.20053625106812	
39	186.6157169342041	fix_post	2		12	37.0	2.5	/experiments/AOT/AOT_stimuli/rescaled_final/0915_fw.mp4	0.0	207.51698112487793	0.09996795654296875
40	186.71568489074707	fix_pre	0		120	38.0	2.5	/experiments/AOT/AOT_stimuli/rescaled_final/0099_rv.mp4	0.0	207.6169490814209	1.0000269412994385
40	186.89084601402283	pulse	0	t		38.0	2.5	/experiments/AOT/AOT_stimuli/rescaled_final/0099_rv.mp4	0.0	207.79211020469666	
40	187.7157118320465	movie	1		243	38.0	2.5	/experiments/AOT/AOT_stimuli/rescaled_final/0099_rv.mp4	0.0	208.61697602272034	2.4995901584625244
40	188.4907648563385	pulse	1	t		38.0	2.5	/experiments/AOT/AOT_stimuli/rescaled_final/0099_rv.mp4	0.0	209.39202904701233	
40	190.09083104133606	pulse	1	t		38.0	2.5	/experiments/AOT/AOT_stimuli/rescaled_final/0099_rv.mp4	0.0	210.9920952320099	
40	190.21530199050903	fix_post	2		12	38.0	2.5	/experiments/AOT/AOT_stimuli/rescaled_final/0099_rv.mp4	0.0	211.11656618118286	0.09993696212768555
41	190.31523895263672	fix_pre	0		120	39.0	2.5	/experiments/AOT/AOT_stimuli/rescaled_final/1850_fw.mp4	0.0	211.21650314331055	1.0003619194030762
41	191.3156008720398	movie	1		242	39.0	2.5	/experiments/AOT/AOT_stimuli/rescaled_final/1850_fw.mp4	0.0	212.21686506271362	2.5001060962677
41	191.69084882736206	pulse	1	t		39.0	2.5	/experiments/AOT/AOT_stimuli/rescaled_final/1850_fw.mp4	0.0	212.5921130180359	
41	193.29089498519897	pulse	1	t		39.0	2.5	/experiments/AOT/AOT_stimuli/rescaled_final/1850_fw.mp4	0.0	214.1921591758728	
41	193.8157069683075	fix_post	2		12	39.0	2.5	/experiments/AOT/AOT_stimuli/rescaled_final/1850_fw.mp4	0.0	214.71697115898132	0.09985899925231934
42	193.91556596755981	fix_pre	0		119	40.0	2.5	/experiments/AOT/AOT_stimuli/rescaled_final/1922_fw.mp4	0.0	214.81683015823364	0.9917259216308594
42	194.89157104492188	pulse	0	t		40.0	2.5	/experiments/AOT/AOT_stimuli/rescaled_final/1922_fw.mp4	0.0	215.7928352355957	
42	194.90729188919067	movie	1		244	40.0	2.5	/experiments/AOT/AOT_stimuli/rescaled_final/1922_fw.mp4	0.0	215.8085560798645	2.5083060264587402
42	196.49893498420715	pulse	1	t		40.0	2.5	/experiments/AOT/AOT_stimuli/rescaled_final/1922_fw.mp4	0.0	217.40019917488098	
42	197.4155979156494	fix_post	2		12	40.0	2.5	/experiments/AOT/AOT_stimuli/rescaled_final/1922_fw.mp4	0.0	218.31686210632324	0.10004091262817383
43	197.5156388282776	fix_pre	0		120	41.0	2.5	blank	1.0	218.41690301895142	0.9999690055847168
43	198.09158492088318	pulse	0	t		41.0	2.5	blank	1.0	218.992849111557	
43	198.5156078338623	movie	1		300	41.0	2.5	blank	1.0	219.41687202453613	2.4999420642852783
43	199.6915328502655	pulse	1	t		41.0	2.5	blank	1.0	220.59279704093933	
43	201.01554989814758	fix_post	2		12	41.0	2.5	blank	1.0	221.9168140888214	0.1000370979309082
44	201.1155869960785	fix_pre	0		120	42.0	2.5	/experiments/AOT/AOT_stimuli/rescaled_final/2033_fw.mp4	0.0	222.01685118675232	1.0000569820404053
44	201.2907509803772	pulse	0	t		42.0	2.5	/experiments/AOT/AOT_stimuli/rescaled_final/2033_fw.mp4	0.0	222.19201517105103	
44	202.1156439781189	movie	1		244	42.0	2.5	/experiments/AOT/AOT_stimuli/rescaled_final/2033_fw.mp4	0.0	223.01690816879272	2.49993896484375
44	202.89069390296936	pulse	1	t		42.0	2.5	/experiments/AOT/AOT_stimuli/rescaled_final/2033_fw.mp4	0.0	223.7919580936432	
44	204.49076890945435	pulse	1	t		42.0	2.5	/experiments/AOT/AOT_stimuli/rescaled_final/2033_fw.mp4	0.0	225.39203310012817	
44	204.61558294296265	fix_post	2		12	42.0	2.5	/experiments/AOT/AOT_stimuli/rescaled_final/2033_fw.mp4	0.0	225.51684713363647	0.10006093978881836
45	204.71564388275146	fix_pre	0		120	43.0	2.5	/experiments/AOT/AOT_stimuli/rescaled_final/1769_rv.mp4	0.0	225.6169080734253	0.9996030330657959
45	205.71524691581726	movie	1		243	43.0	2.5	/experiments/AOT/AOT_stimuli/rescaled_final/1769_rv.mp4	0.0	226.6165111064911	2.500230073928833
45	206.09824204444885	pulse	1	t		43.0	2.5	/experiments/AOT/AOT_stimuli/rescaled_final/1769_rv.mp4	0.0	226.99950623512268	
45	207.69064784049988	pulse	1	t		43.0	2.5	/experiments/AOT/AOT_stimuli/rescaled_final/1769_rv.mp4	0.0	228.5919120311737	
45	208.2154769897461	fix_post	2		12	43.0	2.5	/experiments/AOT/AOT_stimuli/rescaled_final/1769_rv.mp4	0.0	229.11674118041992	0.10004687309265137
46	208.31552386283875	fix_pre	0		118	44.0	2.5	/experiments/AOT/AOT_stimuli/rescaled_final/1176_fw.mp4	0.0	229.21678805351257	0.9835011959075928
46	209.29075002670288	pulse	0	t		44.0	2.5	/experiments/AOT/AOT_stimuli/rescaled_final/1176_fw.mp4	0.0	230.1920142173767	
46	209.29902505874634	movie	1		244	44.0	2.5	/experiments/AOT/AOT_stimuli/rescaled_final/1176_fw.mp4	0.0	230.20028924942017	2.5081839561462402
46	210.8908920288086	pulse	1	t		44.0	2.5	/experiments/AOT/AOT_stimuli/rescaled_final/1176_fw.mp4	0.0	231.79215621948242	
46	211.80720901489258	fix_post	2		12	44.0	2.5	/experiments/AOT/AOT_stimuli/rescaled_final/1176_fw.mp4	0.0	232.7084732055664	0.10000991821289062
47	211.90721893310547	fix_pre	0		120	45.0	2.5	/experiments/AOT/AOT_stimuli/rescaled_final/0832_fw.mp4	0.0	232.8084831237793	1.000101089477539
47	212.4915578365326	pulse	0	t		45.0	2.5	/experiments/AOT/AOT_stimuli/rescaled_final/0832_fw.mp4	0.0	233.39282202720642	
47	212.907320022583	movie	1		244	45.0	2.5	/experiments/AOT/AOT_stimuli/rescaled_final/0832_fw.mp4	0.0	233.80858421325684	2.4994359016418457
47	214.0916769504547	pulse	1	t		45.0	2.5	/experiments/AOT/AOT_stimuli/rescaled_final/0832_fw.mp4	0.0	234.99294114112854	
47	215.40675592422485	fix_post	2		12	45.0	2.5	/experiments/AOT/AOT_stimuli/rescaled_final/0832_fw.mp4	0.0	236.30802011489868	0.1005549430847168
48	215.50731086730957	fix_pre	0		120	46.0	2.5	/experiments/AOT/AOT_stimuli/rescaled_final/0314_rv.mp4	0.0	236.4085750579834	0.9998931884765625
48	215.69160389900208	pulse	0	t		46.0	2.5	/experiments/AOT/AOT_stimuli/rescaled_final/0314_rv.mp4	0.0	236.5928680896759	
48	216.50720405578613	movie	1		244	46.0	2.5	/experiments/AOT/AOT_stimuli/rescaled_final/0314_rv.mp4	0.0	237.40846824645996	2.499544858932495
48	217.2915689945221	pulse	1	t		46.0	2.5	/experiments/AOT/AOT_stimuli/rescaled_final/0314_rv.mp4	0.0	238.19283318519592	
48	218.89911603927612	pulse	1	t		46.0	2.5	/experiments/AOT/AOT_stimuli/rescaled_final/0314_rv.mp4	0.0	239.80038022994995	
48	219.00674891471863	fix_post	2		12	46.0	2.5	/experiments/AOT/AOT_stimuli/rescaled_final/0314_rv.mp4	0.0	239.90801310539246	0.10039806365966797
49	219.1071469783783	fix_pre	0		120	47.0	2.5	blank	1.0	240.00841116905212	1.0000920295715332
49	220.10723900794983	movie	1		300	47.0	2.5	blank	1.0	241.00850319862366	2.499910831451416
49	220.49072098731995	pulse	1	t		47.0	2.5	blank	1.0	241.39198517799377	
49	222.0906538963318	pulse	1	t		47.0	2.5	blank	1.0	242.99191808700562	
49	222.60714983940125	fix_post	2		12	47.0	2.5	blank	1.0	243.50841403007507	0.09996604919433594
50	222.70711588859558	fix_pre	0		119	48.0	2.5	/experiments/AOT/AOT_stimuli/rescaled_final/0187_rv.mp4	0.0	243.6083800792694	0.9916629791259766
50	223.69068384170532	pulse	0	t		48.0	2.5	/experiments/AOT/AOT_stimuli/rescaled_final/0187_rv.mp4	0.0	244.59194803237915	
50	223.69877886772156	movie	1		247	48.0	2.5	/experiments/AOT/AOT_stimuli/rescaled_final/0187_rv.mp4	0.0	244.60004305839539	2.5082831382751465
50	225.2904839515686	pulse	1	t		48.0	2.5	/experiments/AOT/AOT_stimuli/rescaled_final/0187_rv.mp4	0.0	246.19174814224243	
50	226.2070620059967	fix_post	2		12	48.0	2.5	/experiments/AOT/AOT_stimuli/rescaled_final/0187_rv.mp4	0.0	247.10832619667053	0.10007500648498535
51	226.3071370124817	fix_pre	0		120	49.0	2.5	/experiments/AOT/AOT_stimuli/rescaled_final/1736_fw.mp4	0.0	247.20840120315552	1.0001089572906494
51	226.890634059906	pulse	0	t		49.0	2.5	/experiments/AOT/AOT_stimuli/rescaled_final/1736_fw.mp4	0.0	247.79189825057983	
51	227.30724596977234	movie	1		244	49.0	2.5	/experiments/AOT/AOT_stimuli/rescaled_final/1736_fw.mp4	0.0	248.20851016044617	2.4994869232177734
51	228.49175906181335	pulse	1	t		49.0	2.5	/experiments/AOT/AOT_stimuli/rescaled_final/1736_fw.mp4	0.0	249.39302325248718	
51	229.8067328929901	fix_post	2		12	49.0	2.5	/experiments/AOT/AOT_stimuli/rescaled_final/1736_fw.mp4	0.0	250.70799708366394	0.10038900375366211
52	229.90712189674377	fix_pre	0		120	50.0	2.5	/experiments/AOT/AOT_stimuli/rescaled_final/1844_fw.mp4	0.0	250.8083860874176	1.0000710487365723
52	230.0914490222931	pulse	0	t		50.0	2.5	/experiments/AOT/AOT_stimuli/rescaled_final/1844_fw.mp4	0.0	250.99271321296692	
52	230.90719294548035	movie	1		245	50.0	2.5	/experiments/AOT/AOT_stimuli/rescaled_final/1844_fw.mp4	0.0	251.80845713615417	2.499876022338867
52	231.69149088859558	pulse	1	t		50.0	2.5	/experiments/AOT/AOT_stimuli/rescaled_final/1844_fw.mp4	0.0	252.5927550792694	
52	233.29891300201416	pulse	1	t		50.0	2.5	/experiments/AOT/AOT_stimuli/rescaled_final/1844_fw.mp4	0.0	254.200177192688	
52	233.4070689678192	fix_post	2		12	50.0	2.5	/experiments/AOT/AOT_stimuli/rescaled_final/1844_fw.mp4	0.0	254.30833315849304	0.10008597373962402
53	233.50715494155884	fix_pre	0		120	51.0	2.5	/experiments/AOT/AOT_stimuli/rescaled_final/0022_rv.mp4	0.0	254.40841913223267	0.9999849796295166
53	234.50713992118835	movie	1		245	51.0	2.5	/experiments/AOT/AOT_stimuli/rescaled_final/0022_rv.mp4	0.0	255.40840411186218	2.5001699924468994
53	234.89891290664673	pulse	1	t		51.0	2.5	/experiments/AOT/AOT_stimuli/rescaled_final/0022_rv.mp4	0.0	255.80017709732056	
53	236.4914870262146	pulse	1	t		51.0	2.5	/experiments/AOT/AOT_stimuli/rescaled_final/0022_rv.mp4	0.0	257.3927512168884	
53	237.00730991363525	fix_post	2		12	51.0	2.5	/experiments/AOT/AOT_stimuli/rescaled_final/0022_rv.mp4	0.0	257.9085741043091	0.09977912902832031
54	237.10708904266357	fix_pre	0		119	52.0	2.5	/experiments/AOT/AOT_stimuli/rescaled_final/0921_fw.mp4	0.0	258.0083532333374	0.9917478561401367
54	238.09060287475586	pulse	0	t		52.0	2.5	/experiments/AOT/AOT_stimuli/rescaled_final/0921_fw.mp4	0.0	258.9918670654297	
54	238.0988368988037	movie	1		246	52.0	2.5	/experiments/AOT/AOT_stimuli/rescaled_final/0921_fw.mp4	0.0	259.00010108947754	2.508345127105713
54	239.69902801513672	pulse	1	t		52.0	2.5	/experiments/AOT/AOT_stimuli/rescaled_final/0921_fw.mp4	0.0	260.60029220581055	
54	240.60718202590942	fix_post	2		12	52.0	2.5	/experiments/AOT/AOT_stimuli/rescaled_final/0921_fw.mp4	0.0	261.50844621658325	0.0999138355255127
55	240.70709586143494	fix_pre	0		120	53.0	2.5	/experiments/AOT/AOT_stimuli/rescaled_final/0964_fw.mp4	0.0	261.60836005210876	1.0000851154327393
55	241.2906458377838	pulse	0	t		53.0	2.5	/experiments/AOT/AOT_stimuli/rescaled_final/0964_fw.mp4	0.0	262.19191002845764	
55	241.70718097686768	movie	1		245	53.0	2.5	/experiments/AOT/AOT_stimuli/rescaled_final/0964_fw.mp4	0.0	262.6084451675415	2.499901056289673
55	242.8921868801117	pulse	1	t		53.0	2.5	/experiments/AOT/AOT_stimuli/rescaled_final/0964_fw.mp4	0.0	263.7934510707855	
55	244.20708203315735	fix_post	2		12	53.0	2.5	/experiments/AOT/AOT_stimuli/rescaled_final/0964_fw.mp4	0.0	265.1083462238312	0.09996986389160156
56	244.30705189704895	fix_pre	0		120	54.0	2.5	/experiments/AOT/AOT_stimuli/rescaled_final/1429_rv.mp4	0.0	265.2083160877228	1.0000779628753662
56	244.49139595031738	pulse	0	t		54.0	2.5	/experiments/AOT/AOT_stimuli/rescaled_final/1429_rv.mp4	0.0	265.3926601409912	
56	245.30712985992432	movie	1		244	54.0	2.5	/experiments/AOT/AOT_stimuli/rescaled_final/1429_rv.mp4	0.0	266.20839405059814	2.4994940757751465
56	246.09160900115967	pulse	1	t		54.0	2.5	/experiments/AOT/AOT_stimuli/rescaled_final/1429_rv.mp4	0.0	266.9928731918335	
56	247.6914689540863	pulse	1	t		54.0	2.5	/experiments/AOT/AOT_stimuli/rescaled_final/1429_rv.mp4	0.0	268.59273314476013	
56	247.80662393569946	fix_post	2		12	54.0	2.5	/experiments/AOT/AOT_stimuli/rescaled_final/1429_rv.mp4	0.0	268.7078881263733	0.10049700736999512
57	247.90712094306946	fix_pre	0		120	55.0	2.5	blank	1.0	268.8083851337433	0.9999339580535889
57	248.90705490112305	movie	1		300	55.0	2.5	blank	1.0	269.8083190917969	2.4999279975891113
57	249.29124999046326	pulse	1	t		55.0	2.5	blank	1.0	270.1925141811371	
57	250.89127802848816	pulse	1	t		55.0	2.5	blank	1.0	271.792542219162	
57	251.40698289871216	fix_post	2		12	55.0	2.5	blank	1.0	272.308247089386	0.10005903244018555
58	251.50704193115234	fix_pre	0		120	56.0	2.5	/experiments/AOT/AOT_stimuli/rescaled_final/1929_rv.mp4	0.0	272.4083061218262	1.0000081062316895
58	252.49128699302673	pulse	0	t		56.0	2.5	/experiments/AOT/AOT_stimuli/rescaled_final/1929_rv.mp4	0.0	273.39255118370056	
58	252.50705003738403	movie	1		245	56.0	2.5	/experiments/AOT/AOT_stimuli/rescaled_final/1929_rv.mp4	0.0	273.40831422805786	2.5082848072052
58	254.09855699539185	pulse	1	t		56.0	2.5	/experiments/AOT/AOT_stimuli/rescaled_final/1929_rv.mp4	0.0	274.9998211860657	
58	255.01533484458923	fix_post	2		12	56.0	2.5	/experiments/AOT/AOT_stimuli/rescaled_final/1929_rv.mp4	0.0	275.91659903526306	0.1000661849975586
59	255.1154010295868	fix_pre	0		120	57.0	2.5	/experiments/AOT/AOT_stimuli/rescaled_final/1915_rv.mp4	0.0	276.0166652202606	0.9999740123748779
59	255.69054293632507	pulse	0	t		57.0	2.5	/experiments/AOT/AOT_stimuli/rescaled_final/1915_rv.mp4	0.0	276.5918071269989	
59	256.11537504196167	movie	1		243	57.0	2.5	/experiments/AOT/AOT_stimuli/rescaled_final/1915_rv.mp4	0.0	277.0166392326355	2.499971866607666
59	257.29887104034424	pulse	1	t		57.0	2.5	/experiments/AOT/AOT_stimuli/rescaled_final/1915_rv.mp4	0.0	278.20013523101807	
59	258.61534690856934	fix_post	2		12	57.0	2.5	/experiments/AOT/AOT_stimuli/rescaled_final/1915_rv.mp4	0.0	279.51661109924316	0.10003900527954102
60	258.7153859138489	fix_pre	0		120	58.0	2.5	/experiments/AOT/AOT_stimuli/rescaled_final/1116_fw.mp4	0.0	279.6166501045227	0.9999620914459229
60	258.891343832016	pulse	0	t		58.0	2.5	/experiments/AOT/AOT_stimuli/rescaled_final/1116_fw.mp4	0.0	279.7926080226898	
60	259.7153480052948	movie	1		244	58.0	2.5	/experiments/AOT/AOT_stimuli/rescaled_final/1116_fw.mp4	0.0	280.6166121959686	2.4996588230133057
60	260.4913890361786	pulse	1	t		58.0	2.5	/experiments/AOT/AOT_stimuli/rescaled_final/1116_fw.mp4	0.0	281.3926532268524	
60	262.09662103652954	pulse	1	t		58.0	2.5	/experiments/AOT/AOT_stimuli/rescaled_final/1116_fw.mp4	0.0	282.99788522720337	
60	262.2150068283081	fix_post	2		12	58.0	2.5	/experiments/AOT/AOT_stimuli/rescaled_final/1116_fw.mp4	0.0	283.11627101898193	0.10001707077026367
61	262.31502389907837	fix_pre	0		120	59.0	2.5	/experiments/AOT/AOT_stimuli/rescaled_final/1043_fw.mp4	0.0	283.2162880897522	1.0001051425933838
61	263.31512904167175	movie	1		247	59.0	2.5	/experiments/AOT/AOT_stimuli/rescaled_final/1043_fw.mp4	0.0	284.2163932323456	2.5001649856567383
61	263.69810795783997	pulse	1	t		59.0	2.5	/experiments/AOT/AOT_stimuli/rescaled_final/1043_fw.mp4	0.0	284.5993721485138	
61	265.291424036026	pulse	1	t		59.0	2.5	/experiments/AOT/AOT_stimuli/rescaled_final/1043_fw.mp4	0.0	286.19268822669983	
61	265.8152940273285	fix_post	2		12	59.0	2.5	/experiments/AOT/AOT_stimuli/rescaled_final/1043_fw.mp4	0.0	286.7165582180023	0.10006284713745117
62	265.91535687446594	fix_pre	0		119	60.0	2.5	/experiments/AOT/AOT_stimuli/rescaled_final/0120_rv.mp4	0.0	286.81662106513977	0.9915831089019775
62	266.8911759853363	pulse	0	t		60.0	2.5	/experiments/AOT/AOT_stimuli/rescaled_final/0120_rv.mp4	0.0	287.79244017601013	
62	266.9069399833679	movie	1		246	60.0	2.5	/experiments/AOT/AOT_stimuli/rescaled_final/0120_rv.mp4	0.0	287.80820417404175	2.5079588890075684
62	268.49872183799744	pulse	1	t		60.0	2.5	/experiments/AOT/AOT_stimuli/rescaled_final/0120_rv.mp4	0.0	289.39998602867126	
62	269.4148988723755	fix_post	2		12	60.0	2.5	/experiments/AOT/AOT_stimuli/rescaled_final/0120_rv.mp4	0.0	290.3161630630493	0.10036206245422363
63	269.5152609348297	fix_pre	0		120	61.0	2.5	/experiments/AOT/AOT_stimuli/rescaled_final/0022_rv.mp4	0.0	290.41652512550354	0.999985933303833
63	270.0912129878998	pulse	0	t		61.0	2.5	/experiments/AOT/AOT_stimuli/rescaled_final/0022_rv.mp4	0.0	290.9924771785736	
63	270.51524686813354	movie	1		246	61.0	2.5	/experiments/AOT/AOT_stimuli/rescaled_final/0022_rv.mp4	0.0	291.4165110588074	2.4999899864196777
63	271.6987359523773	pulse	1	t		61.0	2.5	/experiments/AOT/AOT_stimuli/rescaled_final/0022_rv.mp4	0.0	292.60000014305115	
63	273.0152368545532	fix_post	2		12	61.0	2.5	/experiments/AOT/AOT_stimuli/rescaled_final/0022_rv.mp4	0.0	293.91650104522705	0.09998297691345215
64	273.1152198314667	fix_pre	0		120	62.0	2.5	blank	1.0	294.0164840221405	1.0002591609954834
64	273.291179895401	pulse	0	t		62.0	2.5	blank	1.0	294.19244408607483	
64	274.11547899246216	movie	1		300	62.0	2.5	blank	1.0	295.016743183136	2.4998488426208496
64	274.8912398815155	pulse	1	t		62.0	2.5	blank	1.0	295.79250407218933	
64	276.49115085601807	pulse	1	t		62.0	2.5	blank	1.0	297.3924150466919	
64	276.615327835083	fix_post	2		12	62.0	2.5	blank	1.0	297.51659202575684	0.10009312629699707
65	276.71542096138	fix_pre	0		120	63.0	2.5	/experiments/AOT/AOT_stimuli/rescaled_final/0673_rv.mp4	0.0	297.61668515205383	0.9998281002044678
65	277.7152490615845	movie	1		243	63.0	2.5	/experiments/AOT/AOT_stimuli/rescaled_final/0673_rv.mp4	0.0	298.6165132522583	2.499941825866699
65	278.09833693504333	pulse	1	t		63.0	2.5	/experiments/AOT/AOT_stimuli/rescaled_final/0673_rv.mp4	0.0	298.99960112571716	
65	279.69136095046997	pulse	1	t		63.0	2.5	/experiments/AOT/AOT_stimuli/rescaled_final/0673_rv.mp4	0.0	300.5926251411438	
65	280.2151908874512	fix_post	2		12	63.0	2.5	/experiments/AOT/AOT_stimuli/rescaled_final/0673_rv.mp4	0.0	301.116455078125	0.10005712509155273
66	280.3152480125427	fix_pre	0		119	64.0	2.5	/experiments/AOT/AOT_stimuli/rescaled_final/0974_rv.mp4	0.0	301.21651220321655	0.9916248321533203
66	281.29126596450806	pulse	0	t		64.0	2.5	/experiments/AOT/AOT_stimuli/rescaled_final/0974_rv.mp4	0.0	302.1925301551819	
66	281.30687284469604	movie	1		244	64.0	2.5	/experiments/AOT/AOT_stimuli/rescaled_final/0974_rv.mp4	0.0	302.2081370353699	2.5083630084991455
66	282.89826703071594	pulse	1	t		64.0	2.5	/experiments/AOT/AOT_stimuli/rescaled_final/0974_rv.mp4	0.0	303.79953122138977	
66	283.8152358531952	fix_post	2		12	64.0	2.5	/experiments/AOT/AOT_stimuli/rescaled_final/0974_rv.mp4	0.0	304.716500043869	0.10004401206970215
67	283.9152798652649	fix_pre	0		120	65.0	2.5	/experiments/AOT/AOT_stimuli/rescaled_final/1750_fw.mp4	0.0	304.8165440559387	0.9999489784240723
67	284.4911448955536	pulse	0	t		65.0	2.5	/experiments/AOT/AOT_stimuli/rescaled_final/1750_fw.mp4	0.0	305.3924090862274	
67	284.91522884368896	movie	1		245	65.0	2.5	/experiments/AOT/AOT_stimuli/rescaled_final/1750_fw.mp4	0.0	305.8164930343628	2.4999990463256836
67	286.0987138748169	pulse	1	t		65.0	2.5	/experiments/AOT/AOT_stimuli/rescaled_final/1750_fw.mp4	0.0	306.9999780654907	
67	287.41522789001465	fix_post	2		12	65.0	2.5	/experiments/AOT/AOT_stimuli/rescaled_final/1750_fw.mp4	0.0	308.3164920806885	0.10003399848937988
68	287.515261888504	fix_pre	0		120	66.0	2.5	/experiments/AOT/AOT_stimuli/rescaled_final/0449_fw.mp4	0.0	308.41652607917786	0.9999840259552002
68	287.6912000179291	pulse	0	t		66.0	2.5	/experiments/AOT/AOT_stimuli/rescaled_final/0449_fw.mp4	0.0	308.5924642086029	
68	288.51524591445923	movie	1		247	66.0	2.5	/experiments/AOT/AOT_stimuli/rescaled_final/0449_fw.mp4	0.0	309.41651010513306	2.499969959259033
68	289.29129099845886	pulse	1	t		66.0	2.5	/experiments/AOT/AOT_stimuli/rescaled_final/0449_fw.mp4	0.0	310.1925551891327	
68	290.89470505714417	pulse	1	t		66.0	2.5	/experiments/AOT/AOT_stimuli/rescaled_final/0449_fw.mp4	0.0	311.795969247818	
68	291.01521587371826	fix_post	2		12	66.0	2.5	/experiments/AOT/AOT_stimuli/rescaled_final/0449_fw.mp4	0.0	311.9164800643921	0.09996199607849121
69	291.11517786979675	fix_pre	0		120	67.0	2.5	/experiments/AOT/AOT_stimuli/rescaled_final/1176_rv.mp4	0.0	312.0164420604706	0.9999980926513672
69	292.1151759624481	movie	1		245	67.0	2.5	/experiments/AOT/AOT_stimuli/rescaled_final/1176_rv.mp4	0.0	313.01644015312195	2.500041961669922
69	292.4989929199219	pulse	1	t		67.0	2.5	/experiments/AOT/AOT_stimuli/rescaled_final/1176_rv.mp4	0.0	313.4002571105957	
69	294.0913088321686	pulse	1	t		67.0	2.5	/experiments/AOT/AOT_stimuli/rescaled_final/1176_rv.mp4	0.0	314.9925730228424	
69	294.61521792411804	fix_post	2		12	67.0	2.5	/experiments/AOT/AOT_stimuli/rescaled_final/1176_rv.mp4	0.0	315.51648211479187	0.1000070571899414
70	294.715224981308	fix_pre	0		119	68.0	2.5	/experiments/AOT/AOT_stimuli/rescaled_final/1035_rv.mp4	0.0	315.6164891719818	0.9915890693664551
70	295.6911289691925	pulse	0	t		68.0	2.5	/experiments/AOT/AOT_stimuli/rescaled_final/1035_rv.mp4	0.0	316.59239315986633	
70	295.70681405067444	movie	1		247	68.0	2.5	/experiments/AOT/AOT_stimuli/rescaled_final/1035_rv.mp4	0.0	316.60807824134827	2.5083298683166504
70	297.2981810569763	pulse	1	t		68.0	2.5	/experiments/AOT/AOT_stimuli/rescaled_final/1035_rv.mp4	0.0	318.19944524765015	
70	298.2151439189911	fix_post	2		12	68.0	2.5	/experiments/AOT/AOT_stimuli/rescaled_final/1035_rv.mp4	0.0	319.1164081096649	0.09995794296264648
71	298.31510186195374	fix_pre	0		120	69.0	2.5	blank	1.0	319.21636605262756	0.9999980926513672
71	298.89120388031006	pulse	0	t		69.0	2.5	blank	1.0	319.7924680709839	
71	299.3150999546051	movie	1		300	69.0	2.5	blank	1.0	320.21636414527893	2.500019073486328
71	300.4910638332367	pulse	1	t		69.0	2.5	blank	1.0	321.3923280239105	
71	301.81511902809143	fix_post	2		12	69.0	2.5	blank	1.0	322.71638321876526	0.10010790824890137
72	301.91522693634033	fix_pre	0		120	70.0	2.5	/experiments/AOT/AOT_stimuli/rescaled_final/0627_rv.mp4	0.0	322.81649112701416	0.9999449253082275
72	302.09118390083313	pulse	0	t		70.0	2.5	/experiments/AOT/AOT_stimuli/rescaled_final/0627_rv.mp4	0.0	322.99244809150696	
72	302.91517186164856	movie	1		244	70.0	2.5	/experiments/AOT/AOT_stimuli/rescaled_final/0627_rv.mp4	0.0	323.8164360523224	2.4999561309814453
72	303.69124388694763	pulse	1	t		70.0	2.5	/experiments/AOT/AOT_stimuli/rescaled_final/0627_rv.mp4	0.0	324.59250807762146	
72	305.2974638938904	pulse	1	t		70.0	2.5	/experiments/AOT/AOT_stimuli/rescaled_final/0627_rv.mp4	0.0	326.1987280845642	
72	305.41512799263	fix_post	2		12	70.0	2.5	/experiments/AOT/AOT_stimuli/rescaled_final/0627_rv.mp4	0.0	326.31639218330383	0.10004496574401855
73	305.515172958374	fix_pre	0		120	71.0	2.5	/experiments/AOT/AOT_stimuli/rescaled_final/0803_rv.mp4	0.0	326.41643714904785	1.0000219345092773
73	306.5151948928833	movie	1		243	71.0	2.5	/experiments/AOT/AOT_stimuli/rescaled_final/0803_rv.mp4	0.0	327.41645908355713	2.499922037124634
73	306.89928793907166	pulse	1	t		71.0	2.5	/experiments/AOT/AOT_stimuli/rescaled_final/0803_rv.mp4	0.0	327.8005521297455	
73	308.4912898540497	pulse	1	t		71.0	2.5	/experiments/AOT/AOT_stimuli/rescaled_final/0803_rv.mp4	0.0	329.3925540447235	
73	309.01511693000793	fix_post	2		12	71.0	2.5	/experiments/AOT/AOT_stimuli/rescaled_final/0803_rv.mp4	0.0	329.91638112068176	0.09998202323913574
74	309.11509895324707	fix_pre	0		119	72.0	2.5	/experiments/AOT/AOT_stimuli/rescaled_final/0997_fw.mp4	0.0	330.0163631439209	0.99161696434021
74	310.09116291999817	pulse	0	t		72.0	2.5	/experiments/AOT/AOT_stimuli/rescaled_final/0997_fw.mp4	0.0	330.992427110672	
74	310.1067159175873	movie	1		245	72.0	2.5	/experiments/AOT/AOT_stimuli/rescaled_final/0997_fw.mp4	0.0	331.0079801082611	2.5079729557037354
74	311.69895195961	pulse	1	t		72.0	2.5	/experiments/AOT/AOT_stimuli/rescaled_final/0997_fw.mp4	0.0	332.6002161502838	
74	312.614688873291	fix_post	2		12	72.0	2.5	/experiments/AOT/AOT_stimuli/rescaled_final/0997_fw.mp4	0.0	333.51595306396484	0.10040903091430664
75	312.7150979042053	fix_pre	0		120	73.0	2.5	/experiments/AOT/AOT_stimuli/rescaled_final/1423_rv.mp4	0.0	333.61636209487915	1.0000340938568115
75	313.291051864624	pulse	0	t		73.0	2.5	/experiments/AOT/AOT_stimuli/rescaled_final/1423_rv.mp4	0.0	334.19231605529785	
75	313.71513199806213	movie	1		243	73.0	2.5	/experiments/AOT/AOT_stimuli/rescaled_final/1423_rv.mp4	0.0	334.61639618873596	2.4999208450317383
75	314.89859795570374	pulse	1	t		73.0	2.5	/experiments/AOT/AOT_stimuli/rescaled_final/1423_rv.mp4	0.0	335.79986214637756	
75	316.2150528430939	fix_post	2		12	73.0	2.5	/experiments/AOT/AOT_stimuli/rescaled_final/1423_rv.mp4	0.0	337.1163170337677	0.10014104843139648
76	316.31519389152527	fix_pre	0		120	74.0	2.5	/experiments/AOT/AOT_stimuli/rescaled_final/0838_rv.mp4	0.0	337.2164580821991	0.9998760223388672
76	316.4910249710083	pulse	0	t		74.0	2.5	/experiments/AOT/AOT_stimuli/rescaled_final/0838_rv.mp4	0.0	337.39228916168213	
76	317.31506991386414	movie	1		244	74.0	2.5	/experiments/AOT/AOT_stimuli/rescaled_final/0838_rv.mp4	0.0	338.21633410453796	2.499830961227417
76	318.09067392349243	pulse	1	t		74.0	2.5	/experiments/AOT/AOT_stimuli/rescaled_final/0838_rv.mp4	0.0	338.99193811416626	
76	319.6974549293518	pulse	1	t		74.0	2.5	/experiments/AOT/AOT_stimuli/rescaled_final/0838_rv.mp4	0.0	340.59871912002563	
76	319.81490087509155	fix_post	2		12	74.0	2.5	/experiments/AOT/AOT_stimuli/rescaled_final/0838_rv.mp4	0.0	340.7161650657654	0.10004615783691406
77	319.91494703292847	fix_pre	0		120	75.0	2.5	blank	1.0	340.8162112236023	1.0002028942108154
77	320.9151499271393	movie	1		300	75.0	2.5	blank	1.0	341.8164141178131	2.49992299079895
77	321.29107785224915	pulse	1	t		75.0	2.5	blank	1.0	342.192342042923	
77	322.8984968662262	pulse	1	t		75.0	2.5	blank	1.0	343.7997610569	
77	323.41507291793823	fix_post	2		12	75.0	2.5	blank	1.0	344.31633710861206	0.10001111030578613
78	323.515084028244	fix_pre	0		119	76.0	2.5	/experiments/AOT/AOT_stimuli/rescaled_final/0622_rv.mp4	0.0	344.41634821891785	0.9915909767150879
78	324.49855303764343	pulse	0	t		76.0	2.5	/experiments/AOT/AOT_stimuli/rescaled_final/0622_rv.mp4	0.0	345.39981722831726	
78	324.5066750049591	movie	1		245	76.0	2.5	/experiments/AOT/AOT_stimuli/rescaled_final/0622_rv.mp4	0.0	345.40793919563293	2.508401870727539
78	326.09822487831116	pulse	1	t		76.0	2.5	/experiments/AOT/AOT_stimuli/rescaled_final/0622_rv.mp4	0.0	346.999489068985	
78	327.01507687568665	fix_post	2		12	76.0	2.5	/experiments/AOT/AOT_stimuli/rescaled_final/0622_rv.mp4	0.0	347.9163410663605	0.09989309310913086
79	327.1149699687958	fix_pre	0		120	77.0	2.5	/experiments/AOT/AOT_stimuli/rescaled_final/0900_fw.mp4	0.0	348.0162341594696	1.0000219345092773
79	327.69109988212585	pulse	0	t		77.0	2.5	/experiments/AOT/AOT_stimuli/rescaled_final/0900_fw.mp4	0.0	348.5923640727997	
79	328.11499190330505	movie	1		248	77.0	2.5	/experiments/AOT/AOT_stimuli/rescaled_final/0900_fw.mp4	0.0	349.0162560939789	2.4999680519104004
79	329.29124999046326	pulse	1	t		77.0	2.5	/experiments/AOT/AOT_stimuli/rescaled_final/0900_fw.mp4	0.0	350.1925141811371	
79	330.61495995521545	fix_post	2		12	77.0	2.5	/experiments/AOT/AOT_stimuli/rescaled_final/0900_fw.mp4	0.0	351.5162241458893	0.09993791580200195
80	330.71489787101746	fix_pre	0		120	78.0	2.5	/experiments/AOT/AOT_stimuli/rescaled_final/2001_rv.mp4	0.0	351.6161620616913	1.0000710487365723
80	330.8909318447113	pulse	0	t		78.0	2.5	/experiments/AOT/AOT_stimuli/rescaled_final/2001_rv.mp4	0.0	351.79219603538513	
80	331.714968919754	movie	1		246	78.0	2.5	/experiments/AOT/AOT_stimuli/rescaled_final/2001_rv.mp4	0.0	352.61623311042786	2.499972105026245
80	332.4909420013428	pulse	1	t		78.0	2.5	/experiments/AOT/AOT_stimuli/rescaled_final/2001_rv.mp4	0.0	353.3922061920166	
80	334.0968568325043	pulse	1	t		78.0	2.5	/experiments/AOT/AOT_stimuli/rescaled_final/2001_rv.mp4	0.0	354.9981210231781	
80	334.2149410247803	fix_post	2		12	78.0	2.5	/experiments/AOT/AOT_stimuli/rescaled_final/2001_rv.mp4	0.0	355.1162052154541	0.10002303123474121
81	334.314964056015	fix_pre	0		120	79.0	2.5	/experiments/AOT/AOT_stimuli/rescaled_final/1429_fw.mp4	0.0	355.21622824668884	0.9999709129333496
81	335.31493496894836	movie	1		242	79.0	2.5	/experiments/AOT/AOT_stimuli/rescaled_final/1429_fw.mp4	0.0	356.2161991596222	2.500041961669922
81	335.69811487197876	pulse	1	t		79.0	2.5	/experiments/AOT/AOT_stimuli/rescaled_final/1429_fw.mp4	0.0	356.5993790626526	
81	337.29102897644043	pulse	1	t		79.0	2.5	/experiments/AOT/AOT_stimuli/rescaled_final/1429_fw.mp4	0.0	358.19229316711426	
81	337.8149769306183	fix_post	2		12	79.0	2.5	/experiments/AOT/AOT_stimuli/rescaled_final/1429_fw.mp4	0.0	358.7162411212921	0.10001993179321289
82	337.9149968624115	fix_pre	0		119	80.0	2.5	/experiments/AOT/AOT_stimuli/rescaled_final/0803_rv.mp4	0.0	358.8162610530853	0.9915721416473389
82	338.89104890823364	pulse	0	t		80.0	2.5	/experiments/AOT/AOT_stimuli/rescaled_final/0803_rv.mp4	0.0	359.79231309890747	
82	338.90656900405884	movie	1		245	80.0	2.5	/experiments/AOT/AOT_stimuli/rescaled_final/0803_rv.mp4	0.0	359.80783319473267	2.5084118843078613
82	340.49847984313965	pulse	1	t		80.0	2.5	/experiments/AOT/AOT_stimuli/rescaled_final/0803_rv.mp4	0.0	361.3997440338135	
82	341.4149808883667	fix_post	2		12	80.0	2.5	/experiments/AOT/AOT_stimuli/rescaled_final/0803_rv.mp4	0.0	362.3162450790405	0.10000205039978027
83	341.5149829387665	fix_pre	0		120	81.0	2.5	/experiments/AOT/AOT_stimuli/rescaled_final/1119_rv.mp4	0.0	362.4162471294403	0.9999949932098389
83	342.09850788116455	pulse	0	t		81.0	2.5	/experiments/AOT/AOT_stimuli/rescaled_final/1119_rv.mp4	0.0	362.9997720718384	
83	342.5149779319763	movie	1		245	81.0	2.5	/experiments/AOT/AOT_stimuli/rescaled_final/1119_rv.mp4	0.0	363.41624212265015	2.4995360374450684
83	343.69854283332825	pulse	1	t		81.0	2.5	/experiments/AOT/AOT_stimuli/rescaled_final/1119_rv.mp4	0.0	364.5998070240021	
83	345.0145139694214	fix_post	2		12	81.0	2.5	/experiments/AOT/AOT_stimuli/rescaled_final/1119_rv.mp4	0.0	365.9157781600952	0.10039997100830078
84	345.1149139404297	fix_pre	0		120	82.0	2.5	/experiments/AOT/AOT_stimuli/rescaled_final/1819_rv.mp4	0.0	366.0161781311035	0.9999799728393555
84	345.2984399795532	pulse	0	t		82.0	2.5	/experiments/AOT/AOT_stimuli/rescaled_final/1819_rv.mp4	0.0	366.19970417022705	
84	346.11489391326904	movie	1		245	82.0	2.5	/experiments/AOT/AOT_stimuli/rescaled_final/1819_rv.mp4	0.0	367.01615810394287	2.4999759197235107
84	346.8909888267517	pulse	1	t		82.0	2.5	/experiments/AOT/AOT_stimuli/rescaled_final/1819_rv.mp4	0.0	367.79225301742554	
84	348.494421005249	pulse	1	t		82.0	2.5	/experiments/AOT/AOT_stimuli/rescaled_final/1819_rv.mp4	0.0	369.39568519592285	
84	348.61486983299255	fix_post	2		12	82.0	2.5	/experiments/AOT/AOT_stimuli/rescaled_final/1819_rv.mp4	0.0	369.5161340236664	0.10002708435058594
85	348.71489691734314	fix_pre	0		120	83.0	2.5	blank	1.0	369.61616110801697	1.0000629425048828
85	349.714959859848	movie	1		300	83.0	2.5	blank	1.0	370.61622405052185	2.4999380111694336
85	350.09090995788574	pulse	1	t		83.0	2.5	blank	1.0	370.99217414855957	
85	351.6908869743347	pulse	1	t		83.0	2.5	blank	1.0	372.59215116500854	
85	352.21489787101746	fix_post	2		12	83.0	2.5	blank	1.0	373.1161620616913	0.09996318817138672
87	352.31486105918884	stim	0		1716					373.21612524986267	14.300020933151245
87	353.29103803634644	pulse	0	t						374.19230222702026	
87	354.8983619213104	pulse	0	t						375.79962611198425	
87	356.4983320236206	pulse	0	t						377.39959621429443	
87	358.0983579158783	pulse	0	t						378.9996221065521	
87	359.6983869075775	pulse	0	t						380.59965109825134	
87	361.2909588813782	pulse	0	t						382.192223072052	
87	362.8909480571747	pulse	0	t						383.7922122478485	
87	364.49095582962036	pulse	0	t						385.3922200202942	
87	366.09090089797974	pulse	0	t						386.99216508865356	
