trial_nr	onset	event_type	phase	response	nr_frames	movie_index	movie_duration	movie_file	blank	onset_abs	duration
0	0.15825200080871582	stim	0		9467					22.394692182540894	78.89133381843567
0	79.0414879322052	response	0	space						101.27792811393738	
1	79.04958581924438	stim	0		4848					101.28602600097656	40.3996901512146
1	119.44259786605835	pulse	0	t						141.67903804779053	
1	119.44927597045898	stim	1		1717					141.68571615219116	14.308284044265747
1	121.04110383987427	pulse	1	t						143.27754402160645	
1	122.64111995697021	pulse	1	t						144.8775601387024	
1	124.24104189872742	pulse	1	t						146.4774820804596	
1	125.84112095832825	pulse	1	t						148.07756114006042	
1	127.44110989570618	pulse	1	t						149.67755007743835	
1	129.04106187820435	pulse	1	t						151.27750205993652	
1	130.64110398292542	pulse	1	t						152.8775441646576	
1	132.24106097221375	pulse	1	t						154.47750115394592	
2	133.75756001472473	fix_pre	0		11	0.0	2.5	/experiments/AOT/AOT_stimuli/rescaled_final/0230_fw.mp4	0.0	155.9940001964569	0.09170985221862793
2	133.84108090400696	pulse	0	t		0.0	2.5	/experiments/AOT/AOT_stimuli/rescaled_final/0230_fw.mp4	0.0	156.07752108573914	
2	133.84926986694336	movie	1		241	0.0	2.5	/experiments/AOT/AOT_stimuli/rescaled_final/0230_fw.mp4	0.0	156.08571004867554	2.5084381103515625
2	135.44088888168335	pulse	1	t		0.0	2.5	/experiments/AOT/AOT_stimuli/rescaled_final/0230_fw.mp4	0.0	157.67732906341553	
2	136.35770797729492	fix_post	2		12	0.0	2.5	/experiments/AOT/AOT_stimuli/rescaled_final/0230_fw.mp4	0.0	158.5941481590271	0.09997081756591797
3	136.45767879486084	fix_pre	0		120	1.0	2.5	/experiments/AOT/AOT_stimuli/rescaled_final/0402_fw.mp4	0.0	158.69411897659302	0.9999470710754395
3	137.04113388061523	pulse	0	t		1.0	2.5	/experiments/AOT/AOT_stimuli/rescaled_final/0402_fw.mp4	0.0	159.2775740623474	
3	137.45762586593628	movie	1		244	1.0	2.5	/experiments/AOT/AOT_stimuli/rescaled_final/0402_fw.mp4	0.0	159.69406604766846	2.499969959259033
3	138.64117789268494	pulse	1	t		1.0	2.5	/experiments/AOT/AOT_stimuli/rescaled_final/0402_fw.mp4	0.0	160.87761807441711	
3	139.9575958251953	fix_post	2		12	1.0	2.5	/experiments/AOT/AOT_stimuli/rescaled_final/0402_fw.mp4	0.0	162.1940360069275	0.09998297691345215
4	140.05757880210876	fix_pre	0		120	2.0	2.5	/experiments/AOT/AOT_stimuli/rescaled_final/1338_fw.mp4	0.0	162.29401898384094	0.9999990463256836
4	140.24109888076782	pulse	0	t		2.0	2.5	/experiments/AOT/AOT_stimuli/rescaled_final/1338_fw.mp4	0.0	162.4775390625	
4	141.05757784843445	movie	1		244	2.0	2.5	/experiments/AOT/AOT_stimuli/rescaled_final/1338_fw.mp4	0.0	163.29401803016663	2.499994993209839
4	141.841059923172	pulse	1	t		2.0	2.5	/experiments/AOT/AOT_stimuli/rescaled_final/1338_fw.mp4	0.0	164.07750010490417	
4	143.4394829273224	pulse	1	t		2.0	2.5	/experiments/AOT/AOT_stimuli/rescaled_final/1338_fw.mp4	0.0	165.67592310905457	
4	143.5575728416443	fix_post	2		12	2.0	2.5	/experiments/AOT/AOT_stimuli/rescaled_final/1338_fw.mp4	0.0	165.79401302337646	0.1000051498413086
5	143.6575779914856	fix_pre	0		120	3.0	2.5	/experiments/AOT/AOT_stimuli/rescaled_final/0227_fw.mp4	0.0	165.89401817321777	1.0000100135803223
5	144.65758800506592	movie	1		243	3.0	2.5	/experiments/AOT/AOT_stimuli/rescaled_final/0227_fw.mp4	0.0	166.8940281867981	2.5004148483276367
5	145.04102993011475	pulse	1	t		3.0	2.5	/experiments/AOT/AOT_stimuli/rescaled_final/0227_fw.mp4	0.0	167.27747011184692	
5	146.64106488227844	pulse	1	t		3.0	2.5	/experiments/AOT/AOT_stimuli/rescaled_final/0227_fw.mp4	0.0	168.87750506401062	
5	147.15800285339355	fix_post	2		12	3.0	2.5	/experiments/AOT/AOT_stimuli/rescaled_final/0227_fw.mp4	0.0	169.39444303512573	0.0995330810546875
6	147.25753593444824	fix_pre	0		119	4.0	2.5	/experiments/AOT/AOT_stimuli/rescaled_final/1279_fw.mp4	0.0	169.49397611618042	0.9916260242462158
6	148.2410728931427	pulse	0	t		4.0	2.5	/experiments/AOT/AOT_stimuli/rescaled_final/1279_fw.mp4	0.0	170.47751307487488	
6	148.24916195869446	movie	1		245	4.0	2.5	/experiments/AOT/AOT_stimuli/rescaled_final/1279_fw.mp4	0.0	170.48560214042664	2.508452892303467
6	149.8407199382782	pulse	1	t		4.0	2.5	/experiments/AOT/AOT_stimuli/rescaled_final/1279_fw.mp4	0.0	172.07716012001038	
6	150.75761485099792	fix_post	2		12	4.0	2.5	/experiments/AOT/AOT_stimuli/rescaled_final/1279_fw.mp4	0.0	172.9940550327301	0.09995794296264648
7	150.85757279396057	fix_pre	0		120	5.0	2.5	blank	1.0	173.09401297569275	1.0000181198120117
7	151.441143989563	pulse	0	t		5.0	2.5	blank	1.0	173.67758417129517	
7	151.85759091377258	movie	1		300	5.0	2.5	blank	1.0	174.09403109550476	2.5001580715179443
7	153.04069995880127	pulse	1	t		5.0	2.5	blank	1.0	175.27714014053345	
7	154.35774898529053	fix_post	2		12	5.0	2.5	blank	1.0	176.5941891670227	0.09952902793884277
8	154.45727801322937	fix_pre	0		120	6.0	2.5	/experiments/AOT/AOT_stimuli/rescaled_final/1780_rv.mp4	0.0	176.69371819496155	1.0001518726348877
8	154.64128494262695	pulse	0	t		6.0	2.5	/experiments/AOT/AOT_stimuli/rescaled_final/1780_rv.mp4	0.0	176.87772512435913	
8	155.45742988586426	movie	1		246	6.0	2.5	/experiments/AOT/AOT_stimuli/rescaled_final/1780_rv.mp4	0.0	177.69387006759644	2.5000600814819336
8	156.24100184440613	pulse	1	t		6.0	2.5	/experiments/AOT/AOT_stimuli/rescaled_final/1780_rv.mp4	0.0	178.4774420261383	
8	157.84113788604736	pulse	1	t		6.0	2.5	/experiments/AOT/AOT_stimuli/rescaled_final/1780_rv.mp4	0.0	180.07757806777954	
8	157.9574899673462	fix_post	2		12	6.0	2.5	/experiments/AOT/AOT_stimuli/rescaled_final/1780_rv.mp4	0.0	180.19393014907837	0.1001288890838623
9	158.05761885643005	fix_pre	0		120	7.0	2.5	/experiments/AOT/AOT_stimuli/rescaled_final/1937_rv.mp4	0.0	180.29405903816223	0.9998929500579834
9	159.05751180648804	movie	1		245	7.0	2.5	/experiments/AOT/AOT_stimuli/rescaled_final/1937_rv.mp4	0.0	181.29395198822021	2.4999630451202393
9	159.4404149055481	pulse	1	t		7.0	2.5	/experiments/AOT/AOT_stimuli/rescaled_final/1937_rv.mp4	0.0	181.67685508728027	
9	161.04098796844482	pulse	1	t		7.0	2.5	/experiments/AOT/AOT_stimuli/rescaled_final/1937_rv.mp4	0.0	183.277428150177	
9	161.55747485160828	fix_post	2		12	7.0	2.5	/experiments/AOT/AOT_stimuli/rescaled_final/1937_rv.mp4	0.0	183.79391503334045	0.09992694854736328
10	161.65740180015564	fix_pre	0		119	8.0	2.5	/experiments/AOT/AOT_stimuli/rescaled_final/0077_rv.mp4	0.0	183.89384198188782	0.9918050765991211
10	162.64089679718018	pulse	0	t		8.0	2.5	/experiments/AOT/AOT_stimuli/rescaled_final/0077_rv.mp4	0.0	184.87733697891235	
10	162.64920687675476	movie	1		244	8.0	2.5	/experiments/AOT/AOT_stimuli/rescaled_final/0077_rv.mp4	0.0	184.88564705848694	2.5081920623779297
10	164.2406198978424	pulse	1	t		8.0	2.5	/experiments/AOT/AOT_stimuli/rescaled_final/0077_rv.mp4	0.0	186.47706007957458	
10	165.1573989391327	fix_post	2		12	8.0	2.5	/experiments/AOT/AOT_stimuli/rescaled_final/0077_rv.mp4	0.0	187.39383912086487	0.10001087188720703
11	165.2574098110199	fix_pre	0		120	9.0	2.5	/experiments/AOT/AOT_stimuli/rescaled_final/0494_rv.mp4	0.0	187.49384999275208	1.0000112056732178
11	165.84086799621582	pulse	0	t		9.0	2.5	/experiments/AOT/AOT_stimuli/rescaled_final/0494_rv.mp4	0.0	188.077308177948	
11	166.25742101669312	movie	1		243	9.0	2.5	/experiments/AOT/AOT_stimuli/rescaled_final/0494_rv.mp4	0.0	188.4938611984253	2.500006914138794
11	167.4410228729248	pulse	1	t		9.0	2.5	/experiments/AOT/AOT_stimuli/rescaled_final/0494_rv.mp4	0.0	189.67746305465698	
11	168.7574279308319	fix_post	2		12	9.0	2.5	/experiments/AOT/AOT_stimuli/rescaled_final/0494_rv.mp4	0.0	190.9938681125641	0.10001087188720703
12	168.85743880271912	fix_pre	0		120	10.0	2.5	/experiments/AOT/AOT_stimuli/rescaled_final/1113_fw.mp4	0.0	191.0938789844513	0.9999871253967285
12	169.0409758090973	pulse	0	t		10.0	2.5	/experiments/AOT/AOT_stimuli/rescaled_final/1113_fw.mp4	0.0	191.27741599082947	
12	169.85742592811584	movie	1		242	10.0	2.5	/experiments/AOT/AOT_stimuli/rescaled_final/1113_fw.mp4	0.0	192.09386610984802	2.5000510215759277
12	170.64099788665771	pulse	1	t		10.0	2.5	/experiments/AOT/AOT_stimuli/rescaled_final/1113_fw.mp4	0.0	192.8774380683899	
12	172.2393069267273	pulse	1	t		10.0	2.5	/experiments/AOT/AOT_stimuli/rescaled_final/1113_fw.mp4	0.0	194.47574710845947	
12	172.35747694969177	fix_post	2		12	10.0	2.5	/experiments/AOT/AOT_stimuli/rescaled_final/1113_fw.mp4	0.0	194.59391713142395	0.09989690780639648
13	172.45737385749817	fix_pre	0		120	11.0	2.5	/experiments/AOT/AOT_stimuli/rescaled_final/0169_fw.mp4	0.0	194.69381403923035	1.0000779628753662
13	173.45745182037354	movie	1		245	11.0	2.5	/experiments/AOT/AOT_stimuli/rescaled_final/0169_fw.mp4	0.0	195.6938920021057	2.5000150203704834
13	173.84055590629578	pulse	1	t		11.0	2.5	/experiments/AOT/AOT_stimuli/rescaled_final/0169_fw.mp4	0.0	196.07699608802795	
13	175.440899848938	pulse	1	t		11.0	2.5	/experiments/AOT/AOT_stimuli/rescaled_final/0169_fw.mp4	0.0	197.67734003067017	
13	175.95746684074402	fix_post	2		12	11.0	2.5	/experiments/AOT/AOT_stimuli/rescaled_final/0169_fw.mp4	0.0	198.1939070224762	0.09996700286865234
14	176.05743384361267	fix_pre	0		119	12.0	2.5	/experiments/AOT/AOT_stimuli/rescaled_final/2058_fw.mp4	0.0	198.29387402534485	0.9916410446166992
14	177.04091596603394	pulse	0	t		12.0	2.5	/experiments/AOT/AOT_stimuli/rescaled_final/2058_fw.mp4	0.0	199.2773561477661	
14	177.04907488822937	movie	1		244	12.0	2.5	/experiments/AOT/AOT_stimuli/rescaled_final/2058_fw.mp4	0.0	199.28551506996155	2.508441925048828
14	178.64076685905457	pulse	1	t		12.0	2.5	/experiments/AOT/AOT_stimuli/rescaled_final/2058_fw.mp4	0.0	200.87720704078674	
14	179.5575168132782	fix_post	2		12	12.0	2.5	/experiments/AOT/AOT_stimuli/rescaled_final/2058_fw.mp4	0.0	201.79395699501038	0.09985017776489258
15	179.6573669910431	fix_pre	0		120	13.0	2.5	/experiments/AOT/AOT_stimuli/rescaled_final/0358_rv.mp4	0.0	201.89380717277527	0.9999589920043945
15	180.2408628463745	pulse	0	t		13.0	2.5	/experiments/AOT/AOT_stimuli/rescaled_final/0358_rv.mp4	0.0	202.4773030281067	
15	180.65732598304749	movie	1		244	13.0	2.5	/experiments/AOT/AOT_stimuli/rescaled_final/0358_rv.mp4	0.0	202.89376616477966	2.5000219345092773
15	181.8409459590912	pulse	1	t		13.0	2.5	/experiments/AOT/AOT_stimuli/rescaled_final/0358_rv.mp4	0.0	204.07738614082336	
15	183.15734791755676	fix_post	2		12	13.0	2.5	/experiments/AOT/AOT_stimuli/rescaled_final/0358_rv.mp4	0.0	205.39378809928894	0.09992003440856934
16	183.25726795196533	fix_pre	0		120	14.0	2.5	blank	1.0	205.4937081336975	1.000135898590088
16	183.4408438205719	pulse	0	t		14.0	2.5	blank	1.0	205.67728400230408	
16	184.25740385055542	movie	1		300	14.0	2.5	blank	1.0	206.4938440322876	2.4999001026153564
16	185.0408878326416	pulse	1	t		14.0	2.5	blank	1.0	207.27732801437378	
16	186.64087581634521	pulse	1	t		14.0	2.5	blank	1.0	208.8773159980774	
16	186.75730395317078	fix_post	2		12	14.0	2.5	blank	1.0	208.99374413490295	0.10005784034729004
17	186.85736179351807	fix_pre	0		120	15.0	2.5	/experiments/AOT/AOT_stimuli/rescaled_final/1060_fw.mp4	0.0	209.09380197525024	0.9999752044677734
17	187.85733699798584	movie	1		244	15.0	2.5	/experiments/AOT/AOT_stimuli/rescaled_final/1060_fw.mp4	0.0	210.09377717971802	2.499971866607666
17	188.24202799797058	pulse	1	t		15.0	2.5	/experiments/AOT/AOT_stimuli/rescaled_final/1060_fw.mp4	0.0	210.47846817970276	
17	189.84079098701477	pulse	1	t		15.0	2.5	/experiments/AOT/AOT_stimuli/rescaled_final/1060_fw.mp4	0.0	212.07723116874695	
17	190.3573088645935	fix_post	2		12	15.0	2.5	/experiments/AOT/AOT_stimuli/rescaled_final/1060_fw.mp4	0.0	212.59374904632568	0.09998703002929688
18	190.4572958946228	fix_pre	0		119	16.0	2.5	/experiments/AOT/AOT_stimuli/rescaled_final/0677_fw.mp4	0.0	212.69373607635498	0.9916870594024658
18	191.44082498550415	pulse	0	t		16.0	2.5	/experiments/AOT/AOT_stimuli/rescaled_final/0677_fw.mp4	0.0	213.67726516723633	
18	191.44898295402527	movie	1		244	16.0	2.5	/experiments/AOT/AOT_stimuli/rescaled_final/0677_fw.mp4	0.0	213.68542313575745	2.508344888687134
18	193.04038000106812	pulse	1	t		16.0	2.5	/experiments/AOT/AOT_stimuli/rescaled_final/0677_fw.mp4	0.0	215.2768201828003	
18	193.9573278427124	fix_post	2		12	16.0	2.5	/experiments/AOT/AOT_stimuli/rescaled_final/0677_fw.mp4	0.0	216.19376802444458	0.09997916221618652
19	194.0573070049286	fix_pre	0		120	17.0	2.5	/experiments/AOT/AOT_stimuli/rescaled_final/0201_fw.mp4	0.0	216.29374718666077	1.0000169277191162
19	194.64072489738464	pulse	0	t		17.0	2.5	/experiments/AOT/AOT_stimuli/rescaled_final/0201_fw.mp4	0.0	216.87716507911682	
19	195.0573239326477	movie	1		245	17.0	2.5	/experiments/AOT/AOT_stimuli/rescaled_final/0201_fw.mp4	0.0	217.29376411437988	2.4999899864196777
19	196.24085593223572	pulse	1	t		17.0	2.5	/experiments/AOT/AOT_stimuli/rescaled_final/0201_fw.mp4	0.0	218.4772961139679	
19	197.55731391906738	fix_post	2		12	17.0	2.5	/experiments/AOT/AOT_stimuli/rescaled_final/0201_fw.mp4	0.0	219.79375410079956	0.10001301765441895
20	197.6573269367218	fix_pre	0		120	18.0	2.5	/experiments/AOT/AOT_stimuli/rescaled_final/0943_fw.mp4	0.0	219.89376711845398	0.9999890327453613
20	197.8408420085907	pulse	0	t		18.0	2.5	/experiments/AOT/AOT_stimuli/rescaled_final/0943_fw.mp4	0.0	220.07728219032288	
20	198.65731596946716	movie	1		243	18.0	2.5	/experiments/AOT/AOT_stimuli/rescaled_final/0943_fw.mp4	0.0	220.89375615119934	2.4999959468841553
20	199.4408609867096	pulse	1	t		18.0	2.5	/experiments/AOT/AOT_stimuli/rescaled_final/0943_fw.mp4	0.0	221.67730116844177	
20	201.03916382789612	pulse	1	t		18.0	2.5	/experiments/AOT/AOT_stimuli/rescaled_final/0943_fw.mp4	0.0	223.2756040096283	
20	201.15731191635132	fix_post	2		12	18.0	2.5	/experiments/AOT/AOT_stimuli/rescaled_final/0943_fw.mp4	0.0	223.3937520980835	0.09993410110473633
21	201.25724601745605	fix_pre	0		120	19.0	2.5	/experiments/AOT/AOT_stimuli/rescaled_final/1071_fw.mp4	0.0	223.49368619918823	1.0000629425048828
21	202.25730895996094	movie	1		243	19.0	2.5	/experiments/AOT/AOT_stimuli/rescaled_final/1071_fw.mp4	0.0	224.49374914169312	2.4999608993530273
21	202.640380859375	pulse	1	t		19.0	2.5	/experiments/AOT/AOT_stimuli/rescaled_final/1071_fw.mp4	0.0	224.87682104110718	
21	204.24074792861938	pulse	1	t		19.0	2.5	/experiments/AOT/AOT_stimuli/rescaled_final/1071_fw.mp4	0.0	226.47718811035156	
21	204.75726985931396	fix_post	2		12	19.0	2.5	/experiments/AOT/AOT_stimuli/rescaled_final/1071_fw.mp4	0.0	226.99371004104614	0.09999513626098633
22	204.85726499557495	fix_pre	0		119	20.0	2.5	blank	1.0	227.09370517730713	0.9916520118713379
22	205.84077382087708	pulse	0	t		20.0	2.5	blank	1.0	228.07721400260925	
22	205.8489170074463	movie	1		301	20.0	2.5	blank	1.0	228.08535718917847	2.507957935333252
22	207.44076991081238	pulse	1	t		20.0	2.5	blank	1.0	229.67721009254456	
22	208.35687494277954	fix_post	2		12	20.0	2.5	blank	1.0	230.59331512451172	0.09996891021728516
23	208.45684385299683	fix_pre	0		120	21.0	2.5	/experiments/AOT/AOT_stimuli/rescaled_final/1114_fw.mp4	0.0	230.693284034729	1.0004889965057373
23	209.0403368473053	pulse	0	t		21.0	2.5	/experiments/AOT/AOT_stimuli/rescaled_final/1114_fw.mp4	0.0	231.27677702903748	
23	209.45733284950256	movie	1		242	21.0	2.5	/experiments/AOT/AOT_stimuli/rescaled_final/1114_fw.mp4	0.0	231.69377303123474	2.499904155731201
23	210.64061188697815	pulse	1	t		21.0	2.5	/experiments/AOT/AOT_stimuli/rescaled_final/1114_fw.mp4	0.0	232.87705206871033	
23	211.95723700523376	fix_post	2		12	21.0	2.5	/experiments/AOT/AOT_stimuli/rescaled_final/1114_fw.mp4	0.0	234.19367718696594	0.10005402565002441
24	212.0572910308838	fix_pre	0		120	22.0	2.5	/experiments/AOT/AOT_stimuli/rescaled_final/0963_rv.mp4	0.0	234.29373121261597	0.9999489784240723
24	212.24077701568604	pulse	0	t		22.0	2.5	/experiments/AOT/AOT_stimuli/rescaled_final/0963_rv.mp4	0.0	234.4772171974182	
24	213.05724000930786	movie	1		243	22.0	2.5	/experiments/AOT/AOT_stimuli/rescaled_final/0963_rv.mp4	0.0	235.29368019104004	2.5000150203704834
24	213.84065580368042	pulse	1	t		22.0	2.5	/experiments/AOT/AOT_stimuli/rescaled_final/0963_rv.mp4	0.0	236.0770959854126	
24	215.43924188613892	pulse	1	t		22.0	2.5	/experiments/AOT/AOT_stimuli/rescaled_final/0963_rv.mp4	0.0	237.6756820678711	
24	215.55725502967834	fix_post	2		12	22.0	2.5	/experiments/AOT/AOT_stimuli/rescaled_final/0963_rv.mp4	0.0	237.79369521141052	0.09995198249816895
25	215.6572070121765	fix_pre	0		120	23.0	2.5	/experiments/AOT/AOT_stimuli/rescaled_final/1242_rv.mp4	0.0	237.8936471939087	0.9999558925628662
25	216.65716290473938	movie	1		247	23.0	2.5	/experiments/AOT/AOT_stimuli/rescaled_final/1242_rv.mp4	0.0	238.89360308647156	2.4999659061431885
25	217.04056787490845	pulse	1	t		23.0	2.5	/experiments/AOT/AOT_stimuli/rescaled_final/1242_rv.mp4	0.0	239.27700805664062	
25	218.64071798324585	pulse	1	t		23.0	2.5	/experiments/AOT/AOT_stimuli/rescaled_final/1242_rv.mp4	0.0	240.87715816497803	
25	219.15712881088257	fix_post	2		12	23.0	2.5	/experiments/AOT/AOT_stimuli/rescaled_final/1242_rv.mp4	0.0	241.39356899261475	0.1000361442565918
26	219.25716495513916	fix_pre	0		119	24.0	2.5	/experiments/AOT/AOT_stimuli/rescaled_final/0595_rv.mp4	0.0	241.49360513687134	0.9917068481445312
26	220.2406768798828	pulse	0	t		24.0	2.5	/experiments/AOT/AOT_stimuli/rescaled_final/0595_rv.mp4	0.0	242.477117061615	
26	220.2488718032837	movie	1		246	24.0	2.5	/experiments/AOT/AOT_stimuli/rescaled_final/0595_rv.mp4	0.0	242.48531198501587	2.5083091259002686
26	221.84004592895508	pulse	1	t		24.0	2.5	/experiments/AOT/AOT_stimuli/rescaled_final/0595_rv.mp4	0.0	244.07648611068726	
26	222.75718092918396	fix_post	2		12	24.0	2.5	/experiments/AOT/AOT_stimuli/rescaled_final/0595_rv.mp4	0.0	244.99362111091614	0.09997701644897461
27	222.85715794563293	fix_pre	0		120	25.0	2.5	/experiments/AOT/AOT_stimuli/rescaled_final/1780_fw.mp4	0.0	245.0935981273651	1.0000019073486328
27	223.44065284729004	pulse	0	t		25.0	2.5	/experiments/AOT/AOT_stimuli/rescaled_final/1780_fw.mp4	0.0	245.67709302902222	
27	223.85715985298157	movie	1		247	25.0	2.5	/experiments/AOT/AOT_stimuli/rescaled_final/1780_fw.mp4	0.0	246.09360003471375	2.500041961669922
27	225.04063391685486	pulse	1	t		25.0	2.5	/experiments/AOT/AOT_stimuli/rescaled_final/1780_fw.mp4	0.0	247.27707409858704	
27	226.3572018146515	fix_post	2		12	25.0	2.5	/experiments/AOT/AOT_stimuli/rescaled_final/1780_fw.mp4	0.0	248.59364199638367	0.09994912147521973
28	226.4571509361267	fix_pre	0		120	26.0	2.5	/experiments/AOT/AOT_stimuli/rescaled_final/1779_fw.mp4	0.0	248.6935911178589	0.9999880790710449
28	226.6405689716339	pulse	0	t		26.0	2.5	/experiments/AOT/AOT_stimuli/rescaled_final/1779_fw.mp4	0.0	248.8770091533661	
28	227.45713901519775	movie	1		244	26.0	2.5	/experiments/AOT/AOT_stimuli/rescaled_final/1779_fw.mp4	0.0	249.69357919692993	2.5000619888305664
28	228.24063181877136	pulse	1	t		26.0	2.5	/experiments/AOT/AOT_stimuli/rescaled_final/1779_fw.mp4	0.0	250.47707200050354	
28	229.83911085128784	pulse	1	t		26.0	2.5	/experiments/AOT/AOT_stimuli/rescaled_final/1779_fw.mp4	0.0	252.07555103302002	
28	229.95720100402832	fix_post	2		12	26.0	2.5	/experiments/AOT/AOT_stimuli/rescaled_final/1779_fw.mp4	0.0	252.1936411857605	0.10000181198120117
29	230.05720281600952	fix_pre	0		120	27.0	2.5	blank	1.0	252.2936429977417	0.9999830722808838
29	231.0571858882904	movie	1		300	27.0	2.5	blank	1.0	253.29362607002258	2.499988079071045
29	231.44071888923645	pulse	1	t		27.0	2.5	blank	1.0	253.67715907096863	
29	233.04050397872925	pulse	1	t		27.0	2.5	blank	1.0	255.27694416046143	
29	233.55717396736145	fix_post	2		12	27.0	2.5	blank	1.0	255.79361414909363	0.0999000072479248
30	233.65707397460938	fix_pre	0		119	28.0	2.5	/experiments/AOT/AOT_stimuli/rescaled_final/0957_fw.mp4	0.0	255.89351415634155	0.9916830062866211
30	234.64057993888855	pulse	0	t		28.0	2.5	/experiments/AOT/AOT_stimuli/rescaled_final/0957_fw.mp4	0.0	256.8770201206207	
30	234.648756980896	movie	1		244	28.0	2.5	/experiments/AOT/AOT_stimuli/rescaled_final/0957_fw.mp4	0.0	256.8851971626282	2.5083909034729004
30	236.24008083343506	pulse	1	t		28.0	2.5	/experiments/AOT/AOT_stimuli/rescaled_final/0957_fw.mp4	0.0	258.47652101516724	
30	237.1571478843689	fix_post	2		12	28.0	2.5	/experiments/AOT/AOT_stimuli/rescaled_final/0957_fw.mp4	0.0	259.3935880661011	0.09992694854736328
31	237.25707483291626	fix_pre	0		120	29.0	2.5	/experiments/AOT/AOT_stimuli/rescaled_final/0445_fw.mp4	0.0	259.49351501464844	1.0000090599060059
31	237.84058499336243	pulse	0	t		29.0	2.5	/experiments/AOT/AOT_stimuli/rescaled_final/0445_fw.mp4	0.0	260.0770251750946	
31	238.25708389282227	movie	1		244	29.0	2.5	/experiments/AOT/AOT_stimuli/rescaled_final/0445_fw.mp4	0.0	260.49352407455444	2.4999499320983887
31	239.4406578540802	pulse	1	t		29.0	2.5	/experiments/AOT/AOT_stimuli/rescaled_final/0445_fw.mp4	0.0	261.6770980358124	
31	240.75703382492065	fix_post	2		12	29.0	2.5	/experiments/AOT/AOT_stimuli/rescaled_final/0445_fw.mp4	0.0	262.99347400665283	0.10012507438659668
32	240.85715889930725	fix_pre	0		120	30.0	2.5	/experiments/AOT/AOT_stimuli/rescaled_final/0891_rv.mp4	0.0	263.09359908103943	0.9999330043792725
32	241.0405979156494	pulse	0	t		30.0	2.5	/experiments/AOT/AOT_stimuli/rescaled_final/0891_rv.mp4	0.0	263.2770380973816	
32	241.85709190368652	movie	1		243	30.0	2.5	/experiments/AOT/AOT_stimuli/rescaled_final/0891_rv.mp4	0.0	264.0935320854187	2.5000369548797607
32	242.64058184623718	pulse	1	t		30.0	2.5	/experiments/AOT/AOT_stimuli/rescaled_final/0891_rv.mp4	0.0	264.87702202796936	
32	244.2389419078827	pulse	1	t		30.0	2.5	/experiments/AOT/AOT_stimuli/rescaled_final/0891_rv.mp4	0.0	266.47538208961487	
32	244.35712885856628	fix_post	2		12	30.0	2.5	/experiments/AOT/AOT_stimuli/rescaled_final/0891_rv.mp4	0.0	266.59356904029846	0.09992694854736328
33	244.45705580711365	fix_pre	0		120	31.0	2.5	/experiments/AOT/AOT_stimuli/rescaled_final/0283_fw.mp4	0.0	266.6934959888458	1.0001041889190674
33	245.45715999603271	movie	1		244	31.0	2.5	/experiments/AOT/AOT_stimuli/rescaled_final/0283_fw.mp4	0.0	267.6936001777649	2.499847888946533
33	245.8400537967682	pulse	1	t		31.0	2.5	/experiments/AOT/AOT_stimuli/rescaled_final/0283_fw.mp4	0.0	268.07649397850037	
33	247.4405539035797	pulse	1	t		31.0	2.5	/experiments/AOT/AOT_stimuli/rescaled_final/0283_fw.mp4	0.0	269.6769940853119	
33	247.95700788497925	fix_post	2		12	31.0	2.5	/experiments/AOT/AOT_stimuli/rescaled_final/0283_fw.mp4	0.0	270.1934480667114	0.10008096694946289
34	248.0570888519287	fix_pre	0		119	32.0	2.5	/experiments/AOT/AOT_stimuli/rescaled_final/1715_rv.mp4	0.0	270.2935290336609	0.9916591644287109
34	249.04050993919373	pulse	0	t		32.0	2.5	/experiments/AOT/AOT_stimuli/rescaled_final/1715_rv.mp4	0.0	271.2769501209259	
34	249.04874801635742	movie	1		248	32.0	2.5	/experiments/AOT/AOT_stimuli/rescaled_final/1715_rv.mp4	0.0	271.2851881980896	2.50836181640625
34	250.64005994796753	pulse	1	t		32.0	2.5	/experiments/AOT/AOT_stimuli/rescaled_final/1715_rv.mp4	0.0	272.8765001296997	
34	251.55710983276367	fix_post	2		12	32.0	2.5	/experiments/AOT/AOT_stimuli/rescaled_final/1715_rv.mp4	0.0	273.79355001449585	0.09999799728393555
35	251.6571078300476	fix_pre	0		120	33.0	2.5	/experiments/AOT/AOT_stimuli/rescaled_final/2166_rv.mp4	0.0	273.8935480117798	0.9999079704284668
35	252.24046802520752	pulse	0	t		33.0	2.5	/experiments/AOT/AOT_stimuli/rescaled_final/2166_rv.mp4	0.0	274.4769082069397	
35	252.65701580047607	movie	1		245	33.0	2.5	/experiments/AOT/AOT_stimuli/rescaled_final/2166_rv.mp4	0.0	274.89345598220825	2.5000360012054443
35	253.84057188034058	pulse	1	t		33.0	2.5	/experiments/AOT/AOT_stimuli/rescaled_final/2166_rv.mp4	0.0	276.07701206207275	
35	255.15705180168152	fix_post	2		12	33.0	2.5	/experiments/AOT/AOT_stimuli/rescaled_final/2166_rv.mp4	0.0	277.3934919834137	0.09995913505554199
36	255.25701093673706	fix_pre	0		120	34.0	2.5	/experiments/AOT/AOT_stimuli/rescaled_final/0963_rv.mp4	0.0	277.49345111846924	1.0000550746917725
36	255.44045495986938	pulse	0	t		34.0	2.5	/experiments/AOT/AOT_stimuli/rescaled_final/0963_rv.mp4	0.0	277.67689514160156	
36	256.25706601142883	movie	1		243	34.0	2.5	/experiments/AOT/AOT_stimuli/rescaled_final/0963_rv.mp4	0.0	278.493506193161	2.5000898838043213
36	257.04043984413147	pulse	1	t		34.0	2.5	/experiments/AOT/AOT_stimuli/rescaled_final/0963_rv.mp4	0.0	279.27688002586365	
36	258.63870191574097	pulse	1	t		34.0	2.5	/experiments/AOT/AOT_stimuli/rescaled_final/0963_rv.mp4	0.0	280.87514209747314	
36	258.75715589523315	fix_post	2		12	34.0	2.5	/experiments/AOT/AOT_stimuli/rescaled_final/0963_rv.mp4	0.0	280.99359607696533	0.0998830795288086
37	258.85703897476196	fix_pre	0		120	35.0	2.5	blank	1.0	281.09347915649414	1.0000200271606445
37	259.8570590019226	movie	1		300	35.0	2.5	blank	1.0	282.0934991836548	2.4999239444732666
37	260.24065494537354	pulse	1	t		35.0	2.5	blank	1.0	282.4770951271057	
37	261.84053587913513	pulse	1	t		35.0	2.5	blank	1.0	284.0769760608673	
37	262.3569829463959	fix_post	2		12	35.0	2.5	blank	1.0	284.59342312812805	0.10003304481506348
38	262.45701599121094	fix_pre	0		119	36.0	2.5	/experiments/AOT/AOT_stimuli/rescaled_final/2166_rv.mp4	0.0	284.6934561729431	0.9916019439697266
38	263.4400198459625	pulse	0	t		36.0	2.5	/experiments/AOT/AOT_stimuli/rescaled_final/2166_rv.mp4	0.0	285.6764600276947	
38	263.44861793518066	movie	1		245	36.0	2.5	/experiments/AOT/AOT_stimuli/rescaled_final/2166_rv.mp4	0.0	285.68505811691284	2.5080978870391846
38	265.0395658016205	pulse	1	t		36.0	2.5	/experiments/AOT/AOT_stimuli/rescaled_final/2166_rv.mp4	0.0	287.27600598335266	
38	265.95671582221985	fix_post	2		12	36.0	2.5	/experiments/AOT/AOT_stimuli/rescaled_final/2166_rv.mp4	0.0	288.193156003952	0.10044217109680176
39	266.05715799331665	fix_pre	0		120	37.0	2.5	/experiments/AOT/AOT_stimuli/rescaled_final/0842_rv.mp4	0.0	288.2935981750488	0.9997270107269287
39	266.640695810318	pulse	0	t		37.0	2.5	/experiments/AOT/AOT_stimuli/rescaled_final/0842_rv.mp4	0.0	288.87713599205017	
39	267.0568850040436	movie	1		244	37.0	2.5	/experiments/AOT/AOT_stimuli/rescaled_final/0842_rv.mp4	0.0	289.29332518577576	2.5000898838043213
39	268.24049186706543	pulse	1	t		37.0	2.5	/experiments/AOT/AOT_stimuli/rescaled_final/0842_rv.mp4	0.0	290.4769320487976	
39	269.5569748878479	fix_post	2		12	37.0	2.5	/experiments/AOT/AOT_stimuli/rescaled_final/0842_rv.mp4	0.0	291.7934150695801	0.09993600845336914
40	269.65691089630127	fix_pre	0		120	38.0	2.5	/experiments/AOT/AOT_stimuli/rescaled_final/1127_fw.mp4	0.0	291.89335107803345	1.0001249313354492
40	269.8403458595276	pulse	0	t		38.0	2.5	/experiments/AOT/AOT_stimuli/rescaled_final/1127_fw.mp4	0.0	292.07678604125977	
40	270.6570358276367	movie	1		246	38.0	2.5	/experiments/AOT/AOT_stimuli/rescaled_final/1127_fw.mp4	0.0	292.8934760093689	2.4998531341552734
40	271.4404888153076	pulse	1	t		38.0	2.5	/experiments/AOT/AOT_stimuli/rescaled_final/1127_fw.mp4	0.0	293.6769289970398	
40	273.03897285461426	pulse	1	t		38.0	2.5	/experiments/AOT/AOT_stimuli/rescaled_final/1127_fw.mp4	0.0	295.27541303634644	
40	273.156888961792	fix_post	2		12	38.0	2.5	/experiments/AOT/AOT_stimuli/rescaled_final/1127_fw.mp4	0.0	295.39332914352417	0.1000058650970459
41	273.25689482688904	fix_pre	0		120	39.0	2.5	/experiments/AOT/AOT_stimuli/rescaled_final/0020_fw.mp4	0.0	295.4933350086212	0.9999680519104004
41	274.25686287879944	movie	1		246	39.0	2.5	/experiments/AOT/AOT_stimuli/rescaled_final/0020_fw.mp4	0.0	296.4933030605316	2.5000901222229004
41	274.63985085487366	pulse	1	t		39.0	2.5	/experiments/AOT/AOT_stimuli/rescaled_final/0020_fw.mp4	0.0	296.87629103660583	
41	276.24028182029724	pulse	1	t		39.0	2.5	/experiments/AOT/AOT_stimuli/rescaled_final/0020_fw.mp4	0.0	298.4767220020294	
41	276.75695300102234	fix_post	2		12	39.0	2.5	/experiments/AOT/AOT_stimuli/rescaled_final/0020_fw.mp4	0.0	298.9933931827545	0.09993696212768555
42	276.85688996315	fix_pre	0		119	40.0	2.5	/experiments/AOT/AOT_stimuli/rescaled_final/0399_rv.mp4	0.0	299.0933301448822	0.9916110038757324
42	277.84027791023254	pulse	0	t		40.0	2.5	/experiments/AOT/AOT_stimuli/rescaled_final/0399_rv.mp4	0.0	300.0767180919647	
42	277.84850096702576	movie	1		246	40.0	2.5	/experiments/AOT/AOT_stimuli/rescaled_final/0399_rv.mp4	0.0	300.08494114875793	2.5084149837493896
42	279.44034790992737	pulse	1	t		40.0	2.5	/experiments/AOT/AOT_stimuli/rescaled_final/0399_rv.mp4	0.0	301.67678809165955	
42	280.35691595077515	fix_post	2		12	40.0	2.5	/experiments/AOT/AOT_stimuli/rescaled_final/0399_rv.mp4	0.0	302.5933561325073	0.10008001327514648
43	280.4569959640503	fix_pre	0		120	41.0	2.5	blank	1.0	302.69343614578247	0.9999399185180664
43	281.0403778553009	pulse	0	t		41.0	2.5	blank	1.0	303.2768180370331	
43	281.45693588256836	movie	1		300	41.0	2.5	blank	1.0	303.69337606430054	2.499958038330078
43	282.6403458118439	pulse	1	t		41.0	2.5	blank	1.0	304.87678599357605	
43	283.95689392089844	fix_post	2		12	41.0	2.5	blank	1.0	306.1933341026306	0.09998106956481934
44	284.05687499046326	fix_pre	0		120	42.0	2.5	/experiments/AOT/AOT_stimuli/rescaled_final/0918_fw.mp4	0.0	306.29331517219543	1.000018835067749
44	284.24034786224365	pulse	0	t		42.0	2.5	/experiments/AOT/AOT_stimuli/rescaled_final/0918_fw.mp4	0.0	306.47678804397583	
44	285.056893825531	movie	1		245	42.0	2.5	/experiments/AOT/AOT_stimuli/rescaled_final/0918_fw.mp4	0.0	307.2933340072632	2.500005006790161
44	285.84036588668823	pulse	1	t		42.0	2.5	/experiments/AOT/AOT_stimuli/rescaled_final/0918_fw.mp4	0.0	308.0768060684204	
44	287.43892788887024	pulse	1	t		42.0	2.5	/experiments/AOT/AOT_stimuli/rescaled_final/0918_fw.mp4	0.0	309.6753680706024	
44	287.55689883232117	fix_post	2		12	42.0	2.5	/experiments/AOT/AOT_stimuli/rescaled_final/0918_fw.mp4	0.0	309.79333901405334	0.09995818138122559
45	287.6568570137024	fix_pre	0		120	43.0	2.5	/experiments/AOT/AOT_stimuli/rescaled_final/2085_rv.mp4	0.0	309.89329719543457	1.0000579357147217
45	288.6569149494171	movie	1		245	43.0	2.5	/experiments/AOT/AOT_stimuli/rescaled_final/2085_rv.mp4	0.0	310.8933551311493	2.499876022338867
45	289.04055285453796	pulse	1	t		43.0	2.5	/experiments/AOT/AOT_stimuli/rescaled_final/2085_rv.mp4	0.0	311.27699303627014	
45	290.6403489112854	pulse	1	t		43.0	2.5	/experiments/AOT/AOT_stimuli/rescaled_final/2085_rv.mp4	0.0	312.8767890930176	
45	291.156790971756	fix_post	2		12	43.0	2.5	/experiments/AOT/AOT_stimuli/rescaled_final/2085_rv.mp4	0.0	313.39323115348816	0.10007786750793457
46	291.2568688392639	fix_pre	0		119	44.0	2.5	/experiments/AOT/AOT_stimuli/rescaled_final/1514_rv.mp4	0.0	313.4933090209961	0.9916501045227051
46	292.2402617931366	pulse	0	t		44.0	2.5	/experiments/AOT/AOT_stimuli/rescaled_final/1514_rv.mp4	0.0	314.4767019748688	
46	292.2485189437866	movie	1		247	44.0	2.5	/experiments/AOT/AOT_stimuli/rescaled_final/1514_rv.mp4	0.0	314.4849591255188	2.5083558559417725
46	293.84052085876465	pulse	1	t		44.0	2.5	/experiments/AOT/AOT_stimuli/rescaled_final/1514_rv.mp4	0.0	316.0769610404968	
46	294.7568747997284	fix_post	2		12	44.0	2.5	/experiments/AOT/AOT_stimuli/rescaled_final/1514_rv.mp4	0.0	316.99331498146057	0.10001111030578613
47	294.8568859100342	fix_pre	0		120	45.0	2.5	/experiments/AOT/AOT_stimuli/rescaled_final/0677_rv.mp4	0.0	317.09332609176636	0.9999051094055176
47	295.4403648376465	pulse	0	t		45.0	2.5	/experiments/AOT/AOT_stimuli/rescaled_final/0677_rv.mp4	0.0	317.67680501937866	
47	295.8567910194397	movie	1		243	45.0	2.5	/experiments/AOT/AOT_stimuli/rescaled_final/0677_rv.mp4	0.0	318.0932312011719	2.500018835067749
47	297.04036498069763	pulse	1	t		45.0	2.5	/experiments/AOT/AOT_stimuli/rescaled_final/0677_rv.mp4	0.0	319.2768051624298	
47	298.35680985450745	fix_post	2		12	45.0	2.5	/experiments/AOT/AOT_stimuli/rescaled_final/0677_rv.mp4	0.0	320.5932500362396	0.09999513626098633
48	298.45680499076843	fix_pre	0		120	46.0	2.5	/experiments/AOT/AOT_stimuli/rescaled_final/1827_fw.mp4	0.0	320.6932451725006	1.0000929832458496
48	298.6403338909149	pulse	0	t		46.0	2.5	/experiments/AOT/AOT_stimuli/rescaled_final/1827_fw.mp4	0.0	320.8767740726471	
48	299.4568979740143	movie	1		244	46.0	2.5	/experiments/AOT/AOT_stimuli/rescaled_final/1827_fw.mp4	0.0	321.69333815574646	2.4999189376831055
48	300.2403259277344	pulse	1	t		46.0	2.5	/experiments/AOT/AOT_stimuli/rescaled_final/1827_fw.mp4	0.0	322.47676610946655	
48	301.8388249874115	pulse	1	t		46.0	2.5	/experiments/AOT/AOT_stimuli/rescaled_final/1827_fw.mp4	0.0	324.0752651691437	
48	301.9568169116974	fix_post	2		12	46.0	2.5	/experiments/AOT/AOT_stimuli/rescaled_final/1827_fw.mp4	0.0	324.19325709342957	0.10001897811889648
49	302.0568358898163	fix_pre	0		120	47.0	2.5	blank	1.0	324.29327607154846	0.9999990463256836
49	303.05683493614197	movie	1		300	47.0	2.5	blank	1.0	325.29327511787415	2.499969005584717
49	303.44031381607056	pulse	1	t		47.0	2.5	blank	1.0	325.67675399780273	
49	305.0403079986572	pulse	1	t		47.0	2.5	blank	1.0	327.2767481803894	
49	305.5568039417267	fix_post	2		12	47.0	2.5	blank	1.0	327.79324412345886	0.09992289543151855
50	305.6567268371582	fix_pre	0		119	48.0	2.5	/experiments/AOT/AOT_stimuli/rescaled_final/1135_rv.mp4	0.0	327.8931670188904	0.9917659759521484
50	306.6403958797455	pulse	0	t		48.0	2.5	/experiments/AOT/AOT_stimuli/rescaled_final/1135_rv.mp4	0.0	328.87683606147766	
50	306.64849281311035	movie	1		248	48.0	2.5	/experiments/AOT/AOT_stimuli/rescaled_final/1135_rv.mp4	0.0	328.88493299484253	2.508225202560425
50	308.2398819923401	pulse	1	t		48.0	2.5	/experiments/AOT/AOT_stimuli/rescaled_final/1135_rv.mp4	0.0	330.47632217407227	
50	309.1567180156708	fix_post	2		12	48.0	2.5	/experiments/AOT/AOT_stimuli/rescaled_final/1135_rv.mp4	0.0	331.39315819740295	0.10004401206970215
51	309.2567620277405	fix_pre	0		120	49.0	2.5	/experiments/AOT/AOT_stimuli/rescaled_final/1779_fw.mp4	0.0	331.49320220947266	1.0000438690185547
51	309.8402409553528	pulse	0	t		49.0	2.5	/experiments/AOT/AOT_stimuli/rescaled_final/1779_fw.mp4	0.0	332.07668113708496	
51	310.25680589675903	movie	1		244	49.0	2.5	/experiments/AOT/AOT_stimuli/rescaled_final/1779_fw.mp4	0.0	332.4932460784912	2.499983072280884
51	311.4403758049011	pulse	1	t		49.0	2.5	/experiments/AOT/AOT_stimuli/rescaled_final/1779_fw.mp4	0.0	333.6768159866333	
51	312.7567889690399	fix_post	2		12	49.0	2.5	/experiments/AOT/AOT_stimuli/rescaled_final/1779_fw.mp4	0.0	334.9932291507721	0.0999460220336914
52	312.8567349910736	fix_pre	0		120	50.0	2.5	/experiments/AOT/AOT_stimuli/rescaled_final/0692_rv.mp4	0.0	335.0931751728058	1.000046968460083
52	313.0403389930725	pulse	0	t		50.0	2.5	/experiments/AOT/AOT_stimuli/rescaled_final/0692_rv.mp4	0.0	335.2767791748047	
52	313.8567819595337	movie	1		243	50.0	2.5	/experiments/AOT/AOT_stimuli/rescaled_final/0692_rv.mp4	0.0	336.09322214126587	2.4999828338623047
52	314.6402759552002	pulse	1	t		50.0	2.5	/experiments/AOT/AOT_stimuli/rescaled_final/0692_rv.mp4	0.0	336.8767161369324	
52	316.23865580558777	pulse	1	t		50.0	2.5	/experiments/AOT/AOT_stimuli/rescaled_final/0692_rv.mp4	0.0	338.47509598731995	
52	316.356764793396	fix_post	2		12	50.0	2.5	/experiments/AOT/AOT_stimuli/rescaled_final/0692_rv.mp4	0.0	338.5932049751282	0.10002803802490234
53	316.4567928314209	fix_pre	0		120	51.0	2.5	/experiments/AOT/AOT_stimuli/rescaled_final/0522_rv.mp4	0.0	338.6932330131531	0.9999110698699951
53	317.4567039012909	movie	1		246	51.0	2.5	/experiments/AOT/AOT_stimuli/rescaled_final/0522_rv.mp4	0.0	339.69314408302307	2.499711036682129
53	317.8402168750763	pulse	1	t		51.0	2.5	/experiments/AOT/AOT_stimuli/rescaled_final/0522_rv.mp4	0.0	340.0766570568085	
53	319.4401469230652	pulse	1	t		51.0	2.5	/experiments/AOT/AOT_stimuli/rescaled_final/0522_rv.mp4	0.0	341.67658710479736	
53	319.956414937973	fix_post	2		12	51.0	2.5	/experiments/AOT/AOT_stimuli/rescaled_final/0522_rv.mp4	0.0	342.1928551197052	0.09988689422607422
54	320.0563018321991	fix_pre	0		119	52.0	2.5	/experiments/AOT/AOT_stimuli/rescaled_final/0739_rv.mp4	0.0	342.2927420139313	0.9917020797729492
54	321.0399308204651	pulse	0	t		52.0	2.5	/experiments/AOT/AOT_stimuli/rescaled_final/0739_rv.mp4	0.0	343.27637100219727	
54	321.04800391197205	movie	1		247	52.0	2.5	/experiments/AOT/AOT_stimuli/rescaled_final/0739_rv.mp4	0.0	343.2844440937042	2.5087780952453613
54	322.6400020122528	pulse	1	t		52.0	2.5	/experiments/AOT/AOT_stimuli/rescaled_final/0739_rv.mp4	0.0	344.876442193985	
54	323.5567820072174	fix_post	2		12	52.0	2.5	/experiments/AOT/AOT_stimuli/rescaled_final/0739_rv.mp4	0.0	345.7932221889496	0.0999908447265625
55	323.65677285194397	fix_pre	0		120	53.0	2.5	/experiments/AOT/AOT_stimuli/rescaled_final/1210_fw.mp4	0.0	345.89321303367615	0.9999539852142334
55	324.2401809692383	pulse	0	t		53.0	2.5	/experiments/AOT/AOT_stimuli/rescaled_final/1210_fw.mp4	0.0	346.47662115097046	
55	324.6567268371582	movie	1		243	53.0	2.5	/experiments/AOT/AOT_stimuli/rescaled_final/1210_fw.mp4	0.0	346.8931670188904	2.5000669956207275
55	325.84021282196045	pulse	1	t		53.0	2.5	/experiments/AOT/AOT_stimuli/rescaled_final/1210_fw.mp4	0.0	348.0766530036926	
55	327.15679383277893	fix_post	2		12	53.0	2.5	/experiments/AOT/AOT_stimuli/rescaled_final/1210_fw.mp4	0.0	349.3932340145111	0.10001897811889648
56	327.2568128108978	fix_pre	0		120	54.0	2.5	/experiments/AOT/AOT_stimuli/rescaled_final/1577_fw.mp4	0.0	349.49325299263	0.9998490810394287
56	327.4402129650116	pulse	0	t		54.0	2.5	/experiments/AOT/AOT_stimuli/rescaled_final/1577_fw.mp4	0.0	349.6766531467438	
56	328.25666189193726	movie	1		242	54.0	2.5	/experiments/AOT/AOT_stimuli/rescaled_final/1577_fw.mp4	0.0	350.49310207366943	2.500005006790161
56	329.0401289463043	pulse	1	t		54.0	2.5	/experiments/AOT/AOT_stimuli/rescaled_final/1577_fw.mp4	0.0	351.2765691280365	
56	330.6485068798065	pulse	1	t		54.0	2.5	/experiments/AOT/AOT_stimuli/rescaled_final/1577_fw.mp4	0.0	352.8849470615387	
56	330.7566668987274	fix_post	2		12	54.0	2.5	/experiments/AOT/AOT_stimuli/rescaled_final/1577_fw.mp4	0.0	352.9931070804596	0.09995007514953613
57	330.85661697387695	fix_pre	0		120	55.0	2.5	blank	1.0	353.09305715560913	0.9999990463256836
57	331.85661602020264	movie	1		300	55.0	2.5	blank	1.0	354.0930562019348	2.500032901763916
57	332.24008798599243	pulse	1	t		55.0	2.5	blank	1.0	354.4765281677246	
57	333.8400728702545	pulse	1	t		55.0	2.5	blank	1.0	356.0765130519867	
57	334.35664892196655	fix_post	2		12	55.0	2.5	blank	1.0	356.59308910369873	0.09992504119873047
58	334.4565739631653	fix_pre	0		119	56.0	2.5	/experiments/AOT/AOT_stimuli/rescaled_final/0520_rv.mp4	0.0	356.69301414489746	0.9916858673095703
58	335.440141916275	pulse	0	t		56.0	2.5	/experiments/AOT/AOT_stimuli/rescaled_final/0520_rv.mp4	0.0	357.6765820980072	
58	335.44825983047485	movie	1		246	56.0	2.5	/experiments/AOT/AOT_stimuli/rescaled_final/0520_rv.mp4	0.0	357.68470001220703	2.508413076400757
58	337.03971099853516	pulse	1	t		56.0	2.5	/experiments/AOT/AOT_stimuli/rescaled_final/0520_rv.mp4	0.0	359.27615118026733	
58	337.9566729068756	fix_post	2		12	56.0	2.5	/experiments/AOT/AOT_stimuli/rescaled_final/0520_rv.mp4	0.0	360.1931130886078	0.09988808631896973
59	338.0565609931946	fix_pre	0		120	57.0	2.5	/experiments/AOT/AOT_stimuli/rescaled_final/0696_rv.mp4	0.0	360.29300117492676	1.0001299381256104
59	338.6401398181915	pulse	0	t		57.0	2.5	/experiments/AOT/AOT_stimuli/rescaled_final/0696_rv.mp4	0.0	360.8765799999237	
59	339.0566909313202	movie	1		245	57.0	2.5	/experiments/AOT/AOT_stimuli/rescaled_final/0696_rv.mp4	0.0	361.29313111305237	2.500011920928955
59	340.24032282829285	pulse	1	t		57.0	2.5	/experiments/AOT/AOT_stimuli/rescaled_final/0696_rv.mp4	0.0	362.476763010025	
59	341.55670285224915	fix_post	2		12	57.0	2.5	/experiments/AOT/AOT_stimuli/rescaled_final/0696_rv.mp4	0.0	363.7931430339813	0.09988617897033691
60	341.6565890312195	fix_pre	0		120	58.0	2.5	/experiments/AOT/AOT_stimuli/rescaled_final/1115_fw.mp4	0.0	363.89302921295166	1.0000369548797607
60	341.8400888442993	pulse	0	t		58.0	2.5	/experiments/AOT/AOT_stimuli/rescaled_final/1115_fw.mp4	0.0	364.0765290260315	
60	342.65662598609924	movie	1		245	58.0	2.5	/experiments/AOT/AOT_stimuli/rescaled_final/1115_fw.mp4	0.0	364.8930661678314	2.49995493888855
60	343.4400329589844	pulse	1	t		58.0	2.5	/experiments/AOT/AOT_stimuli/rescaled_final/1115_fw.mp4	0.0	365.67647314071655	
60	345.039577960968	pulse	1	t		58.0	2.5	/experiments/AOT/AOT_stimuli/rescaled_final/1115_fw.mp4	0.0	367.2760181427002	
60	345.1565809249878	fix_post	2		12	58.0	2.5	/experiments/AOT/AOT_stimuli/rescaled_final/1115_fw.mp4	0.0	367.39302110671997	0.09998488426208496
61	345.2565658092499	fix_pre	0		120	59.0	2.5	/experiments/AOT/AOT_stimuli/rescaled_final/0784_fw.mp4	0.0	367.49300599098206	1.0000181198120117
61	346.2565839290619	movie	1		245	59.0	2.5	/experiments/AOT/AOT_stimuli/rescaled_final/0784_fw.mp4	0.0	368.49302411079407	2.4999990463256836
61	346.6396498680115	pulse	1	t		59.0	2.5	/experiments/AOT/AOT_stimuli/rescaled_final/0784_fw.mp4	0.0	368.87609004974365	
61	348.2400279045105	pulse	1	t		59.0	2.5	/experiments/AOT/AOT_stimuli/rescaled_final/0784_fw.mp4	0.0	370.4764680862427	
61	348.7565829753876	fix_post	2		12	59.0	2.5	/experiments/AOT/AOT_stimuli/rescaled_final/0784_fw.mp4	0.0	370.99302315711975	0.09990191459655762
62	348.85648488998413	fix_pre	0		119	60.0	2.5	/experiments/AOT/AOT_stimuli/rescaled_final/0721_fw.mp4	0.0	371.0929250717163	0.9917020797729492
62	349.8400168418884	pulse	0	t		60.0	2.5	/experiments/AOT/AOT_stimuli/rescaled_final/0721_fw.mp4	0.0	372.0764570236206	
62	349.8481869697571	movie	1		245	60.0	2.5	/experiments/AOT/AOT_stimuli/rescaled_final/0721_fw.mp4	0.0	372.08462715148926	2.5084619522094727
62	351.4392919540405	pulse	1	t		60.0	2.5	/experiments/AOT/AOT_stimuli/rescaled_final/0721_fw.mp4	0.0	373.6757321357727	
62	352.35664892196655	fix_post	2		12	60.0	2.5	/experiments/AOT/AOT_stimuli/rescaled_final/0721_fw.mp4	0.0	374.59308910369873	0.0999290943145752
63	352.4565780162811	fix_pre	0		120	61.0	2.5	blank	1.0	374.6930181980133	1.0000438690185547
63	353.0400140285492	pulse	0	t		61.0	2.5	blank	1.0	375.2764542102814	
63	353.4566218852997	movie	1		300	61.0	2.5	blank	1.0	375.69306206703186	2.4999051094055176
63	354.6400499343872	pulse	1	t		61.0	2.5	blank	1.0	376.8764901161194	
63	355.9565269947052	fix_post	2		12	61.0	2.5	blank	1.0	378.1929671764374	0.10001182556152344
64	356.0565388202667	fix_pre	0		120	62.0	2.5	/experiments/AOT/AOT_stimuli/rescaled_final/1610_rv.mp4	0.0	378.2929790019989	0.9999711513519287
64	356.24006485939026	pulse	0	t		62.0	2.5	/experiments/AOT/AOT_stimuli/rescaled_final/1610_rv.mp4	0.0	378.47650504112244	
64	357.05650997161865	movie	1		243	62.0	2.5	/experiments/AOT/AOT_stimuli/rescaled_final/1610_rv.mp4	0.0	379.29295015335083	2.5000498294830322
64	357.8400568962097	pulse	1	t		62.0	2.5	/experiments/AOT/AOT_stimuli/rescaled_final/1610_rv.mp4	0.0	380.0764970779419	
64	359.4383239746094	pulse	1	t		62.0	2.5	/experiments/AOT/AOT_stimuli/rescaled_final/1610_rv.mp4	0.0	381.67476415634155	
64	359.5565598011017	fix_post	2		12	62.0	2.5	/experiments/AOT/AOT_stimuli/rescaled_final/1610_rv.mp4	0.0	381.79299998283386	0.0999610424041748
65	359.65652084350586	fix_pre	0		120	63.0	2.5	/experiments/AOT/AOT_stimuli/rescaled_final/0399_fw.mp4	0.0	381.89296102523804	0.9999799728393555
65	360.6565008163452	movie	1		247	63.0	2.5	/experiments/AOT/AOT_stimuli/rescaled_final/0399_fw.mp4	0.0	382.8929409980774	2.4999570846557617
65	361.03947281837463	pulse	1	t		63.0	2.5	/experiments/AOT/AOT_stimuli/rescaled_final/0399_fw.mp4	0.0	383.2759130001068	
65	362.6400058269501	pulse	1	t		63.0	2.5	/experiments/AOT/AOT_stimuli/rescaled_final/0399_fw.mp4	0.0	384.87644600868225	
65	363.156457901001	fix_post	2		12	63.0	2.5	/experiments/AOT/AOT_stimuli/rescaled_final/0399_fw.mp4	0.0	385.39289808273315	0.1000509262084961
66	363.2565088272095	fix_pre	0		119	64.0	2.5	/experiments/AOT/AOT_stimuli/rescaled_final/2157_rv.mp4	0.0	385.49294900894165	0.9916050434112549
66	364.2400059700012	pulse	0	t		64.0	2.5	/experiments/AOT/AOT_stimuli/rescaled_final/2157_rv.mp4	0.0	386.4764461517334	
66	364.2481138706207	movie	1		244	64.0	2.5	/experiments/AOT/AOT_stimuli/rescaled_final/2157_rv.mp4	0.0	386.4845540523529	2.508280038833618
66	365.83967900276184	pulse	1	t		64.0	2.5	/experiments/AOT/AOT_stimuli/rescaled_final/2157_rv.mp4	0.0	388.076119184494	
66	366.75639390945435	fix_post	2		12	64.0	2.5	/experiments/AOT/AOT_stimuli/rescaled_final/2157_rv.mp4	0.0	388.9928340911865	0.1000359058380127
67	366.85642981529236	fix_pre	0		120	65.0	2.5	/experiments/AOT/AOT_stimuli/rescaled_final/0445_fw.mp4	0.0	389.09286999702454	1.0000061988830566
67	367.44003200531006	pulse	0	t		65.0	2.5	/experiments/AOT/AOT_stimuli/rescaled_final/0445_fw.mp4	0.0	389.67647218704224	
67	367.8564360141754	movie	1		243	65.0	2.5	/experiments/AOT/AOT_stimuli/rescaled_final/0445_fw.mp4	0.0	390.0928761959076	2.4999868869781494
67	369.04006600379944	pulse	1	t		65.0	2.5	/experiments/AOT/AOT_stimuli/rescaled_final/0445_fw.mp4	0.0	391.2765061855316	
67	370.35642290115356	fix_post	2		12	65.0	2.5	/experiments/AOT/AOT_stimuli/rescaled_final/0445_fw.mp4	0.0	392.59286308288574	0.10004305839538574
68	370.45646595954895	fix_pre	0		120	66.0	2.5	/experiments/AOT/AOT_stimuli/rescaled_final/1718_rv.mp4	0.0	392.6929061412811	1.0000579357147217
68	370.63988280296326	pulse	0	t		66.0	2.5	/experiments/AOT/AOT_stimuli/rescaled_final/1718_rv.mp4	0.0	392.87632298469543	
68	371.4565238952637	movie	1		244	66.0	2.5	/experiments/AOT/AOT_stimuli/rescaled_final/1718_rv.mp4	0.0	393.69296407699585	2.499959945678711
68	372.2399640083313	pulse	1	t		66.0	2.5	/experiments/AOT/AOT_stimuli/rescaled_final/1718_rv.mp4	0.0	394.4764041900635	
68	373.83843302726746	pulse	1	t		66.0	2.5	/experiments/AOT/AOT_stimuli/rescaled_final/1718_rv.mp4	0.0	396.07487320899963	
68	373.9564838409424	fix_post	2		12	66.0	2.5	/experiments/AOT/AOT_stimuli/rescaled_final/1718_rv.mp4	0.0	396.19292402267456	0.10005903244018555
69	374.05654287338257	fix_pre	0		120	67.0	2.5	/experiments/AOT/AOT_stimuli/rescaled_final/0805_rv.mp4	0.0	396.29298305511475	0.9999699592590332
69	375.0565128326416	movie	1		244	67.0	2.5	/experiments/AOT/AOT_stimuli/rescaled_final/0805_rv.mp4	0.0	397.2929530143738	2.499723196029663
69	375.440798997879	pulse	1	t		67.0	2.5	/experiments/AOT/AOT_stimuli/rescaled_final/0805_rv.mp4	0.0	397.6772391796112	
69	377.0399389266968	pulse	1	t		67.0	2.5	/experiments/AOT/AOT_stimuli/rescaled_final/0805_rv.mp4	0.0	399.27637910842896	
69	377.55623602867126	fix_post	2		12	67.0	2.5	/experiments/AOT/AOT_stimuli/rescaled_final/0805_rv.mp4	0.0	399.79267621040344	0.09999299049377441
70	377.65622901916504	fix_pre	0		119	68.0	2.5	/experiments/AOT/AOT_stimuli/rescaled_final/0276_rv.mp4	0.0	399.8926692008972	0.9917478561401367
70	378.639860868454	pulse	0	t		68.0	2.5	/experiments/AOT/AOT_stimuli/rescaled_final/0276_rv.mp4	0.0	400.87630105018616	
70	378.6479768753052	movie	1		244	68.0	2.5	/experiments/AOT/AOT_stimuli/rescaled_final/0276_rv.mp4	0.0	400.88441705703735	2.508439064025879
70	380.2397618293762	pulse	1	t		68.0	2.5	/experiments/AOT/AOT_stimuli/rescaled_final/0276_rv.mp4	0.0	402.4762020111084	
70	381.15641593933105	fix_post	2		12	68.0	2.5	/experiments/AOT/AOT_stimuli/rescaled_final/0276_rv.mp4	0.0	403.39285612106323	0.1000208854675293
71	381.2564368247986	fix_pre	0		120	69.0	2.5	blank	1.0	403.49287700653076	0.9999730587005615
71	381.8399260044098	pulse	0	t		69.0	2.5	blank	1.0	404.07636618614197	
71	382.25640988349915	movie	1		300	69.0	2.5	blank	1.0	404.4928500652313	2.5000510215759277
71	383.4399998188019	pulse	1	t		69.0	2.5	blank	1.0	405.67644000053406	
71	384.7564609050751	fix_post	2		12	69.0	2.5	blank	1.0	406.99290108680725	0.09994697570800781
72	384.8564078807831	fix_pre	0		120	70.0	2.5	/experiments/AOT/AOT_stimuli/rescaled_final/1693_rv.mp4	0.0	407.09284806251526	0.9999830722808838
72	385.03987884521484	pulse	0	t		70.0	2.5	/experiments/AOT/AOT_stimuli/rescaled_final/1693_rv.mp4	0.0	407.276319026947	
72	385.85639095306396	movie	1		246	70.0	2.5	/experiments/AOT/AOT_stimuli/rescaled_final/1693_rv.mp4	0.0	408.09283113479614	2.499974012374878
72	386.63983702659607	pulse	1	t		70.0	2.5	/experiments/AOT/AOT_stimuli/rescaled_final/1693_rv.mp4	0.0	408.87627720832825	
72	388.2398250102997	pulse	1	t		70.0	2.5	/experiments/AOT/AOT_stimuli/rescaled_final/1693_rv.mp4	0.0	410.47626519203186	
72	388.35636496543884	fix_post	2		12	70.0	2.5	/experiments/AOT/AOT_stimuli/rescaled_final/1693_rv.mp4	0.0	410.592805147171	0.1000518798828125
73	388.45641684532166	fix_pre	0		120	71.0	2.5	/experiments/AOT/AOT_stimuli/rescaled_final/1779_rv.mp4	0.0	410.69285702705383	0.9999420642852783
73	389.45635890960693	movie	1		244	71.0	2.5	/experiments/AOT/AOT_stimuli/rescaled_final/1779_rv.mp4	0.0	411.6927990913391	2.4999759197235107
73	389.8405020236969	pulse	1	t		71.0	2.5	/experiments/AOT/AOT_stimuli/rescaled_final/1779_rv.mp4	0.0	412.0769422054291	
73	391.4398880004883	pulse	1	t		71.0	2.5	/experiments/AOT/AOT_stimuli/rescaled_final/1779_rv.mp4	0.0	413.67632818222046	
73	391.95633482933044	fix_post	2		12	71.0	2.5	/experiments/AOT/AOT_stimuli/rescaled_final/1779_rv.mp4	0.0	414.1927750110626	0.09996819496154785
74	392.056303024292	fix_pre	0		119	72.0	2.5	/experiments/AOT/AOT_stimuli/rescaled_final/1242_fw.mp4	0.0	414.29274320602417	0.9917948246002197
74	393.03979086875916	pulse	0	t		72.0	2.5	/experiments/AOT/AOT_stimuli/rescaled_final/1242_fw.mp4	0.0	415.27623105049133	
74	393.0480978488922	movie	1		245	72.0	2.5	/experiments/AOT/AOT_stimuli/rescaled_final/1242_fw.mp4	0.0	415.2845380306244	2.5083250999450684
74	394.63956785202026	pulse	1	t		72.0	2.5	/experiments/AOT/AOT_stimuli/rescaled_final/1242_fw.mp4	0.0	416.87600803375244	
74	395.5564229488373	fix_post	2		12	72.0	2.5	/experiments/AOT/AOT_stimuli/rescaled_final/1242_fw.mp4	0.0	417.79286313056946	0.0999748706817627
75	395.65639781951904	fix_pre	0		120	73.0	2.5	/experiments/AOT/AOT_stimuli/rescaled_final/1135_fw.mp4	0.0	417.8928380012512	0.9999539852142334
75	396.2398200035095	pulse	0	t		73.0	2.5	/experiments/AOT/AOT_stimuli/rescaled_final/1135_fw.mp4	0.0	418.4762601852417	
75	396.6563518047333	movie	1		245	73.0	2.5	/experiments/AOT/AOT_stimuli/rescaled_final/1135_fw.mp4	0.0	418.89279198646545	2.4999589920043945
75	397.8398859500885	pulse	1	t		73.0	2.5	/experiments/AOT/AOT_stimuli/rescaled_final/1135_fw.mp4	0.0	420.0763261318207	
75	399.15631079673767	fix_post	2		12	73.0	2.5	/experiments/AOT/AOT_stimuli/rescaled_final/1135_fw.mp4	0.0	421.39275097846985	0.10004019737243652
76	399.2563509941101	fix_pre	0		120	74.0	2.5	/experiments/AOT/AOT_stimuli/rescaled_final/2139_rv.mp4	0.0	421.4927911758423	0.9999969005584717
76	399.43976402282715	pulse	0	t		74.0	2.5	/experiments/AOT/AOT_stimuli/rescaled_final/2139_rv.mp4	0.0	421.6762042045593	
76	400.2563478946686	movie	1		242	74.0	2.5	/experiments/AOT/AOT_stimuli/rescaled_final/2139_rv.mp4	0.0	422.49278807640076	2.4999849796295166
76	401.0398299694061	pulse	1	t		74.0	2.5	/experiments/AOT/AOT_stimuli/rescaled_final/2139_rv.mp4	0.0	423.2762701511383	
76	402.6385428905487	pulse	1	t		74.0	2.5	/experiments/AOT/AOT_stimuli/rescaled_final/2139_rv.mp4	0.0	424.8749830722809	
76	402.7563328742981	fix_post	2		12	74.0	2.5	/experiments/AOT/AOT_stimuli/rescaled_final/2139_rv.mp4	0.0	424.9927730560303	0.09991598129272461
77	402.8562488555908	fix_pre	0		120	75.0	2.5	/experiments/AOT/AOT_stimuli/rescaled_final/0567_fw.mp4	0.0	425.092689037323	1.0000360012054443
77	403.85628485679626	movie	1		246	75.0	2.5	/experiments/AOT/AOT_stimuli/rescaled_final/0567_fw.mp4	0.0	426.09272503852844	2.4999630451202393
77	404.24060583114624	pulse	1	t		75.0	2.5	/experiments/AOT/AOT_stimuli/rescaled_final/0567_fw.mp4	0.0	426.4770460128784	
77	405.8397958278656	pulse	1	t		75.0	2.5	/experiments/AOT/AOT_stimuli/rescaled_final/0567_fw.mp4	0.0	428.0762360095978	
77	406.3562479019165	fix_post	2		12	75.0	2.5	/experiments/AOT/AOT_stimuli/rescaled_final/0567_fw.mp4	0.0	428.5926880836487	0.10003089904785156
78	406.45627880096436	fix_pre	0		119	76.0	2.5	/experiments/AOT/AOT_stimuli/rescaled_final/2155_rv.mp4	0.0	428.69271898269653	0.9916090965270996
78	407.43980383872986	pulse	0	t		76.0	2.5	/experiments/AOT/AOT_stimuli/rescaled_final/2155_rv.mp4	0.0	429.67624402046204	
78	407.44788789749146	movie	1		246	76.0	2.5	/experiments/AOT/AOT_stimuli/rescaled_final/2155_rv.mp4	0.0	429.68432807922363	2.508368968963623
78	409.03932881355286	pulse	1	t		76.0	2.5	/experiments/AOT/AOT_stimuli/rescaled_final/2155_rv.mp4	0.0	431.27576899528503	
78	409.9562568664551	fix_post	2		12	76.0	2.5	/experiments/AOT/AOT_stimuli/rescaled_final/2155_rv.mp4	0.0	432.19269704818726	0.10005402565002441
79	410.0563108921051	fix_pre	0		120	77.0	2.5	blank	1.0	432.2927510738373	0.9999380111694336
79	410.63977789878845	pulse	0	t		77.0	2.5	blank	1.0	432.87621808052063	
79	411.05624890327454	movie	1		300	77.0	2.5	blank	1.0	433.2926890850067	2.4999430179595947
79	412.23979687690735	pulse	1	t		77.0	2.5	blank	1.0	434.4762370586395	
79	413.55619192123413	fix_post	2		12	77.0	2.5	blank	1.0	435.7926321029663	0.10009598731994629
80	413.6562879085541	fix_pre	0		120	78.0	2.5	/experiments/AOT/AOT_stimuli/rescaled_final/1527_fw.mp4	0.0	435.89272809028625	0.9999539852142334
80	413.83975195884705	pulse	0	t		78.0	2.5	/experiments/AOT/AOT_stimuli/rescaled_final/1527_fw.mp4	0.0	436.0761921405792	
80	414.6562418937683	movie	1		248	78.0	2.5	/experiments/AOT/AOT_stimuli/rescaled_final/1527_fw.mp4	0.0	436.8926820755005	2.500072956085205
80	415.4397428035736	pulse	1	t		78.0	2.5	/experiments/AOT/AOT_stimuli/rescaled_final/1527_fw.mp4	0.0	437.6761829853058	
80	417.039794921875	pulse	1	t		78.0	2.5	/experiments/AOT/AOT_stimuli/rescaled_final/1527_fw.mp4	0.0	439.2762351036072	
80	417.1563148498535	fix_post	2		12	78.0	2.5	/experiments/AOT/AOT_stimuli/rescaled_final/1527_fw.mp4	0.0	439.3927550315857	0.09990215301513672
81	417.25621700286865	fix_pre	0		120	79.0	2.5	/experiments/AOT/AOT_stimuli/rescaled_final/0764_fw.mp4	0.0	439.49265718460083	1.0000720024108887
81	418.25628900527954	movie	1		244	79.0	2.5	/experiments/AOT/AOT_stimuli/rescaled_final/0764_fw.mp4	0.0	440.4927291870117	2.4999358654022217
81	418.6395888328552	pulse	1	t		79.0	2.5	/experiments/AOT/AOT_stimuli/rescaled_final/0764_fw.mp4	0.0	440.8760290145874	
81	420.23973989486694	pulse	1	t		79.0	2.5	/experiments/AOT/AOT_stimuli/rescaled_final/0764_fw.mp4	0.0	442.4761800765991	
81	420.75622487068176	fix_post	2		12	79.0	2.5	/experiments/AOT/AOT_stimuli/rescaled_final/0764_fw.mp4	0.0	442.99266505241394	0.09997200965881348
82	420.8561968803406	fix_pre	0		118	80.0	2.5	/experiments/AOT/AOT_stimuli/rescaled_final/1956_fw.mp4	0.0	443.09263706207275	0.9917740821838379
82	421.839802980423	pulse	0	t		80.0	2.5	/experiments/AOT/AOT_stimuli/rescaled_final/1956_fw.mp4	0.0	444.07624316215515	
82	421.8479709625244	movie	1		244	80.0	2.5	/experiments/AOT/AOT_stimuli/rescaled_final/1956_fw.mp4	0.0	444.0844111442566	2.5081629753112793
82	423.439181804657	pulse	1	t		80.0	2.5	/experiments/AOT/AOT_stimuli/rescaled_final/1956_fw.mp4	0.0	445.67562198638916	
82	424.3561339378357	fix_post	2		12	80.0	2.5	/experiments/AOT/AOT_stimuli/rescaled_final/1956_fw.mp4	0.0	446.59257411956787	0.09996986389160156
83	424.4561038017273	fix_pre	0		120	81.0	2.5	/experiments/AOT/AOT_stimuli/rescaled_final/0157_fw.mp4	0.0	446.6925439834595	1.0000431537628174
83	425.03964495658875	pulse	0	t		81.0	2.5	/experiments/AOT/AOT_stimuli/rescaled_final/0157_fw.mp4	0.0	447.2760851383209	
83	425.4561469554901	movie	1		243	81.0	2.5	/experiments/AOT/AOT_stimuli/rescaled_final/0157_fw.mp4	0.0	447.6925871372223	2.50004506111145
83	426.6397638320923	pulse	1	t		81.0	2.5	/experiments/AOT/AOT_stimuli/rescaled_final/0157_fw.mp4	0.0	448.87620401382446	
83	427.95619201660156	fix_post	2		12	81.0	2.5	/experiments/AOT/AOT_stimuli/rescaled_final/0157_fw.mp4	0.0	450.19263219833374	0.09999990463256836
84	428.05619192123413	fix_pre	0		120	82.0	2.5	blank	1.0	450.2926321029663	0.9999189376831055
84	428.2396149635315	pulse	0	t		82.0	2.5	blank	1.0	450.4760551452637	
84	429.05611085891724	movie	1		300	82.0	2.5	blank	1.0	451.2925510406494	2.5001220703125
84	429.839567899704	pulse	1	t		82.0	2.5	blank	1.0	452.07600808143616	
84	431.43924498558044	pulse	1	t		82.0	2.5	blank	1.0	453.6756851673126	
84	431.55623292922974	fix_post	2		12	82.0	2.5	blank	1.0	453.7926731109619	0.09997200965881348
85	431.65620493888855	fix_pre	0		120	83.0	2.5	/experiments/AOT/AOT_stimuli/rescaled_final/1444_fw.mp4	0.0	453.8926451206207	0.9996778964996338
85	432.6558828353882	movie	1		244	83.0	2.5	/experiments/AOT/AOT_stimuli/rescaled_final/1444_fw.mp4	0.0	454.89232301712036	2.500293016433716
85	433.03968691825867	pulse	1	t		83.0	2.5	/experiments/AOT/AOT_stimuli/rescaled_final/1444_fw.mp4	0.0	455.27612709999084	
85	434.6400349140167	pulse	1	t		83.0	2.5	/experiments/AOT/AOT_stimuli/rescaled_final/1444_fw.mp4	0.0	456.8764750957489	
85	435.1561758518219	fix_post	2		12	83.0	2.5	/experiments/AOT/AOT_stimuli/rescaled_final/1444_fw.mp4	0.0	457.3926160335541	0.10002398490905762
87	435.25619983673096	stim	0		1716					457.49264001846313	14.299932956695557
87	436.23963689804077	pulse	0	t						458.47607707977295	
87	437.83967185020447	pulse	0	t						460.07611203193665	
87	439.43943786621094	pulse	0	t						461.6758780479431	
87	441.0395498275757	pulse	0	t						463.27599000930786	
87	442.6395378112793	pulse	0	t						464.8759779930115	
87	444.23950481414795	pulse	0	t						466.4759449958801	
87	445.83952593803406	pulse	0	t						468.07596611976624	
87	447.4394688606262	pulse	0	t						469.6759090423584	
87	449.03957891464233	pulse	0	t						471.2760190963745	
