trial_nr	onset	event_type	phase	response	nr_frames	movie_index	movie_duration	movie_file	blank	onset_abs	duration
0	0.17501068115234375	stim	0		40					21.645635843276978	0.3330850601196289
0	0.49256396293640137	response	0	space						21.963189125061035	
1	0.5080957412719727	stim	0		4535					21.978720903396606	37.810219049453735
1	38.303624868392944	pulse	0	t						59.77425003051758	
1	38.31831479072571	stim	1		1714					59.78893995285034	14.297628164291382
1	39.89753198623657	pulse	1	t						61.368157148361206	
1	41.49790024757385	pulse	1	t						62.968525409698486	
1	43.09809637069702	pulse	1	t						64.56872153282166	
1	44.69863963127136	pulse	1	t						66.169264793396	
1	46.2985897064209	pulse	1	t						67.76921486854553	
1	47.898778200149536	pulse	1	t						69.36940336227417	
1	49.498976707458496	pulse	1	t						70.96960186958313	
1	51.09925961494446	pulse	1	t						72.56988477706909	
2	52.61594295501709	fix_pre	0		11	0.0	2.5	/experiments/Knapen_AOT/AOT_stimuli/rescaled_final/1061_fw.mp4	0.0	74.08656811714172	0.10839581489562988
2	52.69945454597473	pulse	0	t		0.0	2.5	/experiments/Knapen_AOT/AOT_stimuli/rescaled_final/1061_fw.mp4	0.0	74.17007970809937	
2	52.72433876991272	movie	1		283	0.0	2.5	/experiments/Knapen_AOT/AOT_stimuli/rescaled_final/1061_fw.mp4	0.0	74.19496393203735	2.492018938064575
2	54.299763441085815	pulse	1	t		0.0	2.5	/experiments/Knapen_AOT/AOT_stimuli/rescaled_final/1061_fw.mp4	0.0	75.77038860321045	
2	55.216357707977295	fix_post	2		12	0.0	2.5	/experiments/Knapen_AOT/AOT_stimuli/rescaled_final/1061_fw.mp4	0.0	76.68698287010193	0.10004520416259766
3	55.31640291213989	fix_pre	0		120	1.0	2.5	/experiments/Knapen_AOT/AOT_stimuli/rescaled_final/1116_rv.mp4	0.0	76.78702807426453	1.0085554122924805
3	55.89245963096619	pulse	0	t		1.0	2.5	/experiments/Knapen_AOT/AOT_stimuli/rescaled_final/1116_rv.mp4	0.0	77.36308479309082	
3	56.32495832443237	movie	1		284	1.0	2.5	/experiments/Knapen_AOT/AOT_stimuli/rescaled_final/1116_rv.mp4	0.0	77.795583486557	2.4919042587280273
3	57.498218059539795	pulse	1	t		1.0	2.5	/experiments/Knapen_AOT/AOT_stimuli/rescaled_final/1116_rv.mp4	0.0	78.96884322166443	
3	58.8168625831604	fix_post	2		12	1.0	2.5	/experiments/Knapen_AOT/AOT_stimuli/rescaled_final/1116_rv.mp4	0.0	80.28748774528503	0.10002875328063965
4	58.91689133644104	fix_pre	0		120	2.0	2.5	/experiments/Knapen_AOT/AOT_stimuli/rescaled_final/0965_rv.mp4	0.0	80.38751649856567	1.008488655090332
4	59.09283113479614	pulse	0	t		2.0	2.5	/experiments/Knapen_AOT/AOT_stimuli/rescaled_final/0965_rv.mp4	0.0	80.56345629692078	
4	59.92537999153137	movie	1		276	2.0	2.5	/experiments/Knapen_AOT/AOT_stimuli/rescaled_final/0965_rv.mp4	0.0	81.396005153656	2.4920575618743896
4	60.692893505096436	pulse	1	t		2.0	2.5	/experiments/Knapen_AOT/AOT_stimuli/rescaled_final/0965_rv.mp4	0.0	82.16351866722107	
4	62.292805433273315	pulse	1	t		2.0	2.5	/experiments/Knapen_AOT/AOT_stimuli/rescaled_final/0965_rv.mp4	0.0	83.76343059539795	
4	62.41743755340576	fix_post	2		12	2.0	2.5	/experiments/Knapen_AOT/AOT_stimuli/rescaled_final/0965_rv.mp4	0.0	83.8880627155304	0.0999748706817627
5	62.517412424087524	fix_pre	0		120	3.0	2.5	/experiments/Knapen_AOT/AOT_stimuli/rescaled_final/0747_rv.mp4	0.0	83.98803758621216	1.0085225105285645
5	63.52593493461609	movie	1		270	3.0	2.5	/experiments/Knapen_AOT/AOT_stimuli/rescaled_final/0747_rv.mp4	0.0	84.99656009674072	2.4920241832733154
5	63.89274573326111	pulse	1	t		3.0	2.5	/experiments/Knapen_AOT/AOT_stimuli/rescaled_final/0747_rv.mp4	0.0	85.36337089538574	
5	65.49308848381042	pulse	1	t		3.0	2.5	/experiments/Knapen_AOT/AOT_stimuli/rescaled_final/0747_rv.mp4	0.0	86.96371364593506	
5	66.0179591178894	fix_post	2		12	3.0	2.5	/experiments/Knapen_AOT/AOT_stimuli/rescaled_final/0747_rv.mp4	0.0	87.48858428001404	0.1000206470489502
6	66.11797976493835	fix_pre	0		118	4.0	2.5	/experiments/Knapen_AOT/AOT_stimuli/rescaled_final/0902_fw.mp4	0.0	87.58860492706299	0.9918098449707031
6	67.09335136413574	pulse	0	t		4.0	2.5	/experiments/Knapen_AOT/AOT_stimuli/rescaled_final/0902_fw.mp4	0.0	88.56397652626038	
6	67.10978960990906	movie	1		287	4.0	2.5	/experiments/Knapen_AOT/AOT_stimuli/rescaled_final/0902_fw.mp4	0.0	88.58041477203369	2.500359296798706
6	68.69369292259216	pulse	1	t		4.0	2.5	/experiments/Knapen_AOT/AOT_stimuli/rescaled_final/0902_fw.mp4	0.0	90.1643180847168	
6	69.61014890670776	fix_post	2		12	4.0	2.5	/experiments/Knapen_AOT/AOT_stimuli/rescaled_final/0902_fw.mp4	0.0	91.0807740688324	0.10003161430358887
7	69.71018052101135	fix_pre	0		120	5.0	2.5	blank	1.0	91.18080568313599	1.0001416206359863
7	70.29382419586182	pulse	0	t		5.0	2.5	blank	1.0	91.76444935798645	
7	70.71032214164734	movie	1		300	5.0	2.5	blank	1.0	92.18094730377197	2.5003671646118164
7	71.89422535896301	pulse	1	t		5.0	2.5	blank	1.0	93.36485052108765	
7	73.21068930625916	fix_post	2		12	5.0	2.5	blank	1.0	94.68131446838379	0.10016989707946777
8	73.31085920333862	fix_pre	0		120	6.0	2.5	/experiments/Knapen_AOT/AOT_stimuli/rescaled_final/1277_rv.mp4	0.0	94.78148436546326	1.008366584777832
8	73.49429273605347	pulse	0	t		6.0	2.5	/experiments/Knapen_AOT/AOT_stimuli/rescaled_final/1277_rv.mp4	0.0	94.9649178981781	
8	74.31922578811646	movie	1		276	6.0	2.5	/experiments/Knapen_AOT/AOT_stimuli/rescaled_final/1277_rv.mp4	0.0	95.78985095024109	2.492017984390259
8	75.09271717071533	pulse	1	t		6.0	2.5	/experiments/Knapen_AOT/AOT_stimuli/rescaled_final/1277_rv.mp4	0.0	96.56334233283997	
8	76.6929018497467	pulse	1	t		6.0	2.5	/experiments/Knapen_AOT/AOT_stimuli/rescaled_final/1277_rv.mp4	0.0	98.16352701187134	
8	76.81124377250671	fix_post	2		12	6.0	2.5	/experiments/Knapen_AOT/AOT_stimuli/rescaled_final/1277_rv.mp4	0.0	98.28186893463135	0.10002803802490234
9	76.91127181053162	fix_pre	0		120	7.0	2.5	/experiments/Knapen_AOT/AOT_stimuli/rescaled_final/1829_fw.mp4	0.0	98.38189697265625	1.0084691047668457
9	77.91974091529846	movie	1		272	7.0	2.5	/experiments/Knapen_AOT/AOT_stimuli/rescaled_final/1829_fw.mp4	0.0	99.3903660774231	2.4920692443847656
9	78.29364013671875	pulse	1	t		7.0	2.5	/experiments/Knapen_AOT/AOT_stimuli/rescaled_final/1829_fw.mp4	0.0	99.76426529884338	
9	79.89395093917847	pulse	1	t		7.0	2.5	/experiments/Knapen_AOT/AOT_stimuli/rescaled_final/1829_fw.mp4	0.0	101.3645761013031	
9	80.41181015968323	fix_post	2		12	7.0	2.5	/experiments/Knapen_AOT/AOT_stimuli/rescaled_final/1829_fw.mp4	0.0	101.88243532180786	0.10001468658447266
10	80.5118248462677	fix_pre	0		119	8.0	2.5	/experiments/Knapen_AOT/AOT_stimuli/rescaled_final/1705_rv.mp4	0.0	101.98245000839233	1.0002236366271973
10	81.4954514503479	pulse	0	t		8.0	2.5	/experiments/Knapen_AOT/AOT_stimuli/rescaled_final/1705_rv.mp4	0.0	102.96607661247253	
10	81.5120484828949	movie	1		284	8.0	2.5	/experiments/Knapen_AOT/AOT_stimuli/rescaled_final/1705_rv.mp4	0.0	102.98267364501953	2.500282049179077
10	83.09414315223694	pulse	1	t		8.0	2.5	/experiments/Knapen_AOT/AOT_stimuli/rescaled_final/1705_rv.mp4	0.0	104.56476831436157	
10	84.01233053207397	fix_post	2		12	8.0	2.5	/experiments/Knapen_AOT/AOT_stimuli/rescaled_final/1705_rv.mp4	0.0	105.48295569419861	0.10003113746643066
11	84.1123616695404	fix_pre	0		120	9.0	2.5	/experiments/Knapen_AOT/AOT_stimuli/rescaled_final/0754_fw.mp4	0.0	105.58298683166504	1.0084590911865234
11	84.69628167152405	pulse	0	t		9.0	2.5	/experiments/Knapen_AOT/AOT_stimuli/rescaled_final/0754_fw.mp4	0.0	106.16690683364868	
11	85.12082076072693	movie	1		286	9.0	2.5	/experiments/Knapen_AOT/AOT_stimuli/rescaled_final/0754_fw.mp4	0.0	106.59144592285156	2.492055892944336
11	86.29434084892273	pulse	1	t		9.0	2.5	/experiments/Knapen_AOT/AOT_stimuli/rescaled_final/0754_fw.mp4	0.0	107.76496601104736	
11	87.61287665367126	fix_post	2		12	9.0	2.5	/experiments/Knapen_AOT/AOT_stimuli/rescaled_final/0754_fw.mp4	0.0	109.0835018157959	0.10002374649047852
12	87.71290040016174	fix_pre	0		120	10.0	2.5	/experiments/Knapen_AOT/AOT_stimuli/rescaled_final/1100_fw.mp4	0.0	109.18352556228638	1.008497714996338
12	87.89671277999878	pulse	0	t		10.0	2.5	/experiments/Knapen_AOT/AOT_stimuli/rescaled_final/1100_fw.mp4	0.0	109.36733794212341	
12	88.72139811515808	movie	1		268	10.0	2.5	/experiments/Knapen_AOT/AOT_stimuli/rescaled_final/1100_fw.mp4	0.0	110.19202327728271	2.492008686065674
12	89.49488377571106	pulse	1	t		10.0	2.5	/experiments/Knapen_AOT/AOT_stimuli/rescaled_final/1100_fw.mp4	0.0	110.9655089378357	
12	91.09634470939636	pulse	1	t		10.0	2.5	/experiments/Knapen_AOT/AOT_stimuli/rescaled_final/1100_fw.mp4	0.0	112.566969871521	
12	91.21340680122375	fix_post	2		12	10.0	2.5	/experiments/Knapen_AOT/AOT_stimuli/rescaled_final/1100_fw.mp4	0.0	112.68403196334839	0.10007786750793457
13	91.31348466873169	fix_pre	0		120	11.0	2.5	/experiments/Knapen_AOT/AOT_stimuli/rescaled_final/1983_fw.mp4	0.0	112.78410983085632	1.0084497928619385
13	92.32193446159363	movie	1		282	11.0	2.5	/experiments/Knapen_AOT/AOT_stimuli/rescaled_final/1983_fw.mp4	0.0	113.79255962371826	2.4920494556427
13	92.6970489025116	pulse	1	t		11.0	2.5	/experiments/Knapen_AOT/AOT_stimuli/rescaled_final/1983_fw.mp4	0.0	114.16767406463623	
13	94.29538202285767	pulse	1	t		11.0	2.5	/experiments/Knapen_AOT/AOT_stimuli/rescaled_final/1983_fw.mp4	0.0	115.7660071849823	
13	94.81398391723633	fix_post	2		12	11.0	2.5	/experiments/Knapen_AOT/AOT_stimuli/rescaled_final/1983_fw.mp4	0.0	116.28460907936096	0.09998798370361328
14	94.91397190093994	fix_pre	0		119	12.0	2.5	/experiments/Knapen_AOT/AOT_stimuli/rescaled_final/0563_fw.mp4	0.0	116.38459706306458	1.000293254852295
14	95.89764833450317	pulse	0	t		12.0	2.5	/experiments/Knapen_AOT/AOT_stimuli/rescaled_final/0563_fw.mp4	0.0	117.36827349662781	
14	95.91426515579224	movie	1		271	12.0	2.5	/experiments/Knapen_AOT/AOT_stimuli/rescaled_final/0563_fw.mp4	0.0	117.38489031791687	2.500253200531006
14	97.4962375164032	pulse	1	t		12.0	2.5	/experiments/Knapen_AOT/AOT_stimuli/rescaled_final/0563_fw.mp4	0.0	118.96686267852783	
14	98.41451835632324	fix_post	2		12	12.0	2.5	/experiments/Knapen_AOT/AOT_stimuli/rescaled_final/0563_fw.mp4	0.0	119.88514351844788	0.09999299049377441
15	98.51451134681702	fix_pre	0		120	13.0	2.5	/experiments/Knapen_AOT/AOT_stimuli/rescaled_final/0528_fw.mp4	0.0	119.98513650894165	1.0085785388946533
15	99.09813570976257	pulse	0	t		13.0	2.5	/experiments/Knapen_AOT/AOT_stimuli/rescaled_final/0528_fw.mp4	0.0	120.5687608718872	
15	99.52308988571167	movie	1		275	13.0	2.5	/experiments/Knapen_AOT/AOT_stimuli/rescaled_final/0528_fw.mp4	0.0	120.9937150478363	2.4919750690460205
15	100.6963562965393	pulse	1	t		13.0	2.5	/experiments/Knapen_AOT/AOT_stimuli/rescaled_final/0528_fw.mp4	0.0	122.16698145866394	
15	102.01506495475769	fix_post	2		12	13.0	2.5	/experiments/Knapen_AOT/AOT_stimuli/rescaled_final/0528_fw.mp4	0.0	123.48569011688232	0.10000085830688477
16	102.11506581306458	fix_pre	0		120	14.0	2.5	blank	1.0	123.58569097518921	1.000138759613037
16	102.29904675483704	pulse	0	t		14.0	2.5	blank	1.0	123.76967191696167	
16	103.11520457267761	movie	1		300	14.0	2.5	blank	1.0	124.58582973480225	2.5003650188446045
16	103.89917874336243	pulse	1	t		14.0	2.5	blank	1.0	125.36980390548706	
16	105.49199771881104	pulse	1	t		14.0	2.5	blank	1.0	126.96262288093567	
16	105.61556959152222	fix_post	2		12	14.0	2.5	blank	1.0	127.08619475364685	0.10001540184020996
17	105.71558499336243	fix_pre	0		120	15.0	2.5	/experiments/Knapen_AOT/AOT_stimuli/rescaled_final/1092_rv.mp4	0.0	127.18621015548706	1.0085492134094238
17	106.72413420677185	movie	1		277	15.0	2.5	/experiments/Knapen_AOT/AOT_stimuli/rescaled_final/1092_rv.mp4	0.0	128.19475936889648	2.4919896125793457
17	107.09783840179443	pulse	1	t		15.0	2.5	/experiments/Knapen_AOT/AOT_stimuli/rescaled_final/1092_rv.mp4	0.0	128.56846356391907	
17	108.69863224029541	pulse	1	t		15.0	2.5	/experiments/Knapen_AOT/AOT_stimuli/rescaled_final/1092_rv.mp4	0.0	130.16925740242004	
17	109.2161238193512	fix_post	2		12	15.0	2.5	/experiments/Knapen_AOT/AOT_stimuli/rescaled_final/1092_rv.mp4	0.0	130.68674898147583	0.10003376007080078
18	109.316157579422	fix_pre	0		119	16.0	2.5	/experiments/Knapen_AOT/AOT_stimuli/rescaled_final/1179_fw.mp4	0.0	130.78678274154663	1.0001306533813477
18	110.29193067550659	pulse	0	t		16.0	2.5	/experiments/Knapen_AOT/AOT_stimuli/rescaled_final/1179_fw.mp4	0.0	131.76255583763123	
18	110.31628823280334	movie	1		281	16.0	2.5	/experiments/Knapen_AOT/AOT_stimuli/rescaled_final/1179_fw.mp4	0.0	131.78691339492798	2.500373363494873
18	111.89205884933472	pulse	1	t		16.0	2.5	/experiments/Knapen_AOT/AOT_stimuli/rescaled_final/1179_fw.mp4	0.0	133.36268401145935	
18	112.81666159629822	fix_post	2		12	16.0	2.5	/experiments/Knapen_AOT/AOT_stimuli/rescaled_final/1179_fw.mp4	0.0	134.28728675842285	0.1000361442565918
19	112.91669774055481	fix_pre	0		120	17.0	2.5	/experiments/Knapen_AOT/AOT_stimuli/rescaled_final/0758_rv.mp4	0.0	134.38732290267944	1.00848388671875
19	113.49231195449829	pulse	0	t		17.0	2.5	/experiments/Knapen_AOT/AOT_stimuli/rescaled_final/0758_rv.mp4	0.0	134.96293711662292	
19	113.92518162727356	movie	1		285	17.0	2.5	/experiments/Knapen_AOT/AOT_stimuli/rescaled_final/0758_rv.mp4	0.0	135.3958067893982	2.492023468017578
19	115.09237456321716	pulse	1	t		17.0	2.5	/experiments/Knapen_AOT/AOT_stimuli/rescaled_final/0758_rv.mp4	0.0	136.5629997253418	
19	116.41720509529114	fix_post	2		12	17.0	2.5	/experiments/Knapen_AOT/AOT_stimuli/rescaled_final/0758_rv.mp4	0.0	137.88783025741577	0.10000777244567871
20	116.51721286773682	fix_pre	0		120	18.0	2.5	/experiments/Knapen_AOT/AOT_stimuli/rescaled_final/0637_rv.mp4	0.0	137.98783802986145	1.0085291862487793
20	116.69252252578735	pulse	0	t		18.0	2.5	/experiments/Knapen_AOT/AOT_stimuli/rescaled_final/0637_rv.mp4	0.0	138.163147687912	
20	117.5257420539856	movie	1		275	18.0	2.5	/experiments/Knapen_AOT/AOT_stimuli/rescaled_final/0637_rv.mp4	0.0	138.99636721611023	2.491997718811035
20	118.29282188415527	pulse	1	t		18.0	2.5	/experiments/Knapen_AOT/AOT_stimuli/rescaled_final/0637_rv.mp4	0.0	139.7634470462799	
20	119.89292216300964	pulse	1	t		18.0	2.5	/experiments/Knapen_AOT/AOT_stimuli/rescaled_final/0637_rv.mp4	0.0	141.36354732513428	
20	120.01773977279663	fix_post	2		12	18.0	2.5	/experiments/Knapen_AOT/AOT_stimuli/rescaled_final/0637_rv.mp4	0.0	141.48836493492126	0.10002803802490234
21	120.11776781082153	fix_pre	0		120	19.0	2.5	/experiments/Knapen_AOT/AOT_stimuli/rescaled_final/1033_rv.mp4	0.0	141.58839297294617	1.0086045265197754
21	121.12637233734131	movie	1		284	19.0	2.5	/experiments/Knapen_AOT/AOT_stimuli/rescaled_final/1033_rv.mp4	0.0	142.59699749946594	2.491922616958618
21	121.4932336807251	pulse	1	t		19.0	2.5	/experiments/Knapen_AOT/AOT_stimuli/rescaled_final/1033_rv.mp4	0.0	142.96385884284973	
21	123.09339332580566	pulse	1	t		19.0	2.5	/experiments/Knapen_AOT/AOT_stimuli/rescaled_final/1033_rv.mp4	0.0	144.5640184879303	
21	123.61829495429993	fix_post	2		12	19.0	2.5	/experiments/Knapen_AOT/AOT_stimuli/rescaled_final/1033_rv.mp4	0.0	145.08892011642456	0.10000848770141602
22	123.71830344200134	fix_pre	0		118	20.0	2.5	blank	1.0	145.18892860412598	0.9834647178649902
22	124.6936342716217	pulse	0	t		20.0	2.5	blank	1.0	146.16425943374634	
22	124.70176815986633	movie	1		301	20.0	2.5	blank	1.0	146.17239332199097	2.508741617202759
22	126.294198513031	pulse	1	t		20.0	2.5	blank	1.0	147.76482367515564	
22	127.21050977706909	fix_post	2		12	20.0	2.5	blank	1.0	148.68113493919373	0.10000967979431152
23	127.3105194568634	fix_pre	0		120	21.0	2.5	/experiments/Knapen_AOT/AOT_stimuli/rescaled_final/1137_rv.mp4	0.0	148.78114461898804	1.0084969997406006
23	127.89415836334229	pulse	0	t		21.0	2.5	/experiments/Knapen_AOT/AOT_stimuli/rescaled_final/1137_rv.mp4	0.0	149.36478352546692	
23	128.319016456604	movie	1		272	21.0	2.5	/experiments/Knapen_AOT/AOT_stimuli/rescaled_final/1137_rv.mp4	0.0	149.78964161872864	2.4920456409454346
23	129.49516701698303	pulse	1	t		21.0	2.5	/experiments/Knapen_AOT/AOT_stimuli/rescaled_final/1137_rv.mp4	0.0	150.96579217910767	
23	130.81106209754944	fix_post	2		12	21.0	2.5	/experiments/Knapen_AOT/AOT_stimuli/rescaled_final/1137_rv.mp4	0.0	152.28168725967407	0.10002303123474121
24	130.91108512878418	fix_pre	0		120	22.0	2.5	/experiments/Knapen_AOT/AOT_stimuli/rescaled_final/0069_rv.mp4	0.0	152.3817102909088	1.0084748268127441
24	131.09463739395142	pulse	0	t		22.0	2.5	/experiments/Knapen_AOT/AOT_stimuli/rescaled_final/0069_rv.mp4	0.0	152.56526255607605	
24	131.91955995559692	movie	1		289	22.0	2.5	/experiments/Knapen_AOT/AOT_stimuli/rescaled_final/0069_rv.mp4	0.0	153.39018511772156	2.4920310974121094
24	132.69288873672485	pulse	1	t		22.0	2.5	/experiments/Knapen_AOT/AOT_stimuli/rescaled_final/0069_rv.mp4	0.0	154.1635138988495	
24	134.2933702468872	pulse	1	t		22.0	2.5	/experiments/Knapen_AOT/AOT_stimuli/rescaled_final/0069_rv.mp4	0.0	155.76399540901184	
24	134.41159105300903	fix_post	2		12	22.0	2.5	/experiments/Knapen_AOT/AOT_stimuli/rescaled_final/0069_rv.mp4	0.0	155.88221621513367	0.10000419616699219
25	134.51159524917603	fix_pre	0		120	23.0	2.5	/experiments/Knapen_AOT/AOT_stimuli/rescaled_final/0593_rv.mp4	0.0	155.98222041130066	1.0085108280181885
25	135.5201060771942	movie	1		290	23.0	2.5	/experiments/Knapen_AOT/AOT_stimuli/rescaled_final/0593_rv.mp4	0.0	156.99073123931885	2.4920313358306885
25	135.89411425590515	pulse	1	t		23.0	2.5	/experiments/Knapen_AOT/AOT_stimuli/rescaled_final/0593_rv.mp4	0.0	157.36473941802979	
25	137.49345088005066	pulse	1	t		23.0	2.5	/experiments/Knapen_AOT/AOT_stimuli/rescaled_final/0593_rv.mp4	0.0	158.9640760421753	
25	138.0121374130249	fix_post	2		12	23.0	2.5	/experiments/Knapen_AOT/AOT_stimuli/rescaled_final/0593_rv.mp4	0.0	159.48276257514954	0.09999442100524902
26	138.11213183403015	fix_pre	0		119	24.0	2.5	/experiments/Knapen_AOT/AOT_stimuli/rescaled_final/1348_fw.mp4	0.0	159.58275699615479	1.0001716613769531
26	139.0958333015442	pulse	0	t		24.0	2.5	/experiments/Knapen_AOT/AOT_stimuli/rescaled_final/1348_fw.mp4	0.0	160.56645846366882	
26	139.1123034954071	movie	1		292	24.0	2.5	/experiments/Knapen_AOT/AOT_stimuli/rescaled_final/1348_fw.mp4	0.0	160.58292865753174	2.5003726482391357
26	140.69477605819702	pulse	1	t		24.0	2.5	/experiments/Knapen_AOT/AOT_stimuli/rescaled_final/1348_fw.mp4	0.0	162.16540122032166	
26	141.61267614364624	fix_post	2		12	24.0	2.5	/experiments/Knapen_AOT/AOT_stimuli/rescaled_final/1348_fw.mp4	0.0	163.08330130577087	0.10000348091125488
27	141.7126796245575	fix_pre	0		120	25.0	2.5	/experiments/Knapen_AOT/AOT_stimuli/rescaled_final/1992_rv.mp4	0.0	163.18330478668213	1.0084807872772217
27	142.29626727104187	pulse	0	t		25.0	2.5	/experiments/Knapen_AOT/AOT_stimuli/rescaled_final/1992_rv.mp4	0.0	163.7668924331665	
27	142.72116041183472	movie	1		272	25.0	2.5	/experiments/Knapen_AOT/AOT_stimuli/rescaled_final/1992_rv.mp4	0.0	164.19178557395935	2.492037296295166
27	143.89458394050598	pulse	1	t		25.0	2.5	/experiments/Knapen_AOT/AOT_stimuli/rescaled_final/1992_rv.mp4	0.0	165.36520910263062	
27	145.21319770812988	fix_post	2		12	25.0	2.5	/experiments/Knapen_AOT/AOT_stimuli/rescaled_final/1992_rv.mp4	0.0	166.68382287025452	0.10002303123474121
28	145.31322073936462	fix_pre	0		120	26.0	2.5	/experiments/Knapen_AOT/AOT_stimuli/rescaled_final/0177_fw.mp4	0.0	166.78384590148926	1.0084829330444336
28	145.49679684638977	pulse	0	t		26.0	2.5	/experiments/Knapen_AOT/AOT_stimuli/rescaled_final/0177_fw.mp4	0.0	166.9674220085144	
28	146.32170367240906	movie	1		273	26.0	2.5	/experiments/Knapen_AOT/AOT_stimuli/rescaled_final/0177_fw.mp4	0.0	167.7923288345337	2.492048740386963
28	147.0951864719391	pulse	1	t		26.0	2.5	/experiments/Knapen_AOT/AOT_stimuli/rescaled_final/0177_fw.mp4	0.0	168.56581163406372	
28	148.69928002357483	pulse	1	t		26.0	2.5	/experiments/Knapen_AOT/AOT_stimuli/rescaled_final/0177_fw.mp4	0.0	170.16990518569946	
28	148.81375241279602	fix_post	2		12	26.0	2.5	/experiments/Knapen_AOT/AOT_stimuli/rescaled_final/0177_fw.mp4	0.0	170.28437757492065	0.10001063346862793
29	148.91376304626465	fix_pre	0		120	27.0	2.5	blank	1.0	170.38438820838928	1.0002026557922363
29	149.91396570205688	movie	1		300	27.0	2.5	blank	1.0	171.38459086418152	2.5003068447113037
29	150.2977204322815	pulse	1	t		27.0	2.5	blank	1.0	171.76834559440613	
29	151.89771795272827	pulse	1	t		27.0	2.5	blank	1.0	173.3683431148529	
29	152.4142725467682	fix_post	2		12	27.0	2.5	blank	1.0	173.88489770889282	0.10004615783691406
30	152.5143187046051	fix_pre	0		119	28.0	2.5	/experiments/Knapen_AOT/AOT_stimuli/rescaled_final/0563_rv.mp4	0.0	173.98494386672974	1.000131368637085
30	153.4979953765869	pulse	0	t		28.0	2.5	/experiments/Knapen_AOT/AOT_stimuli/rescaled_final/0563_rv.mp4	0.0	174.96862053871155	
30	153.5144500732422	movie	1		272	28.0	2.5	/experiments/Knapen_AOT/AOT_stimuli/rescaled_final/0563_rv.mp4	0.0	174.98507523536682	2.5003674030303955
30	155.09669303894043	pulse	1	t		28.0	2.5	/experiments/Knapen_AOT/AOT_stimuli/rescaled_final/0563_rv.mp4	0.0	176.56731820106506	
30	156.01481747627258	fix_post	2		12	28.0	2.5	/experiments/Knapen_AOT/AOT_stimuli/rescaled_final/0563_rv.mp4	0.0	177.48544263839722	0.1000361442565918
31	156.11485362052917	fix_pre	0		120	29.0	2.5	/experiments/Knapen_AOT/AOT_stimuli/rescaled_final/1450_rv.mp4	0.0	177.5854787826538	1.0084843635559082
31	156.69845342636108	pulse	0	t		29.0	2.5	/experiments/Knapen_AOT/AOT_stimuli/rescaled_final/1450_rv.mp4	0.0	178.16907858848572	
31	157.12333798408508	movie	1		273	29.0	2.5	/experiments/Knapen_AOT/AOT_stimuli/rescaled_final/1450_rv.mp4	0.0	178.59396314620972	2.492095470428467
31	158.29688596725464	pulse	1	t		29.0	2.5	/experiments/Knapen_AOT/AOT_stimuli/rescaled_final/1450_rv.mp4	0.0	179.76751112937927	
31	159.61543345451355	fix_post	2		12	29.0	2.5	/experiments/Knapen_AOT/AOT_stimuli/rescaled_final/1450_rv.mp4	0.0	181.08605861663818	0.10000848770141602
32	159.71544194221497	fix_pre	0		120	30.0	2.5	/experiments/Knapen_AOT/AOT_stimuli/rescaled_final/1947_fw.mp4	0.0	181.1860671043396	1.0085136890411377
32	159.89897203445435	pulse	0	t		30.0	2.5	/experiments/Knapen_AOT/AOT_stimuli/rescaled_final/1947_fw.mp4	0.0	181.36959719657898	
32	160.7239556312561	movie	1		287	30.0	2.5	/experiments/Knapen_AOT/AOT_stimuli/rescaled_final/1947_fw.mp4	0.0	182.19458079338074	2.491973638534546
32	161.49817824363708	pulse	1	t		30.0	2.5	/experiments/Knapen_AOT/AOT_stimuli/rescaled_final/1947_fw.mp4	0.0	182.96880340576172	
32	163.09765124320984	pulse	1	t		30.0	2.5	/experiments/Knapen_AOT/AOT_stimuli/rescaled_final/1947_fw.mp4	0.0	184.56827640533447	
32	163.21592926979065	fix_post	2		12	30.0	2.5	/experiments/Knapen_AOT/AOT_stimuli/rescaled_final/1947_fw.mp4	0.0	184.68655443191528	0.10004973411560059
33	163.31597900390625	fix_pre	0		120	31.0	2.5	/experiments/Knapen_AOT/AOT_stimuli/rescaled_final/1573_rv.mp4	0.0	184.78660416603088	1.0084292888641357
33	164.32440829277039	movie	1		275	31.0	2.5	/experiments/Knapen_AOT/AOT_stimuli/rescaled_final/1573_rv.mp4	0.0	185.79503345489502	2.4920566082000732
33	164.69816541671753	pulse	1	t		31.0	2.5	/experiments/Knapen_AOT/AOT_stimuli/rescaled_final/1573_rv.mp4	0.0	186.16879057884216	
33	166.29829502105713	pulse	1	t		31.0	2.5	/experiments/Knapen_AOT/AOT_stimuli/rescaled_final/1573_rv.mp4	0.0	187.76892018318176	
33	166.81646490097046	fix_post	2		12	31.0	2.5	/experiments/Knapen_AOT/AOT_stimuli/rescaled_final/1573_rv.mp4	0.0	188.2870900630951	0.1001291275024414
34	166.9165940284729	fix_pre	0		119	32.0	2.5	/experiments/Knapen_AOT/AOT_stimuli/rescaled_final/0859_fw.mp4	0.0	188.38721919059753	1.0000579357147217
34	167.89279794692993	pulse	0	t		32.0	2.5	/experiments/Knapen_AOT/AOT_stimuli/rescaled_final/0859_fw.mp4	0.0	189.36342310905457	
34	167.91665196418762	movie	1		289	32.0	2.5	/experiments/Knapen_AOT/AOT_stimuli/rescaled_final/0859_fw.mp4	0.0	189.38727712631226	2.500356912612915
34	169.49275255203247	pulse	1	t		32.0	2.5	/experiments/Knapen_AOT/AOT_stimuli/rescaled_final/0859_fw.mp4	0.0	190.9633777141571	
34	170.41700887680054	fix_post	2		12	32.0	2.5	/experiments/Knapen_AOT/AOT_stimuli/rescaled_final/0859_fw.mp4	0.0	191.88763403892517	0.10002565383911133
35	170.51703453063965	fix_pre	0		120	33.0	2.5	/experiments/Knapen_AOT/AOT_stimuli/rescaled_final/1983_rv.mp4	0.0	191.98765969276428	1.0084667205810547
35	171.092387676239	pulse	0	t		33.0	2.5	/experiments/Knapen_AOT/AOT_stimuli/rescaled_final/1983_rv.mp4	0.0	192.56301283836365	
35	171.5255012512207	movie	1		284	33.0	2.5	/experiments/Knapen_AOT/AOT_stimuli/rescaled_final/1983_rv.mp4	0.0	192.99612641334534	2.4920074939727783
35	172.69256210327148	pulse	1	t		33.0	2.5	/experiments/Knapen_AOT/AOT_stimuli/rescaled_final/1983_rv.mp4	0.0	194.16318726539612	
35	174.01750874519348	fix_post	2		12	33.0	2.5	/experiments/Knapen_AOT/AOT_stimuli/rescaled_final/1983_rv.mp4	0.0	195.48813390731812	0.10010004043579102
36	174.11760878562927	fix_pre	0		120	34.0	2.5	blank	1.0	195.5882339477539	1.0001220703125
36	174.29281783103943	pulse	0	t		34.0	2.5	blank	1.0	195.76344299316406	
36	175.11773085594177	movie	1		300	34.0	2.5	blank	1.0	196.5883560180664	2.500446319580078
36	175.8931109905243	pulse	1	t		34.0	2.5	blank	1.0	197.36373615264893	
36	177.4933524131775	pulse	1	t		34.0	2.5	blank	1.0	198.96397757530212	
36	177.61817717552185	fix_post	2		12	34.0	2.5	blank	1.0	199.08880233764648	0.09992599487304688
37	177.7181031703949	fix_pre	0		120	35.0	2.5	/experiments/Knapen_AOT/AOT_stimuli/rescaled_final/0785_rv.mp4	0.0	199.18872833251953	1.0085241794586182
37	178.72662734985352	movie	1		279	35.0	2.5	/experiments/Knapen_AOT/AOT_stimuli/rescaled_final/0785_rv.mp4	0.0	200.19725251197815	2.4921810626983643
37	179.09368681907654	pulse	1	t		35.0	2.5	/experiments/Knapen_AOT/AOT_stimuli/rescaled_final/0785_rv.mp4	0.0	200.56431198120117	
37	180.6938817501068	pulse	1	t		35.0	2.5	/experiments/Knapen_AOT/AOT_stimuli/rescaled_final/0785_rv.mp4	0.0	202.16450691223145	
37	181.21880841255188	fix_post	2		12	35.0	2.5	/experiments/Knapen_AOT/AOT_stimuli/rescaled_final/0785_rv.mp4	0.0	202.6894335746765	0.0998678207397461
38	181.31867623329163	fix_pre	0		118	36.0	2.5	/experiments/Knapen_AOT/AOT_stimuli/rescaled_final/1844_rv.mp4	0.0	202.78930139541626	0.9918065071105957
38	182.29414296150208	pulse	0	t		36.0	2.5	/experiments/Knapen_AOT/AOT_stimuli/rescaled_final/1844_rv.mp4	0.0	203.7647681236267	
38	182.31048274040222	movie	1		283	36.0	2.5	/experiments/Knapen_AOT/AOT_stimuli/rescaled_final/1844_rv.mp4	0.0	203.78110790252686	2.500333070755005
38	183.89276576042175	pulse	1	t		36.0	2.5	/experiments/Knapen_AOT/AOT_stimuli/rescaled_final/1844_rv.mp4	0.0	205.3633909225464	
38	184.81081581115723	fix_post	2		12	36.0	2.5	/experiments/Knapen_AOT/AOT_stimuli/rescaled_final/1844_rv.mp4	0.0	206.28144097328186	0.10002517700195312
39	184.91084098815918	fix_pre	0		120	37.0	2.5	/experiments/Knapen_AOT/AOT_stimuli/rescaled_final/0499_fw.mp4	0.0	206.3814661502838	1.0085158348083496
39	185.4945375919342	pulse	0	t		37.0	2.5	/experiments/Knapen_AOT/AOT_stimuli/rescaled_final/0499_fw.mp4	0.0	206.96516275405884	
39	185.91935682296753	movie	1		286	37.0	2.5	/experiments/Knapen_AOT/AOT_stimuli/rescaled_final/0499_fw.mp4	0.0	207.38998198509216	2.4920289516448975
39	187.09311962127686	pulse	1	t		37.0	2.5	/experiments/Knapen_AOT/AOT_stimuli/rescaled_final/0499_fw.mp4	0.0	208.5637447834015	
39	188.41138577461243	fix_post	2		12	37.0	2.5	/experiments/Knapen_AOT/AOT_stimuli/rescaled_final/0499_fw.mp4	0.0	209.88201093673706	0.10009264945983887
40	188.51147842407227	fix_pre	0		120	38.0	2.5	/experiments/Knapen_AOT/AOT_stimuli/rescaled_final/0407_rv.mp4	0.0	209.9821035861969	1.008457899093628
40	188.6951117515564	pulse	0	t		38.0	2.5	/experiments/Knapen_AOT/AOT_stimuli/rescaled_final/0407_rv.mp4	0.0	210.16573691368103	
40	189.5199363231659	movie	1		289	38.0	2.5	/experiments/Knapen_AOT/AOT_stimuli/rescaled_final/0407_rv.mp4	0.0	210.99056148529053	2.4920027256011963
40	190.29341793060303	pulse	1	t		38.0	2.5	/experiments/Knapen_AOT/AOT_stimuli/rescaled_final/0407_rv.mp4	0.0	211.76404309272766	
40	191.8935809135437	pulse	1	t		38.0	2.5	/experiments/Knapen_AOT/AOT_stimuli/rescaled_final/0407_rv.mp4	0.0	213.36420607566833	
40	192.0119390487671	fix_post	2		12	38.0	2.5	/experiments/Knapen_AOT/AOT_stimuli/rescaled_final/0407_rv.mp4	0.0	213.48256421089172	0.09999346733093262
41	192.11193251609802	fix_pre	0		120	39.0	2.5	/experiments/Knapen_AOT/AOT_stimuli/rescaled_final/0755_rv.mp4	0.0	213.58255767822266	1.0085856914520264
41	193.12051820755005	movie	1		287	39.0	2.5	/experiments/Knapen_AOT/AOT_stimuli/rescaled_final/0755_rv.mp4	0.0	214.59114336967468	2.491914749145508
41	193.49417757987976	pulse	1	t		39.0	2.5	/experiments/Knapen_AOT/AOT_stimuli/rescaled_final/0755_rv.mp4	0.0	214.9648027420044	
41	195.09578442573547	pulse	1	t		39.0	2.5	/experiments/Knapen_AOT/AOT_stimuli/rescaled_final/0755_rv.mp4	0.0	216.5664095878601	
41	195.61243295669556	fix_post	2		12	39.0	2.5	/experiments/Knapen_AOT/AOT_stimuli/rescaled_final/0755_rv.mp4	0.0	217.0830581188202	0.10000324249267578
42	195.71243619918823	fix_pre	0		119	40.0	2.5	blank	1.0	217.18306136131287	0.991828441619873
42	196.69622826576233	pulse	0	t		40.0	2.5	blank	1.0	218.16685342788696	
42	196.7042646408081	movie	1		301	40.0	2.5	blank	1.0	218.17488980293274	2.5087413787841797
42	198.29630088806152	pulse	1	t		40.0	2.5	blank	1.0	219.76692605018616	
42	199.21300601959229	fix_post	2		12	40.0	2.5	blank	1.0	220.68363118171692	0.09999394416809082
43	199.31299996376038	fix_pre	0		120	41.0	2.5	/experiments/Knapen_AOT/AOT_stimuli/rescaled_final/0455_fw.mp4	0.0	220.783625125885	1.0085699558258057
43	199.8965938091278	pulse	0	t		41.0	2.5	/experiments/Knapen_AOT/AOT_stimuli/rescaled_final/0455_fw.mp4	0.0	221.36721897125244	
43	200.32156991958618	movie	1		291	41.0	2.5	/experiments/Knapen_AOT/AOT_stimuli/rescaled_final/0455_fw.mp4	0.0	221.79219508171082	2.491974115371704
43	201.4925286769867	pulse	1	t		41.0	2.5	/experiments/Knapen_AOT/AOT_stimuli/rescaled_final/0455_fw.mp4	0.0	222.96315383911133	
43	202.81354403495789	fix_post	2		12	41.0	2.5	/experiments/Knapen_AOT/AOT_stimuli/rescaled_final/0455_fw.mp4	0.0	224.28416919708252	0.09998750686645508
44	202.91353154182434	fix_pre	0		120	42.0	2.5	/experiments/Knapen_AOT/AOT_stimuli/rescaled_final/0215_rv.mp4	0.0	224.38415670394897	1.000112771987915
44	203.09731721878052	pulse	0	t		42.0	2.5	/experiments/Knapen_AOT/AOT_stimuli/rescaled_final/0215_rv.mp4	0.0	224.56794238090515	
44	203.91364431381226	movie	1		298	42.0	2.5	/experiments/Knapen_AOT/AOT_stimuli/rescaled_final/0215_rv.mp4	0.0	225.3842694759369	2.500403642654419
44	204.6935269832611	pulse	1	t		42.0	2.5	/experiments/Knapen_AOT/AOT_stimuli/rescaled_final/0215_rv.mp4	0.0	226.16415214538574	
44	206.29350090026855	pulse	1	t		42.0	2.5	/experiments/Knapen_AOT/AOT_stimuli/rescaled_final/0215_rv.mp4	0.0	227.7641260623932	
44	206.41404795646667	fix_post	2		12	42.0	2.5	/experiments/Knapen_AOT/AOT_stimuli/rescaled_final/0215_rv.mp4	0.0	227.8846731185913	0.10001015663146973
45	206.51405811309814	fix_pre	0		120	43.0	2.5	/experiments/Knapen_AOT/AOT_stimuli/rescaled_final/2069_rv.mp4	0.0	227.98468327522278	1.0085186958312988
45	207.52257680892944	movie	1		291	43.0	2.5	/experiments/Knapen_AOT/AOT_stimuli/rescaled_final/2069_rv.mp4	0.0	228.99320197105408	2.492025852203369
45	207.89614081382751	pulse	1	t		43.0	2.5	/experiments/Knapen_AOT/AOT_stimuli/rescaled_final/2069_rv.mp4	0.0	229.36676597595215	
45	209.4952609539032	pulse	1	t		43.0	2.5	/experiments/Knapen_AOT/AOT_stimuli/rescaled_final/2069_rv.mp4	0.0	230.96588611602783	
45	210.0146026611328	fix_post	2		12	43.0	2.5	/experiments/Knapen_AOT/AOT_stimuli/rescaled_final/2069_rv.mp4	0.0	231.48522782325745	0.1000356674194336
46	210.11463832855225	fix_pre	0		119	44.0	2.5	/experiments/Knapen_AOT/AOT_stimuli/rescaled_final/0785_fw.mp4	0.0	231.58526349067688	1.0001342296600342
46	211.09837412834167	pulse	0	t		44.0	2.5	/experiments/Knapen_AOT/AOT_stimuli/rescaled_final/0785_fw.mp4	0.0	232.5689992904663	
46	211.11477255821228	movie	1		281	44.0	2.5	/experiments/Knapen_AOT/AOT_stimuli/rescaled_final/0785_fw.mp4	0.0	232.5853977203369	2.500408172607422
46	212.69728231430054	pulse	1	t		44.0	2.5	/experiments/Knapen_AOT/AOT_stimuli/rescaled_final/0785_fw.mp4	0.0	234.16790747642517	
46	213.6151807308197	fix_post	2		12	44.0	2.5	/experiments/Knapen_AOT/AOT_stimuli/rescaled_final/0785_fw.mp4	0.0	235.08580589294434	0.09997963905334473
47	213.71516036987305	fix_pre	0		120	45.0	2.5	/experiments/Knapen_AOT/AOT_stimuli/rescaled_final/0650_fw.mp4	0.0	235.18578553199768	1.008556842803955
47	214.29894375801086	pulse	0	t		45.0	2.5	/experiments/Knapen_AOT/AOT_stimuli/rescaled_final/0650_fw.mp4	0.0	235.7695689201355	
47	214.723717212677	movie	1		276	45.0	2.5	/experiments/Knapen_AOT/AOT_stimuli/rescaled_final/0650_fw.mp4	0.0	236.19434237480164	2.492021083831787
47	215.89713525772095	pulse	1	t		45.0	2.5	/experiments/Knapen_AOT/AOT_stimuli/rescaled_final/0650_fw.mp4	0.0	237.36776041984558	
47	217.2157382965088	fix_post	2		12	45.0	2.5	/experiments/Knapen_AOT/AOT_stimuli/rescaled_final/0650_fw.mp4	0.0	238.68636345863342	0.09999537467956543
48	217.31573367118835	fix_pre	0		120	46.0	2.5	/experiments/Knapen_AOT/AOT_stimuli/rescaled_final/0969_fw.mp4	0.0	238.786358833313	1.0085394382476807
48	217.499445438385	pulse	0	t		46.0	2.5	/experiments/Knapen_AOT/AOT_stimuli/rescaled_final/0969_fw.mp4	0.0	238.97007060050964	
48	218.32427310943604	movie	1		255	46.0	2.5	/experiments/Knapen_AOT/AOT_stimuli/rescaled_final/0969_fw.mp4	0.0	239.79489827156067	2.4919686317443848
48	219.09754753112793	pulse	1	t		46.0	2.5	/experiments/Knapen_AOT/AOT_stimuli/rescaled_final/0969_fw.mp4	0.0	240.56817269325256	
48	220.69984126091003	pulse	1	t		46.0	2.5	/experiments/Knapen_AOT/AOT_stimuli/rescaled_final/0969_fw.mp4	0.0	242.17046642303467	
48	220.81624174118042	fix_post	2		12	46.0	2.5	/experiments/Knapen_AOT/AOT_stimuli/rescaled_final/0969_fw.mp4	0.0	242.28686690330505	0.10002827644348145
49	220.9162700176239	fix_pre	0		120	47.0	2.5	blank	1.0	242.38689517974854	1.0001733303070068
49	221.9164433479309	movie	1		300	47.0	2.5	blank	1.0	243.38706851005554	2.500467538833618
49	222.2938175201416	pulse	1	t		47.0	2.5	blank	1.0	243.76444268226624	
49	223.90027475357056	pulse	1	t		47.0	2.5	blank	1.0	245.3708999156952	
49	224.41691088676453	fix_post	2		12	47.0	2.5	blank	1.0	245.88753604888916	0.09988784790039062
50	224.51679873466492	fix_pre	0		119	48.0	2.5	/experiments/Knapen_AOT/AOT_stimuli/rescaled_final/1050_fw.mp4	0.0	245.98742389678955	1.0001792907714844
50	225.4936900138855	pulse	0	t		48.0	2.5	/experiments/Knapen_AOT/AOT_stimuli/rescaled_final/1050_fw.mp4	0.0	246.96431517601013	
50	225.5169780254364	movie	1		286	48.0	2.5	/experiments/Knapen_AOT/AOT_stimuli/rescaled_final/1050_fw.mp4	0.0	246.98760318756104	2.5003395080566406
50	227.09316968917847	pulse	1	t		48.0	2.5	/experiments/Knapen_AOT/AOT_stimuli/rescaled_final/1050_fw.mp4	0.0	248.5637948513031	
50	228.01731753349304	fix_post	2		12	48.0	2.5	/experiments/Knapen_AOT/AOT_stimuli/rescaled_final/1050_fw.mp4	0.0	249.48794269561768	0.10002422332763672
51	228.11734175682068	fix_pre	0		120	49.0	2.5	/experiments/Knapen_AOT/AOT_stimuli/rescaled_final/0354_fw.mp4	0.0	249.5879669189453	1.008488416671753
51	228.69274997711182	pulse	0	t		49.0	2.5	/experiments/Knapen_AOT/AOT_stimuli/rescaled_final/0354_fw.mp4	0.0	250.16337513923645	
51	229.12583017349243	movie	1		289	49.0	2.5	/experiments/Knapen_AOT/AOT_stimuli/rescaled_final/0354_fw.mp4	0.0	250.59645533561707	2.4921648502349854
51	230.2928762435913	pulse	1	t		49.0	2.5	/experiments/Knapen_AOT/AOT_stimuli/rescaled_final/0354_fw.mp4	0.0	251.76350140571594	
51	231.61799502372742	fix_post	2		12	49.0	2.5	/experiments/Knapen_AOT/AOT_stimuli/rescaled_final/0354_fw.mp4	0.0	253.08862018585205	0.09991812705993652
52	231.71791315078735	fix_pre	0		120	50.0	2.5	/experiments/Knapen_AOT/AOT_stimuli/rescaled_final/1538_rv.mp4	0.0	253.188538312912	1.0085251331329346
52	231.89314222335815	pulse	0	t		50.0	2.5	/experiments/Knapen_AOT/AOT_stimuli/rescaled_final/1538_rv.mp4	0.0	253.3637673854828	
52	232.7264382839203	movie	1		280	50.0	2.5	/experiments/Knapen_AOT/AOT_stimuli/rescaled_final/1538_rv.mp4	0.0	254.19706344604492	2.491955518722534
52	233.4934697151184	pulse	1	t		50.0	2.5	/experiments/Knapen_AOT/AOT_stimuli/rescaled_final/1538_rv.mp4	0.0	254.96409487724304	
52	235.09364461898804	pulse	1	t		50.0	2.5	/experiments/Knapen_AOT/AOT_stimuli/rescaled_final/1538_rv.mp4	0.0	256.56426978111267	
52	235.21839380264282	fix_post	2		12	50.0	2.5	/experiments/Knapen_AOT/AOT_stimuli/rescaled_final/1538_rv.mp4	0.0	256.68901896476746	0.10002636909484863
53	235.31842017173767	fix_pre	0		120	51.0	2.5	/experiments/Knapen_AOT/AOT_stimuli/rescaled_final/1824_rv.mp4	0.0	256.7890453338623	1.0085811614990234
53	236.3270013332367	movie	1		272	51.0	2.5	/experiments/Knapen_AOT/AOT_stimuli/rescaled_final/1824_rv.mp4	0.0	257.7976264953613	2.4919774532318115
53	236.69412851333618	pulse	1	t		51.0	2.5	/experiments/Knapen_AOT/AOT_stimuli/rescaled_final/1824_rv.mp4	0.0	258.1647536754608	
53	238.29406070709229	pulse	1	t		51.0	2.5	/experiments/Knapen_AOT/AOT_stimuli/rescaled_final/1824_rv.mp4	0.0	259.7646858692169	
53	238.8189787864685	fix_post	2		12	51.0	2.5	/experiments/Knapen_AOT/AOT_stimuli/rescaled_final/1824_rv.mp4	0.0	260.28960394859314	0.10005927085876465
54	238.91903805732727	fix_pre	0		118	52.0	2.5	/experiments/Knapen_AOT/AOT_stimuli/rescaled_final/0466_rv.mp4	0.0	260.3896632194519	0.99176025390625
54	239.89469242095947	pulse	0	t		52.0	2.5	/experiments/Knapen_AOT/AOT_stimuli/rescaled_final/0466_rv.mp4	0.0	261.3653175830841	
54	239.91079831123352	movie	1		286	52.0	2.5	/experiments/Knapen_AOT/AOT_stimuli/rescaled_final/0466_rv.mp4	0.0	261.38142347335815	2.5004000663757324
54	241.49297618865967	pulse	1	t		52.0	2.5	/experiments/Knapen_AOT/AOT_stimuli/rescaled_final/0466_rv.mp4	0.0	262.9636013507843	
54	242.41119837760925	fix_post	2		12	52.0	2.5	/experiments/Knapen_AOT/AOT_stimuli/rescaled_final/0466_rv.mp4	0.0	263.8818235397339	0.0999765396118164
55	242.51117491722107	fix_pre	0		120	53.0	2.5	/experiments/Knapen_AOT/AOT_stimuli/rescaled_final/1843_rv.mp4	0.0	263.9818000793457	1.008500337600708
55	243.09506273269653	pulse	0	t		53.0	2.5	/experiments/Knapen_AOT/AOT_stimuli/rescaled_final/1843_rv.mp4	0.0	264.56568789482117	
55	243.51967525482178	movie	1		279	53.0	2.5	/experiments/Knapen_AOT/AOT_stimuli/rescaled_final/1843_rv.mp4	0.0	264.9903004169464	2.4920310974121094
55	244.69360327720642	pulse	1	t		53.0	2.5	/experiments/Knapen_AOT/AOT_stimuli/rescaled_final/1843_rv.mp4	0.0	266.16422843933105	
55	246.0117063522339	fix_post	2		12	53.0	2.5	/experiments/Knapen_AOT/AOT_stimuli/rescaled_final/1843_rv.mp4	0.0	267.4823315143585	0.10001230239868164
56	246.11171865463257	fix_pre	0		120	54.0	2.5	/experiments/Knapen_AOT/AOT_stimuli/rescaled_final/1859_rv.mp4	0.0	267.5823438167572	1.0085084438323975
56	246.29524683952332	pulse	0	t		54.0	2.5	/experiments/Knapen_AOT/AOT_stimuli/rescaled_final/1859_rv.mp4	0.0	267.76587200164795	
56	247.12022709846497	movie	1		273	54.0	2.5	/experiments/Knapen_AOT/AOT_stimuli/rescaled_final/1859_rv.mp4	0.0	268.5908522605896	2.4922163486480713
56	247.89535570144653	pulse	1	t		54.0	2.5	/experiments/Knapen_AOT/AOT_stimuli/rescaled_final/1859_rv.mp4	0.0	269.36598086357117	
56	249.49389958381653	pulse	1	t		54.0	2.5	/experiments/Knapen_AOT/AOT_stimuli/rescaled_final/1859_rv.mp4	0.0	270.96452474594116	
56	249.61244344711304	fix_post	2		12	54.0	2.5	/experiments/Knapen_AOT/AOT_stimuli/rescaled_final/1859_rv.mp4	0.0	271.08306860923767	0.09982490539550781
57	249.71226835250854	fix_pre	0		120	55.0	2.5	/experiments/Knapen_AOT/AOT_stimuli/rescaled_final/0001_rv.mp4	0.0	271.1828935146332	1.0084960460662842
57	250.72076439857483	movie	1		274	55.0	2.5	/experiments/Knapen_AOT/AOT_stimuli/rescaled_final/0001_rv.mp4	0.0	272.19138956069946	2.4920411109924316
57	251.094628572464	pulse	1	t		55.0	2.5	/experiments/Knapen_AOT/AOT_stimuli/rescaled_final/0001_rv.mp4	0.0	272.5652537345886	
57	252.69453024864197	pulse	1	t		55.0	2.5	/experiments/Knapen_AOT/AOT_stimuli/rescaled_final/0001_rv.mp4	0.0	274.1651554107666	
57	253.21280550956726	fix_post	2		12	55.0	2.5	/experiments/Knapen_AOT/AOT_stimuli/rescaled_final/0001_rv.mp4	0.0	274.6834306716919	0.09998798370361328
58	253.31279349327087	fix_pre	0		119	56.0	2.5	blank	1.0	274.7834186553955	0.9918849468231201
58	254.2965817451477	pulse	0	t		56.0	2.5	blank	1.0	275.76720690727234	
58	254.304678440094	movie	1		301	56.0	2.5	blank	1.0	275.7753036022186	2.5086495876312256
58	255.8967740535736	pulse	1	t		56.0	2.5	blank	1.0	277.36739921569824	
58	256.8133280277252	fix_post	2		12	56.0	2.5	blank	1.0	278.28395318984985	0.10003089904785156
59	256.91335892677307	fix_pre	0		120	57.0	2.5	/experiments/Knapen_AOT/AOT_stimuli/rescaled_final/1772_rv.mp4	0.0	278.3839840888977	1.0084686279296875
59	257.49697828292847	pulse	0	t		57.0	2.5	/experiments/Knapen_AOT/AOT_stimuli/rescaled_final/1772_rv.mp4	0.0	278.9676034450531	
59	257.92182755470276	movie	1		272	57.0	2.5	/experiments/Knapen_AOT/AOT_stimuli/rescaled_final/1772_rv.mp4	0.0	279.3924527168274	2.492051839828491
59	259.0970621109009	pulse	1	t		57.0	2.5	/experiments/Knapen_AOT/AOT_stimuli/rescaled_final/1772_rv.mp4	0.0	280.5676872730255	
59	260.41387939453125	fix_post	2		12	57.0	2.5	/experiments/Knapen_AOT/AOT_stimuli/rescaled_final/1772_rv.mp4	0.0	281.8845045566559	0.10007333755493164
60	260.5139527320862	fix_pre	0		120	58.0	2.5	/experiments/Knapen_AOT/AOT_stimuli/rescaled_final/0215_rv.mp4	0.0	281.9845778942108	1.0084445476531982
60	260.697470664978	pulse	0	t		58.0	2.5	/experiments/Knapen_AOT/AOT_stimuli/rescaled_final/0215_rv.mp4	0.0	282.16809582710266	
60	261.5223972797394	movie	1		279	58.0	2.5	/experiments/Knapen_AOT/AOT_stimuli/rescaled_final/0215_rv.mp4	0.0	282.993022441864	2.4920315742492676
60	262.29566645622253	pulse	1	t		58.0	2.5	/experiments/Knapen_AOT/AOT_stimuli/rescaled_final/0215_rv.mp4	0.0	283.76629161834717	
60	263.89600944519043	pulse	1	t		58.0	2.5	/experiments/Knapen_AOT/AOT_stimuli/rescaled_final/0215_rv.mp4	0.0	285.36663460731506	
60	264.01442885398865	fix_post	2		12	58.0	2.5	/experiments/Knapen_AOT/AOT_stimuli/rescaled_final/0215_rv.mp4	0.0	285.4850540161133	0.09999299049377441
61	264.1144218444824	fix_pre	0		120	59.0	2.5	/experiments/Knapen_AOT/AOT_stimuli/rescaled_final/0455_fw.mp4	0.0	285.58504700660706	1.0085351467132568
61	265.1229569911957	movie	1		285	59.0	2.5	/experiments/Knapen_AOT/AOT_stimuli/rescaled_final/0455_fw.mp4	0.0	286.5935821533203	2.4920120239257812
61	265.4965455532074	pulse	1	t		59.0	2.5	/experiments/Knapen_AOT/AOT_stimuli/rescaled_final/0455_fw.mp4	0.0	286.96717071533203	
61	267.0964617729187	pulse	1	t		59.0	2.5	/experiments/Knapen_AOT/AOT_stimuli/rescaled_final/0455_fw.mp4	0.0	288.56708693504333	
61	267.61496901512146	fix_post	2		12	59.0	2.5	/experiments/Knapen_AOT/AOT_stimuli/rescaled_final/0455_fw.mp4	0.0	289.0855941772461	0.10006380081176758
62	267.7150328159332	fix_pre	0		119	60.0	2.5	/experiments/Knapen_AOT/AOT_stimuli/rescaled_final/0758_fw.mp4	0.0	289.18565797805786	1.000138759613037
62	268.69872093200684	pulse	0	t		60.0	2.5	/experiments/Knapen_AOT/AOT_stimuli/rescaled_final/0758_fw.mp4	0.0	290.16934609413147	
62	268.71517157554626	movie	1		267	60.0	2.5	/experiments/Knapen_AOT/AOT_stimuli/rescaled_final/0758_fw.mp4	0.0	290.1857967376709	2.500319242477417
62	270.2975151538849	pulse	1	t		60.0	2.5	/experiments/Knapen_AOT/AOT_stimuli/rescaled_final/0758_fw.mp4	0.0	291.7681403160095	
62	271.2154908180237	fix_post	2		12	60.0	2.5	/experiments/Knapen_AOT/AOT_stimuli/rescaled_final/0758_fw.mp4	0.0	292.6861159801483	0.10001611709594727
63	271.31550693511963	fix_pre	0		120	61.0	2.5	blank	1.0	292.78613209724426	1.0001509189605713
63	271.8991973400116	pulse	0	t		61.0	2.5	blank	1.0	293.36982250213623	
63	272.3156578540802	movie	1		300	61.0	2.5	blank	1.0	293.78628301620483	2.5003621578216553
63	273.4928021430969	pulse	1	t		61.0	2.5	blank	1.0	294.96342730522156	
63	274.81602001190186	fix_post	2		12	61.0	2.5	blank	1.0	296.2866451740265	0.10003995895385742
64	274.9160599708557	fix_pre	0		120	62.0	2.5	/experiments/Knapen_AOT/AOT_stimuli/rescaled_final/1281_rv.mp4	0.0	296.38668513298035	1.0084912776947021
64	275.092257976532	pulse	0	t		62.0	2.5	/experiments/Knapen_AOT/AOT_stimuli/rescaled_final/1281_rv.mp4	0.0	296.5628831386566	
64	275.9245512485504	movie	1		288	62.0	2.5	/experiments/Knapen_AOT/AOT_stimuli/rescaled_final/1281_rv.mp4	0.0	297.39517641067505	2.4921276569366455
64	276.69827818870544	pulse	1	t		62.0	2.5	/experiments/Knapen_AOT/AOT_stimuli/rescaled_final/1281_rv.mp4	0.0	298.1689033508301	
64	278.29817295074463	pulse	1	t		62.0	2.5	/experiments/Knapen_AOT/AOT_stimuli/rescaled_final/1281_rv.mp4	0.0	299.76879811286926	
64	278.41667890548706	fix_post	2		12	62.0	2.5	/experiments/Knapen_AOT/AOT_stimuli/rescaled_final/1281_rv.mp4	0.0	299.8873040676117	0.09991860389709473
65	278.51659750938416	fix_pre	0		120	63.0	2.5	/experiments/Knapen_AOT/AOT_stimuli/rescaled_final/0834_rv.mp4	0.0	299.9872226715088	1.0084953308105469
65	279.5250928401947	movie	1		273	63.0	2.5	/experiments/Knapen_AOT/AOT_stimuli/rescaled_final/0834_rv.mp4	0.0	300.99571800231934	2.492042303085327
65	279.89307832717896	pulse	1	t		63.0	2.5	/experiments/Knapen_AOT/AOT_stimuli/rescaled_final/0834_rv.mp4	0.0	301.3637034893036	
65	281.4923541545868	pulse	1	t		63.0	2.5	/experiments/Knapen_AOT/AOT_stimuli/rescaled_final/0834_rv.mp4	0.0	302.9629793167114	
65	282.01713514328003	fix_post	2		12	63.0	2.5	/experiments/Knapen_AOT/AOT_stimuli/rescaled_final/0834_rv.mp4	0.0	303.48776030540466	0.10004162788391113
66	282.11717677116394	fix_pre	0		118	64.0	2.5	/experiments/Knapen_AOT/AOT_stimuli/rescaled_final/1829_fw.mp4	0.0	303.5878019332886	0.9917943477630615
66	283.09281754493713	pulse	0	t		64.0	2.5	/experiments/Knapen_AOT/AOT_stimuli/rescaled_final/1829_fw.mp4	0.0	304.56344270706177	
66	283.108971118927	movie	1		273	64.0	2.5	/experiments/Knapen_AOT/AOT_stimuli/rescaled_final/1829_fw.mp4	0.0	304.57959628105164	2.5003821849823
66	284.69284677505493	pulse	1	t		64.0	2.5	/experiments/Knapen_AOT/AOT_stimuli/rescaled_final/1829_fw.mp4	0.0	306.16347193717957	
66	285.6093533039093	fix_post	2		12	64.0	2.5	/experiments/Knapen_AOT/AOT_stimuli/rescaled_final/1829_fw.mp4	0.0	307.07997846603394	0.10002803802490234
67	285.7093813419342	fix_pre	0		120	65.0	2.5	/experiments/Knapen_AOT/AOT_stimuli/rescaled_final/1137_fw.mp4	0.0	307.18000650405884	1.0084452629089355
67	286.2930660247803	pulse	0	t		65.0	2.5	/experiments/Knapen_AOT/AOT_stimuli/rescaled_final/1137_fw.mp4	0.0	307.7636911869049	
67	286.71782660484314	movie	1		278	65.0	2.5	/experiments/Knapen_AOT/AOT_stimuli/rescaled_final/1137_fw.mp4	0.0	308.1884517669678	2.4920384883880615
67	287.89326071739197	pulse	1	t		65.0	2.5	/experiments/Knapen_AOT/AOT_stimuli/rescaled_final/1137_fw.mp4	0.0	309.3638858795166	
67	289.2098650932312	fix_post	2		12	65.0	2.5	/experiments/Knapen_AOT/AOT_stimuli/rescaled_final/1137_fw.mp4	0.0	310.68049025535583	0.10002398490905762
68	289.30988907814026	fix_pre	0		120	66.0	2.5	/experiments/Knapen_AOT/AOT_stimuli/rescaled_final/1772_fw.mp4	0.0	310.7805142402649	1.0085020065307617
68	289.49360966682434	pulse	0	t		66.0	2.5	/experiments/Knapen_AOT/AOT_stimuli/rescaled_final/1772_fw.mp4	0.0	310.964234828949	
68	290.318391084671	movie	1		288	66.0	2.5	/experiments/Knapen_AOT/AOT_stimuli/rescaled_final/1772_fw.mp4	0.0	311.78901624679565	2.4920237064361572
68	291.09388875961304	pulse	1	t		66.0	2.5	/experiments/Knapen_AOT/AOT_stimuli/rescaled_final/1772_fw.mp4	0.0	312.56451392173767	
68	292.69227051734924	pulse	1	t		66.0	2.5	/experiments/Knapen_AOT/AOT_stimuli/rescaled_final/1772_fw.mp4	0.0	314.1628956794739	
68	292.8104147911072	fix_post	2		12	66.0	2.5	/experiments/Knapen_AOT/AOT_stimuli/rescaled_final/1772_fw.mp4	0.0	314.2810399532318	0.10000419616699219
69	292.91041898727417	fix_pre	0		120	67.0	2.5	/experiments/Knapen_AOT/AOT_stimuli/rescaled_final/0382_fw.mp4	0.0	314.3810441493988	1.0084984302520752
69	293.91891741752625	movie	1		283	67.0	2.5	/experiments/Knapen_AOT/AOT_stimuli/rescaled_final/0382_fw.mp4	0.0	315.3895425796509	2.4920387268066406
69	294.2928249835968	pulse	1	t		67.0	2.5	/experiments/Knapen_AOT/AOT_stimuli/rescaled_final/0382_fw.mp4	0.0	315.76345014572144	
69	295.8925049304962	pulse	1	t		67.0	2.5	/experiments/Knapen_AOT/AOT_stimuli/rescaled_final/0382_fw.mp4	0.0	317.36313009262085	
69	296.4109561443329	fix_post	2		12	67.0	2.5	/experiments/Knapen_AOT/AOT_stimuli/rescaled_final/0382_fw.mp4	0.0	317.8815813064575	0.1000516414642334
70	296.5110077857971	fix_pre	0		119	68.0	2.5	/experiments/Knapen_AOT/AOT_stimuli/rescaled_final/0478_rv.mp4	0.0	317.98163294792175	1.000110387802124
70	297.4949917793274	pulse	0	t		68.0	2.5	/experiments/Knapen_AOT/AOT_stimuli/rescaled_final/0478_rv.mp4	0.0	318.965616941452	
70	297.51111817359924	movie	1		285	68.0	2.5	/experiments/Knapen_AOT/AOT_stimuli/rescaled_final/0478_rv.mp4	0.0	318.9817433357239	2.500370502471924
70	299.09376287460327	pulse	1	t		68.0	2.5	/experiments/Knapen_AOT/AOT_stimuli/rescaled_final/0478_rv.mp4	0.0	320.5643880367279	
70	300.01148867607117	fix_post	2		12	68.0	2.5	/experiments/Knapen_AOT/AOT_stimuli/rescaled_final/0478_rv.mp4	0.0	321.4821138381958	0.10006356239318848
71	300.11155223846436	fix_pre	0		120	69.0	2.5	blank	1.0	321.582177400589	1.0001916885375977
71	300.69520902633667	pulse	0	t		69.0	2.5	blank	1.0	322.1658341884613	
71	301.11174392700195	movie	1		300	69.0	2.5	blank	1.0	322.5823690891266	2.500288963317871
71	302.29564213752747	pulse	1	t		69.0	2.5	blank	1.0	323.7662672996521	
71	303.6120328903198	fix_post	2		12	69.0	2.5	blank	1.0	325.08265805244446	0.10001945495605469
72	303.7120523452759	fix_pre	0		120	70.0	2.5	/experiments/Knapen_AOT/AOT_stimuli/rescaled_final/0965_fw.mp4	0.0	325.1826775074005	1.0085711479187012
72	303.8956754207611	pulse	0	t		70.0	2.5	/experiments/Knapen_AOT/AOT_stimuli/rescaled_final/0965_fw.mp4	0.0	325.36630058288574	
72	304.7206234931946	movie	1		276	70.0	2.5	/experiments/Knapen_AOT/AOT_stimuli/rescaled_final/0965_fw.mp4	0.0	326.1912486553192	2.4919445514678955
72	305.495730638504	pulse	1	t		70.0	2.5	/experiments/Knapen_AOT/AOT_stimuli/rescaled_final/0965_fw.mp4	0.0	326.96635580062866	
72	307.0945882797241	pulse	1	t		70.0	2.5	/experiments/Knapen_AOT/AOT_stimuli/rescaled_final/0965_fw.mp4	0.0	328.56521344184875	
72	307.2125680446625	fix_post	2		12	70.0	2.5	/experiments/Knapen_AOT/AOT_stimuli/rescaled_final/0965_fw.mp4	0.0	328.6831932067871	0.10002970695495605
73	307.31259775161743	fix_pre	0		120	71.0	2.5	/experiments/Knapen_AOT/AOT_stimuli/rescaled_final/1092_rv.mp4	0.0	328.78322291374207	1.0085020065307617
73	308.3210997581482	movie	1		277	71.0	2.5	/experiments/Knapen_AOT/AOT_stimuli/rescaled_final/1092_rv.mp4	0.0	329.7917249202728	2.4920122623443604
73	308.6946954727173	pulse	1	t		71.0	2.5	/experiments/Knapen_AOT/AOT_stimuli/rescaled_final/1092_rv.mp4	0.0	330.1653206348419	
73	310.2961256504059	pulse	1	t		71.0	2.5	/experiments/Knapen_AOT/AOT_stimuli/rescaled_final/1092_rv.mp4	0.0	331.7667508125305	
73	310.81311202049255	fix_post	2		12	71.0	2.5	/experiments/Knapen_AOT/AOT_stimuli/rescaled_final/1092_rv.mp4	0.0	332.2837371826172	0.09998869895935059
74	310.9131007194519	fix_pre	0		119	72.0	2.5	/experiments/Knapen_AOT/AOT_stimuli/rescaled_final/2106_rv.mp4	0.0	332.38372588157654	1.0001890659332275
74	311.89683198928833	pulse	0	t		72.0	2.5	/experiments/Knapen_AOT/AOT_stimuli/rescaled_final/2106_rv.mp4	0.0	333.36745715141296	
74	311.91328978538513	movie	1		259	72.0	2.5	/experiments/Knapen_AOT/AOT_stimuli/rescaled_final/2106_rv.mp4	0.0	333.38391494750977	2.5004215240478516
74	313.495388507843	pulse	1	t		72.0	2.5	/experiments/Knapen_AOT/AOT_stimuli/rescaled_final/2106_rv.mp4	0.0	334.96601366996765	
74	314.413711309433	fix_post	2		12	72.0	2.5	/experiments/Knapen_AOT/AOT_stimuli/rescaled_final/2106_rv.mp4	0.0	335.8843364715576	0.09998345375061035
75	314.5136947631836	fix_pre	0		120	73.0	2.5	/experiments/Knapen_AOT/AOT_stimuli/rescaled_final/1339_rv.mp4	0.0	335.9843199253082	1.0084834098815918
75	315.09734177589417	pulse	0	t		73.0	2.5	/experiments/Knapen_AOT/AOT_stimuli/rescaled_final/1339_rv.mp4	0.0	336.5679669380188	
75	315.5221781730652	movie	1		268	73.0	2.5	/experiments/Knapen_AOT/AOT_stimuli/rescaled_final/1339_rv.mp4	0.0	336.9928033351898	2.4920568466186523
75	316.696102142334	pulse	1	t		73.0	2.5	/experiments/Knapen_AOT/AOT_stimuli/rescaled_final/1339_rv.mp4	0.0	338.1667273044586	
75	318.01423501968384	fix_post	2		12	73.0	2.5	/experiments/Knapen_AOT/AOT_stimuli/rescaled_final/1339_rv.mp4	0.0	339.4848601818085	0.09997773170471191
76	318.11421275138855	fix_pre	0		120	74.0	2.5	/experiments/Knapen_AOT/AOT_stimuli/rescaled_final/1302_rv.mp4	0.0	339.5848379135132	1.0085160732269287
76	318.2977685928345	pulse	0	t		74.0	2.5	/experiments/Knapen_AOT/AOT_stimuli/rescaled_final/1302_rv.mp4	0.0	339.7683937549591	
76	319.1227288246155	movie	1		271	74.0	2.5	/experiments/Knapen_AOT/AOT_stimuli/rescaled_final/1302_rv.mp4	0.0	340.5933539867401	2.4920437335968018
76	319.8963303565979	pulse	1	t		74.0	2.5	/experiments/Knapen_AOT/AOT_stimuli/rescaled_final/1302_rv.mp4	0.0	341.36695551872253	
76	321.4961280822754	pulse	1	t		74.0	2.5	/experiments/Knapen_AOT/AOT_stimuli/rescaled_final/1302_rv.mp4	0.0	342.9667532444	
76	321.6147725582123	fix_post	2		12	74.0	2.5	/experiments/Knapen_AOT/AOT_stimuli/rescaled_final/1302_rv.mp4	0.0	343.0853977203369	0.0999917984008789
77	321.71476435661316	fix_pre	0		120	75.0	2.5	blank	1.0	343.1853895187378	1.0001752376556396
77	322.7149395942688	movie	1		300	75.0	2.5	blank	1.0	344.18556475639343	2.5003559589385986
77	323.09265208244324	pulse	1	t		75.0	2.5	blank	1.0	344.56327724456787	
77	324.6988172531128	pulse	1	t		75.0	2.5	blank	1.0	346.1694424152374	
77	325.2152955532074	fix_post	2		12	75.0	2.5	blank	1.0	346.68592071533203	0.09999561309814453
78	325.31529116630554	fix_pre	0		119	76.0	2.5	/experiments/Knapen_AOT/AOT_stimuli/rescaled_final/0308_rv.mp4	0.0	346.7859163284302	1.0085687637329102
78	326.29915261268616	pulse	0	t		76.0	2.5	/experiments/Knapen_AOT/AOT_stimuli/rescaled_final/0308_rv.mp4	0.0	347.7697777748108	
78	326.32385993003845	movie	1		260	76.0	2.5	/experiments/Knapen_AOT/AOT_stimuli/rescaled_final/0308_rv.mp4	0.0	347.7944850921631	2.491997241973877
78	327.89832639694214	pulse	1	t		76.0	2.5	/experiments/Knapen_AOT/AOT_stimuli/rescaled_final/0308_rv.mp4	0.0	349.3689515590668	
78	328.81585717201233	fix_post	2		12	76.0	2.5	/experiments/Knapen_AOT/AOT_stimuli/rescaled_final/0308_rv.mp4	0.0	350.28648233413696	0.10001873970031738
79	328.91587591171265	fix_pre	0		120	77.0	2.5	/experiments/Knapen_AOT/AOT_stimuli/rescaled_final/0593_fw.mp4	0.0	350.3865010738373	1.0084753036499023
79	329.49950909614563	pulse	0	t		77.0	2.5	/experiments/Knapen_AOT/AOT_stimuli/rescaled_final/0593_fw.mp4	0.0	350.97013425827026	
79	329.92435121536255	movie	1		272	77.0	2.5	/experiments/Knapen_AOT/AOT_stimuli/rescaled_final/0593_fw.mp4	0.0	351.3949763774872	2.4920499324798584
79	331.09855222702026	pulse	1	t		77.0	2.5	/experiments/Knapen_AOT/AOT_stimuli/rescaled_final/0593_fw.mp4	0.0	352.5691773891449	
79	332.4164011478424	fix_post	2		12	77.0	2.5	/experiments/Knapen_AOT/AOT_stimuli/rescaled_final/0593_fw.mp4	0.0	353.88702630996704	0.100067138671875
80	332.5164682865143	fix_pre	0		120	78.0	2.5	/experiments/Knapen_AOT/AOT_stimuli/rescaled_final/1061_rv.mp4	0.0	353.9870934486389	1.0084362030029297
80	332.6926612854004	pulse	0	t		78.0	2.5	/experiments/Knapen_AOT/AOT_stimuli/rescaled_final/1061_rv.mp4	0.0	354.163286447525	
80	333.5249044895172	movie	1		281	78.0	2.5	/experiments/Knapen_AOT/AOT_stimuli/rescaled_final/1061_rv.mp4	0.0	354.99552965164185	2.4920287132263184
80	334.29896330833435	pulse	1	t		78.0	2.5	/experiments/Knapen_AOT/AOT_stimuli/rescaled_final/1061_rv.mp4	0.0	355.769588470459	
80	335.8988025188446	pulse	1	t		78.0	2.5	/experiments/Knapen_AOT/AOT_stimuli/rescaled_final/1061_rv.mp4	0.0	357.36942768096924	
80	336.01693320274353	fix_post	2		12	78.0	2.5	/experiments/Knapen_AOT/AOT_stimuli/rescaled_final/1061_rv.mp4	0.0	357.48755836486816	0.09999823570251465
81	336.11693143844604	fix_pre	0		120	79.0	2.5	/experiments/Knapen_AOT/AOT_stimuli/rescaled_final/1302_rv.mp4	0.0	357.5875566005707	1.0084896087646484
81	337.1254210472107	movie	1		276	79.0	2.5	/experiments/Knapen_AOT/AOT_stimuli/rescaled_final/1302_rv.mp4	0.0	358.5960462093353	2.492175579071045
81	337.49274587631226	pulse	1	t		79.0	2.5	/experiments/Knapen_AOT/AOT_stimuli/rescaled_final/1302_rv.mp4	0.0	358.9633710384369	
81	339.0929284095764	pulse	1	t		79.0	2.5	/experiments/Knapen_AOT/AOT_stimuli/rescaled_final/1302_rv.mp4	0.0	360.56355357170105	
81	339.61759662628174	fix_post	2		12	79.0	2.5	/experiments/Knapen_AOT/AOT_stimuli/rescaled_final/1302_rv.mp4	0.0	361.0882217884064	0.09996390342712402
82	339.71756052970886	fix_pre	0		118	80.0	2.5	/experiments/Knapen_AOT/AOT_stimuli/rescaled_final/0852_rv.mp4	0.0	361.1881856918335	0.9917099475860596
82	340.6928324699402	pulse	0	t		80.0	2.5	/experiments/Knapen_AOT/AOT_stimuli/rescaled_final/0852_rv.mp4	0.0	362.1634576320648	
82	340.7092704772949	movie	1		268	80.0	2.5	/experiments/Knapen_AOT/AOT_stimuli/rescaled_final/0852_rv.mp4	0.0	362.17989563941956	2.5003767013549805
82	342.30183148384094	pulse	1	t		80.0	2.5	/experiments/Knapen_AOT/AOT_stimuli/rescaled_final/0852_rv.mp4	0.0	363.7724566459656	
82	343.2096471786499	fix_post	2		12	80.0	2.5	/experiments/Knapen_AOT/AOT_stimuli/rescaled_final/0852_rv.mp4	0.0	364.68027234077454	0.10001373291015625
83	343.30966091156006	fix_pre	0		120	81.0	2.5	/experiments/Knapen_AOT/AOT_stimuli/rescaled_final/1829_rv.mp4	0.0	364.7802860736847	1.0084984302520752
83	343.8933563232422	pulse	0	t		81.0	2.5	/experiments/Knapen_AOT/AOT_stimuli/rescaled_final/1829_rv.mp4	0.0	365.3639814853668	
83	344.31815934181213	movie	1		274	81.0	2.5	/experiments/Knapen_AOT/AOT_stimuli/rescaled_final/1829_rv.mp4	0.0	365.78878450393677	2.4920973777770996
83	345.49357652664185	pulse	1	t		81.0	2.5	/experiments/Knapen_AOT/AOT_stimuli/rescaled_final/1829_rv.mp4	0.0	366.9642016887665	
83	346.81025671958923	fix_post	2		12	81.0	2.5	/experiments/Knapen_AOT/AOT_stimuli/rescaled_final/1829_rv.mp4	0.0	368.28088188171387	0.09994816780090332
84	346.91020488739014	fix_pre	0		120	82.0	2.5	/experiments/Knapen_AOT/AOT_stimuli/rescaled_final/1050_rv.mp4	0.0	368.38083004951477	1.008516788482666
84	347.09386229515076	pulse	0	t		82.0	2.5	/experiments/Knapen_AOT/AOT_stimuli/rescaled_final/1050_rv.mp4	0.0	368.5644874572754	
84	347.9187216758728	movie	1		283	82.0	2.5	/experiments/Knapen_AOT/AOT_stimuli/rescaled_final/1050_rv.mp4	0.0	369.38934683799744	2.4920175075531006
84	348.6941268444061	pulse	1	t		82.0	2.5	/experiments/Knapen_AOT/AOT_stimuli/rescaled_final/1050_rv.mp4	0.0	370.16475200653076	
84	350.29396891593933	pulse	1	t		82.0	2.5	/experiments/Knapen_AOT/AOT_stimuli/rescaled_final/1050_rv.mp4	0.0	371.76459407806396	
84	350.4107391834259	fix_post	2		12	82.0	2.5	/experiments/Knapen_AOT/AOT_stimuli/rescaled_final/1050_rv.mp4	0.0	371.88136434555054	0.10000228881835938
85	350.51074147224426	fix_pre	0		120	83.0	2.5	blank	1.0	371.9813666343689	1.0001769065856934
85	351.51091837882996	movie	1		300	83.0	2.5	blank	1.0	372.9815435409546	2.500373125076294
85	351.89463448524475	pulse	1	t		83.0	2.5	blank	1.0	373.3652596473694	
85	353.495005607605	pulse	1	t		83.0	2.5	blank	1.0	374.9656307697296	
85	354.01129150390625	fix_post	2		12	83.0	2.5	blank	1.0	375.4819166660309	0.09998607635498047
87	354.11127758026123	stim	0		1715					375.58190274238586	14.293811082839966
87	355.0950608253479	pulse	0	t						376.56568598747253	
87	356.6952283382416	pulse	0	t						378.1658535003662	
87	358.29555463790894	pulse	0	t						379.76617980003357	
87	359.89570808410645	pulse	0	t						381.3663332462311	
87	361.49599957466125	pulse	0	t						382.9666247367859	
87	363.09620332717896	pulse	0	t						384.5668284893036	
87	364.6964604854584	pulse	0	t						386.167085647583	
87	366.296626329422	pulse	0	t						387.76725149154663	
87	367.89704275131226	pulse	0	t						389.3676679134369	
