trial_nr	onset	event_type	phase	response	nr_frames	movie_index	movie_duration	movie_file	blank	onset_abs	duration
0	0.14996004104614258	stim	0		133					36.83519196510315	1.108896017074585
0	1.2508420944213867	response	0	space						37.936074018478394	
1	1.2588560581207275	stim	0		5037					37.944087982177734	41.97475600242615
1	43.2271990776062	pulse	0	t						79.91243100166321	
1	43.233612060546875	stim	1		1717					79.91884398460388	14.308312892913818
1	44.825406074523926	pulse	1	t						81.51063799858093	
1	46.42532706260681	pulse	1	t						83.11055898666382	
1	48.02535605430603	pulse	1	t						84.71058797836304	
1	49.625405073165894	pulse	1	t						86.3106369972229	
1	51.22539710998535	pulse	1	t						87.91062903404236	
1	52.82535195350647	pulse	1	t						89.51058387756348	
1	54.42536401748657	pulse	1	t						91.11059594154358	
1	56.025344133377075	pulse	1	t						92.71057605743408	
2	57.54192495346069	fix_pre	0		11	0.0	2.5	/experiments/AOT/AOT_stimuli/rescaled_final/0804_fw.mp4	0.0	94.2271568775177	0.09160804748535156
2	57.62540602684021	pulse	0	t		0.0	2.5	/experiments/AOT/AOT_stimuli/rescaled_final/0804_fw.mp4	0.0	94.31063795089722	
2	57.633533000946045	movie	1		246	0.0	2.5	/experiments/AOT/AOT_stimuli/rescaled_final/0804_fw.mp4	0.0	94.31876492500305	2.5078670978546143
2	59.22477602958679	pulse	1	t		0.0	2.5	/experiments/AOT/AOT_stimuli/rescaled_final/0804_fw.mp4	0.0	95.9100079536438	
2	60.14140009880066	fix_post	2		12	0.0	2.5	/experiments/AOT/AOT_stimuli/rescaled_final/0804_fw.mp4	0.0	96.82663202285767	0.10040783882141113
3	60.24180793762207	fix_pre	0		120	1.0	2.5	/experiments/AOT/AOT_stimuli/rescaled_final/1009_rv.mp4	0.0	96.92703986167908	0.9995951652526855
3	60.82527494430542	pulse	0	t		1.0	2.5	/experiments/AOT/AOT_stimuli/rescaled_final/1009_rv.mp4	0.0	97.51050686836243	
3	61.241403102874756	movie	1		245	1.0	2.5	/experiments/AOT/AOT_stimuli/rescaled_final/1009_rv.mp4	0.0	97.92663502693176	2.5004148483276367
3	62.425408124923706	pulse	1	t		1.0	2.5	/experiments/AOT/AOT_stimuli/rescaled_final/1009_rv.mp4	0.0	99.11064004898071	
3	63.74181795120239	fix_post	2		12	1.0	2.5	/experiments/AOT/AOT_stimuli/rescaled_final/1009_rv.mp4	0.0	100.4270498752594	0.09955000877380371
4	63.841367959976196	fix_pre	0		120	2.0	2.5	/experiments/AOT/AOT_stimuli/rescaled_final/0905_rv.mp4	0.0	100.5265998840332	1.0004711151123047
4	64.02534198760986	pulse	0	t		2.0	2.5	/experiments/AOT/AOT_stimuli/rescaled_final/0905_rv.mp4	0.0	100.71057391166687	
4	64.8418390750885	movie	1		247	2.0	2.5	/experiments/AOT/AOT_stimuli/rescaled_final/0905_rv.mp4	0.0	101.52707099914551	2.4999890327453613
4	65.62529110908508	pulse	1	t		2.0	2.5	/experiments/AOT/AOT_stimuli/rescaled_final/0905_rv.mp4	0.0	102.31052303314209	
4	67.22531700134277	pulse	1	t		2.0	2.5	/experiments/AOT/AOT_stimuli/rescaled_final/0905_rv.mp4	0.0	103.91054892539978	
4	67.34182810783386	fix_post	2		12	2.0	2.5	/experiments/AOT/AOT_stimuli/rescaled_final/0905_rv.mp4	0.0	104.02706003189087	0.09993886947631836
5	67.44176697731018	fix_pre	0		120	3.0	2.5	/experiments/AOT/AOT_stimuli/rescaled_final/1916_fw.mp4	0.0	104.12699890136719	0.9999630451202393
5	68.44173002243042	movie	1		244	3.0	2.5	/experiments/AOT/AOT_stimuli/rescaled_final/1916_fw.mp4	0.0	105.12696194648743	2.4996190071105957
5	68.82498407363892	pulse	1	t		3.0	2.5	/experiments/AOT/AOT_stimuli/rescaled_final/1916_fw.mp4	0.0	105.51021599769592	
5	70.42533111572266	pulse	1	t		3.0	2.5	/experiments/AOT/AOT_stimuli/rescaled_final/1916_fw.mp4	0.0	107.11056303977966	
5	70.94134902954102	fix_post	2		12	3.0	2.5	/experiments/AOT/AOT_stimuli/rescaled_final/1916_fw.mp4	0.0	107.62658095359802	0.10037493705749512
6	71.04172396659851	fix_pre	0		119	4.0	2.5	/experiments/AOT/AOT_stimuli/rescaled_final/0537_fw.mp4	0.0	107.72695589065552	0.9917831420898438
6	72.0253701210022	pulse	0	t		4.0	2.5	/experiments/AOT/AOT_stimuli/rescaled_final/0537_fw.mp4	0.0	108.7106020450592	
6	72.03350710868835	movie	1		247	4.0	2.5	/experiments/AOT/AOT_stimuli/rescaled_final/0537_fw.mp4	0.0	108.71873903274536	2.5079009532928467
6	73.625559091568	pulse	1	t		4.0	2.5	/experiments/AOT/AOT_stimuli/rescaled_final/0537_fw.mp4	0.0	110.310791015625	
6	74.5414080619812	fix_post	2		12	4.0	2.5	/experiments/AOT/AOT_stimuli/rescaled_final/0537_fw.mp4	0.0	111.22663998603821	0.10048103332519531
7	74.6418890953064	fix_pre	0		120	5.0	2.5	/experiments/AOT/AOT_stimuli/rescaled_final/0814_rv.mp4	0.0	111.3271210193634	1.0000638961791992
7	75.2253999710083	pulse	0	t		5.0	2.5	/experiments/AOT/AOT_stimuli/rescaled_final/0814_rv.mp4	0.0	111.91063189506531	
7	75.6419529914856	movie	1		245	5.0	2.5	/experiments/AOT/AOT_stimuli/rescaled_final/0814_rv.mp4	0.0	112.3271849155426	2.4998419284820557
7	76.82528305053711	pulse	1	t		5.0	2.5	/experiments/AOT/AOT_stimuli/rescaled_final/0814_rv.mp4	0.0	113.51051497459412	
7	78.14179491996765	fix_post	2		12	5.0	2.5	/experiments/AOT/AOT_stimuli/rescaled_final/0814_rv.mp4	0.0	114.82702684402466	0.10002899169921875
8	78.24182391166687	fix_pre	0		120	6.0	2.5	blank	1.0	114.92705583572388	0.9999890327453613
8	78.42536211013794	pulse	0	t		6.0	2.5	blank	1.0	115.11059403419495	
8	79.24181294441223	movie	1		300	6.0	2.5	blank	1.0	115.92704486846924	2.4998979568481445
8	80.0252149105072	pulse	1	t		6.0	2.5	blank	1.0	116.71044683456421	
8	81.6251859664917	pulse	1	t		6.0	2.5	blank	1.0	118.3104178905487	
8	81.74171090126038	fix_post	2		12	6.0	2.5	blank	1.0	118.42694282531738	0.09999918937683105
9	81.8417100906372	fix_pre	0		120	7.0	2.5	/experiments/AOT/AOT_stimuli/rescaled_final/0548_fw.mp4	0.0	118.52694201469421	0.9999909400939941
9	82.8417010307312	movie	1		252	7.0	2.5	/experiments/AOT/AOT_stimuli/rescaled_final/0548_fw.mp4	0.0	119.52693295478821	2.4999780654907227
9	83.22481298446655	pulse	1	t		7.0	2.5	/experiments/AOT/AOT_stimuli/rescaled_final/0548_fw.mp4	0.0	119.91004490852356	
9	84.82517099380493	pulse	1	t		7.0	2.5	/experiments/AOT/AOT_stimuli/rescaled_final/0548_fw.mp4	0.0	121.51040291786194	
9	85.34167909622192	fix_post	2		12	7.0	2.5	/experiments/AOT/AOT_stimuli/rescaled_final/0548_fw.mp4	0.0	122.02691102027893	0.09961390495300293
10	85.44129300117493	fix_pre	0		119	8.0	2.5	/experiments/AOT/AOT_stimuli/rescaled_final/1342_fw.mp4	0.0	122.12652492523193	0.9920260906219482
10	86.42528891563416	pulse	0	t		8.0	2.5	/experiments/AOT/AOT_stimuli/rescaled_final/1342_fw.mp4	0.0	123.11052083969116	
10	86.43331909179688	movie	1		246	8.0	2.5	/experiments/AOT/AOT_stimuli/rescaled_final/1342_fw.mp4	0.0	123.11855101585388	2.5083398818969727
10	88.02483892440796	pulse	1	t		8.0	2.5	/experiments/AOT/AOT_stimuli/rescaled_final/1342_fw.mp4	0.0	124.71007084846497	
10	88.94165897369385	fix_post	2		12	8.0	2.5	/experiments/AOT/AOT_stimuli/rescaled_final/1342_fw.mp4	0.0	125.62689089775085	0.10004806518554688
11	89.0417070388794	fix_pre	0		120	9.0	2.5	/experiments/AOT/AOT_stimuli/rescaled_final/1365_rv.mp4	0.0	125.7269389629364	0.9999070167541504
11	89.62514996528625	pulse	0	t		9.0	2.5	/experiments/AOT/AOT_stimuli/rescaled_final/1365_rv.mp4	0.0	126.31038188934326	
11	90.04161405563354	movie	1		245	9.0	2.5	/experiments/AOT/AOT_stimuli/rescaled_final/1365_rv.mp4	0.0	126.72684597969055	2.5000998973846436
11	91.22523403167725	pulse	1	t		9.0	2.5	/experiments/AOT/AOT_stimuli/rescaled_final/1365_rv.mp4	0.0	127.91046595573425	
11	92.54171395301819	fix_post	2		12	9.0	2.5	/experiments/AOT/AOT_stimuli/rescaled_final/1365_rv.mp4	0.0	129.2269458770752	0.09992599487304688
12	92.64163994789124	fix_pre	0		120	10.0	2.5	/experiments/AOT/AOT_stimuli/rescaled_final/1281_fw.mp4	0.0	129.32687187194824	1.0000941753387451
12	92.82515406608582	pulse	0	t		10.0	2.5	/experiments/AOT/AOT_stimuli/rescaled_final/1281_fw.mp4	0.0	129.51038599014282	
12	93.64173412322998	movie	1		245	10.0	2.5	/experiments/AOT/AOT_stimuli/rescaled_final/1281_fw.mp4	0.0	130.326966047287	2.5000078678131104
12	94.42513990402222	pulse	1	t		10.0	2.5	/experiments/AOT/AOT_stimuli/rescaled_final/1281_fw.mp4	0.0	131.11037182807922	
12	96.02519702911377	pulse	1	t		10.0	2.5	/experiments/AOT/AOT_stimuli/rescaled_final/1281_fw.mp4	0.0	132.71042895317078	
12	96.14174199104309	fix_post	2		12	10.0	2.5	/experiments/AOT/AOT_stimuli/rescaled_final/1281_fw.mp4	0.0	132.8269739151001	0.09998607635498047
13	96.24172806739807	fix_pre	0		120	11.0	2.5	/experiments/AOT/AOT_stimuli/rescaled_final/0225_rv.mp4	0.0	132.92695999145508	0.9999659061431885
13	97.24169397354126	movie	1		243	11.0	2.5	/experiments/AOT/AOT_stimuli/rescaled_final/0225_rv.mp4	0.0	133.92692589759827	2.500020980834961
13	97.62501096725464	pulse	1	t		11.0	2.5	/experiments/AOT/AOT_stimuli/rescaled_final/0225_rv.mp4	0.0	134.31024289131165	
13	99.22516798973083	pulse	1	t		11.0	2.5	/experiments/AOT/AOT_stimuli/rescaled_final/0225_rv.mp4	0.0	135.91039991378784	
13	99.74171495437622	fix_post	2		12	11.0	2.5	/experiments/AOT/AOT_stimuli/rescaled_final/0225_rv.mp4	0.0	136.42694687843323	0.10003805160522461
14	99.84175300598145	fix_pre	0		119	12.0	2.5	blank	1.0	136.52698493003845	0.991523027420044
14	100.82518911361694	pulse	0	t		12.0	2.5	blank	1.0	137.51042103767395	
14	100.83327603340149	movie	1		301	12.0	2.5	blank	1.0	137.5185079574585	2.508344888687134
14	102.42514395713806	pulse	1	t		12.0	2.5	blank	1.0	139.11037588119507	
14	103.34162092208862	fix_post	2		12	12.0	2.5	blank	1.0	140.02685284614563	0.09960103034973145
15	103.44122195243835	fix_pre	0		120	13.0	2.5	/experiments/AOT/AOT_stimuli/rescaled_final/0791_rv.mp4	0.0	140.12645387649536	1.0004370212554932
15	104.02511405944824	pulse	0	t		13.0	2.5	/experiments/AOT/AOT_stimuli/rescaled_final/0791_rv.mp4	0.0	140.71034598350525	
15	104.44165897369385	movie	1		247	13.0	2.5	/experiments/AOT/AOT_stimuli/rescaled_final/0791_rv.mp4	0.0	141.12689089775085	2.499920129776001
15	105.62521290779114	pulse	1	t		13.0	2.5	/experiments/AOT/AOT_stimuli/rescaled_final/0791_rv.mp4	0.0	142.31044483184814	
15	106.94157910346985	fix_post	2		12	13.0	2.5	/experiments/AOT/AOT_stimuli/rescaled_final/0791_rv.mp4	0.0	143.62681102752686	0.0996248722076416
16	107.04120397567749	fix_pre	0		120	14.0	2.5	/experiments/AOT/AOT_stimuli/rescaled_final/0809_rv.mp4	0.0	143.7264358997345	1.0004539489746094
16	107.2251410484314	pulse	0	t		14.0	2.5	/experiments/AOT/AOT_stimuli/rescaled_final/0809_rv.mp4	0.0	143.9103729724884	
16	108.0416579246521	movie	1		245	14.0	2.5	/experiments/AOT/AOT_stimuli/rescaled_final/0809_rv.mp4	0.0	144.7268898487091	2.4999160766601562
16	108.82512903213501	pulse	1	t		14.0	2.5	/experiments/AOT/AOT_stimuli/rescaled_final/0809_rv.mp4	0.0	145.51036095619202	
16	110.42370009422302	pulse	1	t		14.0	2.5	/experiments/AOT/AOT_stimuli/rescaled_final/0809_rv.mp4	0.0	147.10893201828003	
16	110.54157400131226	fix_post	2		12	14.0	2.5	/experiments/AOT/AOT_stimuli/rescaled_final/0809_rv.mp4	0.0	147.22680592536926	0.09996604919433594
17	110.64154005050659	fix_pre	0		120	15.0	2.5	/experiments/AOT/AOT_stimuli/rescaled_final/0362_fw.mp4	0.0	147.3267719745636	0.999640941619873
17	111.64118099212646	movie	1		245	15.0	2.5	/experiments/AOT/AOT_stimuli/rescaled_final/0362_fw.mp4	0.0	148.32641291618347	2.500404119491577
17	112.02469396591187	pulse	1	t		15.0	2.5	/experiments/AOT/AOT_stimuli/rescaled_final/0362_fw.mp4	0.0	148.70992588996887	
17	113.62499499320984	pulse	1	t		15.0	2.5	/experiments/AOT/AOT_stimuli/rescaled_final/0362_fw.mp4	0.0	150.31022691726685	
17	114.14158511161804	fix_post	2		12	15.0	2.5	/experiments/AOT/AOT_stimuli/rescaled_final/0362_fw.mp4	0.0	150.82681703567505	0.09955096244812012
18	114.24113607406616	fix_pre	0		119	16.0	2.5	/experiments/AOT/AOT_stimuli/rescaled_final/0752_fw.mp4	0.0	150.92636799812317	0.992156982421875
18	115.22513198852539	pulse	0	t		16.0	2.5	/experiments/AOT/AOT_stimuli/rescaled_final/0752_fw.mp4	0.0	151.9103639125824	
18	115.23329305648804	movie	1		247	16.0	2.5	/experiments/AOT/AOT_stimuli/rescaled_final/0752_fw.mp4	0.0	151.91852498054504	2.5078189373016357
18	116.82514595985413	pulse	1	t		16.0	2.5	/experiments/AOT/AOT_stimuli/rescaled_final/0752_fw.mp4	0.0	153.51037788391113	
18	117.74111199378967	fix_post	2		12	16.0	2.5	/experiments/AOT/AOT_stimuli/rescaled_final/0752_fw.mp4	0.0	154.42634391784668	0.10042810440063477
19	117.84154009819031	fix_pre	0		120	17.0	2.5	/experiments/AOT/AOT_stimuli/rescaled_final/0588_rv.mp4	0.0	154.52677202224731	0.9999809265136719
19	118.42498302459717	pulse	0	t		17.0	2.5	/experiments/AOT/AOT_stimuli/rescaled_final/0588_rv.mp4	0.0	155.11021494865417	
19	118.84152102470398	movie	1		244	17.0	2.5	/experiments/AOT/AOT_stimuli/rescaled_final/0588_rv.mp4	0.0	155.526752948761	2.499964952468872
19	120.02522301673889	pulse	1	t		17.0	2.5	/experiments/AOT/AOT_stimuli/rescaled_final/0588_rv.mp4	0.0	156.7104549407959	
19	121.34148597717285	fix_post	2		12	17.0	2.5	/experiments/AOT/AOT_stimuli/rescaled_final/0588_rv.mp4	0.0	158.02671790122986	0.10006499290466309
20	121.44155097007751	fix_pre	0		120	18.0	2.5	/experiments/AOT/AOT_stimuli/rescaled_final/1722_rv.mp4	0.0	158.12678289413452	0.9999721050262451
20	121.62508511543274	pulse	0	t		18.0	2.5	/experiments/AOT/AOT_stimuli/rescaled_final/1722_rv.mp4	0.0	158.31031703948975	
20	122.44152307510376	movie	1		243	18.0	2.5	/experiments/AOT/AOT_stimuli/rescaled_final/1722_rv.mp4	0.0	159.12675499916077	2.499940872192383
20	123.22503709793091	pulse	1	t		18.0	2.5	/experiments/AOT/AOT_stimuli/rescaled_final/1722_rv.mp4	0.0	159.91026902198792	
20	124.82364106178284	pulse	1	t		18.0	2.5	/experiments/AOT/AOT_stimuli/rescaled_final/1722_rv.mp4	0.0	161.50887298583984	
20	124.94146394729614	fix_post	2		12	18.0	2.5	/experiments/AOT/AOT_stimuli/rescaled_final/1722_rv.mp4	0.0	161.62669587135315	0.09967207908630371
21	125.04113602638245	fix_pre	0		120	19.0	2.5	blank	1.0	161.72636795043945	1.0004730224609375
21	126.04160904884338	movie	1		300	19.0	2.5	blank	1.0	162.7268409729004	2.4999749660491943
21	126.42496991157532	pulse	1	t		19.0	2.5	blank	1.0	163.11020183563232	
21	128.0250380039215	pulse	1	t		19.0	2.5	blank	1.0	164.71026992797852	
21	128.54158401489258	fix_post	2		12	19.0	2.5	blank	1.0	165.22681593894958	0.09999704360961914
22	128.6415810585022	fix_pre	0		119	20.0	2.5	/experiments/AOT/AOT_stimuli/rescaled_final/1767_rv.mp4	0.0	165.3268129825592	0.9916510581970215
22	129.6250810623169	pulse	0	t		20.0	2.5	/experiments/AOT/AOT_stimuli/rescaled_final/1767_rv.mp4	0.0	166.3103129863739	
22	129.63323211669922	movie	1		247	20.0	2.5	/experiments/AOT/AOT_stimuli/rescaled_final/1767_rv.mp4	0.0	166.31846404075623	2.508220911026001
22	131.22452211380005	pulse	1	t		20.0	2.5	/experiments/AOT/AOT_stimuli/rescaled_final/1767_rv.mp4	0.0	167.90975403785706	
22	132.14145302772522	fix_post	2		12	20.0	2.5	/experiments/AOT/AOT_stimuli/rescaled_final/1767_rv.mp4	0.0	168.82668495178223	0.09991288185119629
23	132.24136590957642	fix_pre	0		120	21.0	2.5	/experiments/AOT/AOT_stimuli/rescaled_final/1558_rv.mp4	0.0	168.92659783363342	1.0001840591430664
23	132.82494807243347	pulse	0	t		21.0	2.5	/experiments/AOT/AOT_stimuli/rescaled_final/1558_rv.mp4	0.0	169.51017999649048	
23	133.24154996871948	movie	1		246	21.0	2.5	/experiments/AOT/AOT_stimuli/rescaled_final/1558_rv.mp4	0.0	169.9267818927765	2.5000481605529785
23	134.42507910728455	pulse	1	t		21.0	2.5	/experiments/AOT/AOT_stimuli/rescaled_final/1558_rv.mp4	0.0	171.11031103134155	
23	135.74159812927246	fix_post	2		12	21.0	2.5	/experiments/AOT/AOT_stimuli/rescaled_final/1558_rv.mp4	0.0	172.42683005332947	0.09943890571594238
24	135.8410370349884	fix_pre	0		120	22.0	2.5	/experiments/AOT/AOT_stimuli/rescaled_final/1109_rv.mp4	0.0	172.5262689590454	1.0004830360412598
24	136.02505803108215	pulse	0	t		22.0	2.5	/experiments/AOT/AOT_stimuli/rescaled_final/1109_rv.mp4	0.0	172.71028995513916	
24	136.84152007102966	movie	1		243	22.0	2.5	/experiments/AOT/AOT_stimuli/rescaled_final/1109_rv.mp4	0.0	173.52675199508667	2.499959945678711
24	137.62484502792358	pulse	1	t		22.0	2.5	/experiments/AOT/AOT_stimuli/rescaled_final/1109_rv.mp4	0.0	174.3100769519806	
24	139.22388410568237	pulse	1	t		22.0	2.5	/experiments/AOT/AOT_stimuli/rescaled_final/1109_rv.mp4	0.0	175.90911602973938	
24	139.34148001670837	fix_post	2		12	22.0	2.5	/experiments/AOT/AOT_stimuli/rescaled_final/1109_rv.mp4	0.0	176.02671194076538	0.09993195533752441
25	139.4414119720459	fix_pre	0		120	23.0	2.5	/experiments/AOT/AOT_stimuli/rescaled_final/1537_rv.mp4	0.0	176.1266438961029	1.0000529289245605
25	140.44146490097046	movie	1		244	23.0	2.5	/experiments/AOT/AOT_stimuli/rescaled_final/1537_rv.mp4	0.0	177.12669682502747	2.5000150203704834
25	140.8249831199646	pulse	1	t		23.0	2.5	/experiments/AOT/AOT_stimuli/rescaled_final/1537_rv.mp4	0.0	177.5102150440216	
25	142.4249529838562	pulse	1	t		23.0	2.5	/experiments/AOT/AOT_stimuli/rescaled_final/1537_rv.mp4	0.0	179.1101849079132	
25	142.94147992134094	fix_post	2		12	23.0	2.5	/experiments/AOT/AOT_stimuli/rescaled_final/1537_rv.mp4	0.0	179.62671184539795	0.10001516342163086
26	143.04149508476257	fix_pre	0		119	24.0	2.5	/experiments/AOT/AOT_stimuli/rescaled_final/2108_rv.mp4	0.0	179.72672700881958	0.991549015045166
26	144.02491998672485	pulse	0	t		24.0	2.5	/experiments/AOT/AOT_stimuli/rescaled_final/2108_rv.mp4	0.0	180.71015191078186	
26	144.03304409980774	movie	1		246	24.0	2.5	/experiments/AOT/AOT_stimuli/rescaled_final/2108_rv.mp4	0.0	180.71827602386475	2.507943868637085
26	145.62517309188843	pulse	1	t		24.0	2.5	/experiments/AOT/AOT_stimuli/rescaled_final/2108_rv.mp4	0.0	182.31040501594543	
26	146.54098796844482	fix_post	2		12	24.0	2.5	/experiments/AOT/AOT_stimuli/rescaled_final/2108_rv.mp4	0.0	183.22621989250183	0.10038495063781738
27	146.64137291908264	fix_pre	0		120	25.0	2.5	/experiments/AOT/AOT_stimuli/rescaled_final/0018_fw.mp4	0.0	183.32660484313965	1.000007152557373
27	147.22497701644897	pulse	0	t		25.0	2.5	/experiments/AOT/AOT_stimuli/rescaled_final/0018_fw.mp4	0.0	183.91020894050598	
27	147.64138007164001	movie	1		248	25.0	2.5	/experiments/AOT/AOT_stimuli/rescaled_final/0018_fw.mp4	0.0	184.32661199569702	2.500025987625122
27	148.82498407363892	pulse	1	t		25.0	2.5	/experiments/AOT/AOT_stimuli/rescaled_final/0018_fw.mp4	0.0	185.51021599769592	
27	150.14140605926514	fix_post	2		12	25.0	2.5	/experiments/AOT/AOT_stimuli/rescaled_final/0018_fw.mp4	0.0	186.82663798332214	0.10001492500305176
28	150.2414209842682	fix_pre	0		120	26.0	2.5	blank	1.0	186.9266529083252	0.9994950294494629
28	150.4249439239502	pulse	0	t		26.0	2.5	blank	1.0	187.1101758480072	
28	151.24091601371765	movie	1		300	26.0	2.5	blank	1.0	187.92614793777466	2.500494956970215
28	152.02489709854126	pulse	1	t		26.0	2.5	blank	1.0	188.71012902259827	
28	153.62485194206238	pulse	1	t		26.0	2.5	blank	1.0	190.31008386611938	
28	153.74141097068787	fix_post	2		12	26.0	2.5	blank	1.0	190.42664289474487	0.09996509552001953
29	153.84137606620789	fix_pre	0		120	27.0	2.5	/experiments/AOT/AOT_stimuli/rescaled_final/0698_fw.mp4	0.0	190.5266079902649	0.9995758533477783
29	154.84095191955566	movie	1		245	27.0	2.5	/experiments/AOT/AOT_stimuli/rescaled_final/0698_fw.mp4	0.0	191.52618384361267	2.4999701976776123
29	155.22499990463257	pulse	1	t		27.0	2.5	/experiments/AOT/AOT_stimuli/rescaled_final/0698_fw.mp4	0.0	191.91023182868958	
29	156.82487201690674	pulse	1	t		27.0	2.5	/experiments/AOT/AOT_stimuli/rescaled_final/0698_fw.mp4	0.0	193.51010394096375	
29	157.34092211723328	fix_post	2		12	27.0	2.5	/experiments/AOT/AOT_stimuli/rescaled_final/0698_fw.mp4	0.0	194.02615404129028	0.10051989555358887
30	157.44144201278687	fix_pre	0		119	28.0	2.5	/experiments/AOT/AOT_stimuli/rescaled_final/1914_rv.mp4	0.0	194.12667393684387	0.9915919303894043
30	158.4248321056366	pulse	0	t		28.0	2.5	/experiments/AOT/AOT_stimuli/rescaled_final/1914_rv.mp4	0.0	195.1100640296936	
30	158.43303394317627	movie	1		246	28.0	2.5	/experiments/AOT/AOT_stimuli/rescaled_final/1914_rv.mp4	0.0	195.11826586723328	2.508268117904663
30	160.02593612670898	pulse	1	t		28.0	2.5	/experiments/AOT/AOT_stimuli/rescaled_final/1914_rv.mp4	0.0	196.711168050766	
30	160.94130206108093	fix_post	2		12	28.0	2.5	/experiments/AOT/AOT_stimuli/rescaled_final/1914_rv.mp4	0.0	197.62653398513794	0.10007190704345703
31	161.0413739681244	fix_pre	0		120	29.0	2.5	/experiments/AOT/AOT_stimuli/rescaled_final/2061_fw.mp4	0.0	197.7266058921814	0.9999761581420898
31	161.62490510940552	pulse	0	t		29.0	2.5	/experiments/AOT/AOT_stimuli/rescaled_final/2061_fw.mp4	0.0	198.31013703346252	
31	162.04135012626648	movie	1		244	29.0	2.5	/experiments/AOT/AOT_stimuli/rescaled_final/2061_fw.mp4	0.0	198.7265820503235	2.499969959259033
31	163.2248558998108	pulse	1	t		29.0	2.5	/experiments/AOT/AOT_stimuli/rescaled_final/2061_fw.mp4	0.0	199.9100878238678	
31	164.5413200855255	fix_post	2		12	29.0	2.5	/experiments/AOT/AOT_stimuli/rescaled_final/2061_fw.mp4	0.0	201.22655200958252	0.10000801086425781
32	164.64132809638977	fix_pre	0		120	30.0	2.5	/experiments/AOT/AOT_stimuli/rescaled_final/0526_rv.mp4	0.0	201.32656002044678	0.9999840259552002
32	164.8249111175537	pulse	0	t		30.0	2.5	/experiments/AOT/AOT_stimuli/rescaled_final/0526_rv.mp4	0.0	201.51014304161072	
32	165.64131212234497	movie	1		245	30.0	2.5	/experiments/AOT/AOT_stimuli/rescaled_final/0526_rv.mp4	0.0	202.32654404640198	2.4996659755706787
32	166.4248321056366	pulse	1	t		30.0	2.5	/experiments/AOT/AOT_stimuli/rescaled_final/0526_rv.mp4	0.0	203.1100640296936	
32	168.02439999580383	pulse	1	t		30.0	2.5	/experiments/AOT/AOT_stimuli/rescaled_final/0526_rv.mp4	0.0	204.70963191986084	
32	168.14097809791565	fix_post	2		12	30.0	2.5	/experiments/AOT/AOT_stimuli/rescaled_final/0526_rv.mp4	0.0	204.82621002197266	0.10034489631652832
33	168.24132299423218	fix_pre	0		120	31.0	2.5	/experiments/AOT/AOT_stimuli/rescaled_final/0905_fw.mp4	0.0	204.92655491828918	1.0000641345977783
33	169.24138712882996	movie	1		249	31.0	2.5	/experiments/AOT/AOT_stimuli/rescaled_final/0905_fw.mp4	0.0	205.92661905288696	2.499945878982544
33	169.6249189376831	pulse	1	t		31.0	2.5	/experiments/AOT/AOT_stimuli/rescaled_final/0905_fw.mp4	0.0	206.3101508617401	
33	171.224760055542	pulse	1	t		31.0	2.5	/experiments/AOT/AOT_stimuli/rescaled_final/0905_fw.mp4	0.0	207.909991979599	
33	171.7413330078125	fix_post	2		12	31.0	2.5	/experiments/AOT/AOT_stimuli/rescaled_final/0905_fw.mp4	0.0	208.4265649318695	0.09967589378356934
34	171.84100890159607	fix_pre	0		119	32.0	2.5	/experiments/AOT/AOT_stimuli/rescaled_final/1916_rv.mp4	0.0	208.52624082565308	0.9920711517333984
34	172.82483291625977	pulse	0	t		32.0	2.5	/experiments/AOT/AOT_stimuli/rescaled_final/1916_rv.mp4	0.0	209.51006484031677	
34	172.83308005332947	movie	1		245	32.0	2.5	/experiments/AOT/AOT_stimuli/rescaled_final/1916_rv.mp4	0.0	209.51831197738647	2.508172035217285
34	174.42431807518005	pulse	1	t		32.0	2.5	/experiments/AOT/AOT_stimuli/rescaled_final/1916_rv.mp4	0.0	211.10954999923706	
34	175.34125208854675	fix_post	2		12	32.0	2.5	/experiments/AOT/AOT_stimuli/rescaled_final/1916_rv.mp4	0.0	212.02648401260376	0.09996891021728516
35	175.44122099876404	fix_pre	0		120	33.0	2.5	/experiments/AOT/AOT_stimuli/rescaled_final/0084_fw.mp4	0.0	212.12645292282104	0.999669075012207
35	176.02487707138062	pulse	0	t		33.0	2.5	/experiments/AOT/AOT_stimuli/rescaled_final/0084_fw.mp4	0.0	212.71010899543762	
35	176.44089007377625	movie	1		245	33.0	2.5	/experiments/AOT/AOT_stimuli/rescaled_final/0084_fw.mp4	0.0	213.12612199783325	2.4999020099639893
35	177.6248059272766	pulse	1	t		33.0	2.5	/experiments/AOT/AOT_stimuli/rescaled_final/0084_fw.mp4	0.0	214.31003785133362	
35	178.94079208374023	fix_post	2		12	33.0	2.5	/experiments/AOT/AOT_stimuli/rescaled_final/0084_fw.mp4	0.0	215.62602400779724	0.10052490234375
36	179.04131698608398	fix_pre	0		120	34.0	2.5	/experiments/AOT/AOT_stimuli/rescaled_final/0611_fw.mp4	0.0	215.726548910141	0.9999420642852783
36	179.224769115448	pulse	0	t		34.0	2.5	/experiments/AOT/AOT_stimuli/rescaled_final/0611_fw.mp4	0.0	215.910001039505	
36	180.04125905036926	movie	1		244	34.0	2.5	/experiments/AOT/AOT_stimuli/rescaled_final/0611_fw.mp4	0.0	216.72649097442627	2.500067949295044
36	180.82475209236145	pulse	1	t		34.0	2.5	/experiments/AOT/AOT_stimuli/rescaled_final/0611_fw.mp4	0.0	217.50998401641846	
36	182.42323994636536	pulse	1	t		34.0	2.5	/experiments/AOT/AOT_stimuli/rescaled_final/0611_fw.mp4	0.0	219.10847187042236	
36	182.5413269996643	fix_post	2		12	34.0	2.5	/experiments/AOT/AOT_stimuli/rescaled_final/0611_fw.mp4	0.0	219.2265589237213	0.09993910789489746
37	182.6412661075592	fix_pre	0		120	35.0	2.5	blank	1.0	219.3264980316162	0.9999988079071045
37	183.6412649154663	movie	1		300	35.0	2.5	blank	1.0	220.32649683952332	2.4995760917663574
37	184.02489495277405	pulse	1	t		35.0	2.5	blank	1.0	220.71012687683105	
37	185.6244261264801	pulse	1	t		35.0	2.5	blank	1.0	222.3096580505371	
37	186.14084100723267	fix_post	2		12	35.0	2.5	blank	1.0	222.82607293128967	0.10005402565002441
38	186.2408950328827	fix_pre	0		119	36.0	2.5	/experiments/AOT/AOT_stimuli/rescaled_final/0528_rv.mp4	0.0	222.9261269569397	0.9917469024658203
38	187.22451901435852	pulse	0	t		36.0	2.5	/experiments/AOT/AOT_stimuli/rescaled_final/0528_rv.mp4	0.0	223.90975093841553	
38	187.2326419353485	movie	1		247	36.0	2.5	/experiments/AOT/AOT_stimuli/rescaled_final/0528_rv.mp4	0.0	223.91787385940552	2.5085840225219727
38	188.82411813735962	pulse	1	t		36.0	2.5	/experiments/AOT/AOT_stimuli/rescaled_final/0528_rv.mp4	0.0	225.50935006141663	
38	189.74122595787048	fix_post	2		12	36.0	2.5	/experiments/AOT/AOT_stimuli/rescaled_final/0528_rv.mp4	0.0	226.4264578819275	0.1000211238861084
39	189.8412470817566	fix_pre	0		120	37.0	2.5	/experiments/AOT/AOT_stimuli/rescaled_final/0408_rv.mp4	0.0	226.5264790058136	0.9999430179595947
39	190.42475295066833	pulse	0	t		37.0	2.5	/experiments/AOT/AOT_stimuli/rescaled_final/0408_rv.mp4	0.0	227.10998487472534	
39	190.8411900997162	movie	1		246	37.0	2.5	/experiments/AOT/AOT_stimuli/rescaled_final/0408_rv.mp4	0.0	227.5264220237732	2.4995858669281006
39	192.02475690841675	pulse	1	t		37.0	2.5	/experiments/AOT/AOT_stimuli/rescaled_final/0408_rv.mp4	0.0	228.70998883247375	
39	193.3407759666443	fix_post	2		12	37.0	2.5	/experiments/AOT/AOT_stimuli/rescaled_final/0408_rv.mp4	0.0	230.0260078907013	0.10039401054382324
40	193.4411699771881	fix_pre	0		120	38.0	2.5	/experiments/AOT/AOT_stimuli/rescaled_final/0821_fw.mp4	0.0	230.12640190124512	0.9999921321868896
40	193.62464308738708	pulse	0	t		38.0	2.5	/experiments/AOT/AOT_stimuli/rescaled_final/0821_fw.mp4	0.0	230.3098750114441	
40	194.441162109375	movie	1		247	38.0	2.5	/experiments/AOT/AOT_stimuli/rescaled_final/0821_fw.mp4	0.0	231.126394033432	2.499642848968506
40	195.224613904953	pulse	1	t		38.0	2.5	/experiments/AOT/AOT_stimuli/rescaled_final/0821_fw.mp4	0.0	231.90984582901	
40	196.82459998130798	pulse	1	t		38.0	2.5	/experiments/AOT/AOT_stimuli/rescaled_final/0821_fw.mp4	0.0	233.509831905365	
40	196.9408049583435	fix_post	2		12	38.0	2.5	/experiments/AOT/AOT_stimuli/rescaled_final/0821_fw.mp4	0.0	233.6260368824005	0.10037016868591309
41	197.04117512702942	fix_pre	0		120	39.0	2.5	/experiments/AOT/AOT_stimuli/rescaled_final/0552_fw.mp4	0.0	233.72640705108643	1.0000269412994385
41	198.04120206832886	movie	1		247	39.0	2.5	/experiments/AOT/AOT_stimuli/rescaled_final/0552_fw.mp4	0.0	234.72643399238586	2.499959945678711
41	198.42410397529602	pulse	1	t		39.0	2.5	/experiments/AOT/AOT_stimuli/rescaled_final/0552_fw.mp4	0.0	235.10933589935303	
41	200.0246660709381	pulse	1	t		39.0	2.5	/experiments/AOT/AOT_stimuli/rescaled_final/0552_fw.mp4	0.0	236.70989799499512	
41	200.54116201400757	fix_post	2		12	39.0	2.5	/experiments/AOT/AOT_stimuli/rescaled_final/0552_fw.mp4	0.0	237.22639393806458	0.10002589225769043
42	200.64118790626526	fix_pre	0		119	40.0	2.5	/experiments/AOT/AOT_stimuli/rescaled_final/1650_rv.mp4	0.0	237.32641983032227	0.9915740489959717
42	201.6247260570526	pulse	0	t		40.0	2.5	/experiments/AOT/AOT_stimuli/rescaled_final/1650_rv.mp4	0.0	238.30995798110962	
42	201.63276195526123	movie	1		245	40.0	2.5	/experiments/AOT/AOT_stimuli/rescaled_final/1650_rv.mp4	0.0	238.31799387931824	2.5084481239318848
42	203.22439098358154	pulse	1	t		40.0	2.5	/experiments/AOT/AOT_stimuli/rescaled_final/1650_rv.mp4	0.0	239.90962290763855	
42	204.14121007919312	fix_post	2		12	40.0	2.5	/experiments/AOT/AOT_stimuli/rescaled_final/1650_rv.mp4	0.0	240.82644200325012	0.09992599487304688
43	204.24113607406616	fix_pre	0		120	41.0	2.5	blank	1.0	240.92636799812317	0.999945878982544
43	204.82467603683472	pulse	0	t		41.0	2.5	blank	1.0	241.50990796089172	
43	205.2410819530487	movie	1		300	41.0	2.5	blank	1.0	241.9263138771057	2.5000250339508057
43	206.42469310760498	pulse	1	t		41.0	2.5	blank	1.0	243.109925031662	
43	207.7411069869995	fix_post	2		12	41.0	2.5	blank	1.0	244.42633891105652	0.09999608993530273
44	207.84110307693481	fix_pre	0		120	42.0	2.5	/experiments/AOT/AOT_stimuli/rescaled_final/0680_fw.mp4	0.0	244.52633500099182	1.0000300407409668
44	208.02466297149658	pulse	0	t		42.0	2.5	/experiments/AOT/AOT_stimuli/rescaled_final/0680_fw.mp4	0.0	244.7098948955536	
44	208.84113311767578	movie	1		243	42.0	2.5	/experiments/AOT/AOT_stimuli/rescaled_final/0680_fw.mp4	0.0	245.5263650417328	2.4999399185180664
44	209.6247079372406	pulse	1	t		42.0	2.5	/experiments/AOT/AOT_stimuli/rescaled_final/0680_fw.mp4	0.0	246.3099398612976	
44	211.22345495224	pulse	1	t		42.0	2.5	/experiments/AOT/AOT_stimuli/rescaled_final/0680_fw.mp4	0.0	247.908686876297	
44	211.34107303619385	fix_post	2		12	42.0	2.5	/experiments/AOT/AOT_stimuli/rescaled_final/0680_fw.mp4	0.0	248.02630496025085	0.10004186630249023
45	211.44111490249634	fix_pre	0		120	43.0	2.5	/experiments/AOT/AOT_stimuli/rescaled_final/0257_fw.mp4	0.0	248.12634682655334	1.0
45	212.44111490249634	movie	1		243	43.0	2.5	/experiments/AOT/AOT_stimuli/rescaled_final/0257_fw.mp4	0.0	249.12634682655334	2.499951124191284
45	212.8255500793457	pulse	1	t		43.0	2.5	/experiments/AOT/AOT_stimuli/rescaled_final/0257_fw.mp4	0.0	249.5107820034027	
45	214.42453813552856	pulse	1	t		43.0	2.5	/experiments/AOT/AOT_stimuli/rescaled_final/0257_fw.mp4	0.0	251.10977005958557	
45	214.94106602668762	fix_post	2		12	43.0	2.5	/experiments/AOT/AOT_stimuli/rescaled_final/0257_fw.mp4	0.0	251.62629795074463	0.10016202926635742
46	215.04122805595398	fix_pre	0		119	44.0	2.5	/experiments/AOT/AOT_stimuli/rescaled_final/1548_rv.mp4	0.0	251.726459980011	0.9915649890899658
46	216.02461504936218	pulse	0	t		44.0	2.5	/experiments/AOT/AOT_stimuli/rescaled_final/1548_rv.mp4	0.0	252.7098469734192	
46	216.03279304504395	movie	1		249	44.0	2.5	/experiments/AOT/AOT_stimuli/rescaled_final/1548_rv.mp4	0.0	252.71802496910095	2.508316993713379
46	217.62440395355225	pulse	1	t		44.0	2.5	/experiments/AOT/AOT_stimuli/rescaled_final/1548_rv.mp4	0.0	254.30963587760925	
46	218.54111003875732	fix_post	2		12	44.0	2.5	/experiments/AOT/AOT_stimuli/rescaled_final/1548_rv.mp4	0.0	255.22634196281433	0.10000991821289062
47	218.64111995697021	fix_pre	0		120	45.0	2.5	/experiments/AOT/AOT_stimuli/rescaled_final/2112_rv.mp4	0.0	255.32635188102722	1.0000150203704834
47	219.22472500801086	pulse	0	t		45.0	2.5	/experiments/AOT/AOT_stimuli/rescaled_final/2112_rv.mp4	0.0	255.90995693206787	
47	219.6411349773407	movie	1		247	45.0	2.5	/experiments/AOT/AOT_stimuli/rescaled_final/2112_rv.mp4	0.0	256.3263669013977	2.4999120235443115
47	220.82459592819214	pulse	1	t		45.0	2.5	/experiments/AOT/AOT_stimuli/rescaled_final/2112_rv.mp4	0.0	257.50982785224915	
47	222.141047000885	fix_post	2		12	45.0	2.5	/experiments/AOT/AOT_stimuli/rescaled_final/2112_rv.mp4	0.0	258.826278924942	0.10004401206970215
48	222.2410910129547	fix_pre	0		120	46.0	2.5	/experiments/AOT/AOT_stimuli/rescaled_final/0526_fw.mp4	0.0	258.9263229370117	0.9995229244232178
48	222.42462992668152	pulse	0	t		46.0	2.5	/experiments/AOT/AOT_stimuli/rescaled_final/0526_fw.mp4	0.0	259.1098618507385	
48	223.24061393737793	movie	1		245	46.0	2.5	/experiments/AOT/AOT_stimuli/rescaled_final/0526_fw.mp4	0.0	259.92584586143494	2.5005481243133545
48	224.0247950553894	pulse	1	t		46.0	2.5	/experiments/AOT/AOT_stimuli/rescaled_final/0526_fw.mp4	0.0	260.7100269794464	
48	225.62412309646606	pulse	1	t		46.0	2.5	/experiments/AOT/AOT_stimuli/rescaled_final/0526_fw.mp4	0.0	262.30935502052307	
48	225.74116206169128	fix_post	2		12	46.0	2.5	/experiments/AOT/AOT_stimuli/rescaled_final/0526_fw.mp4	0.0	262.4263939857483	0.09992599487304688
49	225.84108805656433	fix_pre	0		120	47.0	2.5	/experiments/AOT/AOT_stimuli/rescaled_final/1157_fw.mp4	0.0	262.52631998062134	1.0000379085540771
49	226.8411259651184	movie	1		245	47.0	2.5	/experiments/AOT/AOT_stimuli/rescaled_final/1157_fw.mp4	0.0	263.5263578891754	2.5000171661376953
49	227.2255940437317	pulse	1	t		47.0	2.5	/experiments/AOT/AOT_stimuli/rescaled_final/1157_fw.mp4	0.0	263.9108259677887	
49	228.8245849609375	pulse	1	t		47.0	2.5	/experiments/AOT/AOT_stimuli/rescaled_final/1157_fw.mp4	0.0	265.5098168849945	
49	229.3411431312561	fix_post	2		12	47.0	2.5	/experiments/AOT/AOT_stimuli/rescaled_final/1157_fw.mp4	0.0	266.0263750553131	0.09990096092224121
50	229.44104409217834	fix_pre	0		119	48.0	2.5	blank	1.0	266.12627601623535	0.9916329383850098
50	230.42453503608704	pulse	0	t		48.0	2.5	blank	1.0	267.10976696014404	
50	230.43267703056335	movie	1		301	48.0	2.5	blank	1.0	267.11790895462036	2.5082740783691406
50	232.0245270729065	pulse	1	t		48.0	2.5	blank	1.0	268.7097589969635	
50	232.9409511089325	fix_post	2		12	48.0	2.5	blank	1.0	269.6261830329895	0.09998798370361328
51	233.0409390926361	fix_pre	0		120	49.0	2.5	/experiments/AOT/AOT_stimuli/rescaled_final/1149_fw.mp4	0.0	269.7261710166931	1.0000410079956055
51	233.6245219707489	pulse	0	t		49.0	2.5	/experiments/AOT/AOT_stimuli/rescaled_final/1149_fw.mp4	0.0	270.3097538948059	
51	234.0409801006317	movie	1		244	49.0	2.5	/experiments/AOT/AOT_stimuli/rescaled_final/1149_fw.mp4	0.0	270.7262120246887	2.4995968341827393
51	235.22457098960876	pulse	1	t		49.0	2.5	/experiments/AOT/AOT_stimuli/rescaled_final/1149_fw.mp4	0.0	271.90980291366577	
51	236.54057693481445	fix_post	2		12	49.0	2.5	/experiments/AOT/AOT_stimuli/rescaled_final/1149_fw.mp4	0.0	273.22580885887146	0.1004171371459961
52	236.64099407196045	fix_pre	0		120	50.0	2.5	/experiments/AOT/AOT_stimuli/rescaled_final/0225_rv.mp4	0.0	273.32622599601746	1.0000839233398438
52	236.82447695732117	pulse	0	t		50.0	2.5	/experiments/AOT/AOT_stimuli/rescaled_final/0225_rv.mp4	0.0	273.5097088813782	
52	237.6410779953003	movie	1		244	50.0	2.5	/experiments/AOT/AOT_stimuli/rescaled_final/0225_rv.mp4	0.0	274.3263099193573	2.4999840259552
52	238.4244511127472	pulse	1	t		50.0	2.5	/experiments/AOT/AOT_stimuli/rescaled_final/0225_rv.mp4	0.0	275.1096830368042	
52	240.02336406707764	pulse	1	t		50.0	2.5	/experiments/AOT/AOT_stimuli/rescaled_final/0225_rv.mp4	0.0	276.70859599113464	
52	240.1410620212555	fix_post	2		12	50.0	2.5	/experiments/AOT/AOT_stimuli/rescaled_final/0225_rv.mp4	0.0	276.8262939453125	0.10001206398010254
53	240.2410740852356	fix_pre	0		120	51.0	2.5	/experiments/AOT/AOT_stimuli/rescaled_final/2090_fw.mp4	0.0	276.9263060092926	0.9999179840087891
53	241.24099206924438	movie	1		245	51.0	2.5	/experiments/AOT/AOT_stimuli/rescaled_final/2090_fw.mp4	0.0	277.9262239933014	2.5003299713134766
53	241.62399411201477	pulse	1	t		51.0	2.5	/experiments/AOT/AOT_stimuli/rescaled_final/2090_fw.mp4	0.0	278.3092260360718	
53	243.224622964859	pulse	1	t		51.0	2.5	/experiments/AOT/AOT_stimuli/rescaled_final/2090_fw.mp4	0.0	279.909854888916	
53	243.74132204055786	fix_post	2		12	51.0	2.5	/experiments/AOT/AOT_stimuli/rescaled_final/2090_fw.mp4	0.0	280.42655396461487	0.0994870662689209
54	243.84080910682678	fix_pre	0		119	52.0	2.5	/experiments/AOT/AOT_stimuli/rescaled_final/2112_rv.mp4	0.0	280.5260410308838	0.9918320178985596
54	244.82464408874512	pulse	0	t		52.0	2.5	/experiments/AOT/AOT_stimuli/rescaled_final/2112_rv.mp4	0.0	281.5098760128021	
54	244.83264112472534	movie	1		247	52.0	2.5	/experiments/AOT/AOT_stimuli/rescaled_final/2112_rv.mp4	0.0	281.51787304878235	2.5082778930664062
54	246.4241979122162	pulse	1	t		52.0	2.5	/experiments/AOT/AOT_stimuli/rescaled_final/2112_rv.mp4	0.0	283.1094298362732	
54	247.34091901779175	fix_post	2		12	52.0	2.5	/experiments/AOT/AOT_stimuli/rescaled_final/2112_rv.mp4	0.0	284.02615094184875	0.1000680923461914
55	247.44098711013794	fix_pre	0		120	53.0	2.5	/experiments/AOT/AOT_stimuli/rescaled_final/1914_rv.mp4	0.0	284.12621903419495	0.9999408721923828
55	248.0244460105896	pulse	0	t		53.0	2.5	/experiments/AOT/AOT_stimuli/rescaled_final/1914_rv.mp4	0.0	284.7096779346466	
55	248.44092798233032	movie	1		248	53.0	2.5	/experiments/AOT/AOT_stimuli/rescaled_final/1914_rv.mp4	0.0	285.12615990638733	2.5000340938568115
55	249.6244490146637	pulse	1	t		53.0	2.5	/experiments/AOT/AOT_stimuli/rescaled_final/1914_rv.mp4	0.0	286.3096809387207	
55	250.94096207618713	fix_post	2		12	53.0	2.5	/experiments/AOT/AOT_stimuli/rescaled_final/1914_rv.mp4	0.0	287.62619400024414	0.09998798370361328
56	251.04095005989075	fix_pre	0		120	54.0	2.5	/experiments/AOT/AOT_stimuli/rescaled_final/1205_fw.mp4	0.0	287.72618198394775	0.9999749660491943
56	251.2244610786438	pulse	0	t		54.0	2.5	/experiments/AOT/AOT_stimuli/rescaled_final/1205_fw.mp4	0.0	287.9096930027008	
56	252.04092502593994	movie	1		244	54.0	2.5	/experiments/AOT/AOT_stimuli/rescaled_final/1205_fw.mp4	0.0	288.72615694999695	2.4995410442352295
56	252.82437205314636	pulse	1	t		54.0	2.5	/experiments/AOT/AOT_stimuli/rescaled_final/1205_fw.mp4	0.0	289.50960397720337	
56	254.42451906204224	pulse	1	t		54.0	2.5	/experiments/AOT/AOT_stimuli/rescaled_final/1205_fw.mp4	0.0	291.10975098609924	
56	254.54046607017517	fix_post	2		12	54.0	2.5	/experiments/AOT/AOT_stimuli/rescaled_final/1205_fw.mp4	0.0	291.2256979942322	0.10047388076782227
57	254.640939950943	fix_pre	0		120	55.0	2.5	blank	1.0	291.326171875	0.9999561309814453
57	255.64089608192444	movie	1		300	55.0	2.5	blank	1.0	292.32612800598145	2.4995460510253906
57	256.0243721008301	pulse	1	t		55.0	2.5	blank	1.0	292.7096040248871	
57	257.62434792518616	pulse	1	t		55.0	2.5	blank	1.0	294.30957984924316	
57	258.14044213294983	fix_post	2		12	55.0	2.5	blank	1.0	294.82567405700684	0.10042977333068848
58	258.2408719062805	fix_pre	0		119	56.0	2.5	/experiments/AOT/AOT_stimuli/rescaled_final/0821_rv.mp4	0.0	294.9261038303375	0.99186110496521
58	259.22439408302307	pulse	0	t		56.0	2.5	/experiments/AOT/AOT_stimuli/rescaled_final/0821_rv.mp4	0.0	295.9096260070801	
58	259.2327330112457	movie	1		248	56.0	2.5	/experiments/AOT/AOT_stimuli/rescaled_final/0821_rv.mp4	0.0	295.91796493530273	2.5081160068511963
58	260.82408690452576	pulse	1	t		56.0	2.5	/experiments/AOT/AOT_stimuli/rescaled_final/0821_rv.mp4	0.0	297.50931882858276	
58	261.7408490180969	fix_post	2		12	56.0	2.5	/experiments/AOT/AOT_stimuli/rescaled_final/0821_rv.mp4	0.0	298.42608094215393	0.09999394416809082
59	261.840842962265	fix_pre	0		120	57.0	2.5	/experiments/AOT/AOT_stimuli/rescaled_final/1015_rv.mp4	0.0	298.526074886322	1.000049114227295
59	262.42439007759094	pulse	0	t		57.0	2.5	/experiments/AOT/AOT_stimuli/rescaled_final/1015_rv.mp4	0.0	299.10962200164795	
59	262.8408920764923	movie	1		246	57.0	2.5	/experiments/AOT/AOT_stimuli/rescaled_final/1015_rv.mp4	0.0	299.5261240005493	2.4995028972625732
59	264.02446699142456	pulse	1	t		57.0	2.5	/experiments/AOT/AOT_stimuli/rescaled_final/1015_rv.mp4	0.0	300.70969891548157	
59	265.3403949737549	fix_post	2		12	57.0	2.5	/experiments/AOT/AOT_stimuli/rescaled_final/1015_rv.mp4	0.0	302.0256268978119	0.10044503211975098
60	265.44084000587463	fix_pre	0		120	58.0	2.5	/experiments/AOT/AOT_stimuli/rescaled_final/0104_rv.mp4	0.0	302.12607192993164	0.9999361038208008
60	265.6244070529938	pulse	0	t		58.0	2.5	/experiments/AOT/AOT_stimuli/rescaled_final/0104_rv.mp4	0.0	302.3096389770508	
60	266.44077610969543	movie	1		245	58.0	2.5	/experiments/AOT/AOT_stimuli/rescaled_final/0104_rv.mp4	0.0	303.12600803375244	2.500063896179199
60	267.22438192367554	pulse	1	t		58.0	2.5	/experiments/AOT/AOT_stimuli/rescaled_final/0104_rv.mp4	0.0	303.90961384773254	
60	268.82296800613403	pulse	1	t		58.0	2.5	/experiments/AOT/AOT_stimuli/rescaled_final/0104_rv.mp4	0.0	305.50819993019104	
60	268.94084000587463	fix_post	2		12	58.0	2.5	/experiments/AOT/AOT_stimuli/rescaled_final/0104_rv.mp4	0.0	305.62607192993164	0.09997296333312988
61	269.04081296920776	fix_pre	0		120	59.0	2.5	/experiments/AOT/AOT_stimuli/rescaled_final/1702_fw.mp4	0.0	305.72604489326477	0.9999740123748779
61	270.04078698158264	movie	1		244	59.0	2.5	/experiments/AOT/AOT_stimuli/rescaled_final/1702_fw.mp4	0.0	306.72601890563965	2.499993085861206
61	270.4247269630432	pulse	1	t		59.0	2.5	/experiments/AOT/AOT_stimuli/rescaled_final/1702_fw.mp4	0.0	307.1099588871002	
61	272.024395942688	pulse	1	t		59.0	2.5	/experiments/AOT/AOT_stimuli/rescaled_final/1702_fw.mp4	0.0	308.709627866745	
61	272.54078006744385	fix_post	2		12	59.0	2.5	/experiments/AOT/AOT_stimuli/rescaled_final/1702_fw.mp4	0.0	309.22601199150085	0.09998798370361328
62	272.64076805114746	fix_pre	0		119	60.0	2.5	/experiments/AOT/AOT_stimuli/rescaled_final/1986_fw.mp4	0.0	309.32599997520447	0.9917728900909424
62	273.6242380142212	pulse	0	t		60.0	2.5	/experiments/AOT/AOT_stimuli/rescaled_final/1986_fw.mp4	0.0	310.3094699382782	
62	273.6325409412384	movie	1		246	60.0	2.5	/experiments/AOT/AOT_stimuli/rescaled_final/1986_fw.mp4	0.0	310.3177728652954	2.50839900970459
62	275.2239611148834	pulse	1	t		60.0	2.5	/experiments/AOT/AOT_stimuli/rescaled_final/1986_fw.mp4	0.0	311.90919303894043	
62	276.140939950943	fix_post	2		12	60.0	2.5	/experiments/AOT/AOT_stimuli/rescaled_final/1986_fw.mp4	0.0	312.826171875	0.09988212585449219
63	276.2408220767975	fix_pre	0		120	61.0	2.5	/experiments/AOT/AOT_stimuli/rescaled_final/0900_fw.mp4	0.0	312.9260540008545	0.9996099472045898
63	276.82430696487427	pulse	0	t		61.0	2.5	/experiments/AOT/AOT_stimuli/rescaled_final/0900_fw.mp4	0.0	313.5095388889313	
63	277.2404320240021	movie	1		246	61.0	2.5	/experiments/AOT/AOT_stimuli/rescaled_final/0900_fw.mp4	0.0	313.9256639480591	2.500372886657715
63	278.4244079589844	pulse	1	t		61.0	2.5	/experiments/AOT/AOT_stimuli/rescaled_final/0900_fw.mp4	0.0	315.1096398830414	
63	279.7408049106598	fix_post	2		12	61.0	2.5	/experiments/AOT/AOT_stimuli/rescaled_final/0900_fw.mp4	0.0	316.4260368347168	0.1000361442565918
64	279.8408410549164	fix_pre	0		120	62.0	2.5	blank	1.0	316.5260729789734	1.0000560283660889
64	280.02433800697327	pulse	0	t		62.0	2.5	blank	1.0	316.7095699310303	
64	280.84089708328247	movie	1		300	62.0	2.5	blank	1.0	317.5261290073395	2.4999940395355225
64	281.6243259906769	pulse	1	t		62.0	2.5	blank	1.0	318.3095579147339	
64	283.2241470813751	pulse	1	t		62.0	2.5	blank	1.0	319.90937900543213	
64	283.340891122818	fix_post	2		12	62.0	2.5	blank	1.0	320.026123046875	0.09996485710144043
65	283.44085597991943	fix_pre	0		120	63.0	2.5	/experiments/AOT/AOT_stimuli/rescaled_final/0412_fw.mp4	0.0	320.12608790397644	0.9999949932098389
65	284.4408509731293	movie	1		246	63.0	2.5	/experiments/AOT/AOT_stimuli/rescaled_final/0412_fw.mp4	0.0	321.1260828971863	2.5000081062316895
65	284.82392501831055	pulse	1	t		63.0	2.5	/experiments/AOT/AOT_stimuli/rescaled_final/0412_fw.mp4	0.0	321.50915694236755	
65	286.42428612709045	pulse	1	t		63.0	2.5	/experiments/AOT/AOT_stimuli/rescaled_final/0412_fw.mp4	0.0	323.10951805114746	
65	286.94085907936096	fix_post	2		12	63.0	2.5	/experiments/AOT/AOT_stimuli/rescaled_final/0412_fw.mp4	0.0	323.62609100341797	0.0998530387878418
66	287.0407121181488	fix_pre	0		119	64.0	2.5	/experiments/AOT/AOT_stimuli/rescaled_final/1864_fw.mp4	0.0	323.7259440422058	0.9917428493499756
66	288.024374961853	pulse	0	t		64.0	2.5	/experiments/AOT/AOT_stimuli/rescaled_final/1864_fw.mp4	0.0	324.70960688591003	
66	288.0324549674988	movie	1		245	64.0	2.5	/experiments/AOT/AOT_stimuli/rescaled_final/1864_fw.mp4	0.0	324.7176868915558	2.5082991123199463
66	289.62391805648804	pulse	1	t		64.0	2.5	/experiments/AOT/AOT_stimuli/rescaled_final/1864_fw.mp4	0.0	326.30914998054504	
66	290.5407540798187	fix_post	2		12	64.0	2.5	/experiments/AOT/AOT_stimuli/rescaled_final/1864_fw.mp4	0.0	327.22598600387573	0.09997391700744629
67	290.6407279968262	fix_pre	0		120	65.0	2.5	/experiments/AOT/AOT_stimuli/rescaled_final/0806_fw.mp4	0.0	327.3259599208832	1.0000379085540771
67	291.22432494163513	pulse	0	t		65.0	2.5	/experiments/AOT/AOT_stimuli/rescaled_final/0806_fw.mp4	0.0	327.90955686569214	
67	291.64076590538025	movie	1		244	65.0	2.5	/experiments/AOT/AOT_stimuli/rescaled_final/0806_fw.mp4	0.0	328.32599782943726	2.5000410079956055
67	292.82431197166443	pulse	1	t		65.0	2.5	/experiments/AOT/AOT_stimuli/rescaled_final/0806_fw.mp4	0.0	329.50954389572144	
67	294.14080691337585	fix_post	2		12	65.0	2.5	/experiments/AOT/AOT_stimuli/rescaled_final/0806_fw.mp4	0.0	330.82603883743286	0.09987306594848633
68	294.24067997932434	fix_pre	0		120	66.0	2.5	/experiments/AOT/AOT_stimuli/rescaled_final/0905_fw.mp4	0.0	330.92591190338135	0.9997720718383789
68	294.4241919517517	pulse	0	t		66.0	2.5	/experiments/AOT/AOT_stimuli/rescaled_final/0905_fw.mp4	0.0	331.1094238758087	
68	295.2404520511627	movie	1		250	66.0	2.5	/experiments/AOT/AOT_stimuli/rescaled_final/0905_fw.mp4	0.0	331.9256839752197	2.5002479553222656
68	296.0241770744324	pulse	1	t		66.0	2.5	/experiments/AOT/AOT_stimuli/rescaled_final/0905_fw.mp4	0.0	332.7094089984894	
68	297.6238260269165	pulse	1	t		66.0	2.5	/experiments/AOT/AOT_stimuli/rescaled_final/0905_fw.mp4	0.0	334.3090579509735	
68	297.740700006485	fix_post	2		12	66.0	2.5	/experiments/AOT/AOT_stimuli/rescaled_final/0905_fw.mp4	0.0	334.425931930542	0.09966397285461426
69	297.8403639793396	fix_pre	0		120	67.0	2.5	/experiments/AOT/AOT_stimuli/rescaled_final/0259_rv.mp4	0.0	334.5255959033966	1.0004839897155762
69	298.8408479690552	movie	1		244	67.0	2.5	/experiments/AOT/AOT_stimuli/rescaled_final/0259_rv.mp4	0.0	335.5260798931122	2.499882936477661
69	299.2239739894867	pulse	1	t		67.0	2.5	/experiments/AOT/AOT_stimuli/rescaled_final/0259_rv.mp4	0.0	335.9092059135437	
69	300.82414412498474	pulse	1	t		67.0	2.5	/experiments/AOT/AOT_stimuli/rescaled_final/0259_rv.mp4	0.0	337.50937604904175	
69	301.34073090553284	fix_post	2		12	67.0	2.5	/experiments/AOT/AOT_stimuli/rescaled_final/0259_rv.mp4	0.0	338.02596282958984	0.09997916221618652
70	301.440710067749	fix_pre	0		119	68.0	2.5	/experiments/AOT/AOT_stimuli/rescaled_final/1296_rv.mp4	0.0	338.12594199180603	0.9916210174560547
70	302.4241831302643	pulse	0	t		68.0	2.5	/experiments/AOT/AOT_stimuli/rescaled_final/1296_rv.mp4	0.0	339.1094150543213	
70	302.4323310852051	movie	1		247	68.0	2.5	/experiments/AOT/AOT_stimuli/rescaled_final/1296_rv.mp4	0.0	339.1175630092621	2.508255958557129
70	304.02378702163696	pulse	1	t		68.0	2.5	/experiments/AOT/AOT_stimuli/rescaled_final/1296_rv.mp4	0.0	340.70901894569397	
70	304.9405870437622	fix_post	2		12	68.0	2.5	/experiments/AOT/AOT_stimuli/rescaled_final/1296_rv.mp4	0.0	341.6258189678192	0.09966087341308594
71	305.0402479171753	fix_pre	0		120	69.0	2.5	blank	1.0	341.7254798412323	1.000331163406372
71	305.6254301071167	pulse	0	t		69.0	2.5	blank	1.0	342.3106620311737	
71	306.04057908058167	movie	1		300	69.0	2.5	blank	1.0	342.7258110046387	2.5001509189605713
71	307.2243061065674	pulse	1	t		69.0	2.5	blank	1.0	343.9095380306244	
71	308.54072999954224	fix_post	2		12	69.0	2.5	blank	1.0	345.22596192359924	0.09982705116271973
72	308.64055705070496	fix_pre	0		120	70.0	2.5	/experiments/AOT/AOT_stimuli/rescaled_final/1953_rv.mp4	0.0	345.32578897476196	1.000135898590088
72	308.8241090774536	pulse	0	t		70.0	2.5	/experiments/AOT/AOT_stimuli/rescaled_final/1953_rv.mp4	0.0	345.5093410015106	
72	309.64069294929504	movie	1		244	70.0	2.5	/experiments/AOT/AOT_stimuli/rescaled_final/1953_rv.mp4	0.0	346.32592487335205	2.4999101161956787
72	310.4241290092468	pulse	1	t		70.0	2.5	/experiments/AOT/AOT_stimuli/rescaled_final/1953_rv.mp4	0.0	347.10936093330383	
72	312.0228900909424	pulse	1	t		70.0	2.5	/experiments/AOT/AOT_stimuli/rescaled_final/1953_rv.mp4	0.0	348.7081220149994	
72	312.1406030654907	fix_post	2		12	70.0	2.5	/experiments/AOT/AOT_stimuli/rescaled_final/1953_rv.mp4	0.0	348.82583498954773	0.09971094131469727
73	312.2403140068054	fix_pre	0		120	71.0	2.5	/experiments/AOT/AOT_stimuli/rescaled_final/0629_rv.mp4	0.0	348.9255459308624	1.000349998474121
73	313.24066400527954	movie	1		246	71.0	2.5	/experiments/AOT/AOT_stimuli/rescaled_final/0629_rv.mp4	0.0	349.92589592933655	2.4995779991149902
73	313.6239719390869	pulse	1	t		71.0	2.5	/experiments/AOT/AOT_stimuli/rescaled_final/0629_rv.mp4	0.0	350.3092038631439	
73	315.22412490844727	pulse	1	t		71.0	2.5	/experiments/AOT/AOT_stimuli/rescaled_final/0629_rv.mp4	0.0	351.9093568325043	
73	315.74024200439453	fix_post	2		12	71.0	2.5	/experiments/AOT/AOT_stimuli/rescaled_final/0629_rv.mp4	0.0	352.42547392845154	0.10034608840942383
74	315.84058809280396	fix_pre	0		119	72.0	2.5	/experiments/AOT/AOT_stimuli/rescaled_final/0076_rv.mp4	0.0	352.52582001686096	0.9917318820953369
74	316.8241000175476	pulse	0	t		72.0	2.5	/experiments/AOT/AOT_stimuli/rescaled_final/0076_rv.mp4	0.0	353.5093319416046	
74	316.8323199748993	movie	1		246	72.0	2.5	/experiments/AOT/AOT_stimuli/rescaled_final/0076_rv.mp4	0.0	353.5175518989563	2.5082449913024902
74	318.42370891571045	pulse	1	t		72.0	2.5	/experiments/AOT/AOT_stimuli/rescaled_final/0076_rv.mp4	0.0	355.10894083976746	
74	319.3405649662018	fix_post	2		12	72.0	2.5	/experiments/AOT/AOT_stimuli/rescaled_final/0076_rv.mp4	0.0	356.0257968902588	0.10008096694946289
75	319.44064593315125	fix_pre	0		120	73.0	2.5	/experiments/AOT/AOT_stimuli/rescaled_final/0441_rv.mp4	0.0	356.12587785720825	0.9999451637268066
75	320.0240659713745	pulse	0	t		73.0	2.5	/experiments/AOT/AOT_stimuli/rescaled_final/0441_rv.mp4	0.0	356.7092978954315	
75	320.44059109687805	movie	1		244	73.0	2.5	/experiments/AOT/AOT_stimuli/rescaled_final/0441_rv.mp4	0.0	357.12582302093506	2.4996140003204346
75	321.6241121292114	pulse	1	t		73.0	2.5	/experiments/AOT/AOT_stimuli/rescaled_final/0441_rv.mp4	0.0	358.30934405326843	
75	322.9402050971985	fix_post	2		12	73.0	2.5	/experiments/AOT/AOT_stimuli/rescaled_final/0441_rv.mp4	0.0	359.6254370212555	0.1003730297088623
76	323.04057812690735	fix_pre	0		120	74.0	2.5	/experiments/AOT/AOT_stimuli/rescaled_final/0552_rv.mp4	0.0	359.72581005096436	0.9999959468841553
76	323.2240741252899	pulse	0	t		74.0	2.5	/experiments/AOT/AOT_stimuli/rescaled_final/0552_rv.mp4	0.0	359.9093060493469	
76	324.0405740737915	movie	1		244	74.0	2.5	/experiments/AOT/AOT_stimuli/rescaled_final/0552_rv.mp4	0.0	360.7258059978485	2.4995570182800293
76	324.8240339756012	pulse	1	t		74.0	2.5	/experiments/AOT/AOT_stimuli/rescaled_final/0552_rv.mp4	0.0	361.5092658996582	
76	326.42413806915283	pulse	1	t		74.0	2.5	/experiments/AOT/AOT_stimuli/rescaled_final/0552_rv.mp4	0.0	363.10936999320984	
76	326.54013109207153	fix_post	2		12	74.0	2.5	/experiments/AOT/AOT_stimuli/rescaled_final/0552_rv.mp4	0.0	363.22536301612854	0.10042786598205566
77	326.6405589580536	fix_pre	0		120	75.0	2.5	blank	1.0	363.3257908821106	0.9999771118164062
77	327.64053606987	movie	1		300	75.0	2.5	blank	1.0	364.325767993927	2.5000710487365723
77	328.0240399837494	pulse	1	t		75.0	2.5	blank	1.0	364.7092719078064	
77	329.624076128006	pulse	1	t		75.0	2.5	blank	1.0	366.309308052063	
77	330.14060711860657	fix_post	2		12	75.0	2.5	blank	1.0	366.8258390426636	0.10007190704345703
78	330.24067902565	fix_pre	0		119	76.0	2.5	/experiments/AOT/AOT_stimuli/rescaled_final/0050_fw.mp4	0.0	366.92591094970703	0.9915900230407715
78	331.22410893440247	pulse	0	t		76.0	2.5	/experiments/AOT/AOT_stimuli/rescaled_final/0050_fw.mp4	0.0	367.9093408584595	
78	331.2322690486908	movie	1		246	76.0	2.5	/experiments/AOT/AOT_stimuli/rescaled_final/0050_fw.mp4	0.0	367.9175009727478	2.507880926132202
78	332.8240909576416	pulse	1	t		76.0	2.5	/experiments/AOT/AOT_stimuli/rescaled_final/0050_fw.mp4	0.0	369.5093228816986	
78	333.740149974823	fix_post	2		12	76.0	2.5	/experiments/AOT/AOT_stimuli/rescaled_final/0050_fw.mp4	0.0	370.42538189888	0.1004190444946289
79	333.8405690193176	fix_pre	0		120	77.0	2.5	/experiments/AOT/AOT_stimuli/rescaled_final/0123_rv.mp4	0.0	370.52580094337463	0.9999940395355225
79	334.4252450466156	pulse	0	t		77.0	2.5	/experiments/AOT/AOT_stimuli/rescaled_final/0123_rv.mp4	0.0	371.1104769706726	
79	334.84056305885315	movie	1		245	77.0	2.5	/experiments/AOT/AOT_stimuli/rescaled_final/0123_rv.mp4	0.0	371.52579498291016	2.499927043914795
79	336.0240581035614	pulse	1	t		77.0	2.5	/experiments/AOT/AOT_stimuli/rescaled_final/0123_rv.mp4	0.0	372.7092900276184	
79	337.34049010276794	fix_post	2		12	77.0	2.5	/experiments/AOT/AOT_stimuli/rescaled_final/0123_rv.mp4	0.0	374.02572202682495	0.09965181350708008
80	337.440141916275	fix_pre	0		120	78.0	2.5	/experiments/AOT/AOT_stimuli/rescaled_final/0991_fw.mp4	0.0	374.12537384033203	1.0004010200500488
80	337.6240699291229	pulse	0	t		78.0	2.5	/experiments/AOT/AOT_stimuli/rescaled_final/0991_fw.mp4	0.0	374.30930185317993	
80	338.4405429363251	movie	1		245	78.0	2.5	/experiments/AOT/AOT_stimuli/rescaled_final/0991_fw.mp4	0.0	375.1257748603821	2.4999821186065674
80	339.22417306900024	pulse	1	t		78.0	2.5	/experiments/AOT/AOT_stimuli/rescaled_final/0991_fw.mp4	0.0	375.90940499305725	
80	340.8240089416504	pulse	1	t		78.0	2.5	/experiments/AOT/AOT_stimuli/rescaled_final/0991_fw.mp4	0.0	377.5092408657074	
80	340.94052505493164	fix_post	2		12	78.0	2.5	/experiments/AOT/AOT_stimuli/rescaled_final/0991_fw.mp4	0.0	377.62575697898865	0.09999203681945801
81	341.0405170917511	fix_pre	0		120	79.0	2.5	/experiments/AOT/AOT_stimuli/rescaled_final/1959_fw.mp4	0.0	377.7257490158081	0.9999299049377441
81	342.04044699668884	movie	1		244	79.0	2.5	/experiments/AOT/AOT_stimuli/rescaled_final/1959_fw.mp4	0.0	378.72567892074585	2.4996280670166016
81	342.42364501953125	pulse	1	t		79.0	2.5	/experiments/AOT/AOT_stimuli/rescaled_final/1959_fw.mp4	0.0	379.10887694358826	
81	344.02401304244995	pulse	1	t		79.0	2.5	/experiments/AOT/AOT_stimuli/rescaled_final/1959_fw.mp4	0.0	380.70924496650696	
81	344.54007506370544	fix_post	2		12	79.0	2.5	/experiments/AOT/AOT_stimuli/rescaled_final/1959_fw.mp4	0.0	381.22530698776245	0.1004030704498291
82	344.6404781341553	fix_pre	0		119	80.0	2.5	/experiments/AOT/AOT_stimuli/rescaled_final/1453_fw.mp4	0.0	381.3257100582123	0.9917459487915039
82	345.624027967453	pulse	0	t		80.0	2.5	/experiments/AOT/AOT_stimuli/rescaled_final/1453_fw.mp4	0.0	382.30925989151	
82	345.6322240829468	movie	1		246	80.0	2.5	/experiments/AOT/AOT_stimuli/rescaled_final/1453_fw.mp4	0.0	382.3174560070038	2.508168935775757
82	347.22421503067017	pulse	1	t		80.0	2.5	/experiments/AOT/AOT_stimuli/rescaled_final/1453_fw.mp4	0.0	383.9094469547272	
82	348.14039301872253	fix_post	2		12	80.0	2.5	/experiments/AOT/AOT_stimuli/rescaled_final/1453_fw.mp4	0.0	384.82562494277954	0.10001802444458008
83	348.2404110431671	fix_pre	0		120	81.0	2.5	/experiments/AOT/AOT_stimuli/rescaled_final/0099_rv.mp4	0.0	384.9256429672241	0.9999668598175049
83	348.8240101337433	pulse	0	t		81.0	2.5	/experiments/AOT/AOT_stimuli/rescaled_final/0099_rv.mp4	0.0	385.5092420578003	
83	349.2403779029846	movie	1		246	81.0	2.5	/experiments/AOT/AOT_stimuli/rescaled_final/0099_rv.mp4	0.0	385.9256098270416	2.500200033187866
83	350.42393493652344	pulse	1	t		81.0	2.5	/experiments/AOT/AOT_stimuli/rescaled_final/0099_rv.mp4	0.0	387.10916686058044	
83	351.7405779361725	fix_post	2		12	81.0	2.5	/experiments/AOT/AOT_stimuli/rescaled_final/0099_rv.mp4	0.0	388.4258098602295	0.1000051498413086
84	351.8405830860138	fix_pre	0		120	82.0	2.5	/experiments/AOT/AOT_stimuli/rescaled_final/1953_fw.mp4	0.0	388.5258150100708	0.9998910427093506
84	352.02395391464233	pulse	0	t		82.0	2.5	/experiments/AOT/AOT_stimuli/rescaled_final/1953_fw.mp4	0.0	388.70918583869934	
84	352.84047412872314	movie	1		243	82.0	2.5	/experiments/AOT/AOT_stimuli/rescaled_final/1953_fw.mp4	0.0	389.52570605278015	2.4997928142547607
84	353.62347507476807	pulse	1	t		82.0	2.5	/experiments/AOT/AOT_stimuli/rescaled_final/1953_fw.mp4	0.0	390.3087069988251	
84	355.23218297958374	pulse	1	t		82.0	2.5	/experiments/AOT/AOT_stimuli/rescaled_final/1953_fw.mp4	0.0	391.91741490364075	
84	355.3402669429779	fix_post	2		12	82.0	2.5	/experiments/AOT/AOT_stimuli/rescaled_final/1953_fw.mp4	0.0	392.0254988670349	0.10008502006530762
85	355.4403519630432	fix_pre	0		120	83.0	2.5	blank	1.0	392.1255838871002	1.0000770092010498
85	356.44042897224426	movie	1		300	83.0	2.5	blank	1.0	393.12566089630127	2.499988079071045
85	356.82392406463623	pulse	1	t		83.0	2.5	blank	1.0	393.50915598869324	
85	358.42392110824585	pulse	1	t		83.0	2.5	blank	1.0	395.10915303230286	
85	358.9404170513153	fix_post	2		12	83.0	2.5	blank	1.0	395.6256489753723	0.10000991821289062
87	359.0404269695282	stim	0		1716					395.7256588935852	14.299967050552368
87	360.02395606040955	pulse	0	t						396.70918798446655	
87	361.62380194664	pulse	0	t						398.309033870697	
87	363.22383308410645	pulse	0	t						399.90906500816345	
87	364.823832988739	pulse	0	t						401.509064912796	
87	366.4238579273224	pulse	0	t						403.1090898513794	
87	368.0238299369812	pulse	0	t						404.7090618610382	
87	369.6237759590149	pulse	0	t						406.3090078830719	
87	371.223778963089	pulse	0	t						407.909010887146	
87	372.823851108551	pulse	0	t						409.50908303260803	
