trial_nr	onset	event_type	phase	response	nr_frames	movie_index	movie_duration	movie_file	blank	onset_abs	duration
0	0.20819306373596191	stim	0		14					18.159921169281006	0.11666202545166016
0	0.31682896614074707	response	0	space						18.26855707168579	
1	0.32485508918762207	stim	0		3799					18.276583194732666	31.675649881362915
1	31.985517024993896	pulse	0	t						49.93724513053894	
1	32.00050497055054	stim	1		1715					49.95223307609558	14.297896146774292
1	33.580078125	pulse	1	t						51.531806230545044	
1	35.18017911911011	pulse	1	t						53.13190722465515	
1	36.78040409088135	pulse	1	t						54.73213219642639	
1	38.38062906265259	pulse	1	t						56.33235716819763	
1	39.98098611831665	pulse	1	t						57.932714223861694	
1	41.58115792274475	pulse	1	t						59.532886028289795	
1	43.181349992752075	pulse	1	t						61.13307809829712	
1	44.78169512748718	pulse	1	t						62.73342323303223	
2	46.29840111732483	fix_pre	0		11	0.0	2.5	/experiments/knapen_AOT/AOT_stimuli/rescaled_final/1835_rv.mp4	0.0	64.25012922286987	0.09163689613342285
2	46.38200402259827	pulse	0	t		0.0	2.5	/experiments/knapen_AOT/AOT_stimuli/rescaled_final/1835_rv.mp4	0.0	64.33373212814331	
2	46.39003801345825	movie	1		242	0.0	2.5	/experiments/knapen_AOT/AOT_stimuli/rescaled_final/1835_rv.mp4	0.0	64.3417661190033	2.508749008178711
2	47.98735690116882	pulse	1	t		0.0	2.5	/experiments/knapen_AOT/AOT_stimuli/rescaled_final/1835_rv.mp4	0.0	65.93908500671387	
2	48.89878702163696	fix_post	2		12	0.0	2.5	/experiments/knapen_AOT/AOT_stimuli/rescaled_final/1835_rv.mp4	0.0	66.850515127182	0.0999600887298584
3	48.99874711036682	fix_pre	0		120	1.0	2.5	/experiments/knapen_AOT/AOT_stimuli/rescaled_final/1376_fw.mp4	0.0	66.95047521591187	1.0001769065856934
3	49.57485795021057	pulse	0	t		1.0	2.5	/experiments/knapen_AOT/AOT_stimuli/rescaled_final/1376_fw.mp4	0.0	67.52658605575562	
3	49.998924016952515	movie	1		242	1.0	2.5	/experiments/knapen_AOT/AOT_stimuli/rescaled_final/1376_fw.mp4	0.0	67.95065212249756	2.500464916229248
3	51.18277597427368	pulse	1	t		1.0	2.5	/experiments/knapen_AOT/AOT_stimuli/rescaled_final/1376_fw.mp4	0.0	69.13450407981873	
3	52.49938893318176	fix_post	2		12	1.0	2.5	/experiments/knapen_AOT/AOT_stimuli/rescaled_final/1376_fw.mp4	0.0	70.4511170387268	0.0999300479888916
4	52.599318981170654	fix_pre	0		120	2.0	2.5	/experiments/knapen_AOT/AOT_stimuli/rescaled_final/0183_fw.mp4	0.0	70.5510470867157	1.0001349449157715
4	52.77531409263611	pulse	0	t		2.0	2.5	/experiments/knapen_AOT/AOT_stimuli/rescaled_final/0183_fw.mp4	0.0	70.72704219818115	
4	53.599453926086426	movie	1		243	2.0	2.5	/experiments/knapen_AOT/AOT_stimuli/rescaled_final/0183_fw.mp4	0.0	71.55118203163147	2.5003650188446045
4	54.375673055648804	pulse	1	t		2.0	2.5	/experiments/knapen_AOT/AOT_stimuli/rescaled_final/0183_fw.mp4	0.0	72.32740116119385	
4	55.983062982559204	pulse	1	t		2.0	2.5	/experiments/knapen_AOT/AOT_stimuli/rescaled_final/0183_fw.mp4	0.0	73.93479108810425	
4	56.09981894493103	fix_post	2		12	2.0	2.5	/experiments/knapen_AOT/AOT_stimuli/rescaled_final/0183_fw.mp4	0.0	74.05154705047607	0.1000361442565918
5	56.19985508918762	fix_pre	0		120	3.0	2.5	/experiments/knapen_AOT/AOT_stimuli/rescaled_final/0806_rv.mp4	0.0	74.15158319473267	1.0001230239868164
5	57.19997811317444	movie	1		241	3.0	2.5	/experiments/knapen_AOT/AOT_stimuli/rescaled_final/0806_rv.mp4	0.0	75.15170621871948	2.4922688007354736
5	57.575242042541504	pulse	1	t		3.0	2.5	/experiments/knapen_AOT/AOT_stimuli/rescaled_final/0806_rv.mp4	0.0	75.52697014808655	
5	59.1754949092865	pulse	1	t		3.0	2.5	/experiments/knapen_AOT/AOT_stimuli/rescaled_final/0806_rv.mp4	0.0	77.12722301483154	
5	59.69224691390991	fix_post	2		12	3.0	2.5	/experiments/knapen_AOT/AOT_stimuli/rescaled_final/0806_rv.mp4	0.0	77.64397501945496	0.09981513023376465
6	59.79206204414368	fix_pre	0		119	4.0	2.5	/experiments/knapen_AOT/AOT_stimuli/rescaled_final/2179_fw.mp4	0.0	77.74379014968872	0.9918310642242432
6	60.775656938552856	pulse	0	t		4.0	2.5	/experiments/knapen_AOT/AOT_stimuli/rescaled_final/2179_fw.mp4	0.0	78.7273850440979	
6	60.78389310836792	movie	1		243	4.0	2.5	/experiments/knapen_AOT/AOT_stimuli/rescaled_final/2179_fw.mp4	0.0	78.73562121391296	2.508713960647583
6	62.37655210494995	pulse	1	t		4.0	2.5	/experiments/knapen_AOT/AOT_stimuli/rescaled_final/2179_fw.mp4	0.0	80.328280210495	
6	63.2926070690155	fix_post	2		12	4.0	2.5	/experiments/knapen_AOT/AOT_stimuli/rescaled_final/2179_fw.mp4	0.0	81.24433517456055	0.10002684593200684
7	63.39263391494751	fix_pre	0		120	5.0	2.5	/experiments/knapen_AOT/AOT_stimuli/rescaled_final/0922_rv.mp4	0.0	81.34436202049255	1.0000741481781006
7	63.97632098197937	pulse	0	t		5.0	2.5	/experiments/knapen_AOT/AOT_stimuli/rescaled_final/0922_rv.mp4	0.0	81.92804908752441	
7	64.39270806312561	movie	1		243	5.0	2.5	/experiments/knapen_AOT/AOT_stimuli/rescaled_final/0922_rv.mp4	0.0	82.34443616867065	2.5006439685821533
7	65.57645797729492	pulse	1	t		5.0	2.5	/experiments/knapen_AOT/AOT_stimuli/rescaled_final/0922_rv.mp4	0.0	83.52818608283997	
7	66.89335203170776	fix_post	2		12	5.0	2.5	/experiments/knapen_AOT/AOT_stimuli/rescaled_final/0922_rv.mp4	0.0	84.84508013725281	0.09981489181518555
8	66.99316692352295	fix_pre	0		120	6.0	2.5	blank	1.0	84.944895029068	1.0001180171966553
8	67.17659997940063	pulse	0	t		6.0	2.5	blank	1.0	85.12832808494568	
8	67.9932849407196	movie	1		300	6.0	2.5	blank	1.0	85.94501304626465	2.5006589889526367
8	68.77699589729309	pulse	1	t		6.0	2.5	blank	1.0	86.72872400283813	
8	70.37718510627747	pulse	1	t		6.0	2.5	blank	1.0	88.32891321182251	
8	70.49394392967224	fix_post	2		12	6.0	2.5	blank	1.0	88.44567203521729	0.09968018531799316
9	70.59362411499023	fix_pre	0		119	7.0	2.5	/experiments/knapen_AOT/AOT_stimuli/rescaled_final/0449_rv.mp4	0.0	88.54535222053528	0.9918248653411865
9	71.58544898033142	movie	1		241	7.0	2.5	/experiments/knapen_AOT/AOT_stimuli/rescaled_final/0449_rv.mp4	0.0	89.53717708587646	2.5171329975128174
9	71.97745394706726	pulse	1	t		7.0	2.5	/experiments/knapen_AOT/AOT_stimuli/rescaled_final/0449_rv.mp4	0.0	89.9291820526123	
9	73.57754492759705	pulse	1	t		7.0	2.5	/experiments/knapen_AOT/AOT_stimuli/rescaled_final/0449_rv.mp4	0.0	91.52927303314209	
9	74.10258197784424	fix_post	2		10	7.0	2.5	/experiments/knapen_AOT/AOT_stimuli/rescaled_final/0449_rv.mp4	0.0	92.05431008338928	0.08326196670532227
10	74.18584394454956	fix_pre	0		120	8.0	2.5	/experiments/knapen_AOT/AOT_stimuli/rescaled_final/1171_rv.mp4	0.0	92.1375720500946	1.0001981258392334
10	75.17799091339111	pulse	0	t		8.0	2.5	/experiments/knapen_AOT/AOT_stimuli/rescaled_final/1171_rv.mp4	0.0	93.12971901893616	
10	75.1860420703888	movie	1		243	8.0	2.5	/experiments/knapen_AOT/AOT_stimuli/rescaled_final/1171_rv.mp4	0.0	93.13777017593384	2.5087358951568604
10	76.78259801864624	pulse	1	t		8.0	2.5	/experiments/knapen_AOT/AOT_stimuli/rescaled_final/1171_rv.mp4	0.0	94.73432612419128	
10	77.69477796554565	fix_post	2		12	8.0	2.5	/experiments/knapen_AOT/AOT_stimuli/rescaled_final/1171_rv.mp4	0.0	95.6465060710907	0.09999704360961914
11	77.79477500915527	fix_pre	0		120	9.0	2.5	/experiments/knapen_AOT/AOT_stimuli/rescaled_final/0340_fw.mp4	0.0	95.74650311470032	1.0001139640808105
11	78.37840294837952	pulse	0	t		9.0	2.5	/experiments/knapen_AOT/AOT_stimuli/rescaled_final/0340_fw.mp4	0.0	96.33013105392456	
11	78.79488897323608	movie	1		243	9.0	2.5	/experiments/knapen_AOT/AOT_stimuli/rescaled_final/0340_fw.mp4	0.0	96.74661707878113	2.5003740787506104
11	79.97863006591797	pulse	1	t		9.0	2.5	/experiments/knapen_AOT/AOT_stimuli/rescaled_final/0340_fw.mp4	0.0	97.93035817146301	
11	81.2952630519867	fix_post	2		12	9.0	2.5	/experiments/knapen_AOT/AOT_stimuli/rescaled_final/0340_fw.mp4	0.0	99.24699115753174	0.09998703002929688
12	81.39525008201599	fix_pre	0		120	10.0	2.5	/experiments/knapen_AOT/AOT_stimuli/rescaled_final/0889_fw.mp4	0.0	99.34697818756104	1.0001509189605713
12	81.57887697219849	pulse	0	t		10.0	2.5	/experiments/knapen_AOT/AOT_stimuli/rescaled_final/0889_fw.mp4	0.0	99.53060507774353	
12	82.39540100097656	movie	1		242	10.0	2.5	/experiments/knapen_AOT/AOT_stimuli/rescaled_final/0889_fw.mp4	0.0	100.3471291065216	2.5006051063537598
12	83.17916989326477	pulse	1	t		10.0	2.5	/experiments/knapen_AOT/AOT_stimuli/rescaled_final/0889_fw.mp4	0.0	101.13089799880981	
12	84.77934789657593	pulse	1	t		10.0	2.5	/experiments/knapen_AOT/AOT_stimuli/rescaled_final/0889_fw.mp4	0.0	102.73107600212097	
12	84.89600610733032	fix_post	2		12	10.0	2.5	/experiments/knapen_AOT/AOT_stimuli/rescaled_final/0889_fw.mp4	0.0	102.84773421287537	0.09981894493103027
13	84.99582505226135	fix_pre	0		120	11.0	2.5	/experiments/knapen_AOT/AOT_stimuli/rescaled_final/1909_fw.mp4	0.0	102.9475531578064	1.0001530647277832
13	85.99597811698914	movie	1		242	11.0	2.5	/experiments/knapen_AOT/AOT_stimuli/rescaled_final/1909_fw.mp4	0.0	103.94770622253418	2.4922168254852295
13	86.38015604019165	pulse	1	t		11.0	2.5	/experiments/knapen_AOT/AOT_stimuli/rescaled_final/1909_fw.mp4	0.0	104.3318841457367	
13	87.97975897789001	pulse	1	t		11.0	2.5	/experiments/knapen_AOT/AOT_stimuli/rescaled_final/1909_fw.mp4	0.0	105.93148708343506	
13	88.48819494247437	fix_post	2		12	11.0	2.5	/experiments/knapen_AOT/AOT_stimuli/rescaled_final/1909_fw.mp4	0.0	106.43992304801941	0.09982609748840332
14	88.58802103996277	fix_pre	0		120	12.0	2.5	blank	1.0	106.53974914550781	1.0002050399780273
14	89.58006691932678	pulse	0	t		12.0	2.5	blank	1.0	107.53179502487183	
14	89.5882260799408	movie	1		301	12.0	2.5	blank	1.0	107.53995418548584	2.5086638927459717
14	91.18034291267395	pulse	1	t		12.0	2.5	blank	1.0	109.132071018219	
14	92.09688997268677	fix_post	2		12	12.0	2.5	blank	1.0	110.04861807823181	0.09998512268066406
15	92.19687509536743	fix_pre	0		120	13.0	2.5	/experiments/knapen_AOT/AOT_stimuli/rescaled_final/0495_rv.mp4	0.0	110.14860320091248	1.0001349449157715
15	92.78050112724304	pulse	0	t		13.0	2.5	/experiments/knapen_AOT/AOT_stimuli/rescaled_final/0495_rv.mp4	0.0	110.73222923278809	
15	93.1970100402832	movie	1		244	13.0	2.5	/experiments/knapen_AOT/AOT_stimuli/rescaled_final/0495_rv.mp4	0.0	111.14873814582825	2.5003769397735596
15	94.38076996803284	pulse	1	t		13.0	2.5	/experiments/knapen_AOT/AOT_stimuli/rescaled_final/0495_rv.mp4	0.0	112.33249807357788	
15	95.69738698005676	fix_post	2		12	13.0	2.5	/experiments/knapen_AOT/AOT_stimuli/rescaled_final/0495_rv.mp4	0.0	113.6491150856018	0.10001397132873535
16	95.7974009513855	fix_pre	0		120	14.0	2.5	/experiments/knapen_AOT/AOT_stimuli/rescaled_final/0558_rv.mp4	0.0	113.74912905693054	1.0001490116119385
16	95.98100805282593	pulse	0	t		14.0	2.5	/experiments/knapen_AOT/AOT_stimuli/rescaled_final/0558_rv.mp4	0.0	113.93273615837097	
16	96.79754996299744	movie	1		242	14.0	2.5	/experiments/knapen_AOT/AOT_stimuli/rescaled_final/0558_rv.mp4	0.0	114.74927806854248	2.500631093978882
16	97.58131909370422	pulse	1	t		14.0	2.5	/experiments/knapen_AOT/AOT_stimuli/rescaled_final/0558_rv.mp4	0.0	115.53304719924927	
16	99.18131899833679	pulse	1	t		14.0	2.5	/experiments/knapen_AOT/AOT_stimuli/rescaled_final/0558_rv.mp4	0.0	117.13304710388184	
16	99.29818105697632	fix_post	2		12	14.0	2.5	/experiments/knapen_AOT/AOT_stimuli/rescaled_final/0558_rv.mp4	0.0	117.24990916252136	0.09976696968078613
17	99.3979480266571	fix_pre	0		120	15.0	2.5	/experiments/knapen_AOT/AOT_stimuli/rescaled_final/0029_rv.mp4	0.0	117.34967613220215	1.000180959701538
17	100.39812898635864	movie	1		242	15.0	2.5	/experiments/knapen_AOT/AOT_stimuli/rescaled_final/0029_rv.mp4	0.0	118.34985709190369	2.4922361373901367
17	100.7829921245575	pulse	1	t		15.0	2.5	/experiments/knapen_AOT/AOT_stimuli/rescaled_final/0029_rv.mp4	0.0	118.73472023010254	
17	102.37449502944946	pulse	1	t		15.0	2.5	/experiments/knapen_AOT/AOT_stimuli/rescaled_final/0029_rv.mp4	0.0	120.3262231349945	
17	102.89036512374878	fix_post	2		12	15.0	2.5	/experiments/knapen_AOT/AOT_stimuli/rescaled_final/0029_rv.mp4	0.0	120.84209322929382	0.09982085227966309
18	102.99018597602844	fix_pre	0		120	16.0	2.5	/experiments/knapen_AOT/AOT_stimuli/rescaled_final/1537_rv.mp4	0.0	120.94191408157349	1.000096082687378
18	103.9746150970459	pulse	0	t		16.0	2.5	/experiments/knapen_AOT/AOT_stimuli/rescaled_final/1537_rv.mp4	0.0	121.92634320259094	
18	103.99028205871582	movie	1		243	16.0	2.5	/experiments/knapen_AOT/AOT_stimuli/rescaled_final/1537_rv.mp4	0.0	121.94201016426086	2.5087859630584717
18	105.58284997940063	pulse	1	t		16.0	2.5	/experiments/knapen_AOT/AOT_stimuli/rescaled_final/1537_rv.mp4	0.0	123.53457808494568	
18	106.49906802177429	fix_post	2		12	16.0	2.5	/experiments/knapen_AOT/AOT_stimuli/rescaled_final/1537_rv.mp4	0.0	124.45079612731934	0.09997987747192383
19	106.59904789924622	fix_pre	0		120	17.0	2.5	/experiments/knapen_AOT/AOT_stimuli/rescaled_final/0789_rv.mp4	0.0	124.55077600479126	1.0001881122589111
19	107.1751720905304	pulse	0	t		17.0	2.5	/experiments/knapen_AOT/AOT_stimuli/rescaled_final/0789_rv.mp4	0.0	125.12690019607544	
19	107.59923601150513	movie	1		243	17.0	2.5	/experiments/knapen_AOT/AOT_stimuli/rescaled_final/0789_rv.mp4	0.0	125.55096411705017	2.5003859996795654
19	108.7757670879364	pulse	1	t		17.0	2.5	/experiments/knapen_AOT/AOT_stimuli/rescaled_final/0789_rv.mp4	0.0	126.72749519348145	
19	110.09962201118469	fix_post	2		12	17.0	2.5	/experiments/knapen_AOT/AOT_stimuli/rescaled_final/0789_rv.mp4	0.0	128.05135011672974	0.09993290901184082
20	110.19955492019653	fix_pre	0		120	18.0	2.5	/experiments/knapen_AOT/AOT_stimuli/rescaled_final/1920_rv.mp4	0.0	128.15128302574158	1.000162124633789
20	110.37485194206238	pulse	0	t		18.0	2.5	/experiments/knapen_AOT/AOT_stimuli/rescaled_final/1920_rv.mp4	0.0	128.32658004760742	
20	111.19971704483032	movie	1		242	18.0	2.5	/experiments/knapen_AOT/AOT_stimuli/rescaled_final/1920_rv.mp4	0.0	129.15144515037537	2.5005738735198975
20	111.97495293617249	pulse	1	t		18.0	2.5	/experiments/knapen_AOT/AOT_stimuli/rescaled_final/1920_rv.mp4	0.0	129.92668104171753	
20	113.57531499862671	pulse	1	t		18.0	2.5	/experiments/knapen_AOT/AOT_stimuli/rescaled_final/1920_rv.mp4	0.0	131.52704310417175	
20	113.70029091835022	fix_post	2		12	18.0	2.5	/experiments/knapen_AOT/AOT_stimuli/rescaled_final/1920_rv.mp4	0.0	131.65201902389526	0.09985208511352539
21	113.80014300346375	fix_pre	0		119	19.0	2.5	/experiments/knapen_AOT/AOT_stimuli/rescaled_final/1666_fw.mp4	0.0	131.7518711090088	0.9917929172515869
21	114.79193592071533	movie	1		242	19.0	2.5	/experiments/knapen_AOT/AOT_stimuli/rescaled_final/1666_fw.mp4	0.0	132.74366402626038	2.5004730224609375
21	115.18054699897766	pulse	1	t		19.0	2.5	/experiments/knapen_AOT/AOT_stimuli/rescaled_final/1666_fw.mp4	0.0	133.1322751045227	
21	116.7757019996643	pulse	1	t		19.0	2.5	/experiments/knapen_AOT/AOT_stimuli/rescaled_final/1666_fw.mp4	0.0	134.72743010520935	
21	117.29240894317627	fix_post	2		12	19.0	2.5	/experiments/knapen_AOT/AOT_stimuli/rescaled_final/1666_fw.mp4	0.0	135.2441370487213	0.09994816780090332
22	117.39235711097717	fix_pre	0		119	20.0	2.5	blank	1.0	135.34408521652222	0.991797924041748
22	118.37598490715027	pulse	0	t		20.0	2.5	blank	1.0	136.3277130126953	
22	118.38415503501892	movie	1		301	20.0	2.5	blank	1.0	136.33588314056396	2.5086848735809326
22	119.97619009017944	pulse	1	t		20.0	2.5	blank	1.0	137.9279181957245	
22	120.89283990859985	fix_post	2		12	20.0	2.5	blank	1.0	138.8445680141449	0.10001301765441895
23	120.99285292625427	fix_pre	0		120	21.0	2.5	/experiments/knapen_AOT/AOT_stimuli/rescaled_final/2179_rv.mp4	0.0	138.94458103179932	1.0001611709594727
23	121.5764799118042	pulse	0	t		21.0	2.5	/experiments/knapen_AOT/AOT_stimuli/rescaled_final/2179_rv.mp4	0.0	139.52820801734924	
23	121.99301409721375	movie	1		243	21.0	2.5	/experiments/knapen_AOT/AOT_stimuli/rescaled_final/2179_rv.mp4	0.0	139.9447422027588	2.5003509521484375
23	123.17673397064209	pulse	1	t		21.0	2.5	/experiments/knapen_AOT/AOT_stimuli/rescaled_final/2179_rv.mp4	0.0	141.12846207618713	
23	124.49336504936218	fix_post	2		12	21.0	2.5	/experiments/knapen_AOT/AOT_stimuli/rescaled_final/2179_rv.mp4	0.0	142.44509315490723	0.09998893737792969
24	124.59335398674011	fix_pre	0		120	22.0	2.5	/experiments/knapen_AOT/AOT_stimuli/rescaled_final/2074_rv.mp4	0.0	142.54508209228516	1.0001709461212158
24	124.77703595161438	pulse	0	t		22.0	2.5	/experiments/knapen_AOT/AOT_stimuli/rescaled_final/2074_rv.mp4	0.0	142.72876405715942	
24	125.59352493286133	movie	1		242	22.0	2.5	/experiments/knapen_AOT/AOT_stimuli/rescaled_final/2074_rv.mp4	0.0	143.54525303840637	2.500549077987671
24	126.37720012664795	pulse	1	t		22.0	2.5	/experiments/knapen_AOT/AOT_stimuli/rescaled_final/2074_rv.mp4	0.0	144.328928232193	
24	127.97827792167664	pulse	1	t		22.0	2.5	/experiments/knapen_AOT/AOT_stimuli/rescaled_final/2074_rv.mp4	0.0	145.93000602722168	
24	128.094074010849	fix_post	2		12	22.0	2.5	/experiments/knapen_AOT/AOT_stimuli/rescaled_final/2074_rv.mp4	0.0	146.04580211639404	0.09984302520751953
25	128.19391703605652	fix_pre	0		120	23.0	2.5	/experiments/knapen_AOT/AOT_stimuli/rescaled_final/1151_fw.mp4	0.0	146.14564514160156	1.0001499652862549
25	129.19406700134277	movie	1		241	23.0	2.5	/experiments/knapen_AOT/AOT_stimuli/rescaled_final/1151_fw.mp4	0.0	147.14579510688782	2.492110013961792
25	129.57824397087097	pulse	1	t		23.0	2.5	/experiments/knapen_AOT/AOT_stimuli/rescaled_final/1151_fw.mp4	0.0	147.52997207641602	
25	131.17801094055176	pulse	1	t		23.0	2.5	/experiments/knapen_AOT/AOT_stimuli/rescaled_final/1151_fw.mp4	0.0	149.1297390460968	
25	131.68617701530457	fix_post	2		12	23.0	2.5	/experiments/knapen_AOT/AOT_stimuli/rescaled_final/1151_fw.mp4	0.0	149.6379051208496	0.10000801086425781
26	131.78618502616882	fix_pre	0		120	24.0	2.5	/experiments/knapen_AOT/AOT_stimuli/rescaled_final/1537_fw.mp4	0.0	149.73791313171387	1.000082015991211
26	132.77821803092957	pulse	0	t		24.0	2.5	/experiments/knapen_AOT/AOT_stimuli/rescaled_final/1537_fw.mp4	0.0	150.7299461364746	
26	132.78626704216003	movie	1		238	24.0	2.5	/experiments/knapen_AOT/AOT_stimuli/rescaled_final/1537_fw.mp4	0.0	150.73799514770508	2.508784055709839
26	134.3792760372162	pulse	1	t		24.0	2.5	/experiments/knapen_AOT/AOT_stimuli/rescaled_final/1537_fw.mp4	0.0	152.33100414276123	
26	135.29505109786987	fix_post	2		12	24.0	2.5	/experiments/knapen_AOT/AOT_stimuli/rescaled_final/1537_fw.mp4	0.0	153.24677920341492	0.09991192817687988
27	135.39496302604675	fix_pre	0		120	25.0	2.5	/experiments/knapen_AOT/AOT_stimuli/rescaled_final/1708_rv.mp4	0.0	153.3466911315918	1.0001940727233887
27	135.97856998443604	pulse	0	t		25.0	2.5	/experiments/knapen_AOT/AOT_stimuli/rescaled_final/1708_rv.mp4	0.0	153.93029808998108	
27	136.39515709877014	movie	1		243	25.0	2.5	/experiments/knapen_AOT/AOT_stimuli/rescaled_final/1708_rv.mp4	0.0	154.34688520431519	2.5003528594970703
27	137.57898807525635	pulse	1	t		25.0	2.5	/experiments/knapen_AOT/AOT_stimuli/rescaled_final/1708_rv.mp4	0.0	155.5307161808014	
27	138.8955099582672	fix_post	2		12	25.0	2.5	/experiments/knapen_AOT/AOT_stimuli/rescaled_final/1708_rv.mp4	0.0	156.84723806381226	0.10000014305114746
28	138.99551010131836	fix_pre	0		120	26.0	2.5	/experiments/knapen_AOT/AOT_stimuli/rescaled_final/0827_fw.mp4	0.0	156.9472382068634	1.0001578330993652
28	139.17917704582214	pulse	0	t		26.0	2.5	/experiments/knapen_AOT/AOT_stimuli/rescaled_final/0827_fw.mp4	0.0	157.1309051513672	
28	139.99566793441772	movie	1		244	26.0	2.5	/experiments/knapen_AOT/AOT_stimuli/rescaled_final/0827_fw.mp4	0.0	157.94739603996277	2.500383138656616
28	140.77934789657593	pulse	1	t		26.0	2.5	/experiments/knapen_AOT/AOT_stimuli/rescaled_final/0827_fw.mp4	0.0	158.73107600212097	
28	142.37987399101257	pulse	1	t		26.0	2.5	/experiments/knapen_AOT/AOT_stimuli/rescaled_final/0827_fw.mp4	0.0	160.33160209655762	
28	142.49605107307434	fix_post	2		12	26.0	2.5	/experiments/knapen_AOT/AOT_stimuli/rescaled_final/0827_fw.mp4	0.0	160.44777917861938	0.09999990463256836
29	142.5960509777069	fix_pre	0		120	27.0	2.5	blank	1.0	160.54777908325195	1.0001730918884277
29	143.59622406959534	movie	1		299	27.0	2.5	blank	1.0	161.54795217514038	2.4920239448547363
29	143.97980499267578	pulse	1	t		27.0	2.5	blank	1.0	161.93153309822083	
29	145.5800380706787	pulse	1	t		27.0	2.5	blank	1.0	163.53176617622375	
29	146.08824801445007	fix_post	2		12	27.0	2.5	blank	1.0	164.03997611999512	0.10002708435058594
30	146.18827509880066	fix_pre	0		120	28.0	2.5	/experiments/knapen_AOT/AOT_stimuli/rescaled_final/0860_fw.mp4	0.0	164.1400032043457	1.000152826309204
30	147.18032097816467	pulse	0	t		28.0	2.5	/experiments/knapen_AOT/AOT_stimuli/rescaled_final/0860_fw.mp4	0.0	165.13204908370972	
30	147.18842792510986	movie	1		244	28.0	2.5	/experiments/knapen_AOT/AOT_stimuli/rescaled_final/0860_fw.mp4	0.0	165.1401560306549	2.508758068084717
30	148.78105306625366	pulse	1	t		28.0	2.5	/experiments/knapen_AOT/AOT_stimuli/rescaled_final/0860_fw.mp4	0.0	166.7327811717987	
30	149.69718599319458	fix_post	2		12	28.0	2.5	/experiments/knapen_AOT/AOT_stimuli/rescaled_final/0860_fw.mp4	0.0	167.64891409873962	0.09996294975280762
31	149.7971489429474	fix_pre	0		120	29.0	2.5	/experiments/knapen_AOT/AOT_stimuli/rescaled_final/0579_fw.mp4	0.0	167.74887704849243	1.0001599788665771
31	150.38078689575195	pulse	0	t		29.0	2.5	/experiments/knapen_AOT/AOT_stimuli/rescaled_final/0579_fw.mp4	0.0	168.332515001297	
31	150.79730892181396	movie	1		242	29.0	2.5	/experiments/knapen_AOT/AOT_stimuli/rescaled_final/0579_fw.mp4	0.0	168.749037027359	2.5005640983581543
31	151.98110008239746	pulse	1	t		29.0	2.5	/experiments/knapen_AOT/AOT_stimuli/rescaled_final/0579_fw.mp4	0.0	169.9328281879425	
31	153.29787302017212	fix_post	2		12	29.0	2.5	/experiments/knapen_AOT/AOT_stimuli/rescaled_final/0579_fw.mp4	0.0	171.24960112571716	0.09980106353759766
32	153.39767408370972	fix_pre	0		120	30.0	2.5	/experiments/knapen_AOT/AOT_stimuli/rescaled_final/1138_fw.mp4	0.0	171.34940218925476	1.0001399517059326
32	153.58130502700806	pulse	0	t		30.0	2.5	/experiments/knapen_AOT/AOT_stimuli/rescaled_final/1138_fw.mp4	0.0	171.5330331325531	
32	154.39781403541565	movie	1		243	30.0	2.5	/experiments/knapen_AOT/AOT_stimuli/rescaled_final/1138_fw.mp4	0.0	172.3495421409607	2.5003740787506104
32	155.18148708343506	pulse	1	t		30.0	2.5	/experiments/knapen_AOT/AOT_stimuli/rescaled_final/1138_fw.mp4	0.0	173.1332151889801	
32	156.7816309928894	pulse	1	t		30.0	2.5	/experiments/knapen_AOT/AOT_stimuli/rescaled_final/1138_fw.mp4	0.0	174.73335909843445	
32	156.89818811416626	fix_post	2		12	30.0	2.5	/experiments/knapen_AOT/AOT_stimuli/rescaled_final/1138_fw.mp4	0.0	174.8499162197113	0.10010290145874023
33	156.998291015625	fix_pre	0		120	31.0	2.5	/experiments/knapen_AOT/AOT_stimuli/rescaled_final/1616_fw.mp4	0.0	174.95001912117004	1.0000839233398438
33	157.99837493896484	movie	1		241	31.0	2.5	/experiments/knapen_AOT/AOT_stimuli/rescaled_final/1616_fw.mp4	0.0	175.9501030445099	2.4921200275421143
33	158.3824861049652	pulse	1	t		31.0	2.5	/experiments/knapen_AOT/AOT_stimuli/rescaled_final/1616_fw.mp4	0.0	176.33421421051025	
33	159.98227310180664	pulse	1	t		31.0	2.5	/experiments/knapen_AOT/AOT_stimuli/rescaled_final/1616_fw.mp4	0.0	177.93400120735168	
33	160.49049496650696	fix_post	2		12	31.0	2.5	/experiments/knapen_AOT/AOT_stimuli/rescaled_final/1616_fw.mp4	0.0	178.442223072052	0.09990310668945312
34	160.5903980731964	fix_pre	0		120	32.0	2.5	/experiments/knapen_AOT/AOT_stimuli/rescaled_final/0757_rv.mp4	0.0	178.54212617874146	1.0001959800720215
34	161.58251190185547	pulse	0	t		32.0	2.5	/experiments/knapen_AOT/AOT_stimuli/rescaled_final/0757_rv.mp4	0.0	179.5342400074005	
34	161.59059405326843	movie	1		245	32.0	2.5	/experiments/knapen_AOT/AOT_stimuli/rescaled_final/0757_rv.mp4	0.0	179.54232215881348	2.508661985397339
34	163.18676900863647	pulse	1	t		32.0	2.5	/experiments/knapen_AOT/AOT_stimuli/rescaled_final/0757_rv.mp4	0.0	181.13849711418152	
34	164.09925603866577	fix_post	2		12	32.0	2.5	/experiments/knapen_AOT/AOT_stimuli/rescaled_final/0757_rv.mp4	0.0	182.05098414421082	0.1000208854675293
35	164.1992769241333	fix_pre	0		120	33.0	2.5	blank	1.0	182.15100502967834	1.0001640319824219
35	164.7753129005432	pulse	0	t		33.0	2.5	blank	1.0	182.72704100608826	
35	165.19944095611572	movie	1		300	33.0	2.5	blank	1.0	183.15116906166077	2.500415086746216
35	166.37569904327393	pulse	1	t		33.0	2.5	blank	1.0	184.32742714881897	
35	167.69985604286194	fix_post	2		12	33.0	2.5	blank	1.0	185.65158414840698	0.09999895095825195
36	167.7998549938202	fix_pre	0		120	34.0	2.5	/experiments/knapen_AOT/AOT_stimuli/rescaled_final/1835_fw.mp4	0.0	185.75158309936523	1.0001471042633057
36	167.97593593597412	pulse	0	t		34.0	2.5	/experiments/knapen_AOT/AOT_stimuli/rescaled_final/1835_fw.mp4	0.0	185.92766404151917	
36	168.8000020980835	movie	1		242	34.0	2.5	/experiments/knapen_AOT/AOT_stimuli/rescaled_final/1835_fw.mp4	0.0	186.75173020362854	2.500555992126465
36	169.5761170387268	pulse	1	t		34.0	2.5	/experiments/knapen_AOT/AOT_stimuli/rescaled_final/1835_fw.mp4	0.0	187.52784514427185	
36	171.1755769252777	pulse	1	t		34.0	2.5	/experiments/knapen_AOT/AOT_stimuli/rescaled_final/1835_fw.mp4	0.0	189.12730503082275	
36	171.30055809020996	fix_post	2		12	34.0	2.5	/experiments/knapen_AOT/AOT_stimuli/rescaled_final/1835_fw.mp4	0.0	189.252286195755	0.09979581832885742
37	171.40035390853882	fix_pre	0		120	35.0	2.5	/experiments/knapen_AOT/AOT_stimuli/rescaled_final/2031_fw.mp4	0.0	189.35208201408386	1.000157117843628
37	172.40051102638245	movie	1		242	35.0	2.5	/experiments/knapen_AOT/AOT_stimuli/rescaled_final/2031_fw.mp4	0.0	190.3522391319275	2.4920449256896973
37	172.77569699287415	pulse	1	t		35.0	2.5	/experiments/knapen_AOT/AOT_stimuli/rescaled_final/2031_fw.mp4	0.0	190.7274250984192	
37	174.37615203857422	pulse	1	t		35.0	2.5	/experiments/knapen_AOT/AOT_stimuli/rescaled_final/2031_fw.mp4	0.0	192.32788014411926	
37	174.89255595207214	fix_post	2		12	35.0	2.5	/experiments/knapen_AOT/AOT_stimuli/rescaled_final/2031_fw.mp4	0.0	192.8442840576172	0.10002994537353516
38	174.99258589744568	fix_pre	0		119	36.0	2.5	/experiments/knapen_AOT/AOT_stimuli/rescaled_final/1919_fw.mp4	0.0	192.94431400299072	0.9917721748352051
38	175.97637295722961	pulse	0	t		36.0	2.5	/experiments/knapen_AOT/AOT_stimuli/rescaled_final/1919_fw.mp4	0.0	193.92810106277466	
38	175.98435807228088	movie	1		244	36.0	2.5	/experiments/knapen_AOT/AOT_stimuli/rescaled_final/1919_fw.mp4	0.0	193.93608617782593	2.5087368488311768
38	177.57704401016235	pulse	1	t		36.0	2.5	/experiments/knapen_AOT/AOT_stimuli/rescaled_final/1919_fw.mp4	0.0	195.5287721157074	
38	178.49309492111206	fix_post	2		12	36.0	2.5	/experiments/knapen_AOT/AOT_stimuli/rescaled_final/1919_fw.mp4	0.0	196.4448230266571	0.10005402565002441
39	178.59314894676208	fix_pre	0		120	37.0	2.5	/experiments/knapen_AOT/AOT_stimuli/rescaled_final/2137_rv.mp4	0.0	196.54487705230713	1.000115156173706
39	179.1766381263733	pulse	0	t		37.0	2.5	/experiments/knapen_AOT/AOT_stimuli/rescaled_final/2137_rv.mp4	0.0	197.12836623191833	
39	179.5932641029358	movie	1		244	37.0	2.5	/experiments/knapen_AOT/AOT_stimuli/rescaled_final/2137_rv.mp4	0.0	197.54499220848083	2.5003340244293213
39	180.77704501152039	pulse	1	t		37.0	2.5	/experiments/knapen_AOT/AOT_stimuli/rescaled_final/2137_rv.mp4	0.0	198.72877311706543	
39	182.0935981273651	fix_post	2		12	37.0	2.5	/experiments/knapen_AOT/AOT_stimuli/rescaled_final/2137_rv.mp4	0.0	200.04532623291016	0.10004281997680664
40	182.19364094734192	fix_pre	0		120	38.0	2.5	/experiments/knapen_AOT/AOT_stimuli/rescaled_final/2082_rv.mp4	0.0	200.14536905288696	1.0001680850982666
40	182.37720203399658	pulse	0	t		38.0	2.5	/experiments/knapen_AOT/AOT_stimuli/rescaled_final/2082_rv.mp4	0.0	200.32893013954163	
40	183.19380903244019	movie	1		244	38.0	2.5	/experiments/knapen_AOT/AOT_stimuli/rescaled_final/2082_rv.mp4	0.0	201.14553713798523	2.500314950942993
40	183.97755193710327	pulse	1	t		38.0	2.5	/experiments/knapen_AOT/AOT_stimuli/rescaled_final/2082_rv.mp4	0.0	201.92928004264832	
40	185.57771611213684	pulse	1	t		38.0	2.5	/experiments/knapen_AOT/AOT_stimuli/rescaled_final/2082_rv.mp4	0.0	203.52944421768188	
40	185.69412398338318	fix_post	2		12	38.0	2.5	/experiments/knapen_AOT/AOT_stimuli/rescaled_final/2082_rv.mp4	0.0	203.64585208892822	0.10003304481506348
41	185.79415702819824	fix_pre	0		120	39.0	2.5	/experiments/knapen_AOT/AOT_stimuli/rescaled_final/0930_fw.mp4	0.0	203.7458851337433	1.0001649856567383
41	186.79432201385498	movie	1		241	39.0	2.5	/experiments/knapen_AOT/AOT_stimuli/rescaled_final/0930_fw.mp4	0.0	204.74605011940002	2.4921040534973145
41	187.17852902412415	pulse	1	t		39.0	2.5	/experiments/knapen_AOT/AOT_stimuli/rescaled_final/0930_fw.mp4	0.0	205.1302571296692	
41	188.77826309204102	pulse	1	t		39.0	2.5	/experiments/knapen_AOT/AOT_stimuli/rescaled_final/0930_fw.mp4	0.0	206.72999119758606	
41	189.2864260673523	fix_post	2		12	39.0	2.5	/experiments/knapen_AOT/AOT_stimuli/rescaled_final/0930_fw.mp4	0.0	207.23815417289734	0.09994792938232422
42	189.38637399673462	fix_pre	0		120	40.0	2.5	blank	1.0	207.33810210227966	1.0001330375671387
42	190.3784840106964	pulse	0	t		40.0	2.5	blank	1.0	208.33021211624146	
42	190.38650703430176	movie	1		301	40.0	2.5	blank	1.0	208.3382351398468	2.5087239742279053
42	191.9786159992218	pulse	1	t		40.0	2.5	blank	1.0	209.93034410476685	
42	192.89523100852966	fix_post	2		12	40.0	2.5	blank	1.0	210.8469591140747	0.10007691383361816
43	192.99530792236328	fix_pre	0		120	41.0	2.5	/experiments/knapen_AOT/AOT_stimuli/rescaled_final/0577_rv.mp4	0.0	210.94703602790833	1.0000741481781006
43	193.5788071155548	pulse	0	t		41.0	2.5	/experiments/knapen_AOT/AOT_stimuli/rescaled_final/0577_rv.mp4	0.0	211.53053522109985	
43	193.99538207054138	movie	1		242	41.0	2.5	/experiments/knapen_AOT/AOT_stimuli/rescaled_final/0577_rv.mp4	0.0	211.94711017608643	2.5005109310150146
43	195.17919397354126	pulse	1	t		41.0	2.5	/experiments/knapen_AOT/AOT_stimuli/rescaled_final/0577_rv.mp4	0.0	213.1309220790863	
43	196.4958930015564	fix_post	2		8	41.0	2.5	/experiments/knapen_AOT/AOT_stimuli/rescaled_final/0577_rv.mp4	0.0	214.44762110710144	0.0999150276184082
44	196.5958080291748	fix_pre	0		120	42.0	2.5	/experiments/knapen_AOT/AOT_stimuli/rescaled_final/0817_fw.mp4	0.0	214.54753613471985	1.0001749992370605
44	196.7794349193573	pulse	0	t		42.0	2.5	/experiments/knapen_AOT/AOT_stimuli/rescaled_final/0817_fw.mp4	0.0	214.73116302490234	
44	197.59598302841187	movie	1		242	42.0	2.5	/experiments/knapen_AOT/AOT_stimuli/rescaled_final/0817_fw.mp4	0.0	215.5477111339569	2.5004959106445312
44	198.37962412834167	pulse	1	t		42.0	2.5	/experiments/knapen_AOT/AOT_stimuli/rescaled_final/0817_fw.mp4	0.0	216.33135223388672	
44	199.98019409179688	pulse	1	t		42.0	2.5	/experiments/knapen_AOT/AOT_stimuli/rescaled_final/0817_fw.mp4	0.0	217.93192219734192	
44	200.0964789390564	fix_post	2		12	42.0	2.5	/experiments/knapen_AOT/AOT_stimuli/rescaled_final/0817_fw.mp4	0.0	218.04820704460144	0.09989500045776367
45	200.19637393951416	fix_pre	0		120	43.0	2.5	/experiments/knapen_AOT/AOT_stimuli/rescaled_final/0998_fw.mp4	0.0	218.1481020450592	1.000115156173706
45	201.19648909568787	movie	1		243	43.0	2.5	/experiments/knapen_AOT/AOT_stimuli/rescaled_final/0998_fw.mp4	0.0	219.1482172012329	2.49200701713562
45	201.58134508132935	pulse	1	t		43.0	2.5	/experiments/knapen_AOT/AOT_stimuli/rescaled_final/0998_fw.mp4	0.0	219.5330731868744	
45	203.18037796020508	pulse	1	t		43.0	2.5	/experiments/knapen_AOT/AOT_stimuli/rescaled_final/0998_fw.mp4	0.0	221.13210606575012	
45	203.6884961128235	fix_post	2		12	43.0	2.5	/experiments/knapen_AOT/AOT_stimuli/rescaled_final/0998_fw.mp4	0.0	221.64022421836853	0.10005378723144531
46	203.78854990005493	fix_pre	0		120	44.0	2.5	/experiments/knapen_AOT/AOT_stimuli/rescaled_final/1362_fw.mp4	0.0	221.74027800559998	1.0001881122589111
46	204.78053903579712	pulse	0	t		44.0	2.5	/experiments/knapen_AOT/AOT_stimuli/rescaled_final/1362_fw.mp4	0.0	222.73226714134216	
46	204.78873801231384	movie	1		244	44.0	2.5	/experiments/knapen_AOT/AOT_stimuli/rescaled_final/1362_fw.mp4	0.0	222.7404661178589	2.5086519718170166
46	206.38170289993286	pulse	1	t		44.0	2.5	/experiments/knapen_AOT/AOT_stimuli/rescaled_final/1362_fw.mp4	0.0	224.3334310054779	
46	207.29738998413086	fix_post	2		12	44.0	2.5	/experiments/knapen_AOT/AOT_stimuli/rescaled_final/1362_fw.mp4	0.0	225.2491180896759	0.09999394416809082
47	207.39738392829895	fix_pre	0		120	45.0	2.5	/experiments/knapen_AOT/AOT_stimuli/rescaled_final/1376_fw.mp4	0.0	225.349112033844	1.0001721382141113
47	207.98100805282593	pulse	0	t		45.0	2.5	/experiments/knapen_AOT/AOT_stimuli/rescaled_final/1376_fw.mp4	0.0	225.93273615837097	
47	208.39755606651306	movie	1		243	45.0	2.5	/experiments/knapen_AOT/AOT_stimuli/rescaled_final/1376_fw.mp4	0.0	226.3492841720581	2.5003750324249268
47	209.58135604858398	pulse	1	t		45.0	2.5	/experiments/knapen_AOT/AOT_stimuli/rescaled_final/1376_fw.mp4	0.0	227.53308415412903	
47	210.897931098938	fix_post	2		12	45.0	2.5	/experiments/knapen_AOT/AOT_stimuli/rescaled_final/1376_fw.mp4	0.0	228.84965920448303	0.10002493858337402
48	210.99795603752136	fix_pre	0		120	46.0	2.5	/experiments/knapen_AOT/AOT_stimuli/rescaled_final/1434_rv.mp4	0.0	228.9496841430664	1.0001258850097656
48	211.1815469264984	pulse	0	t		46.0	2.5	/experiments/knapen_AOT/AOT_stimuli/rescaled_final/1434_rv.mp4	0.0	229.13327503204346	
48	211.99808192253113	movie	1		244	46.0	2.5	/experiments/knapen_AOT/AOT_stimuli/rescaled_final/1434_rv.mp4	0.0	229.94981002807617	2.500365972518921
48	212.7816879749298	pulse	1	t		46.0	2.5	/experiments/knapen_AOT/AOT_stimuli/rescaled_final/1434_rv.mp4	0.0	230.73341608047485	
48	214.38202905654907	pulse	1	t		46.0	2.5	/experiments/knapen_AOT/AOT_stimuli/rescaled_final/1434_rv.mp4	0.0	232.33375716209412	
48	214.49844789505005	fix_post	2		12	46.0	2.5	/experiments/knapen_AOT/AOT_stimuli/rescaled_final/1434_rv.mp4	0.0	232.4501760005951	0.10001516342163086
49	214.59846305847168	fix_pre	0		120	47.0	2.5	/experiments/knapen_AOT/AOT_stimuli/rescaled_final/0873_fw.mp4	0.0	232.55019116401672	1.0001699924468994
49	215.59863305091858	movie	1		242	47.0	2.5	/experiments/knapen_AOT/AOT_stimuli/rescaled_final/0873_fw.mp4	0.0	233.55036115646362	2.492008924484253
49	215.98715090751648	pulse	1	t		47.0	2.5	/experiments/knapen_AOT/AOT_stimuli/rescaled_final/0873_fw.mp4	0.0	233.93887901306152	
49	217.5751669406891	pulse	1	t		47.0	2.5	/experiments/knapen_AOT/AOT_stimuli/rescaled_final/0873_fw.mp4	0.0	235.52689504623413	
49	218.09064197540283	fix_post	2		12	47.0	2.5	/experiments/knapen_AOT/AOT_stimuli/rescaled_final/0873_fw.mp4	0.0	236.04237008094788	0.10011005401611328
50	218.19075202941895	fix_pre	0		120	48.0	2.5	blank	1.0	236.142480134964	1.0001380443572998
50	219.17509007453918	pulse	0	t		48.0	2.5	blank	1.0	237.12681818008423	
50	219.19089007377625	movie	1		301	48.0	2.5	blank	1.0	237.1426181793213	2.5086510181427
50	220.77533411979675	pulse	1	t		48.0	2.5	blank	1.0	238.7270622253418	
50	221.69954109191895	fix_post	2		12	48.0	2.5	blank	1.0	239.651269197464	0.10004091262817383
51	221.79958200454712	fix_pre	0		120	49.0	2.5	/experiments/knapen_AOT/AOT_stimuli/rescaled_final/1926_fw.mp4	0.0	239.75131011009216	1.0001380443572998
51	222.37565994262695	pulse	0	t		49.0	2.5	/experiments/knapen_AOT/AOT_stimuli/rescaled_final/1926_fw.mp4	0.0	240.327388048172	
51	222.79972004890442	movie	1		246	49.0	2.5	/experiments/knapen_AOT/AOT_stimuli/rescaled_final/1926_fw.mp4	0.0	240.75144815444946	2.500385046005249
51	223.97578597068787	pulse	1	t		49.0	2.5	/experiments/knapen_AOT/AOT_stimuli/rescaled_final/1926_fw.mp4	0.0	241.9275140762329	
51	225.30010509490967	fix_post	2		12	49.0	2.5	/experiments/knapen_AOT/AOT_stimuli/rescaled_final/1926_fw.mp4	0.0	243.2518332004547	0.1000058650970459
52	225.4001109600067	fix_pre	0		120	50.0	2.5	/experiments/knapen_AOT/AOT_stimuli/rescaled_final/1593_rv.mp4	0.0	243.35183906555176	1.0001449584960938
52	225.57538199424744	pulse	0	t		50.0	2.5	/experiments/knapen_AOT/AOT_stimuli/rescaled_final/1593_rv.mp4	0.0	243.52711009979248	
52	226.4002559185028	movie	1		242	50.0	2.5	/experiments/knapen_AOT/AOT_stimuli/rescaled_final/1593_rv.mp4	0.0	244.35198402404785	2.4920051097869873
52	227.17556595802307	pulse	1	t		50.0	2.5	/experiments/knapen_AOT/AOT_stimuli/rescaled_final/1593_rv.mp4	0.0	245.12729406356812	
52	228.7758150100708	pulse	1	t		50.0	2.5	/experiments/knapen_AOT/AOT_stimuli/rescaled_final/1593_rv.mp4	0.0	246.72754311561584	
52	228.8922610282898	fix_post	2		13	50.0	2.5	/experiments/knapen_AOT/AOT_stimuli/rescaled_final/1593_rv.mp4	0.0	246.84398913383484	0.1084129810333252
53	229.00067400932312	fix_pre	0		119	51.0	2.5	/experiments/knapen_AOT/AOT_stimuli/rescaled_final/1057_fw.mp4	0.0	246.95240211486816	0.9917380809783936
53	229.9924120903015	movie	1		243	51.0	2.5	/experiments/knapen_AOT/AOT_stimuli/rescaled_final/1057_fw.mp4	0.0	247.94414019584656	2.50040602684021
53	230.37660694122314	pulse	1	t		51.0	2.5	/experiments/knapen_AOT/AOT_stimuli/rescaled_final/1057_fw.mp4	0.0	248.3283350467682	
53	231.9763059616089	pulse	1	t		51.0	2.5	/experiments/knapen_AOT/AOT_stimuli/rescaled_final/1057_fw.mp4	0.0	249.92803406715393	
53	232.49281811714172	fix_post	2		12	51.0	2.5	/experiments/knapen_AOT/AOT_stimuli/rescaled_final/1057_fw.mp4	0.0	250.44454622268677	0.10003185272216797
54	232.5928499698639	fix_pre	0		119	52.0	2.5	/experiments/knapen_AOT/AOT_stimuli/rescaled_final/0287_fw.mp4	0.0	250.54457807540894	0.9918360710144043
54	233.57646989822388	pulse	0	t		52.0	2.5	/experiments/knapen_AOT/AOT_stimuli/rescaled_final/0287_fw.mp4	0.0	251.52819800376892	
54	233.5846860408783	movie	1		244	52.0	2.5	/experiments/knapen_AOT/AOT_stimuli/rescaled_final/0287_fw.mp4	0.0	251.53641414642334	2.5086829662323
54	235.17790293693542	pulse	1	t		52.0	2.5	/experiments/knapen_AOT/AOT_stimuli/rescaled_final/0287_fw.mp4	0.0	253.12963104248047	
54	236.0933690071106	fix_post	2		12	52.0	2.5	/experiments/knapen_AOT/AOT_stimuli/rescaled_final/0287_fw.mp4	0.0	254.04509711265564	0.10000395774841309
55	236.193372964859	fix_pre	0		120	53.0	2.5	/experiments/knapen_AOT/AOT_stimuli/rescaled_final/0104_fw.mp4	0.0	254.14510107040405	1.0001170635223389
55	236.77705311775208	pulse	0	t		53.0	2.5	/experiments/knapen_AOT/AOT_stimuli/rescaled_final/0104_fw.mp4	0.0	254.72878122329712	
55	237.19349002838135	movie	1		243	53.0	2.5	/experiments/knapen_AOT/AOT_stimuli/rescaled_final/0104_fw.mp4	0.0	255.1452181339264	2.500386953353882
55	238.37738299369812	pulse	1	t		53.0	2.5	/experiments/knapen_AOT/AOT_stimuli/rescaled_final/0104_fw.mp4	0.0	256.32911109924316	
55	239.69387698173523	fix_post	2		12	53.0	2.5	/experiments/knapen_AOT/AOT_stimuli/rescaled_final/0104_fw.mp4	0.0	257.6456050872803	0.0999910831451416
56	239.79386806488037	fix_pre	0		120	54.0	2.5	blank	1.0	257.7455961704254	1.0001728534698486
56	239.97746896743774	pulse	0	t		54.0	2.5	blank	1.0	257.9291970729828	
56	240.79404091835022	movie	1		300	54.0	2.5	blank	1.0	258.74576902389526	2.500354051589966
56	241.57769203186035	pulse	1	t		54.0	2.5	blank	1.0	259.5294201374054	
56	243.17796897888184	pulse	1	t		54.0	2.5	blank	1.0	261.1296970844269	
56	243.29439496994019	fix_post	2		12	54.0	2.5	blank	1.0	261.24612307548523	0.1000680923461914
57	243.39446306228638	fix_pre	0		119	55.0	2.5	/experiments/knapen_AOT/AOT_stimuli/rescaled_final/0918_rv.mp4	0.0	261.3461911678314	0.9918198585510254
57	244.3862829208374	movie	1		244	55.0	2.5	/experiments/knapen_AOT/AOT_stimuli/rescaled_final/0918_rv.mp4	0.0	262.33801102638245	2.5003201961517334
57	244.77830600738525	pulse	1	t		55.0	2.5	/experiments/knapen_AOT/AOT_stimuli/rescaled_final/0918_rv.mp4	0.0	262.7300341129303	
57	246.37838006019592	pulse	1	t		55.0	2.5	/experiments/knapen_AOT/AOT_stimuli/rescaled_final/0918_rv.mp4	0.0	264.33010816574097	
57	246.88660311698914	fix_post	2		12	55.0	2.5	/experiments/knapen_AOT/AOT_stimuli/rescaled_final/0918_rv.mp4	0.0	264.8383312225342	0.1000218391418457
58	246.98662495613098	fix_pre	0		120	56.0	2.5	/experiments/knapen_AOT/AOT_stimuli/rescaled_final/1276_rv.mp4	0.0	264.938353061676	1.0001449584960938
58	247.97861194610596	pulse	0	t		56.0	2.5	/experiments/knapen_AOT/AOT_stimuli/rescaled_final/1276_rv.mp4	0.0	265.930340051651	
58	247.98676991462708	movie	1		245	56.0	2.5	/experiments/knapen_AOT/AOT_stimuli/rescaled_final/1276_rv.mp4	0.0	265.9384980201721	2.5087101459503174
58	249.57939195632935	pulse	1	t		56.0	2.5	/experiments/knapen_AOT/AOT_stimuli/rescaled_final/1276_rv.mp4	0.0	267.5311200618744	
58	250.4954800605774	fix_post	2		12	56.0	2.5	/experiments/knapen_AOT/AOT_stimuli/rescaled_final/1276_rv.mp4	0.0	268.44720816612244	0.10005688667297363
59	250.59553694725037	fix_pre	0		120	57.0	2.5	/experiments/knapen_AOT/AOT_stimuli/rescaled_final/1057_rv.mp4	0.0	268.5472650527954	1.0002281665802002
59	251.1792230606079	pulse	0	t		57.0	2.5	/experiments/knapen_AOT/AOT_stimuli/rescaled_final/1057_rv.mp4	0.0	269.13095116615295	
59	251.59576511383057	movie	1		243	57.0	2.5	/experiments/knapen_AOT/AOT_stimuli/rescaled_final/1057_rv.mp4	0.0	269.5474932193756	2.5002388954162598
59	252.77946591377258	pulse	1	t		57.0	2.5	/experiments/knapen_AOT/AOT_stimuli/rescaled_final/1057_rv.mp4	0.0	270.7311940193176	
59	254.09600400924683	fix_post	2		12	57.0	2.5	/experiments/knapen_AOT/AOT_stimuli/rescaled_final/1057_rv.mp4	0.0	272.04773211479187	0.10002994537353516
60	254.19603395462036	fix_pre	0		120	58.0	2.5	/experiments/knapen_AOT/AOT_stimuli/rescaled_final/0518_fw.mp4	0.0	272.1477620601654	1.0001699924468994
60	254.37954711914062	pulse	0	t		58.0	2.5	/experiments/knapen_AOT/AOT_stimuli/rescaled_final/0518_fw.mp4	0.0	272.33127522468567	
60	255.19620394706726	movie	1		244	58.0	2.5	/experiments/knapen_AOT/AOT_stimuli/rescaled_final/0518_fw.mp4	0.0	273.1479320526123	2.5003581047058105
60	255.97984409332275	pulse	1	t		58.0	2.5	/experiments/knapen_AOT/AOT_stimuli/rescaled_final/0518_fw.mp4	0.0	273.9315721988678	
60	257.5800790786743	pulse	1	t		58.0	2.5	/experiments/knapen_AOT/AOT_stimuli/rescaled_final/0518_fw.mp4	0.0	275.53180718421936	
60	257.69656205177307	fix_post	2		9	58.0	2.5	/experiments/knapen_AOT/AOT_stimuli/rescaled_final/0518_fw.mp4	0.0	275.6482901573181	0.10001087188720703
61	257.7965729236603	fix_pre	0		120	59.0	2.5	/experiments/knapen_AOT/AOT_stimuli/rescaled_final/0799_fw.mp4	0.0	275.7483010292053	1.0002541542053223
61	258.7968270778656	movie	1		241	59.0	2.5	/experiments/knapen_AOT/AOT_stimuli/rescaled_final/0799_fw.mp4	0.0	276.74855518341064	2.492072820663452
61	259.18119192123413	pulse	1	t		59.0	2.5	/experiments/knapen_AOT/AOT_stimuli/rescaled_final/0799_fw.mp4	0.0	277.1329200267792	
61	260.7805790901184	pulse	1	t		59.0	2.5	/experiments/knapen_AOT/AOT_stimuli/rescaled_final/0799_fw.mp4	0.0	278.73230719566345	
61	261.28889989852905	fix_post	2		12	59.0	2.5	/experiments/knapen_AOT/AOT_stimuli/rescaled_final/0799_fw.mp4	0.0	279.2406280040741	0.09992122650146484
62	261.3888211250305	fix_pre	0		120	60.0	2.5	/experiments/knapen_AOT/AOT_stimuli/rescaled_final/1296_rv.mp4	0.0	279.34054923057556	1.0000967979431152
62	262.38080406188965	pulse	0	t		60.0	2.5	/experiments/knapen_AOT/AOT_stimuli/rescaled_final/1296_rv.mp4	0.0	280.3325321674347	
62	262.38891792297363	movie	1		245	60.0	2.5	/experiments/knapen_AOT/AOT_stimuli/rescaled_final/1296_rv.mp4	0.0	280.3406460285187	2.5087060928344727
62	263.98152899742126	pulse	1	t		60.0	2.5	/experiments/knapen_AOT/AOT_stimuli/rescaled_final/1296_rv.mp4	0.0	281.9332571029663	
62	264.8976240158081	fix_post	2		12	60.0	2.5	/experiments/knapen_AOT/AOT_stimuli/rescaled_final/1296_rv.mp4	0.0	282.84935212135315	0.10008907318115234
63	264.99771308898926	fix_pre	0		120	61.0	2.5	/experiments/knapen_AOT/AOT_stimuli/rescaled_final/0692_fw.mp4	0.0	282.9494411945343	1.0001249313354492
63	265.58132696151733	pulse	0	t		61.0	2.5	/experiments/knapen_AOT/AOT_stimuli/rescaled_final/0692_fw.mp4	0.0	283.5330550670624	
63	265.9978380203247	movie	1		242	61.0	2.5	/experiments/knapen_AOT/AOT_stimuli/rescaled_final/0692_fw.mp4	0.0	283.94956612586975	2.5005428791046143
63	267.18158507347107	pulse	1	t		61.0	2.5	/experiments/knapen_AOT/AOT_stimuli/rescaled_final/0692_fw.mp4	0.0	285.1333131790161	
63	268.4983808994293	fix_post	2		12	61.0	2.5	/experiments/knapen_AOT/AOT_stimuli/rescaled_final/0692_fw.mp4	0.0	286.45010900497437	0.09981513023376465
64	268.5981960296631	fix_pre	0		120	62.0	2.5	blank	1.0	286.54992413520813	1.0001530647277832
64	268.7816889286041	pulse	0	t		62.0	2.5	blank	1.0	286.73341703414917	
64	269.59834909439087	movie	1		300	62.0	2.5	blank	1.0	287.5500771999359	2.5003809928894043
64	270.38198590278625	pulse	1	t		62.0	2.5	blank	1.0	288.3337140083313	
64	271.9822750091553	pulse	1	t		62.0	2.5	blank	1.0	289.9340031147003	
64	272.0987300872803	fix_post	2		12	62.0	2.5	blank	1.0	290.0504581928253	0.10002899169921875
65	272.1987590789795	fix_pre	0		120	63.0	2.5	/experiments/knapen_AOT/AOT_stimuli/rescaled_final/0806_rv.mp4	0.0	290.15048718452454	1.0001888275146484
65	273.19894790649414	movie	1		241	63.0	2.5	/experiments/knapen_AOT/AOT_stimuli/rescaled_final/0806_rv.mp4	0.0	291.1506760120392	2.4920480251312256
65	273.5830509662628	pulse	1	t		63.0	2.5	/experiments/knapen_AOT/AOT_stimuli/rescaled_final/0806_rv.mp4	0.0	291.53477907180786	
65	275.1826820373535	pulse	1	t		63.0	2.5	/experiments/knapen_AOT/AOT_stimuli/rescaled_final/0806_rv.mp4	0.0	293.13441014289856	
65	275.69099593162537	fix_post	2		12	63.0	2.5	/experiments/knapen_AOT/AOT_stimuli/rescaled_final/0806_rv.mp4	0.0	293.6427240371704	0.09999608993530273
66	275.79099202156067	fix_pre	0		119	64.0	2.5	/experiments/knapen_AOT/AOT_stimuli/rescaled_final/0208_fw.mp4	0.0	293.7427201271057	0.9917469024658203
66	276.77477407455444	pulse	0	t		64.0	2.5	/experiments/knapen_AOT/AOT_stimuli/rescaled_final/0208_fw.mp4	0.0	294.7265021800995	
66	276.7827389240265	movie	1		245	64.0	2.5	/experiments/knapen_AOT/AOT_stimuli/rescaled_final/0208_fw.mp4	0.0	294.73446702957153	2.508721113204956
66	278.3760390281677	pulse	1	t		64.0	2.5	/experiments/knapen_AOT/AOT_stimuli/rescaled_final/0208_fw.mp4	0.0	296.32776713371277	
66	279.29146003723145	fix_post	2		12	64.0	2.5	/experiments/knapen_AOT/AOT_stimuli/rescaled_final/0208_fw.mp4	0.0	297.2431881427765	0.09999895095825195
67	279.3914589881897	fix_pre	0		120	65.0	2.5	/experiments/knapen_AOT/AOT_stimuli/rescaled_final/1454_rv.mp4	0.0	297.34318709373474	1.0001540184020996
67	279.9750249385834	pulse	0	t		65.0	2.5	/experiments/knapen_AOT/AOT_stimuli/rescaled_final/1454_rv.mp4	0.0	297.9267530441284	
67	280.3916130065918	movie	1		244	65.0	2.5	/experiments/knapen_AOT/AOT_stimuli/rescaled_final/1454_rv.mp4	0.0	298.34334111213684	2.5003960132598877
67	281.5755100250244	pulse	1	t		65.0	2.5	/experiments/knapen_AOT/AOT_stimuli/rescaled_final/1454_rv.mp4	0.0	299.52723813056946	
67	282.8920090198517	fix_post	2		12	65.0	2.5	/experiments/knapen_AOT/AOT_stimuli/rescaled_final/1454_rv.mp4	0.0	300.84373712539673	0.09998703002929688
68	282.991996049881	fix_pre	0		120	66.0	2.5	/experiments/knapen_AOT/AOT_stimuli/rescaled_final/0567_rv.mp4	0.0	300.943724155426	1.0001349449157715
68	283.1755509376526	pulse	0	t		66.0	2.5	/experiments/knapen_AOT/AOT_stimuli/rescaled_final/0567_rv.mp4	0.0	301.12727904319763	
68	283.99213099479675	movie	1		243	66.0	2.5	/experiments/knapen_AOT/AOT_stimuli/rescaled_final/0567_rv.mp4	0.0	301.9438591003418	2.5004379749298096
68	284.77584195137024	pulse	1	t		66.0	2.5	/experiments/knapen_AOT/AOT_stimuli/rescaled_final/0567_rv.mp4	0.0	302.7275700569153	
68	286.376070022583	pulse	1	t		66.0	2.5	/experiments/knapen_AOT/AOT_stimuli/rescaled_final/0567_rv.mp4	0.0	304.32779812812805	
68	286.49256896972656	fix_post	2		12	66.0	2.5	/experiments/knapen_AOT/AOT_stimuli/rescaled_final/0567_rv.mp4	0.0	304.4442970752716	0.09996700286865234
69	286.5925359725952	fix_pre	0		120	67.0	2.5	/experiments/knapen_AOT/AOT_stimuli/rescaled_final/1616_rv.mp4	0.0	304.54426407814026	1.0001599788665771
69	287.5926959514618	movie	1		241	67.0	2.5	/experiments/knapen_AOT/AOT_stimuli/rescaled_final/1616_rv.mp4	0.0	305.54442405700684	2.4922051429748535
69	287.977490901947	pulse	1	t		67.0	2.5	/experiments/knapen_AOT/AOT_stimuli/rescaled_final/1616_rv.mp4	0.0	305.92921900749207	
69	289.5765120983124	pulse	1	t		67.0	2.5	/experiments/knapen_AOT/AOT_stimuli/rescaled_final/1616_rv.mp4	0.0	307.5282402038574	
69	290.08490109443665	fix_post	2		12	67.0	2.5	/experiments/knapen_AOT/AOT_stimuli/rescaled_final/1616_rv.mp4	0.0	308.0366291999817	0.09983491897583008
70	290.1847360134125	fix_pre	0		120	68.0	2.5	blank	1.0	308.1364641189575	1.0001490116119385
70	291.176726102829	pulse	0	t		68.0	2.5	blank	1.0	309.128454208374	
70	291.1848850250244	movie	1		301	68.0	2.5	blank	1.0	309.13661313056946	2.5087039470672607
70	292.7770071029663	pulse	1	t		68.0	2.5	blank	1.0	310.72873520851135	
70	293.6935889720917	fix_post	2		12	68.0	2.5	blank	1.0	311.6453170776367	0.10006499290466309
71	293.79365396499634	fix_pre	0		120	69.0	2.5	/experiments/knapen_AOT/AOT_stimuli/rescaled_final/0104_rv.mp4	0.0	311.7453820705414	1.0000989437103271
71	294.37724900245667	pulse	0	t		69.0	2.5	/experiments/knapen_AOT/AOT_stimuli/rescaled_final/0104_rv.mp4	0.0	312.3289771080017	
71	294.79375290870667	movie	1		243	69.0	2.5	/experiments/knapen_AOT/AOT_stimuli/rescaled_final/0104_rv.mp4	0.0	312.7454810142517	2.500394105911255
71	295.9775629043579	pulse	1	t		69.0	2.5	/experiments/knapen_AOT/AOT_stimuli/rescaled_final/0104_rv.mp4	0.0	313.92929100990295	
71	297.2941470146179	fix_post	2		12	69.0	2.5	/experiments/knapen_AOT/AOT_stimuli/rescaled_final/0104_rv.mp4	0.0	315.24587512016296	0.10002708435058594
72	297.3941740989685	fix_pre	0		120	70.0	2.5	/experiments/knapen_AOT/AOT_stimuli/rescaled_final/0757_fw.mp4	0.0	315.34590220451355	1.0001699924468994
72	297.57768201828003	pulse	0	t		70.0	2.5	/experiments/knapen_AOT/AOT_stimuli/rescaled_final/0757_fw.mp4	0.0	315.5294101238251	
72	298.3943440914154	movie	1		245	70.0	2.5	/experiments/knapen_AOT/AOT_stimuli/rescaled_final/0757_fw.mp4	0.0	316.34607219696045	2.5003550052642822
72	299.1779799461365	pulse	1	t		70.0	2.5	/experiments/knapen_AOT/AOT_stimuli/rescaled_final/0757_fw.mp4	0.0	317.1297080516815	
72	300.77600598335266	pulse	1	t		70.0	2.5	/experiments/knapen_AOT/AOT_stimuli/rescaled_final/0757_fw.mp4	0.0	318.7277340888977	
72	300.8946990966797	fix_post	2		12	70.0	2.5	/experiments/knapen_AOT/AOT_stimuli/rescaled_final/0757_fw.mp4	0.0	318.84642720222473	0.10000300407409668
73	300.9947021007538	fix_pre	0		119	71.0	2.5	/experiments/knapen_AOT/AOT_stimuli/rescaled_final/0518_rv.mp4	0.0	318.9464302062988	0.9918029308319092
73	301.9865050315857	movie	1		244	71.0	2.5	/experiments/knapen_AOT/AOT_stimuli/rescaled_final/0518_rv.mp4	0.0	319.93823313713074	2.500403881072998
73	302.3785901069641	pulse	1	t		71.0	2.5	/experiments/knapen_AOT/AOT_stimuli/rescaled_final/0518_rv.mp4	0.0	320.33031821250916	
73	303.97867703437805	pulse	1	t		71.0	2.5	/experiments/knapen_AOT/AOT_stimuli/rescaled_final/0518_rv.mp4	0.0	321.9304051399231	
73	304.4869089126587	fix_post	2		12	71.0	2.5	/experiments/knapen_AOT/AOT_stimuli/rescaled_final/0518_rv.mp4	0.0	322.43863701820374	0.10001015663146973
74	304.58691906929016	fix_pre	0		120	72.0	2.5	/experiments/knapen_AOT/AOT_stimuli/rescaled_final/2164_rv.mp4	0.0	322.5386471748352	1.0002200603485107
74	305.57898807525635	pulse	0	t		72.0	2.5	/experiments/knapen_AOT/AOT_stimuli/rescaled_final/2164_rv.mp4	0.0	323.5307161808014	
74	305.5871391296387	movie	1		244	72.0	2.5	/experiments/knapen_AOT/AOT_stimuli/rescaled_final/2164_rv.mp4	0.0	323.5388672351837	2.5085978507995605
74	307.1798701286316	pulse	1	t		72.0	2.5	/experiments/knapen_AOT/AOT_stimuli/rescaled_final/2164_rv.mp4	0.0	325.13159823417664	
74	308.09573698043823	fix_post	2		12	72.0	2.5	/experiments/knapen_AOT/AOT_stimuli/rescaled_final/2164_rv.mp4	0.0	326.0474650859833	0.10002303123474121
75	308.195760011673	fix_pre	0		120	73.0	2.5	/experiments/knapen_AOT/AOT_stimuli/rescaled_final/1378_rv.mp4	0.0	326.147488117218	1.000175952911377
75	308.77942395210266	pulse	0	t		73.0	2.5	/experiments/knapen_AOT/AOT_stimuli/rescaled_final/1378_rv.mp4	0.0	326.7311520576477	
75	309.19593596458435	movie	1		244	73.0	2.5	/experiments/knapen_AOT/AOT_stimuli/rescaled_final/1378_rv.mp4	0.0	327.1476640701294	2.500427007675171
75	310.37973189353943	pulse	1	t		73.0	2.5	/experiments/knapen_AOT/AOT_stimuli/rescaled_final/1378_rv.mp4	0.0	328.3314599990845	
75	311.6963629722595	fix_post	2		12	73.0	2.5	/experiments/knapen_AOT/AOT_stimuli/rescaled_final/1378_rv.mp4	0.0	329.64809107780457	0.09997010231018066
76	311.7963330745697	fix_pre	0		120	74.0	2.5	/experiments/knapen_AOT/AOT_stimuli/rescaled_final/1952_rv.mp4	0.0	329.74806118011475	1.0001049041748047
76	311.97988295555115	pulse	0	t		74.0	2.5	/experiments/knapen_AOT/AOT_stimuli/rescaled_final/1952_rv.mp4	0.0	329.9316110610962	
76	312.7964379787445	movie	1		243	74.0	2.5	/experiments/knapen_AOT/AOT_stimuli/rescaled_final/1952_rv.mp4	0.0	330.74816608428955	2.5004019737243652
76	313.5801270008087	pulse	1	t		74.0	2.5	/experiments/knapen_AOT/AOT_stimuli/rescaled_final/1952_rv.mp4	0.0	331.53185510635376	
76	315.1803209781647	pulse	1	t		74.0	2.5	/experiments/knapen_AOT/AOT_stimuli/rescaled_final/1952_rv.mp4	0.0	333.1320490837097	
76	315.2968399524689	fix_post	2		12	74.0	2.5	/experiments/knapen_AOT/AOT_stimuli/rescaled_final/1952_rv.mp4	0.0	333.2485680580139	0.09999203681945801
77	315.39683198928833	fix_pre	0		120	75.0	2.5	/experiments/knapen_AOT/AOT_stimuli/rescaled_final/0725_rv.mp4	0.0	333.3485600948334	1.0001270771026611
77	316.396959066391	movie	1		244	75.0	2.5	/experiments/knapen_AOT/AOT_stimuli/rescaled_final/0725_rv.mp4	0.0	334.34868717193604	2.4920730590820312
77	316.7813251018524	pulse	1	t		75.0	2.5	/experiments/knapen_AOT/AOT_stimuli/rescaled_final/0725_rv.mp4	0.0	334.73305320739746	
77	318.3807830810547	pulse	1	t		75.0	2.5	/experiments/knapen_AOT/AOT_stimuli/rescaled_final/0725_rv.mp4	0.0	336.33251118659973	
77	318.889032125473	fix_post	2		11	75.0	2.5	/experiments/knapen_AOT/AOT_stimuli/rescaled_final/0725_rv.mp4	0.0	336.84076023101807	0.1000368595123291
78	318.98906898498535	fix_pre	0		120	76.0	2.5	blank	1.0	336.9407970905304	1.000227928161621
78	319.9810891151428	pulse	0	t		76.0	2.5	blank	1.0	337.93281722068787	
78	319.989296913147	movie	1		301	76.0	2.5	blank	1.0	337.941025018692	2.5086112022399902
78	321.58127307891846	pulse	1	t		76.0	2.5	blank	1.0	339.5330011844635	
78	322.49790811538696	fix_post	2		12	76.0	2.5	blank	1.0	340.449636220932	0.10012388229370117
79	322.59803199768066	fix_pre	0		120	77.0	2.5	/experiments/knapen_AOT/AOT_stimuli/rescaled_final/1593_fw.mp4	0.0	340.5497601032257	1.0000600814819336
79	323.1814761161804	pulse	0	t		77.0	2.5	/experiments/knapen_AOT/AOT_stimuli/rescaled_final/1593_fw.mp4	0.0	341.13320422172546	
79	323.5980920791626	movie	1		243	77.0	2.5	/experiments/knapen_AOT/AOT_stimuli/rescaled_final/1593_fw.mp4	0.0	341.54982018470764	2.50032901763916
79	324.7819490432739	pulse	1	t		77.0	2.5	/experiments/knapen_AOT/AOT_stimuli/rescaled_final/1593_fw.mp4	0.0	342.73367714881897	
79	326.09842109680176	fix_post	2		12	77.0	2.5	/experiments/knapen_AOT/AOT_stimuli/rescaled_final/1593_fw.mp4	0.0	344.0501492023468	0.10004091262817383
80	326.19846200942993	fix_pre	0		120	78.0	2.5	/experiments/knapen_AOT/AOT_stimuli/rescaled_final/1368_rv.mp4	0.0	344.150190114975	1.000157117843628
80	326.3820450305939	pulse	0	t		78.0	2.5	/experiments/knapen_AOT/AOT_stimuli/rescaled_final/1368_rv.mp4	0.0	344.3337731361389	
80	327.19861912727356	movie	1		243	78.0	2.5	/experiments/knapen_AOT/AOT_stimuli/rescaled_final/1368_rv.mp4	0.0	345.1503472328186	2.500363826751709
80	327.98229789733887	pulse	1	t		78.0	2.5	/experiments/knapen_AOT/AOT_stimuli/rescaled_final/1368_rv.mp4	0.0	345.9340260028839	
80	329.5824580192566	pulse	1	t		78.0	2.5	/experiments/knapen_AOT/AOT_stimuli/rescaled_final/1368_rv.mp4	0.0	347.53418612480164	
80	329.69898295402527	fix_post	2		12	78.0	2.5	/experiments/knapen_AOT/AOT_stimuli/rescaled_final/1368_rv.mp4	0.0	347.6507110595703	0.09998011589050293
81	329.79896306991577	fix_pre	0		120	79.0	2.5	/experiments/knapen_AOT/AOT_stimuli/rescaled_final/1370_fw.mp4	0.0	347.7506911754608	1.0002219676971436
81	330.7991850376129	movie	1		242	79.0	2.5	/experiments/knapen_AOT/AOT_stimuli/rescaled_final/1370_fw.mp4	0.0	348.75091314315796	2.491976022720337
81	331.18840503692627	pulse	1	t		79.0	2.5	/experiments/knapen_AOT/AOT_stimuli/rescaled_final/1370_fw.mp4	0.0	349.1401331424713	
81	332.77583503723145	pulse	1	t		79.0	2.5	/experiments/knapen_AOT/AOT_stimuli/rescaled_final/1370_fw.mp4	0.0	350.7275631427765	
81	333.29116106033325	fix_post	2		12	79.0	2.5	/experiments/knapen_AOT/AOT_stimuli/rescaled_final/1370_fw.mp4	0.0	351.2428891658783	0.10004901885986328
82	333.3912100791931	fix_pre	0		120	80.0	2.5	/experiments/knapen_AOT/AOT_stimuli/rescaled_final/0581_fw.mp4	0.0	351.34293818473816	1.0001249313354492
82	334.37575602531433	pulse	0	t		80.0	2.5	/experiments/knapen_AOT/AOT_stimuli/rescaled_final/0581_fw.mp4	0.0	352.3274841308594	
82	334.39133501052856	movie	1		245	80.0	2.5	/experiments/knapen_AOT/AOT_stimuli/rescaled_final/0581_fw.mp4	0.0	352.3430631160736	2.508697986602783
82	335.98429107666016	pulse	1	t		80.0	2.5	/experiments/knapen_AOT/AOT_stimuli/rescaled_final/0581_fw.mp4	0.0	353.9360191822052	
82	336.90003299713135	fix_post	2		12	80.0	2.5	/experiments/knapen_AOT/AOT_stimuli/rescaled_final/0581_fw.mp4	0.0	354.8517611026764	0.10005903244018555
83	337.00009202957153	fix_pre	0		120	81.0	2.5	/experiments/knapen_AOT/AOT_stimuli/rescaled_final/2036_rv.mp4	0.0	354.9518201351166	1.0001490116119385
83	337.57614612579346	pulse	0	t		81.0	2.5	/experiments/knapen_AOT/AOT_stimuli/rescaled_final/2036_rv.mp4	0.0	355.5278742313385	
83	338.0002410411835	movie	1		245	81.0	2.5	/experiments/knapen_AOT/AOT_stimuli/rescaled_final/2036_rv.mp4	0.0	355.9519691467285	2.5003280639648438
83	339.1769139766693	pulse	1	t		81.0	2.5	/experiments/knapen_AOT/AOT_stimuli/rescaled_final/2036_rv.mp4	0.0	357.12864208221436	
83	340.5005691051483	fix_post	2		12	81.0	2.5	/experiments/knapen_AOT/AOT_stimuli/rescaled_final/2036_rv.mp4	0.0	358.45229721069336	0.10000395774841309
84	340.60057306289673	fix_pre	0		120	82.0	2.5	/experiments/knapen_AOT/AOT_stimuli/rescaled_final/1284_fw.mp4	0.0	358.5523011684418	1.0001709461212158
84	340.77575612068176	pulse	0	t		82.0	2.5	/experiments/knapen_AOT/AOT_stimuli/rescaled_final/1284_fw.mp4	0.0	358.7274842262268	
84	341.60074400901794	movie	1		245	82.0	2.5	/experiments/knapen_AOT/AOT_stimuli/rescaled_final/1284_fw.mp4	0.0	359.552472114563	2.50040602684021
84	342.37603306770325	pulse	1	t		82.0	2.5	/experiments/knapen_AOT/AOT_stimuli/rescaled_final/1284_fw.mp4	0.0	360.3277611732483	
84	343.97642993927	pulse	1	t		82.0	2.5	/experiments/knapen_AOT/AOT_stimuli/rescaled_final/1284_fw.mp4	0.0	361.92815804481506	
84	344.10115003585815	fix_post	2		12	82.0	2.5	/experiments/knapen_AOT/AOT_stimuli/rescaled_final/1284_fw.mp4	0.0	362.0528781414032	0.10000395774841309
85	344.20115399360657	fix_pre	0		119	83.0	2.5	blank	1.0	362.1528820991516	0.991818904876709
85	345.1929728984833	movie	1		300	83.0	2.5	blank	1.0	363.1447010040283	2.500343084335327
85	345.57654190063477	pulse	1	t		83.0	2.5	blank	1.0	363.5282700061798	
85	347.1767270565033	pulse	1	t		83.0	2.5	blank	1.0	365.12845516204834	
85	347.6933159828186	fix_post	2		12	83.0	2.5	blank	1.0	365.64504408836365	0.10004091262817383
87	347.7933568954468	stim	0		1716					365.7450850009918	14.3021080493927
87	348.77701210975647	pulse	0	t						366.7287402153015	
87	350.37742710113525	pulse	0	t						368.3291552066803	
87	351.9774980545044	pulse	0	t						369.92922616004944	
87	353.5776960849762	pulse	0	t						371.52942419052124	
87	355.1779980659485	pulse	0	t						373.12972617149353	
87	356.7781751155853	pulse	0	t						374.72990322113037	
87	358.3784489631653	pulse	0	t						376.3301770687103	
87	359.9785940647125	pulse	0	t						377.93032217025757	
87	361.5789670944214	pulse	0	t						379.53069519996643	
