trial_nr	onset	event_type	phase	response	nr_frames	movie_index	movie_duration	movie_file	blank	onset_abs	duration
0	0.17484235763549805	stim	0		1					17.462596893310547	0.008309125900268555
0	0.1295909881591797	response	0	space						17.41734552383423	
1	0.1831514835357666	stim	0		4878					17.470906019210815	40.66607141494751
1	40.83970069885254	pulse	0	t						58.12745523452759	
1	40.849222898483276	stim	1		1715					58.136977434158325	14.30040431022644
1	42.43181014060974	pulse	1	t						59.71956467628479	
1	44.031505823135376	pulse	1	t						61.319260358810425	
1	45.631728172302246	pulse	1	t						62.919482707977295	
1	47.23195481300354	pulse	1	t						64.51970934867859	
1	48.832157135009766	pulse	1	t						66.11991167068481	
1	50.4324996471405	pulse	1	t						67.72025418281555	
1	52.032710552215576	pulse	1	t						69.32046508789062	
1	53.6329984664917	pulse	1	t						70.92075300216675	
2	55.14962720870972	fix_pre	0		11	0.0	2.5	/experiments/Knapen_AOT/AOT_stimuli/rescaled_final/1109_fw.mp4	0.0	72.43738174438477	0.10843420028686523
2	55.23316025733948	pulse	0	t		0.0	2.5	/experiments/Knapen_AOT/AOT_stimuli/rescaled_final/1109_fw.mp4	0.0	72.52091479301453	
2	55.25806140899658	movie	1		282	0.0	2.5	/experiments/Knapen_AOT/AOT_stimuli/rescaled_final/1109_fw.mp4	0.0	72.54581594467163	2.49194073677063
2	56.83189845085144	pulse	1	t		0.0	2.5	/experiments/Knapen_AOT/AOT_stimuli/rescaled_final/1109_fw.mp4	0.0	74.11965298652649	
2	57.75000214576721	fix_post	2		12	0.0	2.5	/experiments/Knapen_AOT/AOT_stimuli/rescaled_final/1109_fw.mp4	0.0	75.03775668144226	0.10003209114074707
3	57.85003423690796	fix_pre	0		120	1.0	2.5	/experiments/Knapen_AOT/AOT_stimuli/rescaled_final/1404_fw.mp4	0.0	75.13778877258301	1.0085062980651855
3	58.433820486068726	pulse	0	t		1.0	2.5	/experiments/Knapen_AOT/AOT_stimuli/rescaled_final/1404_fw.mp4	0.0	75.72157502174377	
3	58.858540534973145	movie	1		278	1.0	2.5	/experiments/Knapen_AOT/AOT_stimuli/rescaled_final/1404_fw.mp4	0.0	76.1462950706482	2.492018222808838
3	60.03204822540283	pulse	1	t		1.0	2.5	/experiments/Knapen_AOT/AOT_stimuli/rescaled_final/1404_fw.mp4	0.0	77.31980276107788	
3	61.35055875778198	fix_post	2		12	1.0	2.5	/experiments/Knapen_AOT/AOT_stimuli/rescaled_final/1404_fw.mp4	0.0	78.63831329345703	0.10004663467407227
4	61.450605392456055	fix_pre	0		120	2.0	2.5	/experiments/Knapen_AOT/AOT_stimuli/rescaled_final/0861_rv.mp4	0.0	78.7383599281311	1.0084717273712158
4	61.63422155380249	pulse	0	t		2.0	2.5	/experiments/Knapen_AOT/AOT_stimuli/rescaled_final/0861_rv.mp4	0.0	78.92197608947754	
4	62.45907711982727	movie	1		281	2.0	2.5	/experiments/Knapen_AOT/AOT_stimuli/rescaled_final/0861_rv.mp4	0.0	79.74683165550232	2.4920308589935303
4	63.23224973678589	pulse	1	t		2.0	2.5	/experiments/Knapen_AOT/AOT_stimuli/rescaled_final/0861_rv.mp4	0.0	80.52000427246094	
4	64.83261585235596	pulse	1	t		2.0	2.5	/experiments/Knapen_AOT/AOT_stimuli/rescaled_final/0861_rv.mp4	0.0	82.120370388031	
4	64.9511079788208	fix_post	2		12	2.0	2.5	/experiments/Knapen_AOT/AOT_stimuli/rescaled_final/0861_rv.mp4	0.0	82.23886251449585	0.1001441478729248
5	65.05125212669373	fix_pre	0		120	3.0	2.5	/experiments/Knapen_AOT/AOT_stimuli/rescaled_final/0279_fw.mp4	0.0	82.33900666236877	1.0084278583526611
5	66.05967998504639	movie	1		280	3.0	2.5	/experiments/Knapen_AOT/AOT_stimuli/rescaled_final/0279_fw.mp4	0.0	83.34743452072144	2.500290632247925
5	66.43303084373474	pulse	1	t		3.0	2.5	/experiments/Knapen_AOT/AOT_stimuli/rescaled_final/0279_fw.mp4	0.0	83.72078537940979	
5	68.03278613090515	pulse	1	t		3.0	2.5	/experiments/Knapen_AOT/AOT_stimuli/rescaled_final/0279_fw.mp4	0.0	85.3205406665802	
5	68.55997061729431	fix_post	2		11	3.0	2.5	/experiments/Knapen_AOT/AOT_stimuli/rescaled_final/0279_fw.mp4	0.0	85.84772515296936	0.09170079231262207
6	68.65167140960693	fix_pre	0		119	4.0	2.5	/experiments/Knapen_AOT/AOT_stimuli/rescaled_final/1631_rv.mp4	0.0	85.93942594528198	1.0001451969146729
6	69.63532614707947	pulse	0	t		4.0	2.5	/experiments/Knapen_AOT/AOT_stimuli/rescaled_final/1631_rv.mp4	0.0	86.92308068275452	
6	69.6518166065216	movie	1		280	4.0	2.5	/experiments/Knapen_AOT/AOT_stimuli/rescaled_final/1631_rv.mp4	0.0	86.93957114219666	2.500396490097046
6	71.23380255699158	pulse	1	t		4.0	2.5	/experiments/Knapen_AOT/AOT_stimuli/rescaled_final/1631_rv.mp4	0.0	88.52155709266663	
6	72.15221309661865	fix_post	2		12	4.0	2.5	/experiments/Knapen_AOT/AOT_stimuli/rescaled_final/1631_rv.mp4	0.0	89.4399676322937	0.0999908447265625
7	72.25220394134521	fix_pre	0		120	5.0	2.5	blank	1.0	89.53995847702026	1.0001518726348877
7	72.83586287498474	pulse	0	t		5.0	2.5	blank	1.0	90.12361741065979	
7	73.2523558139801	movie	1		300	5.0	2.5	blank	1.0	90.54011034965515	2.500444173812866
7	74.42859148979187	pulse	1	t		5.0	2.5	blank	1.0	91.71634602546692	
7	75.75279998779297	fix_post	2		12	5.0	2.5	blank	1.0	93.04055452346802	0.09994244575500488
8	75.85274243354797	fix_pre	0		120	6.0	2.5	/experiments/Knapen_AOT/AOT_stimuli/rescaled_final/1895_fw.mp4	0.0	93.14049696922302	1.0085053443908691
8	76.0286545753479	pulse	0	t		6.0	2.5	/experiments/Knapen_AOT/AOT_stimuli/rescaled_final/1895_fw.mp4	0.0	93.31640911102295	
8	76.86124777793884	movie	1		277	6.0	2.5	/experiments/Knapen_AOT/AOT_stimuli/rescaled_final/1895_fw.mp4	0.0	94.14900231361389	2.4920337200164795
8	77.63447380065918	pulse	1	t		6.0	2.5	/experiments/Knapen_AOT/AOT_stimuli/rescaled_final/1895_fw.mp4	0.0	94.92222833633423	
8	79.22880244255066	pulse	1	t		6.0	2.5	/experiments/Knapen_AOT/AOT_stimuli/rescaled_final/1895_fw.mp4	0.0	96.51655697822571	
8	79.35328149795532	fix_post	2		12	6.0	2.5	/experiments/Knapen_AOT/AOT_stimuli/rescaled_final/1895_fw.mp4	0.0	96.64103603363037	0.10002708435058594
9	79.45330858230591	fix_pre	0		120	7.0	2.5	/experiments/Knapen_AOT/AOT_stimuli/rescaled_final/2115_fw.mp4	0.0	96.74106311798096	1.0084609985351562
9	80.46176958084106	movie	1		275	7.0	2.5	/experiments/Knapen_AOT/AOT_stimuli/rescaled_final/2115_fw.mp4	0.0	97.74952411651611	2.492042303085327
9	80.82903623580933	pulse	1	t		7.0	2.5	/experiments/Knapen_AOT/AOT_stimuli/rescaled_final/2115_fw.mp4	0.0	98.11679077148438	
9	82.42889761924744	pulse	1	t		7.0	2.5	/experiments/Knapen_AOT/AOT_stimuli/rescaled_final/2115_fw.mp4	0.0	99.71665215492249	
9	82.95381188392639	fix_post	2		12	7.0	2.5	/experiments/Knapen_AOT/AOT_stimuli/rescaled_final/2115_fw.mp4	0.0	100.24156641960144	0.10001111030578613
10	83.05382299423218	fix_pre	0		118	8.0	2.5	/experiments/Knapen_AOT/AOT_stimuli/rescaled_final/1465_rv.mp4	0.0	100.34157752990723	0.9918315410614014
10	84.02917122840881	pulse	0	t		8.0	2.5	/experiments/Knapen_AOT/AOT_stimuli/rescaled_final/1465_rv.mp4	0.0	101.31692576408386	
10	84.04565453529358	movie	1		284	8.0	2.5	/experiments/Knapen_AOT/AOT_stimuli/rescaled_final/1465_rv.mp4	0.0	101.33340907096863	2.5003716945648193
10	85.62873387336731	pulse	1	t		8.0	2.5	/experiments/Knapen_AOT/AOT_stimuli/rescaled_final/1465_rv.mp4	0.0	102.91648840904236	
10	86.5460262298584	fix_post	2		12	8.0	2.5	/experiments/Knapen_AOT/AOT_stimuli/rescaled_final/1465_rv.mp4	0.0	103.83378076553345	0.10007643699645996
11	86.64610266685486	fix_pre	0		120	9.0	2.5	/experiments/Knapen_AOT/AOT_stimuli/rescaled_final/0249_rv.mp4	0.0	103.93385720252991	1.0085036754608154
11	87.22969913482666	pulse	0	t		9.0	2.5	/experiments/Knapen_AOT/AOT_stimuli/rescaled_final/0249_rv.mp4	0.0	104.51745367050171	
11	87.65460634231567	movie	1		290	9.0	2.5	/experiments/Knapen_AOT/AOT_stimuli/rescaled_final/0249_rv.mp4	0.0	104.94236087799072	2.49198055267334
11	88.83003282546997	pulse	1	t		9.0	2.5	/experiments/Knapen_AOT/AOT_stimuli/rescaled_final/0249_rv.mp4	0.0	106.11778736114502	
11	90.14658689498901	fix_post	2		12	9.0	2.5	/experiments/Knapen_AOT/AOT_stimuli/rescaled_final/0249_rv.mp4	0.0	107.43434143066406	0.10002708435058594
12	90.2466139793396	fix_pre	0		120	10.0	2.5	/experiments/Knapen_AOT/AOT_stimuli/rescaled_final/1721_fw.mp4	0.0	107.53436851501465	1.0084753036499023
12	90.43014550209045	pulse	0	t		10.0	2.5	/experiments/Knapen_AOT/AOT_stimuli/rescaled_final/1721_fw.mp4	0.0	107.7179000377655	
12	91.2550892829895	movie	1		283	10.0	2.5	/experiments/Knapen_AOT/AOT_stimuli/rescaled_final/1721_fw.mp4	0.0	108.54284381866455	2.4920029640197754
12	92.03035879135132	pulse	1	t		10.0	2.5	/experiments/Knapen_AOT/AOT_stimuli/rescaled_final/1721_fw.mp4	0.0	109.31811332702637	
12	93.62870955467224	pulse	1	t		10.0	2.5	/experiments/Knapen_AOT/AOT_stimuli/rescaled_final/1721_fw.mp4	0.0	110.91646409034729	
12	93.74709224700928	fix_post	2		12	10.0	2.5	/experiments/Knapen_AOT/AOT_stimuli/rescaled_final/1721_fw.mp4	0.0	111.03484678268433	0.10006451606750488
13	93.84715676307678	fix_pre	0		120	11.0	2.5	/experiments/Knapen_AOT/AOT_stimuli/rescaled_final/1887_rv.mp4	0.0	111.13491129875183	1.0084607601165771
13	94.85561752319336	movie	1		288	11.0	2.5	/experiments/Knapen_AOT/AOT_stimuli/rescaled_final/1887_rv.mp4	0.0	112.14337205886841	2.4920389652252197
13	95.2293610572815	pulse	1	t		11.0	2.5	/experiments/Knapen_AOT/AOT_stimuli/rescaled_final/1887_rv.mp4	0.0	112.51711559295654	
13	96.82895541191101	pulse	1	t		11.0	2.5	/experiments/Knapen_AOT/AOT_stimuli/rescaled_final/1887_rv.mp4	0.0	114.11670994758606	
13	97.34765648841858	fix_post	2		12	11.0	2.5	/experiments/Knapen_AOT/AOT_stimuli/rescaled_final/1887_rv.mp4	0.0	114.63541102409363	0.10000896453857422
14	97.44766545295715	fix_pre	0		119	12.0	2.5	blank	1.0	114.7354199886322	0.991854190826416
14	98.43134713172913	pulse	0	t		12.0	2.5	blank	1.0	115.71910166740417	
14	98.43951964378357	movie	1		301	12.0	2.5	blank	1.0	115.72727417945862	2.508728265762329
14	100.03168725967407	pulse	1	t		12.0	2.5	blank	1.0	117.31944179534912	
14	100.9482479095459	fix_post	2		12	12.0	2.5	blank	1.0	118.23600244522095	0.10005760192871094
15	101.04830551147461	fix_pre	0		120	13.0	2.5	/experiments/Knapen_AOT/AOT_stimuli/rescaled_final/1777_rv.mp4	0.0	118.33606004714966	1.0083811283111572
15	101.63180112838745	pulse	0	t		13.0	2.5	/experiments/Knapen_AOT/AOT_stimuli/rescaled_final/1777_rv.mp4	0.0	118.9195556640625	
15	102.05668663978577	movie	1		280	13.0	2.5	/experiments/Knapen_AOT/AOT_stimuli/rescaled_final/1777_rv.mp4	0.0	119.34444117546082	2.4920461177825928
15	103.23098349571228	pulse	1	t		13.0	2.5	/experiments/Knapen_AOT/AOT_stimuli/rescaled_final/1777_rv.mp4	0.0	120.51873803138733	
15	104.54873275756836	fix_post	2		12	13.0	2.5	/experiments/Knapen_AOT/AOT_stimuli/rescaled_final/1777_rv.mp4	0.0	121.83648729324341	0.10001564025878906
16	104.64874839782715	fix_pre	0		120	14.0	2.5	/experiments/Knapen_AOT/AOT_stimuli/rescaled_final/0290_rv.mp4	0.0	121.9365029335022	1.0084965229034424
16	104.83255243301392	pulse	0	t		14.0	2.5	/experiments/Knapen_AOT/AOT_stimuli/rescaled_final/0290_rv.mp4	0.0	122.12030696868896	
16	105.65724492073059	movie	1		275	14.0	2.5	/experiments/Knapen_AOT/AOT_stimuli/rescaled_final/0290_rv.mp4	0.0	122.94499945640564	2.492030620574951
16	106.43049097061157	pulse	1	t		14.0	2.5	/experiments/Knapen_AOT/AOT_stimuli/rescaled_final/0290_rv.mp4	0.0	123.71824550628662	
16	108.03083109855652	pulse	1	t		14.0	2.5	/experiments/Knapen_AOT/AOT_stimuli/rescaled_final/0290_rv.mp4	0.0	125.31858563423157	
16	108.14927554130554	fix_post	2		12	14.0	2.5	/experiments/Knapen_AOT/AOT_stimuli/rescaled_final/0290_rv.mp4	0.0	125.43703007698059	0.1000375747680664
17	108.24931311607361	fix_pre	0		120	15.0	2.5	/experiments/Knapen_AOT/AOT_stimuli/rescaled_final/1793_fw.mp4	0.0	125.53706765174866	1.008483648300171
17	109.25779676437378	movie	1		278	15.0	2.5	/experiments/Knapen_AOT/AOT_stimuli/rescaled_final/1793_fw.mp4	0.0	126.54555130004883	2.492035150527954
17	109.63105988502502	pulse	1	t		15.0	2.5	/experiments/Knapen_AOT/AOT_stimuli/rescaled_final/1793_fw.mp4	0.0	126.91881442070007	
17	111.23100924491882	pulse	1	t		15.0	2.5	/experiments/Knapen_AOT/AOT_stimuli/rescaled_final/1793_fw.mp4	0.0	128.51876378059387	
17	111.74983191490173	fix_post	2		12	15.0	2.5	/experiments/Knapen_AOT/AOT_stimuli/rescaled_final/1793_fw.mp4	0.0	129.03758645057678	0.09999680519104004
18	111.84982872009277	fix_pre	0		119	16.0	2.5	/experiments/Knapen_AOT/AOT_stimuli/rescaled_final/0443_rv.mp4	0.0	129.13758325576782	1.000185489654541
18	112.8335747718811	pulse	0	t		16.0	2.5	/experiments/Knapen_AOT/AOT_stimuli/rescaled_final/0443_rv.mp4	0.0	130.12132930755615	
18	112.85001420974731	movie	1		282	16.0	2.5	/experiments/Knapen_AOT/AOT_stimuli/rescaled_final/0443_rv.mp4	0.0	130.13776874542236	2.5003275871276855
18	114.43222546577454	pulse	1	t		16.0	2.5	/experiments/Knapen_AOT/AOT_stimuli/rescaled_final/0443_rv.mp4	0.0	131.71998000144958	
18	115.350341796875	fix_post	2		12	16.0	2.5	/experiments/Knapen_AOT/AOT_stimuli/rescaled_final/0443_rv.mp4	0.0	132.63809633255005	0.10004091262817383
19	115.45038270950317	fix_pre	0		120	17.0	2.5	/experiments/Knapen_AOT/AOT_stimuli/rescaled_final/0701_fw.mp4	0.0	132.73813724517822	1.0084912776947021
19	116.03419089317322	pulse	0	t		17.0	2.5	/experiments/Knapen_AOT/AOT_stimuli/rescaled_final/0701_fw.mp4	0.0	133.32194542884827	
19	116.45887398719788	movie	1		288	17.0	2.5	/experiments/Knapen_AOT/AOT_stimuli/rescaled_final/0701_fw.mp4	0.0	133.74662852287292	2.492018699645996
19	117.63359951972961	pulse	1	t		17.0	2.5	/experiments/Knapen_AOT/AOT_stimuli/rescaled_final/0701_fw.mp4	0.0	134.92135405540466	
19	118.95089268684387	fix_post	2		12	17.0	2.5	/experiments/Knapen_AOT/AOT_stimuli/rescaled_final/0701_fw.mp4	0.0	136.23864722251892	0.10000348091125488
20	119.05089616775513	fix_pre	0		120	18.0	2.5	/experiments/Knapen_AOT/AOT_stimuli/rescaled_final/1274_fw.mp4	0.0	136.33865070343018	1.0085670948028564
20	119.23465871810913	pulse	0	t		18.0	2.5	/experiments/Knapen_AOT/AOT_stimuli/rescaled_final/1274_fw.mp4	0.0	136.52241325378418	
20	120.05946326255798	movie	1		283	18.0	2.5	/experiments/Knapen_AOT/AOT_stimuli/rescaled_final/1274_fw.mp4	0.0	137.34721779823303	2.4920098781585693
20	120.83330607414246	pulse	1	t		18.0	2.5	/experiments/Knapen_AOT/AOT_stimuli/rescaled_final/1274_fw.mp4	0.0	138.1210606098175	
20	122.43295574188232	pulse	1	t		18.0	2.5	/experiments/Knapen_AOT/AOT_stimuli/rescaled_final/1274_fw.mp4	0.0	139.72071027755737	
20	122.55147314071655	fix_post	2		12	18.0	2.5	/experiments/Knapen_AOT/AOT_stimuli/rescaled_final/1274_fw.mp4	0.0	139.8392276763916	0.09998679161071777
21	122.65145993232727	fix_pre	0		120	19.0	2.5	blank	1.0	139.93921446800232	1.0001919269561768
21	123.65165185928345	movie	1		300	19.0	2.5	blank	1.0	140.9394063949585	2.5003161430358887
21	124.03520894050598	pulse	1	t		19.0	2.5	blank	1.0	141.32296347618103	
21	125.63552594184875	pulse	1	t		19.0	2.5	blank	1.0	142.9232804775238	
21	126.15196800231934	fix_post	2		12	19.0	2.5	blank	1.0	143.43972253799438	0.10002732276916504
22	126.2519953250885	fix_pre	0		119	20.0	2.5	/experiments/Knapen_AOT/AOT_stimuli/rescaled_final/0082_fw.mp4	0.0	143.53974986076355	1.000328540802002
22	127.235666513443	pulse	0	t		20.0	2.5	/experiments/Knapen_AOT/AOT_stimuli/rescaled_final/0082_fw.mp4	0.0	144.52342104911804	
22	127.2523238658905	movie	1		281	20.0	2.5	/experiments/Knapen_AOT/AOT_stimuli/rescaled_final/0082_fw.mp4	0.0	144.54007840156555	2.5002145767211914
22	128.83451461791992	pulse	1	t		20.0	2.5	/experiments/Knapen_AOT/AOT_stimuli/rescaled_final/0082_fw.mp4	0.0	146.12226915359497	
22	129.7525384426117	fix_post	2		12	20.0	2.5	/experiments/Knapen_AOT/AOT_stimuli/rescaled_final/0082_fw.mp4	0.0	147.04029297828674	0.09999561309814453
23	129.85253405570984	fix_pre	0		120	21.0	2.5	/experiments/Knapen_AOT/AOT_stimuli/rescaled_final/1887_rv.mp4	0.0	147.1402885913849	1.0084850788116455
23	130.4364423751831	pulse	0	t		21.0	2.5	/experiments/Knapen_AOT/AOT_stimuli/rescaled_final/1887_rv.mp4	0.0	147.72419691085815	
23	130.86101913452148	movie	1		274	21.0	2.5	/experiments/Knapen_AOT/AOT_stimuli/rescaled_final/1887_rv.mp4	0.0	148.14877367019653	2.4920461177825928
23	132.034503698349	pulse	1	t		21.0	2.5	/experiments/Knapen_AOT/AOT_stimuli/rescaled_final/1887_rv.mp4	0.0	149.32225823402405	
23	133.35306525230408	fix_post	2		12	21.0	2.5	/experiments/Knapen_AOT/AOT_stimuli/rescaled_final/1887_rv.mp4	0.0	150.64081978797913	0.10005354881286621
24	133.45311880111694	fix_pre	0		120	22.0	2.5	/experiments/Knapen_AOT/AOT_stimuli/rescaled_final/1294_fw.mp4	0.0	150.740873336792	1.0084986686706543
24	133.63693690299988	pulse	0	t		22.0	2.5	/experiments/Knapen_AOT/AOT_stimuli/rescaled_final/1294_fw.mp4	0.0	150.92469143867493	
24	134.4616174697876	movie	1		280	22.0	2.5	/experiments/Knapen_AOT/AOT_stimuli/rescaled_final/1294_fw.mp4	0.0	151.74937200546265	2.4920060634613037
24	135.23506140708923	pulse	1	t		22.0	2.5	/experiments/Knapen_AOT/AOT_stimuli/rescaled_final/1294_fw.mp4	0.0	152.52281594276428	
24	136.82928037643433	pulse	1	t		22.0	2.5	/experiments/Knapen_AOT/AOT_stimuli/rescaled_final/1294_fw.mp4	0.0	154.11703491210938	
24	136.9536235332489	fix_post	2		12	22.0	2.5	/experiments/Knapen_AOT/AOT_stimuli/rescaled_final/1294_fw.mp4	0.0	154.24137806892395	0.1000514030456543
25	137.05367493629456	fix_pre	0		120	23.0	2.5	/experiments/Knapen_AOT/AOT_stimuli/rescaled_final/0091_rv.mp4	0.0	154.3414294719696	1.0084481239318848
25	138.06212306022644	movie	1		272	23.0	2.5	/experiments/Knapen_AOT/AOT_stimuli/rescaled_final/0091_rv.mp4	0.0	155.3498775959015	2.4920389652252197
25	138.42946696281433	pulse	1	t		23.0	2.5	/experiments/Knapen_AOT/AOT_stimuli/rescaled_final/0091_rv.mp4	0.0	155.71722149848938	
25	140.0292670726776	pulse	1	t		23.0	2.5	/experiments/Knapen_AOT/AOT_stimuli/rescaled_final/0091_rv.mp4	0.0	157.31702160835266	
25	140.55416202545166	fix_post	2		12	23.0	2.5	/experiments/Knapen_AOT/AOT_stimuli/rescaled_final/0091_rv.mp4	0.0	157.8419165611267	0.10000967979431152
26	140.65417170524597	fix_pre	0		118	24.0	2.5	/experiments/Knapen_AOT/AOT_stimuli/rescaled_final/0676_fw.mp4	0.0	157.94192624092102	0.9918243885040283
26	141.6295669078827	pulse	0	t		24.0	2.5	/experiments/Knapen_AOT/AOT_stimuli/rescaled_final/0676_fw.mp4	0.0	158.91732144355774	
26	141.64599609375	movie	1		291	24.0	2.5	/experiments/Knapen_AOT/AOT_stimuli/rescaled_final/0676_fw.mp4	0.0	158.93375062942505	2.5003511905670166
26	143.22985792160034	pulse	1	t		24.0	2.5	/experiments/Knapen_AOT/AOT_stimuli/rescaled_final/0676_fw.mp4	0.0	160.5176124572754	
26	144.14634728431702	fix_post	2		12	24.0	2.5	/experiments/Knapen_AOT/AOT_stimuli/rescaled_final/0676_fw.mp4	0.0	161.43410181999207	0.10013961791992188
27	144.24648690223694	fix_pre	0		120	25.0	2.5	/experiments/Knapen_AOT/AOT_stimuli/rescaled_final/0393_rv.mp4	0.0	161.534241437912	1.0083765983581543
27	144.83011054992676	pulse	0	t		25.0	2.5	/experiments/Knapen_AOT/AOT_stimuli/rescaled_final/0393_rv.mp4	0.0	162.1178650856018	
27	145.2548635005951	movie	1		293	25.0	2.5	/experiments/Knapen_AOT/AOT_stimuli/rescaled_final/0393_rv.mp4	0.0	162.54261803627014	2.5003843307495117
27	146.4303343296051	pulse	1	t		25.0	2.5	/experiments/Knapen_AOT/AOT_stimuli/rescaled_final/0393_rv.mp4	0.0	163.71808886528015	
27	147.7552478313446	fix_post	2		11	25.0	2.5	/experiments/Knapen_AOT/AOT_stimuli/rescaled_final/0393_rv.mp4	0.0	165.04300236701965	0.09172987937927246
28	147.84697771072388	fix_pre	0		120	26.0	2.5	blank	1.0	165.13473224639893	1.0000910758972168
28	148.03060221672058	pulse	0	t		26.0	2.5	blank	1.0	165.31835675239563	
28	148.8470687866211	movie	1		300	26.0	2.5	blank	1.0	166.13482332229614	2.5005147457122803
28	149.6307828426361	pulse	1	t		26.0	2.5	blank	1.0	166.91853737831116	
28	151.23093509674072	pulse	1	t		26.0	2.5	blank	1.0	168.51868963241577	
28	151.34758353233337	fix_post	2		12	26.0	2.5	blank	1.0	168.63533806800842	0.09988141059875488
29	151.44746494293213	fix_pre	0		120	27.0	2.5	/experiments/Knapen_AOT/AOT_stimuli/rescaled_final/0470_fw.mp4	0.0	168.73521947860718	1.0086114406585693
29	152.4560763835907	movie	1		279	27.0	2.5	/experiments/Knapen_AOT/AOT_stimuli/rescaled_final/0470_fw.mp4	0.0	169.74383091926575	2.4920144081115723
29	152.83004188537598	pulse	1	t		27.0	2.5	/experiments/Knapen_AOT/AOT_stimuli/rescaled_final/0470_fw.mp4	0.0	170.11779642105103	
29	154.4294102191925	pulse	1	t		27.0	2.5	/experiments/Knapen_AOT/AOT_stimuli/rescaled_final/0470_fw.mp4	0.0	171.71716475486755	
29	154.94809079170227	fix_post	2		12	27.0	2.5	/experiments/Knapen_AOT/AOT_stimuli/rescaled_final/0470_fw.mp4	0.0	172.23584532737732	0.09995794296264648
30	155.04804873466492	fix_pre	0		119	28.0	2.5	/experiments/Knapen_AOT/AOT_stimuli/rescaled_final/0470_rv.mp4	0.0	172.33580327033997	1.0000698566436768
30	156.03171253204346	pulse	0	t		28.0	2.5	/experiments/Knapen_AOT/AOT_stimuli/rescaled_final/0470_rv.mp4	0.0	173.3194670677185	
30	156.0481185913086	movie	1		275	28.0	2.5	/experiments/Knapen_AOT/AOT_stimuli/rescaled_final/0470_rv.mp4	0.0	173.33587312698364	2.500398874282837
30	157.63018202781677	pulse	1	t		28.0	2.5	/experiments/Knapen_AOT/AOT_stimuli/rescaled_final/0470_rv.mp4	0.0	174.91793656349182	
30	158.54851746559143	fix_post	2		12	28.0	2.5	/experiments/Knapen_AOT/AOT_stimuli/rescaled_final/0470_rv.mp4	0.0	175.83627200126648	0.10002517700195312
31	158.64854264259338	fix_pre	0		120	29.0	2.5	/experiments/Knapen_AOT/AOT_stimuli/rescaled_final/2063_rv.mp4	0.0	175.93629717826843	1.008516550064087
31	159.23214840888977	pulse	0	t		29.0	2.5	/experiments/Knapen_AOT/AOT_stimuli/rescaled_final/2063_rv.mp4	0.0	176.51990294456482	
31	159.65705919265747	movie	1		288	29.0	2.5	/experiments/Knapen_AOT/AOT_stimuli/rescaled_final/2063_rv.mp4	0.0	176.94481372833252	2.492011070251465
31	160.8307957649231	pulse	1	t		29.0	2.5	/experiments/Knapen_AOT/AOT_stimuli/rescaled_final/2063_rv.mp4	0.0	178.11855030059814	
31	162.14907026290894	fix_post	2		12	29.0	2.5	/experiments/Knapen_AOT/AOT_stimuli/rescaled_final/2063_rv.mp4	0.0	179.43682479858398	0.10002350807189941
32	162.24909377098083	fix_pre	0		120	30.0	2.5	/experiments/Knapen_AOT/AOT_stimuli/rescaled_final/1226_rv.mp4	0.0	179.53684830665588	1.0084707736968994
32	162.4328408241272	pulse	0	t		30.0	2.5	/experiments/Knapen_AOT/AOT_stimuli/rescaled_final/1226_rv.mp4	0.0	179.72059535980225	
32	163.25756454467773	movie	1		279	30.0	2.5	/experiments/Knapen_AOT/AOT_stimuli/rescaled_final/1226_rv.mp4	0.0	180.54531908035278	2.4920458793640137
32	164.03075623512268	pulse	1	t		30.0	2.5	/experiments/Knapen_AOT/AOT_stimuli/rescaled_final/1226_rv.mp4	0.0	181.31851077079773	
32	165.63129353523254	pulse	1	t		30.0	2.5	/experiments/Knapen_AOT/AOT_stimuli/rescaled_final/1226_rv.mp4	0.0	182.9190480709076	
32	165.74961042404175	fix_post	2		12	30.0	2.5	/experiments/Knapen_AOT/AOT_stimuli/rescaled_final/1226_rv.mp4	0.0	183.0373649597168	0.10001087188720703
33	165.84962129592896	fix_pre	0		120	31.0	2.5	/experiments/Knapen_AOT/AOT_stimuli/rescaled_final/1777_fw.mp4	0.0	183.137375831604	1.0085690021514893
33	166.85819029808044	movie	1		284	31.0	2.5	/experiments/Knapen_AOT/AOT_stimuli/rescaled_final/1777_fw.mp4	0.0	184.1459448337555	2.4919357299804688
33	167.23213648796082	pulse	1	t		31.0	2.5	/experiments/Knapen_AOT/AOT_stimuli/rescaled_final/1777_fw.mp4	0.0	184.51989102363586	
33	168.83170890808105	pulse	1	t		31.0	2.5	/experiments/Knapen_AOT/AOT_stimuli/rescaled_final/1777_fw.mp4	0.0	186.1194634437561	
33	169.3501260280609	fix_post	2		12	31.0	2.5	/experiments/Knapen_AOT/AOT_stimuli/rescaled_final/1777_fw.mp4	0.0	186.63788056373596	0.10003995895385742
34	169.45016598701477	fix_pre	0		119	32.0	2.5	/experiments/Knapen_AOT/AOT_stimuli/rescaled_final/0909_rv.mp4	0.0	186.73792052268982	1.0001683235168457
34	170.43387246131897	pulse	0	t		32.0	2.5	/experiments/Knapen_AOT/AOT_stimuli/rescaled_final/0909_rv.mp4	0.0	187.72162699699402	
34	170.45033431053162	movie	1		282	32.0	2.5	/experiments/Knapen_AOT/AOT_stimuli/rescaled_final/0909_rv.mp4	0.0	187.73808884620667	2.5003654956817627
34	172.03252816200256	pulse	1	t		32.0	2.5	/experiments/Knapen_AOT/AOT_stimuli/rescaled_final/0909_rv.mp4	0.0	189.3202826976776	
34	172.95069980621338	fix_post	2		12	32.0	2.5	/experiments/Knapen_AOT/AOT_stimuli/rescaled_final/0909_rv.mp4	0.0	190.23845434188843	0.10000348091125488
35	173.05070328712463	fix_pre	0		120	33.0	2.5	blank	1.0	190.33845782279968	1.0001530647277832
35	173.63428330421448	pulse	0	t		33.0	2.5	blank	1.0	190.92203783988953	
35	174.05085635185242	movie	1		300	33.0	2.5	blank	1.0	191.33861088752747	2.5003697872161865
35	175.234623670578	pulse	1	t		33.0	2.5	blank	1.0	192.52237820625305	
35	176.5512261390686	fix_post	2		12	33.0	2.5	blank	1.0	193.83898067474365	0.10004186630249023
36	176.6512680053711	fix_pre	0		120	34.0	2.5	/experiments/Knapen_AOT/AOT_stimuli/rescaled_final/0204_fw.mp4	0.0	193.93902254104614	1.0084640979766846
36	176.83482027053833	pulse	0	t		34.0	2.5	/experiments/Knapen_AOT/AOT_stimuli/rescaled_final/0204_fw.mp4	0.0	194.12257480621338	
36	177.65973210334778	movie	1		282	34.0	2.5	/experiments/Knapen_AOT/AOT_stimuli/rescaled_final/0204_fw.mp4	0.0	194.94748663902283	2.492029905319214
36	178.43297934532166	pulse	1	t		34.0	2.5	/experiments/Knapen_AOT/AOT_stimuli/rescaled_final/0204_fw.mp4	0.0	195.7207338809967	
36	180.03352069854736	pulse	1	t		34.0	2.5	/experiments/Knapen_AOT/AOT_stimuli/rescaled_final/0204_fw.mp4	0.0	197.3212752342224	
36	180.151762008667	fix_post	2		12	34.0	2.5	/experiments/Knapen_AOT/AOT_stimuli/rescaled_final/0204_fw.mp4	0.0	197.43951654434204	0.10004472732543945
37	180.25180673599243	fix_pre	0		120	35.0	2.5	/experiments/Knapen_AOT/AOT_stimuli/rescaled_final/1443_rv.mp4	0.0	197.53956127166748	1.0085256099700928
37	181.26033234596252	movie	1		285	35.0	2.5	/experiments/Knapen_AOT/AOT_stimuli/rescaled_final/1443_rv.mp4	0.0	198.54808688163757	2.492013931274414
37	181.63449954986572	pulse	1	t		35.0	2.5	/experiments/Knapen_AOT/AOT_stimuli/rescaled_final/1443_rv.mp4	0.0	198.92225408554077	
37	183.23392724990845	pulse	1	t		35.0	2.5	/experiments/Knapen_AOT/AOT_stimuli/rescaled_final/1443_rv.mp4	0.0	200.5216817855835	
37	183.75234627723694	fix_post	2		12	35.0	2.5	/experiments/Knapen_AOT/AOT_stimuli/rescaled_final/1443_rv.mp4	0.0	201.040100812912	0.09999561309814453
38	183.85234189033508	fix_pre	0		119	36.0	2.5	/experiments/Knapen_AOT/AOT_stimuli/rescaled_final/1709_fw.mp4	0.0	201.14009642601013	1.0004475116729736
38	184.8362774848938	pulse	0	t		36.0	2.5	/experiments/Knapen_AOT/AOT_stimuli/rescaled_final/1709_fw.mp4	0.0	202.12403202056885	
38	184.85278940200806	movie	1		283	36.0	2.5	/experiments/Knapen_AOT/AOT_stimuli/rescaled_final/1709_fw.mp4	0.0	202.1405439376831	2.5000712871551514
38	186.43659043312073	pulse	1	t		36.0	2.5	/experiments/Knapen_AOT/AOT_stimuli/rescaled_final/1709_fw.mp4	0.0	203.72434496879578	
38	187.3528606891632	fix_post	2		12	36.0	2.5	/experiments/Knapen_AOT/AOT_stimuli/rescaled_final/1709_fw.mp4	0.0	204.64061522483826	0.10001397132873535
39	187.45287466049194	fix_pre	0		120	37.0	2.5	/experiments/Knapen_AOT/AOT_stimuli/rescaled_final/1693_rv.mp4	0.0	204.740629196167	1.0085010528564453
39	188.02857947349548	pulse	0	t		37.0	2.5	/experiments/Knapen_AOT/AOT_stimuli/rescaled_final/1693_rv.mp4	0.0	205.31633400917053	
39	188.4613757133484	movie	1		281	37.0	2.5	/experiments/Knapen_AOT/AOT_stimuli/rescaled_final/1693_rv.mp4	0.0	205.74913024902344	2.492043972015381
39	189.62887573242188	pulse	1	t		37.0	2.5	/experiments/Knapen_AOT/AOT_stimuli/rescaled_final/1693_rv.mp4	0.0	206.91663026809692	
39	190.95341968536377	fix_post	2		12	37.0	2.5	/experiments/Knapen_AOT/AOT_stimuli/rescaled_final/1693_rv.mp4	0.0	208.24117422103882	0.10003185272216797
40	191.05345153808594	fix_pre	0		120	38.0	2.5	/experiments/Knapen_AOT/AOT_stimuli/rescaled_final/0204_rv.mp4	0.0	208.341206073761	1.0084381103515625
40	191.22871494293213	pulse	0	t		38.0	2.5	/experiments/Knapen_AOT/AOT_stimuli/rescaled_final/0204_rv.mp4	0.0	208.51646947860718	
40	192.0618896484375	movie	1		273	38.0	2.5	/experiments/Knapen_AOT/AOT_stimuli/rescaled_final/0204_rv.mp4	0.0	209.34964418411255	2.492090940475464
40	192.82912588119507	pulse	1	t		38.0	2.5	/experiments/Knapen_AOT/AOT_stimuli/rescaled_final/0204_rv.mp4	0.0	210.11688041687012	
40	194.4292459487915	pulse	1	t		38.0	2.5	/experiments/Knapen_AOT/AOT_stimuli/rescaled_final/0204_rv.mp4	0.0	211.71700048446655	
40	194.55398058891296	fix_post	2		12	38.0	2.5	/experiments/Knapen_AOT/AOT_stimuli/rescaled_final/0204_rv.mp4	0.0	211.841735124588	0.09998393058776855
41	194.65396451950073	fix_pre	0		120	39.0	2.5	/experiments/Knapen_AOT/AOT_stimuli/rescaled_final/0378_fw.mp4	0.0	211.94171905517578	1.0085036754608154
41	195.66246819496155	movie	1		282	39.0	2.5	/experiments/Knapen_AOT/AOT_stimuli/rescaled_final/0378_fw.mp4	0.0	212.9502227306366	2.492051601409912
41	196.0294680595398	pulse	1	t		39.0	2.5	/experiments/Knapen_AOT/AOT_stimuli/rescaled_final/0378_fw.mp4	0.0	213.31722259521484	
41	197.62878584861755	pulse	1	t		39.0	2.5	/experiments/Knapen_AOT/AOT_stimuli/rescaled_final/0378_fw.mp4	0.0	214.9165403842926	
41	198.15451979637146	fix_post	2		12	39.0	2.5	/experiments/Knapen_AOT/AOT_stimuli/rescaled_final/0378_fw.mp4	0.0	215.4422743320465	0.09999918937683105
42	198.2545189857483	fix_pre	0		118	40.0	2.5	/experiments/Knapen_AOT/AOT_stimuli/rescaled_final/0883_fw.mp4	0.0	215.54227352142334	0.9917771816253662
42	199.23003458976746	pulse	0	t		40.0	2.5	/experiments/Knapen_AOT/AOT_stimuli/rescaled_final/0883_fw.mp4	0.0	216.5177891254425	
42	199.24629616737366	movie	1		286	40.0	2.5	/experiments/Knapen_AOT/AOT_stimuli/rescaled_final/0883_fw.mp4	0.0	216.5340507030487	2.5004220008850098
42	200.82854104042053	pulse	1	t		40.0	2.5	/experiments/Knapen_AOT/AOT_stimuli/rescaled_final/0883_fw.mp4	0.0	218.11629557609558	
42	201.74671816825867	fix_post	2		12	40.0	2.5	/experiments/Knapen_AOT/AOT_stimuli/rescaled_final/0883_fw.mp4	0.0	219.03447270393372	0.10000348091125488
43	201.84672164916992	fix_pre	0		120	41.0	2.5	/experiments/Knapen_AOT/AOT_stimuli/rescaled_final/2002_rv.mp4	0.0	219.13447618484497	1.00846266746521
43	202.430415391922	pulse	0	t		41.0	2.5	/experiments/Knapen_AOT/AOT_stimuli/rescaled_final/2002_rv.mp4	0.0	219.71816992759705	
43	202.85518431663513	movie	1		280	41.0	2.5	/experiments/Knapen_AOT/AOT_stimuli/rescaled_final/2002_rv.mp4	0.0	220.14293885231018	2.492048978805542
43	204.02884125709534	pulse	1	t		41.0	2.5	/experiments/Knapen_AOT/AOT_stimuli/rescaled_final/2002_rv.mp4	0.0	221.31659579277039	
43	205.34723329544067	fix_post	2		12	41.0	2.5	/experiments/Knapen_AOT/AOT_stimuli/rescaled_final/2002_rv.mp4	0.0	222.63498783111572	0.1000220775604248
44	205.4472553730011	fix_pre	0		120	42.0	2.5	blank	1.0	222.73500990867615	1.0001556873321533
44	205.6308012008667	pulse	0	t		42.0	2.5	blank	1.0	222.91855573654175	
44	206.44741106033325	movie	1		300	42.0	2.5	blank	1.0	223.7351655960083	2.500377893447876
44	207.2310812473297	pulse	1	t		42.0	2.5	blank	1.0	224.51883578300476	
44	208.83131909370422	pulse	1	t		42.0	2.5	blank	1.0	226.11907362937927	
44	208.94778895378113	fix_post	2		12	42.0	2.5	blank	1.0	226.23554348945618	0.09999322891235352
45	209.04778218269348	fix_pre	0		120	43.0	2.5	/experiments/Knapen_AOT/AOT_stimuli/rescaled_final/1300_fw.mp4	0.0	226.33553671836853	1.0085036754608154
45	210.0562858581543	movie	1		277	43.0	2.5	/experiments/Knapen_AOT/AOT_stimuli/rescaled_final/1300_fw.mp4	0.0	227.34404039382935	2.4920148849487305
45	210.43172121047974	pulse	1	t		43.0	2.5	/experiments/Knapen_AOT/AOT_stimuli/rescaled_final/1300_fw.mp4	0.0	227.71947574615479	
45	212.02969813346863	pulse	1	t		43.0	2.5	/experiments/Knapen_AOT/AOT_stimuli/rescaled_final/1300_fw.mp4	0.0	229.31745266914368	
45	212.54830074310303	fix_post	2		12	43.0	2.5	/experiments/Knapen_AOT/AOT_stimuli/rescaled_final/1300_fw.mp4	0.0	229.83605527877808	0.10001540184020996
46	212.64831614494324	fix_pre	0		119	44.0	2.5	/experiments/Knapen_AOT/AOT_stimuli/rescaled_final/0458_fw.mp4	0.0	229.9360706806183	1.0001747608184814
46	213.6320197582245	pulse	0	t		44.0	2.5	/experiments/Knapen_AOT/AOT_stimuli/rescaled_final/0458_fw.mp4	0.0	230.91977429389954	
46	213.64849090576172	movie	1		264	44.0	2.5	/experiments/Knapen_AOT/AOT_stimuli/rescaled_final/0458_fw.mp4	0.0	230.93624544143677	2.500382661819458
46	215.23240041732788	pulse	1	t		44.0	2.5	/experiments/Knapen_AOT/AOT_stimuli/rescaled_final/0458_fw.mp4	0.0	232.52015495300293	
46	216.14887356758118	fix_post	2		12	44.0	2.5	/experiments/Knapen_AOT/AOT_stimuli/rescaled_final/0458_fw.mp4	0.0	233.43662810325623	0.10013413429260254
47	216.24900770187378	fix_pre	0		120	45.0	2.5	/experiments/Knapen_AOT/AOT_stimuli/rescaled_final/1777_fw.mp4	0.0	233.53676223754883	1.0083692073822021
47	216.8324863910675	pulse	0	t		45.0	2.5	/experiments/Knapen_AOT/AOT_stimuli/rescaled_final/1777_fw.mp4	0.0	234.12024092674255	
47	217.25737690925598	movie	1		269	45.0	2.5	/experiments/Knapen_AOT/AOT_stimuli/rescaled_final/1777_fw.mp4	0.0	234.54513144493103	2.4920246601104736
47	218.43100666999817	pulse	1	t		45.0	2.5	/experiments/Knapen_AOT/AOT_stimuli/rescaled_final/1777_fw.mp4	0.0	235.71876120567322	
47	219.74940156936646	fix_post	2		12	45.0	2.5	/experiments/Knapen_AOT/AOT_stimuli/rescaled_final/1777_fw.mp4	0.0	237.0371561050415	0.10005927085876465
48	219.84946084022522	fix_pre	0		120	46.0	2.5	/experiments/Knapen_AOT/AOT_stimuli/rescaled_final/0419_rv.mp4	0.0	237.13721537590027	1.008497714996338
48	220.0329713821411	pulse	0	t		46.0	2.5	/experiments/Knapen_AOT/AOT_stimuli/rescaled_final/0419_rv.mp4	0.0	237.32072591781616	
48	220.85795855522156	movie	1		285	46.0	2.5	/experiments/Knapen_AOT/AOT_stimuli/rescaled_final/0419_rv.mp4	0.0	238.1457130908966	2.4920074939727783
48	221.63163590431213	pulse	1	t		46.0	2.5	/experiments/Knapen_AOT/AOT_stimuli/rescaled_final/0419_rv.mp4	0.0	238.91939043998718	
48	223.23147010803223	pulse	1	t		46.0	2.5	/experiments/Knapen_AOT/AOT_stimuli/rescaled_final/0419_rv.mp4	0.0	240.51922464370728	
48	223.34996604919434	fix_post	2		12	46.0	2.5	/experiments/Knapen_AOT/AOT_stimuli/rescaled_final/0419_rv.mp4	0.0	240.63772058486938	0.10000419616699219
49	223.44997024536133	fix_pre	0		120	47.0	2.5	/experiments/Knapen_AOT/AOT_stimuli/rescaled_final/1226_fw.mp4	0.0	240.73772478103638	1.008519172668457
49	224.45848941802979	movie	1		287	47.0	2.5	/experiments/Knapen_AOT/AOT_stimuli/rescaled_final/1226_fw.mp4	0.0	241.74624395370483	2.492037296295166
49	224.83200001716614	pulse	1	t		47.0	2.5	/experiments/Knapen_AOT/AOT_stimuli/rescaled_final/1226_fw.mp4	0.0	242.1197545528412	
49	226.43233680725098	pulse	1	t		47.0	2.5	/experiments/Knapen_AOT/AOT_stimuli/rescaled_final/1226_fw.mp4	0.0	243.72009134292603	
49	226.95052671432495	fix_post	2		12	47.0	2.5	/experiments/Knapen_AOT/AOT_stimuli/rescaled_final/1226_fw.mp4	0.0	244.23828125	0.09998726844787598
50	227.05051398277283	fix_pre	0		119	48.0	2.5	/experiments/Knapen_AOT/AOT_stimuli/rescaled_final/0393_rv.mp4	0.0	244.33826851844788	1.0001423358917236
50	228.0343255996704	pulse	0	t		48.0	2.5	/experiments/Knapen_AOT/AOT_stimuli/rescaled_final/0393_rv.mp4	0.0	245.32208013534546	
50	228.05065631866455	movie	1		275	48.0	2.5	/experiments/Knapen_AOT/AOT_stimuli/rescaled_final/0393_rv.mp4	0.0	245.3384108543396	2.500422716140747
50	229.63271379470825	pulse	1	t		48.0	2.5	/experiments/Knapen_AOT/AOT_stimuli/rescaled_final/0393_rv.mp4	0.0	246.9204683303833	
50	230.5510790348053	fix_post	2		12	48.0	2.5	/experiments/Knapen_AOT/AOT_stimuli/rescaled_final/0393_rv.mp4	0.0	247.83883357048035	0.09997010231018066
51	230.65104913711548	fix_pre	0		120	49.0	2.5	blank	1.0	247.93880367279053	1.0001332759857178
51	231.2347264289856	pulse	0	t		49.0	2.5	blank	1.0	248.52248096466064	
51	231.6511824131012	movie	1		300	49.0	2.5	blank	1.0	248.93893694877625	2.500365972518921
51	232.83500123023987	pulse	1	t		49.0	2.5	blank	1.0	250.12275576591492	
51	234.15154838562012	fix_post	2		12	49.0	2.5	blank	1.0	251.43930292129517	0.10004353523254395
52	234.25159192085266	fix_pre	0		120	50.0	2.5	/experiments/Knapen_AOT/AOT_stimuli/rescaled_final/1041_fw.mp4	0.0	251.5393464565277	1.0084693431854248
52	234.43513774871826	pulse	0	t		50.0	2.5	/experiments/Knapen_AOT/AOT_stimuli/rescaled_final/1041_fw.mp4	0.0	251.7228922843933	
52	235.2600612640381	movie	1		273	50.0	2.5	/experiments/Knapen_AOT/AOT_stimuli/rescaled_final/1041_fw.mp4	0.0	252.54781579971313	2.492072105407715
52	236.03362345695496	pulse	1	t		50.0	2.5	/experiments/Knapen_AOT/AOT_stimuli/rescaled_final/1041_fw.mp4	0.0	253.32137799263	
52	237.63361525535583	pulse	1	t		50.0	2.5	/experiments/Knapen_AOT/AOT_stimuli/rescaled_final/1041_fw.mp4	0.0	254.92136979103088	
52	237.7521333694458	fix_post	2		12	50.0	2.5	/experiments/Knapen_AOT/AOT_stimuli/rescaled_final/1041_fw.mp4	0.0	255.03988790512085	0.1000218391418457
53	237.85215520858765	fix_pre	0		120	51.0	2.5	/experiments/Knapen_AOT/AOT_stimuli/rescaled_final/0711_fw.mp4	0.0	255.1399097442627	1.0084803104400635
53	238.8606355190277	movie	1		290	51.0	2.5	/experiments/Knapen_AOT/AOT_stimuli/rescaled_final/0711_fw.mp4	0.0	256.14839005470276	2.4920315742492676
53	239.23437643051147	pulse	1	t		51.0	2.5	/experiments/Knapen_AOT/AOT_stimuli/rescaled_final/0711_fw.mp4	0.0	256.5221309661865	
53	240.83384442329407	pulse	1	t		51.0	2.5	/experiments/Knapen_AOT/AOT_stimuli/rescaled_final/0711_fw.mp4	0.0	258.1215989589691	
53	241.35266709327698	fix_post	2		12	51.0	2.5	/experiments/Knapen_AOT/AOT_stimuli/rescaled_final/0711_fw.mp4	0.0	258.640421628952	0.09999728202819824
54	241.45266437530518	fix_pre	0		119	52.0	2.5	/experiments/Knapen_AOT/AOT_stimuli/rescaled_final/1300_fw.mp4	0.0	258.7404189109802	1.0002803802490234
54	242.42947435379028	pulse	0	t		52.0	2.5	/experiments/Knapen_AOT/AOT_stimuli/rescaled_final/1300_fw.mp4	0.0	259.71722888946533	
54	242.4529447555542	movie	1		278	52.0	2.5	/experiments/Knapen_AOT/AOT_stimuli/rescaled_final/1300_fw.mp4	0.0	259.74069929122925	2.5002987384796143
54	244.03515362739563	pulse	1	t		52.0	2.5	/experiments/Knapen_AOT/AOT_stimuli/rescaled_final/1300_fw.mp4	0.0	261.3229081630707	
54	244.9532434940338	fix_post	2		12	52.0	2.5	/experiments/Knapen_AOT/AOT_stimuli/rescaled_final/1300_fw.mp4	0.0	262.24099802970886	0.10002613067626953
55	245.05326962471008	fix_pre	0		120	53.0	2.5	/experiments/Knapen_AOT/AOT_stimuli/rescaled_final/0524_fw.mp4	0.0	262.34102416038513	1.0084235668182373
55	245.62895798683167	pulse	0	t		53.0	2.5	/experiments/Knapen_AOT/AOT_stimuli/rescaled_final/0524_fw.mp4	0.0	262.9167125225067	
55	246.06169319152832	movie	1		267	53.0	2.5	/experiments/Knapen_AOT/AOT_stimuli/rescaled_final/0524_fw.mp4	0.0	263.34944772720337	2.492088556289673
55	247.22921991348267	pulse	1	t		53.0	2.5	/experiments/Knapen_AOT/AOT_stimuli/rescaled_final/0524_fw.mp4	0.0	264.5169744491577	
55	248.553781747818	fix_post	2		12	53.0	2.5	/experiments/Knapen_AOT/AOT_stimuli/rescaled_final/0524_fw.mp4	0.0	265.84153628349304	0.09996867179870605
56	248.6537504196167	fix_pre	0		120	54.0	2.5	/experiments/Knapen_AOT/AOT_stimuli/rescaled_final/0249_rv.mp4	0.0	265.94150495529175	1.0084831714630127
56	248.82897782325745	pulse	0	t		54.0	2.5	/experiments/Knapen_AOT/AOT_stimuli/rescaled_final/0249_rv.mp4	0.0	266.1167323589325	
56	249.6622335910797	movie	1		283	54.0	2.5	/experiments/Knapen_AOT/AOT_stimuli/rescaled_final/0249_rv.mp4	0.0	266.94998812675476	2.492079734802246
56	250.4296522140503	pulse	1	t		54.0	2.5	/experiments/Knapen_AOT/AOT_stimuli/rescaled_final/0249_rv.mp4	0.0	267.71740674972534	
56	252.0294840335846	pulse	1	t		54.0	2.5	/experiments/Knapen_AOT/AOT_stimuli/rescaled_final/0249_rv.mp4	0.0	269.31723856925964	
56	252.15431332588196	fix_post	2		12	54.0	2.5	/experiments/Knapen_AOT/AOT_stimuli/rescaled_final/0249_rv.mp4	0.0	269.442067861557	0.10007691383361816
57	252.25439023971558	fix_pre	0		120	55.0	2.5	/experiments/Knapen_AOT/AOT_stimuli/rescaled_final/1566_fw.mp4	0.0	269.5421447753906	1.0085608959197998
57	253.26295113563538	movie	1		273	55.0	2.5	/experiments/Knapen_AOT/AOT_stimuli/rescaled_final/1566_fw.mp4	0.0	270.5507056713104	2.4918389320373535
57	253.62985229492188	pulse	1	t		55.0	2.5	/experiments/Knapen_AOT/AOT_stimuli/rescaled_final/1566_fw.mp4	0.0	270.9176068305969	
57	255.2299461364746	pulse	1	t		55.0	2.5	/experiments/Knapen_AOT/AOT_stimuli/rescaled_final/1566_fw.mp4	0.0	272.51770067214966	
57	255.75479006767273	fix_post	2		12	55.0	2.5	/experiments/Knapen_AOT/AOT_stimuli/rescaled_final/1566_fw.mp4	0.0	273.0425446033478	0.10004544258117676
58	255.8548355102539	fix_pre	0		118	56.0	2.5	blank	1.0	273.14259004592896	0.9834277629852295
58	256.8302140235901	pulse	0	t		56.0	2.5	blank	1.0	274.11796855926514	
58	256.83826327323914	movie	1		301	56.0	2.5	blank	1.0	274.1260178089142	2.5087473392486572
58	258.4305908679962	pulse	1	t		56.0	2.5	blank	1.0	275.71834540367126	
58	259.3470106124878	fix_post	2		12	56.0	2.5	blank	1.0	276.63476514816284	0.10001349449157715
59	259.44702410697937	fix_pre	0		120	57.0	2.5	/experiments/Knapen_AOT/AOT_stimuli/rescaled_final/1816_rv.mp4	0.0	276.7347786426544	1.0085020065307617
59	260.03098011016846	pulse	0	t		57.0	2.5	/experiments/Knapen_AOT/AOT_stimuli/rescaled_final/1816_rv.mp4	0.0	277.3187346458435	
59	260.45552611351013	movie	1		279	57.0	2.5	/experiments/Knapen_AOT/AOT_stimuli/rescaled_final/1816_rv.mp4	0.0	277.7432806491852	2.4920544624328613
59	261.6290273666382	pulse	1	t		57.0	2.5	/experiments/Knapen_AOT/AOT_stimuli/rescaled_final/1816_rv.mp4	0.0	278.91678190231323	
59	262.947580575943	fix_post	2		12	57.0	2.5	/experiments/Knapen_AOT/AOT_stimuli/rescaled_final/1816_rv.mp4	0.0	280.23533511161804	0.09999632835388184
60	263.0475769042969	fix_pre	0		120	58.0	2.5	/experiments/Knapen_AOT/AOT_stimuli/rescaled_final/2122_fw.mp4	0.0	280.3353314399719	1.008565902709961
60	263.231162071228	pulse	0	t		58.0	2.5	/experiments/Knapen_AOT/AOT_stimuli/rescaled_final/2122_fw.mp4	0.0	280.5189166069031	
60	264.05614280700684	movie	1		285	58.0	2.5	/experiments/Knapen_AOT/AOT_stimuli/rescaled_final/2122_fw.mp4	0.0	281.3438973426819	2.491956949234009
60	264.8295011520386	pulse	1	t		58.0	2.5	/experiments/Knapen_AOT/AOT_stimuli/rescaled_final/2122_fw.mp4	0.0	282.1172556877136	
60	266.4308109283447	pulse	1	t		58.0	2.5	/experiments/Knapen_AOT/AOT_stimuli/rescaled_final/2122_fw.mp4	0.0	283.7185654640198	
60	266.54809975624084	fix_post	2		12	58.0	2.5	/experiments/Knapen_AOT/AOT_stimuli/rescaled_final/2122_fw.mp4	0.0	283.8358542919159	0.10002493858337402
61	266.6481246948242	fix_pre	0		120	59.0	2.5	/experiments/Knapen_AOT/AOT_stimuli/rescaled_final/2028_rv.mp4	0.0	283.93587923049927	1.0084867477416992
61	267.6566114425659	movie	1		277	59.0	2.5	/experiments/Knapen_AOT/AOT_stimuli/rescaled_final/2028_rv.mp4	0.0	284.94436597824097	2.4920425415039062
61	268.0303897857666	pulse	1	t		59.0	2.5	/experiments/Knapen_AOT/AOT_stimuli/rescaled_final/2028_rv.mp4	0.0	285.31814432144165	
61	269.6300961971283	pulse	1	t		59.0	2.5	/experiments/Knapen_AOT/AOT_stimuli/rescaled_final/2028_rv.mp4	0.0	286.91785073280334	
61	270.1486539840698	fix_post	2		12	59.0	2.5	/experiments/Knapen_AOT/AOT_stimuli/rescaled_final/2028_rv.mp4	0.0	287.4364085197449	0.0999913215637207
62	270.24864530563354	fix_pre	0		119	60.0	2.5	/experiments/Knapen_AOT/AOT_stimuli/rescaled_final/1331_rv.mp4	0.0	287.5363998413086	1.000180721282959
62	271.23238825798035	pulse	0	t		60.0	2.5	/experiments/Knapen_AOT/AOT_stimuli/rescaled_final/1331_rv.mp4	0.0	288.5201427936554	
62	271.2488260269165	movie	1		292	60.0	2.5	/experiments/Knapen_AOT/AOT_stimuli/rescaled_final/1331_rv.mp4	0.0	288.53658056259155	2.50034761428833
62	272.83114075660706	pulse	1	t		60.0	2.5	/experiments/Knapen_AOT/AOT_stimuli/rescaled_final/1331_rv.mp4	0.0	290.1188952922821	
62	273.74917364120483	fix_post	2		12	60.0	2.5	/experiments/Knapen_AOT/AOT_stimuli/rescaled_final/1331_rv.mp4	0.0	291.0369281768799	0.10004472732543945
63	273.8492183685303	fix_pre	0		120	61.0	2.5	blank	1.0	291.1369729042053	1.000126600265503
63	274.43292808532715	pulse	0	t		61.0	2.5	blank	1.0	291.7206826210022	
63	274.8493449687958	movie	1		300	61.0	2.5	blank	1.0	292.1370995044708	2.500361919403076
63	276.0331711769104	pulse	1	t		61.0	2.5	blank	1.0	293.32092571258545	
63	277.34970688819885	fix_post	2		12	61.0	2.5	blank	1.0	294.6374614238739	0.10002303123474121
64	277.4497299194336	fix_pre	0		120	62.0	2.5	/experiments/Knapen_AOT/AOT_stimuli/rescaled_final/1229_rv.mp4	0.0	294.73748445510864	1.0169215202331543
64	277.6333255767822	pulse	0	t		62.0	2.5	/experiments/Knapen_AOT/AOT_stimuli/rescaled_final/1229_rv.mp4	0.0	294.9210801124573	
64	278.46665143966675	movie	1		276	62.0	2.5	/experiments/Knapen_AOT/AOT_stimuli/rescaled_final/1229_rv.mp4	0.0	295.7544059753418	2.483607530593872
64	279.2333896160126	pulse	1	t		62.0	2.5	/experiments/Knapen_AOT/AOT_stimuli/rescaled_final/1229_rv.mp4	0.0	296.5211441516876	
64	280.83204436302185	pulse	1	t		62.0	2.5	/experiments/Knapen_AOT/AOT_stimuli/rescaled_final/1229_rv.mp4	0.0	298.1197988986969	
64	280.9502589702606	fix_post	2		12	62.0	2.5	/experiments/Knapen_AOT/AOT_stimuli/rescaled_final/1229_rv.mp4	0.0	298.23801350593567	0.10005903244018555
65	281.0503180027008	fix_pre	0		120	63.0	2.5	/experiments/Knapen_AOT/AOT_stimuli/rescaled_final/0842_rv.mp4	0.0	298.33807253837585	1.0084693431854248
65	282.05878734588623	movie	1		287	63.0	2.5	/experiments/Knapen_AOT/AOT_stimuli/rescaled_final/0842_rv.mp4	0.0	299.3465418815613	2.492016077041626
65	282.43274569511414	pulse	1	t		63.0	2.5	/experiments/Knapen_AOT/AOT_stimuli/rescaled_final/0842_rv.mp4	0.0	299.7205002307892	
65	284.03233790397644	pulse	1	t		63.0	2.5	/experiments/Knapen_AOT/AOT_stimuli/rescaled_final/0842_rv.mp4	0.0	301.3200924396515	
65	284.55080342292786	fix_post	2		12	63.0	2.5	/experiments/Knapen_AOT/AOT_stimuli/rescaled_final/0842_rv.mp4	0.0	301.8385579586029	0.10003352165222168
66	284.6508369445801	fix_pre	0		119	64.0	2.5	/experiments/Knapen_AOT/AOT_stimuli/rescaled_final/1816_fw.mp4	0.0	301.9385914802551	1.0001435279846191
66	285.63466334342957	pulse	0	t		64.0	2.5	/experiments/Knapen_AOT/AOT_stimuli/rescaled_final/1816_fw.mp4	0.0	302.9224178791046	
66	285.6509804725647	movie	1		285	64.0	2.5	/experiments/Knapen_AOT/AOT_stimuli/rescaled_final/1816_fw.mp4	0.0	302.93873500823975	2.5003609657287598
66	287.2343134880066	pulse	1	t		64.0	2.5	/experiments/Knapen_AOT/AOT_stimuli/rescaled_final/1816_fw.mp4	0.0	304.52206802368164	
66	288.15134143829346	fix_post	2		12	64.0	2.5	/experiments/Knapen_AOT/AOT_stimuli/rescaled_final/1816_fw.mp4	0.0	305.4390959739685	0.10003376007080078
67	288.25137519836426	fix_pre	0		120	65.0	2.5	/experiments/Knapen_AOT/AOT_stimuli/rescaled_final/1071_rv.mp4	0.0	305.5391297340393	1.0084810256958008
67	288.83506989479065	pulse	0	t		65.0	2.5	/experiments/Knapen_AOT/AOT_stimuli/rescaled_final/1071_rv.mp4	0.0	306.1228244304657	
67	289.25985622406006	movie	1		280	65.0	2.5	/experiments/Knapen_AOT/AOT_stimuli/rescaled_final/1071_rv.mp4	0.0	306.5476107597351	2.4921820163726807
67	290.4343137741089	pulse	1	t		65.0	2.5	/experiments/Knapen_AOT/AOT_stimuli/rescaled_final/1071_rv.mp4	0.0	307.72206830978394	
67	291.75203824043274	fix_post	2		12	65.0	2.5	/experiments/Knapen_AOT/AOT_stimuli/rescaled_final/1071_rv.mp4	0.0	309.0397927761078	0.0998687744140625
68	291.8519070148468	fix_pre	0		120	66.0	2.5	/experiments/Knapen_AOT/AOT_stimuli/rescaled_final/0979_fw.mp4	0.0	309.13966155052185	1.0085058212280273
68	292.03562927246094	pulse	0	t		66.0	2.5	/experiments/Knapen_AOT/AOT_stimuli/rescaled_final/0979_fw.mp4	0.0	309.323383808136	
68	292.86041283607483	movie	1		280	66.0	2.5	/experiments/Knapen_AOT/AOT_stimuli/rescaled_final/0979_fw.mp4	0.0	310.1481673717499	2.492025136947632
68	293.63359904289246	pulse	1	t		66.0	2.5	/experiments/Knapen_AOT/AOT_stimuli/rescaled_final/0979_fw.mp4	0.0	310.9213535785675	
68	295.23408460617065	pulse	1	t		66.0	2.5	/experiments/Knapen_AOT/AOT_stimuli/rescaled_final/0979_fw.mp4	0.0	312.5218391418457	
68	295.35243797302246	fix_post	2		12	66.0	2.5	/experiments/Knapen_AOT/AOT_stimuli/rescaled_final/0979_fw.mp4	0.0	312.6401925086975	0.10003066062927246
69	295.45246863365173	fix_pre	0		120	67.0	2.5	/experiments/Knapen_AOT/AOT_stimuli/rescaled_final/0921_rv.mp4	0.0	312.7402231693268	1.0084803104400635
69	296.4609489440918	movie	1		271	67.0	2.5	/experiments/Knapen_AOT/AOT_stimuli/rescaled_final/0921_rv.mp4	0.0	313.74870347976685	2.4920382499694824
69	296.8346724510193	pulse	1	t		67.0	2.5	/experiments/Knapen_AOT/AOT_stimuli/rescaled_final/0921_rv.mp4	0.0	314.12242698669434	
69	298.4369077682495	pulse	1	t		67.0	2.5	/experiments/Knapen_AOT/AOT_stimuli/rescaled_final/0921_rv.mp4	0.0	315.72466230392456	
69	298.9529871940613	fix_post	2		12	67.0	2.5	/experiments/Knapen_AOT/AOT_stimuli/rescaled_final/0921_rv.mp4	0.0	316.2407417297363	0.10003066062927246
70	299.05301785469055	fix_pre	0		119	68.0	2.5	/experiments/Knapen_AOT/AOT_stimuli/rescaled_final/1423_fw.mp4	0.0	316.3407723903656	1.00014328956604
70	300.03670144081116	pulse	0	t		68.0	2.5	/experiments/Knapen_AOT/AOT_stimuli/rescaled_final/1423_fw.mp4	0.0	317.3244559764862	
70	300.0531611442566	movie	1		281	68.0	2.5	/experiments/Knapen_AOT/AOT_stimuli/rescaled_final/1423_fw.mp4	0.0	317.34091567993164	2.5003554821014404
70	301.63556480407715	pulse	1	t		68.0	2.5	/experiments/Knapen_AOT/AOT_stimuli/rescaled_final/1423_fw.mp4	0.0	318.9233193397522	
70	302.55351662635803	fix_post	2		12	68.0	2.5	/experiments/Knapen_AOT/AOT_stimuli/rescaled_final/1423_fw.mp4	0.0	319.8412711620331	0.1000213623046875
71	302.6535379886627	fix_pre	0		120	69.0	2.5	blank	1.0	319.94129252433777	1.0001554489135742
71	303.23719477653503	pulse	0	t		69.0	2.5	blank	1.0	320.5249493122101	
71	303.6536934375763	movie	1		300	69.0	2.5	blank	1.0	320.94144797325134	2.500345230102539
71	304.8294723033905	pulse	1	t		69.0	2.5	blank	1.0	322.11722683906555	
71	306.15403866767883	fix_post	2		12	69.0	2.5	blank	1.0	323.4417932033539	0.10001778602600098
72	306.25405645370483	fix_pre	0		120	70.0	2.5	/experiments/Knapen_AOT/AOT_stimuli/rescaled_final/2024_rv.mp4	0.0	323.5418109893799	1.008514165878296
72	306.42940759658813	pulse	0	t		70.0	2.5	/experiments/Knapen_AOT/AOT_stimuli/rescaled_final/2024_rv.mp4	0.0	323.7171621322632	
72	307.26257061958313	movie	1		263	70.0	2.5	/experiments/Knapen_AOT/AOT_stimuli/rescaled_final/2024_rv.mp4	0.0	324.5503251552582	2.4920825958251953
72	308.02959537506104	pulse	1	t		70.0	2.5	/experiments/Knapen_AOT/AOT_stimuli/rescaled_final/2024_rv.mp4	0.0	325.3173499107361	
72	309.62981939315796	pulse	1	t		70.0	2.5	/experiments/Knapen_AOT/AOT_stimuli/rescaled_final/2024_rv.mp4	0.0	326.917573928833	
72	309.7546532154083	fix_post	2		11	70.0	2.5	/experiments/Knapen_AOT/AOT_stimuli/rescaled_final/2024_rv.mp4	0.0	327.0424077510834	0.0999596118927002
73	309.854612827301	fix_pre	0		120	71.0	2.5	/experiments/Knapen_AOT/AOT_stimuli/rescaled_final/0635_rv.mp4	0.0	327.1423673629761	1.0085177421569824
73	310.863130569458	movie	1		283	71.0	2.5	/experiments/Knapen_AOT/AOT_stimuli/rescaled_final/0635_rv.mp4	0.0	328.15088510513306	2.4920074939727783
73	311.22948026657104	pulse	1	t		71.0	2.5	/experiments/Knapen_AOT/AOT_stimuli/rescaled_final/0635_rv.mp4	0.0	328.5172348022461	
73	312.8303005695343	pulse	1	t		71.0	2.5	/experiments/Knapen_AOT/AOT_stimuli/rescaled_final/0635_rv.mp4	0.0	330.11805510520935	
73	313.3551380634308	fix_post	2		12	71.0	2.5	/experiments/Knapen_AOT/AOT_stimuli/rescaled_final/0635_rv.mp4	0.0	330.64289259910583	0.10000848770141602
74	313.4551465511322	fix_pre	0		118	72.0	2.5	/experiments/Knapen_AOT/AOT_stimuli/rescaled_final/0587_rv.mp4	0.0	330.74290108680725	0.9918279647827148
74	314.4305577278137	pulse	0	t		72.0	2.5	/experiments/Knapen_AOT/AOT_stimuli/rescaled_final/0587_rv.mp4	0.0	331.71831226348877	
74	314.4469745159149	movie	1		284	72.0	2.5	/experiments/Knapen_AOT/AOT_stimuli/rescaled_final/0587_rv.mp4	0.0	331.73472905158997	2.5004191398620605
74	316.02944707870483	pulse	1	t		72.0	2.5	/experiments/Knapen_AOT/AOT_stimuli/rescaled_final/0587_rv.mp4	0.0	333.3172016143799	
74	316.947393655777	fix_post	2		12	72.0	2.5	/experiments/Knapen_AOT/AOT_stimuli/rescaled_final/0587_rv.mp4	0.0	334.235148191452	0.09996581077575684
75	317.04735946655273	fix_pre	0		120	73.0	2.5	/experiments/Knapen_AOT/AOT_stimuli/rescaled_final/2152_rv.mp4	0.0	334.3351140022278	1.0085101127624512
75	317.6311089992523	pulse	0	t		73.0	2.5	/experiments/Knapen_AOT/AOT_stimuli/rescaled_final/2152_rv.mp4	0.0	334.91886353492737	
75	318.0558695793152	movie	1		280	73.0	2.5	/experiments/Knapen_AOT/AOT_stimuli/rescaled_final/2152_rv.mp4	0.0	335.34362411499023	2.492154121398926
75	319.229620218277	pulse	1	t		73.0	2.5	/experiments/Knapen_AOT/AOT_stimuli/rescaled_final/2152_rv.mp4	0.0	336.517374753952	
75	320.5480237007141	fix_post	2		12	73.0	2.5	/experiments/Knapen_AOT/AOT_stimuli/rescaled_final/2152_rv.mp4	0.0	337.83577823638916	0.09988665580749512
76	320.6479103565216	fix_pre	0		120	74.0	2.5	/experiments/Knapen_AOT/AOT_stimuli/rescaled_final/0306_fw.mp4	0.0	337.93566489219666	1.0085079669952393
76	320.83145809173584	pulse	0	t		74.0	2.5	/experiments/Knapen_AOT/AOT_stimuli/rescaled_final/0306_fw.mp4	0.0	338.1192126274109	
76	321.65641832351685	movie	1		283	74.0	2.5	/experiments/Knapen_AOT/AOT_stimuli/rescaled_final/0306_fw.mp4	0.0	338.9441728591919	2.492069959640503
76	322.4302306175232	pulse	1	t		74.0	2.5	/experiments/Knapen_AOT/AOT_stimuli/rescaled_final/0306_fw.mp4	0.0	339.71798515319824	
76	324.03000497817993	pulse	1	t		74.0	2.5	/experiments/Knapen_AOT/AOT_stimuli/rescaled_final/0306_fw.mp4	0.0	341.317759513855	
76	324.14848828315735	fix_post	2		12	74.0	2.5	/experiments/Knapen_AOT/AOT_stimuli/rescaled_final/0306_fw.mp4	0.0	341.4362428188324	0.09998488426208496
77	324.24847316741943	fix_pre	0		120	75.0	2.5	blank	1.0	341.5362277030945	1.0001192092895508
77	325.248592376709	movie	1		300	75.0	2.5	blank	1.0	342.53634691238403	2.500389814376831
77	325.63225173950195	pulse	1	t		75.0	2.5	blank	1.0	342.920006275177	
77	327.2325780391693	pulse	1	t		75.0	2.5	blank	1.0	344.52033257484436	
77	327.7489821910858	fix_post	2		12	75.0	2.5	blank	1.0	345.03673672676086	0.10005426406860352
78	327.8490364551544	fix_pre	0		119	76.0	2.5	/experiments/Knapen_AOT/AOT_stimuli/rescaled_final/0314_rv.mp4	0.0	345.13679099082947	1.000316858291626
78	328.8326966762543	pulse	0	t		76.0	2.5	/experiments/Knapen_AOT/AOT_stimuli/rescaled_final/0314_rv.mp4	0.0	346.1204512119293	
78	328.84935331344604	movie	1		284	76.0	2.5	/experiments/Knapen_AOT/AOT_stimuli/rescaled_final/0314_rv.mp4	0.0	346.1371078491211	2.50018048286438
78	330.43230986595154	pulse	1	t		76.0	2.5	/experiments/Knapen_AOT/AOT_stimuli/rescaled_final/0314_rv.mp4	0.0	347.7200644016266	
78	331.3495337963104	fix_post	2		12	76.0	2.5	/experiments/Knapen_AOT/AOT_stimuli/rescaled_final/0314_rv.mp4	0.0	348.6372883319855	0.10000491142272949
79	331.44953870773315	fix_pre	0		120	77.0	2.5	/experiments/Knapen_AOT/AOT_stimuli/rescaled_final/1645_rv.mp4	0.0	348.7372932434082	1.0085043907165527
79	332.03318548202515	pulse	0	t		77.0	2.5	/experiments/Knapen_AOT/AOT_stimuli/rescaled_final/1645_rv.mp4	0.0	349.3209400177002	
79	332.4580430984497	movie	1		265	77.0	2.5	/experiments/Knapen_AOT/AOT_stimuli/rescaled_final/1645_rv.mp4	0.0	349.74579763412476	2.4920084476470947
79	333.63134956359863	pulse	1	t		77.0	2.5	/experiments/Knapen_AOT/AOT_stimuli/rescaled_final/1645_rv.mp4	0.0	350.9191040992737	
79	334.9500515460968	fix_post	2		12	77.0	2.5	/experiments/Knapen_AOT/AOT_stimuli/rescaled_final/1645_rv.mp4	0.0	352.23780608177185	0.10002899169921875
80	335.050080537796	fix_pre	0		120	78.0	2.5	/experiments/Knapen_AOT/AOT_stimuli/rescaled_final/0942_rv.mp4	0.0	352.33783507347107	1.008481502532959
80	335.2338788509369	pulse	0	t		78.0	2.5	/experiments/Knapen_AOT/AOT_stimuli/rescaled_final/0942_rv.mp4	0.0	352.52163338661194	
80	336.058562040329	movie	1		280	78.0	2.5	/experiments/Knapen_AOT/AOT_stimuli/rescaled_final/0942_rv.mp4	0.0	353.346316576004	2.4920201301574707
80	336.83167934417725	pulse	1	t		78.0	2.5	/experiments/Knapen_AOT/AOT_stimuli/rescaled_final/0942_rv.mp4	0.0	354.1194338798523	
80	338.43235874176025	pulse	1	t		78.0	2.5	/experiments/Knapen_AOT/AOT_stimuli/rescaled_final/0942_rv.mp4	0.0	355.7201132774353	
80	338.55058217048645	fix_post	2		12	78.0	2.5	/experiments/Knapen_AOT/AOT_stimuli/rescaled_final/0942_rv.mp4	0.0	355.8383367061615	0.10004186630249023
81	338.65062403678894	fix_pre	0		120	79.0	2.5	/experiments/Knapen_AOT/AOT_stimuli/rescaled_final/1465_rv.mp4	0.0	355.938378572464	1.0085060596466064
81	339.65913009643555	movie	1		264	79.0	2.5	/experiments/Knapen_AOT/AOT_stimuli/rescaled_final/1465_rv.mp4	0.0	356.9468846321106	2.4920308589935303
81	340.03459644317627	pulse	1	t		79.0	2.5	/experiments/Knapen_AOT/AOT_stimuli/rescaled_final/1465_rv.mp4	0.0	357.3223509788513	
81	341.63374733924866	pulse	1	t		79.0	2.5	/experiments/Knapen_AOT/AOT_stimuli/rescaled_final/1465_rv.mp4	0.0	358.9215018749237	
81	342.1511609554291	fix_post	2		12	79.0	2.5	/experiments/Knapen_AOT/AOT_stimuli/rescaled_final/1465_rv.mp4	0.0	359.4389154911041	0.10004186630249023
82	342.25120282173157	fix_pre	0		119	80.0	2.5	/experiments/Knapen_AOT/AOT_stimuli/rescaled_final/1034_fw.mp4	0.0	359.5389573574066	1.00862455368042
82	343.2350733280182	pulse	0	t		80.0	2.5	/experiments/Knapen_AOT/AOT_stimuli/rescaled_final/1034_fw.mp4	0.0	360.52282786369324	
82	343.259827375412	movie	1		271	80.0	2.5	/experiments/Knapen_AOT/AOT_stimuli/rescaled_final/1034_fw.mp4	0.0	360.54758191108704	2.4918742179870605
82	344.8336691856384	pulse	1	t		80.0	2.5	/experiments/Knapen_AOT/AOT_stimuli/rescaled_final/1034_fw.mp4	0.0	362.1214237213135	
82	345.75170159339905	fix_post	2		12	80.0	2.5	/experiments/Knapen_AOT/AOT_stimuli/rescaled_final/1034_fw.mp4	0.0	363.0394561290741	0.1000051498413086
83	345.85170674324036	fix_pre	0		120	81.0	2.5	/experiments/Knapen_AOT/AOT_stimuli/rescaled_final/1962_fw.mp4	0.0	363.1394612789154	1.008509635925293
83	346.4354085922241	pulse	0	t		81.0	2.5	/experiments/Knapen_AOT/AOT_stimuli/rescaled_final/1962_fw.mp4	0.0	363.72316312789917	
83	346.86021637916565	movie	1		277	81.0	2.5	/experiments/Knapen_AOT/AOT_stimuli/rescaled_final/1962_fw.mp4	0.0	364.1479709148407	2.4920098781585693
83	348.0337064266205	pulse	1	t		81.0	2.5	/experiments/Knapen_AOT/AOT_stimuli/rescaled_final/1962_fw.mp4	0.0	365.32146096229553	
83	349.3522262573242	fix_post	2		12	81.0	2.5	/experiments/Knapen_AOT/AOT_stimuli/rescaled_final/1962_fw.mp4	0.0	366.63998079299927	0.10009217262268066
84	349.4523184299469	fix_pre	0		120	82.0	2.5	blank	1.0	366.74007296562195	1.0000736713409424
84	349.63596057891846	pulse	0	t		82.0	2.5	blank	1.0	366.9237151145935	
84	350.45239210128784	movie	1		300	82.0	2.5	blank	1.0	367.7401466369629	2.5003960132598877
84	351.2360405921936	pulse	1	t		82.0	2.5	blank	1.0	368.52379512786865	
84	352.8291528224945	pulse	1	t		82.0	2.5	blank	1.0	370.11690735816956	
84	352.95278811454773	fix_post	2		12	82.0	2.5	blank	1.0	370.2405426502228	0.09998917579650879
85	353.05277729034424	fix_pre	0		120	83.0	2.5	/experiments/Knapen_AOT/AOT_stimuli/rescaled_final/0936_rv.mp4	0.0	370.3405318260193	1.008507251739502
85	354.06128454208374	movie	1		274	83.0	2.5	/experiments/Knapen_AOT/AOT_stimuli/rescaled_final/0936_rv.mp4	0.0	371.3490390777588	2.4920289516448975
85	354.4355466365814	pulse	1	t		83.0	2.5	/experiments/Knapen_AOT/AOT_stimuli/rescaled_final/0936_rv.mp4	0.0	371.72330117225647	
85	356.0289239883423	pulse	1	t		83.0	2.5	/experiments/Knapen_AOT/AOT_stimuli/rescaled_final/0936_rv.mp4	0.0	373.31667852401733	
85	356.55331349372864	fix_post	2		12	83.0	2.5	/experiments/Knapen_AOT/AOT_stimuli/rescaled_final/0936_rv.mp4	0.0	373.8410680294037	0.1250460147857666
87	356.6783595085144	stim	0		1712					373.96611404418945	14.268777847290039
87	357.62881422042847	pulse	0	t						374.9165687561035	
87	359.22893953323364	pulse	0	t						376.5166940689087	
87	360.8291656970978	pulse	0	t						378.1169202327728	
87	362.4294559955597	pulse	0	t						379.71721053123474	
87	364.0296664237976	pulse	0	t						381.31742095947266	
87	365.6299183368683	pulse	0	t						382.91767287254333	
87	367.2301092147827	pulse	0	t						384.51786375045776	
87	368.83034348487854	pulse	0	t						386.1180980205536	
87	370.43065786361694	pulse	0	t						387.718412399292	
