trial_nr	onset	event_type	phase	response	nr_frames	movie_index	movie_duration	movie_file	blank	onset_abs	duration
0	0.16648244857788086	stim	0		5					17.156888246536255	0.04158139228820801
0	0.1999211311340332	response	0	space						17.190326929092407	
1	0.20806384086608887	stim	0		4491					17.198469638824463	37.43954014778137
1	37.63808608055115	pulse	0	t						54.62849187850952	
1	37.64760398864746	stim	1		1715					54.638009786605835	14.301623582839966
1	39.23086476325989	pulse	1	t						56.22127056121826	
1	40.83104395866394	pulse	1	t						57.821449756622314	
1	42.4314079284668	pulse	1	t						59.42181372642517	
1	44.03152632713318	pulse	1	t						61.02193212509155	
1	45.631808042526245	pulse	1	t						62.62221384048462	
1	47.23198485374451	pulse	1	t						64.22239065170288	
1	48.8324031829834	pulse	1	t						65.82280898094177	
1	50.43255114555359	pulse	1	t						67.42295694351196	
2	51.94922757148743	fix_pre	0		11	0.0	2.5	/experiments/knapen_AOT/AOT_stimuli/rescaled_final/1699_fw.mp4	0.0	68.9396333694458	0.10838699340820312
2	52.032737493515015	pulse	0	t		0.0	2.5	/experiments/knapen_AOT/AOT_stimuli/rescaled_final/1699_fw.mp4	0.0	69.02314329147339	
2	52.05761456489563	movie	1		275	0.0	2.5	/experiments/knapen_AOT/AOT_stimuli/rescaled_final/1699_fw.mp4	0.0	69.048020362854	2.4919626712799072
2	53.63329529762268	pulse	1	t		0.0	2.5	/experiments/knapen_AOT/AOT_stimuli/rescaled_final/1699_fw.mp4	0.0	70.62370109558105	
2	54.54957723617554	fix_post	2		12	0.0	2.5	/experiments/knapen_AOT/AOT_stimuli/rescaled_final/1699_fw.mp4	0.0	71.53998303413391	0.10002279281616211
3	54.6496000289917	fix_pre	0		120	1.0	2.5	/experiments/knapen_AOT/AOT_stimuli/rescaled_final/0622_fw.mp4	0.0	71.64000582695007	1.0085108280181885
3	55.23320937156677	pulse	0	t		1.0	2.5	/experiments/knapen_AOT/AOT_stimuli/rescaled_final/0622_fw.mp4	0.0	72.22361516952515	
3	55.65811085700989	movie	1		266	1.0	2.5	/experiments/knapen_AOT/AOT_stimuli/rescaled_final/0622_fw.mp4	0.0	72.64851665496826	2.492039918899536
3	56.831383228302	pulse	1	t		1.0	2.5	/experiments/knapen_AOT/AOT_stimuli/rescaled_final/0622_fw.mp4	0.0	73.82178902626038	
3	58.150150775909424	fix_post	2		12	1.0	2.5	/experiments/knapen_AOT/AOT_stimuli/rescaled_final/0622_fw.mp4	0.0	75.1405565738678	0.09998655319213867
4	58.25013732910156	fix_pre	0		120	2.0	2.5	/experiments/knapen_AOT/AOT_stimuli/rescaled_final/0617_fw.mp4	0.0	75.24054312705994	1.0085840225219727
4	58.4336838722229	pulse	0	t		2.0	2.5	/experiments/knapen_AOT/AOT_stimuli/rescaled_final/0617_fw.mp4	0.0	75.42408967018127	
4	59.258721351623535	movie	1		265	2.0	2.5	/experiments/knapen_AOT/AOT_stimuli/rescaled_final/0617_fw.mp4	0.0	76.24912714958191	2.4919419288635254
4	60.032657861709595	pulse	1	t		2.0	2.5	/experiments/knapen_AOT/AOT_stimuli/rescaled_final/0617_fw.mp4	0.0	77.02306365966797	
4	61.63290858268738	pulse	1	t		2.0	2.5	/experiments/knapen_AOT/AOT_stimuli/rescaled_final/0617_fw.mp4	0.0	78.62331438064575	
4	61.75066328048706	fix_post	2		12	2.0	2.5	/experiments/knapen_AOT/AOT_stimuli/rescaled_final/0617_fw.mp4	0.0	78.74106907844543	0.10002541542053223
5	61.85068869590759	fix_pre	0		120	3.0	2.5	/experiments/knapen_AOT/AOT_stimuli/rescaled_final/0196_rv.mp4	0.0	78.84109449386597	1.008500099182129
5	62.85918879508972	movie	1		253	3.0	2.5	/experiments/knapen_AOT/AOT_stimuli/rescaled_final/0196_rv.mp4	0.0	79.8495945930481	2.5004007816314697
5	63.23319363594055	pulse	1	t		3.0	2.5	/experiments/knapen_AOT/AOT_stimuli/rescaled_final/0196_rv.mp4	0.0	80.22359943389893	
5	64.83228349685669	pulse	1	t		3.0	2.5	/experiments/knapen_AOT/AOT_stimuli/rescaled_final/0196_rv.mp4	0.0	81.82268929481506	
5	65.35958957672119	fix_post	2		11	3.0	2.5	/experiments/knapen_AOT/AOT_stimuli/rescaled_final/0196_rv.mp4	0.0	82.34999537467957	0.09163832664489746
6	65.45122790336609	fix_pre	0		119	4.0	2.5	/experiments/knapen_AOT/AOT_stimuli/rescaled_final/0827_rv.mp4	0.0	82.44163370132446	1.0001494884490967
6	66.43495154380798	pulse	0	t		4.0	2.5	/experiments/knapen_AOT/AOT_stimuli/rescaled_final/0827_rv.mp4	0.0	83.42535734176636	
6	66.45137739181519	movie	1		283	4.0	2.5	/experiments/knapen_AOT/AOT_stimuli/rescaled_final/0827_rv.mp4	0.0	83.44178318977356	2.5003671646118164
6	68.03348875045776	pulse	1	t		4.0	2.5	/experiments/knapen_AOT/AOT_stimuli/rescaled_final/0827_rv.mp4	0.0	85.02389454841614	
6	68.951744556427	fix_post	2		12	4.0	2.5	/experiments/knapen_AOT/AOT_stimuli/rescaled_final/0827_rv.mp4	0.0	85.94215035438538	0.10002517700195312
7	69.05176973342896	fix_pre	0		120	5.0	2.5	blank	1.0	86.04217553138733	1.0001440048217773
7	69.62788033485413	pulse	0	t		5.0	2.5	blank	1.0	86.6182861328125	
7	70.05191373825073	movie	1		300	5.0	2.5	blank	1.0	87.0423195362091	2.5003628730773926
7	71.22757744789124	pulse	1	t		5.0	2.5	blank	1.0	88.21798324584961	
7	72.55227661132812	fix_post	2		12	5.0	2.5	blank	1.0	89.5426824092865	0.10003232955932617
8	72.65230894088745	fix_pre	0		120	6.0	2.5	/experiments/knapen_AOT/AOT_stimuli/rescaled_final/1419_fw.mp4	0.0	89.64271473884583	1.008484125137329
8	72.82755994796753	pulse	0	t		6.0	2.5	/experiments/knapen_AOT/AOT_stimuli/rescaled_final/1419_fw.mp4	0.0	89.8179657459259	
8	73.66079306602478	movie	1		263	6.0	2.5	/experiments/knapen_AOT/AOT_stimuli/rescaled_final/1419_fw.mp4	0.0	90.65119886398315	2.492034912109375
8	74.42777943611145	pulse	1	t		6.0	2.5	/experiments/knapen_AOT/AOT_stimuli/rescaled_final/1419_fw.mp4	0.0	91.41818523406982	
8	76.02813744544983	pulse	1	t		6.0	2.5	/experiments/knapen_AOT/AOT_stimuli/rescaled_final/1419_fw.mp4	0.0	93.0185432434082	
8	76.15282797813416	fix_post	2		12	6.0	2.5	/experiments/knapen_AOT/AOT_stimuli/rescaled_final/1419_fw.mp4	0.0	93.14323377609253	0.1000528335571289
9	76.25288081169128	fix_pre	0		120	7.0	2.5	/experiments/knapen_AOT/AOT_stimuli/rescaled_final/1546_fw.mp4	0.0	93.24328660964966	1.0084762573242188
9	77.2613570690155	movie	1		276	7.0	2.5	/experiments/knapen_AOT/AOT_stimuli/rescaled_final/1546_fw.mp4	0.0	94.25176286697388	2.4920239448547363
9	77.62782835960388	pulse	1	t		7.0	2.5	/experiments/knapen_AOT/AOT_stimuli/rescaled_final/1546_fw.mp4	0.0	94.61823415756226	
9	79.22869110107422	pulse	1	t		7.0	2.5	/experiments/knapen_AOT/AOT_stimuli/rescaled_final/1546_fw.mp4	0.0	96.21909689903259	
9	79.75338101387024	fix_post	2		12	7.0	2.5	/experiments/knapen_AOT/AOT_stimuli/rescaled_final/1546_fw.mp4	0.0	96.74378681182861	0.10002923011779785
10	79.85341024398804	fix_pre	0		118	8.0	2.5	/experiments/knapen_AOT/AOT_stimuli/rescaled_final/1093_rv.mp4	0.0	96.84381604194641	0.9920201301574707
10	80.82875037193298	pulse	0	t		8.0	2.5	/experiments/knapen_AOT/AOT_stimuli/rescaled_final/1093_rv.mp4	0.0	97.81915616989136	
10	80.84543037414551	movie	1		275	8.0	2.5	/experiments/knapen_AOT/AOT_stimuli/rescaled_final/1093_rv.mp4	0.0	97.83583617210388	2.5001330375671387
10	82.42744588851929	pulse	1	t		8.0	2.5	/experiments/knapen_AOT/AOT_stimuli/rescaled_final/1093_rv.mp4	0.0	99.41785168647766	
10	83.34556341171265	fix_post	2		12	8.0	2.5	/experiments/knapen_AOT/AOT_stimuli/rescaled_final/1093_rv.mp4	0.0	100.33596920967102	0.10005807876586914
11	83.44562149047852	fix_pre	0		120	9.0	2.5	/experiments/knapen_AOT/AOT_stimuli/rescaled_final/0893_fw.mp4	0.0	100.43602728843689	1.0084874629974365
11	84.02924418449402	pulse	0	t		9.0	2.5	/experiments/knapen_AOT/AOT_stimuli/rescaled_final/0893_fw.mp4	0.0	101.01964998245239	
11	84.45410895347595	movie	1		267	9.0	2.5	/experiments/knapen_AOT/AOT_stimuli/rescaled_final/0893_fw.mp4	0.0	101.44451475143433	2.4919989109039307
11	85.62749862670898	pulse	1	t		9.0	2.5	/experiments/knapen_AOT/AOT_stimuli/rescaled_final/0893_fw.mp4	0.0	102.61790442466736	
11	86.94610786437988	fix_post	2		12	9.0	2.5	/experiments/knapen_AOT/AOT_stimuli/rescaled_final/0893_fw.mp4	0.0	103.93651366233826	0.10007643699645996
12	87.04618430137634	fix_pre	0		120	10.0	2.5	/experiments/knapen_AOT/AOT_stimuli/rescaled_final/0567_fw.mp4	0.0	104.03659009933472	1.0085079669952393
12	87.22972583770752	pulse	0	t		10.0	2.5	/experiments/knapen_AOT/AOT_stimuli/rescaled_final/0567_fw.mp4	0.0	104.2201316356659	
12	88.05469226837158	movie	1		273	10.0	2.5	/experiments/knapen_AOT/AOT_stimuli/rescaled_final/0567_fw.mp4	0.0	105.04509806632996	2.4920263290405273
12	88.82773804664612	pulse	1	t		10.0	2.5	/experiments/knapen_AOT/AOT_stimuli/rescaled_final/0567_fw.mp4	0.0	105.81814384460449	
12	90.42799663543701	pulse	1	t		10.0	2.5	/experiments/knapen_AOT/AOT_stimuli/rescaled_final/0567_fw.mp4	0.0	107.41840243339539	
12	90.54671859741211	fix_post	2		12	10.0	2.5	/experiments/knapen_AOT/AOT_stimuli/rescaled_final/0567_fw.mp4	0.0	107.53712439537048	0.09994220733642578
13	90.64666080474854	fix_pre	0		120	11.0	2.5	/experiments/knapen_AOT/AOT_stimuli/rescaled_final/1592_rv.mp4	0.0	107.63706660270691	1.0085773468017578
13	91.6552381515503	movie	1		271	11.0	2.5	/experiments/knapen_AOT/AOT_stimuli/rescaled_final/1592_rv.mp4	0.0	108.64564394950867	2.49196457862854
13	92.0285975933075	pulse	1	t		11.0	2.5	/experiments/knapen_AOT/AOT_stimuli/rescaled_final/1592_rv.mp4	0.0	109.01900339126587	
13	93.62953495979309	pulse	1	t		11.0	2.5	/experiments/knapen_AOT/AOT_stimuli/rescaled_final/1592_rv.mp4	0.0	110.61994075775146	
13	94.14720273017883	fix_post	2		12	11.0	2.5	/experiments/knapen_AOT/AOT_stimuli/rescaled_final/1592_rv.mp4	0.0	111.1376085281372	0.10005044937133789
14	94.24725317955017	fix_pre	0		119	12.0	2.5	/experiments/knapen_AOT/AOT_stimuli/rescaled_final/1725_rv.mp4	0.0	111.23765897750854	1.0001416206359863
14	95.23094773292542	pulse	0	t		12.0	2.5	/experiments/knapen_AOT/AOT_stimuli/rescaled_final/1725_rv.mp4	0.0	112.22135353088379	
14	95.24739480018616	movie	1		273	12.0	2.5	/experiments/knapen_AOT/AOT_stimuli/rescaled_final/1725_rv.mp4	0.0	112.23780059814453	2.500349521636963
14	96.83010768890381	pulse	1	t		12.0	2.5	/experiments/knapen_AOT/AOT_stimuli/rescaled_final/1725_rv.mp4	0.0	113.82051348686218	
14	97.74774432182312	fix_post	2		12	12.0	2.5	/experiments/knapen_AOT/AOT_stimuli/rescaled_final/1725_rv.mp4	0.0	114.7381501197815	0.10002255439758301
15	97.8477668762207	fix_pre	0		120	13.0	2.5	blank	1.0	114.83817267417908	1.000126838684082
15	98.43141198158264	pulse	0	t		13.0	2.5	blank	1.0	115.42181777954102	
15	98.84789371490479	movie	1		300	13.0	2.5	blank	1.0	115.83829951286316	2.5004384517669678
15	100.03170394897461	pulse	1	t		13.0	2.5	blank	1.0	117.02210974693298	
15	101.34833216667175	fix_post	2		12	13.0	2.5	blank	1.0	118.33873796463013	0.09996867179870605
16	101.44830083847046	fix_pre	0		120	14.0	2.5	/experiments/knapen_AOT/AOT_stimuli/rescaled_final/1774_rv.mp4	0.0	118.43870663642883	1.0084989070892334
16	101.63191437721252	pulse	0	t		14.0	2.5	/experiments/knapen_AOT/AOT_stimuli/rescaled_final/1774_rv.mp4	0.0	118.6223201751709	
16	102.45679974555969	movie	1		288	14.0	2.5	/experiments/knapen_AOT/AOT_stimuli/rescaled_final/1774_rv.mp4	0.0	119.44720554351807	2.492077350616455
16	103.23004388809204	pulse	1	t		14.0	2.5	/experiments/knapen_AOT/AOT_stimuli/rescaled_final/1774_rv.mp4	0.0	120.22044968605042	
16	104.83051443099976	pulse	1	t		14.0	2.5	/experiments/knapen_AOT/AOT_stimuli/rescaled_final/1774_rv.mp4	0.0	121.82092022895813	
16	104.94887709617615	fix_post	2		12	14.0	2.5	/experiments/knapen_AOT/AOT_stimuli/rescaled_final/1774_rv.mp4	0.0	121.93928289413452	0.0999600887298584
17	105.048837184906	fix_pre	0		120	15.0	2.5	/experiments/knapen_AOT/AOT_stimuli/rescaled_final/0613_fw.mp4	0.0	122.03924298286438	1.0085339546203613
17	106.05737113952637	movie	1		266	15.0	2.5	/experiments/knapen_AOT/AOT_stimuli/rescaled_final/0613_fw.mp4	0.0	123.04777693748474	2.4920809268951416
17	106.43073534965515	pulse	1	t		15.0	2.5	/experiments/knapen_AOT/AOT_stimuli/rescaled_final/0613_fw.mp4	0.0	123.42114114761353	
17	108.03141760826111	pulse	1	t		15.0	2.5	/experiments/knapen_AOT/AOT_stimuli/rescaled_final/0613_fw.mp4	0.0	125.02182340621948	
17	108.54945206642151	fix_post	2		12	15.0	2.5	/experiments/knapen_AOT/AOT_stimuli/rescaled_final/0613_fw.mp4	0.0	125.53985786437988	0.09997153282165527
18	108.64942359924316	fix_pre	0		119	16.0	2.5	/experiments/knapen_AOT/AOT_stimuli/rescaled_final/0972_rv.mp4	0.0	125.63982939720154	1.0002005100250244
18	109.63313269615173	pulse	0	t		16.0	2.5	/experiments/knapen_AOT/AOT_stimuli/rescaled_final/0972_rv.mp4	0.0	126.62353849411011	
18	109.64962410926819	movie	1		257	16.0	2.5	/experiments/knapen_AOT/AOT_stimuli/rescaled_final/0972_rv.mp4	0.0	126.64002990722656	2.50028395652771
18	111.23158073425293	pulse	1	t		16.0	2.5	/experiments/knapen_AOT/AOT_stimuli/rescaled_final/0972_rv.mp4	0.0	128.2219865322113	
18	112.1499080657959	fix_post	2		12	16.0	2.5	/experiments/knapen_AOT/AOT_stimuli/rescaled_final/0972_rv.mp4	0.0	129.14031386375427	0.10000848770141602
19	112.24991655349731	fix_pre	0		120	17.0	2.5	/experiments/knapen_AOT/AOT_stimuli/rescaled_final/1926_fw.mp4	0.0	129.2403223514557	1.008521318435669
19	112.83363509178162	pulse	0	t		17.0	2.5	/experiments/knapen_AOT/AOT_stimuli/rescaled_final/1926_fw.mp4	0.0	129.82404088974	
19	113.25843787193298	movie	1		273	17.0	2.5	/experiments/knapen_AOT/AOT_stimuli/rescaled_final/1926_fw.mp4	0.0	130.24884366989136	2.492086887359619
19	114.43222880363464	pulse	1	t		17.0	2.5	/experiments/knapen_AOT/AOT_stimuli/rescaled_final/1926_fw.mp4	0.0	131.42263460159302	
19	115.7505247592926	fix_post	2		12	17.0	2.5	/experiments/knapen_AOT/AOT_stimuli/rescaled_final/1926_fw.mp4	0.0	132.74093055725098	0.09993481636047363
20	115.85045957565308	fix_pre	0		120	18.0	2.5	/experiments/knapen_AOT/AOT_stimuli/rescaled_final/1506_rv.mp4	0.0	132.84086537361145	1.008507490158081
20	116.03417372703552	pulse	0	t		18.0	2.5	/experiments/knapen_AOT/AOT_stimuli/rescaled_final/1506_rv.mp4	0.0	133.0245795249939	
20	116.85896706581116	movie	1		283	18.0	2.5	/experiments/knapen_AOT/AOT_stimuli/rescaled_final/1506_rv.mp4	0.0	133.84937286376953	2.4920196533203125
20	117.6323971748352	pulse	1	t		18.0	2.5	/experiments/knapen_AOT/AOT_stimuli/rescaled_final/1506_rv.mp4	0.0	134.62280297279358	
20	119.23239874839783	pulse	1	t		18.0	2.5	/experiments/knapen_AOT/AOT_stimuli/rescaled_final/1506_rv.mp4	0.0	136.2228045463562	
20	119.35098671913147	fix_post	2		12	18.0	2.5	/experiments/knapen_AOT/AOT_stimuli/rescaled_final/1506_rv.mp4	0.0	136.34139251708984	0.1000216007232666
21	119.45100831985474	fix_pre	0		120	19.0	2.5	blank	1.0	136.4414141178131	1.0001862049102783
21	120.45119452476501	movie	1		300	19.0	2.5	blank	1.0	137.4416003227234	2.50039005279541
21	120.8347373008728	pulse	1	t		19.0	2.5	blank	1.0	137.82514309883118	
21	122.43524050712585	pulse	1	t		19.0	2.5	blank	1.0	139.42564630508423	
21	122.95158457756042	fix_post	2		12	19.0	2.5	blank	1.0	139.9419903755188	0.0999913215637207
22	123.05157589912415	fix_pre	0		119	20.0	2.5	/experiments/knapen_AOT/AOT_stimuli/rescaled_final/0836_fw.mp4	0.0	140.04198169708252	1.0000925064086914
22	124.03524494171143	pulse	0	t		20.0	2.5	/experiments/knapen_AOT/AOT_stimuli/rescaled_final/0836_fw.mp4	0.0	141.0256507396698	
22	124.05166840553284	movie	1		280	20.0	2.5	/experiments/knapen_AOT/AOT_stimuli/rescaled_final/0836_fw.mp4	0.0	141.0420742034912	2.5003936290740967
22	125.63422799110413	pulse	1	t		20.0	2.5	/experiments/knapen_AOT/AOT_stimuli/rescaled_final/0836_fw.mp4	0.0	142.6246337890625	
22	126.55206203460693	fix_post	2		12	20.0	2.5	/experiments/knapen_AOT/AOT_stimuli/rescaled_final/0836_fw.mp4	0.0	143.5424678325653	0.10003018379211426
23	126.65209221839905	fix_pre	0		120	21.0	2.5	/experiments/knapen_AOT/AOT_stimuli/rescaled_final/0985_rv.mp4	0.0	143.64249801635742	1.008495807647705
23	127.23595023155212	pulse	0	t		21.0	2.5	/experiments/knapen_AOT/AOT_stimuli/rescaled_final/0985_rv.mp4	0.0	144.2263560295105	
23	127.66058802604675	movie	1		276	21.0	2.5	/experiments/knapen_AOT/AOT_stimuli/rescaled_final/0985_rv.mp4	0.0	144.65099382400513	2.4920356273651123
23	128.8280336856842	pulse	1	t		21.0	2.5	/experiments/knapen_AOT/AOT_stimuli/rescaled_final/0985_rv.mp4	0.0	145.81843948364258	
23	130.15262365341187	fix_post	2		12	21.0	2.5	/experiments/knapen_AOT/AOT_stimuli/rescaled_final/0985_rv.mp4	0.0	147.14302945137024	0.10000348091125488
24	130.25262713432312	fix_pre	0		120	22.0	2.5	/experiments/knapen_AOT/AOT_stimuli/rescaled_final/0078_fw.mp4	0.0	147.2430329322815	1.0085117816925049
24	130.42804408073425	pulse	0	t		22.0	2.5	/experiments/knapen_AOT/AOT_stimuli/rescaled_final/0078_fw.mp4	0.0	147.41844987869263	
24	131.26113891601562	movie	1		279	22.0	2.5	/experiments/knapen_AOT/AOT_stimuli/rescaled_final/0078_fw.mp4	0.0	148.251544713974	2.4920241832733154
24	132.02810907363892	pulse	1	t		22.0	2.5	/experiments/knapen_AOT/AOT_stimuli/rescaled_final/0078_fw.mp4	0.0	149.0185148715973	
24	133.62831258773804	pulse	1	t		22.0	2.5	/experiments/knapen_AOT/AOT_stimuli/rescaled_final/0078_fw.mp4	0.0	150.6187183856964	
24	133.75316309928894	fix_post	2		12	22.0	2.5	/experiments/knapen_AOT/AOT_stimuli/rescaled_final/0078_fw.mp4	0.0	150.74356889724731	0.10003328323364258
25	133.85319638252258	fix_pre	0		120	23.0	2.5	/experiments/knapen_AOT/AOT_stimuli/rescaled_final/0095_fw.mp4	0.0	150.84360218048096	1.00846529006958
25	134.86166167259216	movie	1		275	23.0	2.5	/experiments/knapen_AOT/AOT_stimuli/rescaled_final/0095_fw.mp4	0.0	151.85206747055054	2.492021322250366
25	135.2286252975464	pulse	1	t		23.0	2.5	/experiments/knapen_AOT/AOT_stimuli/rescaled_final/0095_fw.mp4	0.0	152.21903109550476	
25	136.82813143730164	pulse	1	t		23.0	2.5	/experiments/knapen_AOT/AOT_stimuli/rescaled_final/0095_fw.mp4	0.0	153.81853723526	
25	137.35368299484253	fix_post	2		12	23.0	2.5	/experiments/knapen_AOT/AOT_stimuli/rescaled_final/0095_fw.mp4	0.0	154.3440887928009	0.10011506080627441
26	137.4537980556488	fix_pre	0		118	24.0	2.5	/experiments/knapen_AOT/AOT_stimuli/rescaled_final/1077_rv.mp4	0.0	154.44420385360718	0.9917664527893066
26	138.42905807495117	pulse	0	t		24.0	2.5	/experiments/knapen_AOT/AOT_stimuli/rescaled_final/1077_rv.mp4	0.0	155.41946387290955	
26	138.4455645084381	movie	1		276	24.0	2.5	/experiments/knapen_AOT/AOT_stimuli/rescaled_final/1077_rv.mp4	0.0	155.43597030639648	2.5003576278686523
26	140.02953338623047	pulse	1	t		24.0	2.5	/experiments/knapen_AOT/AOT_stimuli/rescaled_final/1077_rv.mp4	0.0	157.01993918418884	
26	140.94592213630676	fix_post	2		12	24.0	2.5	/experiments/knapen_AOT/AOT_stimuli/rescaled_final/1077_rv.mp4	0.0	157.93632793426514	0.10021233558654785
27	141.0461344718933	fix_pre	0		120	25.0	2.5	/experiments/knapen_AOT/AOT_stimuli/rescaled_final/1497_fw.mp4	0.0	158.03654026985168	1.0083143711090088
27	141.62956547737122	pulse	0	t		25.0	2.5	/experiments/knapen_AOT/AOT_stimuli/rescaled_final/1497_fw.mp4	0.0	158.6199712753296	
27	142.05444884300232	movie	1		271	25.0	2.5	/experiments/knapen_AOT/AOT_stimuli/rescaled_final/1497_fw.mp4	0.0	159.0448546409607	2.491997718811035
27	143.22990465164185	pulse	1	t		25.0	2.5	/experiments/knapen_AOT/AOT_stimuli/rescaled_final/1497_fw.mp4	0.0	160.22031044960022	
27	144.54644656181335	fix_post	2		12	25.0	2.5	/experiments/knapen_AOT/AOT_stimuli/rescaled_final/1497_fw.mp4	0.0	161.53685235977173	0.10008072853088379
28	144.64652729034424	fix_pre	0		120	26.0	2.5	blank	1.0	161.6369330883026	1.0000782012939453
28	144.83006739616394	pulse	0	t		26.0	2.5	blank	1.0	161.82047319412231	
28	145.64660549163818	movie	1		300	26.0	2.5	blank	1.0	162.63701128959656	2.5003907680511475
28	146.43024826049805	pulse	1	t		26.0	2.5	blank	1.0	163.42065405845642	
28	148.0305392742157	pulse	1	t		26.0	2.5	blank	1.0	165.02094507217407	
28	148.14699625968933	fix_post	2		12	26.0	2.5	blank	1.0	165.1374020576477	0.09999704360961914
29	148.24699330329895	fix_pre	0		120	27.0	2.5	/experiments/knapen_AOT/AOT_stimuli/rescaled_final/1404_rv.mp4	0.0	165.23739910125732	1.008497953414917
29	149.25549125671387	movie	1		264	27.0	2.5	/experiments/knapen_AOT/AOT_stimuli/rescaled_final/1404_rv.mp4	0.0	166.24589705467224	2.492021322250366
29	149.62912321090698	pulse	1	t		27.0	2.5	/experiments/knapen_AOT/AOT_stimuli/rescaled_final/1404_rv.mp4	0.0	166.61952900886536	
29	151.22883987426758	pulse	1	t		27.0	2.5	/experiments/knapen_AOT/AOT_stimuli/rescaled_final/1404_rv.mp4	0.0	168.21924567222595	
29	151.74751257896423	fix_post	2		12	27.0	2.5	/experiments/knapen_AOT/AOT_stimuli/rescaled_final/1404_rv.mp4	0.0	168.7379183769226	0.10004186630249023
30	151.84755444526672	fix_pre	0		119	28.0	2.5	/experiments/knapen_AOT/AOT_stimuli/rescaled_final/1093_fw.mp4	0.0	168.8379602432251	1.0001378059387207
30	152.8312532901764	pulse	0	t		28.0	2.5	/experiments/knapen_AOT/AOT_stimuli/rescaled_final/1093_fw.mp4	0.0	169.82165908813477	
30	152.84769225120544	movie	1		272	28.0	2.5	/experiments/knapen_AOT/AOT_stimuli/rescaled_final/1093_fw.mp4	0.0	169.83809804916382	2.500364303588867
30	154.4310863018036	pulse	1	t		28.0	2.5	/experiments/knapen_AOT/AOT_stimuli/rescaled_final/1093_fw.mp4	0.0	171.42149209976196	
30	155.3480565547943	fix_post	2		12	28.0	2.5	/experiments/knapen_AOT/AOT_stimuli/rescaled_final/1093_fw.mp4	0.0	172.33846235275269	0.10002374649047852
31	155.4480803012848	fix_pre	0		120	29.0	2.5	/experiments/knapen_AOT/AOT_stimuli/rescaled_final/0799_fw.mp4	0.0	172.43848609924316	1.0085158348083496
31	156.03167057037354	pulse	0	t		29.0	2.5	/experiments/knapen_AOT/AOT_stimuli/rescaled_final/0799_fw.mp4	0.0	173.0220763683319	
31	156.45659613609314	movie	1		283	29.0	2.5	/experiments/knapen_AOT/AOT_stimuli/rescaled_final/0799_fw.mp4	0.0	173.4470019340515	2.4920217990875244
31	157.63011932373047	pulse	1	t		29.0	2.5	/experiments/knapen_AOT/AOT_stimuli/rescaled_final/0799_fw.mp4	0.0	174.62052512168884	
31	158.94861793518066	fix_post	2		12	29.0	2.5	/experiments/knapen_AOT/AOT_stimuli/rescaled_final/0799_fw.mp4	0.0	175.93902373313904	0.10002923011779785
32	159.04864716529846	fix_pre	0		120	30.0	2.5	/experiments/knapen_AOT/AOT_stimuli/rescaled_final/1433_fw.mp4	0.0	176.03905296325684	1.0084693431854248
32	159.23217368125916	pulse	0	t		30.0	2.5	/experiments/knapen_AOT/AOT_stimuli/rescaled_final/1433_fw.mp4	0.0	176.22257947921753	
32	160.0571165084839	movie	1		284	30.0	2.5	/experiments/knapen_AOT/AOT_stimuli/rescaled_final/1433_fw.mp4	0.0	177.04752230644226	2.492058515548706
32	160.83024787902832	pulse	1	t		30.0	2.5	/experiments/knapen_AOT/AOT_stimuli/rescaled_final/1433_fw.mp4	0.0	177.8206536769867	
32	162.4307382106781	pulse	1	t		30.0	2.5	/experiments/knapen_AOT/AOT_stimuli/rescaled_final/1433_fw.mp4	0.0	179.42114400863647	
32	162.5491750240326	fix_post	2		12	30.0	2.5	/experiments/knapen_AOT/AOT_stimuli/rescaled_final/1433_fw.mp4	0.0	179.53958082199097	0.0999596118927002
33	162.6491346359253	fix_pre	0		120	31.0	2.5	/experiments/knapen_AOT/AOT_stimuli/rescaled_final/1846_fw.mp4	0.0	179.63954043388367	1.0085289478302002
33	163.6576635837555	movie	1		273	31.0	2.5	/experiments/knapen_AOT/AOT_stimuli/rescaled_final/1846_fw.mp4	0.0	180.64806938171387	2.49204683303833
33	164.03105425834656	pulse	1	t		31.0	2.5	/experiments/knapen_AOT/AOT_stimuli/rescaled_final/1846_fw.mp4	0.0	181.02146005630493	
33	165.63138508796692	pulse	1	t		31.0	2.5	/experiments/knapen_AOT/AOT_stimuli/rescaled_final/1846_fw.mp4	0.0	182.6217908859253	
33	166.14971041679382	fix_post	2		12	31.0	2.5	/experiments/knapen_AOT/AOT_stimuli/rescaled_final/1846_fw.mp4	0.0	183.1401162147522	0.09998178482055664
34	166.24969220161438	fix_pre	0		119	32.0	2.5	/experiments/knapen_AOT/AOT_stimuli/rescaled_final/1876_rv.mp4	0.0	183.24009799957275	1.0001544952392578
34	167.23340487480164	pulse	0	t		32.0	2.5	/experiments/knapen_AOT/AOT_stimuli/rescaled_final/1876_rv.mp4	0.0	184.22381067276	
34	167.24984669685364	movie	1		265	32.0	2.5	/experiments/knapen_AOT/AOT_stimuli/rescaled_final/1876_rv.mp4	0.0	184.240252494812	2.500413179397583
34	168.832017660141	pulse	1	t		32.0	2.5	/experiments/knapen_AOT/AOT_stimuli/rescaled_final/1876_rv.mp4	0.0	185.82242345809937	
34	169.75025987625122	fix_post	2		12	32.0	2.5	/experiments/knapen_AOT/AOT_stimuli/rescaled_final/1876_rv.mp4	0.0	186.7406656742096	0.09997367858886719
35	169.8502335548401	fix_pre	0		120	33.0	2.5	/experiments/knapen_AOT/AOT_stimuli/rescaled_final/0895_fw.mp4	0.0	186.84063935279846	1.0085461139678955
35	170.43385696411133	pulse	0	t		33.0	2.5	/experiments/knapen_AOT/AOT_stimuli/rescaled_final/0895_fw.mp4	0.0	187.4242627620697	
35	170.85877966880798	movie	1		282	33.0	2.5	/experiments/knapen_AOT/AOT_stimuli/rescaled_final/0895_fw.mp4	0.0	187.84918546676636	2.491973400115967
35	172.03199696540833	pulse	1	t		33.0	2.5	/experiments/knapen_AOT/AOT_stimuli/rescaled_final/0895_fw.mp4	0.0	189.0224027633667	
35	173.35075306892395	fix_post	2		12	33.0	2.5	/experiments/knapen_AOT/AOT_stimuli/rescaled_final/0895_fw.mp4	0.0	190.34115886688232	0.10007834434509277
36	173.45083141326904	fix_pre	0		120	34.0	2.5	/experiments/knapen_AOT/AOT_stimuli/rescaled_final/1562_rv.mp4	0.0	190.44123721122742	1.0084455013275146
36	173.63434505462646	pulse	0	t		34.0	2.5	/experiments/knapen_AOT/AOT_stimuli/rescaled_final/1562_rv.mp4	0.0	190.62475085258484	
36	174.45927691459656	movie	1		261	34.0	2.5	/experiments/knapen_AOT/AOT_stimuli/rescaled_final/1562_rv.mp4	0.0	191.44968271255493	2.4920265674591064
36	175.23280906677246	pulse	1	t		34.0	2.5	/experiments/knapen_AOT/AOT_stimuli/rescaled_final/1562_rv.mp4	0.0	192.22321486473083	
36	176.83272671699524	pulse	1	t		34.0	2.5	/experiments/knapen_AOT/AOT_stimuli/rescaled_final/1562_rv.mp4	0.0	193.8231325149536	
36	176.95130348205566	fix_post	2		12	34.0	2.5	/experiments/knapen_AOT/AOT_stimuli/rescaled_final/1562_rv.mp4	0.0	193.94170928001404	0.10003423690795898
37	177.05133771896362	fix_pre	0		120	35.0	2.5	blank	1.0	194.041743516922	1.0001296997070312
37	178.05146741867065	movie	1		300	35.0	2.5	blank	1.0	195.04187321662903	2.500371217727661
37	178.43526005744934	pulse	1	t		35.0	2.5	blank	1.0	195.42566585540771	
37	180.03543949127197	pulse	1	t		35.0	2.5	blank	1.0	197.02584528923035	
37	180.55183863639832	fix_post	2		12	35.0	2.5	blank	1.0	197.5422444343567	0.10002470016479492
38	180.6518633365631	fix_pre	0		119	36.0	2.5	/experiments/knapen_AOT/AOT_stimuli/rescaled_final/0332_rv.mp4	0.0	197.64226913452148	1.0001616477966309
38	181.63565015792847	pulse	0	t		36.0	2.5	/experiments/knapen_AOT/AOT_stimuli/rescaled_final/0332_rv.mp4	0.0	198.62605595588684	
38	181.65202498435974	movie	1		269	36.0	2.5	/experiments/knapen_AOT/AOT_stimuli/rescaled_final/0332_rv.mp4	0.0	198.64243078231812	2.500384569168091
38	183.235586643219	pulse	1	t		36.0	2.5	/experiments/knapen_AOT/AOT_stimuli/rescaled_final/0332_rv.mp4	0.0	200.22599244117737	
38	184.15240955352783	fix_post	2		12	36.0	2.5	/experiments/knapen_AOT/AOT_stimuli/rescaled_final/0332_rv.mp4	0.0	201.1428153514862	0.1000058650970459
39	184.25241541862488	fix_pre	0		120	37.0	2.5	/experiments/knapen_AOT/AOT_stimuli/rescaled_final/0555_rv.mp4	0.0	201.24282121658325	1.0084798336029053
39	184.83602499961853	pulse	0	t		37.0	2.5	/experiments/knapen_AOT/AOT_stimuli/rescaled_final/0555_rv.mp4	0.0	201.8264307975769	
39	185.26089525222778	movie	1		280	37.0	2.5	/experiments/knapen_AOT/AOT_stimuli/rescaled_final/0555_rv.mp4	0.0	202.25130105018616	2.492034912109375
39	186.43422865867615	pulse	1	t		37.0	2.5	/experiments/knapen_AOT/AOT_stimuli/rescaled_final/0555_rv.mp4	0.0	203.42463445663452	
39	187.75293016433716	fix_post	2		12	37.0	2.5	/experiments/knapen_AOT/AOT_stimuli/rescaled_final/0555_rv.mp4	0.0	204.74333596229553	0.1000065803527832
40	187.85293674468994	fix_pre	0		120	38.0	2.5	/experiments/knapen_AOT/AOT_stimuli/rescaled_final/0798_fw.mp4	0.0	204.84334254264832	1.0085344314575195
40	188.028466463089	pulse	0	t		38.0	2.5	/experiments/knapen_AOT/AOT_stimuli/rescaled_final/0798_fw.mp4	0.0	205.01887226104736	
40	188.86147117614746	movie	1		274	38.0	2.5	/experiments/knapen_AOT/AOT_stimuli/rescaled_final/0798_fw.mp4	0.0	205.85187697410583	2.491990804672241
40	189.62875413894653	pulse	1	t		38.0	2.5	/experiments/knapen_AOT/AOT_stimuli/rescaled_final/0798_fw.mp4	0.0	206.6191599369049	
40	191.2294270992279	pulse	1	t		38.0	2.5	/experiments/knapen_AOT/AOT_stimuli/rescaled_final/0798_fw.mp4	0.0	208.21983289718628	
40	191.3534619808197	fix_post	2		12	38.0	2.5	/experiments/knapen_AOT/AOT_stimuli/rescaled_final/0798_fw.mp4	0.0	208.34386777877808	0.10003519058227539
41	191.45349717140198	fix_pre	0		120	39.0	2.5	/experiments/knapen_AOT/AOT_stimuli/rescaled_final/1077_fw.mp4	0.0	208.44390296936035	1.0085010528564453
41	192.46199822425842	movie	1		259	39.0	2.5	/experiments/knapen_AOT/AOT_stimuli/rescaled_final/1077_fw.mp4	0.0	209.4524040222168	2.4920482635498047
41	192.8280291557312	pulse	1	t		39.0	2.5	/experiments/knapen_AOT/AOT_stimuli/rescaled_final/1077_fw.mp4	0.0	209.81843495368958	
41	194.42923259735107	pulse	1	t		39.0	2.5	/experiments/knapen_AOT/AOT_stimuli/rescaled_final/1077_fw.mp4	0.0	211.41963839530945	
41	194.95404648780823	fix_post	2		12	39.0	2.5	/experiments/knapen_AOT/AOT_stimuli/rescaled_final/1077_fw.mp4	0.0	211.9444522857666	0.10004520416259766
42	195.05409169197083	fix_pre	0		118	40.0	2.5	/experiments/knapen_AOT/AOT_stimuli/rescaled_final/0555_rv.mp4	0.0	212.0444974899292	0.9917480945587158
42	196.0293412208557	pulse	0	t		40.0	2.5	/experiments/knapen_AOT/AOT_stimuli/rescaled_final/0555_rv.mp4	0.0	213.0197470188141	
42	196.04583978652954	movie	1		277	40.0	2.5	/experiments/knapen_AOT/AOT_stimuli/rescaled_final/0555_rv.mp4	0.0	213.03624558448792	2.500384569168091
42	197.6281669139862	pulse	1	t		40.0	2.5	/experiments/knapen_AOT/AOT_stimuli/rescaled_final/0555_rv.mp4	0.0	214.61857271194458	
42	198.54622435569763	fix_post	2		12	40.0	2.5	/experiments/knapen_AOT/AOT_stimuli/rescaled_final/0555_rv.mp4	0.0	215.536630153656	0.10003852844238281
43	198.64626288414001	fix_pre	0		120	41.0	2.5	/experiments/knapen_AOT/AOT_stimuli/rescaled_final/0694_fw.mp4	0.0	215.6366686820984	1.0084645748138428
43	199.22982907295227	pulse	0	t		41.0	2.5	/experiments/knapen_AOT/AOT_stimuli/rescaled_final/0694_fw.mp4	0.0	216.22023487091064	
43	199.65472745895386	movie	1		275	41.0	2.5	/experiments/knapen_AOT/AOT_stimuli/rescaled_final/0694_fw.mp4	0.0	216.64513325691223	2.5003573894500732
43	200.82796835899353	pulse	1	t		41.0	2.5	/experiments/knapen_AOT/AOT_stimuli/rescaled_final/0694_fw.mp4	0.0	217.8183741569519	
43	202.15508484840393	fix_post	2		11	41.0	2.5	/experiments/knapen_AOT/AOT_stimuli/rescaled_final/0694_fw.mp4	0.0	219.1454906463623	0.09169745445251465
44	202.24678230285645	fix_pre	0		120	42.0	2.5	blank	1.0	219.23718810081482	1.0001873970031738
44	202.4303412437439	pulse	0	t		42.0	2.5	blank	1.0	219.42074704170227	
44	203.24696969985962	movie	1		300	42.0	2.5	blank	1.0	220.237375497818	2.5003511905670166
44	204.0307674407959	pulse	1	t		42.0	2.5	blank	1.0	221.02117323875427	
44	205.63105177879333	pulse	1	t		42.0	2.5	blank	1.0	222.6214575767517	
44	205.74732089042664	fix_post	2		12	42.0	2.5	blank	1.0	222.737726688385	0.10000729560852051
45	205.84732818603516	fix_pre	0		120	43.0	2.5	/experiments/knapen_AOT/AOT_stimuli/rescaled_final/0643_rv.mp4	0.0	222.83773398399353	1.008500576019287
45	206.85582876205444	movie	1		276	43.0	2.5	/experiments/knapen_AOT/AOT_stimuli/rescaled_final/0643_rv.mp4	0.0	223.84623456001282	2.4920334815979004
45	207.22993659973145	pulse	1	t		43.0	2.5	/experiments/knapen_AOT/AOT_stimuli/rescaled_final/0643_rv.mp4	0.0	224.22034239768982	
45	208.8294758796692	pulse	1	t		43.0	2.5	/experiments/knapen_AOT/AOT_stimuli/rescaled_final/0643_rv.mp4	0.0	225.81988167762756	
45	209.34786224365234	fix_post	2		12	43.0	2.5	/experiments/knapen_AOT/AOT_stimuli/rescaled_final/0643_rv.mp4	0.0	226.33826804161072	0.10000014305114746
46	209.4478623867035	fix_pre	0		119	44.0	2.5	/experiments/knapen_AOT/AOT_stimuli/rescaled_final/0852_fw.mp4	0.0	226.43826818466187	1.0001530647277832
46	210.43156147003174	pulse	0	t		44.0	2.5	/experiments/knapen_AOT/AOT_stimuli/rescaled_final/0852_fw.mp4	0.0	227.4219672679901	
46	210.44801545143127	movie	1		269	44.0	2.5	/experiments/knapen_AOT/AOT_stimuli/rescaled_final/0852_fw.mp4	0.0	227.43842124938965	2.5004022121429443
46	212.0301194190979	pulse	1	t		44.0	2.5	/experiments/knapen_AOT/AOT_stimuli/rescaled_final/0852_fw.mp4	0.0	229.02052521705627	
46	212.94841766357422	fix_post	2		12	44.0	2.5	/experiments/knapen_AOT/AOT_stimuli/rescaled_final/0852_fw.mp4	0.0	229.9388234615326	0.10004568099975586
47	213.04846334457397	fix_pre	0		120	45.0	2.5	/experiments/knapen_AOT/AOT_stimuli/rescaled_final/0972_rv.mp4	0.0	230.03886914253235	1.0084316730499268
47	213.63211059570312	pulse	0	t		45.0	2.5	/experiments/knapen_AOT/AOT_stimuli/rescaled_final/0972_rv.mp4	0.0	230.6225163936615	
47	214.0568950176239	movie	1		283	45.0	2.5	/experiments/knapen_AOT/AOT_stimuli/rescaled_final/0972_rv.mp4	0.0	231.04730081558228	2.492034435272217
47	215.23069977760315	pulse	1	t		45.0	2.5	/experiments/knapen_AOT/AOT_stimuli/rescaled_final/0972_rv.mp4	0.0	232.22110557556152	
47	216.54892945289612	fix_post	2		12	45.0	2.5	/experiments/knapen_AOT/AOT_stimuli/rescaled_final/0972_rv.mp4	0.0	233.5393352508545	0.10000824928283691
48	216.64893770217896	fix_pre	0		120	46.0	2.5	/experiments/knapen_AOT/AOT_stimuli/rescaled_final/0573_fw.mp4	0.0	233.63934350013733	1.0085182189941406
48	216.83249068260193	pulse	0	t		46.0	2.5	/experiments/knapen_AOT/AOT_stimuli/rescaled_final/0573_fw.mp4	0.0	233.8228964805603	
48	217.6574559211731	movie	1		277	46.0	2.5	/experiments/knapen_AOT/AOT_stimuli/rescaled_final/0573_fw.mp4	0.0	234.64786171913147	2.492016553878784
48	218.43075132369995	pulse	1	t		46.0	2.5	/experiments/knapen_AOT/AOT_stimuli/rescaled_final/0573_fw.mp4	0.0	235.42115712165833	
48	220.03100895881653	pulse	1	t		46.0	2.5	/experiments/knapen_AOT/AOT_stimuli/rescaled_final/0573_fw.mp4	0.0	237.0214147567749	
48	220.14947247505188	fix_post	2		12	46.0	2.5	/experiments/knapen_AOT/AOT_stimuli/rescaled_final/0573_fw.mp4	0.0	237.13987827301025	0.10001420974731445
49	220.2494866847992	fix_pre	0		120	47.0	2.5	/experiments/knapen_AOT/AOT_stimuli/rescaled_final/1725_rv.mp4	0.0	237.23989248275757	1.0084855556488037
49	221.257972240448	movie	1		261	47.0	2.5	/experiments/knapen_AOT/AOT_stimuli/rescaled_final/1725_rv.mp4	0.0	238.24837803840637	2.500373601913452
49	221.631098985672	pulse	1	t		47.0	2.5	/experiments/knapen_AOT/AOT_stimuli/rescaled_final/1725_rv.mp4	0.0	238.62150478363037	
49	223.23113894462585	pulse	1	t		47.0	2.5	/experiments/knapen_AOT/AOT_stimuli/rescaled_final/1725_rv.mp4	0.0	240.22154474258423	
49	223.75834584236145	fix_post	2		11	47.0	2.5	/experiments/knapen_AOT/AOT_stimuli/rescaled_final/1725_rv.mp4	0.0	240.74875164031982	0.09180116653442383
50	223.85014700889587	fix_pre	0		119	48.0	2.5	/experiments/knapen_AOT/AOT_stimuli/rescaled_final/0196_fw.mp4	0.0	240.84055280685425	1.0001413822174072
50	224.8337881565094	pulse	0	t		48.0	2.5	/experiments/knapen_AOT/AOT_stimuli/rescaled_final/0196_fw.mp4	0.0	241.82419395446777	
50	224.85028839111328	movie	1		280	48.0	2.5	/experiments/knapen_AOT/AOT_stimuli/rescaled_final/0196_fw.mp4	0.0	241.84069418907166	2.5002923011779785
50	226.43253922462463	pulse	1	t		48.0	2.5	/experiments/knapen_AOT/AOT_stimuli/rescaled_final/0196_fw.mp4	0.0	243.422945022583	
50	227.35058069229126	fix_post	2		12	48.0	2.5	/experiments/knapen_AOT/AOT_stimuli/rescaled_final/0196_fw.mp4	0.0	244.34098649024963	0.09999251365661621
51	227.45057320594788	fix_pre	0		120	49.0	2.5	blank	1.0	244.44097900390625	1.0001518726348877
51	228.0342402458191	pulse	0	t		49.0	2.5	blank	1.0	245.02464604377747	
51	228.45072507858276	movie	1		300	49.0	2.5	blank	1.0	245.44113087654114	2.5003464221954346
51	229.63448023796082	pulse	1	t		49.0	2.5	blank	1.0	246.6248860359192	
51	230.9510715007782	fix_post	2		12	49.0	2.5	blank	1.0	247.94147729873657	0.10003089904785156
52	231.05110239982605	fix_pre	0		120	50.0	2.5	/experiments/knapen_AOT/AOT_stimuli/rescaled_final/2002_fw.mp4	0.0	248.04150819778442	1.0084559917449951
52	231.23474597930908	pulse	0	t		50.0	2.5	/experiments/knapen_AOT/AOT_stimuli/rescaled_final/2002_fw.mp4	0.0	248.22515177726746	
52	232.05955839157104	movie	1		285	50.0	2.5	/experiments/knapen_AOT/AOT_stimuli/rescaled_final/2002_fw.mp4	0.0	249.04996418952942	2.492079496383667
52	232.83287477493286	pulse	1	t		50.0	2.5	/experiments/knapen_AOT/AOT_stimuli/rescaled_final/2002_fw.mp4	0.0	249.82328057289124	
52	234.43314743041992	pulse	1	t		50.0	2.5	/experiments/knapen_AOT/AOT_stimuli/rescaled_final/2002_fw.mp4	0.0	251.4235532283783	
52	234.5516378879547	fix_post	2		12	50.0	2.5	/experiments/knapen_AOT/AOT_stimuli/rescaled_final/2002_fw.mp4	0.0	251.5420436859131	0.10000991821289062
53	234.6516478061676	fix_pre	0		120	51.0	2.5	/experiments/knapen_AOT/AOT_stimuli/rescaled_final/1077_rv.mp4	0.0	251.64205360412598	1.0084943771362305
53	235.66014218330383	movie	1		270	51.0	2.5	/experiments/knapen_AOT/AOT_stimuli/rescaled_final/1077_rv.mp4	0.0	252.6505479812622	2.4920740127563477
53	236.03572940826416	pulse	1	t		51.0	2.5	/experiments/knapen_AOT/AOT_stimuli/rescaled_final/1077_rv.mp4	0.0	253.02613520622253	
53	237.63389563560486	pulse	1	t		51.0	2.5	/experiments/knapen_AOT/AOT_stimuli/rescaled_final/1077_rv.mp4	0.0	254.62430143356323	
53	238.15221619606018	fix_post	2		12	51.0	2.5	/experiments/knapen_AOT/AOT_stimuli/rescaled_final/1077_rv.mp4	0.0	255.14262199401855	0.10001683235168457
54	238.25223302841187	fix_pre	0		118	52.0	2.5	/experiments/knapen_AOT/AOT_stimuli/rescaled_final/1712_rv.mp4	0.0	255.24263882637024	0.9917733669281006
54	239.22780203819275	pulse	0	t		52.0	2.5	/experiments/knapen_AOT/AOT_stimuli/rescaled_final/1712_rv.mp4	0.0	256.2182078361511	
54	239.24400639533997	movie	1		282	52.0	2.5	/experiments/knapen_AOT/AOT_stimuli/rescaled_final/1712_rv.mp4	0.0	256.23441219329834	2.500389814376831
54	240.82803988456726	pulse	1	t		52.0	2.5	/experiments/knapen_AOT/AOT_stimuli/rescaled_final/1712_rv.mp4	0.0	257.81844568252563	
54	241.7443962097168	fix_post	2		12	52.0	2.5	/experiments/knapen_AOT/AOT_stimuli/rescaled_final/1712_rv.mp4	0.0	258.73480200767517	0.10001397132873535
55	241.84441018104553	fix_pre	0		120	53.0	2.5	/experiments/knapen_AOT/AOT_stimuli/rescaled_final/1609_fw.mp4	0.0	258.8348159790039	1.0085113048553467
55	242.42836809158325	pulse	0	t		53.0	2.5	/experiments/knapen_AOT/AOT_stimuli/rescaled_final/1609_fw.mp4	0.0	259.4187738895416	
55	242.85292148590088	movie	1		274	53.0	2.5	/experiments/knapen_AOT/AOT_stimuli/rescaled_final/1609_fw.mp4	0.0	259.84332728385925	2.4920029640197754
55	244.02828526496887	pulse	1	t		53.0	2.5	/experiments/knapen_AOT/AOT_stimuli/rescaled_final/1609_fw.mp4	0.0	261.01869106292725	
55	245.34492444992065	fix_post	2		12	53.0	2.5	/experiments/knapen_AOT/AOT_stimuli/rescaled_final/1609_fw.mp4	0.0	262.335330247879	0.10001039505004883
56	245.4449348449707	fix_pre	0		120	54.0	2.5	blank	1.0	262.4353406429291	1.000131607055664
56	245.6286816596985	pulse	0	t		54.0	2.5	blank	1.0	262.61908745765686	
56	246.44506645202637	movie	1		300	54.0	2.5	blank	1.0	263.43547224998474	2.500408172607422
56	247.22874426841736	pulse	1	t		54.0	2.5	blank	1.0	264.21915006637573	
56	248.829083442688	pulse	1	t		54.0	2.5	blank	1.0	265.81948924064636	
56	248.9454746246338	fix_post	2		12	54.0	2.5	blank	1.0	265.93588042259216	0.1000509262084961
57	249.04552555084229	fix_pre	0		120	55.0	2.5	/experiments/knapen_AOT/AOT_stimuli/rescaled_final/0466_rv.mp4	0.0	266.03593134880066	1.008436679840088
57	250.05396223068237	movie	1		270	55.0	2.5	/experiments/knapen_AOT/AOT_stimuli/rescaled_final/0466_rv.mp4	0.0	267.04436802864075	2.4920647144317627
57	250.4277698993683	pulse	1	t		55.0	2.5	/experiments/knapen_AOT/AOT_stimuli/rescaled_final/0466_rv.mp4	0.0	267.41817569732666	
57	252.02981400489807	pulse	1	t		55.0	2.5	/experiments/knapen_AOT/AOT_stimuli/rescaled_final/0466_rv.mp4	0.0	269.02021980285645	
57	252.54602694511414	fix_post	2		12	55.0	2.5	/experiments/knapen_AOT/AOT_stimuli/rescaled_final/0466_rv.mp4	0.0	269.5364327430725	0.10001182556152344
58	252.64603877067566	fix_pre	0		119	56.0	2.5	/experiments/knapen_AOT/AOT_stimuli/rescaled_final/1286_fw.mp4	0.0	269.63644456863403	1.0001585483551025
58	253.62976694107056	pulse	0	t		56.0	2.5	/experiments/knapen_AOT/AOT_stimuli/rescaled_final/1286_fw.mp4	0.0	270.62017273902893	
58	253.64619731903076	movie	1		284	56.0	2.5	/experiments/knapen_AOT/AOT_stimuli/rescaled_final/1286_fw.mp4	0.0	270.63660311698914	2.5003349781036377
58	255.22859144210815	pulse	1	t		56.0	2.5	/experiments/knapen_AOT/AOT_stimuli/rescaled_final/1286_fw.mp4	0.0	272.2189972400665	
58	256.1465322971344	fix_post	2		12	56.0	2.5	/experiments/knapen_AOT/AOT_stimuli/rescaled_final/1286_fw.mp4	0.0	273.1369380950928	0.1000063419342041
59	256.2465386390686	fix_pre	0		120	57.0	2.5	/experiments/knapen_AOT/AOT_stimuli/rescaled_final/1367_fw.mp4	0.0	273.236944437027	1.008552074432373
59	256.8305094242096	pulse	0	t		57.0	2.5	/experiments/knapen_AOT/AOT_stimuli/rescaled_final/1367_fw.mp4	0.0	273.82091522216797	
59	257.255090713501	movie	1		277	57.0	2.5	/experiments/knapen_AOT/AOT_stimuli/rescaled_final/1367_fw.mp4	0.0	274.24549651145935	2.492004632949829
59	258.4290339946747	pulse	1	t		57.0	2.5	/experiments/knapen_AOT/AOT_stimuli/rescaled_final/1367_fw.mp4	0.0	275.41943979263306	
59	259.7470953464508	fix_post	2		12	57.0	2.5	/experiments/knapen_AOT/AOT_stimuli/rescaled_final/1367_fw.mp4	0.0	276.7375011444092	0.09998416900634766
60	259.84707951545715	fix_pre	0		120	58.0	2.5	/experiments/knapen_AOT/AOT_stimuli/rescaled_final/2002_fw.mp4	0.0	276.8374853134155	1.0085248947143555
60	260.03074860572815	pulse	0	t		58.0	2.5	/experiments/knapen_AOT/AOT_stimuli/rescaled_final/2002_fw.mp4	0.0	277.0211544036865	
60	260.8556044101715	movie	1		282	58.0	2.5	/experiments/knapen_AOT/AOT_stimuli/rescaled_final/2002_fw.mp4	0.0	277.8460102081299	2.492043972015381
60	261.6290912628174	pulse	1	t		58.0	2.5	/experiments/knapen_AOT/AOT_stimuli/rescaled_final/2002_fw.mp4	0.0	278.61949706077576	
60	263.22916769981384	pulse	1	t		58.0	2.5	/experiments/knapen_AOT/AOT_stimuli/rescaled_final/2002_fw.mp4	0.0	280.2195734977722	
60	263.3476483821869	fix_post	2		12	58.0	2.5	/experiments/knapen_AOT/AOT_stimuli/rescaled_final/2002_fw.mp4	0.0	280.33805418014526	0.09999632835388184
61	263.44764471054077	fix_pre	0		120	59.0	2.5	/experiments/knapen_AOT/AOT_stimuli/rescaled_final/0659_rv.mp4	0.0	280.43805050849915	1.008530855178833
61	264.4561755657196	movie	1		280	59.0	2.5	/experiments/knapen_AOT/AOT_stimuli/rescaled_final/0659_rv.mp4	0.0	281.446581363678	2.4920356273651123
61	264.83001923561096	pulse	1	t		59.0	2.5	/experiments/knapen_AOT/AOT_stimuli/rescaled_final/0659_rv.mp4	0.0	281.82042503356934	
61	266.43012952804565	pulse	1	t		59.0	2.5	/experiments/knapen_AOT/AOT_stimuli/rescaled_final/0659_rv.mp4	0.0	283.420535326004	
61	266.9482111930847	fix_post	2		12	59.0	2.5	/experiments/knapen_AOT/AOT_stimuli/rescaled_final/0659_rv.mp4	0.0	283.9386169910431	0.09999966621398926
62	267.0482108592987	fix_pre	0		119	60.0	2.5	/experiments/knapen_AOT/AOT_stimuli/rescaled_final/1639_rv.mp4	0.0	284.0386166572571	1.000178575515747
62	268.03217601776123	pulse	0	t		60.0	2.5	/experiments/knapen_AOT/AOT_stimuli/rescaled_final/1639_rv.mp4	0.0	285.0225818157196	
62	268.04838943481445	movie	1		274	60.0	2.5	/experiments/knapen_AOT/AOT_stimuli/rescaled_final/1639_rv.mp4	0.0	285.0387952327728	2.500309705734253
62	269.6322512626648	pulse	1	t		60.0	2.5	/experiments/knapen_AOT/AOT_stimuli/rescaled_final/1639_rv.mp4	0.0	286.62265706062317	
62	270.5486991405487	fix_post	2		12	60.0	2.5	/experiments/knapen_AOT/AOT_stimuli/rescaled_final/1639_rv.mp4	0.0	287.5391049385071	0.1000518798828125
63	270.6487510204315	fix_pre	0		120	61.0	2.5	/experiments/knapen_AOT/AOT_stimuli/rescaled_final/0177_fw.mp4	0.0	287.6391568183899	1.0084331035614014
63	271.2323455810547	pulse	0	t		61.0	2.5	/experiments/knapen_AOT/AOT_stimuli/rescaled_final/0177_fw.mp4	0.0	288.22275137901306	
63	271.6571841239929	movie	1		275	61.0	2.5	/experiments/knapen_AOT/AOT_stimuli/rescaled_final/0177_fw.mp4	0.0	288.6475899219513	2.492086887359619
63	272.8312041759491	pulse	1	t		61.0	2.5	/experiments/knapen_AOT/AOT_stimuli/rescaled_final/0177_fw.mp4	0.0	289.82160997390747	
63	274.14927101135254	fix_post	2		12	61.0	2.5	/experiments/knapen_AOT/AOT_stimuli/rescaled_final/0177_fw.mp4	0.0	291.1396768093109	0.10001063346862793
64	274.24928164482117	fix_pre	0		120	62.0	2.5	/experiments/knapen_AOT/AOT_stimuli/rescaled_final/1825_rv.mp4	0.0	291.23968744277954	1.0084786415100098
64	274.43313121795654	pulse	0	t		62.0	2.5	/experiments/knapen_AOT/AOT_stimuli/rescaled_final/1825_rv.mp4	0.0	291.4235370159149	
64	275.2577602863312	movie	1		287	62.0	2.5	/experiments/knapen_AOT/AOT_stimuli/rescaled_final/1825_rv.mp4	0.0	292.24816608428955	2.492018461227417
64	276.0307512283325	pulse	1	t		62.0	2.5	/experiments/knapen_AOT/AOT_stimuli/rescaled_final/1825_rv.mp4	0.0	293.0211570262909	
64	277.6313302516937	pulse	1	t		62.0	2.5	/experiments/knapen_AOT/AOT_stimuli/rescaled_final/1825_rv.mp4	0.0	294.6217360496521	
64	277.7497787475586	fix_post	2		12	62.0	2.5	/experiments/knapen_AOT/AOT_stimuli/rescaled_final/1825_rv.mp4	0.0	294.74018454551697	0.1000218391418457
65	277.84980058670044	fix_pre	0		120	63.0	2.5	blank	1.0	294.8402063846588	1.0001366138458252
65	278.84993720054626	movie	1		300	63.0	2.5	blank	1.0	295.84034299850464	2.500436305999756
65	279.23365592956543	pulse	1	t		63.0	2.5	blank	1.0	296.2240617275238	
65	280.8337664604187	pulse	1	t		63.0	2.5	blank	1.0	297.8241722583771	
65	281.350373506546	fix_post	2		12	63.0	2.5	blank	1.0	298.3407793045044	0.1000521183013916
66	281.4504256248474	fix_pre	0		119	64.0	2.5	/experiments/knapen_AOT/AOT_stimuli/rescaled_final/0895_fw.mp4	0.0	298.4408314228058	1.0000495910644531
66	282.4340286254883	pulse	0	t		64.0	2.5	/experiments/knapen_AOT/AOT_stimuli/rescaled_final/0895_fw.mp4	0.0	299.42443442344666	
66	282.45047521591187	movie	1		286	64.0	2.5	/experiments/knapen_AOT/AOT_stimuli/rescaled_final/0895_fw.mp4	0.0	299.44088101387024	2.500380039215088
66	284.0335156917572	pulse	1	t		64.0	2.5	/experiments/knapen_AOT/AOT_stimuli/rescaled_final/0895_fw.mp4	0.0	301.0239214897156	
66	284.95085525512695	fix_post	2		12	64.0	2.5	/experiments/knapen_AOT/AOT_stimuli/rescaled_final/0895_fw.mp4	0.0	301.9412610530853	0.10002613067626953
67	285.0508813858032	fix_pre	0		120	65.0	2.5	/experiments/knapen_AOT/AOT_stimuli/rescaled_final/2141_fw.mp4	0.0	302.0412871837616	1.0085656642913818
67	285.6346468925476	pulse	0	t		65.0	2.5	/experiments/knapen_AOT/AOT_stimuli/rescaled_final/2141_fw.mp4	0.0	302.625052690506	
67	286.0594470500946	movie	1		279	65.0	2.5	/experiments/knapen_AOT/AOT_stimuli/rescaled_final/2141_fw.mp4	0.0	303.049852848053	2.4920403957366943
67	287.23289585113525	pulse	1	t		65.0	2.5	/experiments/knapen_AOT/AOT_stimuli/rescaled_final/2141_fw.mp4	0.0	304.2233016490936	
67	288.5514874458313	fix_post	2		12	65.0	2.5	/experiments/knapen_AOT/AOT_stimuli/rescaled_final/2141_fw.mp4	0.0	305.5418932437897	0.10001397132873535
68	288.65150141716003	fix_pre	0		120	66.0	2.5	/experiments/knapen_AOT/AOT_stimuli/rescaled_final/0799_fw.mp4	0.0	305.6419072151184	1.008415937423706
68	288.83503556251526	pulse	0	t		66.0	2.5	/experiments/knapen_AOT/AOT_stimuli/rescaled_final/0799_fw.mp4	0.0	305.82544136047363	
68	289.65991735458374	movie	1		279	66.0	2.5	/experiments/knapen_AOT/AOT_stimuli/rescaled_final/0799_fw.mp4	0.0	306.6503231525421	2.492023229598999
68	290.43308758735657	pulse	1	t		66.0	2.5	/experiments/knapen_AOT/AOT_stimuli/rescaled_final/0799_fw.mp4	0.0	307.42349338531494	
68	292.03580260276794	pulse	1	t		66.0	2.5	/experiments/knapen_AOT/AOT_stimuli/rescaled_final/0799_fw.mp4	0.0	309.0262084007263	
68	292.15194058418274	fix_post	2		12	66.0	2.5	/experiments/knapen_AOT/AOT_stimuli/rescaled_final/0799_fw.mp4	0.0	309.1423463821411	0.10002827644348145
69	292.2519688606262	fix_pre	0		120	67.0	2.5	/experiments/knapen_AOT/AOT_stimuli/rescaled_final/1334_fw.mp4	0.0	309.2423746585846	1.0084991455078125
69	293.26046800613403	movie	1		274	67.0	2.5	/experiments/knapen_AOT/AOT_stimuli/rescaled_final/1334_fw.mp4	0.0	310.2508738040924	2.4920904636383057
69	293.63389897346497	pulse	1	t		67.0	2.5	/experiments/knapen_AOT/AOT_stimuli/rescaled_final/1334_fw.mp4	0.0	310.62430477142334	
69	295.2364778518677	pulse	1	t		67.0	2.5	/experiments/knapen_AOT/AOT_stimuli/rescaled_final/1334_fw.mp4	0.0	312.22688364982605	
69	295.75255846977234	fix_post	2		12	67.0	2.5	/experiments/knapen_AOT/AOT_stimuli/rescaled_final/1334_fw.mp4	0.0	312.7429642677307	0.1000680923461914
70	295.85262656211853	fix_pre	0		118	68.0	2.5	/experiments/knapen_AOT/AOT_stimuli/rescaled_final/1879_rv.mp4	0.0	312.8430323600769	0.9916737079620361
70	296.82822346687317	pulse	0	t		68.0	2.5	/experiments/knapen_AOT/AOT_stimuli/rescaled_final/1879_rv.mp4	0.0	313.81862926483154	
70	296.84430027008057	movie	1		289	68.0	2.5	/experiments/knapen_AOT/AOT_stimuli/rescaled_final/1879_rv.mp4	0.0	313.83470606803894	2.500398635864258
70	298.42845010757446	pulse	1	t		68.0	2.5	/experiments/knapen_AOT/AOT_stimuli/rescaled_final/1879_rv.mp4	0.0	315.41885590553284	
70	299.3446989059448	fix_post	2		12	68.0	2.5	/experiments/knapen_AOT/AOT_stimuli/rescaled_final/1879_rv.mp4	0.0	316.3351047039032	0.10005831718444824
71	299.4447572231293	fix_pre	0		120	69.0	2.5	/experiments/knapen_AOT/AOT_stimuli/rescaled_final/1289_fw.mp4	0.0	316.43516302108765	1.008467674255371
71	300.02838373184204	pulse	0	t		69.0	2.5	/experiments/knapen_AOT/AOT_stimuli/rescaled_final/1289_fw.mp4	0.0	317.0187895298004	
71	300.45322489738464	movie	1		290	69.0	2.5	/experiments/knapen_AOT/AOT_stimuli/rescaled_final/1289_fw.mp4	0.0	317.443630695343	2.492006778717041
71	301.62860560417175	pulse	1	t		69.0	2.5	/experiments/knapen_AOT/AOT_stimuli/rescaled_final/1289_fw.mp4	0.0	318.6190114021301	
71	302.9452316761017	fix_post	2		12	69.0	2.5	/experiments/knapen_AOT/AOT_stimuli/rescaled_final/1289_fw.mp4	0.0	319.93563747406006	0.1000216007232666
72	303.04525327682495	fix_pre	0		120	70.0	2.5	blank	1.0	320.0356590747833	1.0002198219299316
72	303.228853225708	pulse	0	t		70.0	2.5	blank	1.0	320.2192590236664	
72	304.0454730987549	movie	1		300	70.0	2.5	blank	1.0	321.03587889671326	2.500293493270874
72	304.82908868789673	pulse	1	t		70.0	2.5	blank	1.0	321.8194944858551	
72	306.4293050765991	pulse	1	t		70.0	2.5	blank	1.0	323.4197108745575	
72	306.54576659202576	fix_post	2		12	70.0	2.5	blank	1.0	323.53617238998413	0.10001707077026367
73	306.645783662796	fix_pre	0		120	71.0	2.5	/experiments/knapen_AOT/AOT_stimuli/rescaled_final/1746_fw.mp4	0.0	323.6361894607544	1.0084969997406006
73	307.6542806625366	movie	1		275	71.0	2.5	/experiments/knapen_AOT/AOT_stimuli/rescaled_final/1746_fw.mp4	0.0	324.644686460495	2.492032766342163
73	308.0298104286194	pulse	1	t		71.0	2.5	/experiments/knapen_AOT/AOT_stimuli/rescaled_final/1746_fw.mp4	0.0	325.02021622657776	
73	309.62982964515686	pulse	1	t		71.0	2.5	/experiments/knapen_AOT/AOT_stimuli/rescaled_final/1746_fw.mp4	0.0	326.62023544311523	
73	310.1463134288788	fix_post	2		12	71.0	2.5	/experiments/knapen_AOT/AOT_stimuli/rescaled_final/1746_fw.mp4	0.0	327.13671922683716	0.10004162788391113
74	310.2463550567627	fix_pre	0		119	72.0	2.5	/experiments/knapen_AOT/AOT_stimuli/rescaled_final/0832_rv.mp4	0.0	327.23676085472107	1.0005390644073486
74	311.23012495040894	pulse	0	t		72.0	2.5	/experiments/knapen_AOT/AOT_stimuli/rescaled_final/0832_rv.mp4	0.0	328.2205307483673	
74	311.24689412117004	movie	1		273	72.0	2.5	/experiments/knapen_AOT/AOT_stimuli/rescaled_final/0832_rv.mp4	0.0	328.2372999191284	2.4999547004699707
74	312.8287410736084	pulse	1	t		72.0	2.5	/experiments/knapen_AOT/AOT_stimuli/rescaled_final/0832_rv.mp4	0.0	329.8191468715668	
74	313.74684882164	fix_post	2		12	72.0	2.5	/experiments/knapen_AOT/AOT_stimuli/rescaled_final/0832_rv.mp4	0.0	330.7372546195984	0.10003018379211426
75	313.84687900543213	fix_pre	0		120	73.0	2.5	/experiments/knapen_AOT/AOT_stimuli/rescaled_final/0832_fw.mp4	0.0	330.8372848033905	1.0085160732269287
75	314.43055844306946	pulse	0	t		73.0	2.5	/experiments/knapen_AOT/AOT_stimuli/rescaled_final/0832_fw.mp4	0.0	331.42096424102783	
75	314.85539507865906	movie	1		270	73.0	2.5	/experiments/knapen_AOT/AOT_stimuli/rescaled_final/0832_fw.mp4	0.0	331.84580087661743	2.4920339584350586
75	316.02884554862976	pulse	1	t		73.0	2.5	/experiments/knapen_AOT/AOT_stimuli/rescaled_final/0832_fw.mp4	0.0	333.01925134658813	
75	317.3474290370941	fix_post	2		12	73.0	2.5	/experiments/knapen_AOT/AOT_stimuli/rescaled_final/0832_fw.mp4	0.0	334.3378348350525	0.09998893737792969
76	317.44741797447205	fix_pre	0		120	74.0	2.5	/experiments/knapen_AOT/AOT_stimuli/rescaled_final/0142_rv.mp4	0.0	334.4378237724304	1.008500099182129
76	317.63098764419556	pulse	0	t		74.0	2.5	/experiments/knapen_AOT/AOT_stimuli/rescaled_final/0142_rv.mp4	0.0	334.62139344215393	
76	318.4559180736542	movie	1		272	74.0	2.5	/experiments/knapen_AOT/AOT_stimuli/rescaled_final/0142_rv.mp4	0.0	335.44632387161255	2.492023468017578
76	319.2291202545166	pulse	1	t		74.0	2.5	/experiments/knapen_AOT/AOT_stimuli/rescaled_final/0142_rv.mp4	0.0	336.219526052475	
76	320.82937455177307	pulse	1	t		74.0	2.5	/experiments/knapen_AOT/AOT_stimuli/rescaled_final/0142_rv.mp4	0.0	337.81978034973145	
76	320.94794154167175	fix_post	2		12	74.0	2.5	/experiments/knapen_AOT/AOT_stimuli/rescaled_final/0142_rv.mp4	0.0	337.9383473396301	0.10001540184020996
77	321.04795694351196	fix_pre	0		120	75.0	2.5	/experiments/knapen_AOT/AOT_stimuli/rescaled_final/1350_fw.mp4	0.0	338.03836274147034	1.0085535049438477
77	322.0565104484558	movie	1		274	75.0	2.5	/experiments/knapen_AOT/AOT_stimuli/rescaled_final/1350_fw.mp4	0.0	339.0469162464142	2.491978406906128
77	322.4310324192047	pulse	1	t		75.0	2.5	/experiments/knapen_AOT/AOT_stimuli/rescaled_final/1350_fw.mp4	0.0	339.4214382171631	
77	324.03043246269226	pulse	1	t		75.0	2.5	/experiments/knapen_AOT/AOT_stimuli/rescaled_final/1350_fw.mp4	0.0	341.02083826065063	
77	324.54848885536194	fix_post	2		12	75.0	2.5	/experiments/knapen_AOT/AOT_stimuli/rescaled_final/1350_fw.mp4	0.0	341.5388946533203	0.10006189346313477
78	324.6485507488251	fix_pre	0		119	76.0	2.5	blank	1.0	341.63895654678345	0.9917731285095215
78	325.6321771144867	pulse	0	t		76.0	2.5	blank	1.0	342.62258291244507	
78	325.6403238773346	movie	1		301	76.0	2.5	blank	1.0	342.63072967529297	2.5086894035339355
78	327.2324261665344	pulse	1	t		76.0	2.5	blank	1.0	344.2228319644928	
78	328.14901328086853	fix_post	2		12	76.0	2.5	blank	1.0	345.1394190788269	0.10009765625
79	328.24911093711853	fix_pre	0		120	77.0	2.5	/experiments/knapen_AOT/AOT_stimuli/rescaled_final/0912_rv.mp4	0.0	345.2395167350769	1.0084140300750732
79	328.8327009677887	pulse	0	t		77.0	2.5	/experiments/knapen_AOT/AOT_stimuli/rescaled_final/0912_rv.mp4	0.0	345.82310676574707	
79	329.2575249671936	movie	1		284	77.0	2.5	/experiments/knapen_AOT/AOT_stimuli/rescaled_final/0912_rv.mp4	0.0	346.247930765152	2.4920670986175537
79	330.4309513568878	pulse	1	t		77.0	2.5	/experiments/knapen_AOT/AOT_stimuli/rescaled_final/0912_rv.mp4	0.0	347.4213571548462	
79	331.74959206581116	fix_post	2		12	77.0	2.5	/experiments/knapen_AOT/AOT_stimuli/rescaled_final/0912_rv.mp4	0.0	348.73999786376953	0.09998035430908203
80	331.84957242012024	fix_pre	0		120	78.0	2.5	/experiments/knapen_AOT/AOT_stimuli/rescaled_final/1003_fw.mp4	0.0	348.8399782180786	1.0085268020629883
80	332.03324007987976	pulse	0	t		78.0	2.5	/experiments/knapen_AOT/AOT_stimuli/rescaled_final/1003_fw.mp4	0.0	349.02364587783813	
80	332.8580992221832	movie	1		279	78.0	2.5	/experiments/knapen_AOT/AOT_stimuli/rescaled_final/1003_fw.mp4	0.0	349.8485050201416	2.4921324253082275
80	333.63125133514404	pulse	1	t		78.0	2.5	/experiments/knapen_AOT/AOT_stimuli/rescaled_final/1003_fw.mp4	0.0	350.6216571331024	
80	335.23189973831177	pulse	1	t		78.0	2.5	/experiments/knapen_AOT/AOT_stimuli/rescaled_final/1003_fw.mp4	0.0	352.22230553627014	
80	335.35023164749146	fix_post	2		12	78.0	2.5	/experiments/knapen_AOT/AOT_stimuli/rescaled_final/1003_fw.mp4	0.0	352.34063744544983	0.09988522529602051
81	335.4501168727875	fix_pre	0		120	79.0	2.5	/experiments/knapen_AOT/AOT_stimuli/rescaled_final/2119_rv.mp4	0.0	352.44052267074585	1.0085394382476807
81	336.45865631103516	movie	1		284	79.0	2.5	/experiments/knapen_AOT/AOT_stimuli/rescaled_final/2119_rv.mp4	0.0	353.44906210899353	2.4920730590820312
81	336.8317766189575	pulse	1	t		79.0	2.5	/experiments/knapen_AOT/AOT_stimuli/rescaled_final/2119_rv.mp4	0.0	353.8221824169159	
81	338.4318985939026	pulse	1	t		79.0	2.5	/experiments/knapen_AOT/AOT_stimuli/rescaled_final/2119_rv.mp4	0.0	355.42230439186096	
81	338.9507293701172	fix_post	2		12	79.0	2.5	/experiments/knapen_AOT/AOT_stimuli/rescaled_final/2119_rv.mp4	0.0	355.94113516807556	0.09992408752441406
82	339.0506534576416	fix_pre	0		119	80.0	2.5	/experiments/knapen_AOT/AOT_stimuli/rescaled_final/2089_rv.mp4	0.0	356.0410592556	1.0002477169036865
82	340.0344705581665	pulse	0	t		80.0	2.5	/experiments/knapen_AOT/AOT_stimuli/rescaled_final/2089_rv.mp4	0.0	357.0248763561249	
82	340.0509011745453	movie	1		280	80.0	2.5	/experiments/knapen_AOT/AOT_stimuli/rescaled_final/2089_rv.mp4	0.0	357.04130697250366	2.500309467315674
82	341.6334547996521	pulse	1	t		80.0	2.5	/experiments/knapen_AOT/AOT_stimuli/rescaled_final/2089_rv.mp4	0.0	358.6238605976105	
82	342.55121064186096	fix_post	2		12	80.0	2.5	/experiments/knapen_AOT/AOT_stimuli/rescaled_final/2089_rv.mp4	0.0	359.54161643981934	0.10001301765441895
83	342.6512236595154	fix_pre	0		120	81.0	2.5	/experiments/knapen_AOT/AOT_stimuli/rescaled_final/1289_rv.mp4	0.0	359.64162945747375	1.0084855556488037
83	343.23484921455383	pulse	0	t		81.0	2.5	/experiments/knapen_AOT/AOT_stimuli/rescaled_final/1289_rv.mp4	0.0	360.2252550125122	
83	343.6597092151642	movie	1		277	81.0	2.5	/experiments/knapen_AOT/AOT_stimuli/rescaled_final/1289_rv.mp4	0.0	360.65011501312256	2.492011308670044
83	344.83324551582336	pulse	1	t		81.0	2.5	/experiments/knapen_AOT/AOT_stimuli/rescaled_final/1289_rv.mp4	0.0	361.82365131378174	
83	346.15172052383423	fix_post	2		12	81.0	2.5	/experiments/knapen_AOT/AOT_stimuli/rescaled_final/1289_rv.mp4	0.0	363.1421263217926	0.10000944137573242
84	346.25172996520996	fix_pre	0		120	82.0	2.5	blank	1.0	363.24213576316833	1.0001587867736816
84	346.43573689460754	pulse	0	t		82.0	2.5	blank	1.0	363.4261426925659	
84	347.25188875198364	movie	1		300	82.0	2.5	blank	1.0	364.242294549942	2.5003597736358643
84	348.02868914604187	pulse	1	t		82.0	2.5	blank	1.0	365.01909494400024	
84	349.6358804702759	pulse	1	t		82.0	2.5	blank	1.0	366.62628626823425	
84	349.7522485256195	fix_post	2		12	82.0	2.5	blank	1.0	366.7426543235779	0.10002589225769043
85	349.8522744178772	fix_pre	0		120	83.0	2.5	/experiments/knapen_AOT/AOT_stimuli/rescaled_final/0964_rv.mp4	0.0	366.84268021583557	1.0084900856018066
85	350.860764503479	movie	1		277	83.0	2.5	/experiments/knapen_AOT/AOT_stimuli/rescaled_final/0964_rv.mp4	0.0	367.8511703014374	2.492033004760742
85	351.2342789173126	pulse	1	t		83.0	2.5	/experiments/knapen_AOT/AOT_stimuli/rescaled_final/0964_rv.mp4	0.0	368.224684715271	
85	352.83408784866333	pulse	1	t		83.0	2.5	/experiments/knapen_AOT/AOT_stimuli/rescaled_final/0964_rv.mp4	0.0	369.8244936466217	
85	353.35279750823975	fix_post	2		12	83.0	2.5	/experiments/knapen_AOT/AOT_stimuli/rescaled_final/0964_rv.mp4	0.0	370.3432033061981	0.10001873970031738
87	353.45281624794006	stim	0		1716					370.44322204589844	14.30215859413147
87	354.4286711215973	pulse	0	t						371.41907691955566	
87	356.02863335609436	pulse	0	t						373.01903915405273	
87	357.6287124156952	pulse	0	t						374.61911821365356	
87	359.2289662361145	pulse	0	t						376.2193720340729	
87	360.8292293548584	pulse	0	t						377.8196351528168	
87	362.4293715953827	pulse	0	t						379.41977739334106	
87	364.0296297073364	pulse	0	t						381.0200355052948	
87	365.6298358440399	pulse	0	t						382.6202416419983	
87	367.23005986213684	pulse	0	t						384.2204656600952	
