trial_nr	onset	event_type	phase	response	nr_frames	movie_index	movie_duration	movie_file	blank	onset_abs	duration
0	0.14988088607788086	stim	0		152					60.389386892318726	1.2666702270507812
0	1.4086239337921143	response	0	space						61.64812994003296	
1	1.416551113128662	stim	0		8258					61.65605711936951	68.81633996963501
1	70.22252988815308	pulse	0	t						130.46203589439392	
1	70.23289108276367	stim	1		1717					130.47239708900452	14.308283805847168
1	71.81715893745422	pulse	1	t						132.05666494369507	
1	73.41714096069336	pulse	1	t						133.6566469669342	
1	75.0171320438385	pulse	1	t						135.25663805007935	
1	76.6171989440918	pulse	1	t						136.85670495033264	
1	78.22477507591248	pulse	1	t						138.46428108215332	
1	79.82465505599976	pulse	1	t						140.0641610622406	
1	81.42463397979736	pulse	1	t						141.6641399860382	
1	83.01716899871826	pulse	1	t						143.2566750049591	
2	84.54117488861084	fix_pre	0		11	0.0	2.5	/experiments/AOT/AOT_stimuli/rescaled_final/1783_rv.mp4	0.0	144.78068089485168	0.09167718887329102
2	84.62464094161987	pulse	0	t		0.0	2.5	/experiments/AOT/AOT_stimuli/rescaled_final/1783_rv.mp4	0.0	144.86414694786072	
2	84.63285207748413	movie	1		242	0.0	2.5	/experiments/AOT/AOT_stimuli/rescaled_final/1783_rv.mp4	0.0	144.87235808372498	2.508241891860962
2	86.22435903549194	pulse	1	t		0.0	2.5	/experiments/AOT/AOT_stimuli/rescaled_final/1783_rv.mp4	0.0	146.4638650417328	
2	87.14109396934509	fix_post	2		12	0.0	2.5	/experiments/AOT/AOT_stimuli/rescaled_final/1783_rv.mp4	0.0	147.38059997558594	0.10006308555603027
3	87.24115705490112	fix_pre	0		120	1.0	2.5	/experiments/AOT/AOT_stimuli/rescaled_final/1643_rv.mp4	0.0	147.48066306114197	1.0000379085540771
3	87.81714510917664	pulse	0	t		1.0	2.5	/experiments/AOT/AOT_stimuli/rescaled_final/1643_rv.mp4	0.0	148.05665111541748	
3	88.2411949634552	movie	1		243	1.0	2.5	/experiments/AOT/AOT_stimuli/rescaled_final/1643_rv.mp4	0.0	148.48070096969604	2.4995081424713135
3	89.42469596862793	pulse	1	t		1.0	2.5	/experiments/AOT/AOT_stimuli/rescaled_final/1643_rv.mp4	0.0	149.66420197486877	
3	90.74070310592651	fix_post	2		12	1.0	2.5	/experiments/AOT/AOT_stimuli/rescaled_final/1643_rv.mp4	0.0	150.98020911216736	0.10042881965637207
4	90.84113192558289	fix_pre	0		120	2.0	2.5	/experiments/AOT/AOT_stimuli/rescaled_final/1334_fw.mp4	0.0	151.08063793182373	1.0000271797180176
4	91.01717901229858	pulse	0	t		2.0	2.5	/experiments/AOT/AOT_stimuli/rescaled_final/1334_fw.mp4	0.0	151.25668501853943	
4	91.8411591053009	movie	1		246	2.0	2.5	/experiments/AOT/AOT_stimuli/rescaled_final/1334_fw.mp4	0.0	152.08066511154175	2.5001158714294434
4	92.62421703338623	pulse	1	t		2.0	2.5	/experiments/AOT/AOT_stimuli/rescaled_final/1334_fw.mp4	0.0	152.86372303962708	
4	94.2230019569397	pulse	1	t		2.0	2.5	/experiments/AOT/AOT_stimuli/rescaled_final/1334_fw.mp4	0.0	154.46250796318054	
4	94.34127497673035	fix_post	2		12	2.0	2.5	/experiments/AOT/AOT_stimuli/rescaled_final/1334_fw.mp4	0.0	154.5807809829712	0.09968805313110352
5	94.44096302986145	fix_pre	0		120	3.0	2.5	/experiments/AOT/AOT_stimuli/rescaled_final/1844_fw.mp4	0.0	154.6804690361023	1.0004398822784424
5	95.44140291213989	movie	1		246	3.0	2.5	/experiments/AOT/AOT_stimuli/rescaled_final/1844_fw.mp4	0.0	155.68090891838074	2.4992430210113525
5	95.82416701316833	pulse	1	t		3.0	2.5	/experiments/AOT/AOT_stimuli/rescaled_final/1844_fw.mp4	0.0	156.06367301940918	
5	97.42467999458313	pulse	1	t		3.0	2.5	/experiments/AOT/AOT_stimuli/rescaled_final/1844_fw.mp4	0.0	157.66418600082397	
5	97.94064593315125	fix_post	2		12	3.0	2.5	/experiments/AOT/AOT_stimuli/rescaled_final/1844_fw.mp4	0.0	158.1801519393921	0.1004190444946289
6	98.04106497764587	fix_pre	0		119	4.0	2.5	/experiments/AOT/AOT_stimuli/rescaled_final/0140_rv.mp4	0.0	158.28057098388672	0.9916939735412598
6	99.02466702461243	pulse	0	t		4.0	2.5	/experiments/AOT/AOT_stimuli/rescaled_final/0140_rv.mp4	0.0	159.26417303085327	
6	99.03275895118713	movie	1		245	4.0	2.5	/experiments/AOT/AOT_stimuli/rescaled_final/0140_rv.mp4	0.0	159.27226495742798	2.5079550743103027
6	100.62406492233276	pulse	1	t		4.0	2.5	/experiments/AOT/AOT_stimuli/rescaled_final/0140_rv.mp4	0.0	160.8635709285736	
6	101.54071402549744	fix_post	2		12	4.0	2.5	/experiments/AOT/AOT_stimuli/rescaled_final/0140_rv.mp4	0.0	161.78022003173828	0.10044693946838379
7	101.64116096496582	fix_pre	0		120	5.0	2.5	/experiments/AOT/AOT_stimuli/rescaled_final/0444_rv.mp4	0.0	161.88066697120667	0.9999020099639893
7	102.22454690933228	pulse	0	t		5.0	2.5	/experiments/AOT/AOT_stimuli/rescaled_final/0444_rv.mp4	0.0	162.46405291557312	
7	102.64106297492981	movie	1		245	5.0	2.5	/experiments/AOT/AOT_stimuli/rescaled_final/0444_rv.mp4	0.0	162.88056898117065	2.499979019165039
7	103.82456588745117	pulse	1	t		5.0	2.5	/experiments/AOT/AOT_stimuli/rescaled_final/0444_rv.mp4	0.0	164.06407189369202	
7	105.14104199409485	fix_post	2		12	5.0	2.5	/experiments/AOT/AOT_stimuli/rescaled_final/0444_rv.mp4	0.0	165.3805480003357	0.09959793090820312
8	105.24063992500305	fix_pre	0		120	6.0	2.5	/experiments/AOT/AOT_stimuli/rescaled_final/1650_rv.mp4	0.0	165.4801459312439	1.0003900527954102
8	105.42451906204224	pulse	0	t		6.0	2.5	/experiments/AOT/AOT_stimuli/rescaled_final/1650_rv.mp4	0.0	165.66402506828308	
8	106.24102997779846	movie	1		245	6.0	2.5	/experiments/AOT/AOT_stimuli/rescaled_final/1650_rv.mp4	0.0	166.4805359840393	2.4999589920043945
8	107.0171730518341	pulse	1	t		6.0	2.5	/experiments/AOT/AOT_stimuli/rescaled_final/1650_rv.mp4	0.0	167.25667905807495	
8	108.62334609031677	pulse	1	t		6.0	2.5	/experiments/AOT/AOT_stimuli/rescaled_final/1650_rv.mp4	0.0	168.86285209655762	
8	108.74098896980286	fix_post	2		12	6.0	2.5	/experiments/AOT/AOT_stimuli/rescaled_final/1650_rv.mp4	0.0	168.9804949760437	0.10006594657897949
9	108.84105491638184	fix_pre	0		120	7.0	2.5	blank	1.0	169.08056092262268	0.9996151924133301
9	109.84067010879517	movie	1		300	7.0	2.5	blank	1.0	170.080176115036	2.5003838539123535
9	110.22452807426453	pulse	1	t		7.0	2.5	blank	1.0	170.46403408050537	
9	111.82448291778564	pulse	1	t		7.0	2.5	blank	1.0	172.0639889240265	
9	112.34105396270752	fix_post	2		12	7.0	2.5	blank	1.0	172.58055996894836	0.10002803802490234
10	112.44108200073242	fix_pre	0		119	8.0	2.5	/experiments/AOT/AOT_stimuli/rescaled_final/0041_rv.mp4	0.0	172.68058800697327	0.9916579723358154
10	113.42451596260071	pulse	0	t		8.0	2.5	/experiments/AOT/AOT_stimuli/rescaled_final/0041_rv.mp4	0.0	173.66402196884155	
10	113.43273997306824	movie	1		247	8.0	2.5	/experiments/AOT/AOT_stimuli/rescaled_final/0041_rv.mp4	0.0	173.67224597930908	2.5082709789276123
10	115.02390789985657	pulse	1	t		8.0	2.5	/experiments/AOT/AOT_stimuli/rescaled_final/0041_rv.mp4	0.0	175.2634139060974	
10	115.94101095199585	fix_post	2		12	8.0	2.5	/experiments/AOT/AOT_stimuli/rescaled_final/0041_rv.mp4	0.0	176.1805169582367	0.09996914863586426
11	116.04098010063171	fix_pre	0		120	9.0	2.5	/experiments/AOT/AOT_stimuli/rescaled_final/1244_fw.mp4	0.0	176.28048610687256	1.0000739097595215
11	116.62437295913696	pulse	0	t		9.0	2.5	/experiments/AOT/AOT_stimuli/rescaled_final/1244_fw.mp4	0.0	176.8638789653778	
11	117.04105401039124	movie	1		244	9.0	2.5	/experiments/AOT/AOT_stimuli/rescaled_final/1244_fw.mp4	0.0	177.28056001663208	2.49985408782959
11	118.22452807426453	pulse	1	t		9.0	2.5	/experiments/AOT/AOT_stimuli/rescaled_final/1244_fw.mp4	0.0	178.46403408050537	
11	119.54090809822083	fix_post	2		12	9.0	2.5	/experiments/AOT/AOT_stimuli/rescaled_final/1244_fw.mp4	0.0	179.78041410446167	0.10018181800842285
12	119.64108991622925	fix_pre	0		120	10.0	2.5	/experiments/AOT/AOT_stimuli/rescaled_final/0791_rv.mp4	0.0	179.8805959224701	0.99989914894104
12	119.82441401481628	pulse	0	t		10.0	2.5	/experiments/AOT/AOT_stimuli/rescaled_final/0791_rv.mp4	0.0	180.06392002105713	
12	120.64098906517029	movie	1		245	10.0	2.5	/experiments/AOT/AOT_stimuli/rescaled_final/0791_rv.mp4	0.0	180.88049507141113	2.5000100135803223
12	121.41699194908142	pulse	1	t		10.0	2.5	/experiments/AOT/AOT_stimuli/rescaled_final/0791_rv.mp4	0.0	181.65649795532227	
12	123.02045893669128	pulse	1	t		10.0	2.5	/experiments/AOT/AOT_stimuli/rescaled_final/0791_rv.mp4	0.0	183.25996494293213	
12	123.14099907875061	fix_post	2		12	10.0	2.5	/experiments/AOT/AOT_stimuli/rescaled_final/0791_rv.mp4	0.0	183.38050508499146	0.09992194175720215
13	123.24092102050781	fix_pre	0		120	11.0	2.5	/experiments/AOT/AOT_stimuli/rescaled_final/0842_fw.mp4	0.0	183.48042702674866	0.9995748996734619
13	124.24049592018127	movie	1		245	11.0	2.5	/experiments/AOT/AOT_stimuli/rescaled_final/0842_fw.mp4	0.0	184.48000192642212	2.500437021255493
13	124.62393307685852	pulse	1	t		11.0	2.5	/experiments/AOT/AOT_stimuli/rescaled_final/0842_fw.mp4	0.0	184.86343908309937	
13	126.22443103790283	pulse	1	t		11.0	2.5	/experiments/AOT/AOT_stimuli/rescaled_final/0842_fw.mp4	0.0	186.46393704414368	
13	126.74093294143677	fix_post	2		12	11.0	2.5	/experiments/AOT/AOT_stimuli/rescaled_final/0842_fw.mp4	0.0	186.9804389476776	0.09997797012329102
14	126.84091091156006	fix_pre	0		119	12.0	2.5	blank	1.0	187.0804169178009	0.9916901588439941
14	127.8244240283966	pulse	0	t		12.0	2.5	blank	1.0	188.06393003463745	
14	127.83260107040405	movie	1		301	12.0	2.5	blank	1.0	188.0721070766449	2.5083019733428955
14	129.4244749546051	pulse	1	t		12.0	2.5	blank	1.0	189.66398096084595	
14	130.34090304374695	fix_post	2		12	12.0	2.5	blank	1.0	190.5804090499878	0.10004687309265137
15	130.4409499168396	fix_pre	0		120	13.0	2.5	/experiments/AOT/AOT_stimuli/rescaled_final/1746_rv.mp4	0.0	190.68045592308044	0.9996490478515625
15	131.02440309524536	pulse	0	t		13.0	2.5	/experiments/AOT/AOT_stimuli/rescaled_final/1746_rv.mp4	0.0	191.2639091014862	
15	131.44059896469116	movie	1		245	13.0	2.5	/experiments/AOT/AOT_stimuli/rescaled_final/1746_rv.mp4	0.0	191.680104970932	2.4998779296875
15	132.62450504302979	pulse	1	t		13.0	2.5	/experiments/AOT/AOT_stimuli/rescaled_final/1746_rv.mp4	0.0	192.86401104927063	
15	133.94047689437866	fix_post	2		12	13.0	2.5	/experiments/AOT/AOT_stimuli/rescaled_final/1746_rv.mp4	0.0	194.1799829006195	0.10049009323120117
16	134.04096698760986	fix_pre	0		120	14.0	2.5	/experiments/AOT/AOT_stimuli/rescaled_final/0091_rv.mp4	0.0	194.2804729938507	0.9999570846557617
16	134.22442197799683	pulse	0	t		14.0	2.5	/experiments/AOT/AOT_stimuli/rescaled_final/0091_rv.mp4	0.0	194.46392798423767	
16	135.04092407226562	movie	1		246	14.0	2.5	/experiments/AOT/AOT_stimuli/rescaled_final/0091_rv.mp4	0.0	195.28043007850647	2.5000059604644775
16	135.82436108589172	pulse	1	t		14.0	2.5	/experiments/AOT/AOT_stimuli/rescaled_final/0091_rv.mp4	0.0	196.06386709213257	
16	137.424418926239	pulse	1	t		14.0	2.5	/experiments/AOT/AOT_stimuli/rescaled_final/0091_rv.mp4	0.0	197.66392493247986	
16	137.5409300327301	fix_post	2		12	14.0	2.5	/experiments/AOT/AOT_stimuli/rescaled_final/0091_rv.mp4	0.0	197.78043603897095	0.09956002235412598
17	137.64049005508423	fix_pre	0		120	15.0	2.5	/experiments/AOT/AOT_stimuli/rescaled_final/1625_rv.mp4	0.0	197.87999606132507	1.0003950595855713
17	138.6408851146698	movie	1		244	15.0	2.5	/experiments/AOT/AOT_stimuli/rescaled_final/1625_rv.mp4	0.0	198.88039112091064	2.499607801437378
17	139.02420592308044	pulse	1	t		15.0	2.5	/experiments/AOT/AOT_stimuli/rescaled_final/1625_rv.mp4	0.0	199.2637119293213	
17	140.6169409751892	pulse	1	t		15.0	2.5	/experiments/AOT/AOT_stimuli/rescaled_final/1625_rv.mp4	0.0	200.85644698143005	
17	141.14049291610718	fix_post	2		12	15.0	2.5	/experiments/AOT/AOT_stimuli/rescaled_final/1625_rv.mp4	0.0	201.37999892234802	0.10042905807495117
18	141.24092197418213	fix_pre	0		119	16.0	2.5	/experiments/AOT/AOT_stimuli/rescaled_final/1866_rv.mp4	0.0	201.48042798042297	0.991657018661499
18	142.21686506271362	pulse	0	t		16.0	2.5	/experiments/AOT/AOT_stimuli/rescaled_final/1866_rv.mp4	0.0	202.45637106895447	
18	142.23257899284363	movie	1		245	16.0	2.5	/experiments/AOT/AOT_stimuli/rescaled_final/1866_rv.mp4	0.0	202.47208499908447	2.508229970932007
18	143.82552909851074	pulse	1	t		16.0	2.5	/experiments/AOT/AOT_stimuli/rescaled_final/1866_rv.mp4	0.0	204.0650351047516	
18	144.74080896377563	fix_post	2		12	16.0	2.5	/experiments/AOT/AOT_stimuli/rescaled_final/1866_rv.mp4	0.0	204.98031497001648	0.10005402565002441
19	144.84086298942566	fix_pre	0		120	17.0	2.5	/experiments/AOT/AOT_stimuli/rescaled_final/1060_fw.mp4	0.0	205.0803689956665	1.0000240802764893
19	145.42442798614502	pulse	0	t		17.0	2.5	/experiments/AOT/AOT_stimuli/rescaled_final/1060_fw.mp4	0.0	205.66393399238586	
19	145.84088706970215	movie	1		247	17.0	2.5	/experiments/AOT/AOT_stimuli/rescaled_final/1060_fw.mp4	0.0	206.080393075943	2.499933958053589
19	147.0243730545044	pulse	1	t		17.0	2.5	/experiments/AOT/AOT_stimuli/rescaled_final/1060_fw.mp4	0.0	207.26387906074524	
19	148.34082102775574	fix_post	2		12	17.0	2.5	/experiments/AOT/AOT_stimuli/rescaled_final/1060_fw.mp4	0.0	208.58032703399658	0.09963607788085938
20	148.4404571056366	fix_pre	0		120	18.0	2.5	/experiments/AOT/AOT_stimuli/rescaled_final/1346_fw.mp4	0.0	208.67996311187744	1.0000197887420654
20	148.62393808364868	pulse	0	t		18.0	2.5	/experiments/AOT/AOT_stimuli/rescaled_final/1346_fw.mp4	0.0	208.86344408988953	
20	149.44047689437866	movie	1		246	18.0	2.5	/experiments/AOT/AOT_stimuli/rescaled_final/1346_fw.mp4	0.0	209.6799829006195	2.499936103820801
20	150.2245020866394	pulse	1	t		18.0	2.5	/experiments/AOT/AOT_stimuli/rescaled_final/1346_fw.mp4	0.0	210.46400809288025	
20	151.82279992103577	pulse	1	t		18.0	2.5	/experiments/AOT/AOT_stimuli/rescaled_final/1346_fw.mp4	0.0	212.0623059272766	
20	151.94041299819946	fix_post	2		12	18.0	2.5	/experiments/AOT/AOT_stimuli/rescaled_final/1346_fw.mp4	0.0	212.1799190044403	0.10048294067382812
21	152.0408959388733	fix_pre	0		120	19.0	2.5	/experiments/AOT/AOT_stimuli/rescaled_final/0548_rv.mp4	0.0	212.28040194511414	1.0000131130218506
21	153.04090905189514	movie	1		247	19.0	2.5	/experiments/AOT/AOT_stimuli/rescaled_final/0548_rv.mp4	0.0	213.280415058136	2.4999279975891113
21	153.42357397079468	pulse	1	t		19.0	2.5	/experiments/AOT/AOT_stimuli/rescaled_final/0548_rv.mp4	0.0	213.66307997703552	
21	155.02427792549133	pulse	1	t		19.0	2.5	/experiments/AOT/AOT_stimuli/rescaled_final/0548_rv.mp4	0.0	215.26378393173218	
21	155.54083704948425	fix_post	2		12	19.0	2.5	/experiments/AOT/AOT_stimuli/rescaled_final/0548_rv.mp4	0.0	215.7803430557251	0.09995484352111816
22	155.64079189300537	fix_pre	0		119	20.0	2.5	/experiments/AOT/AOT_stimuli/rescaled_final/2035_fw.mp4	0.0	215.88029789924622	0.9916541576385498
22	156.62419390678406	pulse	0	t		20.0	2.5	/experiments/AOT/AOT_stimuli/rescaled_final/2035_fw.mp4	0.0	216.8636999130249	
22	156.63244605064392	movie	1		248	20.0	2.5	/experiments/AOT/AOT_stimuli/rescaled_final/2035_fw.mp4	0.0	216.87195205688477	2.508331060409546
22	158.22384691238403	pulse	1	t		20.0	2.5	/experiments/AOT/AOT_stimuli/rescaled_final/2035_fw.mp4	0.0	218.46335291862488	
22	159.14077711105347	fix_post	2		12	20.0	2.5	/experiments/AOT/AOT_stimuli/rescaled_final/2035_fw.mp4	0.0	219.3802831172943	0.09996795654296875
23	159.24074506759644	fix_pre	0		120	21.0	2.5	blank	1.0	219.48025107383728	0.9995949268341064
23	159.82420110702515	pulse	0	t		21.0	2.5	blank	1.0	220.063707113266	
23	160.24033999443054	movie	1		300	21.0	2.5	blank	1.0	220.4798460006714	2.5004589557647705
23	161.42419600486755	pulse	1	t		21.0	2.5	blank	1.0	221.6637020111084	
23	162.7407989501953	fix_post	2		12	21.0	2.5	blank	1.0	222.98030495643616	0.10004901885986328
24	162.84084796905518	fix_pre	0		120	22.0	2.5	/experiments/AOT/AOT_stimuli/rescaled_final/1824_fw.mp4	0.0	223.08035397529602	0.9999239444732666
24	163.02423691749573	pulse	0	t		22.0	2.5	/experiments/AOT/AOT_stimuli/rescaled_final/1824_fw.mp4	0.0	223.26374292373657	
24	163.84077191352844	movie	1		246	22.0	2.5	/experiments/AOT/AOT_stimuli/rescaled_final/1824_fw.mp4	0.0	224.0802779197693	2.499885082244873
24	164.62421011924744	pulse	1	t		22.0	2.5	/experiments/AOT/AOT_stimuli/rescaled_final/1824_fw.mp4	0.0	224.86371612548828	
24	166.2238221168518	pulse	1	t		22.0	2.5	/experiments/AOT/AOT_stimuli/rescaled_final/1824_fw.mp4	0.0	226.46332812309265	
24	166.34065699577332	fix_post	2		12	22.0	2.5	/experiments/AOT/AOT_stimuli/rescaled_final/1824_fw.mp4	0.0	226.58016300201416	0.10007691383361816
25	166.44073390960693	fix_pre	0		120	23.0	2.5	/experiments/AOT/AOT_stimuli/rescaled_final/0545_fw.mp4	0.0	226.68023991584778	0.9999780654907227
25	167.44071197509766	movie	1		247	23.0	2.5	/experiments/AOT/AOT_stimuli/rescaled_final/0545_fw.mp4	0.0	227.6802179813385	2.5000650882720947
25	167.82420110702515	pulse	1	t		23.0	2.5	/experiments/AOT/AOT_stimuli/rescaled_final/0545_fw.mp4	0.0	228.063707113266	
25	169.42423701286316	pulse	1	t		23.0	2.5	/experiments/AOT/AOT_stimuli/rescaled_final/0545_fw.mp4	0.0	229.663743019104	
25	169.94077706336975	fix_post	2		12	23.0	2.5	/experiments/AOT/AOT_stimuli/rescaled_final/0545_fw.mp4	0.0	230.1802830696106	0.09993982315063477
26	170.04071688652039	fix_pre	0		119	24.0	2.5	/experiments/AOT/AOT_stimuli/rescaled_final/0461_fw.mp4	0.0	230.28022289276123	0.9916291236877441
26	171.0242109298706	pulse	0	t		24.0	2.5	/experiments/AOT/AOT_stimuli/rescaled_final/0461_fw.mp4	0.0	231.26371693611145	
26	171.03234601020813	movie	1		248	24.0	2.5	/experiments/AOT/AOT_stimuli/rescaled_final/0461_fw.mp4	0.0	231.27185201644897	2.5084900856018066
26	172.62392902374268	pulse	1	t		24.0	2.5	/experiments/AOT/AOT_stimuli/rescaled_final/0461_fw.mp4	0.0	232.86343502998352	
26	173.54083609580994	fix_post	2		12	24.0	2.5	/experiments/AOT/AOT_stimuli/rescaled_final/0461_fw.mp4	0.0	233.78034210205078	0.09994292259216309
27	173.6407790184021	fix_pre	0		120	25.0	2.5	/experiments/AOT/AOT_stimuli/rescaled_final/0287_fw.mp4	0.0	233.88028502464294	0.999945878982544
27	174.22418403625488	pulse	0	t		25.0	2.5	/experiments/AOT/AOT_stimuli/rescaled_final/0287_fw.mp4	0.0	234.46369004249573	
27	174.64072489738464	movie	1		245	25.0	2.5	/experiments/AOT/AOT_stimuli/rescaled_final/0287_fw.mp4	0.0	234.8802309036255	2.4999279975891113
27	175.82423400878906	pulse	1	t		25.0	2.5	/experiments/AOT/AOT_stimuli/rescaled_final/0287_fw.mp4	0.0	236.0637400150299	
27	177.14065289497375	fix_post	2		12	25.0	2.5	/experiments/AOT/AOT_stimuli/rescaled_final/0287_fw.mp4	0.0	237.3801589012146	0.10011601448059082
28	177.24076890945435	fix_pre	0		120	26.0	2.5	blank	1.0	237.4802749156952	0.9999480247497559
28	177.42418909072876	pulse	0	t		26.0	2.5	blank	1.0	237.6636950969696	
28	178.2407169342041	movie	1		300	26.0	2.5	blank	1.0	238.48022294044495	2.500054121017456
28	179.02419090270996	pulse	1	t		26.0	2.5	blank	1.0	239.2636969089508	
28	180.62418508529663	pulse	1	t		26.0	2.5	blank	1.0	240.86369109153748	
28	180.74077105522156	fix_post	2		12	26.0	2.5	blank	1.0	240.9802770614624	0.09997701644897461
29	180.84074807167053	fix_pre	0		120	27.0	2.5	/experiments/AOT/AOT_stimuli/rescaled_final/1954_fw.mp4	0.0	241.08025407791138	1.0000278949737549
29	181.8407759666443	movie	1		244	27.0	2.5	/experiments/AOT/AOT_stimuli/rescaled_final/1954_fw.mp4	0.0	242.08028197288513	2.4995920658111572
29	182.2235460281372	pulse	1	t		27.0	2.5	/experiments/AOT/AOT_stimuli/rescaled_final/1954_fw.mp4	0.0	242.46305203437805	
29	183.82413411140442	pulse	1	t		27.0	2.5	/experiments/AOT/AOT_stimuli/rescaled_final/1954_fw.mp4	0.0	244.06364011764526	
29	184.34036803245544	fix_post	2		12	27.0	2.5	/experiments/AOT/AOT_stimuli/rescaled_final/1954_fw.mp4	0.0	244.5798740386963	0.10025191307067871
30	184.44061994552612	fix_pre	0		119	28.0	2.5	/experiments/AOT/AOT_stimuli/rescaled_final/1953_rv.mp4	0.0	244.68012595176697	0.9917690753936768
30	185.4241418838501	pulse	0	t		28.0	2.5	/experiments/AOT/AOT_stimuli/rescaled_final/1953_rv.mp4	0.0	245.66364789009094	
30	185.4323890209198	movie	1		245	28.0	2.5	/experiments/AOT/AOT_stimuli/rescaled_final/1953_rv.mp4	0.0	245.67189502716064	2.507859945297241
30	187.02368688583374	pulse	1	t		28.0	2.5	/experiments/AOT/AOT_stimuli/rescaled_final/1953_rv.mp4	0.0	247.26319289207458	
30	187.94024896621704	fix_post	2		12	28.0	2.5	/experiments/AOT/AOT_stimuli/rescaled_final/1953_rv.mp4	0.0	248.17975497245789	0.10045504570007324
31	188.04070401191711	fix_pre	0		120	29.0	2.5	/experiments/AOT/AOT_stimuli/rescaled_final/0643_fw.mp4	0.0	248.28021001815796	0.999945878982544
31	188.62420797348022	pulse	0	t		29.0	2.5	/experiments/AOT/AOT_stimuli/rescaled_final/0643_fw.mp4	0.0	248.86371397972107	
31	189.04064989089966	movie	1		245	29.0	2.5	/experiments/AOT/AOT_stimuli/rescaled_final/0643_fw.mp4	0.0	249.2801558971405	2.49957013130188
31	190.22414708137512	pulse	1	t		29.0	2.5	/experiments/AOT/AOT_stimuli/rescaled_final/0643_fw.mp4	0.0	250.46365308761597	
31	191.54022002220154	fix_post	2		12	29.0	2.5	/experiments/AOT/AOT_stimuli/rescaled_final/0643_fw.mp4	0.0	251.77972602844238	0.10039687156677246
32	191.6406168937683	fix_pre	0		120	30.0	2.5	/experiments/AOT/AOT_stimuli/rescaled_final/0545_rv.mp4	0.0	251.88012290000916	1.0001170635223389
32	191.8241229057312	pulse	0	t		30.0	2.5	/experiments/AOT/AOT_stimuli/rescaled_final/0545_rv.mp4	0.0	252.06362891197205	
32	192.64073395729065	movie	1		245	30.0	2.5	/experiments/AOT/AOT_stimuli/rescaled_final/0545_rv.mp4	0.0	252.8802399635315	2.499969959259033
32	193.4241280555725	pulse	1	t		30.0	2.5	/experiments/AOT/AOT_stimuli/rescaled_final/0545_rv.mp4	0.0	253.66363406181335	
32	195.02020692825317	pulse	1	t		30.0	2.5	/experiments/AOT/AOT_stimuli/rescaled_final/0545_rv.mp4	0.0	255.25971293449402	
32	195.14070391654968	fix_post	2		12	30.0	2.5	/experiments/AOT/AOT_stimuli/rescaled_final/0545_rv.mp4	0.0	255.38020992279053	0.09997105598449707
33	195.24067497253418	fix_pre	0		120	31.0	2.5	/experiments/AOT/AOT_stimuli/rescaled_final/2065_fw.mp4	0.0	255.48018097877502	0.9999210834503174
33	196.2405960559845	movie	1		246	31.0	2.5	/experiments/AOT/AOT_stimuli/rescaled_final/2065_fw.mp4	0.0	256.48010206222534	2.500082015991211
33	196.62499690055847	pulse	1	t		31.0	2.5	/experiments/AOT/AOT_stimuli/rescaled_final/2065_fw.mp4	0.0	256.8645029067993	
33	198.2240550518036	pulse	1	t		31.0	2.5	/experiments/AOT/AOT_stimuli/rescaled_final/2065_fw.mp4	0.0	258.46356105804443	
33	198.7406780719757	fix_post	2		12	31.0	2.5	/experiments/AOT/AOT_stimuli/rescaled_final/2065_fw.mp4	0.0	258.98018407821655	0.10000181198120117
34	198.8406798839569	fix_pre	0		119	32.0	2.5	/experiments/AOT/AOT_stimuli/rescaled_final/0287_rv.mp4	0.0	259.08018589019775	0.9916141033172607
34	199.82408595085144	pulse	0	t		32.0	2.5	/experiments/AOT/AOT_stimuli/rescaled_final/0287_rv.mp4	0.0	260.0635919570923	
34	199.83229398727417	movie	1		245	32.0	2.5	/experiments/AOT/AOT_stimuli/rescaled_final/0287_rv.mp4	0.0	260.071799993515	2.5083200931549072
34	201.42368507385254	pulse	1	t		32.0	2.5	/experiments/AOT/AOT_stimuli/rescaled_final/0287_rv.mp4	0.0	261.6631910800934	
34	202.34061408042908	fix_post	2		12	32.0	2.5	/experiments/AOT/AOT_stimuli/rescaled_final/0287_rv.mp4	0.0	262.5801200866699	0.10002398490905762
35	202.44063806533813	fix_pre	0		120	33.0	2.5	/experiments/AOT/AOT_stimuli/rescaled_final/1625_fw.mp4	0.0	262.680144071579	0.9995598793029785
35	203.02404189109802	pulse	0	t		33.0	2.5	/experiments/AOT/AOT_stimuli/rescaled_final/1625_fw.mp4	0.0	263.26354789733887	
35	203.4401979446411	movie	1		248	33.0	2.5	/experiments/AOT/AOT_stimuli/rescaled_final/1625_fw.mp4	0.0	263.67970395088196	2.5004820823669434
35	204.62370204925537	pulse	1	t		33.0	2.5	/experiments/AOT/AOT_stimuli/rescaled_final/1625_fw.mp4	0.0	264.8632080554962	
35	205.94068002700806	fix_post	2		12	33.0	2.5	/experiments/AOT/AOT_stimuli/rescaled_final/1625_fw.mp4	0.0	266.1801860332489	0.0996239185333252
36	206.04030394554138	fix_pre	0		120	34.0	2.5	/experiments/AOT/AOT_stimuli/rescaled_final/2061_rv.mp4	0.0	266.2798099517822	1.0003271102905273
36	206.22417306900024	pulse	0	t		34.0	2.5	/experiments/AOT/AOT_stimuli/rescaled_final/2061_rv.mp4	0.0	266.4636790752411	
36	207.0406310558319	movie	1		244	34.0	2.5	/experiments/AOT/AOT_stimuli/rescaled_final/2061_rv.mp4	0.0	267.28013706207275	2.4995059967041016
36	207.82400012016296	pulse	1	t		34.0	2.5	/experiments/AOT/AOT_stimuli/rescaled_final/2061_rv.mp4	0.0	268.0635061264038	
36	209.42267203330994	pulse	1	t		34.0	2.5	/experiments/AOT/AOT_stimuli/rescaled_final/2061_rv.mp4	0.0	269.6621780395508	
36	209.540137052536	fix_post	2		12	34.0	2.5	/experiments/AOT/AOT_stimuli/rescaled_final/2061_rv.mp4	0.0	269.77964305877686	0.10044598579406738
37	209.64058303833008	fix_pre	0		120	35.0	2.5	blank	1.0	269.8800890445709	0.9999699592590332
37	210.6405529975891	movie	1		300	35.0	2.5	blank	1.0	270.88005900382996	2.4994940757751465
37	211.02402901649475	pulse	1	t		35.0	2.5	blank	1.0	271.2635350227356	
37	212.62393999099731	pulse	1	t		35.0	2.5	blank	1.0	272.86344599723816	
37	213.14004707336426	fix_post	2		12	35.0	2.5	blank	1.0	273.3795530796051	0.10042786598205566
38	213.2404749393463	fix_pre	0		119	36.0	2.5	/experiments/AOT/AOT_stimuli/rescaled_final/1468_rv.mp4	0.0	273.47998094558716	0.9917559623718262
38	214.22402691841125	pulse	0	t		36.0	2.5	/experiments/AOT/AOT_stimuli/rescaled_final/1468_rv.mp4	0.0	274.4635329246521	
38	214.23223090171814	movie	1		247	36.0	2.5	/experiments/AOT/AOT_stimuli/rescaled_final/1468_rv.mp4	0.0	274.471736907959	2.508270025253296
38	215.82392692565918	pulse	1	t		36.0	2.5	/experiments/AOT/AOT_stimuli/rescaled_final/1468_rv.mp4	0.0	276.0634329319	
38	216.74050092697144	fix_post	2		12	36.0	2.5	/experiments/AOT/AOT_stimuli/rescaled_final/1468_rv.mp4	0.0	276.9800069332123	0.10001301765441895
39	216.84051394462585	fix_pre	0		120	37.0	2.5	/experiments/AOT/AOT_stimuli/rescaled_final/0457_rv.mp4	0.0	277.0800199508667	0.9999821186065674
39	217.42391896247864	pulse	0	t		37.0	2.5	/experiments/AOT/AOT_stimuli/rescaled_final/0457_rv.mp4	0.0	277.6634249687195	
39	217.84049606323242	movie	1		247	37.0	2.5	/experiments/AOT/AOT_stimuli/rescaled_final/0457_rv.mp4	0.0	278.08000206947327	2.500077962875366
39	219.02405095100403	pulse	1	t		37.0	2.5	/experiments/AOT/AOT_stimuli/rescaled_final/0457_rv.mp4	0.0	279.2635569572449	
39	220.3405740261078	fix_post	2		12	37.0	2.5	/experiments/AOT/AOT_stimuli/rescaled_final/0457_rv.mp4	0.0	280.58008003234863	0.09995007514953613
40	220.44052410125732	fix_pre	0		120	38.0	2.5	/experiments/AOT/AOT_stimuli/rescaled_final/0484_fw.mp4	0.0	280.68003010749817	0.9999527931213379
40	220.62401390075684	pulse	0	t		38.0	2.5	/experiments/AOT/AOT_stimuli/rescaled_final/0484_fw.mp4	0.0	280.8635199069977	
40	221.44047689437866	movie	1		245	38.0	2.5	/experiments/AOT/AOT_stimuli/rescaled_final/0484_fw.mp4	0.0	281.6799829006195	2.499580144882202
40	222.22392296791077	pulse	1	t		38.0	2.5	/experiments/AOT/AOT_stimuli/rescaled_final/0484_fw.mp4	0.0	282.4634289741516	
40	223.8200340270996	pulse	1	t		38.0	2.5	/experiments/AOT/AOT_stimuli/rescaled_final/0484_fw.mp4	0.0	284.05954003334045	
40	223.94005703926086	fix_post	2		12	38.0	2.5	/experiments/AOT/AOT_stimuli/rescaled_final/0484_fw.mp4	0.0	284.1795630455017	0.10041093826293945
41	224.0404679775238	fix_pre	0		120	39.0	2.5	/experiments/AOT/AOT_stimuli/rescaled_final/1342_fw.mp4	0.0	284.27997398376465	1.0000669956207275
41	225.04053497314453	movie	1		245	39.0	2.5	/experiments/AOT/AOT_stimuli/rescaled_final/1342_fw.mp4	0.0	285.2800409793854	2.4995031356811523
41	225.4230830669403	pulse	1	t		39.0	2.5	/experiments/AOT/AOT_stimuli/rescaled_final/1342_fw.mp4	0.0	285.66258907318115	
41	227.02386689186096	pulse	1	t		39.0	2.5	/experiments/AOT/AOT_stimuli/rescaled_final/1342_fw.mp4	0.0	287.2633728981018	
41	227.54003810882568	fix_post	2		12	39.0	2.5	/experiments/AOT/AOT_stimuli/rescaled_final/1342_fw.mp4	0.0	287.7795441150665	0.1003580093383789
42	227.64039611816406	fix_pre	0		119	40.0	2.5	/experiments/AOT/AOT_stimuli/rescaled_final/0643_fw.mp4	0.0	287.8799021244049	0.9917547702789307
42	228.62392592430115	pulse	0	t		40.0	2.5	/experiments/AOT/AOT_stimuli/rescaled_final/0643_fw.mp4	0.0	288.863431930542	
42	228.632150888443	movie	1		245	40.0	2.5	/experiments/AOT/AOT_stimuli/rescaled_final/0643_fw.mp4	0.0	288.87165689468384	2.5083560943603516
42	230.22369503974915	pulse	1	t		40.0	2.5	/experiments/AOT/AOT_stimuli/rescaled_final/0643_fw.mp4	0.0	290.46320104599	
42	231.14050698280334	fix_post	2		12	40.0	2.5	/experiments/AOT/AOT_stimuli/rescaled_final/0643_fw.mp4	0.0	291.3800129890442	0.09989094734191895
43	231.24039793014526	fix_pre	0		120	41.0	2.5	blank	1.0	291.4799039363861	0.999993085861206
43	231.82399201393127	pulse	0	t		41.0	2.5	blank	1.0	292.0634980201721	
43	232.24039101600647	movie	1		300	41.0	2.5	blank	1.0	292.4798970222473	2.500056028366089
43	233.42394495010376	pulse	1	t		41.0	2.5	blank	1.0	293.6634509563446	
43	234.74044704437256	fix_post	2		12	41.0	2.5	blank	1.0	294.9799530506134	0.1000058650970459
44	234.8404529094696	fix_pre	0		120	42.0	2.5	/experiments/AOT/AOT_stimuli/rescaled_final/1916_fw.mp4	0.0	295.07995891571045	0.9999752044677734
44	235.02395510673523	pulse	0	t		42.0	2.5	/experiments/AOT/AOT_stimuli/rescaled_final/1916_fw.mp4	0.0	295.2634611129761	
44	235.84042811393738	movie	1		246	42.0	2.5	/experiments/AOT/AOT_stimuli/rescaled_final/1916_fw.mp4	0.0	296.0799341201782	2.499969959259033
44	236.62387490272522	pulse	1	t		42.0	2.5	/experiments/AOT/AOT_stimuli/rescaled_final/1916_fw.mp4	0.0	296.86338090896606	
44	238.2224099636078	pulse	1	t		42.0	2.5	/experiments/AOT/AOT_stimuli/rescaled_final/1916_fw.mp4	0.0	298.46191596984863	
44	238.3403980731964	fix_post	2		12	42.0	2.5	/experiments/AOT/AOT_stimuli/rescaled_final/1916_fw.mp4	0.0	298.57990407943726	0.0999610424041748
45	238.4403591156006	fix_pre	0		120	43.0	2.5	/experiments/AOT/AOT_stimuli/rescaled_final/1206_rv.mp4	0.0	298.67986512184143	1.000065803527832
45	239.44042491912842	movie	1		247	43.0	2.5	/experiments/AOT/AOT_stimuli/rescaled_final/1206_rv.mp4	0.0	299.67993092536926	2.500042200088501
45	239.82403206825256	pulse	1	t		43.0	2.5	/experiments/AOT/AOT_stimuli/rescaled_final/1206_rv.mp4	0.0	300.0635380744934	
45	241.423926115036	pulse	1	t		43.0	2.5	/experiments/AOT/AOT_stimuli/rescaled_final/1206_rv.mp4	0.0	301.66343212127686	
45	241.94046711921692	fix_post	2		12	43.0	2.5	/experiments/AOT/AOT_stimuli/rescaled_final/1206_rv.mp4	0.0	302.17997312545776	0.09990882873535156
46	242.04037594795227	fix_pre	0		119	44.0	2.5	/experiments/AOT/AOT_stimuli/rescaled_final/0588_fw.mp4	0.0	302.2798819541931	0.9917049407958984
46	243.02390909194946	pulse	0	t		44.0	2.5	/experiments/AOT/AOT_stimuli/rescaled_final/0588_fw.mp4	0.0	303.2634150981903	
46	243.03208088874817	movie	1		246	44.0	2.5	/experiments/AOT/AOT_stimuli/rescaled_final/0588_fw.mp4	0.0	303.271586894989	2.5083281993865967
46	244.62351393699646	pulse	1	t		44.0	2.5	/experiments/AOT/AOT_stimuli/rescaled_final/0588_fw.mp4	0.0	304.8630199432373	
46	245.54040908813477	fix_post	2		12	44.0	2.5	/experiments/AOT/AOT_stimuli/rescaled_final/0588_fw.mp4	0.0	305.7799150943756	0.09997081756591797
47	245.64037990570068	fix_pre	0		120	45.0	2.5	/experiments/AOT/AOT_stimuli/rescaled_final/1363_fw.mp4	0.0	305.8798859119415	0.9999370574951172
47	246.22380805015564	pulse	0	t		45.0	2.5	/experiments/AOT/AOT_stimuli/rescaled_final/1363_fw.mp4	0.0	306.4633140563965	
47	246.6403169631958	movie	1		245	45.0	2.5	/experiments/AOT/AOT_stimuli/rescaled_final/1363_fw.mp4	0.0	306.87982296943665	2.500009059906006
47	247.82383704185486	pulse	1	t		45.0	2.5	/experiments/AOT/AOT_stimuli/rescaled_final/1363_fw.mp4	0.0	308.0633430480957	
47	249.1403260231018	fix_post	2		12	45.0	2.5	/experiments/AOT/AOT_stimuli/rescaled_final/1363_fw.mp4	0.0	309.37983202934265	0.1000058650970459
48	249.24033188819885	fix_pre	0		120	46.0	2.5	/experiments/AOT/AOT_stimuli/rescaled_final/1157_fw.mp4	0.0	309.4798378944397	1.0000851154327393
48	249.42371201515198	pulse	0	t		46.0	2.5	/experiments/AOT/AOT_stimuli/rescaled_final/1157_fw.mp4	0.0	309.6632180213928	
48	250.2404170036316	movie	1		244	46.0	2.5	/experiments/AOT/AOT_stimuli/rescaled_final/1157_fw.mp4	0.0	310.47992300987244	2.499969005584717
48	251.0238389968872	pulse	1	t		46.0	2.5	/experiments/AOT/AOT_stimuli/rescaled_final/1157_fw.mp4	0.0	311.26334500312805	
48	252.61988306045532	pulse	1	t		46.0	2.5	/experiments/AOT/AOT_stimuli/rescaled_final/1157_fw.mp4	0.0	312.85938906669617	
48	252.7403860092163	fix_post	2		12	46.0	2.5	/experiments/AOT/AOT_stimuli/rescaled_final/1157_fw.mp4	0.0	312.97989201545715	0.10005497932434082
49	252.84044098854065	fix_pre	0		120	47.0	2.5	/experiments/AOT/AOT_stimuli/rescaled_final/1311_fw.mp4	0.0	313.0799469947815	0.9999549388885498
49	253.8403959274292	movie	1		245	47.0	2.5	/experiments/AOT/AOT_stimuli/rescaled_final/1311_fw.mp4	0.0	314.07990193367004	2.49957013130188
49	254.22389698028564	pulse	1	t		47.0	2.5	/experiments/AOT/AOT_stimuli/rescaled_final/1311_fw.mp4	0.0	314.4634029865265	
49	255.82382106781006	pulse	1	t		47.0	2.5	/experiments/AOT/AOT_stimuli/rescaled_final/1311_fw.mp4	0.0	316.0633270740509	
49	256.3399660587311	fix_post	2		12	47.0	2.5	/experiments/AOT/AOT_stimuli/rescaled_final/1311_fw.mp4	0.0	316.5794720649719	0.10037803649902344
50	256.4403440952301	fix_pre	0		119	48.0	2.5	/experiments/AOT/AOT_stimuli/rescaled_final/1866_fw.mp4	0.0	316.67985010147095	0.9915928840637207
50	257.4238169193268	pulse	0	t		48.0	2.5	/experiments/AOT/AOT_stimuli/rescaled_final/1866_fw.mp4	0.0	317.6633229255676	
50	257.4319369792938	movie	1		248	48.0	2.5	/experiments/AOT/AOT_stimuli/rescaled_final/1866_fw.mp4	0.0	317.67144298553467	2.508435010910034
50	259.02344608306885	pulse	1	t		48.0	2.5	/experiments/AOT/AOT_stimuli/rescaled_final/1866_fw.mp4	0.0	319.2629520893097	
50	259.94037199020386	fix_post	2		12	48.0	2.5	/experiments/AOT/AOT_stimuli/rescaled_final/1866_fw.mp4	0.0	320.1798779964447	0.09960603713989258
51	260.03997802734375	fix_pre	0		120	49.0	2.5	blank	1.0	320.2794840335846	0.9999849796295166
51	260.62330293655396	pulse	0	t		49.0	2.5	blank	1.0	320.8628089427948	
51	261.03996300697327	movie	1		300	49.0	2.5	blank	1.0	321.2794690132141	2.5003530979156494
51	262.2235760688782	pulse	1	t		49.0	2.5	blank	1.0	322.463082075119	
51	263.5403161048889	fix_post	2		12	49.0	2.5	blank	1.0	323.77982211112976	0.09995889663696289
52	263.6402750015259	fix_pre	0		120	50.0	2.5	/experiments/AOT/AOT_stimuli/rescaled_final/1916_rv.mp4	0.0	323.8797810077667	0.9997100830078125
52	263.82376408576965	pulse	0	t		50.0	2.5	/experiments/AOT/AOT_stimuli/rescaled_final/1916_rv.mp4	0.0	324.0632700920105	
52	264.6399850845337	movie	1		246	50.0	2.5	/experiments/AOT/AOT_stimuli/rescaled_final/1916_rv.mp4	0.0	324.87949109077454	2.500269889831543
52	265.4236669540405	pulse	1	t		50.0	2.5	/experiments/AOT/AOT_stimuli/rescaled_final/1916_rv.mp4	0.0	325.6631729602814	
52	267.02215003967285	pulse	1	t		50.0	2.5	/experiments/AOT/AOT_stimuli/rescaled_final/1916_rv.mp4	0.0	327.2616560459137	
52	267.14025497436523	fix_post	2		12	50.0	2.5	/experiments/AOT/AOT_stimuli/rescaled_final/1916_rv.mp4	0.0	327.3797609806061	0.10008692741394043
53	267.2403419017792	fix_pre	0		120	51.0	2.5	/experiments/AOT/AOT_stimuli/rescaled_final/1943_rv.mp4	0.0	327.47984790802	0.9994192123413086
53	268.2397611141205	movie	1		244	51.0	2.5	/experiments/AOT/AOT_stimuli/rescaled_final/1943_rv.mp4	0.0	328.4792671203613	2.5004799365997314
53	268.6233959197998	pulse	1	t		51.0	2.5	/experiments/AOT/AOT_stimuli/rescaled_final/1943_rv.mp4	0.0	328.86290192604065	
53	270.2236680984497	pulse	1	t		51.0	2.5	/experiments/AOT/AOT_stimuli/rescaled_final/1943_rv.mp4	0.0	330.46317410469055	
53	270.7402410507202	fix_post	2		12	51.0	2.5	/experiments/AOT/AOT_stimuli/rescaled_final/1943_rv.mp4	0.0	330.97974705696106	0.0999300479888916
54	270.8401710987091	fix_pre	0		119	52.0	2.5	/experiments/AOT/AOT_stimuli/rescaled_final/1244_fw.mp4	0.0	331.07967710494995	0.9917190074920654
54	271.8236548900604	pulse	0	t		52.0	2.5	/experiments/AOT/AOT_stimuli/rescaled_final/1244_fw.mp4	0.0	332.06316089630127	
54	271.8318901062012	movie	1		246	52.0	2.5	/experiments/AOT/AOT_stimuli/rescaled_final/1244_fw.mp4	0.0	332.071396112442	2.5083367824554443
54	273.4234929084778	pulse	1	t		52.0	2.5	/experiments/AOT/AOT_stimuli/rescaled_final/1244_fw.mp4	0.0	333.6629989147186	
54	274.3402268886566	fix_post	2		12	52.0	2.5	/experiments/AOT/AOT_stimuli/rescaled_final/1244_fw.mp4	0.0	334.57973289489746	0.09997010231018066
55	274.4401969909668	fix_pre	0		120	53.0	2.5	/experiments/AOT/AOT_stimuli/rescaled_final/0172_rv.mp4	0.0	334.67970299720764	1.000054121017456
55	275.02368903160095	pulse	0	t		53.0	2.5	/experiments/AOT/AOT_stimuli/rescaled_final/0172_rv.mp4	0.0	335.2631950378418	
55	275.44025111198425	movie	1		245	53.0	2.5	/experiments/AOT/AOT_stimuli/rescaled_final/0172_rv.mp4	0.0	335.6797571182251	2.499912977218628
55	276.6237258911133	pulse	1	t		53.0	2.5	/experiments/AOT/AOT_stimuli/rescaled_final/0172_rv.mp4	0.0	336.8632318973541	
55	277.9401640892029	fix_post	2		12	53.0	2.5	/experiments/AOT/AOT_stimuli/rescaled_final/0172_rv.mp4	0.0	338.1796700954437	0.10004901885986328
56	278.04021310806274	fix_pre	0		120	54.0	2.5	/experiments/AOT/AOT_stimuli/rescaled_final/0041_rv.mp4	0.0	338.2797191143036	1.0000488758087158
56	278.223659992218	pulse	0	t		54.0	2.5	/experiments/AOT/AOT_stimuli/rescaled_final/0041_rv.mp4	0.0	338.46316599845886	
56	279.04026198387146	movie	1		247	54.0	2.5	/experiments/AOT/AOT_stimuli/rescaled_final/0041_rv.mp4	0.0	339.2797679901123	2.4999120235443115
56	279.8236839771271	pulse	1	t		54.0	2.5	/experiments/AOT/AOT_stimuli/rescaled_final/0041_rv.mp4	0.0	340.0631899833679	
56	281.423700094223	pulse	1	t		54.0	2.5	/experiments/AOT/AOT_stimuli/rescaled_final/0041_rv.mp4	0.0	341.66320610046387	
56	281.54017400741577	fix_post	2		12	54.0	2.5	/experiments/AOT/AOT_stimuli/rescaled_final/0041_rv.mp4	0.0	341.7796800136566	0.10003399848937988
57	281.64020800590515	fix_pre	0		120	55.0	2.5	blank	1.0	341.879714012146	0.9998729228973389
57	282.6400809288025	movie	1		300	55.0	2.5	blank	1.0	342.87958693504333	2.5000481605529785
57	283.02363991737366	pulse	1	t		55.0	2.5	blank	1.0	343.2631459236145	
57	284.62362909317017	pulse	1	t		55.0	2.5	blank	1.0	344.863135099411	
57	285.14012908935547	fix_post	2		12	55.0	2.5	blank	1.0	345.3796350955963	0.1000368595123291
58	285.2401659488678	fix_pre	0		119	56.0	2.5	/experiments/AOT/AOT_stimuli/rescaled_final/0202_rv.mp4	0.0	345.47967195510864	0.9916081428527832
58	286.22366189956665	pulse	0	t		56.0	2.5	/experiments/AOT/AOT_stimuli/rescaled_final/0202_rv.mp4	0.0	346.4631679058075	
58	286.2317740917206	movie	1		247	56.0	2.5	/experiments/AOT/AOT_stimuli/rescaled_final/0202_rv.mp4	0.0	346.4712800979614	2.5083439350128174
58	287.82345390319824	pulse	1	t		56.0	2.5	/experiments/AOT/AOT_stimuli/rescaled_final/0202_rv.mp4	0.0	348.0629599094391	
58	288.7401180267334	fix_post	2		12	56.0	2.5	/experiments/AOT/AOT_stimuli/rescaled_final/0202_rv.mp4	0.0	348.97962403297424	0.10009503364562988
59	288.840213060379	fix_pre	0		120	57.0	2.5	/experiments/AOT/AOT_stimuli/rescaled_final/1029_fw.mp4	0.0	349.0797190666199	0.9999079704284668
59	289.4236319065094	pulse	0	t		57.0	2.5	/experiments/AOT/AOT_stimuli/rescaled_final/1029_fw.mp4	0.0	349.66313791275024	
59	289.8401210308075	movie	1		244	57.0	2.5	/experiments/AOT/AOT_stimuli/rescaled_final/1029_fw.mp4	0.0	350.07962703704834	2.4996070861816406
59	291.02357292175293	pulse	1	t		57.0	2.5	/experiments/AOT/AOT_stimuli/rescaled_final/1029_fw.mp4	0.0	351.2630789279938	
59	292.33972811698914	fix_post	2		12	57.0	2.5	/experiments/AOT/AOT_stimuli/rescaled_final/1029_fw.mp4	0.0	352.57923412323	0.10047483444213867
60	292.4402029514313	fix_pre	0		120	58.0	2.5	/experiments/AOT/AOT_stimuli/rescaled_final/1394_fw.mp4	0.0	352.6797089576721	1.000020980834961
60	292.6236569881439	pulse	0	t		58.0	2.5	/experiments/AOT/AOT_stimuli/rescaled_final/1394_fw.mp4	0.0	352.86316299438477	
60	293.44022393226624	movie	1		244	58.0	2.5	/experiments/AOT/AOT_stimuli/rescaled_final/1394_fw.mp4	0.0	353.6797299385071	2.4998550415039062
60	294.22367906570435	pulse	1	t		58.0	2.5	/experiments/AOT/AOT_stimuli/rescaled_final/1394_fw.mp4	0.0	354.4631850719452	
60	295.822252035141	pulse	1	t		58.0	2.5	/experiments/AOT/AOT_stimuli/rescaled_final/1394_fw.mp4	0.0	356.06175804138184	
60	295.94007897377014	fix_post	2		12	58.0	2.5	/experiments/AOT/AOT_stimuli/rescaled_final/1394_fw.mp4	0.0	356.179584980011	0.1000070571899414
61	296.0400860309601	fix_pre	0		120	59.0	2.5	/experiments/AOT/AOT_stimuli/rescaled_final/0643_rv.mp4	0.0	356.2795920372009	1.0001170635223389
61	297.0402030944824	movie	1		244	59.0	2.5	/experiments/AOT/AOT_stimuli/rescaled_final/0643_rv.mp4	0.0	357.27970910072327	2.4999489784240723
61	297.42284202575684	pulse	1	t		59.0	2.5	/experiments/AOT/AOT_stimuli/rescaled_final/0643_rv.mp4	0.0	357.6623480319977	
61	299.02370500564575	pulse	1	t		59.0	2.5	/experiments/AOT/AOT_stimuli/rescaled_final/0643_rv.mp4	0.0	359.2632110118866	
61	299.5401520729065	fix_post	2		12	59.0	2.5	/experiments/AOT/AOT_stimuli/rescaled_final/0643_rv.mp4	0.0	359.77965807914734	0.10000300407409668
62	299.6401550769806	fix_pre	0		119	60.0	2.5	/experiments/AOT/AOT_stimuli/rescaled_final/1950_fw.mp4	0.0	359.87966108322144	0.9915769100189209
62	300.62354707717896	pulse	0	t		60.0	2.5	/experiments/AOT/AOT_stimuli/rescaled_final/1950_fw.mp4	0.0	360.8630530834198	
62	300.6317319869995	movie	1		247	60.0	2.5	/experiments/AOT/AOT_stimuli/rescaled_final/1950_fw.mp4	0.0	360.87123799324036	2.5083611011505127
62	302.22347807884216	pulse	1	t		60.0	2.5	/experiments/AOT/AOT_stimuli/rescaled_final/1950_fw.mp4	0.0	362.462984085083	
62	303.14009308815	fix_post	2		12	60.0	2.5	/experiments/AOT/AOT_stimuli/rescaled_final/1950_fw.mp4	0.0	363.37959909439087	0.10002779960632324
63	303.24012088775635	fix_pre	0		120	61.0	2.5	/experiments/AOT/AOT_stimuli/rescaled_final/1914_fw.mp4	0.0	363.4796268939972	0.999967098236084
63	303.82360100746155	pulse	0	t		61.0	2.5	/experiments/AOT/AOT_stimuli/rescaled_final/1914_fw.mp4	0.0	364.0631070137024	
63	304.24008798599243	movie	1		246	61.0	2.5	/experiments/AOT/AOT_stimuli/rescaled_final/1914_fw.mp4	0.0	364.4795939922333	2.500006914138794
63	305.42357110977173	pulse	1	t		61.0	2.5	/experiments/AOT/AOT_stimuli/rescaled_final/1914_fw.mp4	0.0	365.6630771160126	
63	306.7400949001312	fix_post	2		12	61.0	2.5	/experiments/AOT/AOT_stimuli/rescaled_final/1914_fw.mp4	0.0	366.97960090637207	0.0999910831451416
64	306.84008598327637	fix_pre	0		120	62.0	2.5	/experiments/AOT/AOT_stimuli/rescaled_final/0050_fw.mp4	0.0	367.0795919895172	0.9995570182800293
64	307.0235719680786	pulse	0	t		62.0	2.5	/experiments/AOT/AOT_stimuli/rescaled_final/0050_fw.mp4	0.0	367.26307797431946	
64	307.8396430015564	movie	1		245	62.0	2.5	/experiments/AOT/AOT_stimuli/rescaled_final/0050_fw.mp4	0.0	368.07914900779724	2.5004749298095703
64	308.6235320568085	pulse	1	t		62.0	2.5	/experiments/AOT/AOT_stimuli/rescaled_final/0050_fw.mp4	0.0	368.8630380630493	
64	310.2234950065613	pulse	1	t		62.0	2.5	/experiments/AOT/AOT_stimuli/rescaled_final/0050_fw.mp4	0.0	370.4630010128021	
64	310.34011793136597	fix_post	2		12	62.0	2.5	/experiments/AOT/AOT_stimuli/rescaled_final/0050_fw.mp4	0.0	370.5796239376068	0.09990310668945312
65	310.4400210380554	fix_pre	0		120	63.0	2.5	blank	1.0	370.67952704429626	1.0001940727233887
65	311.4402151107788	movie	1		300	63.0	2.5	blank	1.0	371.67972111701965	2.4999818801879883
65	311.82351899147034	pulse	1	t		63.0	2.5	blank	1.0	372.0630249977112	
65	313.4234359264374	pulse	1	t		63.0	2.5	blank	1.0	373.6629419326782	
65	313.9401969909668	fix_post	2		12	63.0	2.5	blank	1.0	374.17970299720764	0.0998690128326416
66	314.04006600379944	fix_pre	0		119	64.0	2.5	/experiments/AOT/AOT_stimuli/rescaled_final/1220_fw.mp4	0.0	374.2795720100403	0.9916739463806152
66	315.0234899520874	pulse	0	t		64.0	2.5	/experiments/AOT/AOT_stimuli/rescaled_final/1220_fw.mp4	0.0	375.26299595832825	
66	315.03173995018005	movie	1		246	64.0	2.5	/experiments/AOT/AOT_stimuli/rescaled_final/1220_fw.mp4	0.0	375.2712459564209	2.5085091590881348
66	316.6225891113281	pulse	1	t		64.0	2.5	/experiments/AOT/AOT_stimuli/rescaled_final/1220_fw.mp4	0.0	376.86209511756897	
66	317.5402491092682	fix_post	2		12	64.0	2.5	/experiments/AOT/AOT_stimuli/rescaled_final/1220_fw.mp4	0.0	377.77975511550903	0.09993791580200195
67	317.6401870250702	fix_pre	0		120	65.0	2.5	/experiments/AOT/AOT_stimuli/rescaled_final/1692_rv.mp4	0.0	377.87969303131104	1.000114917755127
67	318.22367000579834	pulse	0	t		65.0	2.5	/experiments/AOT/AOT_stimuli/rescaled_final/1692_rv.mp4	0.0	378.4631760120392	
67	318.6403019428253	movie	1		244	65.0	2.5	/experiments/AOT/AOT_stimuli/rescaled_final/1692_rv.mp4	0.0	378.87980794906616	2.4997119903564453
67	319.82354402542114	pulse	1	t		65.0	2.5	/experiments/AOT/AOT_stimuli/rescaled_final/1692_rv.mp4	0.0	380.063050031662	
67	321.14001393318176	fix_post	2		12	65.0	2.5	/experiments/AOT/AOT_stimuli/rescaled_final/1692_rv.mp4	0.0	381.3795199394226	0.09957098960876465
68	321.2395849227905	fix_pre	0		120	66.0	2.5	/experiments/AOT/AOT_stimuli/rescaled_final/1220_rv.mp4	0.0	381.4790909290314	1.0004370212554932
68	321.42351388931274	pulse	0	t		66.0	2.5	/experiments/AOT/AOT_stimuli/rescaled_final/1220_rv.mp4	0.0	381.6630198955536	
68	322.240021944046	movie	1		243	66.0	2.5	/experiments/AOT/AOT_stimuli/rescaled_final/1220_rv.mp4	0.0	382.47952795028687	2.499988079071045
68	323.0234830379486	pulse	1	t		66.0	2.5	/experiments/AOT/AOT_stimuli/rescaled_final/1220_rv.mp4	0.0	383.26298904418945	
68	324.62224411964417	pulse	1	t		66.0	2.5	/experiments/AOT/AOT_stimuli/rescaled_final/1220_rv.mp4	0.0	384.861750125885	
68	324.74001002311707	fix_post	2		12	66.0	2.5	/experiments/AOT/AOT_stimuli/rescaled_final/1220_rv.mp4	0.0	384.9795160293579	0.09991908073425293
69	324.8399291038513	fix_pre	0		120	67.0	2.5	/experiments/AOT/AOT_stimuli/rescaled_final/2054_rv.mp4	0.0	385.07943511009216	1.0000758171081543
69	325.8400049209595	movie	1		247	67.0	2.5	/experiments/AOT/AOT_stimuli/rescaled_final/2054_rv.mp4	0.0	386.0795109272003	2.4995851516723633
69	326.2229959964752	pulse	1	t		67.0	2.5	/experiments/AOT/AOT_stimuli/rescaled_final/2054_rv.mp4	0.0	386.46250200271606	
69	327.82338094711304	pulse	1	t		67.0	2.5	/experiments/AOT/AOT_stimuli/rescaled_final/2054_rv.mp4	0.0	388.0628869533539	
69	328.33959007263184	fix_post	2		12	67.0	2.5	/experiments/AOT/AOT_stimuli/rescaled_final/2054_rv.mp4	0.0	388.5790960788727	0.10028696060180664
70	328.43987703323364	fix_pre	0		119	68.0	2.5	/experiments/AOT/AOT_stimuli/rescaled_final/1746_fw.mp4	0.0	388.6793830394745	0.9917449951171875
70	329.4234359264374	pulse	0	t		68.0	2.5	/experiments/AOT/AOT_stimuli/rescaled_final/1746_fw.mp4	0.0	389.6629419326782	
70	329.43162202835083	movie	1		247	68.0	2.5	/experiments/AOT/AOT_stimuli/rescaled_final/1746_fw.mp4	0.0	389.6711280345917	2.5079078674316406
70	331.0231890678406	pulse	1	t		68.0	2.5	/experiments/AOT/AOT_stimuli/rescaled_final/1746_fw.mp4	0.0	391.2626950740814	
70	331.93952989578247	fix_post	2		12	68.0	2.5	/experiments/AOT/AOT_stimuli/rescaled_final/1746_fw.mp4	0.0	392.1790359020233	0.1005702018737793
71	332.04010009765625	fix_pre	0		120	69.0	2.5	/experiments/AOT/AOT_stimuli/rescaled_final/1933_rv.mp4	0.0	392.2796061038971	0.9998068809509277
71	332.6233808994293	pulse	0	t		69.0	2.5	/experiments/AOT/AOT_stimuli/rescaled_final/1933_rv.mp4	0.0	392.86288690567017	
71	333.0399069786072	movie	1		247	69.0	2.5	/experiments/AOT/AOT_stimuli/rescaled_final/1933_rv.mp4	0.0	393.279412984848	2.5001330375671387
71	334.2234480381012	pulse	1	t		69.0	2.5	/experiments/AOT/AOT_stimuli/rescaled_final/1933_rv.mp4	0.0	394.46295404434204	
71	335.5400400161743	fix_post	2		12	69.0	2.5	/experiments/AOT/AOT_stimuli/rescaled_final/1933_rv.mp4	0.0	395.77954602241516	0.09989690780639648
72	335.6399369239807	fix_pre	0		120	70.0	2.5	blank	1.0	395.87944293022156	1.000068187713623
72	335.82342004776	pulse	0	t		70.0	2.5	blank	1.0	396.06292605400085	
72	336.64000511169434	movie	1		300	70.0	2.5	blank	1.0	396.8795111179352	2.4999330043792725
72	337.42340993881226	pulse	1	t		70.0	2.5	blank	1.0	397.6629159450531	
72	339.0233769416809	pulse	1	t		70.0	2.5	blank	1.0	399.26288294792175	
72	339.1399381160736	fix_post	2		12	70.0	2.5	blank	1.0	399.37944412231445	0.09971189498901367
73	339.2396500110626	fix_pre	0		120	71.0	2.5	/experiments/AOT/AOT_stimuli/rescaled_final/0673_rv.mp4	0.0	399.47915601730347	1.0002551078796387
73	340.23990511894226	movie	1		245	71.0	2.5	/experiments/AOT/AOT_stimuli/rescaled_final/0673_rv.mp4	0.0	400.4794111251831	2.500013828277588
73	340.6235520839691	pulse	1	t		71.0	2.5	/experiments/AOT/AOT_stimuli/rescaled_final/0673_rv.mp4	0.0	400.86305809020996	
73	342.22334599494934	pulse	1	t		71.0	2.5	/experiments/AOT/AOT_stimuli/rescaled_final/0673_rv.mp4	0.0	402.4628520011902	
73	342.73991894721985	fix_post	2		12	71.0	2.5	/experiments/AOT/AOT_stimuli/rescaled_final/0673_rv.mp4	0.0	402.9794249534607	0.09997916221618652
74	342.83989810943604	fix_pre	0		119	72.0	2.5	/experiments/AOT/AOT_stimuli/rescaled_final/1434_fw.mp4	0.0	403.0794041156769	0.9916279315948486
74	343.823401927948	pulse	0	t		72.0	2.5	/experiments/AOT/AOT_stimuli/rescaled_final/1434_fw.mp4	0.0	404.06290793418884	
74	343.8315260410309	movie	1		245	72.0	2.5	/experiments/AOT/AOT_stimuli/rescaled_final/1434_fw.mp4	0.0	404.07103204727173	2.507920026779175
74	345.4242649078369	pulse	1	t		72.0	2.5	/experiments/AOT/AOT_stimuli/rescaled_final/1434_fw.mp4	0.0	405.66377091407776	
74	346.33944606781006	fix_post	2		12	72.0	2.5	/experiments/AOT/AOT_stimuli/rescaled_final/1434_fw.mp4	0.0	406.5789520740509	0.10041403770446777
75	346.4398601055145	fix_pre	0		120	73.0	2.5	/experiments/AOT/AOT_stimuli/rescaled_final/1588_rv.mp4	0.0	406.67936611175537	0.9999358654022217
75	347.0233769416809	pulse	0	t		73.0	2.5	/experiments/AOT/AOT_stimuli/rescaled_final/1588_rv.mp4	0.0	407.26288294792175	
75	347.43979597091675	movie	1		250	73.0	2.5	/experiments/AOT/AOT_stimuli/rescaled_final/1588_rv.mp4	0.0	407.6793019771576	2.500072956085205
75	348.6234710216522	pulse	1	t		73.0	2.5	/experiments/AOT/AOT_stimuli/rescaled_final/1588_rv.mp4	0.0	408.86297702789307	
75	349.93986892700195	fix_post	2		12	73.0	2.5	/experiments/AOT/AOT_stimuli/rescaled_final/1588_rv.mp4	0.0	410.1793749332428	0.10018610954284668
76	350.0400550365448	fix_pre	0		120	74.0	2.5	/experiments/AOT/AOT_stimuli/rescaled_final/0108_rv.mp4	0.0	410.27956104278564	0.9998428821563721
76	350.2234630584717	pulse	0	t		74.0	2.5	/experiments/AOT/AOT_stimuli/rescaled_final/0108_rv.mp4	0.0	410.4629690647125	
76	351.0398979187012	movie	1		250	74.0	2.5	/experiments/AOT/AOT_stimuli/rescaled_final/0108_rv.mp4	0.0	411.279403924942	2.499920129776001
76	351.82339096069336	pulse	1	t		74.0	2.5	/experiments/AOT/AOT_stimuli/rescaled_final/0108_rv.mp4	0.0	412.0628969669342	
76	353.4233469963074	pulse	1	t		74.0	2.5	/experiments/AOT/AOT_stimuli/rescaled_final/0108_rv.mp4	0.0	413.6628530025482	
76	353.5398180484772	fix_post	2		12	74.0	2.5	/experiments/AOT/AOT_stimuli/rescaled_final/0108_rv.mp4	0.0	413.779324054718	0.10006594657897949
77	353.63988399505615	fix_pre	0		120	75.0	2.5	/experiments/AOT/AOT_stimuli/rescaled_final/0287_fw.mp4	0.0	413.879390001297	0.9999411106109619
77	354.6398251056671	movie	1		244	75.0	2.5	/experiments/AOT/AOT_stimuli/rescaled_final/0287_fw.mp4	0.0	414.87933111190796	2.500079870223999
77	355.0234229564667	pulse	1	t		75.0	2.5	/experiments/AOT/AOT_stimuli/rescaled_final/0287_fw.mp4	0.0	415.2629289627075	
77	356.6232678890228	pulse	1	t		75.0	2.5	/experiments/AOT/AOT_stimuli/rescaled_final/0287_fw.mp4	0.0	416.8627738952637	
77	357.1399049758911	fix_post	2		12	75.0	2.5	/experiments/AOT/AOT_stimuli/rescaled_final/0287_fw.mp4	0.0	417.37941098213196	0.0999910831451416
78	357.23989605903625	fix_pre	0		119	76.0	2.5	/experiments/AOT/AOT_stimuli/rescaled_final/1220_fw.mp4	0.0	417.4794020652771	0.9916579723358154
78	358.2233250141144	pulse	0	t		76.0	2.5	/experiments/AOT/AOT_stimuli/rescaled_final/1220_fw.mp4	0.0	418.4628310203552	
78	358.23155403137207	movie	1		246	76.0	2.5	/experiments/AOT/AOT_stimuli/rescaled_final/1220_fw.mp4	0.0	418.4710600376129	2.5083119869232178
78	359.82318902015686	pulse	1	t		76.0	2.5	/experiments/AOT/AOT_stimuli/rescaled_final/1220_fw.mp4	0.0	420.0626950263977	
78	360.7398660182953	fix_post	2		12	76.0	2.5	/experiments/AOT/AOT_stimuli/rescaled_final/1220_fw.mp4	0.0	420.97937202453613	0.10001206398010254
79	360.8398780822754	fix_pre	0		120	77.0	2.5	blank	1.0	421.07938408851624	0.9995789527893066
79	361.4232850074768	pulse	0	t		77.0	2.5	blank	1.0	421.66279101371765	
79	361.8394570350647	movie	1		300	77.0	2.5	blank	1.0	422.07896304130554	2.50042986869812
79	363.02335596084595	pulse	1	t		77.0	2.5	blank	1.0	423.2628619670868	
79	364.3398869037628	fix_post	2		12	77.0	2.5	blank	1.0	424.57939291000366	0.09955120086669922
80	364.4394381046295	fix_pre	0		120	78.0	2.5	/experiments/AOT/AOT_stimuli/rescaled_final/1650_fw.mp4	0.0	424.67894411087036	0.9999799728393555
80	364.62323808670044	pulse	0	t		78.0	2.5	/experiments/AOT/AOT_stimuli/rescaled_final/1650_fw.mp4	0.0	424.8627440929413	
80	365.4394180774689	movie	1		244	78.0	2.5	/experiments/AOT/AOT_stimuli/rescaled_final/1650_fw.mp4	0.0	425.6789240837097	2.5
80	366.2232849597931	pulse	1	t		78.0	2.5	/experiments/AOT/AOT_stimuli/rescaled_final/1650_fw.mp4	0.0	426.46279096603394	
80	367.8232879638672	pulse	1	t		78.0	2.5	/experiments/AOT/AOT_stimuli/rescaled_final/1650_fw.mp4	0.0	428.06279397010803	
80	367.9394180774689	fix_post	2		12	78.0	2.5	/experiments/AOT/AOT_stimuli/rescaled_final/1650_fw.mp4	0.0	428.1789240837097	0.10039496421813965
81	368.039813041687	fix_pre	0		120	79.0	2.5	/experiments/AOT/AOT_stimuli/rescaled_final/1490_fw.mp4	0.0	428.27931904792786	0.9996719360351562
81	369.03948497772217	movie	1		243	79.0	2.5	/experiments/AOT/AOT_stimuli/rescaled_final/1490_fw.mp4	0.0	429.278990983963	2.499953031539917
81	369.4244530200958	pulse	1	t		79.0	2.5	/experiments/AOT/AOT_stimuli/rescaled_final/1490_fw.mp4	0.0	429.66395902633667	
81	371.02322697639465	pulse	1	t		79.0	2.5	/experiments/AOT/AOT_stimuli/rescaled_final/1490_fw.mp4	0.0	431.2627329826355	
81	371.5394380092621	fix_post	2		12	79.0	2.5	/experiments/AOT/AOT_stimuli/rescaled_final/1490_fw.mp4	0.0	431.77894401550293	0.10044097900390625
82	371.639878988266	fix_pre	0		119	80.0	2.5	/experiments/AOT/AOT_stimuli/rescaled_final/1453_fw.mp4	0.0	431.87938499450684	0.9912021160125732
82	372.6229350566864	pulse	0	t		80.0	2.5	/experiments/AOT/AOT_stimuli/rescaled_final/1453_fw.mp4	0.0	432.86244106292725	
82	372.63108110427856	movie	1		246	80.0	2.5	/experiments/AOT/AOT_stimuli/rescaled_final/1453_fw.mp4	0.0	432.8705871105194	2.5086669921875
82	374.22322702407837	pulse	1	t		80.0	2.5	/experiments/AOT/AOT_stimuli/rescaled_final/1453_fw.mp4	0.0	434.4627330303192	
82	375.13974809646606	fix_post	2		12	80.0	2.5	/experiments/AOT/AOT_stimuli/rescaled_final/1453_fw.mp4	0.0	435.3792541027069	0.10011482238769531
83	375.23986291885376	fix_pre	0		120	81.0	2.5	/experiments/AOT/AOT_stimuli/rescaled_final/0680_rv.mp4	0.0	435.4793689250946	0.9998869895935059
83	375.8232750892639	pulse	0	t		81.0	2.5	/experiments/AOT/AOT_stimuli/rescaled_final/0680_rv.mp4	0.0	436.06278109550476	
83	376.23974990844727	movie	1		245	81.0	2.5	/experiments/AOT/AOT_stimuli/rescaled_final/0680_rv.mp4	0.0	436.4792559146881	2.4999821186065674
83	377.4232409000397	pulse	1	t		81.0	2.5	/experiments/AOT/AOT_stimuli/rescaled_final/0680_rv.mp4	0.0	437.6627469062805	
83	378.73973202705383	fix_post	2		12	81.0	2.5	/experiments/AOT/AOT_stimuli/rescaled_final/0680_rv.mp4	0.0	438.9792380332947	0.10001897811889648
84	378.83975100517273	fix_pre	0		120	82.0	2.5	/experiments/AOT/AOT_stimuli/rescaled_final/0611_rv.mp4	0.0	439.0792570114136	0.9998729228973389
84	379.02335596084595	pulse	0	t		82.0	2.5	/experiments/AOT/AOT_stimuli/rescaled_final/0611_rv.mp4	0.0	439.2628619670868	
84	379.83962392807007	movie	1		246	82.0	2.5	/experiments/AOT/AOT_stimuli/rescaled_final/0611_rv.mp4	0.0	440.0791299343109	2.4997260570526123
84	380.62309193611145	pulse	1	t		82.0	2.5	/experiments/AOT/AOT_stimuli/rescaled_final/0611_rv.mp4	0.0	440.8625979423523	
84	382.22166109085083	pulse	1	t		82.0	2.5	/experiments/AOT/AOT_stimuli/rescaled_final/0611_rv.mp4	0.0	442.4611670970917	
84	382.3393499851227	fix_post	2		12	82.0	2.5	/experiments/AOT/AOT_stimuli/rescaled_final/0611_rv.mp4	0.0	442.5788559913635	0.10027694702148438
85	382.43962693214417	fix_pre	0		120	83.0	2.5	blank	1.0	442.679132938385	1.0000369548797607
85	383.4396638870239	movie	1		300	83.0	2.5	blank	1.0	443.67916989326477	2.499998092651367
85	383.8232491016388	pulse	1	t		83.0	2.5	blank	1.0	444.06275510787964	
85	385.4230799674988	pulse	1	t		83.0	2.5	blank	1.0	445.6625859737396	
85	385.9396619796753	fix_post	2		12	83.0	2.5	blank	1.0	446.17916798591614	0.10004591941833496
87	386.0397078990936	stim	0		1716					446.2792139053345	14.299954175949097
87	387.0231499671936	pulse	0	t						447.26265597343445	
87	388.62307810783386	pulse	0	t						448.8625841140747	
87	390.22312903404236	pulse	0	t						450.4626350402832	
87	391.8233940601349	pulse	0	t						452.06290006637573	
87	393.4230680465698	pulse	0	t						453.66257405281067	
87	395.02307891845703	pulse	0	t						455.2625849246979	
87	396.6230800151825	pulse	0	t						456.86258602142334	
87	398.2231070995331	pulse	0	t						458.4626131057739	
87	399.82304406166077	pulse	0	t						460.0625500679016	
