trial_nr	onset	event_type	phase	response	nr_frames	movie_index	movie_duration	movie_file	blank	onset_abs	duration
0	0.20827889442443848	stim	0		10					17.375566959381104	0.08330798149108887
0	0.2835879325866699	response	0	space						17.450875997543335	
1	0.29158687591552734	stim	0		4582					17.458874940872192	38.199037075042725
1	38.4806489944458	pulse	0	t						55.647937059402466	
1	38.49062395095825	stim	1		1716					55.65791201591492	14.300477027893066
1	40.072696924209595	pulse	1	t						57.23998498916626	
1	41.672953844070435	pulse	1	t						58.8402419090271	
1	43.27308201789856	pulse	1	t						60.440370082855225	
1	44.87345600128174	pulse	1	t						62.0407440662384	
1	46.473681926727295	pulse	1	t						63.64096999168396	
1	48.07385993003845	pulse	1	t						65.24114799499512	
1	49.674049854278564	pulse	1	t						66.84133791923523	
1	51.27438402175903	pulse	1	t						68.4416720867157	
2	52.79110097885132	fix_pre	0		11	0.0	2.5	/experiments/knapen_AOT/AOT_stimuli/rescaled_final/2079_fw.mp4	0.0	69.95838904380798	0.09165096282958984
2	52.87463903427124	pulse	0	t		0.0	2.5	/experiments/knapen_AOT/AOT_stimuli/rescaled_final/2079_fw.mp4	0.0	70.0419270992279	
2	52.88275194168091	movie	1		243	0.0	2.5	/experiments/knapen_AOT/AOT_stimuli/rescaled_final/2079_fw.mp4	0.0	70.05004000663757	2.508780002593994
2	54.476062059402466	pulse	1	t		0.0	2.5	/experiments/knapen_AOT/AOT_stimuli/rescaled_final/2079_fw.mp4	0.0	71.64335012435913	
2	55.3915319442749	fix_post	2		12	0.0	2.5	/experiments/knapen_AOT/AOT_stimuli/rescaled_final/2079_fw.mp4	0.0	72.55882000923157	0.09992003440856934
3	55.49145197868347	fix_pre	0		116	1.0	2.5	/experiments/knapen_AOT/AOT_stimuli/rescaled_final/0773_rv.mp4	0.0	72.65874004364014	1.0001740455627441
3	56.07508397102356	pulse	0	t		1.0	2.5	/experiments/knapen_AOT/AOT_stimuli/rescaled_final/0773_rv.mp4	0.0	73.24237203598022	
3	56.491626024246216	movie	1		243	1.0	2.5	/experiments/knapen_AOT/AOT_stimuli/rescaled_final/0773_rv.mp4	0.0	73.65891408920288	2.5004379749298096
3	57.675379037857056	pulse	1	t		1.0	2.5	/experiments/knapen_AOT/AOT_stimuli/rescaled_final/0773_rv.mp4	0.0	74.84266710281372	
3	58.992063999176025	fix_post	2		12	1.0	2.5	/experiments/knapen_AOT/AOT_stimuli/rescaled_final/0773_rv.mp4	0.0	76.15935206413269	0.09992289543151855
4	59.091986894607544	fix_pre	0		120	2.0	2.5	/experiments/knapen_AOT/AOT_stimuli/rescaled_final/0939_rv.mp4	0.0	76.25927495956421	1.0002119541168213
4	59.27566885948181	pulse	0	t		2.0	2.5	/experiments/knapen_AOT/AOT_stimuli/rescaled_final/0939_rv.mp4	0.0	76.44295692443848	
4	60.092198848724365	movie	1		243	2.0	2.5	/experiments/knapen_AOT/AOT_stimuli/rescaled_final/0939_rv.mp4	0.0	77.25948691368103	2.500507116317749
4	60.87589502334595	pulse	1	t		2.0	2.5	/experiments/knapen_AOT/AOT_stimuli/rescaled_final/0939_rv.mp4	0.0	78.04318308830261	
4	62.47596597671509	pulse	1	t		2.0	2.5	/experiments/knapen_AOT/AOT_stimuli/rescaled_final/0939_rv.mp4	0.0	79.64325404167175	
4	62.592705965042114	fix_post	2		12	2.0	2.5	/experiments/knapen_AOT/AOT_stimuli/rescaled_final/0939_rv.mp4	0.0	79.75999402999878	0.09989404678344727
5	62.69260001182556	fix_pre	0		120	3.0	2.5	/experiments/knapen_AOT/AOT_stimuli/rescaled_final/1380_fw.mp4	0.0	79.85988807678223	1.0000379085540771
5	63.69263792037964	movie	1		241	3.0	2.5	/experiments/knapen_AOT/AOT_stimuli/rescaled_final/1380_fw.mp4	0.0	80.8599259853363	2.4922690391540527
5	64.07661199569702	pulse	1	t		3.0	2.5	/experiments/knapen_AOT/AOT_stimuli/rescaled_final/1380_fw.mp4	0.0	81.24390006065369	
5	65.67662000656128	pulse	1	t		3.0	2.5	/experiments/knapen_AOT/AOT_stimuli/rescaled_final/1380_fw.mp4	0.0	82.84390807151794	
5	66.18490695953369	fix_post	2		12	3.0	2.5	/experiments/knapen_AOT/AOT_stimuli/rescaled_final/1380_fw.mp4	0.0	83.35219502449036	0.09982895851135254
6	66.28473591804504	fix_pre	0		120	4.0	2.5	/experiments/knapen_AOT/AOT_stimuli/rescaled_final/1716_fw.mp4	0.0	83.45202398300171	1.0001249313354492
6	67.27679991722107	pulse	0	t		4.0	2.5	/experiments/knapen_AOT/AOT_stimuli/rescaled_final/1716_fw.mp4	0.0	84.44408798217773	
6	67.2848608493805	movie	1		243	4.0	2.5	/experiments/knapen_AOT/AOT_stimuli/rescaled_final/1716_fw.mp4	0.0	84.45214891433716	2.508780002593994
6	68.87780904769897	pulse	1	t		4.0	2.5	/experiments/knapen_AOT/AOT_stimuli/rescaled_final/1716_fw.mp4	0.0	86.04509711265564	
6	69.79364085197449	fix_post	2		12	4.0	2.5	/experiments/knapen_AOT/AOT_stimuli/rescaled_final/1716_fw.mp4	0.0	86.96092891693115	0.10012102127075195
7	69.89376187324524	fix_pre	0		120	5.0	2.5	/experiments/knapen_AOT/AOT_stimuli/rescaled_final/1432_rv.mp4	0.0	87.0610499382019	0.9999921321868896
7	70.47717189788818	pulse	0	t		5.0	2.5	/experiments/knapen_AOT/AOT_stimuli/rescaled_final/1432_rv.mp4	0.0	87.64445996284485	
7	70.89375400543213	movie	1		243	5.0	2.5	/experiments/knapen_AOT/AOT_stimuli/rescaled_final/1432_rv.mp4	0.0	88.0610420703888	2.5005509853363037
7	72.0776219367981	pulse	1	t		5.0	2.5	/experiments/knapen_AOT/AOT_stimuli/rescaled_final/1432_rv.mp4	0.0	89.24491000175476	
7	73.39430499076843	fix_post	2		12	5.0	2.5	/experiments/knapen_AOT/AOT_stimuli/rescaled_final/1432_rv.mp4	0.0	90.5615930557251	0.09984683990478516
8	73.49415183067322	fix_pre	0		120	6.0	2.5	blank	1.0	90.66143989562988	1.0001590251922607
8	73.67774486541748	pulse	0	t		6.0	2.5	blank	1.0	90.84503293037415	
8	74.49431085586548	movie	1		300	6.0	2.5	blank	1.0	91.66159892082214	2.5003371238708496
8	75.26960682868958	pulse	1	t		6.0	2.5	blank	1.0	92.43689489364624	
8	76.86969590187073	pulse	1	t		6.0	2.5	blank	1.0	94.03698396682739	
8	76.99464797973633	fix_post	2		12	6.0	2.5	blank	1.0	94.161936044693	0.10007405281066895
9	77.094722032547	fix_pre	0		120	7.0	2.5	/experiments/knapen_AOT/AOT_stimuli/rescaled_final/1504_fw.mp4	0.0	94.26201009750366	1.0000979900360107
9	78.09482002258301	movie	1		243	7.0	2.5	/experiments/knapen_AOT/AOT_stimuli/rescaled_final/1504_fw.mp4	0.0	95.26210808753967	2.4920239448547363
9	78.46995282173157	pulse	1	t		7.0	2.5	/experiments/knapen_AOT/AOT_stimuli/rescaled_final/1504_fw.mp4	0.0	95.63724088668823	
9	80.07030296325684	pulse	1	t		7.0	2.5	/experiments/knapen_AOT/AOT_stimuli/rescaled_final/1504_fw.mp4	0.0	97.2375910282135	
9	80.58684396743774	fix_post	2		12	7.0	2.5	/experiments/knapen_AOT/AOT_stimuli/rescaled_final/1504_fw.mp4	0.0	97.75413203239441	0.10001492500305176
10	80.6868588924408	fix_pre	0		119	8.0	2.5	/experiments/knapen_AOT/AOT_stimuli/rescaled_final/2121_fw.mp4	0.0	97.85414695739746	0.9919321537017822
10	81.67053890228271	pulse	0	t		8.0	2.5	/experiments/knapen_AOT/AOT_stimuli/rescaled_final/2121_fw.mp4	0.0	98.83782696723938	
10	81.67879104614258	movie	1		243	8.0	2.5	/experiments/knapen_AOT/AOT_stimuli/rescaled_final/2121_fw.mp4	0.0	98.84607911109924	2.508680820465088
10	83.27164697647095	pulse	1	t		8.0	2.5	/experiments/knapen_AOT/AOT_stimuli/rescaled_final/2121_fw.mp4	0.0	100.43893504142761	
10	84.18747186660767	fix_post	2		12	8.0	2.5	/experiments/knapen_AOT/AOT_stimuli/rescaled_final/2121_fw.mp4	0.0	101.35475993156433	0.09997200965881348
11	84.28744387626648	fix_pre	0		120	9.0	2.5	/experiments/knapen_AOT/AOT_stimuli/rescaled_final/0623_fw.mp4	0.0	101.45473194122314	1.0001921653747559
11	84.87101292610168	pulse	0	t		9.0	2.5	/experiments/knapen_AOT/AOT_stimuli/rescaled_final/0623_fw.mp4	0.0	102.03830099105835	
11	85.28763604164124	movie	1		242	9.0	2.5	/experiments/knapen_AOT/AOT_stimuli/rescaled_final/0623_fw.mp4	0.0	102.4549241065979	2.500382900238037
11	86.47135090827942	pulse	1	t		9.0	2.5	/experiments/knapen_AOT/AOT_stimuli/rescaled_final/0623_fw.mp4	0.0	103.63863897323608	
11	87.78801894187927	fix_post	2		12	9.0	2.5	/experiments/knapen_AOT/AOT_stimuli/rescaled_final/0623_fw.mp4	0.0	104.95530700683594	0.09991288185119629
12	87.88793182373047	fix_pre	0		120	10.0	2.5	/experiments/knapen_AOT/AOT_stimuli/rescaled_final/0866_fw.mp4	0.0	105.05521988868713	1.000148057937622
12	88.07147288322449	pulse	0	t		10.0	2.5	/experiments/knapen_AOT/AOT_stimuli/rescaled_final/0866_fw.mp4	0.0	105.23876094818115	
12	88.88807988166809	movie	1		242	10.0	2.5	/experiments/knapen_AOT/AOT_stimuli/rescaled_final/0866_fw.mp4	0.0	106.05536794662476	2.5005531311035156
12	89.67187285423279	pulse	1	t		10.0	2.5	/experiments/knapen_AOT/AOT_stimuli/rescaled_final/0866_fw.mp4	0.0	106.83916091918945	
12	91.27226686477661	pulse	1	t		10.0	2.5	/experiments/knapen_AOT/AOT_stimuli/rescaled_final/0866_fw.mp4	0.0	108.43955492973328	
12	91.3886330127716	fix_post	2		12	10.0	2.5	/experiments/knapen_AOT/AOT_stimuli/rescaled_final/0866_fw.mp4	0.0	108.55592107772827	0.09991002082824707
13	91.48854303359985	fix_pre	0		120	11.0	2.5	/experiments/knapen_AOT/AOT_stimuli/rescaled_final/0469_fw.mp4	0.0	108.65583109855652	1.0000908374786377
13	92.48863387107849	movie	1		241	11.0	2.5	/experiments/knapen_AOT/AOT_stimuli/rescaled_final/0469_fw.mp4	0.0	109.65592193603516	2.492185115814209
13	92.87353587150574	pulse	1	t		11.0	2.5	/experiments/knapen_AOT/AOT_stimuli/rescaled_final/0469_fw.mp4	0.0	110.0408239364624	
13	94.47251796722412	pulse	1	t		11.0	2.5	/experiments/knapen_AOT/AOT_stimuli/rescaled_final/0469_fw.mp4	0.0	111.63980603218079	
13	94.9808189868927	fix_post	2		12	11.0	2.5	/experiments/knapen_AOT/AOT_stimuli/rescaled_final/0469_fw.mp4	0.0	112.14810705184937	0.0999138355255127
14	95.08073282241821	fix_pre	0		120	12.0	2.5	/experiments/knapen_AOT/AOT_stimuli/rescaled_final/0756_fw.mp4	0.0	112.24802088737488	1.0001120567321777
14	96.07276487350464	pulse	0	t		12.0	2.5	/experiments/knapen_AOT/AOT_stimuli/rescaled_final/0756_fw.mp4	0.0	113.2400529384613	
14	96.08084487915039	movie	1		245	12.0	2.5	/experiments/knapen_AOT/AOT_stimuli/rescaled_final/0756_fw.mp4	0.0	113.24813294410706	2.508739948272705
14	97.67348003387451	pulse	1	t		12.0	2.5	/experiments/knapen_AOT/AOT_stimuli/rescaled_final/0756_fw.mp4	0.0	114.84076809883118	
14	98.5895848274231	fix_post	2		12	12.0	2.5	/experiments/knapen_AOT/AOT_stimuli/rescaled_final/0756_fw.mp4	0.0	115.75687289237976	0.10008502006530762
15	98.6896698474884	fix_pre	0		120	13.0	2.5	/experiments/knapen_AOT/AOT_stimuli/rescaled_final/1483_fw.mp4	0.0	115.85695791244507	1.0000531673431396
15	99.27312994003296	pulse	0	t		13.0	2.5	/experiments/knapen_AOT/AOT_stimuli/rescaled_final/1483_fw.mp4	0.0	116.44041800498962	
15	99.68972301483154	movie	1		242	13.0	2.5	/experiments/knapen_AOT/AOT_stimuli/rescaled_final/1483_fw.mp4	0.0	116.85701107978821	2.500593900680542
15	100.87357902526855	pulse	1	t		13.0	2.5	/experiments/knapen_AOT/AOT_stimuli/rescaled_final/1483_fw.mp4	0.0	118.04086709022522	
15	102.19031691551208	fix_post	2		12	13.0	2.5	/experiments/knapen_AOT/AOT_stimuli/rescaled_final/1483_fw.mp4	0.0	119.35760498046875	0.09980392456054688
16	102.29012084007263	fix_pre	0		120	14.0	2.5	blank	1.0	119.4574089050293	1.0003230571746826
16	102.47364401817322	pulse	0	t		14.0	2.5	blank	1.0	119.64093208312988	
16	103.29044389724731	movie	1		300	14.0	2.5	blank	1.0	120.45773196220398	2.5001931190490723
16	104.07397890090942	pulse	1	t		14.0	2.5	blank	1.0	121.24126696586609	
16	105.6741418838501	pulse	1	t		14.0	2.5	blank	1.0	122.84142994880676	
16	105.79063701629639	fix_post	2		12	14.0	2.5	blank	1.0	122.95792508125305	0.10007786750793457
17	105.89071488380432	fix_pre	0		120	15.0	2.5	/experiments/knapen_AOT/AOT_stimuli/rescaled_final/1681_rv.mp4	0.0	123.05800294876099	1.0000841617584229
17	106.89079904556274	movie	1		241	15.0	2.5	/experiments/knapen_AOT/AOT_stimuli/rescaled_final/1681_rv.mp4	0.0	124.05808711051941	2.492147922515869
17	107.2790858745575	pulse	1	t		15.0	2.5	/experiments/knapen_AOT/AOT_stimuli/rescaled_final/1681_rv.mp4	0.0	124.44637393951416	
17	108.87458205223083	pulse	1	t		15.0	2.5	/experiments/knapen_AOT/AOT_stimuli/rescaled_final/1681_rv.mp4	0.0	126.0418701171875	
17	109.38294696807861	fix_post	2		12	15.0	2.5	/experiments/knapen_AOT/AOT_stimuli/rescaled_final/1681_rv.mp4	0.0	126.55023503303528	0.09994196891784668
18	109.48288893699646	fix_pre	0		120	16.0	2.5	/experiments/knapen_AOT/AOT_stimuli/rescaled_final/2111_fw.mp4	0.0	126.65017700195312	1.0000770092010498
18	110.47485089302063	pulse	0	t		16.0	2.5	/experiments/knapen_AOT/AOT_stimuli/rescaled_final/2111_fw.mp4	0.0	127.6421389579773	
18	110.48296594619751	movie	1		244	16.0	2.5	/experiments/knapen_AOT/AOT_stimuli/rescaled_final/2111_fw.mp4	0.0	127.65025401115417	2.5087881088256836
18	112.07613682746887	pulse	1	t		16.0	2.5	/experiments/knapen_AOT/AOT_stimuli/rescaled_final/2111_fw.mp4	0.0	129.24342489242554	
18	112.9917540550232	fix_post	2		12	16.0	2.5	/experiments/knapen_AOT/AOT_stimuli/rescaled_final/2111_fw.mp4	0.0	130.15904211997986	0.1000368595123291
19	113.09179091453552	fix_pre	0		120	17.0	2.5	/experiments/knapen_AOT/AOT_stimuli/rescaled_final/0469_rv.mp4	0.0	130.2590789794922	1.0000789165496826
19	113.67543196678162	pulse	0	t		17.0	2.5	/experiments/knapen_AOT/AOT_stimuli/rescaled_final/0469_rv.mp4	0.0	130.84272003173828	
19	114.0918698310852	movie	1		242	17.0	2.5	/experiments/knapen_AOT/AOT_stimuli/rescaled_final/0469_rv.mp4	0.0	131.25915789604187	2.5005650520324707
19	115.27570104598999	pulse	1	t		17.0	2.5	/experiments/knapen_AOT/AOT_stimuli/rescaled_final/0469_rv.mp4	0.0	132.44298911094666	
19	116.59243488311768	fix_post	2		12	17.0	2.5	/experiments/knapen_AOT/AOT_stimuli/rescaled_final/0469_rv.mp4	0.0	133.75972294807434	0.09985113143920898
20	116.69228601455688	fix_pre	0		120	18.0	2.5	/experiments/knapen_AOT/AOT_stimuli/rescaled_final/1070_fw.mp4	0.0	133.85957407951355	1.0000970363616943
20	116.87580990791321	pulse	0	t		18.0	2.5	/experiments/knapen_AOT/AOT_stimuli/rescaled_final/1070_fw.mp4	0.0	134.04309797286987	
20	117.69238305091858	movie	1		242	18.0	2.5	/experiments/knapen_AOT/AOT_stimuli/rescaled_final/1070_fw.mp4	0.0	134.85967111587524	2.500560998916626
20	118.4760959148407	pulse	1	t		18.0	2.5	/experiments/knapen_AOT/AOT_stimuli/rescaled_final/1070_fw.mp4	0.0	135.64338397979736	
20	120.07615685462952	pulse	1	t		18.0	2.5	/experiments/knapen_AOT/AOT_stimuli/rescaled_final/1070_fw.mp4	0.0	137.24344491958618	
20	120.1929440498352	fix_post	2		12	18.0	2.5	/experiments/knapen_AOT/AOT_stimuli/rescaled_final/1070_fw.mp4	0.0	137.36023211479187	0.09986090660095215
21	120.29280495643616	fix_pre	0		120	19.0	2.5	/experiments/knapen_AOT/AOT_stimuli/rescaled_final/0716_fw.mp4	0.0	137.46009302139282	1.0001099109649658
21	121.29291486740112	movie	1		241	19.0	2.5	/experiments/knapen_AOT/AOT_stimuli/rescaled_final/0716_fw.mp4	0.0	138.4602029323578	2.4921090602874756
21	121.67701697349548	pulse	1	t		19.0	2.5	/experiments/knapen_AOT/AOT_stimuli/rescaled_final/0716_fw.mp4	0.0	138.84430503845215	
21	123.2767870426178	pulse	1	t		19.0	2.5	/experiments/knapen_AOT/AOT_stimuli/rescaled_final/0716_fw.mp4	0.0	140.44407510757446	
21	123.7850239276886	fix_post	2		12	19.0	2.5	/experiments/knapen_AOT/AOT_stimuli/rescaled_final/0716_fw.mp4	0.0	140.95231199264526	0.09996604919433594
22	123.88498997688293	fix_pre	0		117	20.0	2.5	/experiments/knapen_AOT/AOT_stimuli/rescaled_final/2171_fw.mp4	0.0	141.0522780418396	1.000196933746338
22	124.87693095207214	pulse	0	t		20.0	2.5	/experiments/knapen_AOT/AOT_stimuli/rescaled_final/2171_fw.mp4	0.0	142.0442190170288	
22	124.88518691062927	movie	1		243	20.0	2.5	/experiments/knapen_AOT/AOT_stimuli/rescaled_final/2171_fw.mp4	0.0	142.05247497558594	2.508718967437744
22	126.47775888442993	pulse	1	t		20.0	2.5	/experiments/knapen_AOT/AOT_stimuli/rescaled_final/2171_fw.mp4	0.0	143.6450469493866	
22	127.39390587806702	fix_post	2		12	20.0	2.5	/experiments/knapen_AOT/AOT_stimuli/rescaled_final/2171_fw.mp4	0.0	144.56119394302368	0.09993815422058105
23	127.4938440322876	fix_pre	0		120	21.0	2.5	blank	1.0	144.66113209724426	1.0001788139343262
23	128.07751989364624	pulse	0	t		21.0	2.5	blank	1.0	145.2448079586029	
23	128.49402284622192	movie	1		300	21.0	2.5	blank	1.0	145.6613109111786	2.5004091262817383
23	129.67021298408508	pulse	1	t		21.0	2.5	blank	1.0	146.83750104904175	
23	130.99443197250366	fix_post	2		12	21.0	2.5	blank	1.0	148.16172003746033	0.10002708435058594
24	131.09445905685425	fix_pre	0		120	22.0	2.5	/experiments/knapen_AOT/AOT_stimuli/rescaled_final/0337_fw.mp4	0.0	148.2617471218109	1.0001499652862549
24	131.27053093910217	pulse	0	t		22.0	2.5	/experiments/knapen_AOT/AOT_stimuli/rescaled_final/0337_fw.mp4	0.0	148.43781900405884	
24	132.0946090221405	movie	1		242	22.0	2.5	/experiments/knapen_AOT/AOT_stimuli/rescaled_final/0337_fw.mp4	0.0	149.26189708709717	2.500485897064209
24	132.8708028793335	pulse	1	t		22.0	2.5	/experiments/knapen_AOT/AOT_stimuli/rescaled_final/0337_fw.mp4	0.0	150.03809094429016	
24	134.4782359600067	pulse	1	t		22.0	2.5	/experiments/knapen_AOT/AOT_stimuli/rescaled_final/0337_fw.mp4	0.0	151.64552402496338	
24	134.5950949192047	fix_post	2		12	22.0	2.5	/experiments/knapen_AOT/AOT_stimuli/rescaled_final/0337_fw.mp4	0.0	151.76238298416138	0.09982895851135254
25	134.69492387771606	fix_pre	0		119	23.0	2.5	/experiments/knapen_AOT/AOT_stimuli/rescaled_final/1971_rv.mp4	0.0	151.86221194267273	0.9918169975280762
25	135.68674087524414	movie	1		243	23.0	2.5	/experiments/knapen_AOT/AOT_stimuli/rescaled_final/1971_rv.mp4	0.0	152.8540289402008	2.5005950927734375
25	136.07091188430786	pulse	1	t		23.0	2.5	/experiments/knapen_AOT/AOT_stimuli/rescaled_final/1971_rv.mp4	0.0	153.23819994926453	
25	137.67051196098328	pulse	1	t		23.0	2.5	/experiments/knapen_AOT/AOT_stimuli/rescaled_final/1971_rv.mp4	0.0	154.83780002593994	
25	138.18733596801758	fix_post	2		12	23.0	2.5	/experiments/knapen_AOT/AOT_stimuli/rescaled_final/1971_rv.mp4	0.0	155.35462403297424	0.0998830795288086
26	138.2872190475464	fix_pre	0		119	24.0	2.5	/experiments/knapen_AOT/AOT_stimuli/rescaled_final/2139_rv.mp4	0.0	155.45450711250305	0.9917089939117432
26	139.27075791358948	pulse	0	t		24.0	2.5	/experiments/knapen_AOT/AOT_stimuli/rescaled_final/2139_rv.mp4	0.0	156.43804597854614	
26	139.27892804145813	movie	1		244	24.0	2.5	/experiments/knapen_AOT/AOT_stimuli/rescaled_final/2139_rv.mp4	0.0	156.4462161064148	2.5088160037994385
26	140.8715739250183	pulse	1	t		24.0	2.5	/experiments/knapen_AOT/AOT_stimuli/rescaled_final/2139_rv.mp4	0.0	158.03886198997498	
26	141.78774404525757	fix_post	2		12	24.0	2.5	/experiments/knapen_AOT/AOT_stimuli/rescaled_final/2139_rv.mp4	0.0	158.95503211021423	0.0999748706817627
27	141.88771891593933	fix_pre	0		120	25.0	2.5	/experiments/knapen_AOT/AOT_stimuli/rescaled_final/1172_rv.mp4	0.0	159.055006980896	1.0001070499420166
27	142.47127103805542	pulse	0	t		25.0	2.5	/experiments/knapen_AOT/AOT_stimuli/rescaled_final/1172_rv.mp4	0.0	159.63855910301208	
27	142.88782596588135	movie	1		242	25.0	2.5	/experiments/knapen_AOT/AOT_stimuli/rescaled_final/1172_rv.mp4	0.0	160.055114030838	2.5005500316619873
27	144.07166194915771	pulse	1	t		25.0	2.5	/experiments/knapen_AOT/AOT_stimuli/rescaled_final/1172_rv.mp4	0.0	161.23895001411438	
27	145.38837599754333	fix_post	2		12	25.0	2.5	/experiments/knapen_AOT/AOT_stimuli/rescaled_final/1172_rv.mp4	0.0	162.5556640625	0.09988784790039062
28	145.48826384544373	fix_pre	0		120	26.0	2.5	/experiments/knapen_AOT/AOT_stimuli/rescaled_final/1195_fw.mp4	0.0	162.6555519104004	1.0001850128173828
28	145.67173385620117	pulse	0	t		26.0	2.5	/experiments/knapen_AOT/AOT_stimuli/rescaled_final/1195_fw.mp4	0.0	162.83902192115784	
28	146.4884488582611	movie	1		243	26.0	2.5	/experiments/knapen_AOT/AOT_stimuli/rescaled_final/1195_fw.mp4	0.0	163.65573692321777	2.5004491806030273
28	147.27192902565002	pulse	1	t		26.0	2.5	/experiments/knapen_AOT/AOT_stimuli/rescaled_final/1195_fw.mp4	0.0	164.4392170906067	
28	148.87217903137207	pulse	1	t		26.0	2.5	/experiments/knapen_AOT/AOT_stimuli/rescaled_final/1195_fw.mp4	0.0	166.03946709632874	
28	148.98889803886414	fix_post	2		12	26.0	2.5	/experiments/knapen_AOT/AOT_stimuli/rescaled_final/1195_fw.mp4	0.0	166.1561861038208	0.0998837947845459
29	149.08878183364868	fix_pre	0		119	27.0	2.5	blank	1.0	166.25606989860535	0.9918391704559326
29	150.08062100410461	movie	1		300	27.0	2.5	blank	1.0	167.24790906906128	2.500298023223877
29	150.47258305549622	pulse	1	t		27.0	2.5	blank	1.0	167.63987112045288	
29	152.07275986671448	pulse	1	t		27.0	2.5	blank	1.0	169.24004793167114	
29	152.5809190273285	fix_post	2		12	27.0	2.5	blank	1.0	169.74820709228516	0.10002779960632324
30	152.68094682693481	fix_pre	0		120	28.0	2.5	/experiments/knapen_AOT/AOT_stimuli/rescaled_final/0720_fw.mp4	0.0	169.84823489189148	1.0001981258392334
30	153.67296195030212	pulse	0	t		28.0	2.5	/experiments/knapen_AOT/AOT_stimuli/rescaled_final/0720_fw.mp4	0.0	170.8402500152588	
30	153.68114495277405	movie	1		244	28.0	2.5	/experiments/knapen_AOT/AOT_stimuli/rescaled_final/0720_fw.mp4	0.0	170.8484330177307	2.5086610317230225
30	155.2736039161682	pulse	1	t		28.0	2.5	/experiments/knapen_AOT/AOT_stimuli/rescaled_final/0720_fw.mp4	0.0	172.44089198112488	
30	156.18980598449707	fix_post	2		12	28.0	2.5	/experiments/knapen_AOT/AOT_stimuli/rescaled_final/0720_fw.mp4	0.0	173.35709404945374	0.10004305839538574
31	156.28984904289246	fix_pre	0		120	29.0	2.5	/experiments/knapen_AOT/AOT_stimuli/rescaled_final/1971_fw.mp4	0.0	173.45713710784912	1.0001089572906494
31	156.87348103523254	pulse	0	t		29.0	2.5	/experiments/knapen_AOT/AOT_stimuli/rescaled_final/1971_fw.mp4	0.0	174.0407691001892	
31	157.2899580001831	movie	1		243	29.0	2.5	/experiments/knapen_AOT/AOT_stimuli/rescaled_final/1971_fw.mp4	0.0	174.45724606513977	2.5006258487701416
31	158.47390794754028	pulse	1	t		29.0	2.5	/experiments/knapen_AOT/AOT_stimuli/rescaled_final/1971_fw.mp4	0.0	175.64119601249695	
31	159.79058384895325	fix_post	2		12	29.0	2.5	/experiments/knapen_AOT/AOT_stimuli/rescaled_final/1971_fw.mp4	0.0	176.9578719139099	0.09979915618896484
32	159.8903830051422	fix_pre	0		120	30.0	2.5	/experiments/knapen_AOT/AOT_stimuli/rescaled_final/0890_fw.mp4	0.0	177.05767107009888	1.000182867050171
32	160.0739550590515	pulse	0	t		30.0	2.5	/experiments/knapen_AOT/AOT_stimuli/rescaled_final/0890_fw.mp4	0.0	177.24124312400818	
32	160.89056587219238	movie	1		243	30.0	2.5	/experiments/knapen_AOT/AOT_stimuli/rescaled_final/0890_fw.mp4	0.0	178.05785393714905	2.5003111362457275
32	161.67409801483154	pulse	1	t		30.0	2.5	/experiments/knapen_AOT/AOT_stimuli/rescaled_final/0890_fw.mp4	0.0	178.8413860797882	
32	163.27426505088806	pulse	1	t		30.0	2.5	/experiments/knapen_AOT/AOT_stimuli/rescaled_final/0890_fw.mp4	0.0	180.44155311584473	
32	163.3908770084381	fix_post	2		12	30.0	2.5	/experiments/knapen_AOT/AOT_stimuli/rescaled_final/0890_fw.mp4	0.0	180.55816507339478	0.10002493858337402
33	163.49090194702148	fix_pre	0		120	31.0	2.5	/experiments/knapen_AOT/AOT_stimuli/rescaled_final/1252_fw.mp4	0.0	180.65819001197815	1.000135898590088
33	164.49103784561157	movie	1		241	31.0	2.5	/experiments/knapen_AOT/AOT_stimuli/rescaled_final/1252_fw.mp4	0.0	181.65832591056824	2.492124080657959
33	164.87518405914307	pulse	1	t		31.0	2.5	/experiments/knapen_AOT/AOT_stimuli/rescaled_final/1252_fw.mp4	0.0	182.04247212409973	
33	166.47491598129272	pulse	1	t		31.0	2.5	/experiments/knapen_AOT/AOT_stimuli/rescaled_final/1252_fw.mp4	0.0	183.6422040462494	
33	166.98316192626953	fix_post	2		12	31.0	2.5	/experiments/knapen_AOT/AOT_stimuli/rescaled_final/1252_fw.mp4	0.0	184.1504499912262	0.09994101524353027
34	167.08310294151306	fix_pre	0		120	32.0	2.5	/experiments/knapen_AOT/AOT_stimuli/rescaled_final/1897_fw.mp4	0.0	184.25039100646973	1.000157117843628
34	168.07507300376892	pulse	0	t		32.0	2.5	/experiments/knapen_AOT/AOT_stimuli/rescaled_final/1897_fw.mp4	0.0	185.2423610687256	
34	168.0832600593567	movie	1		246	32.0	2.5	/experiments/knapen_AOT/AOT_stimuli/rescaled_final/1897_fw.mp4	0.0	185.25054812431335	2.508678913116455
34	169.67633605003357	pulse	1	t		32.0	2.5	/experiments/knapen_AOT/AOT_stimuli/rescaled_final/1897_fw.mp4	0.0	186.84362411499023	
34	170.59193897247314	fix_post	2		12	32.0	2.5	/experiments/knapen_AOT/AOT_stimuli/rescaled_final/1897_fw.mp4	0.0	187.7592270374298	0.10001492500305176
35	170.6919538974762	fix_pre	0		120	33.0	2.5	/experiments/knapen_AOT/AOT_stimuli/rescaled_final/0853_rv.mp4	0.0	187.85924196243286	1.0001580715179443
35	171.2756428718567	pulse	0	t		33.0	2.5	/experiments/knapen_AOT/AOT_stimuli/rescaled_final/0853_rv.mp4	0.0	188.44293093681335	
35	171.69211196899414	movie	1		243	33.0	2.5	/experiments/knapen_AOT/AOT_stimuli/rescaled_final/0853_rv.mp4	0.0	188.8594000339508	2.5005719661712646
35	172.87604594230652	pulse	1	t		33.0	2.5	/experiments/knapen_AOT/AOT_stimuli/rescaled_final/0853_rv.mp4	0.0	190.04333400726318	
35	174.1926839351654	fix_post	2		12	33.0	2.5	/experiments/knapen_AOT/AOT_stimuli/rescaled_final/0853_rv.mp4	0.0	191.35997200012207	0.0998690128326416
36	174.29255294799805	fix_pre	0		120	34.0	2.5	blank	1.0	191.4598410129547	1.000195026397705
36	174.47604084014893	pulse	0	t		34.0	2.5	blank	1.0	191.6433289051056	
36	175.29274797439575	movie	1		300	34.0	2.5	blank	1.0	192.46003603935242	2.500343084335327
36	176.0763819217682	pulse	1	t		34.0	2.5	blank	1.0	193.24366998672485	
36	177.67649483680725	pulse	1	t		34.0	2.5	blank	1.0	194.84378290176392	
36	177.79309105873108	fix_post	2		12	34.0	2.5	blank	1.0	194.96037912368774	0.09993696212768555
37	177.89302802085876	fix_pre	0		120	35.0	2.5	/experiments/knapen_AOT/AOT_stimuli/rescaled_final/0856_rv.mp4	0.0	195.06031608581543	1.0001499652862549
37	178.89317798614502	movie	1		241	35.0	2.5	/experiments/knapen_AOT/AOT_stimuli/rescaled_final/0856_rv.mp4	0.0	196.06046605110168	2.4922189712524414
37	179.27726984024048	pulse	1	t		35.0	2.5	/experiments/knapen_AOT/AOT_stimuli/rescaled_final/0856_rv.mp4	0.0	196.44455790519714	
37	180.87706804275513	pulse	1	t		35.0	2.5	/experiments/knapen_AOT/AOT_stimuli/rescaled_final/0856_rv.mp4	0.0	198.0443561077118	
37	181.38539695739746	fix_post	2		12	35.0	2.5	/experiments/knapen_AOT/AOT_stimuli/rescaled_final/0856_rv.mp4	0.0	198.55268502235413	0.09982800483703613
38	181.4852249622345	fix_pre	0		120	36.0	2.5	/experiments/knapen_AOT/AOT_stimuli/rescaled_final/1880_rv.mp4	0.0	198.65251302719116	1.0002820491790771
38	182.47724294662476	pulse	0	t		36.0	2.5	/experiments/knapen_AOT/AOT_stimuli/rescaled_final/1880_rv.mp4	0.0	199.64453101158142	
38	182.48550701141357	movie	1		244	36.0	2.5	/experiments/knapen_AOT/AOT_stimuli/rescaled_final/1880_rv.mp4	0.0	199.65279507637024	2.50874400138855
38	184.07800483703613	pulse	1	t		36.0	2.5	/experiments/knapen_AOT/AOT_stimuli/rescaled_final/1880_rv.mp4	0.0	201.2452929019928	
38	184.99425101280212	fix_post	2		12	36.0	2.5	/experiments/knapen_AOT/AOT_stimuli/rescaled_final/1880_rv.mp4	0.0	202.1615390777588	0.0999288558959961
39	185.09417986869812	fix_pre	0		120	37.0	2.5	/experiments/knapen_AOT/AOT_stimuli/rescaled_final/2103_rv.mp4	0.0	202.26146793365479	1.0001041889190674
39	185.6702380180359	pulse	0	t		37.0	2.5	/experiments/knapen_AOT/AOT_stimuli/rescaled_final/2103_rv.mp4	0.0	202.83752608299255	
39	186.0942840576172	movie	1		242	37.0	2.5	/experiments/knapen_AOT/AOT_stimuli/rescaled_final/2103_rv.mp4	0.0	203.26157212257385	2.5004818439483643
39	187.27079796791077	pulse	1	t		37.0	2.5	/experiments/knapen_AOT/AOT_stimuli/rescaled_final/2103_rv.mp4	0.0	204.43808603286743	
39	188.59476590156555	fix_post	2		12	37.0	2.5	/experiments/knapen_AOT/AOT_stimuli/rescaled_final/2103_rv.mp4	0.0	205.76205396652222	0.09992313385009766
40	188.69468903541565	fix_pre	0		120	38.0	2.5	/experiments/knapen_AOT/AOT_stimuli/rescaled_final/0756_rv.mp4	0.0	205.86197710037231	1.0001728534698486
40	188.8700408935547	pulse	0	t		38.0	2.5	/experiments/knapen_AOT/AOT_stimuli/rescaled_final/0756_rv.mp4	0.0	206.03732895851135	
40	189.6948618888855	movie	1		244	38.0	2.5	/experiments/knapen_AOT/AOT_stimuli/rescaled_final/0756_rv.mp4	0.0	206.86214995384216	2.500378131866455
40	190.47011590003967	pulse	1	t		38.0	2.5	/experiments/knapen_AOT/AOT_stimuli/rescaled_final/0756_rv.mp4	0.0	207.63740396499634	
40	192.0702919960022	pulse	1	t		38.0	2.5	/experiments/knapen_AOT/AOT_stimuli/rescaled_final/0756_rv.mp4	0.0	209.23758006095886	
40	192.19524002075195	fix_post	2		12	38.0	2.5	/experiments/knapen_AOT/AOT_stimuli/rescaled_final/0756_rv.mp4	0.0	209.36252808570862	0.10000395774841309
41	192.29524397850037	fix_pre	0		115	39.0	2.5	/experiments/knapen_AOT/AOT_stimuli/rescaled_final/0892_fw.mp4	0.0	209.46253204345703	0.991757869720459
41	193.28700184822083	movie	1		242	39.0	2.5	/experiments/knapen_AOT/AOT_stimuli/rescaled_final/0892_fw.mp4	0.0	210.4542899131775	2.5005550384521484
41	193.67127299308777	pulse	1	t		39.0	2.5	/experiments/knapen_AOT/AOT_stimuli/rescaled_final/0892_fw.mp4	0.0	210.83856105804443	
41	195.2708330154419	pulse	1	t		39.0	2.5	/experiments/knapen_AOT/AOT_stimuli/rescaled_final/0892_fw.mp4	0.0	212.43812108039856	
41	195.78755688667297	fix_post	2		12	39.0	2.5	/experiments/knapen_AOT/AOT_stimuli/rescaled_final/0892_fw.mp4	0.0	212.95484495162964	0.09988594055175781
42	195.88744282722473	fix_pre	0		119	40.0	2.5	blank	1.0	213.0547308921814	0.9918332099914551
42	196.87110805511475	pulse	0	t		40.0	2.5	blank	1.0	214.0383961200714	
42	196.8792760372162	movie	1		301	40.0	2.5	blank	1.0	214.04656410217285	2.5086779594421387
42	198.4713339805603	pulse	1	t		40.0	2.5	blank	1.0	215.63862204551697	
42	199.38795399665833	fix_post	2		12	40.0	2.5	blank	1.0	216.555242061615	0.10002398490905762
43	199.48797798156738	fix_pre	0		120	41.0	2.5	/experiments/knapen_AOT/AOT_stimuli/rescaled_final/0931_rv.mp4	0.0	216.65526604652405	1.0001530647277832
43	200.07156991958618	pulse	0	t		41.0	2.5	/experiments/knapen_AOT/AOT_stimuli/rescaled_final/0931_rv.mp4	0.0	217.23885798454285	
43	200.48813104629517	movie	1		243	41.0	2.5	/experiments/knapen_AOT/AOT_stimuli/rescaled_final/0931_rv.mp4	0.0	217.65541911125183	2.500473976135254
43	201.67181587219238	pulse	1	t		41.0	2.5	/experiments/knapen_AOT/AOT_stimuli/rescaled_final/0931_rv.mp4	0.0	218.83910393714905	
43	202.98860502243042	fix_post	2		12	41.0	2.5	/experiments/knapen_AOT/AOT_stimuli/rescaled_final/0931_rv.mp4	0.0	220.15589308738708	0.09990286827087402
44	203.0885078907013	fix_pre	0		120	42.0	2.5	/experiments/knapen_AOT/AOT_stimuli/rescaled_final/1230_fw.mp4	0.0	220.25579595565796	1.000115156173706
44	203.2720069885254	pulse	0	t		42.0	2.5	/experiments/knapen_AOT/AOT_stimuli/rescaled_final/1230_fw.mp4	0.0	220.43929505348206	
44	204.088623046875	movie	1		244	42.0	2.5	/experiments/knapen_AOT/AOT_stimuli/rescaled_final/1230_fw.mp4	0.0	221.25591111183167	2.5003437995910645
44	204.87229084968567	pulse	1	t		42.0	2.5	/experiments/knapen_AOT/AOT_stimuli/rescaled_final/1230_fw.mp4	0.0	222.03957891464233	
44	206.4723470211029	pulse	1	t		42.0	2.5	/experiments/knapen_AOT/AOT_stimuli/rescaled_final/1230_fw.mp4	0.0	223.63963508605957	
44	206.58896684646606	fix_post	2		12	42.0	2.5	/experiments/knapen_AOT/AOT_stimuli/rescaled_final/1230_fw.mp4	0.0	223.75625491142273	0.1000831127166748
45	206.68904995918274	fix_pre	0		119	43.0	2.5	/experiments/knapen_AOT/AOT_stimuli/rescaled_final/1852_rv.mp4	0.0	223.8563380241394	0.9917950630187988
45	207.68084502220154	movie	1		243	43.0	2.5	/experiments/knapen_AOT/AOT_stimuli/rescaled_final/1852_rv.mp4	0.0	224.8481330871582	2.500372886657715
45	208.07280898094177	pulse	1	t		43.0	2.5	/experiments/knapen_AOT/AOT_stimuli/rescaled_final/1852_rv.mp4	0.0	225.24009704589844	
45	209.67294692993164	pulse	1	t		43.0	2.5	/experiments/knapen_AOT/AOT_stimuli/rescaled_final/1852_rv.mp4	0.0	226.8402349948883	
45	210.18121790885925	fix_post	2		12	43.0	2.5	/experiments/knapen_AOT/AOT_stimuli/rescaled_final/1852_rv.mp4	0.0	227.34850597381592	0.10001492500305176
46	210.2812328338623	fix_pre	0		120	44.0	2.5	/experiments/knapen_AOT/AOT_stimuli/rescaled_final/1840_fw.mp4	0.0	227.44852089881897	1.0001451969146729
46	211.27334094047546	pulse	0	t		44.0	2.5	/experiments/knapen_AOT/AOT_stimuli/rescaled_final/1840_fw.mp4	0.0	228.44062900543213	
46	211.28137803077698	movie	1		243	44.0	2.5	/experiments/knapen_AOT/AOT_stimuli/rescaled_final/1840_fw.mp4	0.0	228.44866609573364	2.508769989013672
46	212.8740530014038	pulse	1	t		44.0	2.5	/experiments/knapen_AOT/AOT_stimuli/rescaled_final/1840_fw.mp4	0.0	230.04134106636047	
46	213.79014801979065	fix_post	2		12	44.0	2.5	/experiments/knapen_AOT/AOT_stimuli/rescaled_final/1840_fw.mp4	0.0	230.95743608474731	0.10005688667297363
47	213.89020490646362	fix_pre	0		120	45.0	2.5	/experiments/knapen_AOT/AOT_stimuli/rescaled_final/1070_rv.mp4	0.0	231.0574929714203	1.000054121017456
47	214.4737548828125	pulse	0	t		45.0	2.5	/experiments/knapen_AOT/AOT_stimuli/rescaled_final/1070_rv.mp4	0.0	231.64104294776917	
47	214.89025902748108	movie	1		242	45.0	2.5	/experiments/knapen_AOT/AOT_stimuli/rescaled_final/1070_rv.mp4	0.0	232.05754709243774	2.500591993331909
47	216.07401084899902	pulse	1	t		45.0	2.5	/experiments/knapen_AOT/AOT_stimuli/rescaled_final/1070_rv.mp4	0.0	233.2412989139557	
47	217.390851020813	fix_post	2		12	45.0	2.5	/experiments/knapen_AOT/AOT_stimuli/rescaled_final/1070_rv.mp4	0.0	234.55813908576965	0.09983396530151367
48	217.4906849861145	fix_pre	0		120	46.0	2.5	/experiments/knapen_AOT/AOT_stimuli/rescaled_final/0669_fw.mp4	0.0	234.65797305107117	1.0000660419464111
48	217.6742458343506	pulse	0	t		46.0	2.5	/experiments/knapen_AOT/AOT_stimuli/rescaled_final/0669_fw.mp4	0.0	234.84153389930725	
48	218.4907510280609	movie	1		243	46.0	2.5	/experiments/knapen_AOT/AOT_stimuli/rescaled_final/0669_fw.mp4	0.0	235.65803909301758	2.5006048679351807
48	219.27453804016113	pulse	1	t		46.0	2.5	/experiments/knapen_AOT/AOT_stimuli/rescaled_final/0669_fw.mp4	0.0	236.4418261051178	
48	220.8744180202484	pulse	1	t		46.0	2.5	/experiments/knapen_AOT/AOT_stimuli/rescaled_final/0669_fw.mp4	0.0	238.04170608520508	
48	220.9913558959961	fix_post	2		12	46.0	2.5	/experiments/knapen_AOT/AOT_stimuli/rescaled_final/0669_fw.mp4	0.0	238.15864396095276	0.09988999366760254
49	221.0912458896637	fix_pre	0		120	47.0	2.5	blank	1.0	238.25853395462036	1.0000650882720947
49	222.0913109779358	movie	1		299	47.0	2.5	blank	1.0	239.25859904289246	2.4920780658721924
49	222.47491192817688	pulse	1	t		47.0	2.5	blank	1.0	239.64219999313354	
49	224.0751349925995	pulse	1	t		47.0	2.5	blank	1.0	241.24242305755615	
49	224.58338904380798	fix_post	2		12	47.0	2.5	blank	1.0	241.75067710876465	0.09996485710144043
50	224.68335390090942	fix_pre	0		120	48.0	2.5	/experiments/knapen_AOT/AOT_stimuli/rescaled_final/1520_rv.mp4	0.0	241.8506419658661	1.0001511573791504
50	225.6754059791565	pulse	0	t		48.0	2.5	/experiments/knapen_AOT/AOT_stimuli/rescaled_final/1520_rv.mp4	0.0	242.84269404411316	
50	225.68350505828857	movie	1		244	48.0	2.5	/experiments/knapen_AOT/AOT_stimuli/rescaled_final/1520_rv.mp4	0.0	242.85079312324524	2.508837938308716
50	227.27947998046875	pulse	1	t		48.0	2.5	/experiments/knapen_AOT/AOT_stimuli/rescaled_final/1520_rv.mp4	0.0	244.44676804542542	
50	228.1923429965973	fix_post	2		12	48.0	2.5	/experiments/knapen_AOT/AOT_stimuli/rescaled_final/1520_rv.mp4	0.0	245.35963106155396	0.09996700286865234
51	228.29230999946594	fix_pre	0		120	49.0	2.5	/experiments/knapen_AOT/AOT_stimuli/rescaled_final/1716_fw.mp4	0.0	245.4595980644226	1.000082015991211
51	228.8758249282837	pulse	0	t		49.0	2.5	/experiments/knapen_AOT/AOT_stimuli/rescaled_final/1716_fw.mp4	0.0	246.04311299324036	
51	229.29239201545715	movie	1		242	49.0	2.5	/experiments/knapen_AOT/AOT_stimuli/rescaled_final/1716_fw.mp4	0.0	246.45968008041382	2.5004048347473145
51	230.47613501548767	pulse	1	t		49.0	2.5	/experiments/knapen_AOT/AOT_stimuli/rescaled_final/1716_fw.mp4	0.0	247.64342308044434	
51	231.79279685020447	fix_post	2		12	49.0	2.5	/experiments/knapen_AOT/AOT_stimuli/rescaled_final/1716_fw.mp4	0.0	248.96008491516113	0.10002708435058594
52	231.89282393455505	fix_pre	0		120	50.0	2.5	/experiments/knapen_AOT/AOT_stimuli/rescaled_final/0485_fw.mp4	0.0	249.06011199951172	1.0000829696655273
52	232.07640504837036	pulse	0	t		50.0	2.5	/experiments/knapen_AOT/AOT_stimuli/rescaled_final/0485_fw.mp4	0.0	249.24369311332703	
52	232.89290690422058	movie	1		243	50.0	2.5	/experiments/knapen_AOT/AOT_stimuli/rescaled_final/0485_fw.mp4	0.0	250.06019496917725	2.500692129135132
52	233.67652583122253	pulse	1	t		50.0	2.5	/experiments/knapen_AOT/AOT_stimuli/rescaled_final/0485_fw.mp4	0.0	250.8438138961792	
52	235.2766809463501	pulse	1	t		50.0	2.5	/experiments/knapen_AOT/AOT_stimuli/rescaled_final/0485_fw.mp4	0.0	252.44396901130676	
52	235.3935990333557	fix_post	2		12	50.0	2.5	/experiments/knapen_AOT/AOT_stimuli/rescaled_final/0485_fw.mp4	0.0	252.56088709831238	0.09981679916381836
53	235.49341583251953	fix_pre	0		120	51.0	2.5	/experiments/knapen_AOT/AOT_stimuli/rescaled_final/1492_fw.mp4	0.0	252.6607038974762	1.0000531673431396
53	236.49346899986267	movie	1		242	51.0	2.5	/experiments/knapen_AOT/AOT_stimuli/rescaled_final/1492_fw.mp4	0.0	253.66075706481934	2.4922189712524414
53	236.87816095352173	pulse	1	t		51.0	2.5	/experiments/knapen_AOT/AOT_stimuli/rescaled_final/1492_fw.mp4	0.0	254.0454490184784	
53	238.4773669242859	pulse	1	t		51.0	2.5	/experiments/knapen_AOT/AOT_stimuli/rescaled_final/1492_fw.mp4	0.0	255.64465498924255	
53	238.9856879711151	fix_post	2		12	51.0	2.5	/experiments/knapen_AOT/AOT_stimuli/rescaled_final/1492_fw.mp4	0.0	256.1529760360718	0.09985089302062988
54	239.08553886413574	fix_pre	0		120	52.0	2.5	/experiments/knapen_AOT/AOT_stimuli/rescaled_final/1307_fw.mp4	0.0	256.2528269290924	1.000133991241455
54	240.07757592201233	pulse	0	t		52.0	2.5	/experiments/knapen_AOT/AOT_stimuli/rescaled_final/1307_fw.mp4	0.0	257.244863986969	
54	240.0856728553772	movie	1		244	52.0	2.5	/experiments/knapen_AOT/AOT_stimuli/rescaled_final/1307_fw.mp4	0.0	257.25296092033386	2.50872802734375
54	241.68190598487854	pulse	1	t		52.0	2.5	/experiments/knapen_AOT/AOT_stimuli/rescaled_final/1307_fw.mp4	0.0	258.8491940498352	
54	242.59440088272095	fix_post	2		12	52.0	2.5	/experiments/knapen_AOT/AOT_stimuli/rescaled_final/1307_fw.mp4	0.0	259.7616889476776	0.10006499290466309
55	242.6944658756256	fix_pre	0		120	53.0	2.5	/experiments/knapen_AOT/AOT_stimuli/rescaled_final/0982_rv.mp4	0.0	259.8617539405823	1.0000979900360107
55	243.27059602737427	pulse	0	t		53.0	2.5	/experiments/knapen_AOT/AOT_stimuli/rescaled_final/0982_rv.mp4	0.0	260.43788409233093	
55	243.69456386566162	movie	1		242	53.0	2.5	/experiments/knapen_AOT/AOT_stimuli/rescaled_final/0982_rv.mp4	0.0	260.8618519306183	2.5004100799560547
55	244.8711178302765	pulse	1	t		53.0	2.5	/experiments/knapen_AOT/AOT_stimuli/rescaled_final/0982_rv.mp4	0.0	262.03840589523315	
55	246.19497394561768	fix_post	2		12	53.0	2.5	/experiments/knapen_AOT/AOT_stimuli/rescaled_final/0982_rv.mp4	0.0	263.36226201057434	0.09992003440856934
56	246.29489398002625	fix_pre	0		120	54.0	2.5	blank	1.0	263.4621820449829	1.0001718997955322
56	246.47086095809937	pulse	0	t		54.0	2.5	blank	1.0	263.63814902305603	
56	247.29506587982178	movie	1		300	54.0	2.5	blank	1.0	264.46235394477844	2.5004520416259766
56	248.07121396064758	pulse	1	t		54.0	2.5	blank	1.0	265.23850202560425	
56	249.67135500907898	pulse	1	t		54.0	2.5	blank	1.0	266.83864307403564	
56	249.79551792144775	fix_post	2		12	54.0	2.5	blank	1.0	266.9628059864044	0.10003900527954102
57	249.8955569267273	fix_pre	0		120	55.0	2.5	/experiments/knapen_AOT/AOT_stimuli/rescaled_final/0403_rv.mp4	0.0	267.06284499168396	1.0000340938568115
57	250.8955910205841	movie	1		242	55.0	2.5	/experiments/knapen_AOT/AOT_stimuli/rescaled_final/0403_rv.mp4	0.0	268.06287908554077	2.4920899868011475
57	251.27093982696533	pulse	1	t		55.0	2.5	/experiments/knapen_AOT/AOT_stimuli/rescaled_final/0403_rv.mp4	0.0	268.438227891922	
57	252.8711268901825	pulse	1	t		55.0	2.5	/experiments/knapen_AOT/AOT_stimuli/rescaled_final/0403_rv.mp4	0.0	270.03841495513916	
57	253.38768100738525	fix_post	2		12	55.0	2.5	/experiments/knapen_AOT/AOT_stimuli/rescaled_final/0403_rv.mp4	0.0	270.5549690723419	0.09997892379760742
58	253.48765993118286	fix_pre	0		119	56.0	2.5	/experiments/knapen_AOT/AOT_stimuli/rescaled_final/1751_rv.mp4	0.0	270.6549479961395	0.9917819499969482
58	254.47135996818542	pulse	0	t		56.0	2.5	/experiments/knapen_AOT/AOT_stimuli/rescaled_final/1751_rv.mp4	0.0	271.6386480331421	
58	254.4794418811798	movie	1		244	56.0	2.5	/experiments/knapen_AOT/AOT_stimuli/rescaled_final/1751_rv.mp4	0.0	271.6467299461365	2.508768081665039
58	256.075963973999	pulse	1	t		56.0	2.5	/experiments/knapen_AOT/AOT_stimuli/rescaled_final/1751_rv.mp4	0.0	273.2432520389557	
58	256.98820996284485	fix_post	2		12	56.0	2.5	/experiments/knapen_AOT/AOT_stimuli/rescaled_final/1751_rv.mp4	0.0	274.1554980278015	0.09998607635498047
59	257.08819603919983	fix_pre	0		120	57.0	2.5	/experiments/knapen_AOT/AOT_stimuli/rescaled_final/1661_rv.mp4	0.0	274.2554841041565	1.0001368522644043
59	257.67191886901855	pulse	0	t		57.0	2.5	/experiments/knapen_AOT/AOT_stimuli/rescaled_final/1661_rv.mp4	0.0	274.8392069339752	
59	258.08833289146423	movie	1		243	57.0	2.5	/experiments/knapen_AOT/AOT_stimuli/rescaled_final/1661_rv.mp4	0.0	275.2556209564209	2.5004429817199707
59	259.2721209526062	pulse	1	t		57.0	2.5	/experiments/knapen_AOT/AOT_stimuli/rescaled_final/1661_rv.mp4	0.0	276.43940901756287	
59	260.5887758731842	fix_post	2		12	57.0	2.5	/experiments/knapen_AOT/AOT_stimuli/rescaled_final/1661_rv.mp4	0.0	277.75606393814087	0.10000109672546387
60	260.68877696990967	fix_pre	0		117	58.0	2.5	/experiments/knapen_AOT/AOT_stimuli/rescaled_final/0720_rv.mp4	0.0	277.85606503486633	1.0000879764556885
60	260.8722038269043	pulse	0	t		58.0	2.5	/experiments/knapen_AOT/AOT_stimuli/rescaled_final/0720_rv.mp4	0.0	278.03949189186096	
60	261.68886494636536	movie	1		244	58.0	2.5	/experiments/knapen_AOT/AOT_stimuli/rescaled_final/0720_rv.mp4	0.0	278.856153011322	2.500370979309082
60	262.4725399017334	pulse	1	t		58.0	2.5	/experiments/knapen_AOT/AOT_stimuli/rescaled_final/0720_rv.mp4	0.0	279.63982796669006	
60	264.0728528499603	pulse	1	t		58.0	2.5	/experiments/knapen_AOT/AOT_stimuli/rescaled_final/0720_rv.mp4	0.0	281.240140914917	
60	264.18923592567444	fix_post	2		12	58.0	2.5	/experiments/knapen_AOT/AOT_stimuli/rescaled_final/0720_rv.mp4	0.0	281.3565239906311	0.0999910831451416
61	264.2892270088196	fix_pre	0		120	59.0	2.5	/experiments/knapen_AOT/AOT_stimuli/rescaled_final/0853_fw.mp4	0.0	281.45651507377625	1.000195026397705
61	265.2894220352173	movie	1		243	59.0	2.5	/experiments/knapen_AOT/AOT_stimuli/rescaled_final/0853_fw.mp4	0.0	282.45671010017395	2.4920527935028076
61	265.6735939979553	pulse	1	t		59.0	2.5	/experiments/knapen_AOT/AOT_stimuli/rescaled_final/0853_fw.mp4	0.0	282.840882062912	
61	267.27324390411377	pulse	1	t		59.0	2.5	/experiments/knapen_AOT/AOT_stimuli/rescaled_final/0853_fw.mp4	0.0	284.44053196907043	
61	267.7814748287201	fix_post	2		12	59.0	2.5	/experiments/knapen_AOT/AOT_stimuli/rescaled_final/0853_fw.mp4	0.0	284.94876289367676	0.1000971794128418
62	267.88157200813293	fix_pre	0		120	60.0	2.5	/experiments/knapen_AOT/AOT_stimuli/rescaled_final/0570_rv.mp4	0.0	285.0488600730896	1.0000178813934326
62	268.87344789505005	pulse	0	t		60.0	2.5	/experiments/knapen_AOT/AOT_stimuli/rescaled_final/0570_rv.mp4	0.0	286.0407359600067	
62	268.88158988952637	movie	1		245	60.0	2.5	/experiments/knapen_AOT/AOT_stimuli/rescaled_final/0570_rv.mp4	0.0	286.04887795448303	2.508737087249756
62	270.47417092323303	pulse	1	t		60.0	2.5	/experiments/knapen_AOT/AOT_stimuli/rescaled_final/0570_rv.mp4	0.0	287.6414589881897	
62	271.3903269767761	fix_post	2		12	60.0	2.5	/experiments/knapen_AOT/AOT_stimuli/rescaled_final/0570_rv.mp4	0.0	288.5576150417328	0.09998607635498047
63	271.4903130531311	fix_pre	0		120	61.0	2.5	/experiments/knapen_AOT/AOT_stimuli/rescaled_final/0865_rv.mp4	0.0	288.65760111808777	1.0001869201660156
63	272.0740249156952	pulse	0	t		61.0	2.5	/experiments/knapen_AOT/AOT_stimuli/rescaled_final/0865_rv.mp4	0.0	289.24131298065186	
63	272.4904999732971	movie	1		242	61.0	2.5	/experiments/knapen_AOT/AOT_stimuli/rescaled_final/0865_rv.mp4	0.0	289.6577880382538	2.500469923019409
63	273.67431592941284	pulse	1	t		61.0	2.5	/experiments/knapen_AOT/AOT_stimuli/rescaled_final/0865_rv.mp4	0.0	290.8416039943695	
63	274.9909698963165	fix_post	2		12	61.0	2.5	/experiments/knapen_AOT/AOT_stimuli/rescaled_final/0865_rv.mp4	0.0	292.1582579612732	0.09990310668945312
64	275.090873003006	fix_pre	0		120	62.0	2.5	blank	1.0	292.25816106796265	1.000119924545288
64	275.27450585365295	pulse	0	t		62.0	2.5	blank	1.0	292.4417939186096	
64	276.09099292755127	movie	1		300	62.0	2.5	blank	1.0	293.25828099250793	2.5004100799560547
64	276.8746328353882	pulse	1	t		62.0	2.5	blank	1.0	294.04192090034485	
64	278.4748878479004	pulse	1	t		62.0	2.5	blank	1.0	295.64217591285706	
64	278.5914030075073	fix_post	2		12	62.0	2.5	blank	1.0	295.758691072464	0.09999704360961914
65	278.69140005111694	fix_pre	0		120	63.0	2.5	/experiments/knapen_AOT/AOT_stimuli/rescaled_final/1239_rv.mp4	0.0	295.8586881160736	1.000216007232666
65	279.6916160583496	movie	1		242	63.0	2.5	/experiments/knapen_AOT/AOT_stimuli/rescaled_final/1239_rv.mp4	0.0	296.8589041233063	2.49212384223938
65	280.0757648944855	pulse	1	t		63.0	2.5	/experiments/knapen_AOT/AOT_stimuli/rescaled_final/1239_rv.mp4	0.0	297.24305295944214	
65	281.6754958629608	pulse	1	t		63.0	2.5	/experiments/knapen_AOT/AOT_stimuli/rescaled_final/1239_rv.mp4	0.0	298.8427839279175	
65	282.183739900589	fix_post	2		12	63.0	2.5	/experiments/knapen_AOT/AOT_stimuli/rescaled_final/1239_rv.mp4	0.0	299.35102796554565	0.09986305236816406
66	282.28360295295715	fix_pre	0		120	64.0	2.5	/experiments/knapen_AOT/AOT_stimuli/rescaled_final/0623_rv.mp4	0.0	299.4508910179138	1.0002210140228271
66	283.2756190299988	pulse	0	t		64.0	2.5	/experiments/knapen_AOT/AOT_stimuli/rescaled_final/0623_rv.mp4	0.0	300.44290709495544	
66	283.28382396698	movie	1		243	64.0	2.5	/experiments/knapen_AOT/AOT_stimuli/rescaled_final/0623_rv.mp4	0.0	300.45111203193665	2.508725881576538
66	284.8772358894348	pulse	1	t		64.0	2.5	/experiments/knapen_AOT/AOT_stimuli/rescaled_final/0623_rv.mp4	0.0	302.0445239543915	
66	285.7925498485565	fix_post	2		12	64.0	2.5	/experiments/knapen_AOT/AOT_stimuli/rescaled_final/0623_rv.mp4	0.0	302.9598379135132	0.09999704360961914
67	285.89254689216614	fix_pre	0		120	65.0	2.5	/experiments/knapen_AOT/AOT_stimuli/rescaled_final/0533_rv.mp4	0.0	303.0598349571228	1.0000920295715332
67	286.4760580062866	pulse	0	t		65.0	2.5	/experiments/knapen_AOT/AOT_stimuli/rescaled_final/0533_rv.mp4	0.0	303.6433460712433	
67	286.89263892173767	movie	1		243	65.0	2.5	/experiments/knapen_AOT/AOT_stimuli/rescaled_final/0533_rv.mp4	0.0	304.05992698669434	2.500354051589966
67	288.07638597488403	pulse	1	t		65.0	2.5	/experiments/knapen_AOT/AOT_stimuli/rescaled_final/0533_rv.mp4	0.0	305.2436740398407	
67	289.39299297332764	fix_post	2		12	65.0	2.5	/experiments/knapen_AOT/AOT_stimuli/rescaled_final/0533_rv.mp4	0.0	306.5602810382843	0.10003995895385742
68	289.4930329322815	fix_pre	0		120	66.0	2.5	/experiments/knapen_AOT/AOT_stimuli/rescaled_final/2000_fw.mp4	0.0	306.66032099723816	1.0001659393310547
68	289.6766288280487	pulse	0	t		66.0	2.5	/experiments/knapen_AOT/AOT_stimuli/rescaled_final/2000_fw.mp4	0.0	306.84391689300537	
68	290.49319887161255	movie	1		242	66.0	2.5	/experiments/knapen_AOT/AOT_stimuli/rescaled_final/2000_fw.mp4	0.0	307.6604869365692	2.5005300045013428
68	291.2768838405609	pulse	1	t		66.0	2.5	/experiments/knapen_AOT/AOT_stimuli/rescaled_final/2000_fw.mp4	0.0	308.4441719055176	
68	292.87723302841187	pulse	1	t		66.0	2.5	/experiments/knapen_AOT/AOT_stimuli/rescaled_final/2000_fw.mp4	0.0	310.04452109336853	
68	292.9937288761139	fix_post	2		12	66.0	2.5	/experiments/knapen_AOT/AOT_stimuli/rescaled_final/2000_fw.mp4	0.0	310.16101694107056	0.09983611106872559
69	293.0935649871826	fix_pre	0		120	67.0	2.5	/experiments/knapen_AOT/AOT_stimuli/rescaled_final/0041_fw.mp4	0.0	310.2608530521393	1.0001988410949707
69	294.0937638282776	movie	1		245	67.0	2.5	/experiments/knapen_AOT/AOT_stimuli/rescaled_final/0041_fw.mp4	0.0	311.26105189323425	2.4919681549072266
69	294.47788405418396	pulse	1	t		67.0	2.5	/experiments/knapen_AOT/AOT_stimuli/rescaled_final/0041_fw.mp4	0.0	311.6451721191406	
69	296.070209980011	pulse	1	t		67.0	2.5	/experiments/knapen_AOT/AOT_stimuli/rescaled_final/0041_fw.mp4	0.0	313.23749804496765	
69	296.5857319831848	fix_post	2		12	67.0	2.5	/experiments/knapen_AOT/AOT_stimuli/rescaled_final/0041_fw.mp4	0.0	313.7530200481415	0.10001993179321289
70	296.685751914978	fix_pre	0		120	68.0	2.5	/experiments/knapen_AOT/AOT_stimuli/rescaled_final/0756_fw.mp4	0.0	313.8530399799347	1.000143051147461
70	297.6702649593353	pulse	0	t		68.0	2.5	/experiments/knapen_AOT/AOT_stimuli/rescaled_final/0756_fw.mp4	0.0	314.837553024292	
70	297.6858949661255	movie	1		245	68.0	2.5	/experiments/knapen_AOT/AOT_stimuli/rescaled_final/0756_fw.mp4	0.0	314.85318303108215	2.5087320804595947
70	299.2824249267578	pulse	1	t		68.0	2.5	/experiments/knapen_AOT/AOT_stimuli/rescaled_final/0756_fw.mp4	0.0	316.4497129917145	
70	300.1946270465851	fix_post	2		12	68.0	2.5	/experiments/knapen_AOT/AOT_stimuli/rescaled_final/0756_fw.mp4	0.0	317.36191511154175	0.10004782676696777
71	300.29467487335205	fix_pre	0		120	69.0	2.5	/experiments/knapen_AOT/AOT_stimuli/rescaled_final/1977_rv.mp4	0.0	317.4619629383087	1.0001220703125
71	300.8706588745117	pulse	0	t		69.0	2.5	/experiments/knapen_AOT/AOT_stimuli/rescaled_final/1977_rv.mp4	0.0	318.0379469394684	
71	301.29479694366455	movie	1		243	69.0	2.5	/experiments/knapen_AOT/AOT_stimuli/rescaled_final/1977_rv.mp4	0.0	318.4620850086212	2.5004639625549316
71	302.47104001045227	pulse	1	t		69.0	2.5	/experiments/knapen_AOT/AOT_stimuli/rescaled_final/1977_rv.mp4	0.0	319.63832807540894	
71	303.7952609062195	fix_post	2		12	69.0	2.5	/experiments/knapen_AOT/AOT_stimuli/rescaled_final/1977_rv.mp4	0.0	320.96254897117615	0.09993505477905273
72	303.89519596099854	fix_pre	0		120	70.0	2.5	blank	1.0	321.0624840259552	1.0001349449157715
72	304.0704879760742	pulse	0	t		70.0	2.5	blank	1.0	321.2377760410309	
72	304.8953309059143	movie	1		300	70.0	2.5	blank	1.0	322.062618970871	2.500380039215088
72	305.6706290245056	pulse	1	t		70.0	2.5	blank	1.0	322.8379170894623	
72	307.2707829475403	pulse	1	t		70.0	2.5	blank	1.0	324.43807101249695	
72	307.3957109451294	fix_post	2		12	70.0	2.5	blank	1.0	324.56299901008606	0.10000205039978027
73	307.4957129955292	fix_pre	0		119	71.0	2.5	/experiments/knapen_AOT/AOT_stimuli/rescaled_final/0424_fw.mp4	0.0	324.66300106048584	0.9918229579925537
73	308.48753595352173	movie	1		243	71.0	2.5	/experiments/knapen_AOT/AOT_stimuli/rescaled_final/0424_fw.mp4	0.0	325.6548240184784	2.5004360675811768
73	308.87170004844666	pulse	1	t		71.0	2.5	/experiments/knapen_AOT/AOT_stimuli/rescaled_final/0424_fw.mp4	0.0	326.0389881134033	
73	310.47136902809143	pulse	1	t		71.0	2.5	/experiments/knapen_AOT/AOT_stimuli/rescaled_final/0424_fw.mp4	0.0	327.6386570930481	
73	310.9879720211029	fix_post	2		12	71.0	2.5	/experiments/knapen_AOT/AOT_stimuli/rescaled_final/0424_fw.mp4	0.0	328.15526008605957	0.09993481636047363
74	311.0879068374634	fix_pre	0		119	72.0	2.5	/experiments/knapen_AOT/AOT_stimuli/rescaled_final/0294_fw.mp4	0.0	328.25519490242004	0.9918420314788818
74	312.071585893631	pulse	0	t		72.0	2.5	/experiments/knapen_AOT/AOT_stimuli/rescaled_final/0294_fw.mp4	0.0	329.23887395858765	
74	312.07974886894226	movie	1		244	72.0	2.5	/experiments/knapen_AOT/AOT_stimuli/rescaled_final/0294_fw.mp4	0.0	329.2470369338989	2.5087151527404785
74	313.6723299026489	pulse	1	t		72.0	2.5	/experiments/knapen_AOT/AOT_stimuli/rescaled_final/0294_fw.mp4	0.0	330.8396179676056	
74	314.58846402168274	fix_post	2		12	72.0	2.5	/experiments/knapen_AOT/AOT_stimuli/rescaled_final/0294_fw.mp4	0.0	331.7557520866394	0.10002684593200684
75	314.68849086761475	fix_pre	0		120	73.0	2.5	/experiments/knapen_AOT/AOT_stimuli/rescaled_final/0205_fw.mp4	0.0	331.8557789325714	1.0001251697540283
75	315.27200293540955	pulse	0	t		73.0	2.5	/experiments/knapen_AOT/AOT_stimuli/rescaled_final/0205_fw.mp4	0.0	332.4392910003662	
75	315.6886160373688	movie	1		244	73.0	2.5	/experiments/knapen_AOT/AOT_stimuli/rescaled_final/0205_fw.mp4	0.0	332.85590410232544	2.500372886657715
75	316.8724329471588	pulse	1	t		73.0	2.5	/experiments/knapen_AOT/AOT_stimuli/rescaled_final/0205_fw.mp4	0.0	334.0397210121155	
75	318.1889889240265	fix_post	2		12	73.0	2.5	/experiments/knapen_AOT/AOT_stimuli/rescaled_final/0205_fw.mp4	0.0	335.35627698898315	0.10001111030578613
76	318.2890000343323	fix_pre	0		120	74.0	2.5	/experiments/knapen_AOT/AOT_stimuli/rescaled_final/1596_rv.mp4	0.0	335.45628809928894	1.0001659393310547
76	318.47263193130493	pulse	0	t		74.0	2.5	/experiments/knapen_AOT/AOT_stimuli/rescaled_final/1596_rv.mp4	0.0	335.6399199962616	
76	319.28916597366333	movie	1		243	74.0	2.5	/experiments/knapen_AOT/AOT_stimuli/rescaled_final/1596_rv.mp4	0.0	336.45645403862	2.5005838871002197
76	320.0729169845581	pulse	1	t		74.0	2.5	/experiments/knapen_AOT/AOT_stimuli/rescaled_final/1596_rv.mp4	0.0	337.24020504951477	
76	321.6727888584137	pulse	1	t		74.0	2.5	/experiments/knapen_AOT/AOT_stimuli/rescaled_final/1596_rv.mp4	0.0	338.84007692337036	
76	321.78974986076355	fix_post	2		12	74.0	2.5	/experiments/knapen_AOT/AOT_stimuli/rescaled_final/1596_rv.mp4	0.0	338.9570379257202	0.09981608390808105
77	321.88956594467163	fix_pre	0		120	75.0	2.5	/experiments/knapen_AOT/AOT_stimuli/rescaled_final/0892_rv.mp4	0.0	339.0568540096283	1.0000948905944824
77	322.8896608352661	movie	1		241	75.0	2.5	/experiments/knapen_AOT/AOT_stimuli/rescaled_final/0892_rv.mp4	0.0	340.0569489002228	2.492215156555176
77	323.27382802963257	pulse	1	t		75.0	2.5	/experiments/knapen_AOT/AOT_stimuli/rescaled_final/0892_rv.mp4	0.0	340.44111609458923	
77	324.8735189437866	pulse	1	t		75.0	2.5	/experiments/knapen_AOT/AOT_stimuli/rescaled_final/0892_rv.mp4	0.0	342.0408070087433	
77	325.3818759918213	fix_post	2		12	75.0	2.5	/experiments/knapen_AOT/AOT_stimuli/rescaled_final/0892_rv.mp4	0.0	342.54916405677795	0.09988594055175781
78	325.48176193237305	fix_pre	0		120	76.0	2.5	blank	1.0	342.6490499973297	1.0000901222229004
78	326.4738700389862	pulse	0	t		76.0	2.5	blank	1.0	343.64115810394287	
78	326.48185205459595	movie	1		301	76.0	2.5	blank	1.0	343.6491401195526	2.508786916732788
78	328.07400393486023	pulse	1	t		76.0	2.5	blank	1.0	345.2412919998169	
78	328.99063897132874	fix_post	2		8	76.0	2.5	blank	1.0	346.1579270362854	0.09997797012329102
79	329.090616941452	fix_pre	0		120	77.0	2.5	/experiments/knapen_AOT/AOT_stimuli/rescaled_final/0181_fw.mp4	0.0	346.2579050064087	1.000128984451294
79	329.6741349697113	pulse	0	t		77.0	2.5	/experiments/knapen_AOT/AOT_stimuli/rescaled_final/0181_fw.mp4	0.0	346.84142303466797	
79	330.0907459259033	movie	1		245	77.0	2.5	/experiments/knapen_AOT/AOT_stimuli/rescaled_final/0181_fw.mp4	0.0	347.25803399086	2.5003960132598877
79	331.27454590797424	pulse	1	t		77.0	2.5	/experiments/knapen_AOT/AOT_stimuli/rescaled_final/0181_fw.mp4	0.0	348.4418339729309	
79	332.5911419391632	fix_post	2		12	77.0	2.5	/experiments/knapen_AOT/AOT_stimuli/rescaled_final/0181_fw.mp4	0.0	349.7584300041199	0.09995603561401367
80	332.6910979747772	fix_pre	0		120	78.0	2.5	/experiments/knapen_AOT/AOT_stimuli/rescaled_final/1210_fw.mp4	0.0	349.8583860397339	1.0001790523529053
80	332.87480902671814	pulse	0	t		78.0	2.5	/experiments/knapen_AOT/AOT_stimuli/rescaled_final/1210_fw.mp4	0.0	350.0420970916748	
80	333.6912770271301	movie	1		242	78.0	2.5	/experiments/knapen_AOT/AOT_stimuli/rescaled_final/1210_fw.mp4	0.0	350.8585650920868	2.5006120204925537
80	334.47497296333313	pulse	1	t		78.0	2.5	/experiments/knapen_AOT/AOT_stimuli/rescaled_final/1210_fw.mp4	0.0	351.6422610282898	
80	336.0758168697357	pulse	1	t		78.0	2.5	/experiments/knapen_AOT/AOT_stimuli/rescaled_final/1210_fw.mp4	0.0	353.2431049346924	
80	336.1918890476227	fix_post	2		12	78.0	2.5	/experiments/knapen_AOT/AOT_stimuli/rescaled_final/1210_fw.mp4	0.0	353.35917711257935	0.09976577758789062
81	336.29165482521057	fix_pre	0		120	79.0	2.5	/experiments/knapen_AOT/AOT_stimuli/rescaled_final/1187_fw.mp4	0.0	353.45894289016724	1.0001611709594727
81	337.29181599617004	movie	1		241	79.0	2.5	/experiments/knapen_AOT/AOT_stimuli/rescaled_final/1187_fw.mp4	0.0	354.4591040611267	2.49216890335083
81	337.6764588356018	pulse	1	t		79.0	2.5	/experiments/knapen_AOT/AOT_stimuli/rescaled_final/1187_fw.mp4	0.0	354.8437469005585	
81	339.2757468223572	pulse	1	t		79.0	2.5	/experiments/knapen_AOT/AOT_stimuli/rescaled_final/1187_fw.mp4	0.0	356.44303488731384	
81	339.7839848995209	fix_post	2		12	79.0	2.5	/experiments/knapen_AOT/AOT_stimuli/rescaled_final/1187_fw.mp4	0.0	356.95127296447754	0.09989714622497559
82	339.88388204574585	fix_pre	0		120	80.0	2.5	/experiments/knapen_AOT/AOT_stimuli/rescaled_final/0933_rv.mp4	0.0	357.0511701107025	1.0001099109649658
82	340.87598490715027	pulse	0	t		80.0	2.5	/experiments/knapen_AOT/AOT_stimuli/rescaled_final/0933_rv.mp4	0.0	358.04327297210693	
82	340.8839919567108	movie	1		244	80.0	2.5	/experiments/knapen_AOT/AOT_stimuli/rescaled_final/0933_rv.mp4	0.0	358.0512800216675	2.5087790489196777
82	342.47670888900757	pulse	1	t		80.0	2.5	/experiments/knapen_AOT/AOT_stimuli/rescaled_final/0933_rv.mp4	0.0	359.64399695396423	
82	343.3927710056305	fix_post	2		12	80.0	2.5	/experiments/knapen_AOT/AOT_stimuli/rescaled_final/0933_rv.mp4	0.0	360.56005907058716	0.09998083114624023
83	343.49275183677673	fix_pre	0		120	81.0	2.5	/experiments/knapen_AOT/AOT_stimuli/rescaled_final/1483_fw.mp4	0.0	360.6600399017334	1.0001280307769775
83	344.0763359069824	pulse	0	t		81.0	2.5	/experiments/knapen_AOT/AOT_stimuli/rescaled_final/1483_fw.mp4	0.0	361.2436239719391	
83	344.4928798675537	movie	1		242	81.0	2.5	/experiments/knapen_AOT/AOT_stimuli/rescaled_final/1483_fw.mp4	0.0	361.6601679325104	2.500399112701416
83	345.67676997184753	pulse	1	t		81.0	2.5	/experiments/knapen_AOT/AOT_stimuli/rescaled_final/1483_fw.mp4	0.0	362.8440580368042	
83	346.9932789802551	fix_post	2		12	81.0	2.5	/experiments/knapen_AOT/AOT_stimuli/rescaled_final/1483_fw.mp4	0.0	364.1605670452118	0.10003304481506348
84	347.0933120250702	fix_pre	0		120	82.0	2.5	blank	1.0	364.26060009002686	1.0000920295715332
84	347.27692198753357	pulse	0	t		82.0	2.5	blank	1.0	364.44421005249023	
84	348.0934040546417	movie	1		300	82.0	2.5	blank	1.0	365.2606921195984	2.5003809928894043
84	348.87701201438904	pulse	1	t		82.0	2.5	blank	1.0	366.0443000793457	
84	350.4772708415985	pulse	1	t		82.0	2.5	blank	1.0	367.6445589065552	
84	350.5937850475311	fix_post	2		12	82.0	2.5	blank	1.0	367.7610731124878	0.10001778602600098
85	350.69380283355713	fix_pre	0		120	83.0	2.5	/experiments/knapen_AOT/AOT_stimuli/rescaled_final/1872_fw.mp4	0.0	367.8610908985138	1.0001411437988281
85	351.69394397735596	movie	1		241	83.0	2.5	/experiments/knapen_AOT/AOT_stimuli/rescaled_final/1872_fw.mp4	0.0	368.8612320423126	2.4921159744262695
85	352.0821039676666	pulse	1	t		83.0	2.5	/experiments/knapen_AOT/AOT_stimuli/rescaled_final/1872_fw.mp4	0.0	369.2493920326233	
85	353.6779189109802	pulse	1	t		83.0	2.5	/experiments/knapen_AOT/AOT_stimuli/rescaled_final/1872_fw.mp4	0.0	370.8452069759369	
85	354.1860599517822	fix_post	2		12	83.0	2.5	/experiments/knapen_AOT/AOT_stimuli/rescaled_final/1872_fw.mp4	0.0	371.3533480167389	0.10002398490905762
87	354.2860839366913	stim	0		1716					371.45337200164795	14.302179098129272
87	355.2780179977417	pulse	0	t						372.44530606269836	
87	356.87094593048096	pulse	0	t						374.0382339954376	
87	358.47018003463745	pulse	0	t						375.6374680995941	
87	360.0703299045563	pulse	0	t						377.23761796951294	
87	361.6706290245056	pulse	0	t						378.8379170894623	
87	363.27087593078613	pulse	0	t						380.4381639957428	
87	364.8710129261017	pulse	0	t						382.03830099105835	
87	366.47129583358765	pulse	0	t						383.6385838985443	
87	368.07150387763977	pulse	0	t						385.23879194259644	
