trial_nr	onset	event_type	phase	response	nr_frames	movie_index	movie_duration	movie_file	blank	onset_abs	duration
0	0.1663661003112793	stim	0		1					105.71640348434448	0.01654219627380371
0	0.1457984447479248	response	0	space						105.69583582878113	
1	0.182908296585083	stim	0		4702					105.73294568061829	39.20074200630188
1	39.37371039390564	pulse	0	t						144.92374777793884	
1	39.38365030288696	stim	1		1715					144.93368768692017	14.307265281677246
1	40.96419715881348	pulse	1	t						146.51423454284668	
1	42.56437420845032	pulse	1	t						148.11441159248352	
1	44.16484355926514	pulse	1	t						149.71488094329834	
1	45.765209674835205	pulse	1	t						151.3152470588684	
1	47.36511278152466	pulse	1	t						152.91515016555786	
1	48.96542310714722	pulse	1	t						154.51546049118042	
1	50.5657594203949	pulse	1	t						156.1157968044281	
1	52.165826082229614	pulse	1	t						157.71586346626282	
2	53.69091558456421	fix_pre	0		10	0.0	2.5	/experiments/knapen_AOT/AOT_stimuli/rescaled_final/1369_rv.mp4	0.0	159.2409529685974	0.10841155052185059
2	53.76611661911011	pulse	0	t		0.0	2.5	/experiments/knapen_AOT/AOT_stimuli/rescaled_final/1369_rv.mp4	0.0	159.3161540031433	
2	53.79932713508606	movie	1		280	0.0	2.5	/experiments/knapen_AOT/AOT_stimuli/rescaled_final/1369_rv.mp4	0.0	159.34936451911926	2.483693838119507
2	55.36458110809326	pulse	1	t		0.0	2.5	/experiments/knapen_AOT/AOT_stimuli/rescaled_final/1369_rv.mp4	0.0	160.91461849212646	
2	56.283020973205566	fix_post	2		12	0.0	2.5	/experiments/knapen_AOT/AOT_stimuli/rescaled_final/1369_rv.mp4	0.0	161.83305835723877	0.1000361442565918
3	56.38305711746216	fix_pre	0		120	1.0	2.5	/experiments/knapen_AOT/AOT_stimuli/rescaled_final/1625_rv.mp4	0.0	161.93309450149536	1.0083990097045898
3	56.966803312301636	pulse	0	t		1.0	2.5	/experiments/knapen_AOT/AOT_stimuli/rescaled_final/1625_rv.mp4	0.0	162.51684069633484	
3	57.39145612716675	movie	1		264	1.0	2.5	/experiments/knapen_AOT/AOT_stimuli/rescaled_final/1625_rv.mp4	0.0	162.94149351119995	2.492391586303711
3	58.56502938270569	pulse	1	t		1.0	2.5	/experiments/knapen_AOT/AOT_stimuli/rescaled_final/1625_rv.mp4	0.0	164.1150667667389	
3	59.88384771347046	fix_post	2		12	1.0	2.5	/experiments/knapen_AOT/AOT_stimuli/rescaled_final/1625_rv.mp4	0.0	165.43388509750366	0.09980583190917969
4	59.98365354537964	fix_pre	0		120	2.0	2.5	/experiments/knapen_AOT/AOT_stimuli/rescaled_final/1550_fw.mp4	0.0	165.53369092941284	1.0083293914794922
4	60.16713523864746	pulse	0	t		2.0	2.5	/experiments/knapen_AOT/AOT_stimuli/rescaled_final/1550_fw.mp4	0.0	165.71717262268066	
4	60.99198293685913	movie	1		272	2.0	2.5	/experiments/knapen_AOT/AOT_stimuli/rescaled_final/1550_fw.mp4	0.0	166.54202032089233	2.492044687271118
4	61.76524519920349	pulse	1	t		2.0	2.5	/experiments/knapen_AOT/AOT_stimuli/rescaled_final/1550_fw.mp4	0.0	167.3152825832367	
4	63.3660523891449	pulse	1	t		2.0	2.5	/experiments/knapen_AOT/AOT_stimuli/rescaled_final/1550_fw.mp4	0.0	168.9160897731781	
4	63.48402762413025	fix_post	2		12	2.0	2.5	/experiments/knapen_AOT/AOT_stimuli/rescaled_final/1550_fw.mp4	0.0	169.03406500816345	0.10005664825439453
5	63.584084272384644	fix_pre	0		120	3.0	2.5	/experiments/knapen_AOT/AOT_stimuli/rescaled_final/0458_fw.mp4	0.0	169.13412165641785	1.0084319114685059
5	64.59251618385315	movie	1		268	3.0	2.5	/experiments/knapen_AOT/AOT_stimuli/rescaled_final/0458_fw.mp4	0.0	170.14255356788635	2.492037534713745
5	64.96609663963318	pulse	1	t		3.0	2.5	/experiments/knapen_AOT/AOT_stimuli/rescaled_final/0458_fw.mp4	0.0	170.51613402366638	
5	66.5684289932251	pulse	1	t		3.0	2.5	/experiments/knapen_AOT/AOT_stimuli/rescaled_final/0458_fw.mp4	0.0	172.1184663772583	
5	67.0845537185669	fix_post	2		12	3.0	2.5	/experiments/knapen_AOT/AOT_stimuli/rescaled_final/0458_fw.mp4	0.0	172.6345911026001	0.10029029846191406
6	67.18484401702881	fix_pre	0		119	4.0	2.5	/experiments/knapen_AOT/AOT_stimuli/rescaled_final/1785_fw.mp4	0.0	172.734881401062	0.9998869895935059
6	68.16825485229492	pulse	0	t		4.0	2.5	/experiments/knapen_AOT/AOT_stimuli/rescaled_final/1785_fw.mp4	0.0	173.71829223632812	
6	68.18473100662231	movie	1		267	4.0	2.5	/experiments/knapen_AOT/AOT_stimuli/rescaled_final/1785_fw.mp4	0.0	173.73476839065552	2.5006906986236572
6	69.76720118522644	pulse	1	t		4.0	2.5	/experiments/knapen_AOT/AOT_stimuli/rescaled_final/1785_fw.mp4	0.0	175.31723856925964	
6	70.68542170524597	fix_post	2		12	4.0	2.5	/experiments/knapen_AOT/AOT_stimuli/rescaled_final/1785_fw.mp4	0.0	176.23545908927917	0.09981584548950195
7	70.78523755073547	fix_pre	0		120	5.0	2.5	/experiments/knapen_AOT/AOT_stimuli/rescaled_final/1253_rv.mp4	0.0	176.33527493476868	1.0083520412445068
7	71.36878275871277	pulse	0	t		5.0	2.5	/experiments/knapen_AOT/AOT_stimuli/rescaled_final/1253_rv.mp4	0.0	176.91882014274597	
7	71.79358959197998	movie	1		263	5.0	2.5	/experiments/knapen_AOT/AOT_stimuli/rescaled_final/1253_rv.mp4	0.0	177.34362697601318	2.492382526397705
7	72.96686053276062	pulse	1	t		5.0	2.5	/experiments/knapen_AOT/AOT_stimuli/rescaled_final/1253_rv.mp4	0.0	178.51689791679382	
7	74.28597211837769	fix_post	2		12	5.0	2.5	/experiments/knapen_AOT/AOT_stimuli/rescaled_final/1253_rv.mp4	0.0	179.8360095024109	0.09999299049377441
8	74.38596510887146	fix_pre	0		120	6.0	2.5	/experiments/knapen_AOT/AOT_stimuli/rescaled_final/0040_rv.mp4	0.0	179.93600249290466	1.0082192420959473
8	74.56924629211426	pulse	0	t		6.0	2.5	/experiments/knapen_AOT/AOT_stimuli/rescaled_final/0040_rv.mp4	0.0	180.11928367614746	
8	75.39418435096741	movie	1		282	6.0	2.5	/experiments/knapen_AOT/AOT_stimuli/rescaled_final/0040_rv.mp4	0.0	180.9442217350006	2.49216890335083
8	76.16864562034607	pulse	1	t		6.0	2.5	/experiments/knapen_AOT/AOT_stimuli/rescaled_final/0040_rv.mp4	0.0	181.71868300437927	
8	77.76746964454651	pulse	1	t		6.0	2.5	/experiments/knapen_AOT/AOT_stimuli/rescaled_final/0040_rv.mp4	0.0	183.3175070285797	
8	77.88635325431824	fix_post	2		12	6.0	2.5	/experiments/knapen_AOT/AOT_stimuli/rescaled_final/0040_rv.mp4	0.0	183.43639063835144	0.09984898567199707
9	77.98620223999023	fix_pre	0		120	7.0	2.5	blank	1.0	183.53623962402344	1.000136137008667
9	78.9863383769989	movie	1		300	7.0	2.5	blank	1.0	184.5363757610321	2.5004615783691406
9	79.37002515792847	pulse	1	t		7.0	2.5	blank	1.0	184.92006254196167	
9	80.97020769119263	pulse	1	t		7.0	2.5	blank	1.0	186.52024507522583	
9	81.48679995536804	fix_post	2		12	7.0	2.5	blank	1.0	187.03683733940125	0.10001945495605469
10	81.5868194103241	fix_pre	0		119	8.0	2.5	/experiments/knapen_AOT/AOT_stimuli/rescaled_final/1022_rv.mp4	0.0	187.1368567943573	1.0001187324523926
10	82.57063746452332	pulse	0	t		8.0	2.5	/experiments/knapen_AOT/AOT_stimuli/rescaled_final/1022_rv.mp4	0.0	188.12067484855652	
10	82.58693814277649	movie	1		259	8.0	2.5	/experiments/knapen_AOT/AOT_stimuli/rescaled_final/1022_rv.mp4	0.0	188.1369755268097	2.5004143714904785
10	84.16925120353699	pulse	1	t		8.0	2.5	/experiments/knapen_AOT/AOT_stimuli/rescaled_final/1022_rv.mp4	0.0	189.7192885875702	
10	85.08735251426697	fix_post	2		12	8.0	2.5	/experiments/knapen_AOT/AOT_stimuli/rescaled_final/1022_rv.mp4	0.0	190.63738989830017	0.10007047653198242
11	85.18742299079895	fix_pre	0		120	9.0	2.5	/experiments/knapen_AOT/AOT_stimuli/rescaled_final/0534_rv.mp4	0.0	190.73746037483215	1.008544921875
11	85.7639057636261	pulse	0	t		9.0	2.5	/experiments/knapen_AOT/AOT_stimuli/rescaled_final/0534_rv.mp4	0.0	191.3139431476593	
11	86.19596791267395	movie	1		269	9.0	2.5	/experiments/knapen_AOT/AOT_stimuli/rescaled_final/0534_rv.mp4	0.0	191.74600529670715	2.4920639991760254
11	87.36939978599548	pulse	1	t		9.0	2.5	/experiments/knapen_AOT/AOT_stimuli/rescaled_final/0534_rv.mp4	0.0	192.9194371700287	
11	88.68803191184998	fix_post	2		12	9.0	2.5	/experiments/knapen_AOT/AOT_stimuli/rescaled_final/0534_rv.mp4	0.0	194.23806929588318	0.0997920036315918
12	88.78782391548157	fix_pre	0		120	10.0	2.5	/experiments/knapen_AOT/AOT_stimuli/rescaled_final/1490_rv.mp4	0.0	194.33786129951477	1.0084507465362549
12	88.96341705322266	pulse	0	t		10.0	2.5	/experiments/knapen_AOT/AOT_stimuli/rescaled_final/1490_rv.mp4	0.0	194.51345443725586	
12	89.79627466201782	movie	1		252	10.0	2.5	/experiments/knapen_AOT/AOT_stimuli/rescaled_final/1490_rv.mp4	0.0	195.34631204605103	2.4923181533813477
12	90.56384325027466	pulse	1	t		10.0	2.5	/experiments/knapen_AOT/AOT_stimuli/rescaled_final/1490_rv.mp4	0.0	196.11388063430786	
12	92.16418600082397	pulse	1	t		10.0	2.5	/experiments/knapen_AOT/AOT_stimuli/rescaled_final/1490_rv.mp4	0.0	197.71422338485718	
12	92.28859281539917	fix_post	2		12	10.0	2.5	/experiments/knapen_AOT/AOT_stimuli/rescaled_final/1490_rv.mp4	0.0	197.83863019943237	0.09978389739990234
13	92.38837671279907	fix_pre	0		120	11.0	2.5	/experiments/knapen_AOT/AOT_stimuli/rescaled_final/2175_rv.mp4	0.0	197.93841409683228	1.0086989402770996
13	93.39707565307617	movie	1		274	11.0	2.5	/experiments/knapen_AOT/AOT_stimuli/rescaled_final/2175_rv.mp4	0.0	198.94711303710938	2.492042303085327
13	93.76392674446106	pulse	1	t		11.0	2.5	/experiments/knapen_AOT/AOT_stimuli/rescaled_final/2175_rv.mp4	0.0	199.31396412849426	
13	95.36416244506836	pulse	1	t		11.0	2.5	/experiments/knapen_AOT/AOT_stimuli/rescaled_final/2175_rv.mp4	0.0	200.91419982910156	
13	95.8891179561615	fix_post	2		12	11.0	2.5	/experiments/knapen_AOT/AOT_stimuli/rescaled_final/2175_rv.mp4	0.0	201.4391553401947	0.09989118576049805
14	95.989009141922	fix_pre	0		118	12.0	2.5	/experiments/knapen_AOT/AOT_stimuli/rescaled_final/0814_fw.mp4	0.0	201.5390465259552	0.9918093681335449
14	96.96426916122437	pulse	0	t		12.0	2.5	/experiments/knapen_AOT/AOT_stimuli/rescaled_final/0814_fw.mp4	0.0	202.51430654525757	
14	96.98081851005554	movie	1		276	12.0	2.5	/experiments/knapen_AOT/AOT_stimuli/rescaled_final/0814_fw.mp4	0.0	202.53085589408875	2.5006320476531982
14	98.5644371509552	pulse	1	t		12.0	2.5	/experiments/knapen_AOT/AOT_stimuli/rescaled_final/0814_fw.mp4	0.0	204.1144745349884	
14	99.48145055770874	fix_post	2		12	12.0	2.5	/experiments/knapen_AOT/AOT_stimuli/rescaled_final/0814_fw.mp4	0.0	205.03148794174194	0.0996401309967041
15	99.58109068870544	fix_pre	0		120	13.0	2.5	blank	1.0	205.13112807273865	1.0002021789550781
15	100.16505026817322	pulse	0	t		13.0	2.5	blank	1.0	205.71508765220642	
15	100.58129286766052	movie	1		300	13.0	2.5	blank	1.0	206.13133025169373	2.5003652572631836
15	101.76499938964844	pulse	1	t		13.0	2.5	blank	1.0	207.31503677368164	
15	103.0816581249237	fix_post	2		12	13.0	2.5	blank	1.0	208.6316955089569	0.09998822212219238
16	103.1816463470459	fix_pre	0		120	14.0	2.5	/experiments/knapen_AOT/AOT_stimuli/rescaled_final/1671_rv.mp4	0.0	208.7316837310791	1.0084795951843262
16	103.36525750160217	pulse	0	t		14.0	2.5	/experiments/knapen_AOT/AOT_stimuli/rescaled_final/1671_rv.mp4	0.0	208.91529488563538	
16	104.19012594223022	movie	1		263	14.0	2.5	/experiments/knapen_AOT/AOT_stimuli/rescaled_final/1671_rv.mp4	0.0	209.74016332626343	2.4923226833343506
16	104.96337389945984	pulse	1	t		14.0	2.5	/experiments/knapen_AOT/AOT_stimuli/rescaled_final/1671_rv.mp4	0.0	210.51341128349304	
16	106.56404376029968	pulse	1	t		14.0	2.5	/experiments/knapen_AOT/AOT_stimuli/rescaled_final/1671_rv.mp4	0.0	212.11408114433289	
16	106.68244862556458	fix_post	2		12	14.0	2.5	/experiments/knapen_AOT/AOT_stimuli/rescaled_final/1671_rv.mp4	0.0	212.23248600959778	0.09973573684692383
17	106.7821843624115	fix_pre	0		120	15.0	2.5	/experiments/knapen_AOT/AOT_stimuli/rescaled_final/0856_fw.mp4	0.0	212.3322217464447	1.008768081665039
17	107.79095244407654	movie	1		264	15.0	2.5	/experiments/knapen_AOT/AOT_stimuli/rescaled_final/0856_fw.mp4	0.0	213.34098982810974	2.4917821884155273
17	108.16460657119751	pulse	1	t		15.0	2.5	/experiments/knapen_AOT/AOT_stimuli/rescaled_final/0856_fw.mp4	0.0	213.7146439552307	
17	109.76453852653503	pulse	1	t		15.0	2.5	/experiments/knapen_AOT/AOT_stimuli/rescaled_final/0856_fw.mp4	0.0	215.31457591056824	
17	110.28273463249207	fix_post	2		12	15.0	2.5	/experiments/knapen_AOT/AOT_stimuli/rescaled_final/0856_fw.mp4	0.0	215.83277201652527	0.10007429122924805
18	110.38280892372131	fix_pre	0		119	16.0	2.5	/experiments/knapen_AOT/AOT_stimuli/rescaled_final/1219_fw.mp4	0.0	215.93284630775452	1.0001225471496582
18	111.36649990081787	pulse	0	t		16.0	2.5	/experiments/knapen_AOT/AOT_stimuli/rescaled_final/1219_fw.mp4	0.0	216.91653728485107	
18	111.38293147087097	movie	1		287	16.0	2.5	/experiments/knapen_AOT/AOT_stimuli/rescaled_final/1219_fw.mp4	0.0	216.93296885490417	2.5005948543548584
18	112.96544432640076	pulse	1	t		16.0	2.5	/experiments/knapen_AOT/AOT_stimuli/rescaled_final/1219_fw.mp4	0.0	218.51548171043396	
18	113.88352632522583	fix_post	2		12	16.0	2.5	/experiments/knapen_AOT/AOT_stimuli/rescaled_final/1219_fw.mp4	0.0	219.43356370925903	0.09974527359008789
19	113.98327159881592	fix_pre	0		120	17.0	2.5	/experiments/knapen_AOT/AOT_stimuli/rescaled_final/1342_rv.mp4	0.0	219.53330898284912	1.0086426734924316
19	114.56695890426636	pulse	0	t		17.0	2.5	/experiments/knapen_AOT/AOT_stimuli/rescaled_final/1342_rv.mp4	0.0	220.11699628829956	
19	114.99191427230835	movie	1		280	17.0	2.5	/experiments/knapen_AOT/AOT_stimuli/rescaled_final/1342_rv.mp4	0.0	220.54195165634155	2.4919581413269043
19	116.1651496887207	pulse	1	t		17.0	2.5	/experiments/knapen_AOT/AOT_stimuli/rescaled_final/1342_rv.mp4	0.0	221.7151870727539	
19	117.48387241363525	fix_post	2		12	17.0	2.5	/experiments/knapen_AOT/AOT_stimuli/rescaled_final/1342_rv.mp4	0.0	223.03390979766846	0.1000983715057373
20	117.58397078514099	fix_pre	0		120	18.0	2.5	/experiments/knapen_AOT/AOT_stimuli/rescaled_final/0811_rv.mp4	0.0	223.1340081691742	1.0083198547363281
20	117.76777529716492	pulse	0	t		18.0	2.5	/experiments/knapen_AOT/AOT_stimuli/rescaled_final/0811_rv.mp4	0.0	223.31781268119812	
20	118.59229063987732	movie	1		275	18.0	2.5	/experiments/knapen_AOT/AOT_stimuli/rescaled_final/0811_rv.mp4	0.0	224.14232802391052	2.4921810626983643
20	119.36954140663147	pulse	1	t		18.0	2.5	/experiments/knapen_AOT/AOT_stimuli/rescaled_final/0811_rv.mp4	0.0	224.91957879066467	
20	120.96758842468262	pulse	1	t		18.0	2.5	/experiments/knapen_AOT/AOT_stimuli/rescaled_final/0811_rv.mp4	0.0	226.51762580871582	
20	121.08447170257568	fix_post	2		12	18.0	2.5	/experiments/knapen_AOT/AOT_stimuli/rescaled_final/0811_rv.mp4	0.0	226.6345090866089	0.09987211227416992
21	121.18434381484985	fix_pre	0		120	19.0	2.5	blank	1.0	226.73438119888306	1.0001673698425293
21	122.18451118469238	movie	1		300	19.0	2.5	blank	1.0	227.7345485687256	2.5003676414489746
21	122.56815338134766	pulse	1	t		19.0	2.5	blank	1.0	228.11819076538086	
21	124.16853213310242	pulse	1	t		19.0	2.5	blank	1.0	229.71856951713562	
21	124.68487882614136	fix_post	2		12	19.0	2.5	blank	1.0	230.23491621017456	0.10009908676147461
22	124.78497791290283	fix_pre	0		119	20.0	2.5	/experiments/knapen_AOT/AOT_stimuli/rescaled_final/0562_fw.mp4	0.0	230.33501529693604	1.0001051425933838
22	125.76854944229126	pulse	0	t		20.0	2.5	/experiments/knapen_AOT/AOT_stimuli/rescaled_final/0562_fw.mp4	0.0	231.31858682632446	
22	125.78508305549622	movie	1		289	20.0	2.5	/experiments/knapen_AOT/AOT_stimuli/rescaled_final/0562_fw.mp4	0.0	231.33512043952942	2.5004637241363525
22	127.36727976799011	pulse	1	t		20.0	2.5	/experiments/knapen_AOT/AOT_stimuli/rescaled_final/0562_fw.mp4	0.0	232.91731715202332	
22	128.28554677963257	fix_post	2		12	20.0	2.5	/experiments/knapen_AOT/AOT_stimuli/rescaled_final/0562_fw.mp4	0.0	233.83558416366577	0.10006904602050781
23	128.38561582565308	fix_pre	0		120	21.0	2.5	/experiments/knapen_AOT/AOT_stimuli/rescaled_final/1317_fw.mp4	0.0	233.93565320968628	1.0086965560913086
23	128.96913361549377	pulse	0	t		21.0	2.5	/experiments/knapen_AOT/AOT_stimuli/rescaled_final/1317_fw.mp4	0.0	234.51917099952698	
23	129.39431238174438	movie	1		272	21.0	2.5	/experiments/knapen_AOT/AOT_stimuli/rescaled_final/1317_fw.mp4	0.0	234.9443497657776	2.4918100833892822
23	130.56748795509338	pulse	1	t		21.0	2.5	/experiments/knapen_AOT/AOT_stimuli/rescaled_final/1317_fw.mp4	0.0	236.1175253391266	
23	131.88612246513367	fix_post	2		12	21.0	2.5	/experiments/knapen_AOT/AOT_stimuli/rescaled_final/1317_fw.mp4	0.0	237.43615984916687	0.09986400604248047
24	131.98598647117615	fix_pre	0		120	22.0	2.5	/experiments/knapen_AOT/AOT_stimuli/rescaled_final/1027_rv.mp4	0.0	237.53602385520935	1.0086660385131836
24	132.16956233978271	pulse	0	t		22.0	2.5	/experiments/knapen_AOT/AOT_stimuli/rescaled_final/1027_rv.mp4	0.0	237.71959972381592	
24	132.99465250968933	movie	1		272	22.0	2.5	/experiments/knapen_AOT/AOT_stimuli/rescaled_final/1027_rv.mp4	0.0	238.54468989372253	2.4918360710144043
24	133.76864051818848	pulse	1	t		22.0	2.5	/experiments/knapen_AOT/AOT_stimuli/rescaled_final/1027_rv.mp4	0.0	239.31867790222168	
24	135.36831283569336	pulse	1	t		22.0	2.5	/experiments/knapen_AOT/AOT_stimuli/rescaled_final/1027_rv.mp4	0.0	240.91835021972656	
24	135.48648858070374	fix_post	2		12	22.0	2.5	/experiments/knapen_AOT/AOT_stimuli/rescaled_final/1027_rv.mp4	0.0	241.03652596473694	0.10004448890686035
25	135.5865330696106	fix_pre	0		120	23.0	2.5	/experiments/knapen_AOT/AOT_stimuli/rescaled_final/0872_fw.mp4	0.0	241.1365704536438	1.0086033344268799
25	136.59513640403748	movie	1		277	23.0	2.5	/experiments/knapen_AOT/AOT_stimuli/rescaled_final/0872_fw.mp4	0.0	242.14517378807068	2.4919118881225586
25	136.96911239624023	pulse	1	t		23.0	2.5	/experiments/knapen_AOT/AOT_stimuli/rescaled_final/0872_fw.mp4	0.0	242.51914978027344	
25	138.56818890571594	pulse	1	t		23.0	2.5	/experiments/knapen_AOT/AOT_stimuli/rescaled_final/0872_fw.mp4	0.0	244.11822628974915	
25	139.08704829216003	fix_post	2		12	23.0	2.5	/experiments/knapen_AOT/AOT_stimuli/rescaled_final/0872_fw.mp4	0.0	244.63708567619324	0.1000204086303711
26	139.1870687007904	fix_pre	0		119	24.0	2.5	/experiments/knapen_AOT/AOT_stimuli/rescaled_final/0917_fw.mp4	0.0	244.7371060848236	1.0003268718719482
26	140.17085313796997	pulse	0	t		24.0	2.5	/experiments/knapen_AOT/AOT_stimuli/rescaled_final/0917_fw.mp4	0.0	245.72089052200317	
26	140.18739557266235	movie	1		275	24.0	2.5	/experiments/knapen_AOT/AOT_stimuli/rescaled_final/0917_fw.mp4	0.0	245.73743295669556	2.5002825260162354
26	141.76961970329285	pulse	1	t		24.0	2.5	/experiments/knapen_AOT/AOT_stimuli/rescaled_final/0917_fw.mp4	0.0	247.31965708732605	
26	142.6876780986786	fix_post	2		12	24.0	2.5	/experiments/knapen_AOT/AOT_stimuli/rescaled_final/0917_fw.mp4	0.0	248.2377154827118	0.09992337226867676
27	142.78760147094727	fix_pre	0		120	25.0	2.5	/experiments/knapen_AOT/AOT_stimuli/rescaled_final/0626_rv.mp4	0.0	248.33763885498047	1.008481502532959
27	143.37131571769714	pulse	0	t		25.0	2.5	/experiments/knapen_AOT/AOT_stimuli/rescaled_final/0626_rv.mp4	0.0	248.92135310173035	
27	143.79608297348022	movie	1		265	25.0	2.5	/experiments/knapen_AOT/AOT_stimuli/rescaled_final/0626_rv.mp4	0.0	249.34612035751343	2.492271900177002
27	144.96982860565186	pulse	1	t		25.0	2.5	/experiments/knapen_AOT/AOT_stimuli/rescaled_final/0626_rv.mp4	0.0	250.51986598968506	
27	146.28835487365723	fix_post	2		12	25.0	2.5	/experiments/knapen_AOT/AOT_stimuli/rescaled_final/0626_rv.mp4	0.0	251.83839225769043	0.09984016418457031
28	146.3881950378418	fix_pre	0		120	26.0	2.5	blank	1.0	251.938232421875	1.0000879764556885
28	146.56404495239258	pulse	0	t		26.0	2.5	blank	1.0	252.11408233642578	
28	147.38828301429749	movie	1		300	26.0	2.5	blank	1.0	252.9383203983307	2.50056529045105
28	148.16394639015198	pulse	1	t		26.0	2.5	blank	1.0	253.71398377418518	
28	149.76390552520752	pulse	1	t		26.0	2.5	blank	1.0	255.31394290924072	
28	149.88884830474854	fix_post	2		12	26.0	2.5	blank	1.0	255.43888568878174	0.09983277320861816
29	149.98868107795715	fix_pre	0		120	27.0	2.5	/experiments/knapen_AOT/AOT_stimuli/rescaled_final/0762_fw.mp4	0.0	255.53871846199036	1.008512020111084
29	150.99719309806824	movie	1		265	27.0	2.5	/experiments/knapen_AOT/AOT_stimuli/rescaled_final/0762_fw.mp4	0.0	256.54723048210144	2.492157459259033
29	151.36408305168152	pulse	1	t		27.0	2.5	/experiments/knapen_AOT/AOT_stimuli/rescaled_final/0762_fw.mp4	0.0	256.9141204357147	
29	152.96434330940247	pulse	1	t		27.0	2.5	/experiments/knapen_AOT/AOT_stimuli/rescaled_final/0762_fw.mp4	0.0	258.51438069343567	
29	153.48935055732727	fix_post	2		12	27.0	2.5	/experiments/knapen_AOT/AOT_stimuli/rescaled_final/0762_fw.mp4	0.0	259.0393879413605	0.09993410110473633
30	153.589284658432	fix_pre	0		118	28.0	2.5	/experiments/knapen_AOT/AOT_stimuli/rescaled_final/0707_rv.mp4	0.0	259.1393220424652	0.9917635917663574
30	154.56456184387207	pulse	0	t		28.0	2.5	/experiments/knapen_AOT/AOT_stimuli/rescaled_final/0707_rv.mp4	0.0	260.1145992279053	
30	154.58104825019836	movie	1		276	28.0	2.5	/experiments/knapen_AOT/AOT_stimuli/rescaled_final/0707_rv.mp4	0.0	260.13108563423157	2.5005507469177246
30	156.16314005851746	pulse	1	t		28.0	2.5	/experiments/knapen_AOT/AOT_stimuli/rescaled_final/0707_rv.mp4	0.0	261.71317744255066	
30	157.0815989971161	fix_post	2		12	28.0	2.5	/experiments/knapen_AOT/AOT_stimuli/rescaled_final/0707_rv.mp4	0.0	262.6316363811493	0.09984469413757324
31	157.18144369125366	fix_pre	0		120	29.0	2.5	/experiments/knapen_AOT/AOT_stimuli/rescaled_final/0762_fw.mp4	0.0	262.73148107528687	1.0085008144378662
31	157.76511454582214	pulse	0	t		29.0	2.5	/experiments/knapen_AOT/AOT_stimuli/rescaled_final/0762_fw.mp4	0.0	263.31515192985535	
31	158.18994450569153	movie	1		268	29.0	2.5	/experiments/knapen_AOT/AOT_stimuli/rescaled_final/0762_fw.mp4	0.0	263.73998188972473	2.492002248764038
31	159.3635652065277	pulse	1	t		29.0	2.5	/experiments/knapen_AOT/AOT_stimuli/rescaled_final/0762_fw.mp4	0.0	264.9136025905609	
31	160.68194675445557	fix_post	2		12	29.0	2.5	/experiments/knapen_AOT/AOT_stimuli/rescaled_final/0762_fw.mp4	0.0	266.23198413848877	0.10003161430358887
32	160.78197836875916	fix_pre	0		120	30.0	2.5	/experiments/knapen_AOT/AOT_stimuli/rescaled_final/2004_fw.mp4	0.0	266.33201575279236	1.0087008476257324
32	160.96557140350342	pulse	0	t		30.0	2.5	/experiments/knapen_AOT/AOT_stimuli/rescaled_final/2004_fw.mp4	0.0	266.5156087875366	
32	161.7906792163849	movie	1		265	30.0	2.5	/experiments/knapen_AOT/AOT_stimuli/rescaled_final/2004_fw.mp4	0.0	267.3407166004181	2.500210762023926
32	162.56412291526794	pulse	1	t		30.0	2.5	/experiments/knapen_AOT/AOT_stimuli/rescaled_final/2004_fw.mp4	0.0	268.11416029930115	
32	164.1643669605255	pulse	1	t		30.0	2.5	/experiments/knapen_AOT/AOT_stimuli/rescaled_final/2004_fw.mp4	0.0	269.7144043445587	
32	164.2908899784088	fix_post	2		11	30.0	2.5	/experiments/knapen_AOT/AOT_stimuli/rescaled_final/2004_fw.mp4	0.0	269.840927362442	0.0917212963104248
33	164.38261127471924	fix_pre	0		120	31.0	2.5	/experiments/knapen_AOT/AOT_stimuli/rescaled_final/1519_rv.mp4	0.0	269.93264865875244	1.0085070133209229
33	165.39111828804016	movie	1		275	31.0	2.5	/experiments/knapen_AOT/AOT_stimuli/rescaled_final/1519_rv.mp4	0.0	270.94115567207336	2.4920248985290527
33	165.76675653457642	pulse	1	t		31.0	2.5	/experiments/knapen_AOT/AOT_stimuli/rescaled_final/1519_rv.mp4	0.0	271.3167939186096	
33	167.36639952659607	pulse	1	t		31.0	2.5	/experiments/knapen_AOT/AOT_stimuli/rescaled_final/1519_rv.mp4	0.0	272.9164369106293	
33	167.8831431865692	fix_post	2		12	31.0	2.5	/experiments/knapen_AOT/AOT_stimuli/rescaled_final/1519_rv.mp4	0.0	273.4331805706024	0.1000218391418457
34	167.98316502571106	fix_pre	0		119	32.0	2.5	/experiments/knapen_AOT/AOT_stimuli/rescaled_final/0431_fw.mp4	0.0	273.53320240974426	1.0001428127288818
34	168.96674346923828	pulse	0	t		32.0	2.5	/experiments/knapen_AOT/AOT_stimuli/rescaled_final/0431_fw.mp4	0.0	274.5167808532715	
34	168.98330783843994	movie	1		251	32.0	2.5	/experiments/knapen_AOT/AOT_stimuli/rescaled_final/0431_fw.mp4	0.0	274.53334522247314	2.500521183013916
34	170.56711602210999	pulse	1	t		32.0	2.5	/experiments/knapen_AOT/AOT_stimuli/rescaled_final/0431_fw.mp4	0.0	276.1171534061432	
34	171.48382902145386	fix_post	2		12	32.0	2.5	/experiments/knapen_AOT/AOT_stimuli/rescaled_final/0431_fw.mp4	0.0	277.03386640548706	0.10012674331665039
35	171.5839557647705	fix_pre	0		120	33.0	2.5	/experiments/knapen_AOT/AOT_stimuli/rescaled_final/1637_fw.mp4	0.0	277.1339931488037	1.0081772804260254
35	172.16736435890198	pulse	0	t		33.0	2.5	/experiments/knapen_AOT/AOT_stimuli/rescaled_final/1637_fw.mp4	0.0	277.7174017429352	
35	172.59213304519653	movie	1		263	33.0	2.5	/experiments/knapen_AOT/AOT_stimuli/rescaled_final/1637_fw.mp4	0.0	278.14217042922974	2.4923930168151855
35	173.76528000831604	pulse	1	t		33.0	2.5	/experiments/knapen_AOT/AOT_stimuli/rescaled_final/1637_fw.mp4	0.0	279.31531739234924	
35	175.08452606201172	fix_post	2		12	33.0	2.5	/experiments/knapen_AOT/AOT_stimuli/rescaled_final/1637_fw.mp4	0.0	280.6345634460449	0.0996243953704834
36	175.1841504573822	fix_pre	0		120	34.0	2.5	blank	1.0	280.7341878414154	1.000133991241455
36	175.36771631240845	pulse	0	t		34.0	2.5	blank	1.0	280.91775369644165	
36	176.18428444862366	movie	1		300	34.0	2.5	blank	1.0	281.73432183265686	2.5003714561462402
36	176.96794366836548	pulse	1	t		34.0	2.5	blank	1.0	282.5179810523987	
36	178.56815218925476	pulse	1	t		34.0	2.5	blank	1.0	284.11818957328796	
36	178.6846559047699	fix_post	2		12	34.0	2.5	blank	1.0	284.2346932888031	0.10008645057678223
37	178.78474235534668	fix_pre	0		120	35.0	2.5	/experiments/knapen_AOT/AOT_stimuli/rescaled_final/0210_fw.mp4	0.0	284.3347797393799	1.008446216583252
37	179.79318857192993	movie	1		269	35.0	2.5	/experiments/knapen_AOT/AOT_stimuli/rescaled_final/0210_fw.mp4	0.0	285.34322595596313	2.492210626602173
37	180.16675281524658	pulse	1	t		35.0	2.5	/experiments/knapen_AOT/AOT_stimuli/rescaled_final/0210_fw.mp4	0.0	285.7167901992798	
37	181.76651191711426	pulse	1	t		35.0	2.5	/experiments/knapen_AOT/AOT_stimuli/rescaled_final/0210_fw.mp4	0.0	287.31654930114746	
37	182.2853991985321	fix_post	2		12	35.0	2.5	/experiments/knapen_AOT/AOT_stimuli/rescaled_final/0210_fw.mp4	0.0	287.8354365825653	0.0998532772064209
38	182.38525247573853	fix_pre	0		119	36.0	2.5	/experiments/knapen_AOT/AOT_stimuli/rescaled_final/1384_fw.mp4	0.0	287.93528985977173	1.0001018047332764
38	183.36893224716187	pulse	0	t		36.0	2.5	/experiments/knapen_AOT/AOT_stimuli/rescaled_final/1384_fw.mp4	0.0	288.91896963119507	
38	183.3853542804718	movie	1		255	36.0	2.5	/experiments/knapen_AOT/AOT_stimuli/rescaled_final/1384_fw.mp4	0.0	288.935391664505	2.5005900859832764
38	184.96823406219482	pulse	1	t		36.0	2.5	/experiments/knapen_AOT/AOT_stimuli/rescaled_final/1384_fw.mp4	0.0	290.518271446228	
38	185.88594436645508	fix_post	2		12	36.0	2.5	/experiments/knapen_AOT/AOT_stimuli/rescaled_final/1384_fw.mp4	0.0	291.4359817504883	0.09985494613647461
39	185.98579931259155	fix_pre	0		120	37.0	2.5	/experiments/knapen_AOT/AOT_stimuli/rescaled_final/0174_fw.mp4	0.0	291.53583669662476	1.008559226989746
39	186.56954646110535	pulse	0	t		37.0	2.5	/experiments/knapen_AOT/AOT_stimuli/rescaled_final/0174_fw.mp4	0.0	292.11958384513855	
39	186.9943585395813	movie	1		287	37.0	2.5	/experiments/knapen_AOT/AOT_stimuli/rescaled_final/0174_fw.mp4	0.0	292.5443959236145	2.491969347000122
39	188.16798567771912	pulse	1	t		37.0	2.5	/experiments/knapen_AOT/AOT_stimuli/rescaled_final/0174_fw.mp4	0.0	293.7180230617523	
39	189.48632788658142	fix_post	2		12	37.0	2.5	/experiments/knapen_AOT/AOT_stimuli/rescaled_final/0174_fw.mp4	0.0	295.0363652706146	0.09997940063476562
40	189.5863072872162	fix_pre	0		120	38.0	2.5	/experiments/knapen_AOT/AOT_stimuli/rescaled_final/0853_rv.mp4	0.0	295.1363446712494	1.0084798336029053
40	189.7701644897461	pulse	0	t		38.0	2.5	/experiments/knapen_AOT/AOT_stimuli/rescaled_final/0853_rv.mp4	0.0	295.3202018737793	
40	190.5947871208191	movie	1		275	38.0	2.5	/experiments/knapen_AOT/AOT_stimuli/rescaled_final/0853_rv.mp4	0.0	296.1448245048523	2.4920568466186523
40	191.36940002441406	pulse	1	t		38.0	2.5	/experiments/knapen_AOT/AOT_stimuli/rescaled_final/0853_rv.mp4	0.0	296.91943740844727	
40	192.96849536895752	pulse	1	t		38.0	2.5	/experiments/knapen_AOT/AOT_stimuli/rescaled_final/0853_rv.mp4	0.0	298.5185327529907	
40	193.08684396743774	fix_post	2		12	38.0	2.5	/experiments/knapen_AOT/AOT_stimuli/rescaled_final/0853_rv.mp4	0.0	298.63688135147095	0.10001659393310547
41	193.18686056137085	fix_pre	0		120	39.0	2.5	/experiments/knapen_AOT/AOT_stimuli/rescaled_final/2015_rv.mp4	0.0	298.73689794540405	1.0084617137908936
41	194.19532227516174	movie	1		280	39.0	2.5	/experiments/knapen_AOT/AOT_stimuli/rescaled_final/2015_rv.mp4	0.0	299.74535965919495	2.4923148155212402
41	194.56922149658203	pulse	1	t		39.0	2.5	/experiments/knapen_AOT/AOT_stimuli/rescaled_final/2015_rv.mp4	0.0	300.11925888061523	
41	196.16843104362488	pulse	1	t		39.0	2.5	/experiments/knapen_AOT/AOT_stimuli/rescaled_final/2015_rv.mp4	0.0	301.7184684276581	
41	196.68763709068298	fix_post	2		12	39.0	2.5	/experiments/knapen_AOT/AOT_stimuli/rescaled_final/2015_rv.mp4	0.0	302.2376744747162	0.09999394416809082
42	196.78763103485107	fix_pre	0		119	40.0	2.5	blank	1.0	302.3376684188843	0.9916024208068848
42	197.76308917999268	pulse	0	t		40.0	2.5	blank	1.0	303.3131265640259	
42	197.77923345565796	movie	1		301	40.0	2.5	blank	1.0	303.32927083969116	2.5086658000946045
42	199.36312556266785	pulse	1	t		40.0	2.5	blank	1.0	304.91316294670105	
42	200.28789925575256	fix_post	2		12	40.0	2.5	blank	1.0	305.83793663978577	0.10005760192871094
43	200.38795685768127	fix_pre	0		120	41.0	2.5	/experiments/knapen_AOT/AOT_stimuli/rescaled_final/1891_fw.mp4	0.0	305.9379942417145	1.0084569454193115
43	200.96349048614502	pulse	0	t		41.0	2.5	/experiments/knapen_AOT/AOT_stimuli/rescaled_final/1891_fw.mp4	0.0	306.5135278701782	
43	201.3964138031006	movie	1		266	41.0	2.5	/experiments/knapen_AOT/AOT_stimuli/rescaled_final/1891_fw.mp4	0.0	306.9464511871338	2.492219924926758
43	202.56355452537537	pulse	1	t		41.0	2.5	/experiments/knapen_AOT/AOT_stimuli/rescaled_final/1891_fw.mp4	0.0	308.11359190940857	
43	203.88863372802734	fix_post	2		12	41.0	2.5	/experiments/knapen_AOT/AOT_stimuli/rescaled_final/1891_fw.mp4	0.0	309.43867111206055	0.09985113143920898
44	203.98848485946655	fix_pre	0		120	42.0	2.5	/experiments/knapen_AOT/AOT_stimuli/rescaled_final/1783_fw.mp4	0.0	309.53852224349976	1.0086455345153809
44	204.1640429496765	pulse	0	t		42.0	2.5	/experiments/knapen_AOT/AOT_stimuli/rescaled_final/1783_fw.mp4	0.0	309.7140803337097	
44	204.99713039398193	movie	1		274	42.0	2.5	/experiments/knapen_AOT/AOT_stimuli/rescaled_final/1783_fw.mp4	0.0	310.54716777801514	2.4920754432678223
44	205.76407432556152	pulse	1	t		42.0	2.5	/experiments/knapen_AOT/AOT_stimuli/rescaled_final/1783_fw.mp4	0.0	311.3141117095947	
44	207.36423182487488	pulse	1	t		42.0	2.5	/experiments/knapen_AOT/AOT_stimuli/rescaled_final/1783_fw.mp4	0.0	312.9142692089081	
44	207.48920583724976	fix_post	2		12	42.0	2.5	/experiments/knapen_AOT/AOT_stimuli/rescaled_final/1783_fw.mp4	0.0	313.03924322128296	0.09980463981628418
45	207.58901047706604	fix_pre	0		120	43.0	2.5	/experiments/knapen_AOT/AOT_stimuli/rescaled_final/1384_rv.mp4	0.0	313.13904786109924	1.0086393356323242
45	208.59764981269836	movie	1		264	43.0	2.5	/experiments/knapen_AOT/AOT_stimuli/rescaled_final/1384_rv.mp4	0.0	314.14768719673157	2.4921469688415527
45	208.96442651748657	pulse	1	t		43.0	2.5	/experiments/knapen_AOT/AOT_stimuli/rescaled_final/1384_rv.mp4	0.0	314.5144639015198	
45	210.56464910507202	pulse	1	t		43.0	2.5	/experiments/knapen_AOT/AOT_stimuli/rescaled_final/1384_rv.mp4	0.0	316.1146864891052	
45	211.08979678153992	fix_post	2		12	43.0	2.5	/experiments/knapen_AOT/AOT_stimuli/rescaled_final/1384_rv.mp4	0.0	316.6398341655731	0.09975361824035645
46	211.18955039978027	fix_pre	0		118	44.0	2.5	/experiments/knapen_AOT/AOT_stimuli/rescaled_final/2144_rv.mp4	0.0	316.7395877838135	0.9919419288635254
46	212.16506505012512	pulse	0	t		44.0	2.5	/experiments/knapen_AOT/AOT_stimuli/rescaled_final/2144_rv.mp4	0.0	317.7151024341583	
46	212.1814923286438	movie	1		279	44.0	2.5	/experiments/knapen_AOT/AOT_stimuli/rescaled_final/2144_rv.mp4	0.0	317.731529712677	2.500257968902588
46	213.7645890712738	pulse	1	t		44.0	2.5	/experiments/knapen_AOT/AOT_stimuli/rescaled_final/2144_rv.mp4	0.0	319.314626455307	
46	214.6817502975464	fix_post	2		12	44.0	2.5	/experiments/knapen_AOT/AOT_stimuli/rescaled_final/2144_rv.mp4	0.0	320.2317876815796	0.10001420974731445
47	214.7817645072937	fix_pre	0		120	45.0	2.5	/experiments/knapen_AOT/AOT_stimuli/rescaled_final/0534_fw.mp4	0.0	320.3318018913269	1.0085086822509766
47	215.36559557914734	pulse	0	t		45.0	2.5	/experiments/knapen_AOT/AOT_stimuli/rescaled_final/0534_fw.mp4	0.0	320.91563296318054	
47	215.79027318954468	movie	1		274	45.0	2.5	/experiments/knapen_AOT/AOT_stimuli/rescaled_final/0534_fw.mp4	0.0	321.3403105735779	2.492353916168213
47	216.96447086334229	pulse	1	t		45.0	2.5	/experiments/knapen_AOT/AOT_stimuli/rescaled_final/0534_fw.mp4	0.0	322.5145082473755	
47	218.2826271057129	fix_post	2		12	45.0	2.5	/experiments/knapen_AOT/AOT_stimuli/rescaled_final/0534_fw.mp4	0.0	323.8326644897461	0.09967231750488281
48	218.38229942321777	fix_pre	0		120	46.0	2.5	/experiments/knapen_AOT/AOT_stimuli/rescaled_final/0872_fw.mp4	0.0	323.932336807251	1.0085225105285645
48	218.56588077545166	pulse	0	t		46.0	2.5	/experiments/knapen_AOT/AOT_stimuli/rescaled_final/0872_fw.mp4	0.0	324.11591815948486	
48	219.39082193374634	movie	1		272	46.0	2.5	/experiments/knapen_AOT/AOT_stimuli/rescaled_final/0872_fw.mp4	0.0	324.94085931777954	2.492008686065674
48	220.16421508789062	pulse	1	t		46.0	2.5	/experiments/knapen_AOT/AOT_stimuli/rescaled_final/0872_fw.mp4	0.0	325.7142524719238	
48	221.76422262191772	pulse	1	t		46.0	2.5	/experiments/knapen_AOT/AOT_stimuli/rescaled_final/0872_fw.mp4	0.0	327.3142600059509	
48	221.882830619812	fix_post	2		12	46.0	2.5	/experiments/knapen_AOT/AOT_stimuli/rescaled_final/0872_fw.mp4	0.0	327.4328680038452	0.10001659393310547
49	221.98284721374512	fix_pre	0		104	47.0	2.5	blank	1.0	327.5328845977783	1.0001447200775146
49	222.98299193382263	movie	1		300	47.0	2.5	blank	1.0	328.53302931785583	2.50065279006958
49	223.36657667160034	pulse	1	t		47.0	2.5	blank	1.0	328.91661405563354	
49	224.96685767173767	pulse	1	t		47.0	2.5	blank	1.0	330.5168950557709	
49	225.4836447238922	fix_post	2		12	47.0	2.5	blank	1.0	331.0336821079254	0.0998084545135498
50	225.58345317840576	fix_pre	0		119	48.0	2.5	/experiments/knapen_AOT/AOT_stimuli/rescaled_final/0802_rv.mp4	0.0	331.13349056243896	1.0001130104064941
50	226.56729769706726	pulse	0	t		48.0	2.5	/experiments/knapen_AOT/AOT_stimuli/rescaled_final/0802_rv.mp4	0.0	332.11733508110046	
50	226.58356618881226	movie	1		274	48.0	2.5	/experiments/knapen_AOT/AOT_stimuli/rescaled_final/0802_rv.mp4	0.0	332.13360357284546	2.5003411769866943
50	228.16689324378967	pulse	1	t		48.0	2.5	/experiments/knapen_AOT/AOT_stimuli/rescaled_final/0802_rv.mp4	0.0	333.7169306278229	
50	229.08390736579895	fix_post	2		12	48.0	2.5	/experiments/knapen_AOT/AOT_stimuli/rescaled_final/0802_rv.mp4	0.0	334.63394474983215	0.10001993179321289
51	229.18392729759216	fix_pre	0		120	49.0	2.5	/experiments/knapen_AOT/AOT_stimuli/rescaled_final/0433_fw.mp4	0.0	334.73396468162537	1.0084936618804932
51	229.76759123802185	pulse	0	t		49.0	2.5	/experiments/knapen_AOT/AOT_stimuli/rescaled_final/0433_fw.mp4	0.0	335.31762862205505	
51	230.19242095947266	movie	1		285	49.0	2.5	/experiments/knapen_AOT/AOT_stimuli/rescaled_final/0433_fw.mp4	0.0	335.74245834350586	2.4920852184295654
51	231.36621952056885	pulse	1	t		49.0	2.5	/experiments/knapen_AOT/AOT_stimuli/rescaled_final/0433_fw.mp4	0.0	336.91625690460205	
51	232.68450617790222	fix_post	2		12	49.0	2.5	/experiments/knapen_AOT/AOT_stimuli/rescaled_final/0433_fw.mp4	0.0	338.2345435619354	0.09994626045227051
52	232.7844524383545	fix_pre	0		120	50.0	2.5	/experiments/knapen_AOT/AOT_stimuli/rescaled_final/0762_rv.mp4	0.0	338.3344898223877	1.0085136890411377
52	232.96805906295776	pulse	0	t		50.0	2.5	/experiments/knapen_AOT/AOT_stimuli/rescaled_final/0762_rv.mp4	0.0	338.51809644699097	
52	233.79296612739563	movie	1		278	50.0	2.5	/experiments/knapen_AOT/AOT_stimuli/rescaled_final/0762_rv.mp4	0.0	339.34300351142883	2.4922986030578613
52	234.5662305355072	pulse	1	t		50.0	2.5	/experiments/knapen_AOT/AOT_stimuli/rescaled_final/0762_rv.mp4	0.0	340.1162679195404	
52	236.16980719566345	pulse	1	t		50.0	2.5	/experiments/knapen_AOT/AOT_stimuli/rescaled_final/0762_rv.mp4	0.0	341.71984457969666	
52	236.2852647304535	fix_post	2		12	50.0	2.5	/experiments/knapen_AOT/AOT_stimuli/rescaled_final/0762_rv.mp4	0.0	341.8353021144867	0.09978675842285156
53	236.38505148887634	fix_pre	0		120	51.0	2.5	/experiments/knapen_AOT/AOT_stimuli/rescaled_final/1968_rv.mp4	0.0	341.93508887290955	1.0085539817810059
53	237.39360547065735	movie	1		287	51.0	2.5	/experiments/knapen_AOT/AOT_stimuli/rescaled_final/1968_rv.mp4	0.0	342.94364285469055	2.4921576976776123
53	237.76728439331055	pulse	1	t		51.0	2.5	/experiments/knapen_AOT/AOT_stimuli/rescaled_final/1968_rv.mp4	0.0	343.31732177734375	
53	239.36693263053894	pulse	1	t		51.0	2.5	/experiments/knapen_AOT/AOT_stimuli/rescaled_final/1968_rv.mp4	0.0	344.91697001457214	
53	239.88576316833496	fix_post	2		12	51.0	2.5	/experiments/knapen_AOT/AOT_stimuli/rescaled_final/1968_rv.mp4	0.0	345.43580055236816	0.09979605674743652
54	239.9855592250824	fix_pre	0		119	52.0	2.5	/experiments/knapen_AOT/AOT_stimuli/rescaled_final/1490_fw.mp4	0.0	345.5355966091156	1.0001647472381592
54	240.96925711631775	pulse	0	t		52.0	2.5	/experiments/knapen_AOT/AOT_stimuli/rescaled_final/1490_fw.mp4	0.0	346.51929450035095	
54	240.98572397232056	movie	1		274	52.0	2.5	/experiments/knapen_AOT/AOT_stimuli/rescaled_final/1490_fw.mp4	0.0	346.53576135635376	2.500563859939575
54	242.5680069923401	pulse	1	t		52.0	2.5	/experiments/knapen_AOT/AOT_stimuli/rescaled_final/1490_fw.mp4	0.0	348.1180443763733	
54	243.48628783226013	fix_post	2		12	52.0	2.5	/experiments/knapen_AOT/AOT_stimuli/rescaled_final/1490_fw.mp4	0.0	349.03632521629333	0.09980082511901855
55	243.58608865737915	fix_pre	0		120	53.0	2.5	/experiments/knapen_AOT/AOT_stimuli/rescaled_final/2072_fw.mp4	0.0	349.13612604141235	1.0086944103240967
55	244.17010736465454	pulse	0	t		53.0	2.5	/experiments/knapen_AOT/AOT_stimuli/rescaled_final/2072_fw.mp4	0.0	349.72014474868774	
55	244.59478306770325	movie	1		280	53.0	2.5	/experiments/knapen_AOT/AOT_stimuli/rescaled_final/2072_fw.mp4	0.0	350.14482045173645	2.491824150085449
55	245.76962685585022	pulse	1	t		53.0	2.5	/experiments/knapen_AOT/AOT_stimuli/rescaled_final/2072_fw.mp4	0.0	351.3196642398834	
55	247.0866072177887	fix_post	2		12	53.0	2.5	/experiments/knapen_AOT/AOT_stimuli/rescaled_final/2072_fw.mp4	0.0	352.6366446018219	0.10002446174621582
56	247.1866316795349	fix_pre	0		120	54.0	2.5	blank	1.0	352.7366690635681	1.0001566410064697
56	247.37022924423218	pulse	0	t		54.0	2.5	blank	1.0	352.9202666282654	
56	248.18678832054138	movie	1		300	54.0	2.5	blank	1.0	353.7368257045746	2.500354528427124
56	248.97048163414001	pulse	1	t		54.0	2.5	blank	1.0	354.5205190181732	
56	250.5706901550293	pulse	1	t		54.0	2.5	blank	1.0	356.1207275390625	
56	250.6871428489685	fix_post	2		12	54.0	2.5	blank	1.0	356.2371802330017	0.10003876686096191
57	250.78718161582947	fix_pre	0		120	55.0	2.5	/experiments/knapen_AOT/AOT_stimuli/rescaled_final/0206_rv.mp4	0.0	356.33721899986267	1.0085833072662354
57	251.7957649230957	movie	1		271	55.0	2.5	/experiments/knapen_AOT/AOT_stimuli/rescaled_final/0206_rv.mp4	0.0	357.3458023071289	2.4920740127563477
57	252.16920971870422	pulse	1	t		55.0	2.5	/experiments/knapen_AOT/AOT_stimuli/rescaled_final/0206_rv.mp4	0.0	357.7192471027374	
57	253.76912593841553	pulse	1	t		55.0	2.5	/experiments/knapen_AOT/AOT_stimuli/rescaled_final/0206_rv.mp4	0.0	359.31916332244873	
57	254.28783893585205	fix_post	2		12	55.0	2.5	/experiments/knapen_AOT/AOT_stimuli/rescaled_final/0206_rv.mp4	0.0	359.83787631988525	0.09985637664794922
58	254.3876953125	fix_pre	0		119	56.0	2.5	/experiments/knapen_AOT/AOT_stimuli/rescaled_final/0853_fw.mp4	0.0	359.9377326965332	1.0001845359802246
58	255.3634955883026	pulse	0	t		56.0	2.5	/experiments/knapen_AOT/AOT_stimuli/rescaled_final/0853_fw.mp4	0.0	360.9135329723358	
58	255.38787984848022	movie	1		271	56.0	2.5	/experiments/knapen_AOT/AOT_stimuli/rescaled_final/0853_fw.mp4	0.0	360.9379172325134	2.500356674194336
58	256.9636425971985	pulse	1	t		56.0	2.5	/experiments/knapen_AOT/AOT_stimuli/rescaled_final/0853_fw.mp4	0.0	362.5136799812317	
58	257.88823652267456	fix_post	2		12	56.0	2.5	/experiments/knapen_AOT/AOT_stimuli/rescaled_final/0853_fw.mp4	0.0	363.43827390670776	0.10002422332763672
59	257.9882607460022	fix_pre	0		120	57.0	2.5	/experiments/knapen_AOT/AOT_stimuli/rescaled_final/1422_rv.mp4	0.0	363.5382981300354	1.008514404296875
59	258.5638339519501	pulse	0	t		57.0	2.5	/experiments/knapen_AOT/AOT_stimuli/rescaled_final/1422_rv.mp4	0.0	364.1138713359833	
59	258.9967751502991	movie	1		275	57.0	2.5	/experiments/knapen_AOT/AOT_stimuli/rescaled_final/1422_rv.mp4	0.0	364.5468125343323	2.4920084476470947
59	260.1649639606476	pulse	1	t		57.0	2.5	/experiments/knapen_AOT/AOT_stimuli/rescaled_final/1422_rv.mp4	0.0	365.7150013446808	
59	261.48878359794617	fix_post	2		12	57.0	2.5	/experiments/knapen_AOT/AOT_stimuli/rescaled_final/1422_rv.mp4	0.0	367.03882098197937	0.10003829002380371
60	261.58882188796997	fix_pre	0		120	58.0	2.5	/experiments/knapen_AOT/AOT_stimuli/rescaled_final/1231_rv.mp4	0.0	367.1388592720032	1.0084965229034424
60	261.76426100730896	pulse	0	t		58.0	2.5	/experiments/knapen_AOT/AOT_stimuli/rescaled_final/1231_rv.mp4	0.0	367.31429839134216	
60	262.5973184108734	movie	1		257	58.0	2.5	/experiments/knapen_AOT/AOT_stimuli/rescaled_final/1231_rv.mp4	0.0	368.1473557949066	2.492335557937622
60	263.3642406463623	pulse	1	t		58.0	2.5	/experiments/knapen_AOT/AOT_stimuli/rescaled_final/1231_rv.mp4	0.0	368.9142780303955	
60	264.96460819244385	pulse	1	t		58.0	2.5	/experiments/knapen_AOT/AOT_stimuli/rescaled_final/1231_rv.mp4	0.0	370.51464557647705	
60	265.08965396881104	fix_post	2		12	58.0	2.5	/experiments/knapen_AOT/AOT_stimuli/rescaled_final/1231_rv.mp4	0.0	370.63969135284424	0.0996849536895752
61	265.1893389225006	fix_pre	0		120	59.0	2.5	/experiments/knapen_AOT/AOT_stimuli/rescaled_final/0277_rv.mp4	0.0	370.7393763065338	1.0086233615875244
61	266.19796228408813	movie	1		278	59.0	2.5	/experiments/knapen_AOT/AOT_stimuli/rescaled_final/0277_rv.mp4	0.0	371.74799966812134	2.492058753967285
61	266.5650074481964	pulse	1	t		59.0	2.5	/experiments/knapen_AOT/AOT_stimuli/rescaled_final/0277_rv.mp4	0.0	372.1150448322296	
61	268.1649911403656	pulse	1	t		59.0	2.5	/experiments/knapen_AOT/AOT_stimuli/rescaled_final/0277_rv.mp4	0.0	373.7150285243988	
61	268.6900210380554	fix_post	2		12	59.0	2.5	/experiments/knapen_AOT/AOT_stimuli/rescaled_final/0277_rv.mp4	0.0	374.2400584220886	0.09985971450805664
62	268.7898807525635	fix_pre	0		118	60.0	2.5	/experiments/knapen_AOT/AOT_stimuli/rescaled_final/0140_rv.mp4	0.0	374.3399181365967	0.991971492767334
62	269.7654116153717	pulse	0	t		60.0	2.5	/experiments/knapen_AOT/AOT_stimuli/rescaled_final/0140_rv.mp4	0.0	375.3154489994049	
62	269.7818522453308	movie	1		288	60.0	2.5	/experiments/knapen_AOT/AOT_stimuli/rescaled_final/0140_rv.mp4	0.0	375.331889629364	2.5002753734588623
62	271.36489486694336	pulse	1	t		60.0	2.5	/experiments/knapen_AOT/AOT_stimuli/rescaled_final/0140_rv.mp4	0.0	376.91493225097656	
62	272.2821276187897	fix_post	2		12	60.0	2.5	/experiments/knapen_AOT/AOT_stimuli/rescaled_final/0140_rv.mp4	0.0	377.8321650028229	0.09998941421508789
63	272.38211703300476	fix_pre	0		120	61.0	2.5	blank	1.0	377.93215441703796	1.0001916885375977
63	272.96572971343994	pulse	0	t		61.0	2.5	blank	1.0	378.51576709747314	
63	273.38230872154236	movie	1		300	61.0	2.5	blank	1.0	378.93234610557556	2.5004398822784424
63	274.5661725997925	pulse	1	t		61.0	2.5	blank	1.0	380.1162099838257	
63	275.8827486038208	fix_post	2		12	61.0	2.5	blank	1.0	381.432785987854	0.09991240501403809
64	275.98266100883484	fix_pre	0		120	62.0	2.5	/experiments/knapen_AOT/AOT_stimuli/rescaled_final/1632_fw.mp4	0.0	381.53269839286804	1.0085835456848145
64	276.1662611961365	pulse	0	t		62.0	2.5	/experiments/knapen_AOT/AOT_stimuli/rescaled_final/1632_fw.mp4	0.0	381.7162985801697	
64	276.99124455451965	movie	1		264	62.0	2.5	/experiments/knapen_AOT/AOT_stimuli/rescaled_final/1632_fw.mp4	0.0	382.54128193855286	2.4923648834228516
64	277.7644820213318	pulse	1	t		62.0	2.5	/experiments/knapen_AOT/AOT_stimuli/rescaled_final/1632_fw.mp4	0.0	383.314519405365	
64	279.3646068572998	pulse	1	t		62.0	2.5	/experiments/knapen_AOT/AOT_stimuli/rescaled_final/1632_fw.mp4	0.0	384.914644241333	
64	279.4836094379425	fix_post	2		12	62.0	2.5	/experiments/knapen_AOT/AOT_stimuli/rescaled_final/1632_fw.mp4	0.0	385.0336468219757	0.09956145286560059
65	279.5831708908081	fix_pre	0		120	63.0	2.5	/experiments/knapen_AOT/AOT_stimuli/rescaled_final/1421_rv.mp4	0.0	385.1332082748413	1.0085089206695557
65	280.59167981147766	movie	1		266	63.0	2.5	/experiments/knapen_AOT/AOT_stimuli/rescaled_final/1421_rv.mp4	0.0	386.14171719551086	2.492187023162842
65	280.96496963500977	pulse	1	t		63.0	2.5	/experiments/knapen_AOT/AOT_stimuli/rescaled_final/1421_rv.mp4	0.0	386.51500701904297	
65	282.56526279449463	pulse	1	t		63.0	2.5	/experiments/knapen_AOT/AOT_stimuli/rescaled_final/1421_rv.mp4	0.0	388.11530017852783	
65	283.0838668346405	fix_post	2		12	63.0	2.5	/experiments/knapen_AOT/AOT_stimuli/rescaled_final/1421_rv.mp4	0.0	388.6339042186737	0.09984707832336426
66	283.18371391296387	fix_pre	0		119	64.0	2.5	/experiments/knapen_AOT/AOT_stimuli/rescaled_final/0585_fw.mp4	0.0	388.73375129699707	1.0002005100250244
66	284.16742157936096	pulse	0	t		64.0	2.5	/experiments/knapen_AOT/AOT_stimuli/rescaled_final/0585_fw.mp4	0.0	389.71745896339417	
66	284.1839144229889	movie	1		291	64.0	2.5	/experiments/knapen_AOT/AOT_stimuli/rescaled_final/0585_fw.mp4	0.0	389.7339518070221	2.5004215240478516
66	285.7666575908661	pulse	1	t		64.0	2.5	/experiments/knapen_AOT/AOT_stimuli/rescaled_final/0585_fw.mp4	0.0	391.3166949748993	
66	286.68433594703674	fix_post	2		12	64.0	2.5	/experiments/knapen_AOT/AOT_stimuli/rescaled_final/0585_fw.mp4	0.0	392.23437333106995	0.09991812705993652
67	286.7842540740967	fix_pre	0		120	65.0	2.5	/experiments/knapen_AOT/AOT_stimuli/rescaled_final/1369_fw.mp4	0.0	392.3342914581299	1.0087480545043945
67	287.36794877052307	pulse	0	t		65.0	2.5	/experiments/knapen_AOT/AOT_stimuli/rescaled_final/1369_fw.mp4	0.0	392.9179861545563	
67	287.7930021286011	movie	1		277	65.0	2.5	/experiments/knapen_AOT/AOT_stimuli/rescaled_final/1369_fw.mp4	0.0	393.3430395126343	2.4922521114349365
67	288.96595549583435	pulse	1	t		65.0	2.5	/experiments/knapen_AOT/AOT_stimuli/rescaled_final/1369_fw.mp4	0.0	394.51599287986755	
67	290.285254240036	fix_post	2		12	65.0	2.5	/experiments/knapen_AOT/AOT_stimuli/rescaled_final/1369_fw.mp4	0.0	395.8352916240692	0.09960532188415527
68	290.38485956192017	fix_pre	0		120	66.0	2.5	/experiments/knapen_AOT/AOT_stimuli/rescaled_final/0569_fw.mp4	0.0	395.93489694595337	1.008453607559204
68	290.5684027671814	pulse	0	t		66.0	2.5	/experiments/knapen_AOT/AOT_stimuli/rescaled_final/0569_fw.mp4	0.0	396.1184401512146	
68	291.39331316947937	movie	1		278	66.0	2.5	/experiments/knapen_AOT/AOT_stimuli/rescaled_final/0569_fw.mp4	0.0	396.9433505535126	2.492154121398926
68	292.1669833660126	pulse	1	t		66.0	2.5	/experiments/knapen_AOT/AOT_stimuli/rescaled_final/0569_fw.mp4	0.0	397.7170207500458	
68	293.7671728134155	pulse	1	t		66.0	2.5	/experiments/knapen_AOT/AOT_stimuli/rescaled_final/0569_fw.mp4	0.0	399.31721019744873	
68	293.8854672908783	fix_post	2		12	66.0	2.5	/experiments/knapen_AOT/AOT_stimuli/rescaled_final/0569_fw.mp4	0.0	399.4355046749115	0.10006308555603027
69	293.9855303764343	fix_pre	0		120	67.0	2.5	/experiments/knapen_AOT/AOT_stimuli/rescaled_final/0219_rv.mp4	0.0	399.53556776046753	1.0082988739013672
69	294.9938292503357	movie	1		277	67.0	2.5	/experiments/knapen_AOT/AOT_stimuli/rescaled_final/0219_rv.mp4	0.0	400.5438666343689	2.4922142028808594
69	295.36858439445496	pulse	1	t		67.0	2.5	/experiments/knapen_AOT/AOT_stimuli/rescaled_final/0219_rv.mp4	0.0	400.91862177848816	
69	296.9674174785614	pulse	1	t		67.0	2.5	/experiments/knapen_AOT/AOT_stimuli/rescaled_final/0219_rv.mp4	0.0	402.5174548625946	
69	297.48604345321655	fix_post	2		12	67.0	2.5	/experiments/knapen_AOT/AOT_stimuli/rescaled_final/0219_rv.mp4	0.0	403.03608083724976	0.09984135627746582
70	297.585884809494	fix_pre	0		119	68.0	2.5	/experiments/knapen_AOT/AOT_stimuli/rescaled_final/1643_rv.mp4	0.0	403.1359221935272	1.0087776184082031
70	298.5696017742157	pulse	0	t		68.0	2.5	/experiments/knapen_AOT/AOT_stimuli/rescaled_final/1643_rv.mp4	0.0	404.1196391582489	
70	298.5946624279022	movie	1		274	68.0	2.5	/experiments/knapen_AOT/AOT_stimuli/rescaled_final/1643_rv.mp4	0.0	404.1446998119354	2.491900682449341
70	300.16828775405884	pulse	1	t		68.0	2.5	/experiments/knapen_AOT/AOT_stimuli/rescaled_final/1643_rv.mp4	0.0	405.71832513809204	
70	301.08656311035156	fix_post	2		12	68.0	2.5	/experiments/knapen_AOT/AOT_stimuli/rescaled_final/1643_rv.mp4	0.0	406.63660049438477	0.09986662864685059
71	301.1864297389984	fix_pre	0		120	69.0	2.5	blank	1.0	406.7364671230316	1.000152826309204
71	301.77011728286743	pulse	0	t		69.0	2.5	blank	1.0	407.32015466690063	
71	302.1865825653076	movie	1		300	69.0	2.5	blank	1.0	407.7366199493408	2.5003628730773926
71	303.37065863609314	pulse	1	t		69.0	2.5	blank	1.0	408.92069602012634	
71	304.686945438385	fix_post	2		12	69.0	2.5	blank	1.0	410.2369828224182	0.1000368595123291
72	304.78698229789734	fix_pre	0		120	70.0	2.5	/experiments/knapen_AOT/AOT_stimuli/rescaled_final/1968_fw.mp4	0.0	410.33701968193054	1.0086250305175781
72	304.9706702232361	pulse	0	t		70.0	2.5	/experiments/knapen_AOT/AOT_stimuli/rescaled_final/1968_fw.mp4	0.0	410.5207076072693	
72	305.7956073284149	movie	1		279	70.0	2.5	/experiments/knapen_AOT/AOT_stimuli/rescaled_final/1968_fw.mp4	0.0	411.3456447124481	2.4919657707214355
72	306.5697214603424	pulse	1	t		70.0	2.5	/experiments/knapen_AOT/AOT_stimuli/rescaled_final/1968_fw.mp4	0.0	412.1197588443756	
72	308.1692142486572	pulse	1	t		70.0	2.5	/experiments/knapen_AOT/AOT_stimuli/rescaled_final/1968_fw.mp4	0.0	413.71925163269043	
72	308.28757309913635	fix_post	2		12	70.0	2.5	/experiments/knapen_AOT/AOT_stimuli/rescaled_final/1968_fw.mp4	0.0	413.83761048316956	0.09993314743041992
73	308.3875062465668	fix_pre	0		120	71.0	2.5	/experiments/knapen_AOT/AOT_stimuli/rescaled_final/0144_fw.mp4	0.0	413.9375436306	1.0085241794586182
73	309.3960304260254	movie	1		273	71.0	2.5	/experiments/knapen_AOT/AOT_stimuli/rescaled_final/0144_fw.mp4	0.0	414.9460678100586	2.491989850997925
73	309.76962089538574	pulse	1	t		71.0	2.5	/experiments/knapen_AOT/AOT_stimuli/rescaled_final/0144_fw.mp4	0.0	415.31965827941895	
73	311.37061285972595	pulse	1	t		71.0	2.5	/experiments/knapen_AOT/AOT_stimuli/rescaled_final/0144_fw.mp4	0.0	416.92065024375916	
73	311.8880202770233	fix_post	2		12	71.0	2.5	/experiments/knapen_AOT/AOT_stimuli/rescaled_final/0144_fw.mp4	0.0	417.4380576610565	0.10003256797790527
74	311.9880528450012	fix_pre	0		119	72.0	2.5	/experiments/knapen_AOT/AOT_stimuli/rescaled_final/0051_fw.mp4	0.0	417.5380902290344	1.000157356262207
74	312.97185730934143	pulse	0	t		72.0	2.5	/experiments/knapen_AOT/AOT_stimuli/rescaled_final/0051_fw.mp4	0.0	418.52189469337463	
74	312.9882102012634	movie	1		275	72.0	2.5	/experiments/knapen_AOT/AOT_stimuli/rescaled_final/0051_fw.mp4	0.0	418.53824758529663	2.5006909370422363
74	314.5640676021576	pulse	1	t		72.0	2.5	/experiments/knapen_AOT/AOT_stimuli/rescaled_final/0051_fw.mp4	0.0	420.1141049861908	
74	315.48890113830566	fix_post	2		12	72.0	2.5	/experiments/knapen_AOT/AOT_stimuli/rescaled_final/0051_fw.mp4	0.0	421.03893852233887	0.09982705116271973
75	315.5887281894684	fix_pre	0		120	73.0	2.5	/experiments/knapen_AOT/AOT_stimuli/rescaled_final/1037_rv.mp4	0.0	421.1387655735016	1.0085351467132568
75	316.16434931755066	pulse	0	t		73.0	2.5	/experiments/knapen_AOT/AOT_stimuli/rescaled_final/1037_rv.mp4	0.0	421.71438670158386	
75	316.59726333618164	movie	1		284	73.0	2.5	/experiments/knapen_AOT/AOT_stimuli/rescaled_final/1037_rv.mp4	0.0	422.14730072021484	2.4921250343322754
75	317.76417565345764	pulse	1	t		73.0	2.5	/experiments/knapen_AOT/AOT_stimuli/rescaled_final/1037_rv.mp4	0.0	423.31421303749084	
75	319.0893883705139	fix_post	2		12	73.0	2.5	/experiments/knapen_AOT/AOT_stimuli/rescaled_final/1037_rv.mp4	0.0	424.6394257545471	0.09992408752441406
76	319.18931245803833	fix_pre	0		120	74.0	2.5	/experiments/knapen_AOT/AOT_stimuli/rescaled_final/1037_fw.mp4	0.0	424.73934984207153	1.0083372592926025
76	319.36493706703186	pulse	0	t		74.0	2.5	/experiments/knapen_AOT/AOT_stimuli/rescaled_final/1037_fw.mp4	0.0	424.91497445106506	
76	320.19764971733093	movie	1		269	74.0	2.5	/experiments/knapen_AOT/AOT_stimuli/rescaled_final/1037_fw.mp4	0.0	425.74768710136414	2.492260217666626
76	320.964626789093	pulse	1	t		74.0	2.5	/experiments/knapen_AOT/AOT_stimuli/rescaled_final/1037_fw.mp4	0.0	426.5146641731262	
76	322.5630235671997	pulse	1	t		74.0	2.5	/experiments/knapen_AOT/AOT_stimuli/rescaled_final/1037_fw.mp4	0.0	428.1130609512329	
76	322.68990993499756	fix_post	2		12	74.0	2.5	/experiments/knapen_AOT/AOT_stimuli/rescaled_final/1037_fw.mp4	0.0	428.23994731903076	0.09976792335510254
77	322.78967785835266	fix_pre	0		120	75.0	2.5	/experiments/knapen_AOT/AOT_stimuli/rescaled_final/1337_rv.mp4	0.0	428.33971524238586	1.0085513591766357
77	323.7982292175293	movie	1		272	75.0	2.5	/experiments/knapen_AOT/AOT_stimuli/rescaled_final/1337_rv.mp4	0.0	429.3482666015625	2.492161273956299
77	324.16337537765503	pulse	1	t		75.0	2.5	/experiments/knapen_AOT/AOT_stimuli/rescaled_final/1337_rv.mp4	0.0	429.71341276168823	
77	325.7657606601715	pulse	1	t		75.0	2.5	/experiments/knapen_AOT/AOT_stimuli/rescaled_final/1337_rv.mp4	0.0	431.3157980442047	
77	326.2903904914856	fix_post	2		12	75.0	2.5	/experiments/knapen_AOT/AOT_stimuli/rescaled_final/1337_rv.mp4	0.0	431.8404278755188	0.09985089302062988
78	326.3902413845062	fix_pre	0		118	76.0	2.5	/experiments/knapen_AOT/AOT_stimuli/rescaled_final/1467_fw.mp4	0.0	431.94027876853943	0.9918723106384277
78	327.36561942100525	pulse	0	t		76.0	2.5	/experiments/knapen_AOT/AOT_stimuli/rescaled_final/1467_fw.mp4	0.0	432.91565680503845	
78	327.38211369514465	movie	1		276	76.0	2.5	/experiments/knapen_AOT/AOT_stimuli/rescaled_final/1467_fw.mp4	0.0	432.93215107917786	2.500567674636841
78	328.9647512435913	pulse	1	t		76.0	2.5	/experiments/knapen_AOT/AOT_stimuli/rescaled_final/1467_fw.mp4	0.0	434.5147886276245	
78	329.8826813697815	fix_post	2		12	76.0	2.5	/experiments/knapen_AOT/AOT_stimuli/rescaled_final/1467_fw.mp4	0.0	435.4327187538147	0.09989047050476074
79	329.98257184028625	fix_pre	0		120	77.0	2.5	blank	1.0	435.53260922431946	1.0000042915344238
79	330.56608533859253	pulse	0	t		77.0	2.5	blank	1.0	436.11612272262573	
79	330.9825761318207	movie	1		300	77.0	2.5	blank	1.0	436.5326135158539	2.500371217727661
79	332.1663043498993	pulse	1	t		77.0	2.5	blank	1.0	437.7163417339325	
79	333.48294734954834	fix_post	2		12	77.0	2.5	blank	1.0	439.03298473358154	0.10006999969482422
80	333.58301734924316	fix_pre	0		120	78.0	2.5	/experiments/knapen_AOT/AOT_stimuli/rescaled_final/1844_rv.mp4	0.0	439.13305473327637	1.0084600448608398
80	333.7666063308716	pulse	0	t		78.0	2.5	/experiments/knapen_AOT/AOT_stimuli/rescaled_final/1844_rv.mp4	0.0	439.3166437149048	
80	334.591477394104	movie	1		276	78.0	2.5	/experiments/knapen_AOT/AOT_stimuli/rescaled_final/1844_rv.mp4	0.0	440.1415147781372	2.4920027256011963
80	335.3651626110077	pulse	1	t		78.0	2.5	/experiments/knapen_AOT/AOT_stimuli/rescaled_final/1844_rv.mp4	0.0	440.9151999950409	
80	336.9656844139099	pulse	1	t		78.0	2.5	/experiments/knapen_AOT/AOT_stimuli/rescaled_final/1844_rv.mp4	0.0	442.5157217979431	
80	337.0834801197052	fix_post	2		12	78.0	2.5	/experiments/knapen_AOT/AOT_stimuli/rescaled_final/1844_rv.mp4	0.0	442.6335175037384	0.10000181198120117
81	337.1834819316864	fix_pre	0		120	79.0	2.5	/experiments/knapen_AOT/AOT_stimuli/rescaled_final/0954_rv.mp4	0.0	442.7335193157196	1.0085010528564453
81	338.19198298454285	movie	1		270	79.0	2.5	/experiments/knapen_AOT/AOT_stimuli/rescaled_final/0954_rv.mp4	0.0	443.74202036857605	2.4921863079071045
81	338.5668020248413	pulse	1	t		79.0	2.5	/experiments/knapen_AOT/AOT_stimuli/rescaled_final/0954_rv.mp4	0.0	444.1168394088745	
81	340.16522908210754	pulse	1	t		79.0	2.5	/experiments/knapen_AOT/AOT_stimuli/rescaled_final/0954_rv.mp4	0.0	445.71526646614075	
81	340.68416929244995	fix_post	2		12	79.0	2.5	/experiments/knapen_AOT/AOT_stimuli/rescaled_final/0954_rv.mp4	0.0	446.23420667648315	0.0998847484588623
82	340.7840540409088	fix_pre	0		119	80.0	2.5	/experiments/knapen_AOT/AOT_stimuli/rescaled_final/0301_rv.mp4	0.0	446.334091424942	1.0001542568206787
82	341.76786851882935	pulse	0	t		80.0	2.5	/experiments/knapen_AOT/AOT_stimuli/rescaled_final/0301_rv.mp4	0.0	447.31790590286255	
82	341.7842082977295	movie	1		282	80.0	2.5	/experiments/knapen_AOT/AOT_stimuli/rescaled_final/0301_rv.mp4	0.0	447.3342456817627	2.500645160675049
82	343.36833000183105	pulse	1	t		80.0	2.5	/experiments/knapen_AOT/AOT_stimuli/rescaled_final/0301_rv.mp4	0.0	448.91836738586426	
82	344.28485345840454	fix_post	2		12	80.0	2.5	/experiments/knapen_AOT/AOT_stimuli/rescaled_final/0301_rv.mp4	0.0	449.83489084243774	0.09975194931030273
83	344.38460540771484	fix_pre	0		120	81.0	2.5	/experiments/knapen_AOT/AOT_stimuli/rescaled_final/1252_rv.mp4	0.0	449.93464279174805	1.0086524486541748
83	344.96821904182434	pulse	0	t		81.0	2.5	/experiments/knapen_AOT/AOT_stimuli/rescaled_final/1252_rv.mp4	0.0	450.51825642585754	
83	345.393257856369	movie	1		285	81.0	2.5	/experiments/knapen_AOT/AOT_stimuli/rescaled_final/1252_rv.mp4	0.0	450.9432952404022	2.4921512603759766
83	346.56662678718567	pulse	1	t		81.0	2.5	/experiments/knapen_AOT/AOT_stimuli/rescaled_final/1252_rv.mp4	0.0	452.1166641712189	
83	347.885409116745	fix_post	2		12	81.0	2.5	/experiments/knapen_AOT/AOT_stimuli/rescaled_final/1252_rv.mp4	0.0	453.4354465007782	0.09972023963928223
84	347.9851293563843	fix_pre	0		119	82.0	2.5	/experiments/knapen_AOT/AOT_stimuli/rescaled_final/1490_fw.mp4	0.0	453.5351667404175	1.008542537689209
84	348.168851852417	pulse	0	t		82.0	2.5	/experiments/knapen_AOT/AOT_stimuli/rescaled_final/1490_fw.mp4	0.0	453.7188892364502	
84	348.9936718940735	movie	1		273	82.0	2.5	/experiments/knapen_AOT/AOT_stimuli/rescaled_final/1490_fw.mp4	0.0	454.5437092781067	2.4920358657836914
84	349.76707696914673	pulse	1	t		82.0	2.5	/experiments/knapen_AOT/AOT_stimuli/rescaled_final/1490_fw.mp4	0.0	455.31711435317993	
84	351.36909222602844	pulse	1	t		82.0	2.5	/experiments/knapen_AOT/AOT_stimuli/rescaled_final/1490_fw.mp4	0.0	456.91912961006165	
84	351.4857077598572	fix_post	2		12	82.0	2.5	/experiments/knapen_AOT/AOT_stimuli/rescaled_final/1490_fw.mp4	0.0	457.0357451438904	0.0999758243560791
85	351.58568358421326	fix_pre	0		120	83.0	2.5	blank	1.0	457.13572096824646	1.0001623630523682
85	352.5858459472656	movie	1		300	83.0	2.5	blank	1.0	458.1358833312988	2.5005874633789062
85	352.96948409080505	pulse	1	t		83.0	2.5	blank	1.0	458.51952147483826	
85	354.56961727142334	pulse	1	t		83.0	2.5	blank	1.0	460.11965465545654	
85	355.08643341064453	fix_post	2		12	83.0	2.5	blank	1.0	460.63647079467773	0.09980368614196777
87	355.1862370967865	stim	0		1716					460.7362744808197	14.302180767059326
87	356.1699821949005	pulse	0	t						461.7200195789337	
87	357.7701497077942	pulse	0	t						463.3201870918274	
87	359.3704433441162	pulse	0	t						464.9204807281494	
87	360.9706747531891	pulse	0	t						466.5207121372223	
87	362.5710287094116	pulse	0	t						468.1210660934448	
87	364.1632778644562	pulse	0	t						469.7133152484894	
87	365.76339054107666	pulse	0	t						471.31342792510986	
87	367.36330127716064	pulse	0	t						472.91333866119385	
87	368.96361660957336	pulse	0	t						474.51365399360657	
