trial_nr	onset	event_type	phase	response	nr_frames	movie_index	movie_duration	movie_file	blank	onset_abs	duration
0	0.14995884895324707	stim	0		39098					23.675750017166138	325.8150191307068
0	325.95702385902405	response	0	space						349.48281502723694	
1	325.96497797966003	stim	0		5314					349.4907691478729	44.28305792808533
1	370.2372419834137	pulse	0	t						393.7630331516266	
1	370.24803590774536	stim	1		1717					393.77382707595825	14.308295011520386
1	371.8324978351593	pulse	1	t						395.3582890033722	
1	373.43165397644043	pulse	1	t						396.9574451446533	
1	375.03156185150146	pulse	1	t						398.55735301971436	
1	376.6315999031067	pulse	1	t						400.1573910713196	
1	378.23151898384094	pulse	1	t						401.75731015205383	
1	379.8314869403839	pulse	1	t						403.3572781085968	
1	381.432345867157	pulse	1	t						404.9581370353699	
1	383.03237891197205	pulse	1	t						406.55817008018494	
2	384.55633091926575	fix_pre	0		11	0.0	2.5	/experiments/AOT/AOT_stimuli/rescaled_final/0898_fw.mp4	0.0	408.08212208747864	0.09173989295959473
2	384.63235688209534	pulse	0	t		0.0	2.5	/experiments/AOT/AOT_stimuli/rescaled_final/0898_fw.mp4	0.0	408.1581480503082	
2	384.64807081222534	movie	1		242	0.0	2.5	/experiments/AOT/AOT_stimuli/rescaled_final/0898_fw.mp4	0.0	408.17386198043823	2.5083351135253906
2	386.23944783210754	pulse	1	t		0.0	2.5	/experiments/AOT/AOT_stimuli/rescaled_final/0898_fw.mp4	0.0	409.76523900032043	
2	387.15640592575073	fix_post	2		12	0.0	2.5	/experiments/AOT/AOT_stimuli/rescaled_final/0898_fw.mp4	0.0	410.6821970939636	0.10009002685546875
3	387.2564959526062	fix_pre	0		120	1.0	2.5	/experiments/AOT/AOT_stimuli/rescaled_final/1210_rv.mp4	0.0	410.7822871208191	0.9999110698699951
3	387.83234691619873	pulse	0	t		1.0	2.5	/experiments/AOT/AOT_stimuli/rescaled_final/1210_rv.mp4	0.0	411.3581380844116	
3	388.2564070224762	movie	1		244	1.0	2.5	/experiments/AOT/AOT_stimuli/rescaled_final/1210_rv.mp4	0.0	411.7821981906891	2.4999148845672607
3	389.4399149417877	pulse	1	t		1.0	2.5	/experiments/AOT/AOT_stimuli/rescaled_final/1210_rv.mp4	0.0	412.9657061100006	
3	390.75632190704346	fix_post	2		12	1.0	2.5	/experiments/AOT/AOT_stimuli/rescaled_final/1210_rv.mp4	0.0	414.28211307525635	0.10001397132873535
4	390.8563358783722	fix_pre	0		120	2.0	2.5	/experiments/AOT/AOT_stimuli/rescaled_final/1319_rv.mp4	0.0	414.3821270465851	1.0000100135803223
4	391.0323278903961	pulse	0	t		2.0	2.5	/experiments/AOT/AOT_stimuli/rescaled_final/1319_rv.mp4	0.0	414.558119058609	
4	391.8563458919525	movie	1		249	2.0	2.5	/experiments/AOT/AOT_stimuli/rescaled_final/1319_rv.mp4	0.0	415.3821370601654	2.5001230239868164
4	392.6325509548187	pulse	1	t		2.0	2.5	/experiments/AOT/AOT_stimuli/rescaled_final/1319_rv.mp4	0.0	416.1583421230316	
4	394.2354168891907	pulse	1	t		2.0	2.5	/experiments/AOT/AOT_stimuli/rescaled_final/1319_rv.mp4	0.0	417.76120805740356	
4	394.35646891593933	fix_post	2		12	2.0	2.5	/experiments/AOT/AOT_stimuli/rescaled_final/1319_rv.mp4	0.0	417.8822600841522	0.09999394416809082
5	394.4564628601074	fix_pre	0		120	3.0	2.5	/experiments/AOT/AOT_stimuli/rescaled_final/1649_rv.mp4	0.0	417.9822540283203	0.9999771118164062
5	395.4564399719238	movie	1		243	3.0	2.5	/experiments/AOT/AOT_stimuli/rescaled_final/1649_rv.mp4	0.0	418.9822311401367	2.4998528957366943
5	395.8392379283905	pulse	1	t		3.0	2.5	/experiments/AOT/AOT_stimuli/rescaled_final/1649_rv.mp4	0.0	419.3650290966034	
5	397.4323818683624	pulse	1	t		3.0	2.5	/experiments/AOT/AOT_stimuli/rescaled_final/1649_rv.mp4	0.0	420.9581730365753	
5	397.9562928676605	fix_post	2		12	3.0	2.5	/experiments/AOT/AOT_stimuli/rescaled_final/1649_rv.mp4	0.0	421.4820840358734	0.10002803802490234
6	398.0563209056854	fix_pre	0		119	4.0	2.5	/experiments/AOT/AOT_stimuli/rescaled_final/1624_rv.mp4	0.0	421.5821120738983	0.9917550086975098
6	399.0323100090027	pulse	0	t		4.0	2.5	/experiments/AOT/AOT_stimuli/rescaled_final/1624_rv.mp4	0.0	422.5581011772156	
6	399.04807591438293	movie	1		244	4.0	2.5	/experiments/AOT/AOT_stimuli/rescaled_final/1624_rv.mp4	0.0	422.5738670825958	2.508193016052246
6	400.6401560306549	pulse	1	t		4.0	2.5	/experiments/AOT/AOT_stimuli/rescaled_final/1624_rv.mp4	0.0	424.1659471988678	
6	401.5562689304352	fix_post	2		12	4.0	2.5	/experiments/AOT/AOT_stimuli/rescaled_final/1624_rv.mp4	0.0	425.08206009864807	0.09997391700744629
7	401.6562428474426	fix_pre	0		120	5.0	2.5	blank	1.0	425.1820340156555	1.000101089477539
7	402.23229598999023	pulse	0	t		5.0	2.5	blank	1.0	425.7580871582031	
7	402.65634393692017	movie	1		300	5.0	2.5	blank	1.0	426.18213510513306	2.4999020099639893
7	403.8322048187256	pulse	1	t		5.0	2.5	blank	1.0	427.3579959869385	
7	405.15624594688416	fix_post	2		12	5.0	2.5	blank	1.0	428.68203711509705	0.10012698173522949
8	405.2563729286194	fix_pre	0		120	6.0	2.5	/experiments/AOT/AOT_stimuli/rescaled_final/1363_fw.mp4	0.0	428.7821640968323	0.9998528957366943
8	405.4322190284729	pulse	0	t		6.0	2.5	/experiments/AOT/AOT_stimuli/rescaled_final/1363_fw.mp4	0.0	428.9580101966858	
8	406.2562258243561	movie	1		245	6.0	2.5	/experiments/AOT/AOT_stimuli/rescaled_final/1363_fw.mp4	0.0	429.78201699256897	2.4999890327453613
8	407.0323510169983	pulse	1	t		6.0	2.5	/experiments/AOT/AOT_stimuli/rescaled_final/1363_fw.mp4	0.0	430.5581421852112	
8	408.6377568244934	pulse	1	t		6.0	2.5	/experiments/AOT/AOT_stimuli/rescaled_final/1363_fw.mp4	0.0	432.1635479927063	
8	408.75621485710144	fix_post	2		12	6.0	2.5	/experiments/AOT/AOT_stimuli/rescaled_final/1363_fw.mp4	0.0	432.28200602531433	0.10001897811889648
9	408.85623383522034	fix_pre	0		120	7.0	2.5	/experiments/AOT/AOT_stimuli/rescaled_final/0230_rv.mp4	0.0	432.3820250034332	0.9999761581420898
9	409.8562099933624	movie	1		245	7.0	2.5	/experiments/AOT/AOT_stimuli/rescaled_final/0230_rv.mp4	0.0	433.3820011615753	2.500056028366089
9	410.2314348220825	pulse	1	t		7.0	2.5	/experiments/AOT/AOT_stimuli/rescaled_final/0230_rv.mp4	0.0	433.7572259902954	
9	411.8314859867096	pulse	1	t		7.0	2.5	/experiments/AOT/AOT_stimuli/rescaled_final/0230_rv.mp4	0.0	435.3572771549225	
9	412.3562660217285	fix_post	2		12	7.0	2.5	/experiments/AOT/AOT_stimuli/rescaled_final/0230_rv.mp4	0.0	435.8820571899414	0.10000181198120117
10	412.4562678337097	fix_pre	0		119	8.0	2.5	/experiments/AOT/AOT_stimuli/rescaled_final/1693_fw.mp4	0.0	435.9820590019226	0.9915740489959717
10	413.43219900131226	pulse	0	t		8.0	2.5	/experiments/AOT/AOT_stimuli/rescaled_final/1693_fw.mp4	0.0	436.95799016952515	
10	413.4478418827057	movie	1		247	8.0	2.5	/experiments/AOT/AOT_stimuli/rescaled_final/1693_fw.mp4	0.0	436.9736330509186	2.5084469318389893
10	415.03933596611023	pulse	1	t		8.0	2.5	/experiments/AOT/AOT_stimuli/rescaled_final/1693_fw.mp4	0.0	438.5651271343231	
10	415.9562888145447	fix_post	2		12	8.0	2.5	/experiments/AOT/AOT_stimuli/rescaled_final/1693_fw.mp4	0.0	439.48207998275757	0.09996318817138672
11	416.05625200271606	fix_pre	0		120	9.0	2.5	/experiments/AOT/AOT_stimuli/rescaled_final/1082_fw.mp4	0.0	439.58204317092896	0.9999189376831055
11	416.6321790218353	pulse	0	t		9.0	2.5	/experiments/AOT/AOT_stimuli/rescaled_final/1082_fw.mp4	0.0	440.1579701900482	
11	417.05617094039917	movie	1		244	9.0	2.5	/experiments/AOT/AOT_stimuli/rescaled_final/1082_fw.mp4	0.0	440.58196210861206	2.5000159740448
11	418.2325530052185	pulse	1	t		9.0	2.5	/experiments/AOT/AOT_stimuli/rescaled_final/1082_fw.mp4	0.0	441.7583441734314	
11	419.55618691444397	fix_post	2		12	9.0	2.5	/experiments/AOT/AOT_stimuli/rescaled_final/1082_fw.mp4	0.0	443.08197808265686	0.09999394416809082
12	419.65618085861206	fix_pre	0		119	10.0	2.5	/experiments/AOT/AOT_stimuli/rescaled_final/0248_rv.mp4	0.0	443.18197202682495	1.0000391006469727
12	419.83217000961304	pulse	0	t		10.0	2.5	/experiments/AOT/AOT_stimuli/rescaled_final/0248_rv.mp4	0.0	443.3579611778259	
12	420.65621995925903	movie	1		243	10.0	2.5	/experiments/AOT/AOT_stimuli/rescaled_final/0248_rv.mp4	0.0	444.1820111274719	2.499927043914795
12	421.43217396736145	pulse	1	t		10.0	2.5	/experiments/AOT/AOT_stimuli/rescaled_final/0248_rv.mp4	0.0	444.95796513557434	
12	423.0381908416748	pulse	1	t		10.0	2.5	/experiments/AOT/AOT_stimuli/rescaled_final/0248_rv.mp4	0.0	446.5639820098877	
12	423.1561470031738	fix_post	2		12	10.0	2.5	/experiments/AOT/AOT_stimuli/rescaled_final/0248_rv.mp4	0.0	446.6819381713867	0.09996891021728516
13	423.2561159133911	fix_pre	0		120	11.0	2.5	/experiments/AOT/AOT_stimuli/rescaled_final/0308_fw.mp4	0.0	446.781907081604	1.0000109672546387
13	424.25612688064575	movie	1		244	11.0	2.5	/experiments/AOT/AOT_stimuli/rescaled_final/0308_fw.mp4	0.0	447.78191804885864	2.5000109672546387
13	424.63944482803345	pulse	1	t		11.0	2.5	/experiments/AOT/AOT_stimuli/rescaled_final/0308_fw.mp4	0.0	448.16523599624634	
13	426.2323179244995	pulse	1	t		11.0	2.5	/experiments/AOT/AOT_stimuli/rescaled_final/0308_fw.mp4	0.0	449.7581090927124	
13	426.7561378479004	fix_post	2		12	11.0	2.5	/experiments/AOT/AOT_stimuli/rescaled_final/0308_fw.mp4	0.0	450.2819290161133	0.10001707077026367
14	426.85615491867065	fix_pre	0		119	12.0	2.5	/experiments/AOT/AOT_stimuli/rescaled_final/1864_rv.mp4	0.0	450.38194608688354	0.9915890693664551
14	427.83209586143494	pulse	0	t		12.0	2.5	/experiments/AOT/AOT_stimuli/rescaled_final/1864_rv.mp4	0.0	451.3578870296478	
14	427.8477439880371	movie	1		244	12.0	2.5	/experiments/AOT/AOT_stimuli/rescaled_final/1864_rv.mp4	0.0	451.37353515625	2.5084469318389893
14	429.43921995162964	pulse	1	t		12.0	2.5	/experiments/AOT/AOT_stimuli/rescaled_final/1864_rv.mp4	0.0	452.96501111984253	
14	430.3561909198761	fix_post	2		12	12.0	2.5	/experiments/AOT/AOT_stimuli/rescaled_final/1864_rv.mp4	0.0	453.881982088089	0.09997391700744629
15	430.45616483688354	fix_pre	0		120	13.0	2.5	/experiments/AOT/AOT_stimuli/rescaled_final/2058_rv.mp4	0.0	453.98195600509644	0.9999971389770508
15	431.03959798812866	pulse	0	t		13.0	2.5	/experiments/AOT/AOT_stimuli/rescaled_final/2058_rv.mp4	0.0	454.56538915634155	
15	431.4561619758606	movie	1		243	13.0	2.5	/experiments/AOT/AOT_stimuli/rescaled_final/2058_rv.mp4	0.0	454.9819531440735	2.499943971633911
15	432.63976097106934	pulse	1	t		13.0	2.5	/experiments/AOT/AOT_stimuli/rescaled_final/2058_rv.mp4	0.0	456.1655521392822	
15	433.9561059474945	fix_post	2		12	13.0	2.5	/experiments/AOT/AOT_stimuli/rescaled_final/2058_rv.mp4	0.0	457.4818971157074	0.10006189346313477
16	434.05616784095764	fix_pre	0		120	14.0	2.5	blank	1.0	457.58195900917053	0.9998869895935059
16	434.2320508956909	pulse	0	t		14.0	2.5	blank	1.0	457.7578420639038	
16	435.05605483055115	movie	1		300	14.0	2.5	blank	1.0	458.58184599876404	2.5001060962677
16	435.8321669101715	pulse	1	t		14.0	2.5	blank	1.0	459.3579580783844	
16	437.43209981918335	pulse	1	t		14.0	2.5	blank	1.0	460.95789098739624	
16	437.55616092681885	fix_post	2		12	14.0	2.5	blank	1.0	461.08195209503174	0.09993791580200195
17	437.65609884262085	fix_pre	0		120	15.0	2.5	/experiments/AOT/AOT_stimuli/rescaled_final/0176_rv.mp4	0.0	461.18189001083374	0.9999701976776123
17	438.65606904029846	movie	1		242	15.0	2.5	/experiments/AOT/AOT_stimuli/rescaled_final/0176_rv.mp4	0.0	462.18186020851135	2.500318765640259
17	439.0391209125519	pulse	1	t		15.0	2.5	/experiments/AOT/AOT_stimuli/rescaled_final/0176_rv.mp4	0.0	462.56491208076477	
17	440.63236689567566	pulse	1	t		15.0	2.5	/experiments/AOT/AOT_stimuli/rescaled_final/0176_rv.mp4	0.0	464.15815806388855	
17	441.1563878059387	fix_post	2		12	15.0	2.5	/experiments/AOT/AOT_stimuli/rescaled_final/0176_rv.mp4	0.0	464.6821789741516	0.09976005554199219
18	441.2561478614807	fix_pre	0		119	16.0	2.5	/experiments/AOT/AOT_stimuli/rescaled_final/0898_rv.mp4	0.0	464.7819390296936	0.9915971755981445
18	442.23215198516846	pulse	0	t		16.0	2.5	/experiments/AOT/AOT_stimuli/rescaled_final/0898_rv.mp4	0.0	465.75794315338135	
18	442.24774503707886	movie	1		243	16.0	2.5	/experiments/AOT/AOT_stimuli/rescaled_final/0898_rv.mp4	0.0	465.77353620529175	2.5082669258117676
18	443.83930492401123	pulse	1	t		16.0	2.5	/experiments/AOT/AOT_stimuli/rescaled_final/0898_rv.mp4	0.0	467.3650960922241	
18	444.7560119628906	fix_post	2		12	16.0	2.5	/experiments/AOT/AOT_stimuli/rescaled_final/0898_rv.mp4	0.0	468.2818031311035	0.10013294219970703
19	444.85614490509033	fix_pre	0		120	17.0	2.5	/experiments/AOT/AOT_stimuli/rescaled_final/0426_rv.mp4	0.0	468.3819360733032	1.0000019073486328
19	445.4396059513092	pulse	0	t		17.0	2.5	/experiments/AOT/AOT_stimuli/rescaled_final/0426_rv.mp4	0.0	468.9653971195221	
19	445.85614681243896	movie	1		245	17.0	2.5	/experiments/AOT/AOT_stimuli/rescaled_final/0426_rv.mp4	0.0	469.38193798065186	2.499498128890991
19	447.03974890708923	pulse	1	t		17.0	2.5	/experiments/AOT/AOT_stimuli/rescaled_final/0426_rv.mp4	0.0	470.5655400753021	
19	448.35564494132996	fix_post	2		12	17.0	2.5	/experiments/AOT/AOT_stimuli/rescaled_final/0426_rv.mp4	0.0	471.88143610954285	0.10043001174926758
20	448.4560749530792	fix_pre	0		120	18.0	2.5	/experiments/AOT/AOT_stimuli/rescaled_final/0801_fw.mp4	0.0	471.9818661212921	0.9996039867401123
20	448.63909792900085	pulse	0	t		18.0	2.5	/experiments/AOT/AOT_stimuli/rescaled_final/0801_fw.mp4	0.0	472.16488909721375	
20	449.45567893981934	movie	1		244	18.0	2.5	/experiments/AOT/AOT_stimuli/rescaled_final/0801_fw.mp4	0.0	472.9814701080322	2.5003609657287598
20	450.23228693008423	pulse	1	t		18.0	2.5	/experiments/AOT/AOT_stimuli/rescaled_final/0801_fw.mp4	0.0	473.7580780982971	
20	451.8378188610077	pulse	1	t		18.0	2.5	/experiments/AOT/AOT_stimuli/rescaled_final/0801_fw.mp4	0.0	475.3636100292206	
20	451.9560399055481	fix_post	2		12	18.0	2.5	/experiments/AOT/AOT_stimuli/rescaled_final/0801_fw.mp4	0.0	475.481831073761	0.10009193420410156
21	452.0561318397522	fix_pre	0		120	19.0	2.5	/experiments/AOT/AOT_stimuli/rescaled_final/0768_rv.mp4	0.0	475.5819230079651	0.9999690055847168
21	453.0561008453369	movie	1		247	19.0	2.5	/experiments/AOT/AOT_stimuli/rescaled_final/0768_rv.mp4	0.0	476.5818920135498	2.5000040531158447
21	453.4404458999634	pulse	1	t		19.0	2.5	/experiments/AOT/AOT_stimuli/rescaled_final/0768_rv.mp4	0.0	476.96623706817627	
21	455.0322208404541	pulse	1	t		19.0	2.5	/experiments/AOT/AOT_stimuli/rescaled_final/0768_rv.mp4	0.0	478.558012008667	
21	455.55610489845276	fix_post	2		12	19.0	2.5	/experiments/AOT/AOT_stimuli/rescaled_final/0768_rv.mp4	0.0	479.08189606666565	0.09991312026977539
22	455.65601801872253	fix_pre	0		119	20.0	2.5	/experiments/AOT/AOT_stimuli/rescaled_final/1614_rv.mp4	0.0	479.1818091869354	0.9916279315948486
22	456.63184881210327	pulse	0	t		20.0	2.5	/experiments/AOT/AOT_stimuli/rescaled_final/1614_rv.mp4	0.0	480.15763998031616	
22	456.6476459503174	movie	1		246	20.0	2.5	/experiments/AOT/AOT_stimuli/rescaled_final/1614_rv.mp4	0.0	480.1734371185303	2.508312940597534
22	458.2392418384552	pulse	1	t		20.0	2.5	/experiments/AOT/AOT_stimuli/rescaled_final/1614_rv.mp4	0.0	481.7650330066681	
22	459.1559588909149	fix_post	2		12	20.0	2.5	/experiments/AOT/AOT_stimuli/rescaled_final/1614_rv.mp4	0.0	482.6817500591278	0.10000801086425781
23	459.2559669017792	fix_pre	0		120	21.0	2.5	blank	1.0	482.78175806999207	0.9999971389770508
23	459.83189702033997	pulse	0	t		21.0	2.5	blank	1.0	483.35768818855286	
23	460.2559640407562	movie	1		300	21.0	2.5	blank	1.0	483.7817552089691	2.4999289512634277
23	461.43943881988525	pulse	1	t		21.0	2.5	blank	1.0	484.96522998809814	
23	462.75589299201965	fix_post	2		12	21.0	2.5	blank	1.0	486.28168416023254	0.10005497932434082
24	462.855947971344	fix_pre	0		120	22.0	2.5	/experiments/AOT/AOT_stimuli/rescaled_final/0784_rv.mp4	0.0	486.3817391395569	1.0000040531158447
24	463.0395300388336	pulse	0	t		22.0	2.5	/experiments/AOT/AOT_stimuli/rescaled_final/0784_rv.mp4	0.0	486.5653212070465	
24	463.85595202445984	movie	1		243	22.0	2.5	/experiments/AOT/AOT_stimuli/rescaled_final/0784_rv.mp4	0.0	487.38174319267273	2.4999608993530273
24	464.6394999027252	pulse	1	t		22.0	2.5	/experiments/AOT/AOT_stimuli/rescaled_final/0784_rv.mp4	0.0	488.1652910709381	
24	466.23809790611267	pulse	1	t		22.0	2.5	/experiments/AOT/AOT_stimuli/rescaled_final/0784_rv.mp4	0.0	489.76388907432556	
24	466.35591292381287	fix_post	2		12	22.0	2.5	/experiments/AOT/AOT_stimuli/rescaled_final/0784_rv.mp4	0.0	489.88170409202576	0.09996199607849121
25	466.45587491989136	fix_pre	0		120	23.0	2.5	/experiments/AOT/AOT_stimuli/rescaled_final/0894_fw.mp4	0.0	489.98166608810425	1.0001039505004883
25	467.45597887039185	movie	1		243	23.0	2.5	/experiments/AOT/AOT_stimuli/rescaled_final/0894_fw.mp4	0.0	490.98177003860474	2.499990940093994
25	467.83912897109985	pulse	1	t		23.0	2.5	/experiments/AOT/AOT_stimuli/rescaled_final/0894_fw.mp4	0.0	491.36492013931274	
25	469.4320709705353	pulse	1	t		23.0	2.5	/experiments/AOT/AOT_stimuli/rescaled_final/0894_fw.mp4	0.0	492.95786213874817	
25	469.95596981048584	fix_post	2		12	23.0	2.5	/experiments/AOT/AOT_stimuli/rescaled_final/0894_fw.mp4	0.0	493.48176097869873	0.09996914863586426
26	470.0559389591217	fix_pre	0		119	24.0	2.5	/experiments/AOT/AOT_stimuli/rescaled_final/1222_rv.mp4	0.0	493.5817301273346	0.9916970729827881
26	471.03190994262695	pulse	0	t		24.0	2.5	/experiments/AOT/AOT_stimuli/rescaled_final/1222_rv.mp4	0.0	494.55770111083984	
26	471.0476360321045	movie	1		244	24.0	2.5	/experiments/AOT/AOT_stimuli/rescaled_final/1222_rv.mp4	0.0	494.5734272003174	2.508312940597534
26	472.6389980316162	pulse	1	t		24.0	2.5	/experiments/AOT/AOT_stimuli/rescaled_final/1222_rv.mp4	0.0	496.1647891998291	
26	473.555948972702	fix_post	2		12	24.0	2.5	/experiments/AOT/AOT_stimuli/rescaled_final/1222_rv.mp4	0.0	497.0817401409149	0.09987401962280273
27	473.65582299232483	fix_pre	0		120	25.0	2.5	/experiments/AOT/AOT_stimuli/rescaled_final/0994_fw.mp4	0.0	497.1816141605377	1.000093936920166
27	474.2318739891052	pulse	0	t		25.0	2.5	/experiments/AOT/AOT_stimuli/rescaled_final/0994_fw.mp4	0.0	497.7576651573181	
27	474.655916929245	movie	1		245	25.0	2.5	/experiments/AOT/AOT_stimuli/rescaled_final/0994_fw.mp4	0.0	498.1817080974579	2.499972105026245
27	475.8394808769226	pulse	1	t		25.0	2.5	/experiments/AOT/AOT_stimuli/rescaled_final/0994_fw.mp4	0.0	499.3652720451355	
27	477.15588903427124	fix_post	2		12	25.0	2.5	/experiments/AOT/AOT_stimuli/rescaled_final/0994_fw.mp4	0.0	500.68168020248413	0.09999394416809082
28	477.25588297843933	fix_pre	0		120	26.0	2.5	/experiments/AOT/AOT_stimuli/rescaled_final/2058_rv.mp4	0.0	500.7816741466522	1.0000109672546387
28	477.4393639564514	pulse	0	t		26.0	2.5	/experiments/AOT/AOT_stimuli/rescaled_final/2058_rv.mp4	0.0	500.9651551246643	
28	478.25589394569397	movie	1		243	26.0	2.5	/experiments/AOT/AOT_stimuli/rescaled_final/2058_rv.mp4	0.0	501.78168511390686	2.5000720024108887
28	479.03942584991455	pulse	1	t		26.0	2.5	/experiments/AOT/AOT_stimuli/rescaled_final/2058_rv.mp4	0.0	502.56521701812744	
28	480.6378548145294	pulse	1	t		26.0	2.5	/experiments/AOT/AOT_stimuli/rescaled_final/2058_rv.mp4	0.0	504.1636459827423	
28	480.75596594810486	fix_post	2		12	26.0	2.5	/experiments/AOT/AOT_stimuli/rescaled_final/2058_rv.mp4	0.0	504.28175711631775	0.09991598129272461
29	480.8558819293976	fix_pre	0		120	27.0	2.5	/experiments/AOT/AOT_stimuli/rescaled_final/0157_rv.mp4	0.0	504.3816730976105	1.0000369548797607
29	481.85591888427734	movie	1		244	27.0	2.5	/experiments/AOT/AOT_stimuli/rescaled_final/0157_rv.mp4	0.0	505.38171005249023	2.4999899864196777
29	482.2388458251953	pulse	1	t		27.0	2.5	/experiments/AOT/AOT_stimuli/rescaled_final/0157_rv.mp4	0.0	505.7646369934082	
29	483.83199882507324	pulse	1	t		27.0	2.5	/experiments/AOT/AOT_stimuli/rescaled_final/0157_rv.mp4	0.0	507.35778999328613	
29	484.355908870697	fix_post	2		12	27.0	2.5	/experiments/AOT/AOT_stimuli/rescaled_final/0157_rv.mp4	0.0	507.8817000389099	0.1000511646270752
30	484.4559600353241	fix_pre	0		119	28.0	2.5	blank	1.0	507.981751203537	0.9916079044342041
30	485.43187189102173	pulse	0	t		28.0	2.5	blank	1.0	508.9576630592346	
30	485.4475679397583	movie	1		301	28.0	2.5	blank	1.0	508.9733591079712	2.5083019733428955
30	487.031986951828	pulse	1	t		28.0	2.5	blank	1.0	510.5577781200409	
30	487.9558699131012	fix_post	2		12	28.0	2.5	blank	1.0	511.4816610813141	0.09998393058776855
31	488.05585384368896	fix_pre	0		120	29.0	2.5	/experiments/AOT/AOT_stimuli/rescaled_final/1614_fw.mp4	0.0	511.58164501190186	1.000046968460083
31	488.6319229602814	pulse	0	t		29.0	2.5	/experiments/AOT/AOT_stimuli/rescaled_final/1614_fw.mp4	0.0	512.1577141284943	
31	489.05590081214905	movie	1		244	29.0	2.5	/experiments/AOT/AOT_stimuli/rescaled_final/1614_fw.mp4	0.0	512.5816919803619	2.4999711513519287
31	490.2394108772278	pulse	1	t		29.0	2.5	/experiments/AOT/AOT_stimuli/rescaled_final/1614_fw.mp4	0.0	513.7652020454407	
31	491.555871963501	fix_post	2		12	29.0	2.5	/experiments/AOT/AOT_stimuli/rescaled_final/1614_fw.mp4	0.0	515.0816631317139	0.0999300479888916
32	491.65580201148987	fix_pre	0		120	30.0	2.5	/experiments/AOT/AOT_stimuli/rescaled_final/1338_rv.mp4	0.0	515.1815931797028	1.000058889389038
32	491.8317708969116	pulse	0	t		30.0	2.5	/experiments/AOT/AOT_stimuli/rescaled_final/1338_rv.mp4	0.0	515.3575620651245	
32	492.6558609008789	movie	1		243	30.0	2.5	/experiments/AOT/AOT_stimuli/rescaled_final/1338_rv.mp4	0.0	516.1816520690918	2.499962091445923
32	493.4393618106842	pulse	1	t		30.0	2.5	/experiments/AOT/AOT_stimuli/rescaled_final/1338_rv.mp4	0.0	516.9651529788971	
32	495.0377769470215	pulse	1	t		30.0	2.5	/experiments/AOT/AOT_stimuli/rescaled_final/1338_rv.mp4	0.0	518.5635681152344	
32	495.15582299232483	fix_post	2		12	30.0	2.5	/experiments/AOT/AOT_stimuli/rescaled_final/1338_rv.mp4	0.0	518.6816141605377	0.0999598503112793
33	495.2557828426361	fix_pre	0		120	31.0	2.5	/experiments/AOT/AOT_stimuli/rescaled_final/1454_rv.mp4	0.0	518.781574010849	1.0000331401824951
33	496.2558159828186	movie	1		244	31.0	2.5	/experiments/AOT/AOT_stimuli/rescaled_final/1454_rv.mp4	0.0	519.7816071510315	2.500063896179199
33	496.63947081565857	pulse	1	t		31.0	2.5	/experiments/AOT/AOT_stimuli/rescaled_final/1454_rv.mp4	0.0	520.1652619838715	
33	498.23211002349854	pulse	1	t		31.0	2.5	/experiments/AOT/AOT_stimuli/rescaled_final/1454_rv.mp4	0.0	521.7579011917114	
33	498.7558798789978	fix_post	2		12	31.0	2.5	/experiments/AOT/AOT_stimuli/rescaled_final/1454_rv.mp4	0.0	522.2816710472107	0.09994196891784668
34	498.85582184791565	fix_pre	0		119	32.0	2.5	/experiments/AOT/AOT_stimuli/rescaled_final/2156_fw.mp4	0.0	522.3816130161285	0.9915761947631836
34	499.83934593200684	pulse	0	t		32.0	2.5	/experiments/AOT/AOT_stimuli/rescaled_final/2156_fw.mp4	0.0	523.3651371002197	
34	499.84739804267883	movie	1		245	32.0	2.5	/experiments/AOT/AOT_stimuli/rescaled_final/2156_fw.mp4	0.0	523.3731892108917	2.5084638595581055
34	501.4387938976288	pulse	1	t		32.0	2.5	/experiments/AOT/AOT_stimuli/rescaled_final/2156_fw.mp4	0.0	524.9645850658417	
34	502.35586190223694	fix_post	2		12	32.0	2.5	/experiments/AOT/AOT_stimuli/rescaled_final/2156_fw.mp4	0.0	525.8816530704498	0.09998106956481934
35	502.45584297180176	fix_pre	0		120	33.0	2.5	blank	1.0	525.9816341400146	0.999953031539917
35	503.0317509174347	pulse	0	t		33.0	2.5	blank	1.0	526.5575420856476	
35	503.4557960033417	movie	1		300	33.0	2.5	blank	1.0	526.9815871715546	2.500095844268799
35	504.6388609409332	pulse	1	t		33.0	2.5	blank	1.0	528.1646521091461	
35	505.9558918476105	fix_post	2		12	33.0	2.5	blank	1.0	529.4816830158234	0.09998703002929688
36	506.05587887763977	fix_pre	0		120	34.0	2.5	/experiments/AOT/AOT_stimuli/rescaled_final/1823_rv.mp4	0.0	529.5816700458527	1.0001490116119385
36	506.2319519519806	pulse	0	t		34.0	2.5	/experiments/AOT/AOT_stimuli/rescaled_final/1823_rv.mp4	0.0	529.7577431201935	
36	507.0560278892517	movie	1		244	34.0	2.5	/experiments/AOT/AOT_stimuli/rescaled_final/1823_rv.mp4	0.0	530.5818190574646	2.499735116958618
36	507.8317708969116	pulse	1	t		34.0	2.5	/experiments/AOT/AOT_stimuli/rescaled_final/1823_rv.mp4	0.0	531.3575620651245	
36	509.437784910202	pulse	1	t		34.0	2.5	/experiments/AOT/AOT_stimuli/rescaled_final/1823_rv.mp4	0.0	532.9635760784149	
36	509.5557630062103	fix_post	2		12	34.0	2.5	/experiments/AOT/AOT_stimuli/rescaled_final/1823_rv.mp4	0.0	533.0815541744232	0.0999898910522461
37	509.6557528972626	fix_pre	0		120	35.0	2.5	/experiments/AOT/AOT_stimuli/rescaled_final/1686_rv.mp4	0.0	533.1815440654755	0.9999661445617676
37	510.65571904182434	movie	1		244	35.0	2.5	/experiments/AOT/AOT_stimuli/rescaled_final/1686_rv.mp4	0.0	534.1815102100372	2.5000407695770264
37	511.0401990413666	pulse	1	t		35.0	2.5	/experiments/AOT/AOT_stimuli/rescaled_final/1686_rv.mp4	0.0	534.5659902095795	
37	512.6391339302063	pulse	1	t		35.0	2.5	/experiments/AOT/AOT_stimuli/rescaled_final/1686_rv.mp4	0.0	536.1649250984192	
37	513.1557598114014	fix_post	2		12	35.0	2.5	/experiments/AOT/AOT_stimuli/rescaled_final/1686_rv.mp4	0.0	536.6815509796143	0.09993100166320801
38	513.2556908130646	fix_pre	0		119	36.0	2.5	/experiments/AOT/AOT_stimuli/rescaled_final/0106_fw.mp4	0.0	536.7814819812775	0.9917380809783936
38	514.2392008304596	pulse	0	t		36.0	2.5	/experiments/AOT/AOT_stimuli/rescaled_final/0106_fw.mp4	0.0	537.7649919986725	
38	514.247428894043	movie	1		243	36.0	2.5	/experiments/AOT/AOT_stimuli/rescaled_final/0106_fw.mp4	0.0	537.7732200622559	2.508265972137451
38	515.838898897171	pulse	1	t		36.0	2.5	/experiments/AOT/AOT_stimuli/rescaled_final/0106_fw.mp4	0.0	539.3646900653839	
38	516.7556948661804	fix_post	2		12	36.0	2.5	/experiments/AOT/AOT_stimuli/rescaled_final/0106_fw.mp4	0.0	540.2814860343933	0.10000801086425781
39	516.8557028770447	fix_pre	0		120	37.0	2.5	/experiments/AOT/AOT_stimuli/rescaled_final/0684_fw.mp4	0.0	540.3814940452576	0.9999790191650391
39	517.4392139911652	pulse	0	t		37.0	2.5	/experiments/AOT/AOT_stimuli/rescaled_final/0684_fw.mp4	0.0	540.965005159378	
39	517.8556818962097	movie	1		245	37.0	2.5	/experiments/AOT/AOT_stimuli/rescaled_final/0684_fw.mp4	0.0	541.3814730644226	2.4999840259552
39	519.0392608642578	pulse	1	t		37.0	2.5	/experiments/AOT/AOT_stimuli/rescaled_final/0684_fw.mp4	0.0	542.5650520324707	
39	520.3556659221649	fix_post	2		12	37.0	2.5	/experiments/AOT/AOT_stimuli/rescaled_final/0684_fw.mp4	0.0	543.8814570903778	0.10001611709594727
40	520.4556820392609	fix_pre	0		120	38.0	2.5	/experiments/AOT/AOT_stimuli/rescaled_final/1374_rv.mp4	0.0	543.9814732074738	0.9999508857727051
40	520.6392378807068	pulse	0	t		38.0	2.5	/experiments/AOT/AOT_stimuli/rescaled_final/1374_rv.mp4	0.0	544.1650290489197	
40	521.4556329250336	movie	1		244	38.0	2.5	/experiments/AOT/AOT_stimuli/rescaled_final/1374_rv.mp4	0.0	544.9814240932465	2.5000391006469727
40	522.2317719459534	pulse	1	t		38.0	2.5	/experiments/AOT/AOT_stimuli/rescaled_final/1374_rv.mp4	0.0	545.7575631141663	
40	523.8376808166504	pulse	1	t		38.0	2.5	/experiments/AOT/AOT_stimuli/rescaled_final/1374_rv.mp4	0.0	547.3634719848633	
40	523.9556720256805	fix_post	2		12	38.0	2.5	/experiments/AOT/AOT_stimuli/rescaled_final/1374_rv.mp4	0.0	547.4814631938934	0.10002994537353516
41	524.0557019710541	fix_pre	0		120	39.0	2.5	/experiments/AOT/AOT_stimuli/rescaled_final/1624_fw.mp4	0.0	547.581493139267	1.0000369548797607
41	525.0557389259338	movie	1		245	39.0	2.5	/experiments/AOT/AOT_stimuli/rescaled_final/1624_fw.mp4	0.0	548.5815300941467	2.4999818801879883
41	525.4388799667358	pulse	1	t		39.0	2.5	/experiments/AOT/AOT_stimuli/rescaled_final/1624_fw.mp4	0.0	548.9646711349487	
41	527.039167881012	pulse	1	t		39.0	2.5	/experiments/AOT/AOT_stimuli/rescaled_final/1624_fw.mp4	0.0	550.5649590492249	
41	527.5557208061218	fix_post	2		12	39.0	2.5	/experiments/AOT/AOT_stimuli/rescaled_final/1624_fw.mp4	0.0	551.0815119743347	0.09994316101074219
42	527.6556639671326	fix_pre	0		119	40.0	2.5	/experiments/AOT/AOT_stimuli/rescaled_final/0764_fw.mp4	0.0	551.1814551353455	0.9916830062866211
42	528.6391849517822	pulse	0	t		40.0	2.5	/experiments/AOT/AOT_stimuli/rescaled_final/0764_fw.mp4	0.0	552.1649761199951	
42	528.6473469734192	movie	1		247	40.0	2.5	/experiments/AOT/AOT_stimuli/rescaled_final/0764_fw.mp4	0.0	552.1731381416321	2.508286952972412
42	530.2388348579407	pulse	1	t		40.0	2.5	/experiments/AOT/AOT_stimuli/rescaled_final/0764_fw.mp4	0.0	553.7646260261536	
42	531.1556339263916	fix_post	2		12	40.0	2.5	/experiments/AOT/AOT_stimuli/rescaled_final/0764_fw.mp4	0.0	554.6814250946045	0.100006103515625
43	531.2556400299072	fix_pre	0		120	41.0	2.5	/experiments/AOT/AOT_stimuli/rescaled_final/1610_fw.mp4	0.0	554.7814311981201	0.9999499320983887
43	531.8391599655151	pulse	0	t		41.0	2.5	/experiments/AOT/AOT_stimuli/rescaled_final/1610_fw.mp4	0.0	555.364951133728	
43	532.2555899620056	movie	1		244	41.0	2.5	/experiments/AOT/AOT_stimuli/rescaled_final/1610_fw.mp4	0.0	555.7813811302185	2.500066041946411
43	533.4392759799957	pulse	1	t		41.0	2.5	/experiments/AOT/AOT_stimuli/rescaled_final/1610_fw.mp4	0.0	556.9650671482086	
43	534.755656003952	fix_post	2		12	41.0	2.5	/experiments/AOT/AOT_stimuli/rescaled_final/1610_fw.mp4	0.0	558.2814471721649	0.09995484352111816
44	534.8556108474731	fix_pre	0		120	42.0	2.5	blank	1.0	558.381402015686	1.0000190734863281
44	535.0391008853912	pulse	0	t		42.0	2.5	blank	1.0	558.5648920536041	
44	535.8556299209595	movie	1		299	42.0	2.5	blank	1.0	559.3814210891724	2.5000159740448
44	536.6391079425812	pulse	1	t		42.0	2.5	blank	1.0	560.1648991107941	
44	538.2391119003296	pulse	1	t		42.0	2.5	blank	1.0	561.7649030685425	
44	538.3556458950043	fix_post	2		12	42.0	2.5	blank	1.0	561.8814370632172	0.09999203681945801
45	538.4556379318237	fix_pre	0		120	43.0	2.5	/experiments/AOT/AOT_stimuli/rescaled_final/0778_fw.mp4	0.0	561.9814291000366	0.9999580383300781
45	539.4555959701538	movie	1		244	43.0	2.5	/experiments/AOT/AOT_stimuli/rescaled_final/0778_fw.mp4	0.0	562.9813871383667	2.5000510215759277
45	539.8389558792114	pulse	1	t		43.0	2.5	/experiments/AOT/AOT_stimuli/rescaled_final/0778_fw.mp4	0.0	563.3647470474243	
45	541.4390449523926	pulse	1	t		43.0	2.5	/experiments/AOT/AOT_stimuli/rescaled_final/0778_fw.mp4	0.0	564.9648361206055	
45	541.9556469917297	fix_post	2		12	43.0	2.5	/experiments/AOT/AOT_stimuli/rescaled_final/0778_fw.mp4	0.0	565.4814381599426	0.09999704360961914
46	542.0556440353394	fix_pre	0		119	44.0	2.5	/experiments/AOT/AOT_stimuli/rescaled_final/0842_rv.mp4	0.0	565.5814352035522	0.9917659759521484
46	543.0391290187836	pulse	0	t		44.0	2.5	/experiments/AOT/AOT_stimuli/rescaled_final/0842_rv.mp4	0.0	566.5649201869965	
46	543.0474100112915	movie	1		247	44.0	2.5	/experiments/AOT/AOT_stimuli/rescaled_final/0842_rv.mp4	0.0	566.5732011795044	2.508229970932007
46	544.6386799812317	pulse	1	t		44.0	2.5	/experiments/AOT/AOT_stimuli/rescaled_final/0842_rv.mp4	0.0	568.1644711494446	
46	545.5556399822235	fix_post	2		12	44.0	2.5	/experiments/AOT/AOT_stimuli/rescaled_final/0842_rv.mp4	0.0	569.0814311504364	0.09993886947631836
47	545.6555788516998	fix_pre	0		120	45.0	2.5	/experiments/AOT/AOT_stimuli/rescaled_final/1271_rv.mp4	0.0	569.1813700199127	1.0000860691070557
47	546.2392158508301	pulse	0	t		45.0	2.5	/experiments/AOT/AOT_stimuli/rescaled_final/1271_rv.mp4	0.0	569.765007019043	
47	546.6556649208069	movie	1		246	45.0	2.5	/experiments/AOT/AOT_stimuli/rescaled_final/1271_rv.mp4	0.0	570.1814560890198	2.4998910427093506
47	547.839038848877	pulse	1	t		45.0	2.5	/experiments/AOT/AOT_stimuli/rescaled_final/1271_rv.mp4	0.0	571.3648300170898	
47	549.1555559635162	fix_post	2		12	45.0	2.5	/experiments/AOT/AOT_stimuli/rescaled_final/1271_rv.mp4	0.0	572.6813471317291	0.09999799728393555
48	549.2555539608002	fix_pre	0		120	46.0	2.5	/experiments/AOT/AOT_stimuli/rescaled_final/0801_rv.mp4	0.0	572.7813451290131	0.9999508857727051
48	549.4390518665314	pulse	0	t		46.0	2.5	/experiments/AOT/AOT_stimuli/rescaled_final/0801_rv.mp4	0.0	572.9648430347443	
48	550.2555048465729	movie	1		244	46.0	2.5	/experiments/AOT/AOT_stimuli/rescaled_final/0801_rv.mp4	0.0	573.7812960147858	2.5001001358032227
48	551.039167881012	pulse	1	t		46.0	2.5	/experiments/AOT/AOT_stimuli/rescaled_final/0801_rv.mp4	0.0	574.5649590492249	
48	552.6375889778137	pulse	1	t		46.0	2.5	/experiments/AOT/AOT_stimuli/rescaled_final/0801_rv.mp4	0.0	576.1633801460266	
48	552.7556049823761	fix_post	2		12	46.0	2.5	/experiments/AOT/AOT_stimuli/rescaled_final/0801_rv.mp4	0.0	576.281396150589	0.10000085830688477
49	552.855605840683	fix_pre	0		120	47.0	2.5	/experiments/AOT/AOT_stimuli/rescaled_final/1115_fw.mp4	0.0	576.3813970088959	1.000020980834961
49	553.855626821518	movie	1		243	47.0	2.5	/experiments/AOT/AOT_stimuli/rescaled_final/1115_fw.mp4	0.0	577.3814179897308	2.5000550746917725
49	554.2388198375702	pulse	1	t		47.0	2.5	/experiments/AOT/AOT_stimuli/rescaled_final/1115_fw.mp4	0.0	577.7646110057831	
49	555.8390829563141	pulse	1	t		47.0	2.5	/experiments/AOT/AOT_stimuli/rescaled_final/1115_fw.mp4	0.0	579.364874124527	
49	556.3556818962097	fix_post	2		12	47.0	2.5	/experiments/AOT/AOT_stimuli/rescaled_final/1115_fw.mp4	0.0	579.8814730644226	0.09986400604248047
50	556.4555459022522	fix_pre	0		119	48.0	2.5	/experiments/AOT/AOT_stimuli/rescaled_final/1997_fw.mp4	0.0	579.9813370704651	0.9917600154876709
50	557.4390330314636	pulse	0	t		48.0	2.5	/experiments/AOT/AOT_stimuli/rescaled_final/1997_fw.mp4	0.0	580.9648241996765	
50	557.4473059177399	movie	1		246	48.0	2.5	/experiments/AOT/AOT_stimuli/rescaled_final/1997_fw.mp4	0.0	580.9730970859528	2.5082828998565674
50	559.0386669635773	pulse	1	t		48.0	2.5	/experiments/AOT/AOT_stimuli/rescaled_final/1997_fw.mp4	0.0	582.5644581317902	
50	559.9555888175964	fix_post	2		12	48.0	2.5	/experiments/AOT/AOT_stimuli/rescaled_final/1997_fw.mp4	0.0	583.4813799858093	0.09999418258666992
51	560.0555830001831	fix_pre	0		120	49.0	2.5	blank	1.0	583.581374168396	0.9995720386505127
51	560.6386289596558	pulse	0	t		49.0	2.5	blank	1.0	584.1644201278687	
51	561.0551550388336	movie	1		300	49.0	2.5	blank	1.0	584.5809462070465	2.5004727840423584
51	562.2391519546509	pulse	1	t		49.0	2.5	blank	1.0	585.7649431228638	
51	563.555627822876	fix_post	2		12	49.0	2.5	blank	1.0	587.0814189910889	0.09992003440856934
52	563.6555478572845	fix_pre	0		120	50.0	2.5	/experiments/AOT/AOT_stimuli/rescaled_final/2085_rv.mp4	0.0	587.1813390254974	0.9999740123748779
52	563.8390469551086	pulse	0	t		50.0	2.5	/experiments/AOT/AOT_stimuli/rescaled_final/2085_rv.mp4	0.0	587.3648381233215	
52	564.6555218696594	movie	1		245	50.0	2.5	/experiments/AOT/AOT_stimuli/rescaled_final/2085_rv.mp4	0.0	588.1813130378723	2.4999589920043945
52	565.4389939308167	pulse	1	t		50.0	2.5	/experiments/AOT/AOT_stimuli/rescaled_final/2085_rv.mp4	0.0	588.9647850990295	
52	567.0376310348511	pulse	1	t		50.0	2.5	/experiments/AOT/AOT_stimuli/rescaled_final/2085_rv.mp4	0.0	590.563422203064	
52	567.1554808616638	fix_post	2		12	50.0	2.5	/experiments/AOT/AOT_stimuli/rescaled_final/2085_rv.mp4	0.0	590.6812720298767	0.09994912147521973
53	567.255429983139	fix_pre	0		120	51.0	2.5	/experiments/AOT/AOT_stimuli/rescaled_final/0958_fw.mp4	0.0	590.7812211513519	1.000025987625122
53	568.2554559707642	movie	1		245	51.0	2.5	/experiments/AOT/AOT_stimuli/rescaled_final/0958_fw.mp4	0.0	591.781247138977	2.4999680519104004
53	568.6400129795074	pulse	1	t		51.0	2.5	/experiments/AOT/AOT_stimuli/rescaled_final/0958_fw.mp4	0.0	592.1658041477203	
53	570.2390189170837	pulse	1	t		51.0	2.5	/experiments/AOT/AOT_stimuli/rescaled_final/0958_fw.mp4	0.0	593.7648100852966	
53	570.7554240226746	fix_post	2		12	51.0	2.5	/experiments/AOT/AOT_stimuli/rescaled_final/0958_fw.mp4	0.0	594.2812151908875	0.10002899169921875
54	570.8554530143738	fix_pre	0		119	52.0	2.5	/experiments/AOT/AOT_stimuli/rescaled_final/0169_rv.mp4	0.0	594.3812441825867	0.9916768074035645
54	571.8389449119568	pulse	0	t		52.0	2.5	/experiments/AOT/AOT_stimuli/rescaled_final/0169_rv.mp4	0.0	595.3647360801697	
54	571.8471298217773	movie	1		246	52.0	2.5	/experiments/AOT/AOT_stimuli/rescaled_final/0169_rv.mp4	0.0	595.3729209899902	2.508336067199707
54	573.4386470317841	pulse	1	t		52.0	2.5	/experiments/AOT/AOT_stimuli/rescaled_final/0169_rv.mp4	0.0	596.964438199997	
54	574.355465888977	fix_post	2		12	52.0	2.5	/experiments/AOT/AOT_stimuli/rescaled_final/0169_rv.mp4	0.0	597.8812570571899	0.09992504119873047
55	574.4553909301758	fix_pre	0		120	53.0	2.5	/experiments/AOT/AOT_stimuli/rescaled_final/0310_fw.mp4	0.0	597.9811820983887	0.9999639987945557
55	575.0389318466187	pulse	0	t		53.0	2.5	/experiments/AOT/AOT_stimuli/rescaled_final/0310_fw.mp4	0.0	598.5647230148315	
55	575.4553549289703	movie	1		244	53.0	2.5	/experiments/AOT/AOT_stimuli/rescaled_final/0310_fw.mp4	0.0	598.9811460971832	2.500143051147461
55	576.6390209197998	pulse	1	t		53.0	2.5	/experiments/AOT/AOT_stimuli/rescaled_final/0310_fw.mp4	0.0	600.1648120880127	
55	577.9554979801178	fix_post	2		12	53.0	2.5	/experiments/AOT/AOT_stimuli/rescaled_final/0310_fw.mp4	0.0	601.4812891483307	0.09988188743591309
56	578.0553798675537	fix_pre	0		120	54.0	2.5	/experiments/AOT/AOT_stimuli/rescaled_final/2000_rv.mp4	0.0	601.5811710357666	1.0000531673431396
56	578.2389278411865	pulse	0	t		54.0	2.5	/experiments/AOT/AOT_stimuli/rescaled_final/2000_rv.mp4	0.0	601.7647190093994	
56	579.0554330348969	movie	1		242	54.0	2.5	/experiments/AOT/AOT_stimuli/rescaled_final/2000_rv.mp4	0.0	602.5812242031097	2.499957799911499
56	579.8389348983765	pulse	1	t		54.0	2.5	/experiments/AOT/AOT_stimuli/rescaled_final/2000_rv.mp4	0.0	603.3647260665894	
56	581.437166929245	pulse	1	t		54.0	2.5	/experiments/AOT/AOT_stimuli/rescaled_final/2000_rv.mp4	0.0	604.9629580974579	
56	581.5553908348083	fix_post	2		12	54.0	2.5	/experiments/AOT/AOT_stimuli/rescaled_final/2000_rv.mp4	0.0	605.0811820030212	0.09999513626098633
57	581.6553859710693	fix_pre	0		120	55.0	2.5	blank	1.0	605.1811771392822	0.9999208450317383
57	582.6553068161011	movie	1		300	55.0	2.5	blank	1.0	606.181097984314	2.5000391006469727
57	583.0389318466187	pulse	1	t		55.0	2.5	blank	1.0	606.5647230148315	
57	584.6388258934021	pulse	1	t		55.0	2.5	blank	1.0	608.164617061615	
57	585.155345916748	fix_post	2		12	55.0	2.5	blank	1.0	608.6811370849609	0.1000070571899414
58	585.255352973938	fix_pre	0		119	56.0	2.5	/experiments/AOT/AOT_stimuli/rescaled_final/0739_fw.mp4	0.0	608.7811441421509	0.9916820526123047
58	586.2389259338379	pulse	0	t		56.0	2.5	/experiments/AOT/AOT_stimuli/rescaled_final/0739_fw.mp4	0.0	609.7647171020508	
58	586.2470350265503	movie	1		244	56.0	2.5	/experiments/AOT/AOT_stimuli/rescaled_final/0739_fw.mp4	0.0	609.7728261947632	2.508413791656494
58	587.838310956955	pulse	1	t		56.0	2.5	/experiments/AOT/AOT_stimuli/rescaled_final/0739_fw.mp4	0.0	611.3641021251678	
58	588.7554488182068	fix_post	2		12	56.0	2.5	/experiments/AOT/AOT_stimuli/rescaled_final/0739_fw.mp4	0.0	612.2812399864197	0.09988212585449219
59	588.8553309440613	fix_pre	0		120	57.0	2.5	/experiments/AOT/AOT_stimuli/rescaled_final/0402_fw.mp4	0.0	612.3811221122742	1.0000579357147217
59	589.4389188289642	pulse	0	t		57.0	2.5	/experiments/AOT/AOT_stimuli/rescaled_final/0402_fw.mp4	0.0	612.9647099971771	
59	589.855388879776	movie	1		245	57.0	2.5	/experiments/AOT/AOT_stimuli/rescaled_final/0402_fw.mp4	0.0	613.3811800479889	2.5001630783081055
59	591.0389640331268	pulse	1	t		57.0	2.5	/experiments/AOT/AOT_stimuli/rescaled_final/0402_fw.mp4	0.0	614.5647552013397	
59	592.3555519580841	fix_post	2		12	57.0	2.5	/experiments/AOT/AOT_stimuli/rescaled_final/0402_fw.mp4	0.0	615.881343126297	0.09988093376159668
60	592.4554328918457	fix_pre	0		120	58.0	2.5	/experiments/AOT/AOT_stimuli/rescaled_final/1649_fw.mp4	0.0	615.9812240600586	0.9999589920043945
60	592.6389269828796	pulse	0	t		58.0	2.5	/experiments/AOT/AOT_stimuli/rescaled_final/1649_fw.mp4	0.0	616.1647181510925	
60	593.4553918838501	movie	1		245	58.0	2.5	/experiments/AOT/AOT_stimuli/rescaled_final/1649_fw.mp4	0.0	616.981183052063	2.5000030994415283
60	594.2388799190521	pulse	1	t		58.0	2.5	/experiments/AOT/AOT_stimuli/rescaled_final/1649_fw.mp4	0.0	617.764671087265	
60	595.8374240398407	pulse	1	t		58.0	2.5	/experiments/AOT/AOT_stimuli/rescaled_final/1649_fw.mp4	0.0	619.3632152080536	
60	595.9553949832916	fix_post	2		12	58.0	2.5	/experiments/AOT/AOT_stimuli/rescaled_final/1649_fw.mp4	0.0	619.4811861515045	0.09998488426208496
61	596.0553798675537	fix_pre	0		120	59.0	2.5	/experiments/AOT/AOT_stimuli/rescaled_final/1127_rv.mp4	0.0	619.5811710357666	1.0000720024108887
61	597.0554518699646	movie	1		245	59.0	2.5	/experiments/AOT/AOT_stimuli/rescaled_final/1127_rv.mp4	0.0	620.5812430381775	2.4998960494995117
61	597.4387300014496	pulse	1	t		59.0	2.5	/experiments/AOT/AOT_stimuli/rescaled_final/1127_rv.mp4	0.0	620.9645211696625	
61	599.038801908493	pulse	1	t		59.0	2.5	/experiments/AOT/AOT_stimuli/rescaled_final/1127_rv.mp4	0.0	622.5645930767059	
61	599.5553479194641	fix_post	2		12	59.0	2.5	/experiments/AOT/AOT_stimuli/rescaled_final/1127_rv.mp4	0.0	623.081139087677	0.09997797012329102
62	599.6553258895874	fix_pre	0		119	60.0	2.5	/experiments/AOT/AOT_stimuli/rescaled_final/2139_rv.mp4	0.0	623.1811170578003	0.9916701316833496
62	600.638757944107	pulse	0	t		60.0	2.5	/experiments/AOT/AOT_stimuli/rescaled_final/2139_rv.mp4	0.0	624.16454911232	
62	600.6469960212708	movie	1		245	60.0	2.5	/experiments/AOT/AOT_stimuli/rescaled_final/2139_rv.mp4	0.0	624.1727871894836	2.508410930633545
62	602.23841381073	pulse	1	t		60.0	2.5	/experiments/AOT/AOT_stimuli/rescaled_final/2139_rv.mp4	0.0	625.7642049789429	
62	603.1554069519043	fix_post	2		12	60.0	2.5	/experiments/AOT/AOT_stimuli/rescaled_final/2139_rv.mp4	0.0	626.6811981201172	0.09999704360961914
63	603.2554039955139	fix_pre	0		120	61.0	2.5	/experiments/AOT/AOT_stimuli/rescaled_final/0544_fw.mp4	0.0	626.7811951637268	0.9999828338623047
63	603.8388509750366	pulse	0	t		61.0	2.5	/experiments/AOT/AOT_stimuli/rescaled_final/0544_fw.mp4	0.0	627.3646421432495	
63	604.2553868293762	movie	1		244	61.0	2.5	/experiments/AOT/AOT_stimuli/rescaled_final/0544_fw.mp4	0.0	627.7811779975891	2.4999611377716064
63	605.4389369487762	pulse	1	t		61.0	2.5	/experiments/AOT/AOT_stimuli/rescaled_final/0544_fw.mp4	0.0	628.9647281169891	
63	606.7553479671478	fix_post	2		12	61.0	2.5	/experiments/AOT/AOT_stimuli/rescaled_final/0544_fw.mp4	0.0	630.2811391353607	0.09994888305664062
64	606.8552968502045	fix_pre	0		120	62.0	2.5	blank	1.0	630.3810880184174	1.0001201629638672
64	607.0388329029083	pulse	0	t		62.0	2.5	blank	1.0	630.5646240711212	
64	607.8554170131683	movie	1		300	62.0	2.5	blank	1.0	631.3812081813812	2.499889850616455
64	608.6387598514557	pulse	1	t		62.0	2.5	blank	1.0	632.1645510196686	
64	610.2387359142303	pulse	1	t		62.0	2.5	blank	1.0	633.7645270824432	
64	610.3553068637848	fix_post	2		12	62.0	2.5	blank	1.0	633.8810980319977	0.09996414184570312
65	610.4552710056305	fix_pre	0		120	63.0	2.5	/experiments/AOT/AOT_stimuli/rescaled_final/0194_rv.mp4	0.0	633.9810621738434	1.000018835067749
65	611.4552898406982	movie	1		247	63.0	2.5	/experiments/AOT/AOT_stimuli/rescaled_final/0194_rv.mp4	0.0	634.9810810089111	2.499951124191284
65	611.8383448123932	pulse	1	t		63.0	2.5	/experiments/AOT/AOT_stimuli/rescaled_final/0194_rv.mp4	0.0	635.3641359806061	
65	613.4388098716736	pulse	1	t		63.0	2.5	/experiments/AOT/AOT_stimuli/rescaled_final/0194_rv.mp4	0.0	636.9646010398865	
65	613.9552409648895	fix_post	2		12	63.0	2.5	/experiments/AOT/AOT_stimuli/rescaled_final/0194_rv.mp4	0.0	637.4810321331024	0.09994888305664062
66	614.0551898479462	fix_pre	0		119	64.0	2.5	/experiments/AOT/AOT_stimuli/rescaled_final/2155_rv.mp4	0.0	637.5809810161591	0.9917371273040771
66	615.0387890338898	pulse	0	t		64.0	2.5	/experiments/AOT/AOT_stimuli/rescaled_final/2155_rv.mp4	0.0	638.5645802021027	
66	615.0469269752502	movie	1		248	64.0	2.5	/experiments/AOT/AOT_stimuli/rescaled_final/2155_rv.mp4	0.0	638.5727181434631	2.508405923843384
66	616.6377449035645	pulse	1	t		64.0	2.5	/experiments/AOT/AOT_stimuli/rescaled_final/2155_rv.mp4	0.0	640.1635360717773	
66	617.5553328990936	fix_post	2		12	64.0	2.5	/experiments/AOT/AOT_stimuli/rescaled_final/2155_rv.mp4	0.0	641.0811240673065	0.10007596015930176
67	617.6554088592529	fix_pre	0		120	65.0	2.5	/experiments/AOT/AOT_stimuli/rescaled_final/0520_rv.mp4	0.0	641.1812000274658	0.9997670650482178
67	618.2385368347168	pulse	0	t		65.0	2.5	/experiments/AOT/AOT_stimuli/rescaled_final/0520_rv.mp4	0.0	641.7643280029297	
67	618.6551759243011	movie	1		246	65.0	2.5	/experiments/AOT/AOT_stimuli/rescaled_final/0520_rv.mp4	0.0	642.180967092514	2.5001471042633057
67	619.8388290405273	pulse	1	t		65.0	2.5	/experiments/AOT/AOT_stimuli/rescaled_final/0520_rv.mp4	0.0	643.3646202087402	
67	621.1553230285645	fix_post	2		12	65.0	2.5	/experiments/AOT/AOT_stimuli/rescaled_final/0520_rv.mp4	0.0	644.6811141967773	0.09992194175720215
68	621.2552449703217	fix_pre	0		120	66.0	2.5	/experiments/AOT/AOT_stimuli/rescaled_final/0193_fw.mp4	0.0	644.7810361385345	1.0001108646392822
68	621.4387149810791	pulse	0	t		66.0	2.5	/experiments/AOT/AOT_stimuli/rescaled_final/0193_fw.mp4	0.0	644.964506149292	
68	622.2553558349609	movie	1		245	66.0	2.5	/experiments/AOT/AOT_stimuli/rescaled_final/0193_fw.mp4	0.0	645.7811470031738	2.4998230934143066
68	623.0386688709259	pulse	1	t		66.0	2.5	/experiments/AOT/AOT_stimuli/rescaled_final/0193_fw.mp4	0.0	646.5644600391388	
68	624.6375479698181	pulse	1	t		66.0	2.5	/experiments/AOT/AOT_stimuli/rescaled_final/0193_fw.mp4	0.0	648.163339138031	
68	624.7551789283752	fix_post	2		12	66.0	2.5	/experiments/AOT/AOT_stimuli/rescaled_final/0193_fw.mp4	0.0	648.2809700965881	0.09998798370361328
69	624.8551669120789	fix_pre	0		120	67.0	2.5	/experiments/AOT/AOT_stimuli/rescaled_final/1347_fw.mp4	0.0	648.3809580802917	1.000049114227295
69	625.8552160263062	movie	1		246	67.0	2.5	/experiments/AOT/AOT_stimuli/rescaled_final/1347_fw.mp4	0.0	649.381007194519	2.5000128746032715
69	626.238184928894	pulse	1	t		67.0	2.5	/experiments/AOT/AOT_stimuli/rescaled_final/1347_fw.mp4	0.0	649.7639760971069	
69	627.8386979103088	pulse	1	t		67.0	2.5	/experiments/AOT/AOT_stimuli/rescaled_final/1347_fw.mp4	0.0	651.3644890785217	
69	628.3552289009094	fix_post	2		12	67.0	2.5	/experiments/AOT/AOT_stimuli/rescaled_final/1347_fw.mp4	0.0	651.8810200691223	0.09994101524353027
70	628.455169916153	fix_pre	0		119	68.0	2.5	blank	1.0	651.9809610843658	0.9916579723358154
70	629.4386868476868	pulse	0	t		68.0	2.5	blank	1.0	652.9644780158997	
70	629.4468278884888	movie	1		301	68.0	2.5	blank	1.0	652.9726190567017	2.5083110332489014
70	631.0387070178986	pulse	1	t		68.0	2.5	blank	1.0	654.5644981861115	
70	631.9551389217377	fix_post	2		12	68.0	2.5	blank	1.0	655.4809300899506	0.09999489784240723
71	632.0551338195801	fix_pre	0		120	69.0	2.5	/experiments/AOT/AOT_stimuli/rescaled_final/0994_rv.mp4	0.0	655.580924987793	1.0000500679016113
71	632.6386969089508	pulse	0	t		69.0	2.5	/experiments/AOT/AOT_stimuli/rescaled_final/0994_rv.mp4	0.0	656.1644880771637	
71	633.0551838874817	movie	1		243	69.0	2.5	/experiments/AOT/AOT_stimuli/rescaled_final/0994_rv.mp4	0.0	656.5809750556946	2.499936103820801
71	634.2386980056763	pulse	1	t		69.0	2.5	/experiments/AOT/AOT_stimuli/rescaled_final/0994_rv.mp4	0.0	657.7644891738892	
71	635.5551199913025	fix_post	2		12	69.0	2.5	/experiments/AOT/AOT_stimuli/rescaled_final/0994_rv.mp4	0.0	659.0809111595154	0.09999704360961914
72	635.6551170349121	fix_pre	0		119	70.0	2.5	/experiments/AOT/AOT_stimuli/rescaled_final/0877_rv.mp4	0.0	659.180908203125	1.0000247955322266
72	635.8387248516083	pulse	0	t		70.0	2.5	/experiments/AOT/AOT_stimuli/rescaled_final/0877_rv.mp4	0.0	659.3645160198212	
72	636.6551418304443	movie	1		245	70.0	2.5	/experiments/AOT/AOT_stimuli/rescaled_final/0877_rv.mp4	0.0	660.1809329986572	2.500059127807617
72	637.4386520385742	pulse	1	t		70.0	2.5	/experiments/AOT/AOT_stimuli/rescaled_final/0877_rv.mp4	0.0	660.9644432067871	
72	639.0371189117432	pulse	1	t		70.0	2.5	/experiments/AOT/AOT_stimuli/rescaled_final/0877_rv.mp4	0.0	662.562910079956	
72	639.155200958252	fix_post	2		12	70.0	2.5	/experiments/AOT/AOT_stimuli/rescaled_final/0877_rv.mp4	0.0	662.6809921264648	0.09988188743591309
73	639.2550828456879	fix_pre	0		120	71.0	2.5	/experiments/AOT/AOT_stimuli/rescaled_final/0458_fw.mp4	0.0	662.7808740139008	1.000089168548584
73	640.2551720142365	movie	1		246	71.0	2.5	/experiments/AOT/AOT_stimuli/rescaled_final/0458_fw.mp4	0.0	663.7809631824493	2.5000979900360107
73	640.6382248401642	pulse	1	t		71.0	2.5	/experiments/AOT/AOT_stimuli/rescaled_final/0458_fw.mp4	0.0	664.1640160083771	
73	642.2386708259583	pulse	1	t		71.0	2.5	/experiments/AOT/AOT_stimuli/rescaled_final/0458_fw.mp4	0.0	665.7644619941711	
73	642.7552700042725	fix_post	2		12	71.0	2.5	/experiments/AOT/AOT_stimuli/rescaled_final/0458_fw.mp4	0.0	666.2810611724854	0.09988999366760254
74	642.8551599979401	fix_pre	0		119	72.0	2.5	/experiments/AOT/AOT_stimuli/rescaled_final/1591_rv.mp4	0.0	666.380951166153	0.9916360378265381
74	643.8386290073395	pulse	0	t		72.0	2.5	/experiments/AOT/AOT_stimuli/rescaled_final/1591_rv.mp4	0.0	667.3644201755524	
74	643.8467960357666	movie	1		245	72.0	2.5	/experiments/AOT/AOT_stimuli/rescaled_final/1591_rv.mp4	0.0	667.3725872039795	2.508356809616089
74	645.4382719993591	pulse	1	t		72.0	2.5	/experiments/AOT/AOT_stimuli/rescaled_final/1591_rv.mp4	0.0	668.964063167572	
74	646.3551528453827	fix_post	2		12	72.0	2.5	/experiments/AOT/AOT_stimuli/rescaled_final/1591_rv.mp4	0.0	669.8809440135956	0.09993410110473633
75	646.4550869464874	fix_pre	0		120	73.0	2.5	/experiments/AOT/AOT_stimuli/rescaled_final/1412_rv.mp4	0.0	669.9808781147003	1.000040054321289
75	647.0386419296265	pulse	0	t		73.0	2.5	/experiments/AOT/AOT_stimuli/rescaled_final/1412_rv.mp4	0.0	670.5644330978394	
75	647.4551270008087	movie	1		243	73.0	2.5	/experiments/AOT/AOT_stimuli/rescaled_final/1412_rv.mp4	0.0	670.9809181690216	2.500006914138794
75	648.6386590003967	pulse	1	t		73.0	2.5	/experiments/AOT/AOT_stimuli/rescaled_final/1412_rv.mp4	0.0	672.1644501686096	
75	649.9551339149475	fix_post	2		12	73.0	2.5	/experiments/AOT/AOT_stimuli/rescaled_final/1412_rv.mp4	0.0	673.4809250831604	0.0999610424041748
76	650.0550949573517	fix_pre	0		120	74.0	2.5	/experiments/AOT/AOT_stimuli/rescaled_final/1771_rv.mp4	0.0	673.5808861255646	1.0000739097595215
76	650.2385938167572	pulse	0	t		74.0	2.5	/experiments/AOT/AOT_stimuli/rescaled_final/1771_rv.mp4	0.0	673.7643849849701	
76	651.0551688671112	movie	1		243	74.0	2.5	/experiments/AOT/AOT_stimuli/rescaled_final/1771_rv.mp4	0.0	674.5809600353241	2.4999170303344727
76	651.8386659622192	pulse	1	t		74.0	2.5	/experiments/AOT/AOT_stimuli/rescaled_final/1771_rv.mp4	0.0	675.3644571304321	
76	653.4373068809509	pulse	1	t		74.0	2.5	/experiments/AOT/AOT_stimuli/rescaled_final/1771_rv.mp4	0.0	676.9630980491638	
76	653.5550858974457	fix_post	2		12	74.0	2.5	/experiments/AOT/AOT_stimuli/rescaled_final/1771_rv.mp4	0.0	677.0808770656586	0.0999460220336914
77	653.6550319194794	fix_pre	0		120	75.0	2.5	/experiments/AOT/AOT_stimuli/rescaled_final/2166_fw.mp4	0.0	677.1808230876923	1.0000369548797607
77	654.6550688743591	movie	1		243	75.0	2.5	/experiments/AOT/AOT_stimuli/rescaled_final/2166_fw.mp4	0.0	678.180860042572	2.4995651245117188
77	655.038519859314	pulse	1	t		75.0	2.5	/experiments/AOT/AOT_stimuli/rescaled_final/2166_fw.mp4	0.0	678.5643110275269	
77	656.638585805893	pulse	1	t		75.0	2.5	/experiments/AOT/AOT_stimuli/rescaled_final/2166_fw.mp4	0.0	680.1643769741058	
77	657.1546339988708	fix_post	2		12	75.0	2.5	/experiments/AOT/AOT_stimuli/rescaled_final/2166_fw.mp4	0.0	680.6804251670837	0.1004018783569336
78	657.2550358772278	fix_pre	0		119	76.0	2.5	blank	1.0	680.7808270454407	0.9916269779205322
78	658.2385549545288	pulse	0	t		76.0	2.5	blank	1.0	681.7643461227417	
78	658.2466628551483	movie	1		301	76.0	2.5	blank	1.0	681.7724540233612	2.508458137512207
78	659.838595867157	pulse	1	t		76.0	2.5	blank	1.0	683.3643870353699	
78	660.7551209926605	fix_post	2		12	76.0	2.5	blank	1.0	684.2809121608734	0.09996485710144043
79	660.855085849762	fix_pre	0		120	77.0	2.5	/experiments/AOT/AOT_stimuli/rescaled_final/2000_rv.mp4	0.0	684.3808770179749	1.0001780986785889
79	661.4385619163513	pulse	0	t		77.0	2.5	/experiments/AOT/AOT_stimuli/rescaled_final/2000_rv.mp4	0.0	684.9643530845642	
79	661.8552639484406	movie	1		242	77.0	2.5	/experiments/AOT/AOT_stimuli/rescaled_final/2000_rv.mp4	0.0	685.3810551166534	2.4997129440307617
79	663.0385649204254	pulse	1	t		77.0	2.5	/experiments/AOT/AOT_stimuli/rescaled_final/2000_rv.mp4	0.0	686.5643560886383	
79	664.3549768924713	fix_post	2		12	77.0	2.5	/experiments/AOT/AOT_stimuli/rescaled_final/2000_rv.mp4	0.0	687.8807680606842	0.10007500648498535
80	664.4550518989563	fix_pre	0		120	78.0	2.5	/experiments/AOT/AOT_stimuli/rescaled_final/1406_fw.mp4	0.0	687.9808430671692	0.9999549388885498
80	664.6385579109192	pulse	0	t		78.0	2.5	/experiments/AOT/AOT_stimuli/rescaled_final/1406_fw.mp4	0.0	688.1643490791321	
80	665.4550068378448	movie	1		243	78.0	2.5	/experiments/AOT/AOT_stimuli/rescaled_final/1406_fw.mp4	0.0	688.9807980060577	2.500054121017456
80	666.238520860672	pulse	1	t		78.0	2.5	/experiments/AOT/AOT_stimuli/rescaled_final/1406_fw.mp4	0.0	689.7643120288849	
80	667.8371260166168	pulse	1	t		78.0	2.5	/experiments/AOT/AOT_stimuli/rescaled_final/1406_fw.mp4	0.0	691.3629171848297	
80	667.9550609588623	fix_post	2		12	78.0	2.5	/experiments/AOT/AOT_stimuli/rescaled_final/1406_fw.mp4	0.0	691.4808521270752	0.09999299049377441
81	668.0550539493561	fix_pre	0		120	79.0	2.5	/experiments/AOT/AOT_stimuli/rescaled_final/1222_fw.mp4	0.0	691.580845117569	0.9999210834503174
81	669.0549750328064	movie	1		244	79.0	2.5	/experiments/AOT/AOT_stimuli/rescaled_final/1222_fw.mp4	0.0	692.5807662010193	2.499567985534668
81	669.4380249977112	pulse	1	t		79.0	2.5	/experiments/AOT/AOT_stimuli/rescaled_final/1222_fw.mp4	0.0	692.9638161659241	
81	671.038712978363	pulse	1	t		79.0	2.5	/experiments/AOT/AOT_stimuli/rescaled_final/1222_fw.mp4	0.0	694.5645041465759	
81	671.5545430183411	fix_post	2		12	79.0	2.5	/experiments/AOT/AOT_stimuli/rescaled_final/1222_fw.mp4	0.0	695.080334186554	0.10002398490905762
82	671.6545670032501	fix_pre	0		119	80.0	2.5	/experiments/AOT/AOT_stimuli/rescaled_final/0277_rv.mp4	0.0	695.180358171463	0.9922490119934082
82	672.6380920410156	pulse	0	t		80.0	2.5	/experiments/AOT/AOT_stimuli/rescaled_final/0277_rv.mp4	0.0	696.1638832092285	
82	672.6468160152435	movie	1		246	80.0	2.5	/experiments/AOT/AOT_stimuli/rescaled_final/0277_rv.mp4	0.0	696.1726071834564	2.508098840713501
82	674.2378189563751	pulse	1	t		80.0	2.5	/experiments/AOT/AOT_stimuli/rescaled_final/0277_rv.mp4	0.0	697.763610124588	
82	675.154914855957	fix_post	2		12	80.0	2.5	/experiments/AOT/AOT_stimuli/rescaled_final/0277_rv.mp4	0.0	698.6807060241699	0.09998106956481934
83	675.2548959255219	fix_pre	0		120	81.0	2.5	/experiments/AOT/AOT_stimuli/rescaled_final/1210_fw.mp4	0.0	698.7806870937347	1.000133991241455
83	675.8385438919067	pulse	0	t		81.0	2.5	/experiments/AOT/AOT_stimuli/rescaled_final/1210_fw.mp4	0.0	699.3643350601196	
83	676.2550299167633	movie	1		243	81.0	2.5	/experiments/AOT/AOT_stimuli/rescaled_final/1210_fw.mp4	0.0	699.7808210849762	2.499955892562866
83	677.438441991806	pulse	1	t		81.0	2.5	/experiments/AOT/AOT_stimuli/rescaled_final/1210_fw.mp4	0.0	700.9642331600189	
83	678.7549858093262	fix_post	2		12	81.0	2.5	/experiments/AOT/AOT_stimuli/rescaled_final/1210_fw.mp4	0.0	702.2807769775391	0.09996914863586426
84	678.854954957962	fix_pre	0		120	82.0	2.5	blank	1.0	702.3807461261749	1.000032901763916
84	679.038498878479	pulse	0	t		82.0	2.5	blank	1.0	702.5642900466919	
84	679.854987859726	movie	1		300	82.0	2.5	blank	1.0	703.3807790279388	2.499994993209839
84	680.6382899284363	pulse	1	t		82.0	2.5	blank	1.0	704.1640810966492	
84	682.2384259700775	pulse	1	t		82.0	2.5	blank	1.0	705.7642171382904	
84	682.3549828529358	fix_post	2		12	82.0	2.5	blank	1.0	705.8807740211487	0.0999760627746582
85	682.4549589157104	fix_pre	0		120	83.0	2.5	/experiments/AOT/AOT_stimuli/rescaled_final/2156_rv.mp4	0.0	705.9807500839233	1.0000219345092773
85	683.4549808502197	movie	1		243	83.0	2.5	/experiments/AOT/AOT_stimuli/rescaled_final/2156_rv.mp4	0.0	706.9807720184326	2.499965190887451
85	683.8378388881683	pulse	1	t		83.0	2.5	/experiments/AOT/AOT_stimuli/rescaled_final/2156_rv.mp4	0.0	707.3636300563812	
85	685.4383280277252	pulse	1	t		83.0	2.5	/experiments/AOT/AOT_stimuli/rescaled_final/2156_rv.mp4	0.0	708.9641191959381	
85	685.9549460411072	fix_post	2		12	83.0	2.5	/experiments/AOT/AOT_stimuli/rescaled_final/2156_rv.mp4	0.0	709.4807372093201	0.10002779960632324
87	686.0549738407135	stim	0		1716					709.5807650089264	14.299918174743652
87	687.0384049415588	pulse	0	t						710.5641961097717	
87	688.6384139060974	pulse	0	t						712.1642050743103	
87	690.2383399009705	pulse	0	t						713.7641310691833	
87	691.8383388519287	pulse	0	t						715.3641300201416	
87	693.4383609294891	pulse	0	t						716.964152097702	
87	695.038272857666	pulse	0	t						718.5640640258789	
87	696.6382839679718	pulse	0	t						720.1640751361847	
87	698.2382919788361	pulse	0	t						721.764083147049	
87	699.8383040428162	pulse	0	t						723.364095211029	
