trial_nr	onset	event_type	phase	response	nr_frames	movie_index	movie_duration	movie_file	blank	onset_abs	duration
0	0.13285493850708008	stim	0		34					39.68034887313843	0.2838451862335205
0	0.4086461067199707	response	0	space						39.95614004135132	
1	0.4167001247406006	stim	0		4775					39.96419405937195	39.791321992874146
1	40.20018196105957	pulse	0	t						79.74767589569092	
1	40.208022117614746	stim	1		1717					79.7555160522461	14.308380842208862
1	41.80003309249878	pulse	1	t						81.34752702713013	
1	43.3998920917511	pulse	1	t						82.94738602638245	
1	44.9998459815979	pulse	1	t						84.54733991622925	
1	46.59983801841736	pulse	1	t						86.1473319530487	
1	48.19986891746521	pulse	1	t						87.74736285209656	
1	49.79982805252075	pulse	1	t						89.3473219871521	
1	51.399861097335815	pulse	1	t						90.94735503196716	
1	52.99978804588318	pulse	1	t						92.54728198051453	
2	54.51640295982361	fix_pre	0		11	0.0	2.5	/experiments/AOT/AOT_stimuli/rescaled_final/1959_fw.mp4	0.0	94.06389689445496	0.09165215492248535
2	54.59985709190369	pulse	0	t		0.0	2.5	/experiments/AOT/AOT_stimuli/rescaled_final/1959_fw.mp4	0.0	94.14735102653503	
2	54.608055114746094	movie	1		242	0.0	2.5	/experiments/AOT/AOT_stimuli/rescaled_final/1959_fw.mp4	0.0	94.15554904937744	2.507840871810913
2	56.199405908584595	pulse	1	t		0.0	2.5	/experiments/AOT/AOT_stimuli/rescaled_final/1959_fw.mp4	0.0	95.74689984321594	
2	57.11589598655701	fix_post	2		12	0.0	2.5	/experiments/AOT/AOT_stimuli/rescaled_final/1959_fw.mp4	0.0	96.66338992118835	0.10046696662902832
3	57.216362953186035	fix_pre	0		120	1.0	2.5	/experiments/AOT/AOT_stimuli/rescaled_final/1183_rv.mp4	0.0	96.76385688781738	0.9999921321868896
3	57.799838066101074	pulse	0	t		1.0	2.5	/experiments/AOT/AOT_stimuli/rescaled_final/1183_rv.mp4	0.0	97.34733200073242	
3	58.216355085372925	movie	1		247	1.0	2.5	/experiments/AOT/AOT_stimuli/rescaled_final/1183_rv.mp4	0.0	97.76384902000427	2.499910831451416
3	59.399877071380615	pulse	1	t		1.0	2.5	/experiments/AOT/AOT_stimuli/rescaled_final/1183_rv.mp4	0.0	98.94737100601196	
3	60.71626591682434	fix_post	2		12	1.0	2.5	/experiments/AOT/AOT_stimuli/rescaled_final/1183_rv.mp4	0.0	100.26375985145569	0.09998416900634766
4	60.81625008583069	fix_pre	0		120	2.0	2.5	/experiments/AOT/AOT_stimuli/rescaled_final/1595_fw.mp4	0.0	100.36374402046204	0.9996178150177002
4	60.999825954437256	pulse	0	t		2.0	2.5	/experiments/AOT/AOT_stimuli/rescaled_final/1595_fw.mp4	0.0	100.5473198890686	
4	61.81586790084839	movie	1		245	2.0	2.5	/experiments/AOT/AOT_stimuli/rescaled_final/1595_fw.mp4	0.0	101.36336183547974	2.499994993209839
4	62.59994411468506	pulse	1	t		2.0	2.5	/experiments/AOT/AOT_stimuli/rescaled_final/1595_fw.mp4	0.0	102.1474380493164	
4	64.19810891151428	pulse	1	t		2.0	2.5	/experiments/AOT/AOT_stimuli/rescaled_final/1595_fw.mp4	0.0	103.74560284614563	
4	64.31586289405823	fix_post	2		12	2.0	2.5	/experiments/AOT/AOT_stimuli/rescaled_final/1595_fw.mp4	0.0	103.86335682868958	0.09998106956481934
5	64.41584396362305	fix_pre	0		120	3.0	2.5	/experiments/AOT/AOT_stimuli/rescaled_final/0687_rv.mp4	0.0	103.9633378982544	1.0004661083221436
5	65.41631007194519	movie	1		244	3.0	2.5	/experiments/AOT/AOT_stimuli/rescaled_final/0687_rv.mp4	0.0	104.96380400657654	2.4999189376831055
5	65.80088901519775	pulse	1	t		3.0	2.5	/experiments/AOT/AOT_stimuli/rescaled_final/0687_rv.mp4	0.0	105.3483829498291	
5	67.39976596832275	pulse	1	t		3.0	2.5	/experiments/AOT/AOT_stimuli/rescaled_final/0687_rv.mp4	0.0	106.9472599029541	
5	67.9162290096283	fix_post	2		12	3.0	2.5	/experiments/AOT/AOT_stimuli/rescaled_final/0687_rv.mp4	0.0	107.46372294425964	0.10004997253417969
6	68.01627898216248	fix_pre	0		119	4.0	2.5	/experiments/AOT/AOT_stimuli/rescaled_final/1378_fw.mp4	0.0	107.56377291679382	0.9915831089019775
6	68.99976396560669	pulse	0	t		4.0	2.5	/experiments/AOT/AOT_stimuli/rescaled_final/1378_fw.mp4	0.0	108.54725790023804	
6	69.00786209106445	movie	1		246	4.0	2.5	/experiments/AOT/AOT_stimuli/rescaled_final/1378_fw.mp4	0.0	108.5553560256958	2.508430004119873
6	70.6008849143982	pulse	1	t		4.0	2.5	/experiments/AOT/AOT_stimuli/rescaled_final/1378_fw.mp4	0.0	110.14837884902954	
6	71.51629209518433	fix_post	2		12	4.0	2.5	/experiments/AOT/AOT_stimuli/rescaled_final/1378_fw.mp4	0.0	111.06378602981567	0.09956979751586914
7	71.6158618927002	fix_pre	0		120	5.0	2.5	blank	1.0	111.16335582733154	1.000385046005249
7	72.19990110397339	pulse	0	t		5.0	2.5	blank	1.0	111.74739503860474	
7	72.61624693870544	movie	1		300	5.0	2.5	blank	1.0	112.16374087333679	2.500108003616333
7	73.79933404922485	pulse	1	t		5.0	2.5	blank	1.0	113.3468279838562	
7	75.11635494232178	fix_post	2		12	5.0	2.5	blank	1.0	114.66384887695312	0.09969902038574219
8	75.21605396270752	fix_pre	0		120	6.0	2.5	/experiments/AOT/AOT_stimuli/rescaled_final/0365_rv.mp4	0.0	114.76354789733887	1.0004730224609375
8	75.3995931148529	pulse	0	t		6.0	2.5	/experiments/AOT/AOT_stimuli/rescaled_final/0365_rv.mp4	0.0	114.94708704948425	
8	76.21652698516846	movie	1		247	6.0	2.5	/experiments/AOT/AOT_stimuli/rescaled_final/0365_rv.mp4	0.0	115.7640209197998	2.499285936355591
8	76.99977993965149	pulse	1	t		6.0	2.5	/experiments/AOT/AOT_stimuli/rescaled_final/0365_rv.mp4	0.0	116.54727387428284	
8	78.59570097923279	pulse	1	t		6.0	2.5	/experiments/AOT/AOT_stimuli/rescaled_final/0365_rv.mp4	0.0	118.14319491386414	
8	78.71581292152405	fix_post	2		12	6.0	2.5	/experiments/AOT/AOT_stimuli/rescaled_final/0365_rv.mp4	0.0	118.2633068561554	0.10039901733398438
9	78.81621193885803	fix_pre	0		120	7.0	2.5	/experiments/AOT/AOT_stimuli/rescaled_final/0673_fw.mp4	0.0	118.36370587348938	1.0000181198120117
9	79.81623005867004	movie	1		245	7.0	2.5	/experiments/AOT/AOT_stimuli/rescaled_final/0673_fw.mp4	0.0	119.36372399330139	2.49993896484375
9	80.20072412490845	pulse	1	t		7.0	2.5	/experiments/AOT/AOT_stimuli/rescaled_final/0673_fw.mp4	0.0	119.7482180595398	
9	81.7997739315033	pulse	1	t		7.0	2.5	/experiments/AOT/AOT_stimuli/rescaled_final/0673_fw.mp4	0.0	121.34726786613464	
9	82.3161690235138	fix_post	2		12	7.0	2.5	/experiments/AOT/AOT_stimuli/rescaled_final/0673_fw.mp4	0.0	121.86366295814514	0.09996891021728516
10	82.41613793373108	fix_pre	0		119	8.0	2.5	/experiments/AOT/AOT_stimuli/rescaled_final/1153_fw.mp4	0.0	121.96363186836243	0.9917380809783936
10	83.39970302581787	pulse	0	t		8.0	2.5	/experiments/AOT/AOT_stimuli/rescaled_final/1153_fw.mp4	0.0	122.94719696044922	
10	83.40787601470947	movie	1		246	8.0	2.5	/experiments/AOT/AOT_stimuli/rescaled_final/1153_fw.mp4	0.0	122.95536994934082	2.5081989765167236
10	84.99925398826599	pulse	1	t		8.0	2.5	/experiments/AOT/AOT_stimuli/rescaled_final/1153_fw.mp4	0.0	124.54674792289734	
10	85.9160749912262	fix_post	2		12	8.0	2.5	/experiments/AOT/AOT_stimuli/rescaled_final/1153_fw.mp4	0.0	125.46356892585754	0.10010290145874023
11	86.01617789268494	fix_pre	0		120	9.0	2.5	/experiments/AOT/AOT_stimuli/rescaled_final/0571_rv.mp4	0.0	125.56367182731628	1.000089168548584
11	86.59986591339111	pulse	0	t		9.0	2.5	/experiments/AOT/AOT_stimuli/rescaled_final/0571_rv.mp4	0.0	126.14735984802246	
11	87.01626706123352	movie	1		244	9.0	2.5	/experiments/AOT/AOT_stimuli/rescaled_final/0571_rv.mp4	0.0	126.56376099586487	2.4998679161071777
11	88.19980001449585	pulse	1	t		9.0	2.5	/experiments/AOT/AOT_stimuli/rescaled_final/0571_rv.mp4	0.0	127.7472939491272	
11	89.5161349773407	fix_post	2		12	9.0	2.5	/experiments/AOT/AOT_stimuli/rescaled_final/0571_rv.mp4	0.0	129.06362891197205	0.09999895095825195
12	89.61613392829895	fix_pre	0		120	10.0	2.5	/experiments/AOT/AOT_stimuli/rescaled_final/0648_fw.mp4	0.0	129.1636278629303	0.9995450973510742
12	89.79973912239075	pulse	0	t		10.0	2.5	/experiments/AOT/AOT_stimuli/rescaled_final/0648_fw.mp4	0.0	129.3472330570221	
12	90.61567902565002	movie	1		244	10.0	2.5	/experiments/AOT/AOT_stimuli/rescaled_final/0648_fw.mp4	0.0	130.16317296028137	2.500062942504883
12	91.39969396591187	pulse	1	t		10.0	2.5	/experiments/AOT/AOT_stimuli/rescaled_final/0648_fw.mp4	0.0	130.9471879005432	
12	92.99836897850037	pulse	1	t		10.0	2.5	/experiments/AOT/AOT_stimuli/rescaled_final/0648_fw.mp4	0.0	132.5458629131317	
12	93.11574196815491	fix_post	2		12	10.0	2.5	/experiments/AOT/AOT_stimuli/rescaled_final/0648_fw.mp4	0.0	132.66323590278625	0.10037899017333984
13	93.21612095832825	fix_pre	0		120	11.0	2.5	/experiments/AOT/AOT_stimuli/rescaled_final/1982_rv.mp4	0.0	132.7636148929596	0.9999699592590332
13	94.21609091758728	movie	1		244	11.0	2.5	/experiments/AOT/AOT_stimuli/rescaled_final/1982_rv.mp4	0.0	133.76358485221863	2.5000619888305664
13	94.5990719795227	pulse	1	t		11.0	2.5	/experiments/AOT/AOT_stimuli/rescaled_final/1982_rv.mp4	0.0	134.14656591415405	
13	96.19963097572327	pulse	1	t		11.0	2.5	/experiments/AOT/AOT_stimuli/rescaled_final/1982_rv.mp4	0.0	135.74712491035461	
13	96.71615290641785	fix_post	2		12	11.0	2.5	/experiments/AOT/AOT_stimuli/rescaled_final/1982_rv.mp4	0.0	136.2636468410492	0.09996414184570312
14	96.81611704826355	fix_pre	0		119	12.0	2.5	/experiments/AOT/AOT_stimuli/rescaled_final/0365_fw.mp4	0.0	136.3636109828949	0.991724967956543
14	97.7997260093689	pulse	0	t		12.0	2.5	/experiments/AOT/AOT_stimuli/rescaled_final/0365_fw.mp4	0.0	137.34721994400024	
14	97.80784201622009	movie	1		246	12.0	2.5	/experiments/AOT/AOT_stimuli/rescaled_final/0365_fw.mp4	0.0	137.35533595085144	2.5082199573516846
14	99.3991289138794	pulse	1	t		12.0	2.5	/experiments/AOT/AOT_stimuli/rescaled_final/0365_fw.mp4	0.0	138.94662284851074	
14	100.31606197357178	fix_post	2		12	12.0	2.5	/experiments/AOT/AOT_stimuli/rescaled_final/0365_fw.mp4	0.0	139.86355590820312	0.10001802444458008
15	100.41607999801636	fix_pre	0		120	13.0	2.5	blank	1.0	139.9635739326477	1.0000739097595215
15	100.999666929245	pulse	0	t		13.0	2.5	blank	1.0	140.54716086387634	
15	101.41615390777588	movie	1		300	13.0	2.5	blank	1.0	140.96364784240723	2.4995031356811523
15	102.59956502914429	pulse	1	t		13.0	2.5	blank	1.0	142.14705896377563	
15	103.91565704345703	fix_post	2		12	13.0	2.5	blank	1.0	143.46315097808838	0.1004018783569336
16	104.01605892181396	fix_pre	0		120	14.0	2.5	/experiments/AOT/AOT_stimuli/rescaled_final/1294_rv.mp4	0.0	143.5635528564453	0.9999899864196777
16	104.1996169090271	pulse	0	t		14.0	2.5	/experiments/AOT/AOT_stimuli/rescaled_final/1294_rv.mp4	0.0	143.74711084365845	
16	105.01604890823364	movie	1		243	14.0	2.5	/experiments/AOT/AOT_stimuli/rescaled_final/1294_rv.mp4	0.0	144.563542842865	2.499948024749756
16	105.79961800575256	pulse	1	t		14.0	2.5	/experiments/AOT/AOT_stimuli/rescaled_final/1294_rv.mp4	0.0	145.3471119403839	
16	107.39803099632263	pulse	1	t		14.0	2.5	/experiments/AOT/AOT_stimuli/rescaled_final/1294_rv.mp4	0.0	146.94552493095398	
16	107.5159969329834	fix_post	2		12	14.0	2.5	/experiments/AOT/AOT_stimuli/rescaled_final/1294_rv.mp4	0.0	147.06349086761475	0.1000220775604248
17	107.61601901054382	fix_pre	0		120	15.0	2.5	/experiments/AOT/AOT_stimuli/rescaled_final/0586_fw.mp4	0.0	147.16351294517517	1.0000131130218506
17	108.61603212356567	movie	1		241	15.0	2.5	/experiments/AOT/AOT_stimuli/rescaled_final/0586_fw.mp4	0.0	148.16352605819702	2.500478982925415
17	108.99919700622559	pulse	1	t		15.0	2.5	/experiments/AOT/AOT_stimuli/rescaled_final/0586_fw.mp4	0.0	148.54669094085693	
17	110.59953808784485	pulse	1	t		15.0	2.5	/experiments/AOT/AOT_stimuli/rescaled_final/0586_fw.mp4	0.0	150.1470320224762	
17	111.11651110649109	fix_post	2		12	15.0	2.5	/experiments/AOT/AOT_stimuli/rescaled_final/0586_fw.mp4	0.0	150.66400504112244	0.09951591491699219
18	111.21602702140808	fix_pre	0		119	16.0	2.5	/experiments/AOT/AOT_stimuli/rescaled_final/1942_rv.mp4	0.0	150.76352095603943	0.9918019771575928
18	112.19968795776367	pulse	0	t		16.0	2.5	/experiments/AOT/AOT_stimuli/rescaled_final/1942_rv.mp4	0.0	151.74718189239502	
18	112.20782899856567	movie	1		243	16.0	2.5	/experiments/AOT/AOT_stimuli/rescaled_final/1942_rv.mp4	0.0	151.75532293319702	2.508162021636963
18	113.79919099807739	pulse	1	t		16.0	2.5	/experiments/AOT/AOT_stimuli/rescaled_final/1942_rv.mp4	0.0	153.34668493270874	
18	114.71599102020264	fix_post	2		12	16.0	2.5	/experiments/AOT/AOT_stimuli/rescaled_final/1942_rv.mp4	0.0	154.26348495483398	0.10001897811889648
19	114.81600999832153	fix_pre	0		120	17.0	2.5	/experiments/AOT/AOT_stimuli/rescaled_final/1009_fw.mp4	0.0	154.36350393295288	1.000020980834961
19	115.3994779586792	pulse	0	t		17.0	2.5	/experiments/AOT/AOT_stimuli/rescaled_final/1009_fw.mp4	0.0	154.94697189331055	
19	115.8160309791565	movie	1		243	17.0	2.5	/experiments/AOT/AOT_stimuli/rescaled_final/1009_fw.mp4	0.0	155.36352491378784	2.499972105026245
19	116.99960398674011	pulse	1	t		17.0	2.5	/experiments/AOT/AOT_stimuli/rescaled_final/1009_fw.mp4	0.0	156.54709792137146	
19	118.31600308418274	fix_post	2		12	17.0	2.5	/experiments/AOT/AOT_stimuli/rescaled_final/1009_fw.mp4	0.0	157.8634970188141	0.1000819206237793
20	118.41608500480652	fix_pre	0		120	18.0	2.5	/experiments/AOT/AOT_stimuli/rescaled_final/1812_fw.mp4	0.0	157.96357893943787	0.9999880790710449
20	118.59953904151917	pulse	0	t		18.0	2.5	/experiments/AOT/AOT_stimuli/rescaled_final/1812_fw.mp4	0.0	158.1470329761505	
20	119.41607308387756	movie	1		244	18.0	2.5	/experiments/AOT/AOT_stimuli/rescaled_final/1812_fw.mp4	0.0	158.9635670185089	2.4998879432678223
20	120.19949698448181	pulse	1	t		18.0	2.5	/experiments/AOT/AOT_stimuli/rescaled_final/1812_fw.mp4	0.0	159.74699091911316	
20	121.79833698272705	pulse	1	t		18.0	2.5	/experiments/AOT/AOT_stimuli/rescaled_final/1812_fw.mp4	0.0	161.3458309173584	
20	121.91596102714539	fix_post	2		12	18.0	2.5	/experiments/AOT/AOT_stimuli/rescaled_final/1812_fw.mp4	0.0	161.46345496177673	0.10008907318115234
21	122.01605010032654	fix_pre	0		120	19.0	2.5	/experiments/AOT/AOT_stimuli/rescaled_final/0593_fw.mp4	0.0	161.56354403495789	0.999910831451416
21	123.01596093177795	movie	1		243	19.0	2.5	/experiments/AOT/AOT_stimuli/rescaled_final/0593_fw.mp4	0.0	162.5634548664093	2.5000710487365723
21	123.40083909034729	pulse	1	t		19.0	2.5	/experiments/AOT/AOT_stimuli/rescaled_final/0593_fw.mp4	0.0	162.94833302497864	
21	124.99951410293579	pulse	1	t		19.0	2.5	/experiments/AOT/AOT_stimuli/rescaled_final/0593_fw.mp4	0.0	164.54700803756714	
21	125.51603198051453	fix_post	2		12	19.0	2.5	/experiments/AOT/AOT_stimuli/rescaled_final/0593_fw.mp4	0.0	165.06352591514587	0.10002708435058594
22	125.61605906486511	fix_pre	0		119	20.0	2.5	blank	1.0	165.16355299949646	0.9915850162506104
22	126.599524974823	pulse	0	t		20.0	2.5	blank	1.0	166.14701890945435	
22	126.60764408111572	movie	1		301	20.0	2.5	blank	1.0	166.15513801574707	2.508327007293701
22	128.19949793815613	pulse	1	t		20.0	2.5	blank	1.0	167.74699187278748	
22	129.11597108840942	fix_post	2		12	20.0	2.5	blank	1.0	168.66346502304077	0.0996389389038086
23	129.21561002731323	fix_pre	0		120	21.0	2.5	/experiments/AOT/AOT_stimuli/rescaled_final/1714_fw.mp4	0.0	168.76310396194458	1.0000128746032715
23	129.7991271018982	pulse	0	t		21.0	2.5	/experiments/AOT/AOT_stimuli/rescaled_final/1714_fw.mp4	0.0	169.34662103652954	
23	130.2156229019165	movie	1		243	21.0	2.5	/experiments/AOT/AOT_stimuli/rescaled_final/1714_fw.mp4	0.0	169.76311683654785	2.5003662109375
23	131.3992760181427	pulse	1	t		21.0	2.5	/experiments/AOT/AOT_stimuli/rescaled_final/1714_fw.mp4	0.0	170.94676995277405	
23	132.715989112854	fix_post	2		12	21.0	2.5	/experiments/AOT/AOT_stimuli/rescaled_final/1714_fw.mp4	0.0	172.26348304748535	0.09996390342712402
24	132.81595301628113	fix_pre	0		120	22.0	2.5	/experiments/AOT/AOT_stimuli/rescaled_final/0038_fw.mp4	0.0	172.36344695091248	1.000046968460083
24	132.99948692321777	pulse	0	t		22.0	2.5	/experiments/AOT/AOT_stimuli/rescaled_final/0038_fw.mp4	0.0	172.54698085784912	
24	133.8159999847412	movie	1		244	22.0	2.5	/experiments/AOT/AOT_stimuli/rescaled_final/0038_fw.mp4	0.0	173.36349391937256	2.4999051094055176
24	134.59940099716187	pulse	1	t		22.0	2.5	/experiments/AOT/AOT_stimuli/rescaled_final/0038_fw.mp4	0.0	174.1468949317932	
24	136.19843411445618	pulse	1	t		22.0	2.5	/experiments/AOT/AOT_stimuli/rescaled_final/0038_fw.mp4	0.0	175.74592804908752	
24	136.31590509414673	fix_post	2		12	22.0	2.5	/experiments/AOT/AOT_stimuli/rescaled_final/0038_fw.mp4	0.0	175.86339902877808	0.10002303123474121
25	136.41592812538147	fix_pre	0		120	23.0	2.5	/experiments/AOT/AOT_stimuli/rescaled_final/0733_rv.mp4	0.0	175.96342206001282	0.9999909400939941
25	137.41591906547546	movie	1		245	23.0	2.5	/experiments/AOT/AOT_stimuli/rescaled_final/0733_rv.mp4	0.0	176.9634130001068	2.4996399879455566
25	137.79922103881836	pulse	1	t		23.0	2.5	/experiments/AOT/AOT_stimuli/rescaled_final/0733_rv.mp4	0.0	177.3467149734497	
25	139.39935493469238	pulse	1	t		23.0	2.5	/experiments/AOT/AOT_stimuli/rescaled_final/0733_rv.mp4	0.0	178.94684886932373	
25	139.91555905342102	fix_post	2		12	23.0	2.5	/experiments/AOT/AOT_stimuli/rescaled_final/0733_rv.mp4	0.0	179.46305298805237	0.1003880500793457
26	140.01594710350037	fix_pre	0		119	24.0	2.5	/experiments/AOT/AOT_stimuli/rescaled_final/0671_fw.mp4	0.0	179.5634410381317	0.991635799407959
26	140.99944496154785	pulse	0	t		24.0	2.5	/experiments/AOT/AOT_stimuli/rescaled_final/0671_fw.mp4	0.0	180.5469388961792	
26	141.00758290290833	movie	1		245	24.0	2.5	/experiments/AOT/AOT_stimuli/rescaled_final/0671_fw.mp4	0.0	180.55507683753967	2.5083141326904297
26	142.59895300865173	pulse	1	t		24.0	2.5	/experiments/AOT/AOT_stimuli/rescaled_final/0671_fw.mp4	0.0	182.14644694328308	
26	143.51589703559875	fix_post	2		12	24.0	2.5	/experiments/AOT/AOT_stimuli/rescaled_final/0671_fw.mp4	0.0	183.0633909702301	0.0999898910522461
27	143.615886926651	fix_pre	0		120	25.0	2.5	/experiments/AOT/AOT_stimuli/rescaled_final/1651_rv.mp4	0.0	183.16338086128235	0.999981164932251
27	144.19952511787415	pulse	0	t		25.0	2.5	/experiments/AOT/AOT_stimuli/rescaled_final/1651_rv.mp4	0.0	183.7470190525055	
27	144.61586809158325	movie	1		244	25.0	2.5	/experiments/AOT/AOT_stimuli/rescaled_final/1651_rv.mp4	0.0	184.1633620262146	2.49996280670166
27	145.79944801330566	pulse	1	t		25.0	2.5	/experiments/AOT/AOT_stimuli/rescaled_final/1651_rv.mp4	0.0	185.346941947937	
27	147.1158308982849	fix_post	2		12	25.0	2.5	/experiments/AOT/AOT_stimuli/rescaled_final/1651_rv.mp4	0.0	186.66332483291626	0.09967207908630371
28	147.21550297737122	fix_pre	0		120	26.0	2.5	/experiments/AOT/AOT_stimuli/rescaled_final/1595_rv.mp4	0.0	186.76299691200256	1.0002989768981934
28	147.39943599700928	pulse	0	t		26.0	2.5	/experiments/AOT/AOT_stimuli/rescaled_final/1595_rv.mp4	0.0	186.94692993164062	
28	148.2158019542694	movie	1		246	26.0	2.5	/experiments/AOT/AOT_stimuli/rescaled_final/1595_rv.mp4	0.0	187.76329588890076	2.499640941619873
28	148.9994249343872	pulse	1	t		26.0	2.5	/experiments/AOT/AOT_stimuli/rescaled_final/1595_rv.mp4	0.0	188.54691886901855	
28	150.5980999469757	pulse	1	t		26.0	2.5	/experiments/AOT/AOT_stimuli/rescaled_final/1595_rv.mp4	0.0	190.14559388160706	
28	150.71544289588928	fix_post	2		12	26.0	2.5	/experiments/AOT/AOT_stimuli/rescaled_final/1595_rv.mp4	0.0	190.26293683052063	0.10043120384216309
29	150.81587409973145	fix_pre	0		120	27.0	2.5	/experiments/AOT/AOT_stimuli/rescaled_final/0774_rv.mp4	0.0	190.3633680343628	0.999924898147583
29	151.81579899787903	movie	1		245	27.0	2.5	/experiments/AOT/AOT_stimuli/rescaled_final/0774_rv.mp4	0.0	191.36329293251038	2.500025987625122
29	152.19949102401733	pulse	1	t		27.0	2.5	/experiments/AOT/AOT_stimuli/rescaled_final/0774_rv.mp4	0.0	191.74698495864868	
29	153.79940509796143	pulse	1	t		27.0	2.5	/experiments/AOT/AOT_stimuli/rescaled_final/0774_rv.mp4	0.0	193.34689903259277	
29	154.31582498550415	fix_post	2		12	27.0	2.5	/experiments/AOT/AOT_stimuli/rescaled_final/0774_rv.mp4	0.0	193.8633189201355	0.09996509552001953
30	154.41579008102417	fix_pre	0		119	28.0	2.5	blank	1.0	193.96328401565552	0.9917478561401367
30	155.39933109283447	pulse	0	t		28.0	2.5	blank	1.0	194.94682502746582	
30	155.4075379371643	movie	1		301	28.0	2.5	blank	1.0	194.95503187179565	2.5083110332489014
30	156.99936890602112	pulse	1	t		28.0	2.5	blank	1.0	196.54686284065247	
30	157.9158489704132	fix_post	2		12	28.0	2.5	blank	1.0	197.46334290504456	0.10003900527954102
31	158.01588797569275	fix_pre	0		120	29.0	2.5	/experiments/AOT/AOT_stimuli/rescaled_final/0961_rv.mp4	0.0	197.5633819103241	0.9999489784240723
31	158.5993950366974	pulse	0	t		29.0	2.5	/experiments/AOT/AOT_stimuli/rescaled_final/0961_rv.mp4	0.0	198.14688897132874	
31	159.01583695411682	movie	1		243	29.0	2.5	/experiments/AOT/AOT_stimuli/rescaled_final/0961_rv.mp4	0.0	198.56333088874817	2.499932050704956
31	160.19945693016052	pulse	1	t		29.0	2.5	/experiments/AOT/AOT_stimuli/rescaled_final/0961_rv.mp4	0.0	199.74695086479187	
31	161.51576900482178	fix_post	2		12	29.0	2.5	/experiments/AOT/AOT_stimuli/rescaled_final/0961_rv.mp4	0.0	201.06326293945312	0.10003900527954102
32	161.61580801010132	fix_pre	0		120	30.0	2.5	/experiments/AOT/AOT_stimuli/rescaled_final/1175_rv.mp4	0.0	201.16330194473267	0.999582052230835
32	161.79932403564453	pulse	0	t		30.0	2.5	/experiments/AOT/AOT_stimuli/rescaled_final/1175_rv.mp4	0.0	201.34681797027588	
32	162.61539006233215	movie	1		244	30.0	2.5	/experiments/AOT/AOT_stimuli/rescaled_final/1175_rv.mp4	0.0	202.1628839969635	2.5003490447998047
32	163.39930295944214	pulse	1	t		30.0	2.5	/experiments/AOT/AOT_stimuli/rescaled_final/1175_rv.mp4	0.0	202.9467968940735	
32	164.99840307235718	pulse	1	t		30.0	2.5	/experiments/AOT/AOT_stimuli/rescaled_final/1175_rv.mp4	0.0	204.54589700698853	
32	165.11573910713196	fix_post	2		12	30.0	2.5	/experiments/AOT/AOT_stimuli/rescaled_final/1175_rv.mp4	0.0	204.6632330417633	0.10005593299865723
33	165.21579504013062	fix_pre	0		120	31.0	2.5	/experiments/AOT/AOT_stimuli/rescaled_final/2162_rv.mp4	0.0	204.76328897476196	1.0000290870666504
33	166.21582412719727	movie	1		245	31.0	2.5	/experiments/AOT/AOT_stimuli/rescaled_final/2162_rv.mp4	0.0	205.7633180618286	2.4999678134918213
33	166.59889101982117	pulse	1	t		31.0	2.5	/experiments/AOT/AOT_stimuli/rescaled_final/2162_rv.mp4	0.0	206.14638495445251	
33	168.19925594329834	pulse	1	t		31.0	2.5	/experiments/AOT/AOT_stimuli/rescaled_final/2162_rv.mp4	0.0	207.7467498779297	
33	168.7157919406891	fix_post	2		12	31.0	2.5	/experiments/AOT/AOT_stimuli/rescaled_final/2162_rv.mp4	0.0	208.26328587532043	0.09995412826538086
34	168.81574606895447	fix_pre	0		119	32.0	2.5	/experiments/AOT/AOT_stimuli/rescaled_final/1953_rv.mp4	0.0	208.36324000358582	0.9916918277740479
34	169.79930305480957	pulse	0	t		32.0	2.5	/experiments/AOT/AOT_stimuli/rescaled_final/1953_rv.mp4	0.0	209.34679698944092	
34	169.80743789672852	movie	1		246	32.0	2.5	/experiments/AOT/AOT_stimuli/rescaled_final/1953_rv.mp4	0.0	209.35493183135986	2.508355140686035
34	171.39898109436035	pulse	1	t		32.0	2.5	/experiments/AOT/AOT_stimuli/rescaled_final/1953_rv.mp4	0.0	210.9464750289917	
34	172.31579303741455	fix_post	2		12	32.0	2.5	/experiments/AOT/AOT_stimuli/rescaled_final/1953_rv.mp4	0.0	211.8632869720459	0.0999288558959961
35	172.41572189331055	fix_pre	0		120	33.0	2.5	/experiments/AOT/AOT_stimuli/rescaled_final/1139_rv.mp4	0.0	211.9632158279419	0.9996380805969238
35	172.99929094314575	pulse	0	t		33.0	2.5	/experiments/AOT/AOT_stimuli/rescaled_final/1139_rv.mp4	0.0	212.5467848777771	
35	173.41535997390747	movie	1		245	33.0	2.5	/experiments/AOT/AOT_stimuli/rescaled_final/1139_rv.mp4	0.0	212.96285390853882	2.5003950595855713
35	174.59934401512146	pulse	1	t		33.0	2.5	/experiments/AOT/AOT_stimuli/rescaled_final/1139_rv.mp4	0.0	214.1468379497528	
35	175.91575503349304	fix_post	2		12	33.0	2.5	/experiments/AOT/AOT_stimuli/rescaled_final/1139_rv.mp4	0.0	215.4632489681244	0.09966087341308594
36	176.01541590690613	fix_pre	0		120	34.0	2.5	blank	1.0	215.56290984153748	1.000258207321167
36	176.19918394088745	pulse	0	t		34.0	2.5	blank	1.0	215.7466778755188	
36	177.0156741142273	movie	1		300	34.0	2.5	blank	1.0	216.56316804885864	2.500105857849121
36	177.7993221282959	pulse	1	t		34.0	2.5	blank	1.0	217.34681606292725	
36	179.39916396141052	pulse	1	t		34.0	2.5	blank	1.0	218.94665789604187	
36	179.51577997207642	fix_post	2		12	34.0	2.5	blank	1.0	219.06327390670776	0.09992098808288574
37	179.6157009601593	fix_pre	0		120	35.0	2.5	/experiments/AOT/AOT_stimuli/rescaled_final/1264_rv.mp4	0.0	219.16319489479065	0.9999871253967285
37	180.61568808555603	movie	1		243	35.0	2.5	/experiments/AOT/AOT_stimuli/rescaled_final/1264_rv.mp4	0.0	220.16318202018738	2.50003981590271
37	180.999361038208	pulse	1	t		35.0	2.5	/experiments/AOT/AOT_stimuli/rescaled_final/1264_rv.mp4	0.0	220.54685497283936	
37	182.59924793243408	pulse	1	t		35.0	2.5	/experiments/AOT/AOT_stimuli/rescaled_final/1264_rv.mp4	0.0	222.14674186706543	
37	183.11572790145874	fix_post	2		12	35.0	2.5	/experiments/AOT/AOT_stimuli/rescaled_final/1264_rv.mp4	0.0	222.6632218360901	0.10001802444458008
38	183.21574592590332	fix_pre	0		119	36.0	2.5	/experiments/AOT/AOT_stimuli/rescaled_final/0464_fw.mp4	0.0	222.76323986053467	0.991595983505249
38	184.19923305511475	pulse	0	t		36.0	2.5	/experiments/AOT/AOT_stimuli/rescaled_final/0464_fw.mp4	0.0	223.7467269897461	
38	184.20734190940857	movie	1		246	36.0	2.5	/experiments/AOT/AOT_stimuli/rescaled_final/0464_fw.mp4	0.0	223.75483584403992	2.508543014526367
38	185.79873394966125	pulse	1	t		36.0	2.5	/experiments/AOT/AOT_stimuli/rescaled_final/0464_fw.mp4	0.0	225.3462278842926	
38	186.71588492393494	fix_post	2		12	36.0	2.5	/experiments/AOT/AOT_stimuli/rescaled_final/0464_fw.mp4	0.0	226.26337885856628	0.10001301765441895
39	186.81589794158936	fix_pre	0		120	37.0	2.5	/experiments/AOT/AOT_stimuli/rescaled_final/1646_fw.mp4	0.0	226.3633918762207	1.0001320838928223
39	187.3994529247284	pulse	0	t		37.0	2.5	/experiments/AOT/AOT_stimuli/rescaled_final/1646_fw.mp4	0.0	226.94694685935974	
39	187.81603002548218	movie	1		245	37.0	2.5	/experiments/AOT/AOT_stimuli/rescaled_final/1646_fw.mp4	0.0	227.36352396011353	2.499629020690918
39	188.999253988266	pulse	1	t		37.0	2.5	/experiments/AOT/AOT_stimuli/rescaled_final/1646_fw.mp4	0.0	228.54674792289734	
39	190.3156590461731	fix_post	2		12	37.0	2.5	/experiments/AOT/AOT_stimuli/rescaled_final/1646_fw.mp4	0.0	229.86315298080444	0.10012698173522949
40	190.41578602790833	fix_pre	0		120	38.0	2.5	/experiments/AOT/AOT_stimuli/rescaled_final/0283_fw.mp4	0.0	229.96327996253967	0.9998769760131836
40	190.59918689727783	pulse	0	t		38.0	2.5	/experiments/AOT/AOT_stimuli/rescaled_final/0283_fw.mp4	0.0	230.14668083190918	
40	191.4156630039215	movie	1		244	38.0	2.5	/experiments/AOT/AOT_stimuli/rescaled_final/0283_fw.mp4	0.0	230.96315693855286	2.499979019165039
40	192.1991469860077	pulse	1	t		38.0	2.5	/experiments/AOT/AOT_stimuli/rescaled_final/0283_fw.mp4	0.0	231.74664092063904	
40	193.79759407043457	pulse	1	t		38.0	2.5	/experiments/AOT/AOT_stimuli/rescaled_final/0283_fw.mp4	0.0	233.34508800506592	
40	193.91564202308655	fix_post	2		12	38.0	2.5	/experiments/AOT/AOT_stimuli/rescaled_final/0283_fw.mp4	0.0	233.4631359577179	0.09993791580200195
41	194.01557993888855	fix_pre	0		120	39.0	2.5	/experiments/AOT/AOT_stimuli/rescaled_final/1330_rv.mp4	0.0	233.5630738735199	0.9996261596679688
41	195.01520609855652	movie	1		245	39.0	2.5	/experiments/AOT/AOT_stimuli/rescaled_final/1330_rv.mp4	0.0	234.56270003318787	2.500037908554077
41	195.39883708953857	pulse	1	t		39.0	2.5	/experiments/AOT/AOT_stimuli/rescaled_final/1330_rv.mp4	0.0	234.94633102416992	
41	196.9991319179535	pulse	1	t		39.0	2.5	/experiments/AOT/AOT_stimuli/rescaled_final/1330_rv.mp4	0.0	236.54662585258484	
41	197.5152440071106	fix_post	2		12	39.0	2.5	/experiments/AOT/AOT_stimuli/rescaled_final/1330_rv.mp4	0.0	237.06273794174194	0.10043597221374512
42	197.61567997932434	fix_pre	0		119	40.0	2.5	/experiments/AOT/AOT_stimuli/rescaled_final/0517_rv.mp4	0.0	237.1631739139557	0.9916391372680664
42	198.5990879535675	pulse	0	t		40.0	2.5	/experiments/AOT/AOT_stimuli/rescaled_final/0517_rv.mp4	0.0	238.14658188819885	
42	198.6073191165924	movie	1		247	40.0	2.5	/experiments/AOT/AOT_stimuli/rescaled_final/0517_rv.mp4	0.0	238.15481305122375	2.5078837871551514
42	200.19856190681458	pulse	1	t		40.0	2.5	/experiments/AOT/AOT_stimuli/rescaled_final/0517_rv.mp4	0.0	239.74605584144592	
42	201.11520290374756	fix_post	2		12	40.0	2.5	/experiments/AOT/AOT_stimuli/rescaled_final/0517_rv.mp4	0.0	240.6626968383789	0.10046100616455078
43	201.2156639099121	fix_pre	0		120	41.0	2.5	blank	1.0	240.76315784454346	1.00006103515625
43	201.79907298088074	pulse	0	t		41.0	2.5	blank	1.0	241.34656691551208	
43	202.21572494506836	movie	1		300	41.0	2.5	blank	1.0	241.7632188796997	2.499875068664551
43	203.39916706085205	pulse	1	t		41.0	2.5	blank	1.0	242.9466609954834	
43	204.7156000137329	fix_post	2		12	41.0	2.5	blank	1.0	244.26309394836426	0.10003805160522461
44	204.81563806533813	fix_pre	0		120	42.0	2.5	/experiments/AOT/AOT_stimuli/rescaled_final/1849_rv.mp4	0.0	244.36313199996948	0.9999690055847168
44	204.9990689754486	pulse	0	t		42.0	2.5	/experiments/AOT/AOT_stimuli/rescaled_final/1849_rv.mp4	0.0	244.54656291007996	
44	205.81560707092285	movie	1		243	42.0	2.5	/experiments/AOT/AOT_stimuli/rescaled_final/1849_rv.mp4	0.0	245.3631010055542	2.4999868869781494
44	206.59910106658936	pulse	1	t		42.0	2.5	/experiments/AOT/AOT_stimuli/rescaled_final/1849_rv.mp4	0.0	246.1465950012207	
44	208.19751596450806	pulse	1	t		42.0	2.5	/experiments/AOT/AOT_stimuli/rescaled_final/1849_rv.mp4	0.0	247.7450098991394	
44	208.315593957901	fix_post	2		12	42.0	2.5	/experiments/AOT/AOT_stimuli/rescaled_final/1849_rv.mp4	0.0	247.86308789253235	0.09994816780090332
45	208.4155421257019	fix_pre	0		120	43.0	2.5	/experiments/AOT/AOT_stimuli/rescaled_final/1378_fw.mp4	0.0	247.96303606033325	0.9999799728393555
45	209.41552209854126	movie	1		247	43.0	2.5	/experiments/AOT/AOT_stimuli/rescaled_final/1378_fw.mp4	0.0	248.9630160331726	2.5000498294830322
45	209.7985999584198	pulse	1	t		43.0	2.5	/experiments/AOT/AOT_stimuli/rescaled_final/1378_fw.mp4	0.0	249.34609389305115	
45	211.399099111557	pulse	1	t		43.0	2.5	/experiments/AOT/AOT_stimuli/rescaled_final/1378_fw.mp4	0.0	250.94659304618835	
45	211.9155719280243	fix_post	2		12	43.0	2.5	/experiments/AOT/AOT_stimuli/rescaled_final/1378_fw.mp4	0.0	251.46306586265564	0.10016608238220215
46	212.0157380104065	fix_pre	0		119	44.0	2.5	/experiments/AOT/AOT_stimuli/rescaled_final/0262_fw.mp4	0.0	251.56323194503784	0.991461992263794
46	212.9990589618683	pulse	0	t		44.0	2.5	/experiments/AOT/AOT_stimuli/rescaled_final/0262_fw.mp4	0.0	252.54655289649963	
46	213.0072000026703	movie	1		248	44.0	2.5	/experiments/AOT/AOT_stimuli/rescaled_final/0262_fw.mp4	0.0	252.55469393730164	2.508565902709961
46	214.59839510917664	pulse	1	t		44.0	2.5	/experiments/AOT/AOT_stimuli/rescaled_final/0262_fw.mp4	0.0	254.14588904380798	
46	215.51576590538025	fix_post	2		12	44.0	2.5	/experiments/AOT/AOT_stimuli/rescaled_final/0262_fw.mp4	0.0	255.0632598400116	0.0997920036315918
47	215.61555790901184	fix_pre	0		120	45.0	2.5	/experiments/AOT/AOT_stimuli/rescaled_final/0649_rv.mp4	0.0	255.1630518436432	1.00002121925354
47	216.20035099983215	pulse	0	t		45.0	2.5	/experiments/AOT/AOT_stimuli/rescaled_final/0649_rv.mp4	0.0	255.7478449344635	
47	216.61557912826538	movie	1		245	45.0	2.5	/experiments/AOT/AOT_stimuli/rescaled_final/0649_rv.mp4	0.0	256.16307306289673	2.49992299079895
47	217.79906392097473	pulse	1	t		45.0	2.5	/experiments/AOT/AOT_stimuli/rescaled_final/0649_rv.mp4	0.0	257.3465578556061	
47	219.11550211906433	fix_post	2		12	45.0	2.5	/experiments/AOT/AOT_stimuli/rescaled_final/0649_rv.mp4	0.0	258.6629960536957	0.10005998611450195
48	219.21556210517883	fix_pre	0		120	46.0	2.5	/experiments/AOT/AOT_stimuli/rescaled_final/1583_rv.mp4	0.0	258.7630560398102	1.0
48	219.39922404289246	pulse	0	t		46.0	2.5	/experiments/AOT/AOT_stimuli/rescaled_final/1583_rv.mp4	0.0	258.9467179775238	
48	220.21556210517883	movie	1		244	46.0	2.5	/experiments/AOT/AOT_stimuli/rescaled_final/1583_rv.mp4	0.0	259.7630560398102	2.4999139308929443
48	220.9990520477295	pulse	1	t		46.0	2.5	/experiments/AOT/AOT_stimuli/rescaled_final/1583_rv.mp4	0.0	260.54654598236084	
48	222.59770011901855	pulse	1	t		46.0	2.5	/experiments/AOT/AOT_stimuli/rescaled_final/1583_rv.mp4	0.0	262.1451940536499	
48	222.71547603607178	fix_post	2		12	46.0	2.5	/experiments/AOT/AOT_stimuli/rescaled_final/1583_rv.mp4	0.0	262.2629699707031	0.09994006156921387
49	222.815416097641	fix_pre	0		120	47.0	2.5	/experiments/AOT/AOT_stimuli/rescaled_final/1354_rv.mp4	0.0	262.36291003227234	0.9996449947357178
49	223.8150610923767	movie	1		244	47.0	2.5	/experiments/AOT/AOT_stimuli/rescaled_final/1354_rv.mp4	0.0	263.36255502700806	2.499929904937744
49	224.19861102104187	pulse	1	t		47.0	2.5	/experiments/AOT/AOT_stimuli/rescaled_final/1354_rv.mp4	0.0	263.7461049556732	
49	225.7990369796753	pulse	1	t		47.0	2.5	/experiments/AOT/AOT_stimuli/rescaled_final/1354_rv.mp4	0.0	265.34653091430664	
49	226.31499099731445	fix_post	2		12	47.0	2.5	/experiments/AOT/AOT_stimuli/rescaled_final/1354_rv.mp4	0.0	265.8624849319458	0.10004496574401855
50	226.41503596305847	fix_pre	0		119	48.0	2.5	/experiments/AOT/AOT_stimuli/rescaled_final/0528_rv.mp4	0.0	265.9625298976898	0.9920990467071533
50	227.3990421295166	pulse	0	t		48.0	2.5	/experiments/AOT/AOT_stimuli/rescaled_final/0528_rv.mp4	0.0	266.94653606414795	
50	227.40713500976562	movie	1		246	48.0	2.5	/experiments/AOT/AOT_stimuli/rescaled_final/0528_rv.mp4	0.0	266.954628944397	2.5078909397125244
50	228.9992480278015	pulse	1	t		48.0	2.5	/experiments/AOT/AOT_stimuli/rescaled_final/0528_rv.mp4	0.0	268.54674196243286	
50	229.91502594947815	fix_post	2		12	48.0	2.5	/experiments/AOT/AOT_stimuli/rescaled_final/0528_rv.mp4	0.0	269.4625198841095	0.10045504570007324
51	230.01548099517822	fix_pre	0		120	49.0	2.5	blank	1.0	269.56297492980957	0.9999759197235107
51	230.59902596473694	pulse	0	t		49.0	2.5	blank	1.0	270.1465198993683	
51	231.01545691490173	movie	1		300	49.0	2.5	blank	1.0	270.5629508495331	2.499967098236084
51	232.19898891448975	pulse	1	t		49.0	2.5	blank	1.0	271.7464828491211	
51	233.51542401313782	fix_post	2		12	49.0	2.5	blank	1.0	273.06291794776917	0.09997296333312988
52	233.61539697647095	fix_pre	0		120	50.0	2.5	/experiments/AOT/AOT_stimuli/rescaled_final/1268_rv.mp4	0.0	273.1628909111023	0.9999740123748779
52	233.79898595809937	pulse	0	t		50.0	2.5	/experiments/AOT/AOT_stimuli/rescaled_final/1268_rv.mp4	0.0	273.3464798927307	
52	234.61537098884583	movie	1		246	50.0	2.5	/experiments/AOT/AOT_stimuli/rescaled_final/1268_rv.mp4	0.0	274.1628649234772	2.5000760555267334
52	235.39890098571777	pulse	1	t		50.0	2.5	/experiments/AOT/AOT_stimuli/rescaled_final/1268_rv.mp4	0.0	274.9463949203491	
52	236.9984529018402	pulse	1	t		50.0	2.5	/experiments/AOT/AOT_stimuli/rescaled_final/1268_rv.mp4	0.0	276.54594683647156	
52	237.11544704437256	fix_post	2		12	50.0	2.5	/experiments/AOT/AOT_stimuli/rescaled_final/1268_rv.mp4	0.0	276.6629409790039	0.10005807876586914
53	237.21550512313843	fix_pre	0		120	51.0	2.5	/experiments/AOT/AOT_stimuli/rescaled_final/0792_rv.mp4	0.0	276.7629990577698	0.9999549388885498
53	238.21546006202698	movie	1		244	51.0	2.5	/experiments/AOT/AOT_stimuli/rescaled_final/0792_rv.mp4	0.0	277.7629539966583	2.499527931213379
53	238.59903693199158	pulse	1	t		51.0	2.5	/experiments/AOT/AOT_stimuli/rescaled_final/0792_rv.mp4	0.0	278.1465308666229	
53	240.19886994361877	pulse	1	t		51.0	2.5	/experiments/AOT/AOT_stimuli/rescaled_final/0792_rv.mp4	0.0	279.7463638782501	
53	240.71498799324036	fix_post	2		12	51.0	2.5	/experiments/AOT/AOT_stimuli/rescaled_final/0792_rv.mp4	0.0	280.2624819278717	0.10047793388366699
54	240.81546592712402	fix_pre	0		119	52.0	2.5	/experiments/AOT/AOT_stimuli/rescaled_final/1204_fw.mp4	0.0	280.36295986175537	0.9918031692504883
54	241.798574924469	pulse	0	t		52.0	2.5	/experiments/AOT/AOT_stimuli/rescaled_final/1204_fw.mp4	0.0	281.34606885910034	
54	241.8072690963745	movie	1		246	52.0	2.5	/experiments/AOT/AOT_stimuli/rescaled_final/1204_fw.mp4	0.0	281.35476303100586	2.508237838745117
54	243.3982961177826	pulse	1	t		52.0	2.5	/experiments/AOT/AOT_stimuli/rescaled_final/1204_fw.mp4	0.0	282.94579005241394	
54	244.31550693511963	fix_post	2		12	52.0	2.5	/experiments/AOT/AOT_stimuli/rescaled_final/1204_fw.mp4	0.0	283.863000869751	0.09989213943481445
55	244.41539907455444	fix_pre	0		120	53.0	2.5	/experiments/AOT/AOT_stimuli/rescaled_final/1788_fw.mp4	0.0	283.9628930091858	1.0000739097595215
55	244.9988980293274	pulse	0	t		53.0	2.5	/experiments/AOT/AOT_stimuli/rescaled_final/1788_fw.mp4	0.0	284.54639196395874	
55	245.41547298431396	movie	1		244	53.0	2.5	/experiments/AOT/AOT_stimuli/rescaled_final/1788_fw.mp4	0.0	284.9629669189453	2.4998960494995117
55	246.59892106056213	pulse	1	t		53.0	2.5	/experiments/AOT/AOT_stimuli/rescaled_final/1788_fw.mp4	0.0	286.1464149951935	
55	247.91536903381348	fix_post	2		12	53.0	2.5	/experiments/AOT/AOT_stimuli/rescaled_final/1788_fw.mp4	0.0	287.4628629684448	0.10003089904785156
56	248.01539993286133	fix_pre	0		120	54.0	2.5	blank	1.0	287.5628938674927	0.999953031539917
56	248.19891595840454	pulse	0	t		54.0	2.5	blank	1.0	287.7464098930359	
56	249.01535296440125	movie	1		300	54.0	2.5	blank	1.0	288.5628468990326	2.4999711513519287
56	249.7988259792328	pulse	1	t		54.0	2.5	blank	1.0	289.34631991386414	
56	251.39888906478882	pulse	1	t		54.0	2.5	blank	1.0	290.94638299942017	
56	251.51532411575317	fix_post	2		12	54.0	2.5	blank	1.0	291.0628180503845	0.10004496574401855
57	251.6153690814972	fix_pre	0		120	55.0	2.5	/experiments/AOT/AOT_stimuli/rescaled_final/1842_rv.mp4	0.0	291.16286301612854	1.0000250339508057
57	252.615394115448	movie	1		244	55.0	2.5	/experiments/AOT/AOT_stimuli/rescaled_final/1842_rv.mp4	0.0	292.16288805007935	2.4999048709869385
57	252.9985270500183	pulse	1	t		55.0	2.5	/experiments/AOT/AOT_stimuli/rescaled_final/1842_rv.mp4	0.0	292.54602098464966	
57	254.5987949371338	pulse	1	t		55.0	2.5	/experiments/AOT/AOT_stimuli/rescaled_final/1842_rv.mp4	0.0	294.14628887176514	
57	255.11529898643494	fix_post	2		12	55.0	2.5	/experiments/AOT/AOT_stimuli/rescaled_final/1842_rv.mp4	0.0	294.6627929210663	0.09960198402404785
58	255.21490097045898	fix_pre	0		119	56.0	2.5	/experiments/AOT/AOT_stimuli/rescaled_final/2051_fw.mp4	0.0	294.76239490509033	0.9920749664306641
58	256.19885993003845	pulse	0	t		56.0	2.5	/experiments/AOT/AOT_stimuli/rescaled_final/2051_fw.mp4	0.0	295.7463538646698	
58	256.20697593688965	movie	1		246	56.0	2.5	/experiments/AOT/AOT_stimuli/rescaled_final/2051_fw.mp4	0.0	295.754469871521	2.5080370903015137
58	257.7986319065094	pulse	1	t		56.0	2.5	/experiments/AOT/AOT_stimuli/rescaled_final/2051_fw.mp4	0.0	297.34612584114075	
58	258.71501302719116	fix_post	2		12	56.0	2.5	/experiments/AOT/AOT_stimuli/rescaled_final/2051_fw.mp4	0.0	298.2625069618225	0.10030102729797363
59	258.81531405448914	fix_pre	0		120	57.0	2.5	/experiments/AOT/AOT_stimuli/rescaled_final/2163_rv.mp4	0.0	298.3628079891205	1.0000300407409668
59	259.3988690376282	pulse	0	t		57.0	2.5	/experiments/AOT/AOT_stimuli/rescaled_final/2163_rv.mp4	0.0	298.9463629722595	
59	259.8153440952301	movie	1		248	57.0	2.5	/experiments/AOT/AOT_stimuli/rescaled_final/2163_rv.mp4	0.0	299.36283802986145	2.4995598793029785
59	260.9988811016083	pulse	1	t		57.0	2.5	/experiments/AOT/AOT_stimuli/rescaled_final/2163_rv.mp4	0.0	300.5463750362396	
59	262.3149039745331	fix_post	2		12	57.0	2.5	/experiments/AOT/AOT_stimuli/rescaled_final/2163_rv.mp4	0.0	301.86239790916443	0.10041403770446777
60	262.41531801223755	fix_pre	0		120	58.0	2.5	/experiments/AOT/AOT_stimuli/rescaled_final/1853_rv.mp4	0.0	301.9628119468689	0.9999990463256836
60	262.59877705574036	pulse	0	t		58.0	2.5	/experiments/AOT/AOT_stimuli/rescaled_final/1853_rv.mp4	0.0	302.1462709903717	
60	263.41531705856323	movie	1		245	58.0	2.5	/experiments/AOT/AOT_stimuli/rescaled_final/1853_rv.mp4	0.0	302.9628109931946	2.499992847442627
60	264.19886898994446	pulse	1	t		58.0	2.5	/experiments/AOT/AOT_stimuli/rescaled_final/1853_rv.mp4	0.0	303.7463629245758	
60	265.79744601249695	pulse	1	t		58.0	2.5	/experiments/AOT/AOT_stimuli/rescaled_final/1853_rv.mp4	0.0	305.3449399471283	
60	265.91530990600586	fix_post	2		12	58.0	2.5	/experiments/AOT/AOT_stimuli/rescaled_final/1853_rv.mp4	0.0	305.4628038406372	0.10004210472106934
61	266.01535201072693	fix_pre	0		120	59.0	2.5	/experiments/AOT/AOT_stimuli/rescaled_final/0661_rv.mp4	0.0	305.5628459453583	0.9999589920043945
61	267.0153110027313	movie	1		244	59.0	2.5	/experiments/AOT/AOT_stimuli/rescaled_final/0661_rv.mp4	0.0	306.56280493736267	2.500032901763916
61	267.39996910095215	pulse	1	t		59.0	2.5	/experiments/AOT/AOT_stimuli/rescaled_final/0661_rv.mp4	0.0	306.9474630355835	
61	268.9987940788269	pulse	1	t		59.0	2.5	/experiments/AOT/AOT_stimuli/rescaled_final/0661_rv.mp4	0.0	308.54628801345825	
61	269.51534390449524	fix_post	2		12	59.0	2.5	/experiments/AOT/AOT_stimuli/rescaled_final/0661_rv.mp4	0.0	309.0628378391266	0.0999140739440918
62	269.61525797843933	fix_pre	0		119	60.0	2.5	/experiments/AOT/AOT_stimuli/rescaled_final/0517_fw.mp4	0.0	309.1627519130707	0.9916501045227051
62	270.598769903183	pulse	0	t		60.0	2.5	/experiments/AOT/AOT_stimuli/rescaled_final/0517_fw.mp4	0.0	310.14626383781433	
62	270.60690808296204	movie	1		245	60.0	2.5	/experiments/AOT/AOT_stimuli/rescaled_final/0517_fw.mp4	0.0	310.1544020175934	2.508327007293701
62	272.1986129283905	pulse	1	t		60.0	2.5	/experiments/AOT/AOT_stimuli/rescaled_final/0517_fw.mp4	0.0	311.74610686302185	
62	273.11523509025574	fix_post	2		12	60.0	2.5	/experiments/AOT/AOT_stimuli/rescaled_final/0517_fw.mp4	0.0	312.6627290248871	0.09998893737792969
63	273.21522402763367	fix_pre	0		120	61.0	2.5	/experiments/AOT/AOT_stimuli/rescaled_final/0164_rv.mp4	0.0	312.762717962265	1.0000948905944824
63	273.7988119125366	pulse	0	t		61.0	2.5	/experiments/AOT/AOT_stimuli/rescaled_final/0164_rv.mp4	0.0	313.34630584716797	
63	274.21531891822815	movie	1		243	61.0	2.5	/experiments/AOT/AOT_stimuli/rescaled_final/0164_rv.mp4	0.0	313.7628128528595	2.4999752044677734
63	275.3988049030304	pulse	1	t		61.0	2.5	/experiments/AOT/AOT_stimuli/rescaled_final/0164_rv.mp4	0.0	314.94629883766174	
63	276.7152941226959	fix_post	2		12	61.0	2.5	/experiments/AOT/AOT_stimuli/rescaled_final/0164_rv.mp4	0.0	316.26278805732727	0.09997892379760742
64	276.81527304649353	fix_pre	0		120	62.0	2.5	blank	1.0	316.3627669811249	0.9999089241027832
64	276.99878907203674	pulse	0	t		62.0	2.5	blank	1.0	316.5462830066681	
64	277.8151819705963	movie	1		300	62.0	2.5	blank	1.0	317.36267590522766	2.500051975250244
64	278.598797082901	pulse	1	t		62.0	2.5	blank	1.0	318.14629101753235	
64	280.19870495796204	pulse	1	t		62.0	2.5	blank	1.0	319.7461988925934	
64	280.31523394584656	fix_post	2		12	62.0	2.5	blank	1.0	319.8627278804779	0.09999299049377441
65	280.41522693634033	fix_pre	0		120	63.0	2.5	/experiments/AOT/AOT_stimuli/rescaled_final/2074_rv.mp4	0.0	319.9627208709717	0.9999561309814453
65	281.4151830673218	movie	1		243	63.0	2.5	/experiments/AOT/AOT_stimuli/rescaled_final/2074_rv.mp4	0.0	320.9626770019531	2.500018835067749
65	281.7986400127411	pulse	1	t		63.0	2.5	/experiments/AOT/AOT_stimuli/rescaled_final/2074_rv.mp4	0.0	321.34613394737244	
65	283.3986780643463	pulse	1	t		63.0	2.5	/experiments/AOT/AOT_stimuli/rescaled_final/2074_rv.mp4	0.0	322.94617199897766	
65	283.9152019023895	fix_post	2		12	63.0	2.5	/experiments/AOT/AOT_stimuli/rescaled_final/2074_rv.mp4	0.0	323.4626958370209	0.10004115104675293
66	284.0152430534363	fix_pre	0		119	64.0	2.5	/experiments/AOT/AOT_stimuli/rescaled_final/1223_fw.mp4	0.0	323.5627369880676	0.9916739463806152
66	284.9987881183624	pulse	0	t		64.0	2.5	/experiments/AOT/AOT_stimuli/rescaled_final/1223_fw.mp4	0.0	324.5462820529938	
66	285.0069169998169	movie	1		245	64.0	2.5	/experiments/AOT/AOT_stimuli/rescaled_final/1223_fw.mp4	0.0	324.55441093444824	2.5078840255737305
66	286.5984890460968	pulse	1	t		64.0	2.5	/experiments/AOT/AOT_stimuli/rescaled_final/1223_fw.mp4	0.0	326.14598298072815	
66	287.5148010253906	fix_post	2		12	64.0	2.5	/experiments/AOT/AOT_stimuli/rescaled_final/1223_fw.mp4	0.0	327.062294960022	0.10048389434814453
67	287.61528491973877	fix_pre	0		120	65.0	2.5	/experiments/AOT/AOT_stimuli/rescaled_final/1217_rv.mp4	0.0	327.1627788543701	0.9999361038208008
67	288.19864201545715	pulse	0	t		65.0	2.5	/experiments/AOT/AOT_stimuli/rescaled_final/1217_rv.mp4	0.0	327.7461359500885	
67	288.61522102355957	movie	1		244	65.0	2.5	/experiments/AOT/AOT_stimuli/rescaled_final/1217_rv.mp4	0.0	328.1627149581909	2.499518871307373
67	289.79871702194214	pulse	1	t		65.0	2.5	/experiments/AOT/AOT_stimuli/rescaled_final/1217_rv.mp4	0.0	329.3462109565735	
67	291.11473989486694	fix_post	2		12	65.0	2.5	/experiments/AOT/AOT_stimuli/rescaled_final/1217_rv.mp4	0.0	330.6622338294983	0.10046720504760742
68	291.21520709991455	fix_pre	0		120	66.0	2.5	/experiments/AOT/AOT_stimuli/rescaled_final/1646_rv.mp4	0.0	330.7627010345459	0.9999988079071045
68	291.3986511230469	pulse	0	t		66.0	2.5	/experiments/AOT/AOT_stimuli/rescaled_final/1646_rv.mp4	0.0	330.9461450576782	
68	292.21520590782166	movie	1		244	66.0	2.5	/experiments/AOT/AOT_stimuli/rescaled_final/1646_rv.mp4	0.0	331.762699842453	2.4999630451202393
68	292.9986801147461	pulse	1	t		66.0	2.5	/experiments/AOT/AOT_stimuli/rescaled_final/1646_rv.mp4	0.0	332.54617404937744	
68	294.5972349643707	pulse	1	t		66.0	2.5	/experiments/AOT/AOT_stimuli/rescaled_final/1646_rv.mp4	0.0	334.1447288990021	
68	294.7151689529419	fix_post	2		12	66.0	2.5	/experiments/AOT/AOT_stimuli/rescaled_final/1646_rv.mp4	0.0	334.26266288757324	0.10000801086425781
69	294.81517696380615	fix_pre	0		120	67.0	2.5	/experiments/AOT/AOT_stimuli/rescaled_final/2148_rv.mp4	0.0	334.3626708984375	1.000040054321289
69	295.81521701812744	movie	1		245	67.0	2.5	/experiments/AOT/AOT_stimuli/rescaled_final/2148_rv.mp4	0.0	335.3627109527588	2.5001258850097656
69	296.19839000701904	pulse	1	t		67.0	2.5	/experiments/AOT/AOT_stimuli/rescaled_final/2148_rv.mp4	0.0	335.7458839416504	
69	297.7982859611511	pulse	1	t		67.0	2.5	/experiments/AOT/AOT_stimuli/rescaled_final/2148_rv.mp4	0.0	337.34577989578247	
69	298.3153429031372	fix_post	2		12	67.0	2.5	/experiments/AOT/AOT_stimuli/rescaled_final/2148_rv.mp4	0.0	337.86283683776855	0.09951114654541016
70	298.4148540496826	fix_pre	0		119	68.0	2.5	blank	1.0	337.96234798431396	0.9918088912963867
70	299.39852595329285	pulse	0	t		68.0	2.5	blank	1.0	338.9460198879242	
70	299.406662940979	movie	1		301	68.0	2.5	blank	1.0	338.95415687561035	2.508512020111084
70	300.9986810684204	pulse	1	t		68.0	2.5	blank	1.0	340.54617500305176	
70	301.9151749610901	fix_post	2		12	68.0	2.5	blank	1.0	341.46266889572144	0.10002994537353516
71	302.0152049064636	fix_pre	0		120	69.0	2.5	/experiments/AOT/AOT_stimuli/rescaled_final/0356_fw.mp4	0.0	341.56269884109497	0.9995369911193848
71	302.5986170768738	pulse	0	t		69.0	2.5	/experiments/AOT/AOT_stimuli/rescaled_final/0356_fw.mp4	0.0	342.1461110115051	
71	303.014741897583	movie	1		245	69.0	2.5	/experiments/AOT/AOT_stimuli/rescaled_final/0356_fw.mp4	0.0	342.56223583221436	2.5000250339508057
71	304.1986939907074	pulse	1	t		69.0	2.5	/experiments/AOT/AOT_stimuli/rescaled_final/0356_fw.mp4	0.0	343.74618792533875	
71	305.5147669315338	fix_post	2		12	69.0	2.5	/experiments/AOT/AOT_stimuli/rescaled_final/0356_fw.mp4	0.0	345.06226086616516	0.10045099258422852
72	305.61521792411804	fix_pre	0		120	70.0	2.5	/experiments/AOT/AOT_stimuli/rescaled_final/0745_rv.mp4	0.0	345.1627118587494	0.9994111061096191
72	305.7985680103302	pulse	0	t		70.0	2.5	/experiments/AOT/AOT_stimuli/rescaled_final/0745_rv.mp4	0.0	345.34606194496155	
72	306.61462903022766	movie	1		247	70.0	2.5	/experiments/AOT/AOT_stimuli/rescaled_final/0745_rv.mp4	0.0	346.162122964859	2.500415086746216
72	307.39862394332886	pulse	1	t		70.0	2.5	/experiments/AOT/AOT_stimuli/rescaled_final/0745_rv.mp4	0.0	346.9461178779602	
72	308.9985330104828	pulse	1	t		70.0	2.5	/experiments/AOT/AOT_stimuli/rescaled_final/0745_rv.mp4	0.0	348.54602694511414	
72	309.1150441169739	fix_post	2		12	70.0	2.5	/experiments/AOT/AOT_stimuli/rescaled_final/0745_rv.mp4	0.0	348.6625380516052	0.09997987747192383
73	309.2150239944458	fix_pre	0		120	71.0	2.5	/experiments/AOT/AOT_stimuli/rescaled_final/1786_rv.mp4	0.0	348.76251792907715	1.0000269412994385
73	310.21505093574524	movie	1		247	71.0	2.5	/experiments/AOT/AOT_stimuli/rescaled_final/1786_rv.mp4	0.0	349.7625448703766	2.4998931884765625
73	310.5982189178467	pulse	1	t		71.0	2.5	/experiments/AOT/AOT_stimuli/rescaled_final/1786_rv.mp4	0.0	350.145712852478	
73	312.1985080242157	pulse	1	t		71.0	2.5	/experiments/AOT/AOT_stimuli/rescaled_final/1786_rv.mp4	0.0	351.74600195884705	
73	312.7149441242218	fix_post	2		12	71.0	2.5	/experiments/AOT/AOT_stimuli/rescaled_final/1786_rv.mp4	0.0	352.26243805885315	0.10009384155273438
74	312.81503796577454	fix_pre	0		119	72.0	2.5	/experiments/AOT/AOT_stimuli/rescaled_final/0756_rv.mp4	0.0	352.3625319004059	0.9917299747467041
74	313.7985301017761	pulse	0	t		72.0	2.5	/experiments/AOT/AOT_stimuli/rescaled_final/0756_rv.mp4	0.0	353.34602403640747	
74	313.80676794052124	movie	1		246	72.0	2.5	/experiments/AOT/AOT_stimuli/rescaled_final/0756_rv.mp4	0.0	353.3542618751526	2.508223056793213
74	315.3982820510864	pulse	1	t		72.0	2.5	/experiments/AOT/AOT_stimuli/rescaled_final/0756_rv.mp4	0.0	354.9457759857178	
74	316.31499099731445	fix_post	2		12	72.0	2.5	/experiments/AOT/AOT_stimuli/rescaled_final/0756_rv.mp4	0.0	355.8624849319458	0.09997701644897461
75	316.4149680137634	fix_pre	0		120	73.0	2.5	/experiments/AOT/AOT_stimuli/rescaled_final/1060_fw.mp4	0.0	355.9624619483948	1.0001349449157715
75	316.9985680580139	pulse	0	t		73.0	2.5	/experiments/AOT/AOT_stimuli/rescaled_final/1060_fw.mp4	0.0	356.54606199264526	
75	317.4151029586792	movie	1		244	73.0	2.5	/experiments/AOT/AOT_stimuli/rescaled_final/1060_fw.mp4	0.0	356.96259689331055	2.499500036239624
75	318.5986349582672	pulse	1	t		73.0	2.5	/experiments/AOT/AOT_stimuli/rescaled_final/1060_fw.mp4	0.0	358.14612889289856	
75	319.9146029949188	fix_post	2		12	73.0	2.5	/experiments/AOT/AOT_stimuli/rescaled_final/1060_fw.mp4	0.0	359.46209692955017	0.10036611557006836
76	320.0149691104889	fix_pre	0		120	74.0	2.5	/experiments/AOT/AOT_stimuli/rescaled_final/1378_rv.mp4	0.0	359.56246304512024	0.9999849796295166
76	320.19848704338074	pulse	0	t		74.0	2.5	/experiments/AOT/AOT_stimuli/rescaled_final/1378_rv.mp4	0.0	359.7459809780121	
76	321.0149540901184	movie	1		244	74.0	2.5	/experiments/AOT/AOT_stimuli/rescaled_final/1378_rv.mp4	0.0	360.56244802474976	2.5000150203704834
76	321.7985270023346	pulse	1	t		74.0	2.5	/experiments/AOT/AOT_stimuli/rescaled_final/1378_rv.mp4	0.0	361.34602093696594	
76	323.39849495887756	pulse	1	t		74.0	2.5	/experiments/AOT/AOT_stimuli/rescaled_final/1378_rv.mp4	0.0	362.9459888935089	
76	323.5149691104889	fix_post	2		12	74.0	2.5	/experiments/AOT/AOT_stimuli/rescaled_final/1378_rv.mp4	0.0	363.06246304512024	0.10000991821289062
77	323.6149790287018	fix_pre	0		120	75.0	2.5	/experiments/AOT/AOT_stimuli/rescaled_final/2168_rv.mp4	0.0	363.16247296333313	1.0000529289245605
77	324.61503195762634	movie	1		247	75.0	2.5	/experiments/AOT/AOT_stimuli/rescaled_final/2168_rv.mp4	0.0	364.1625258922577	2.4999420642852783
77	324.99868607521057	pulse	1	t		75.0	2.5	/experiments/AOT/AOT_stimuli/rescaled_final/2168_rv.mp4	0.0	364.5461800098419	
77	326.59858202934265	pulse	1	t		75.0	2.5	/experiments/AOT/AOT_stimuli/rescaled_final/2168_rv.mp4	0.0	366.146075963974	
77	327.1149740219116	fix_post	2		12	75.0	2.5	/experiments/AOT/AOT_stimuli/rescaled_final/2168_rv.mp4	0.0	366.66246795654297	0.09998202323913574
78	327.21495604515076	fix_pre	0		119	76.0	2.5	/experiments/AOT/AOT_stimuli/rescaled_final/0850_rv.mp4	0.0	366.7624499797821	0.9916179180145264
78	328.19841504096985	pulse	0	t		76.0	2.5	/experiments/AOT/AOT_stimuli/rescaled_final/0850_rv.mp4	0.0	367.7459089756012	
78	328.2065739631653	movie	1		247	76.0	2.5	/experiments/AOT/AOT_stimuli/rescaled_final/0850_rv.mp4	0.0	367.75406789779663	2.507981061935425
78	329.79905796051025	pulse	1	t		76.0	2.5	/experiments/AOT/AOT_stimuli/rescaled_final/0850_rv.mp4	0.0	369.3465518951416	
78	330.7145550251007	fix_post	2		12	76.0	2.5	/experiments/AOT/AOT_stimuli/rescaled_final/0850_rv.mp4	0.0	370.26204895973206	0.10036396980285645
79	330.81491899490356	fix_pre	0		120	77.0	2.5	blank	1.0	370.3624129295349	1.0000710487365723
79	331.3984899520874	pulse	0	t		77.0	2.5	blank	1.0	370.94598388671875	
79	331.81499004364014	movie	1		300	77.0	2.5	blank	1.0	371.3624839782715	2.4999890327453613
79	332.99853110313416	pulse	1	t		77.0	2.5	blank	1.0	372.5460250377655	
79	334.3149790763855	fix_post	2		12	77.0	2.5	blank	1.0	373.86247301101685	0.0999000072479248
80	334.4148790836334	fix_pre	0		120	78.0	2.5	/experiments/AOT/AOT_stimuli/rescaled_final/0051_fw.mp4	0.0	373.96237301826477	1.0000848770141602
80	334.59839701652527	pulse	0	t		78.0	2.5	/experiments/AOT/AOT_stimuli/rescaled_final/0051_fw.mp4	0.0	374.1458909511566	
80	335.4149639606476	movie	1		244	78.0	2.5	/experiments/AOT/AOT_stimuli/rescaled_final/0051_fw.mp4	0.0	374.96245789527893	2.499890089035034
80	336.1984510421753	pulse	1	t		78.0	2.5	/experiments/AOT/AOT_stimuli/rescaled_final/0051_fw.mp4	0.0	375.74594497680664	
80	337.7970280647278	pulse	1	t		78.0	2.5	/experiments/AOT/AOT_stimuli/rescaled_final/0051_fw.mp4	0.0	377.34452199935913	
80	337.9148540496826	fix_post	2		12	78.0	2.5	/experiments/AOT/AOT_stimuli/rescaled_final/0051_fw.mp4	0.0	377.46234798431396	0.10003089904785156
81	338.01488494873047	fix_pre	0		120	79.0	2.5	/experiments/AOT/AOT_stimuli/rescaled_final/1758_rv.mp4	0.0	377.5623788833618	0.9995920658111572
81	339.0144770145416	movie	1		244	79.0	2.5	/experiments/AOT/AOT_stimuli/rescaled_final/1758_rv.mp4	0.0	378.561970949173	2.5004920959472656
81	339.39819598197937	pulse	1	t		79.0	2.5	/experiments/AOT/AOT_stimuli/rescaled_final/1758_rv.mp4	0.0	378.9456899166107	
81	340.9984920024872	pulse	1	t		79.0	2.5	/experiments/AOT/AOT_stimuli/rescaled_final/1758_rv.mp4	0.0	380.54598593711853	
81	341.5149691104889	fix_post	2		12	79.0	2.5	/experiments/AOT/AOT_stimuli/rescaled_final/1758_rv.mp4	0.0	381.06246304512024	0.10003185272216797
82	341.61500096321106	fix_pre	0		119	80.0	2.5	/experiments/AOT/AOT_stimuli/rescaled_final/2140_rv.mp4	0.0	381.1624948978424	0.9916591644287109
82	342.59849190711975	pulse	0	t		80.0	2.5	/experiments/AOT/AOT_stimuli/rescaled_final/2140_rv.mp4	0.0	382.1459858417511	
82	342.60666012763977	movie	1		245	80.0	2.5	/experiments/AOT/AOT_stimuli/rescaled_final/2140_rv.mp4	0.0	382.1541540622711	2.50779390335083
82	344.1982319355011	pulse	1	t		80.0	2.5	/experiments/AOT/AOT_stimuli/rescaled_final/2140_rv.mp4	0.0	383.74572587013245	
82	345.1144540309906	fix_post	2		12	80.0	2.5	/experiments/AOT/AOT_stimuli/rescaled_final/2140_rv.mp4	0.0	384.66194796562195	0.10039591789245605
83	345.21484994888306	fix_pre	0		120	81.0	2.5	/experiments/AOT/AOT_stimuli/rescaled_final/0648_rv.mp4	0.0	384.7623438835144	1.000049114227295
83	345.79841804504395	pulse	0	t		81.0	2.5	/experiments/AOT/AOT_stimuli/rescaled_final/0648_rv.mp4	0.0	385.3459119796753	
83	346.21489906311035	movie	1		243	81.0	2.5	/experiments/AOT/AOT_stimuli/rescaled_final/0648_rv.mp4	0.0	385.7623929977417	2.4999468326568604
83	347.398423910141	pulse	1	t		81.0	2.5	/experiments/AOT/AOT_stimuli/rescaled_final/0648_rv.mp4	0.0	386.94591784477234	
83	348.7148458957672	fix_post	2		12	81.0	2.5	/experiments/AOT/AOT_stimuli/rescaled_final/0648_rv.mp4	0.0	388.26233983039856	0.10003304481506348
84	348.8148789405823	fix_pre	0		120	82.0	2.5	/experiments/AOT/AOT_stimuli/rescaled_final/1183_fw.mp4	0.0	388.3623728752136	0.999629020690918
84	348.9984109401703	pulse	0	t		82.0	2.5	/experiments/AOT/AOT_stimuli/rescaled_final/1183_fw.mp4	0.0	388.54590487480164	
84	349.8145079612732	movie	1		245	82.0	2.5	/experiments/AOT/AOT_stimuli/rescaled_final/1183_fw.mp4	0.0	389.36200189590454	2.4999489784240723
84	350.598228931427	pulse	1	t		82.0	2.5	/experiments/AOT/AOT_stimuli/rescaled_final/1183_fw.mp4	0.0	390.14572286605835	
84	352.19693207740784	pulse	1	t		82.0	2.5	/experiments/AOT/AOT_stimuli/rescaled_final/1183_fw.mp4	0.0	391.7444260120392	
84	352.31445693969727	fix_post	2		12	82.0	2.5	/experiments/AOT/AOT_stimuli/rescaled_final/1183_fw.mp4	0.0	391.8619508743286	0.10002303123474121
85	352.414479970932	fix_pre	0		120	83.0	2.5	blank	1.0	391.96197390556335	1.0004119873046875
85	353.4148919582367	movie	1		300	83.0	2.5	blank	1.0	392.96238589286804	2.4999749660491943
85	353.79808497428894	pulse	1	t		83.0	2.5	blank	1.0	393.3455789089203	
85	355.3986129760742	pulse	1	t		83.0	2.5	blank	1.0	394.94610691070557	
85	355.9148669242859	fix_post	2		12	83.0	2.5	blank	1.0	395.46236085891724	0.1000831127166748
87	356.01495003700256	stim	0		1716					395.5624439716339	14.299845933914185
87	356.9983820915222	pulse	0	t						396.54587602615356	
87	358.5982871055603	pulse	0	t						398.14578104019165	
87	360.1981930732727	pulse	0	t						399.74568700790405	
87	361.7982931137085	pulse	0	t						401.34578704833984	
87	363.3982529640198	pulse	0	t						402.9457468986511	
87	364.9982171058655	pulse	0	t						404.5457110404968	
87	366.59820008277893	pulse	0	t						406.1456940174103	
87	368.1982390880585	pulse	0	t						407.7457330226898	
87	369.7983100414276	pulse	0	t						409.34580397605896	
