trial_nr	onset	event_type	phase	response	nr_frames	movie_index	movie_duration	movie_file	blank	onset_abs	duration
0	0.16649937629699707	stim	0		1					16.76026153564453	0.00824880599975586
0	0.10840249061584473	response	0	space						16.70216464996338	
1	0.17474818229675293	stim	0		4559					16.768510341644287	38.006691455841064
1	38.17121124267578	pulse	0	t						54.764973402023315	
1	38.18143963813782	stim	1		1715					54.77520179748535	14.301206111907959
1	39.76445984840393	pulse	1	t						56.358222007751465	
1	41.36442708969116	pulse	1	t						57.958189249038696	
1	42.964677810668945	pulse	1	t						59.55843997001648	
1	44.56499624252319	pulse	1	t						61.15875840187073	
1	46.16516852378845	pulse	1	t						62.758930683135986	
1	47.765397787094116	pulse	1	t						64.35915994644165	
1	49.36565828323364	pulse	1	t						65.95942044258118	
1	50.965864181518555	pulse	1	t						67.55962634086609	
2	52.482645750045776	fix_pre	0		11	0.0	2.5	/experiments/Knapen_AOT/AOT_stimuli/rescaled_final/0009_rv.mp4	0.0	69.07640790939331	0.10848569869995117
2	52.56618809700012	pulse	0	t		0.0	2.5	/experiments/Knapen_AOT/AOT_stimuli/rescaled_final/0009_rv.mp4	0.0	69.15995025634766	
2	52.59113144874573	movie	1		289	0.0	2.5	/experiments/Knapen_AOT/AOT_stimuli/rescaled_final/0009_rv.mp4	0.0	69.18489360809326	2.4919474124908447
2	54.164687156677246	pulse	1	t		0.0	2.5	/experiments/Knapen_AOT/AOT_stimuli/rescaled_final/0009_rv.mp4	0.0	70.75844931602478	
2	55.08307886123657	fix_post	2		12	0.0	2.5	/experiments/Knapen_AOT/AOT_stimuli/rescaled_final/0009_rv.mp4	0.0	71.6768410205841	0.09997725486755371
3	55.183056116104126	fix_pre	0		120	1.0	2.5	/experiments/Knapen_AOT/AOT_stimuli/rescaled_final/1328_rv.mp4	0.0	71.77681827545166	1.008474349975586
3	55.76692819595337	pulse	0	t		1.0	2.5	/experiments/Knapen_AOT/AOT_stimuli/rescaled_final/1328_rv.mp4	0.0	72.3606903553009	
3	56.19153046607971	movie	1		285	1.0	2.5	/experiments/Knapen_AOT/AOT_stimuli/rescaled_final/1328_rv.mp4	0.0	72.78529262542725	2.4919962882995605
3	57.36568474769592	pulse	1	t		1.0	2.5	/experiments/Knapen_AOT/AOT_stimuli/rescaled_final/1328_rv.mp4	0.0	73.95944690704346	
3	58.68352675437927	fix_post	2		12	1.0	2.5	/experiments/Knapen_AOT/AOT_stimuli/rescaled_final/1328_rv.mp4	0.0	75.2772889137268	0.10002255439758301
4	58.783549308776855	fix_pre	0		120	2.0	2.5	/experiments/Knapen_AOT/AOT_stimuli/rescaled_final/1431_fw.mp4	0.0	75.37731146812439	1.0084712505340576
4	58.96716523170471	pulse	0	t		2.0	2.5	/experiments/Knapen_AOT/AOT_stimuli/rescaled_final/1431_fw.mp4	0.0	75.56092739105225	
4	59.79202055931091	movie	1		292	2.0	2.5	/experiments/Knapen_AOT/AOT_stimuli/rescaled_final/1431_fw.mp4	0.0	76.38578271865845	2.4920835494995117
4	60.56526327133179	pulse	1	t		2.0	2.5	/experiments/Knapen_AOT/AOT_stimuli/rescaled_final/1431_fw.mp4	0.0	77.15902543067932	
4	62.16579341888428	pulse	1	t		2.0	2.5	/experiments/Knapen_AOT/AOT_stimuli/rescaled_final/1431_fw.mp4	0.0	78.75955557823181	
4	62.284104108810425	fix_post	2		12	2.0	2.5	/experiments/Knapen_AOT/AOT_stimuli/rescaled_final/1431_fw.mp4	0.0	78.87786626815796	0.10002708435058594
5	62.38413119316101	fix_pre	0		120	3.0	2.5	/experiments/Knapen_AOT/AOT_stimuli/rescaled_final/0095_rv.mp4	0.0	78.97789335250854	1.0085248947143555
5	63.392656087875366	movie	1		275	3.0	2.5	/experiments/Knapen_AOT/AOT_stimuli/rescaled_final/0095_rv.mp4	0.0	79.9864182472229	2.492022752761841
5	63.76598620414734	pulse	1	t		3.0	2.5	/experiments/Knapen_AOT/AOT_stimuli/rescaled_final/0095_rv.mp4	0.0	80.35974836349487	
5	65.36818313598633	pulse	1	t		3.0	2.5	/experiments/Knapen_AOT/AOT_stimuli/rescaled_final/0095_rv.mp4	0.0	81.96194529533386	
5	65.8846788406372	fix_post	2		12	3.0	2.5	/experiments/Knapen_AOT/AOT_stimuli/rescaled_final/0095_rv.mp4	0.0	82.47844099998474	0.09995746612548828
6	65.9846363067627	fix_pre	0		119	4.0	2.5	/experiments/Knapen_AOT/AOT_stimuli/rescaled_final/2053_fw.mp4	0.0	82.57839846611023	1.0001709461212158
6	66.9686632156372	pulse	0	t		4.0	2.5	/experiments/Knapen_AOT/AOT_stimuli/rescaled_final/2053_fw.mp4	0.0	83.56242537498474	
6	66.98480725288391	movie	1		276	4.0	2.5	/experiments/Knapen_AOT/AOT_stimuli/rescaled_final/2053_fw.mp4	0.0	83.57856941223145	2.5003836154937744
6	68.56754732131958	pulse	1	t		4.0	2.5	/experiments/Knapen_AOT/AOT_stimuli/rescaled_final/2053_fw.mp4	0.0	85.16130948066711	
6	69.48519086837769	fix_post	2		12	4.0	2.5	/experiments/Knapen_AOT/AOT_stimuli/rescaled_final/2053_fw.mp4	0.0	86.07895302772522	0.10002899169921875
7	69.5852198600769	fix_pre	0		120	5.0	2.5	/experiments/Knapen_AOT/AOT_stimuli/rescaled_final/1067_rv.mp4	0.0	86.17898201942444	1.0084741115570068
7	70.16074228286743	pulse	0	t		5.0	2.5	/experiments/Knapen_AOT/AOT_stimuli/rescaled_final/1067_rv.mp4	0.0	86.75450444221497	
7	70.59369397163391	movie	1		290	5.0	2.5	/experiments/Knapen_AOT/AOT_stimuli/rescaled_final/1067_rv.mp4	0.0	87.18745613098145	2.492006778717041
7	71.76070713996887	pulse	1	t		5.0	2.5	/experiments/Knapen_AOT/AOT_stimuli/rescaled_final/1067_rv.mp4	0.0	88.3544692993164	
7	73.08570075035095	fix_post	2		12	5.0	2.5	/experiments/Knapen_AOT/AOT_stimuli/rescaled_final/1067_rv.mp4	0.0	89.67946290969849	0.10001873970031738
8	73.18571949005127	fix_pre	0		120	6.0	2.5	blank	1.0	89.7794816493988	1.0001559257507324
8	73.3610155582428	pulse	0	t		6.0	2.5	blank	1.0	89.95477771759033	
8	74.185875415802	movie	1		300	6.0	2.5	blank	1.0	90.77963757514954	2.5004138946533203
8	74.96124911308289	pulse	1	t		6.0	2.5	blank	1.0	91.55501127243042	
8	76.56143450737	pulse	1	t		6.0	2.5	blank	1.0	93.15519666671753	
8	76.68628931045532	fix_post	2		12	6.0	2.5	blank	1.0	93.28005146980286	0.10000920295715332
9	76.78629851341248	fix_pre	0		120	7.0	2.5	/experiments/Knapen_AOT/AOT_stimuli/rescaled_final/2157_rv.mp4	0.0	93.38006067276001	1.00846266746521
9	77.79476118087769	movie	1		282	7.0	2.5	/experiments/Knapen_AOT/AOT_stimuli/rescaled_final/2157_rv.mp4	0.0	94.38852334022522	2.4920036792755127
9	78.16224575042725	pulse	1	t		7.0	2.5	/experiments/Knapen_AOT/AOT_stimuli/rescaled_final/2157_rv.mp4	0.0	94.75600790977478	
9	79.76192831993103	pulse	1	t		7.0	2.5	/experiments/Knapen_AOT/AOT_stimuli/rescaled_final/2157_rv.mp4	0.0	96.35569047927856	
9	80.2867648601532	fix_post	2		12	7.0	2.5	/experiments/Knapen_AOT/AOT_stimuli/rescaled_final/2157_rv.mp4	0.0	96.88052701950073	0.10002589225769043
10	80.38679075241089	fix_pre	0		118	8.0	2.5	/experiments/Knapen_AOT/AOT_stimuli/rescaled_final/0928_rv.mp4	0.0	96.98055291175842	0.991856575012207
10	81.36214876174927	pulse	0	t		8.0	2.5	/experiments/Knapen_AOT/AOT_stimuli/rescaled_final/0928_rv.mp4	0.0	97.9559109210968	
10	81.3786473274231	movie	1		278	8.0	2.5	/experiments/Knapen_AOT/AOT_stimuli/rescaled_final/0928_rv.mp4	0.0	97.97240948677063	2.500328540802002
10	82.96069407463074	pulse	1	t		8.0	2.5	/experiments/Knapen_AOT/AOT_stimuli/rescaled_final/0928_rv.mp4	0.0	99.55445623397827	
10	83.8789758682251	fix_post	2		12	8.0	2.5	/experiments/Knapen_AOT/AOT_stimuli/rescaled_final/0928_rv.mp4	0.0	100.47273802757263	0.10007119178771973
11	83.97904706001282	fix_pre	0		120	9.0	2.5	/experiments/Knapen_AOT/AOT_stimuli/rescaled_final/2122_fw.mp4	0.0	100.57280921936035	1.0084507465362549
11	84.56284213066101	pulse	0	t		9.0	2.5	/experiments/Knapen_AOT/AOT_stimuli/rescaled_final/2122_fw.mp4	0.0	101.15660429000854	
11	84.98749780654907	movie	1		277	9.0	2.5	/experiments/Knapen_AOT/AOT_stimuli/rescaled_final/2122_fw.mp4	0.0	101.5812599658966	2.4920315742492676
11	86.16135287284851	pulse	1	t		9.0	2.5	/experiments/Knapen_AOT/AOT_stimuli/rescaled_final/2122_fw.mp4	0.0	102.75511503219604	
11	87.47952938079834	fix_post	2		12	9.0	2.5	/experiments/Knapen_AOT/AOT_stimuli/rescaled_final/2122_fw.mp4	0.0	104.07329154014587	0.10005855560302734
12	87.57958793640137	fix_pre	0		120	10.0	2.5	/experiments/Knapen_AOT/AOT_stimuli/rescaled_final/1816_fw.mp4	0.0	104.1733500957489	1.0086426734924316
12	87.76316404342651	pulse	0	t		10.0	2.5	/experiments/Knapen_AOT/AOT_stimuli/rescaled_final/1816_fw.mp4	0.0	104.35692620277405	
12	88.5882306098938	movie	1		284	10.0	2.5	/experiments/Knapen_AOT/AOT_stimuli/rescaled_final/1816_fw.mp4	0.0	105.18199276924133	2.4918272495269775
12	89.36169528961182	pulse	1	t		10.0	2.5	/experiments/Knapen_AOT/AOT_stimuli/rescaled_final/1816_fw.mp4	0.0	105.95545744895935	
12	90.96162724494934	pulse	1	t		10.0	2.5	/experiments/Knapen_AOT/AOT_stimuli/rescaled_final/1816_fw.mp4	0.0	107.55538940429688	
12	91.08005785942078	fix_post	2		12	10.0	2.5	/experiments/Knapen_AOT/AOT_stimuli/rescaled_final/1816_fw.mp4	0.0	107.67382001876831	0.10001611709594727
13	91.18007397651672	fix_pre	0		120	11.0	2.5	/experiments/Knapen_AOT/AOT_stimuli/rescaled_final/1395_rv.mp4	0.0	107.77383613586426	1.0085108280181885
13	92.18858480453491	movie	1		280	11.0	2.5	/experiments/Knapen_AOT/AOT_stimuli/rescaled_final/1395_rv.mp4	0.0	108.78234696388245	2.492018699645996
13	92.56403112411499	pulse	1	t		11.0	2.5	/experiments/Knapen_AOT/AOT_stimuli/rescaled_final/1395_rv.mp4	0.0	109.15779328346252	
13	94.16207647323608	pulse	1	t		11.0	2.5	/experiments/Knapen_AOT/AOT_stimuli/rescaled_final/1395_rv.mp4	0.0	110.75583863258362	
13	94.68060350418091	fix_post	2		12	11.0	2.5	/experiments/Knapen_AOT/AOT_stimuli/rescaled_final/1395_rv.mp4	0.0	111.27436566352844	0.10008740425109863
14	94.780690908432	fix_pre	0		119	12.0	2.5	blank	1.0	111.37445306777954	0.9917452335357666
14	95.76426982879639	pulse	0	t		12.0	2.5	blank	1.0	112.35803198814392	
14	95.77243614196777	movie	1		301	12.0	2.5	blank	1.0	112.36619830131531	2.508707046508789
14	97.36484289169312	pulse	1	t		12.0	2.5	blank	1.0	113.95860505104065	
14	98.28114318847656	fix_post	2		12	12.0	2.5	blank	1.0	114.8749053478241	0.1000828742980957
15	98.38122606277466	fix_pre	0		120	13.0	2.5	/experiments/Knapen_AOT/AOT_stimuli/rescaled_final/1013_rv.mp4	0.0	114.97498822212219	1.0084376335144043
15	98.96479344367981	pulse	0	t		13.0	2.5	/experiments/Knapen_AOT/AOT_stimuli/rescaled_final/1013_rv.mp4	0.0	115.55855560302734	
15	99.38966369628906	movie	1		286	13.0	2.5	/experiments/Knapen_AOT/AOT_stimuli/rescaled_final/1013_rv.mp4	0.0	115.9834258556366	2.492037057876587
15	100.56311440467834	pulse	1	t		13.0	2.5	/experiments/Knapen_AOT/AOT_stimuli/rescaled_final/1013_rv.mp4	0.0	117.15687656402588	
15	101.88170075416565	fix_post	2		12	13.0	2.5	/experiments/Knapen_AOT/AOT_stimuli/rescaled_final/1013_rv.mp4	0.0	118.47546291351318	0.10003948211669922
16	101.98174023628235	fix_pre	0		120	14.0	2.5	/experiments/Knapen_AOT/AOT_stimuli/rescaled_final/0306_fw.mp4	0.0	118.57550239562988	1.0084724426269531
16	102.16535878181458	pulse	0	t		14.0	2.5	/experiments/Knapen_AOT/AOT_stimuli/rescaled_final/0306_fw.mp4	0.0	118.75912094116211	
16	102.9902126789093	movie	1		281	14.0	2.5	/experiments/Knapen_AOT/AOT_stimuli/rescaled_final/0306_fw.mp4	0.0	119.58397483825684	2.492027997970581
16	103.76402616500854	pulse	1	t		14.0	2.5	/experiments/Knapen_AOT/AOT_stimuli/rescaled_final/0306_fw.mp4	0.0	120.35778832435608	
16	105.36356592178345	pulse	1	t		14.0	2.5	/experiments/Knapen_AOT/AOT_stimuli/rescaled_final/0306_fw.mp4	0.0	121.95732808113098	
16	105.48224067687988	fix_post	2		12	14.0	2.5	/experiments/Knapen_AOT/AOT_stimuli/rescaled_final/0306_fw.mp4	0.0	122.07600283622742	0.10001611709594727
17	105.58225679397583	fix_pre	0		120	15.0	2.5	/experiments/Knapen_AOT/AOT_stimuli/rescaled_final/1333_rv.mp4	0.0	122.17601895332336	1.0085079669952393
17	106.59076476097107	movie	1		279	15.0	2.5	/experiments/Knapen_AOT/AOT_stimuli/rescaled_final/1333_rv.mp4	0.0	123.1845269203186	2.4920103549957275
17	106.96438670158386	pulse	1	t		15.0	2.5	/experiments/Knapen_AOT/AOT_stimuli/rescaled_final/1333_rv.mp4	0.0	123.5581488609314	
17	108.56422567367554	pulse	1	t		15.0	2.5	/experiments/Knapen_AOT/AOT_stimuli/rescaled_final/1333_rv.mp4	0.0	125.15798783302307	
17	109.0827751159668	fix_post	2		12	15.0	2.5	/experiments/Knapen_AOT/AOT_stimuli/rescaled_final/1333_rv.mp4	0.0	125.67653727531433	0.10007953643798828
18	109.18285465240479	fix_pre	0		119	16.0	2.5	/experiments/Knapen_AOT/AOT_stimuli/rescaled_final/0693_rv.mp4	0.0	125.77661681175232	1.0001423358917236
18	110.16641187667847	pulse	0	t		16.0	2.5	/experiments/Knapen_AOT/AOT_stimuli/rescaled_final/0693_rv.mp4	0.0	126.760174036026	
18	110.18299698829651	movie	1		276	16.0	2.5	/experiments/Knapen_AOT/AOT_stimuli/rescaled_final/0693_rv.mp4	0.0	126.77675914764404	2.5003294944763184
18	111.76517987251282	pulse	1	t		16.0	2.5	/experiments/Knapen_AOT/AOT_stimuli/rescaled_final/0693_rv.mp4	0.0	128.35894203186035	
18	112.68332648277283	fix_post	2		12	16.0	2.5	/experiments/Knapen_AOT/AOT_stimuli/rescaled_final/0693_rv.mp4	0.0	129.27708864212036	0.10001325607299805
19	112.78333973884583	fix_pre	0		120	17.0	2.5	/experiments/Knapen_AOT/AOT_stimuli/rescaled_final/1980_rv.mp4	0.0	129.37710189819336	1.0084781646728516
19	113.36699318885803	pulse	0	t		17.0	2.5	/experiments/Knapen_AOT/AOT_stimuli/rescaled_final/1980_rv.mp4	0.0	129.96075534820557	
19	113.79181790351868	movie	1		289	17.0	2.5	/experiments/Knapen_AOT/AOT_stimuli/rescaled_final/1980_rv.mp4	0.0	130.3855800628662	2.492060661315918
19	114.96528005599976	pulse	1	t		17.0	2.5	/experiments/Knapen_AOT/AOT_stimuli/rescaled_final/1980_rv.mp4	0.0	131.5590422153473	
19	116.2838785648346	fix_post	2		12	17.0	2.5	/experiments/Knapen_AOT/AOT_stimuli/rescaled_final/1980_rv.mp4	0.0	132.87764072418213	0.10000276565551758
20	116.38388133049011	fix_pre	0		120	18.0	2.5	/experiments/Knapen_AOT/AOT_stimuli/rescaled_final/0693_fw.mp4	0.0	132.97764348983765	1.008531093597412
20	116.5674250125885	pulse	0	t		18.0	2.5	/experiments/Knapen_AOT/AOT_stimuli/rescaled_final/0693_fw.mp4	0.0	133.16118717193604	
20	117.39241242408752	movie	1		285	18.0	2.5	/experiments/Knapen_AOT/AOT_stimuli/rescaled_final/0693_fw.mp4	0.0	133.98617458343506	2.4920647144317627
20	118.16601014137268	pulse	1	t		18.0	2.5	/experiments/Knapen_AOT/AOT_stimuli/rescaled_final/0693_fw.mp4	0.0	134.75977230072021	
20	119.76581263542175	pulse	1	t		18.0	2.5	/experiments/Knapen_AOT/AOT_stimuli/rescaled_final/0693_fw.mp4	0.0	136.3595747947693	
20	119.88447713851929	fix_post	2		12	18.0	2.5	/experiments/Knapen_AOT/AOT_stimuli/rescaled_final/0693_fw.mp4	0.0	136.47823929786682	0.09993672370910645
21	119.9844138622284	fix_pre	0		120	19.0	2.5	blank	1.0	136.57817602157593	1.0001521110534668
21	120.98456597328186	movie	1		300	19.0	2.5	blank	1.0	137.5783281326294	2.5003838539123535
21	121.36175775527954	pulse	1	t		19.0	2.5	blank	1.0	137.95551991462708	
21	122.96838188171387	pulse	1	t		19.0	2.5	blank	1.0	139.5621440410614	
21	123.48494982719421	fix_post	2		12	19.0	2.5	blank	1.0	140.07871198654175	0.10016703605651855
22	123.58511686325073	fix_pre	0		119	20.0	2.5	/experiments/Knapen_AOT/AOT_stimuli/rescaled_final/1805_rv.mp4	0.0	140.17887902259827	1.0001952648162842
22	124.56152677536011	pulse	0	t		20.0	2.5	/experiments/Knapen_AOT/AOT_stimuli/rescaled_final/1805_rv.mp4	0.0	141.15528893470764	
22	124.58531212806702	movie	1		295	20.0	2.5	/experiments/Knapen_AOT/AOT_stimuli/rescaled_final/1805_rv.mp4	0.0	141.17907428741455	2.5001401901245117
22	126.16735219955444	pulse	1	t		20.0	2.5	/experiments/Knapen_AOT/AOT_stimuli/rescaled_final/1805_rv.mp4	0.0	142.76111435890198	
22	127.08545231819153	fix_post	2		12	20.0	2.5	/experiments/Knapen_AOT/AOT_stimuli/rescaled_final/1805_rv.mp4	0.0	143.67921447753906	0.10002946853637695
23	127.1854817867279	fix_pre	0		120	21.0	2.5	/experiments/Knapen_AOT/AOT_stimuli/rescaled_final/0333_fw.mp4	0.0	143.77924394607544	1.0085117816925049
23	127.76109218597412	pulse	0	t		21.0	2.5	/experiments/Knapen_AOT/AOT_stimuli/rescaled_final/0333_fw.mp4	0.0	144.35485434532166	
23	128.1939935684204	movie	1		288	21.0	2.5	/experiments/Knapen_AOT/AOT_stimuli/rescaled_final/0333_fw.mp4	0.0	144.78775572776794	2.4920389652252197
23	129.36104941368103	pulse	1	t		21.0	2.5	/experiments/Knapen_AOT/AOT_stimuli/rescaled_final/0333_fw.mp4	0.0	145.95481157302856	
23	130.68603253364563	fix_post	2		12	21.0	2.5	/experiments/Knapen_AOT/AOT_stimuli/rescaled_final/0333_fw.mp4	0.0	147.27979469299316	0.09999299049377441
24	130.7860255241394	fix_pre	0		120	22.0	2.5	/experiments/Knapen_AOT/AOT_stimuli/rescaled_final/1774_rv.mp4	0.0	147.37978768348694	1.0085327625274658
24	130.96132898330688	pulse	0	t		22.0	2.5	/experiments/Knapen_AOT/AOT_stimuli/rescaled_final/1774_rv.mp4	0.0	147.55509114265442	
24	131.79455828666687	movie	1		295	22.0	2.5	/experiments/Knapen_AOT/AOT_stimuli/rescaled_final/1774_rv.mp4	0.0	148.3883204460144	2.491982936859131
24	132.56144285202026	pulse	1	t		22.0	2.5	/experiments/Knapen_AOT/AOT_stimuli/rescaled_final/1774_rv.mp4	0.0	149.1552050113678	
24	134.16182613372803	pulse	1	t		22.0	2.5	/experiments/Knapen_AOT/AOT_stimuli/rescaled_final/1774_rv.mp4	0.0	150.75558829307556	
24	134.286541223526	fix_post	2		12	22.0	2.5	/experiments/Knapen_AOT/AOT_stimuli/rescaled_final/1774_rv.mp4	0.0	150.88030338287354	0.10003089904785156
25	134.38657212257385	fix_pre	0		120	23.0	2.5	/experiments/Knapen_AOT/AOT_stimuli/rescaled_final/1879_rv.mp4	0.0	150.9803342819214	1.0002164840698242
25	135.38678860664368	movie	1		288	23.0	2.5	/experiments/Knapen_AOT/AOT_stimuli/rescaled_final/1879_rv.mp4	0.0	151.9805507659912	2.5002903938293457
25	135.76224756240845	pulse	1	t		23.0	2.5	/experiments/Knapen_AOT/AOT_stimuli/rescaled_final/1879_rv.mp4	0.0	152.35600972175598	
25	137.3621051311493	pulse	1	t		23.0	2.5	/experiments/Knapen_AOT/AOT_stimuli/rescaled_final/1879_rv.mp4	0.0	153.95586729049683	
25	137.88707900047302	fix_post	2		12	23.0	2.5	/experiments/Knapen_AOT/AOT_stimuli/rescaled_final/1879_rv.mp4	0.0	154.48084115982056	0.1000211238861084
26	137.98710012435913	fix_pre	0		118	24.0	2.5	/experiments/Knapen_AOT/AOT_stimuli/rescaled_final/0734_fw.mp4	0.0	154.58086228370667	0.9918465614318848
26	138.9624605178833	pulse	0	t		24.0	2.5	/experiments/Knapen_AOT/AOT_stimuli/rescaled_final/0734_fw.mp4	0.0	155.55622267723083	
26	138.97894668579102	movie	1		291	24.0	2.5	/experiments/Knapen_AOT/AOT_stimuli/rescaled_final/0734_fw.mp4	0.0	155.57270884513855	2.500351667404175
26	140.56270027160645	pulse	1	t		24.0	2.5	/experiments/Knapen_AOT/AOT_stimuli/rescaled_final/0734_fw.mp4	0.0	157.15646243095398	
26	141.4792983531952	fix_post	2		12	24.0	2.5	/experiments/Knapen_AOT/AOT_stimuli/rescaled_final/0734_fw.mp4	0.0	158.07306051254272	0.10002303123474121
27	141.57932138442993	fix_pre	0		120	25.0	2.5	/experiments/Knapen_AOT/AOT_stimuli/rescaled_final/0470_fw.mp4	0.0	158.17308354377747	1.0002152919769287
27	142.16292905807495	pulse	0	t		25.0	2.5	/experiments/Knapen_AOT/AOT_stimuli/rescaled_final/0470_fw.mp4	0.0	158.75669121742249	
27	142.57953667640686	movie	1		297	25.0	2.5	/experiments/Knapen_AOT/AOT_stimuli/rescaled_final/0470_fw.mp4	0.0	159.1732988357544	2.500328302383423
27	143.7632942199707	pulse	1	t		25.0	2.5	/experiments/Knapen_AOT/AOT_stimuli/rescaled_final/0470_fw.mp4	0.0	160.35705637931824	
27	145.07986497879028	fix_post	2		12	25.0	2.5	/experiments/Knapen_AOT/AOT_stimuli/rescaled_final/0470_fw.mp4	0.0	161.67362713813782	0.09998703002929688
28	145.17985200881958	fix_pre	0		120	26.0	2.5	blank	1.0	161.77361416816711	1.0001580715179443
28	145.3633635044098	pulse	0	t		26.0	2.5	blank	1.0	161.95712566375732	
28	146.18001008033752	movie	1		300	26.0	2.5	blank	1.0	162.77377223968506	2.5003745555877686
28	146.96357202529907	pulse	1	t		26.0	2.5	blank	1.0	163.5573341846466	
28	148.56411838531494	pulse	1	t		26.0	2.5	blank	1.0	165.15788054466248	
28	148.6803846359253	fix_post	2		12	26.0	2.5	blank	1.0	165.27414679527283	0.10002517700195312
29	148.78040981292725	fix_pre	0		120	27.0	2.5	/experiments/Knapen_AOT/AOT_stimuli/rescaled_final/0921_fw.mp4	0.0	165.37417197227478	1.0085945129394531
29	149.7890043258667	movie	1		279	27.0	2.5	/experiments/Knapen_AOT/AOT_stimuli/rescaled_final/0921_fw.mp4	0.0	166.38276648521423	2.4919471740722656
29	150.16280841827393	pulse	1	t		27.0	2.5	/experiments/Knapen_AOT/AOT_stimuli/rescaled_final/0921_fw.mp4	0.0	166.75657057762146	
29	151.76216506958008	pulse	1	t		27.0	2.5	/experiments/Knapen_AOT/AOT_stimuli/rescaled_final/0921_fw.mp4	0.0	168.3559272289276	
29	152.28095149993896	fix_post	2		12	27.0	2.5	/experiments/Knapen_AOT/AOT_stimuli/rescaled_final/0921_fw.mp4	0.0	168.8747136592865	0.10000944137573242
30	152.3809609413147	fix_pre	0		119	28.0	2.5	/experiments/Knapen_AOT/AOT_stimuli/rescaled_final/2053_rv.mp4	0.0	168.97472310066223	1.0001566410064697
30	153.36468029022217	pulse	0	t		28.0	2.5	/experiments/Knapen_AOT/AOT_stimuli/rescaled_final/2053_rv.mp4	0.0	169.9584424495697	
30	153.38111758232117	movie	1		273	28.0	2.5	/experiments/Knapen_AOT/AOT_stimuli/rescaled_final/2053_rv.mp4	0.0	169.9748797416687	2.50036358833313
30	154.96336102485657	pulse	1	t		28.0	2.5	/experiments/Knapen_AOT/AOT_stimuli/rescaled_final/2053_rv.mp4	0.0	171.5571231842041	
30	155.8814811706543	fix_post	2		12	28.0	2.5	/experiments/Knapen_AOT/AOT_stimuli/rescaled_final/2053_rv.mp4	0.0	172.47524333000183	0.10001182556152344
31	155.98149299621582	fix_pre	0		120	29.0	2.5	/experiments/Knapen_AOT/AOT_stimuli/rescaled_final/1895_fw.mp4	0.0	172.57525515556335	1.0084960460662842
31	156.5651285648346	pulse	0	t		29.0	2.5	/experiments/Knapen_AOT/AOT_stimuli/rescaled_final/1895_fw.mp4	0.0	173.15889072418213	
31	156.9899890422821	movie	1		279	29.0	2.5	/experiments/Knapen_AOT/AOT_stimuli/rescaled_final/1895_fw.mp4	0.0	173.58375120162964	2.49208402633667
31	158.16359400749207	pulse	1	t		29.0	2.5	/experiments/Knapen_AOT/AOT_stimuli/rescaled_final/1895_fw.mp4	0.0	174.7573561668396	
31	159.48207306861877	fix_post	2		12	29.0	2.5	/experiments/Knapen_AOT/AOT_stimuli/rescaled_final/1895_fw.mp4	0.0	176.0758352279663	0.09996485710144043
32	159.58203792572021	fix_pre	0		120	30.0	2.5	/experiments/Knapen_AOT/AOT_stimuli/rescaled_final/1465_fw.mp4	0.0	176.17580008506775	1.0085055828094482
32	159.76565718650818	pulse	0	t		30.0	2.5	/experiments/Knapen_AOT/AOT_stimuli/rescaled_final/1465_fw.mp4	0.0	176.3594193458557	
32	160.59054350852966	movie	1		287	30.0	2.5	/experiments/Knapen_AOT/AOT_stimuli/rescaled_final/1465_fw.mp4	0.0	177.1843056678772	2.4920313358306885
32	161.36370944976807	pulse	1	t		30.0	2.5	/experiments/Knapen_AOT/AOT_stimuli/rescaled_final/1465_fw.mp4	0.0	177.9574716091156	
32	162.96449303627014	pulse	1	t		30.0	2.5	/experiments/Knapen_AOT/AOT_stimuli/rescaled_final/1465_fw.mp4	0.0	179.55825519561768	
32	163.08257484436035	fix_post	2		12	30.0	2.5	/experiments/Knapen_AOT/AOT_stimuli/rescaled_final/1465_fw.mp4	0.0	179.67633700370789	0.10001516342163086
33	163.18259000778198	fix_pre	0		120	31.0	2.5	/experiments/Knapen_AOT/AOT_stimuli/rescaled_final/1395_rv.mp4	0.0	179.77635216712952	1.0084748268127441
33	164.19106483459473	movie	1		282	31.0	2.5	/experiments/Knapen_AOT/AOT_stimuli/rescaled_final/1395_rv.mp4	0.0	180.78482699394226	2.4920430183410645
33	164.56505966186523	pulse	1	t		31.0	2.5	/experiments/Knapen_AOT/AOT_stimuli/rescaled_final/1395_rv.mp4	0.0	181.15882182121277	
33	166.164813041687	pulse	1	t		31.0	2.5	/experiments/Knapen_AOT/AOT_stimuli/rescaled_final/1395_rv.mp4	0.0	182.75857520103455	
33	166.6831078529358	fix_post	2		12	31.0	2.5	/experiments/Knapen_AOT/AOT_stimuli/rescaled_final/1395_rv.mp4	0.0	183.27687001228333	0.1000220775604248
34	166.78312993049622	fix_pre	0		119	32.0	2.5	/experiments/Knapen_AOT/AOT_stimuli/rescaled_final/1331_fw.mp4	0.0	183.37689208984375	1.0002572536468506
34	167.76678657531738	pulse	0	t		32.0	2.5	/experiments/Knapen_AOT/AOT_stimuli/rescaled_final/1331_fw.mp4	0.0	184.36054873466492	
34	167.78338718414307	movie	1		275	32.0	2.5	/experiments/Knapen_AOT/AOT_stimuli/rescaled_final/1331_fw.mp4	0.0	184.3771493434906	2.5002801418304443
34	169.36554288864136	pulse	1	t		32.0	2.5	/experiments/Knapen_AOT/AOT_stimuli/rescaled_final/1331_fw.mp4	0.0	185.9593050479889	
34	170.2836673259735	fix_post	2		12	32.0	2.5	/experiments/Knapen_AOT/AOT_stimuli/rescaled_final/1331_fw.mp4	0.0	186.87742948532104	0.10003256797790527
35	170.38369989395142	fix_pre	0		120	33.0	2.5	/experiments/Knapen_AOT/AOT_stimuli/rescaled_final/0777_fw.mp4	0.0	186.97746205329895	1.0084939002990723
35	170.9677436351776	pulse	0	t		33.0	2.5	/experiments/Knapen_AOT/AOT_stimuli/rescaled_final/0777_fw.mp4	0.0	187.56150579452515	
35	171.3921937942505	movie	1		278	33.0	2.5	/experiments/Knapen_AOT/AOT_stimuli/rescaled_final/0777_fw.mp4	0.0	187.98595595359802	2.492001533508301
35	172.56599164009094	pulse	1	t		33.0	2.5	/experiments/Knapen_AOT/AOT_stimuli/rescaled_final/0777_fw.mp4	0.0	189.15975379943848	
35	173.8841953277588	fix_post	2		12	33.0	2.5	/experiments/Knapen_AOT/AOT_stimuli/rescaled_final/0777_fw.mp4	0.0	190.47795748710632	0.10001873970031738
36	173.9842140674591	fix_pre	0		120	34.0	2.5	/experiments/Knapen_AOT/AOT_stimuli/rescaled_final/0636_rv.mp4	0.0	190.57797622680664	1.008521556854248
36	174.16084623336792	pulse	0	t		34.0	2.5	/experiments/Knapen_AOT/AOT_stimuli/rescaled_final/0636_rv.mp4	0.0	190.75460839271545	
36	174.99273562431335	movie	1		279	34.0	2.5	/experiments/Knapen_AOT/AOT_stimuli/rescaled_final/0636_rv.mp4	0.0	191.5864977836609	2.492025375366211
36	175.76614093780518	pulse	1	t		34.0	2.5	/experiments/Knapen_AOT/AOT_stimuli/rescaled_final/0636_rv.mp4	0.0	192.3599030971527	
36	177.36719155311584	pulse	1	t		34.0	2.5	/experiments/Knapen_AOT/AOT_stimuli/rescaled_final/0636_rv.mp4	0.0	193.96095371246338	
36	177.48476099967957	fix_post	2		12	34.0	2.5	/experiments/Knapen_AOT/AOT_stimuli/rescaled_final/0636_rv.mp4	0.0	194.0785231590271	0.1000204086303711
37	177.58478140830994	fix_pre	0		120	35.0	2.5	blank	1.0	194.17854356765747	1.000133991241455
37	178.5849153995514	movie	1		300	35.0	2.5	blank	1.0	195.17867755889893	2.5003647804260254
37	178.9605631828308	pulse	1	t		35.0	2.5	blank	1.0	195.55432534217834	
37	180.5605432987213	pulse	1	t		35.0	2.5	blank	1.0	197.15430545806885	
37	181.08528017997742	fix_post	2		12	35.0	2.5	blank	1.0	197.67904233932495	0.10004281997680664
38	181.18532299995422	fix_pre	0		118	36.0	2.5	/experiments/Knapen_AOT/AOT_stimuli/rescaled_final/0701_rv.mp4	0.0	197.77908515930176	1.0001564025878906
38	182.16066598892212	pulse	0	t		36.0	2.5	/experiments/Knapen_AOT/AOT_stimuli/rescaled_final/0701_rv.mp4	0.0	198.75442814826965	
38	182.18547940254211	movie	1		269	36.0	2.5	/experiments/Knapen_AOT/AOT_stimuli/rescaled_final/0701_rv.mp4	0.0	198.77924156188965	2.5003490447998047
38	183.7610023021698	pulse	1	t		36.0	2.5	/experiments/Knapen_AOT/AOT_stimuli/rescaled_final/0701_rv.mp4	0.0	200.35476446151733	
38	184.68582844734192	fix_post	2		11	36.0	2.5	/experiments/Knapen_AOT/AOT_stimuli/rescaled_final/0701_rv.mp4	0.0	201.27959060668945	0.0917356014251709
39	184.7775640487671	fix_pre	0		120	37.0	2.5	/experiments/Knapen_AOT/AOT_stimuli/rescaled_final/0443_fw.mp4	0.0	201.37132620811462	1.0084457397460938
39	185.36118960380554	pulse	0	t		37.0	2.5	/experiments/Knapen_AOT/AOT_stimuli/rescaled_final/0443_fw.mp4	0.0	201.95495176315308	
39	185.78600978851318	movie	1		276	37.0	2.5	/experiments/Knapen_AOT/AOT_stimuli/rescaled_final/0443_fw.mp4	0.0	202.37977194786072	2.4920156002044678
39	186.9613652229309	pulse	1	t		37.0	2.5	/experiments/Knapen_AOT/AOT_stimuli/rescaled_final/0443_fw.mp4	0.0	203.55512738227844	
39	188.27802538871765	fix_post	2		12	37.0	2.5	/experiments/Knapen_AOT/AOT_stimuli/rescaled_final/0443_fw.mp4	0.0	204.87178754806519	0.10001373291015625
40	188.3780391216278	fix_pre	0		120	38.0	2.5	/experiments/Knapen_AOT/AOT_stimuli/rescaled_final/0530_rv.mp4	0.0	204.97180128097534	1.008514404296875
40	188.56181383132935	pulse	0	t		38.0	2.5	/experiments/Knapen_AOT/AOT_stimuli/rescaled_final/0530_rv.mp4	0.0	205.15557599067688	
40	189.38655352592468	movie	1		282	38.0	2.5	/experiments/Knapen_AOT/AOT_stimuli/rescaled_final/0530_rv.mp4	0.0	205.98031568527222	2.4920120239257812
40	190.16192317008972	pulse	1	t		38.0	2.5	/experiments/Knapen_AOT/AOT_stimuli/rescaled_final/0530_rv.mp4	0.0	206.75568532943726	
40	191.76207447052002	pulse	1	t		38.0	2.5	/experiments/Knapen_AOT/AOT_stimuli/rescaled_final/0530_rv.mp4	0.0	208.35583662986755	
40	191.87856554985046	fix_post	2		12	38.0	2.5	/experiments/Knapen_AOT/AOT_stimuli/rescaled_final/0530_rv.mp4	0.0	208.472327709198	0.10002851486206055
41	191.97859406471252	fix_pre	0		120	39.0	2.5	/experiments/Knapen_AOT/AOT_stimuli/rescaled_final/0676_rv.mp4	0.0	208.57235622406006	1.0084805488586426
41	192.98707461357117	movie	1		285	39.0	2.5	/experiments/Knapen_AOT/AOT_stimuli/rescaled_final/0676_rv.mp4	0.0	209.5808367729187	2.492048978805542
41	193.3609642982483	pulse	1	t		39.0	2.5	/experiments/Knapen_AOT/AOT_stimuli/rescaled_final/0676_rv.mp4	0.0	209.95472645759583	
41	194.9610424041748	pulse	1	t		39.0	2.5	/experiments/Knapen_AOT/AOT_stimuli/rescaled_final/0676_rv.mp4	0.0	211.55480456352234	
41	195.4791235923767	fix_post	2		12	39.0	2.5	/experiments/Knapen_AOT/AOT_stimuli/rescaled_final/0676_rv.mp4	0.0	212.07288575172424	0.10001397132873535
42	195.57913756370544	fix_pre	0		119	40.0	2.5	/experiments/Knapen_AOT/AOT_stimuli/rescaled_final/1895_rv.mp4	0.0	212.17289972305298	1.000272512435913
42	196.56285071372986	pulse	0	t		40.0	2.5	/experiments/Knapen_AOT/AOT_stimuli/rescaled_final/1895_rv.mp4	0.0	213.1566128730774	
42	196.57941007614136	movie	1		280	40.0	2.5	/experiments/Knapen_AOT/AOT_stimuli/rescaled_final/1895_rv.mp4	0.0	213.1731722354889	2.5002493858337402
42	198.16310214996338	pulse	1	t		40.0	2.5	/experiments/Knapen_AOT/AOT_stimuli/rescaled_final/1895_rv.mp4	0.0	214.7568643093109	
42	199.0796594619751	fix_post	2		12	40.0	2.5	/experiments/Knapen_AOT/AOT_stimuli/rescaled_final/1895_rv.mp4	0.0	215.67342162132263	0.10003304481506348
43	199.17969250679016	fix_pre	0		120	41.0	2.5	blank	1.0	215.7734546661377	1.000131607055664
43	199.76329636573792	pulse	0	t		41.0	2.5	blank	1.0	216.35705852508545	
43	200.17982411384583	movie	1		300	41.0	2.5	blank	1.0	216.77358627319336	2.50040340423584
43	201.36369633674622	pulse	1	t		41.0	2.5	blank	1.0	217.95745849609375	
43	202.68022751808167	fix_post	2		12	41.0	2.5	blank	1.0	219.2739896774292	0.0999915599822998
44	202.78021907806396	fix_pre	0		120	42.0	2.5	/experiments/Knapen_AOT/AOT_stimuli/rescaled_final/1816_rv.mp4	0.0	219.3739812374115	1.0085184574127197
44	202.9637575149536	pulse	0	t		42.0	2.5	/experiments/Knapen_AOT/AOT_stimuli/rescaled_final/1816_rv.mp4	0.0	219.55751967430115	
44	203.78873753547668	movie	1		276	42.0	2.5	/experiments/Knapen_AOT/AOT_stimuli/rescaled_final/1816_rv.mp4	0.0	220.38249969482422	2.4920144081115723
44	204.56259441375732	pulse	1	t		42.0	2.5	/experiments/Knapen_AOT/AOT_stimuli/rescaled_final/1816_rv.mp4	0.0	221.15635657310486	
44	206.16239142417908	pulse	1	t		42.0	2.5	/experiments/Knapen_AOT/AOT_stimuli/rescaled_final/1816_rv.mp4	0.0	222.7561535835266	
44	206.28075194358826	fix_post	2		12	42.0	2.5	/experiments/Knapen_AOT/AOT_stimuli/rescaled_final/1816_rv.mp4	0.0	222.8745141029358	0.10002446174621582
45	206.38077640533447	fix_pre	0		120	43.0	2.5	/experiments/Knapen_AOT/AOT_stimuli/rescaled_final/0688_fw.mp4	0.0	222.974538564682	1.0085086822509766
45	207.38928508758545	movie	1		279	43.0	2.5	/experiments/Knapen_AOT/AOT_stimuli/rescaled_final/0688_fw.mp4	0.0	223.98304724693298	2.4919910430908203
45	207.7635681629181	pulse	1	t		43.0	2.5	/experiments/Knapen_AOT/AOT_stimuli/rescaled_final/0688_fw.mp4	0.0	224.35733032226562	
45	209.36350202560425	pulse	1	t		43.0	2.5	/experiments/Knapen_AOT/AOT_stimuli/rescaled_final/0688_fw.mp4	0.0	225.95726418495178	
45	209.88127613067627	fix_post	2		12	43.0	2.5	/experiments/Knapen_AOT/AOT_stimuli/rescaled_final/0688_fw.mp4	0.0	226.4750382900238	0.1000664234161377
46	209.9813425540924	fix_pre	0		119	44.0	2.5	/experiments/Knapen_AOT/AOT_stimuli/rescaled_final/0883_rv.mp4	0.0	226.57510471343994	1.000206708908081
46	210.96497917175293	pulse	0	t		44.0	2.5	/experiments/Knapen_AOT/AOT_stimuli/rescaled_final/0883_rv.mp4	0.0	227.55874133110046	
46	210.9815492630005	movie	1		280	44.0	2.5	/experiments/Knapen_AOT/AOT_stimuli/rescaled_final/0883_rv.mp4	0.0	227.57531142234802	2.500277042388916
46	212.56390261650085	pulse	1	t		44.0	2.5	/experiments/Knapen_AOT/AOT_stimuli/rescaled_final/0883_rv.mp4	0.0	229.1576647758484	
46	213.4818263053894	fix_post	2		12	44.0	2.5	/experiments/Knapen_AOT/AOT_stimuli/rescaled_final/0883_rv.mp4	0.0	230.07558846473694	0.1000516414642334
47	213.58187794685364	fix_pre	0		120	45.0	2.5	/experiments/Knapen_AOT/AOT_stimuli/rescaled_final/1294_rv.mp4	0.0	230.17564010620117	1.0085678100585938
47	214.16554832458496	pulse	0	t		45.0	2.5	/experiments/Knapen_AOT/AOT_stimuli/rescaled_final/1294_rv.mp4	0.0	230.7593104839325	
47	214.59044575691223	movie	1		274	45.0	2.5	/experiments/Knapen_AOT/AOT_stimuli/rescaled_final/1294_rv.mp4	0.0	231.18420791625977	2.491926908493042
47	215.76356506347656	pulse	1	t		45.0	2.5	/experiments/Knapen_AOT/AOT_stimuli/rescaled_final/1294_rv.mp4	0.0	232.3573272228241	
47	217.08237266540527	fix_post	2		12	45.0	2.5	/experiments/Knapen_AOT/AOT_stimuli/rescaled_final/1294_rv.mp4	0.0	233.6761348247528	0.10003447532653809
48	217.1824071407318	fix_pre	0		104	46.0	2.5	/experiments/Knapen_AOT/AOT_stimuli/rescaled_final/0419_fw.mp4	0.0	233.77616930007935	1.0001912117004395
48	217.36602067947388	pulse	0	t		46.0	2.5	/experiments/Knapen_AOT/AOT_stimuli/rescaled_final/0419_fw.mp4	0.0	233.9597828388214	
48	218.18259835243225	movie	1		276	46.0	2.5	/experiments/Knapen_AOT/AOT_stimuli/rescaled_final/0419_fw.mp4	0.0	234.77636051177979	2.50042986869812
48	218.96496605873108	pulse	1	t		46.0	2.5	/experiments/Knapen_AOT/AOT_stimuli/rescaled_final/0419_fw.mp4	0.0	235.5587282180786	
48	220.5649175643921	pulse	1	t		46.0	2.5	/experiments/Knapen_AOT/AOT_stimuli/rescaled_final/0419_fw.mp4	0.0	237.15867972373962	
48	220.68302822113037	fix_post	2		12	46.0	2.5	/experiments/Knapen_AOT/AOT_stimuli/rescaled_final/0419_fw.mp4	0.0	237.2767903804779	0.09994626045227051
49	220.78297448158264	fix_pre	0		120	47.0	2.5	/experiments/Knapen_AOT/AOT_stimuli/rescaled_final/0909_rv.mp4	0.0	237.37673664093018	1.008429765701294
49	221.79140424728394	movie	1		268	47.0	2.5	/experiments/Knapen_AOT/AOT_stimuli/rescaled_final/0909_rv.mp4	0.0	238.38516640663147	2.4920413494110107
49	222.16713690757751	pulse	1	t		47.0	2.5	/experiments/Knapen_AOT/AOT_stimuli/rescaled_final/0909_rv.mp4	0.0	238.76089906692505	
49	223.7648265361786	pulse	1	t		47.0	2.5	/experiments/Knapen_AOT/AOT_stimuli/rescaled_final/0909_rv.mp4	0.0	240.35858869552612	
49	224.28344559669495	fix_post	2		12	47.0	2.5	/experiments/Knapen_AOT/AOT_stimuli/rescaled_final/0909_rv.mp4	0.0	240.87720775604248	0.10010266304016113
50	224.3835482597351	fix_pre	0		119	48.0	2.5	blank	1.0	240.97731041908264	0.9917190074920654
50	225.36754179000854	pulse	0	t		48.0	2.5	blank	1.0	241.96130394935608	
50	225.37526726722717	movie	1		301	48.0	2.5	blank	1.0	241.9690294265747	2.5087177753448486
50	226.96745324134827	pulse	1	t		48.0	2.5	blank	1.0	243.5612154006958	
50	227.88398504257202	fix_post	2		12	48.0	2.5	blank	1.0	244.47774720191956	0.10004854202270508
51	227.98403358459473	fix_pre	0		120	49.0	2.5	/experiments/Knapen_AOT/AOT_stimuli/rescaled_final/2152_rv.mp4	0.0	244.57779574394226	1.008516550064087
51	228.5679895877838	pulse	0	t		49.0	2.5	/experiments/Knapen_AOT/AOT_stimuli/rescaled_final/2152_rv.mp4	0.0	245.16175174713135	
51	228.9925501346588	movie	1		284	49.0	2.5	/experiments/Knapen_AOT/AOT_stimuli/rescaled_final/2152_rv.mp4	0.0	245.58631229400635	2.4919939041137695
51	230.16606950759888	pulse	1	t		49.0	2.5	/experiments/Knapen_AOT/AOT_stimuli/rescaled_final/2152_rv.mp4	0.0	246.7598316669464	
51	231.48454403877258	fix_post	2		12	49.0	2.5	/experiments/Knapen_AOT/AOT_stimuli/rescaled_final/2152_rv.mp4	0.0	248.07830619812012	0.1000070571899414
52	231.58455109596252	fix_pre	0		120	50.0	2.5	/experiments/Knapen_AOT/AOT_stimuli/rescaled_final/0290_fw.mp4	0.0	248.17831325531006	1.0085351467132568
52	231.76843166351318	pulse	0	t		50.0	2.5	/experiments/Knapen_AOT/AOT_stimuli/rescaled_final/0290_fw.mp4	0.0	248.36219382286072	
52	232.59308624267578	movie	1		283	50.0	2.5	/experiments/Knapen_AOT/AOT_stimuli/rescaled_final/0290_fw.mp4	0.0	249.18684840202332	2.4919931888580322
52	233.36645245552063	pulse	1	t		50.0	2.5	/experiments/Knapen_AOT/AOT_stimuli/rescaled_final/0290_fw.mp4	0.0	249.96021461486816	
52	234.9687762260437	pulse	1	t		50.0	2.5	/experiments/Knapen_AOT/AOT_stimuli/rescaled_final/0290_fw.mp4	0.0	251.56253838539124	
52	235.0850794315338	fix_post	2		12	50.0	2.5	/experiments/Knapen_AOT/AOT_stimuli/rescaled_final/0290_fw.mp4	0.0	251.67884159088135	0.10006952285766602
53	235.18514895439148	fix_pre	0		120	51.0	2.5	/experiments/Knapen_AOT/AOT_stimuli/rescaled_final/1435_fw.mp4	0.0	251.778911113739	1.0084781646728516
53	236.19362711906433	movie	1		282	51.0	2.5	/experiments/Knapen_AOT/AOT_stimuli/rescaled_final/1435_fw.mp4	0.0	252.78738927841187	2.4919962882995605
53	236.56748914718628	pulse	1	t		51.0	2.5	/experiments/Knapen_AOT/AOT_stimuli/rescaled_final/1435_fw.mp4	0.0	253.1612513065338	
53	238.16101360321045	pulse	1	t		51.0	2.5	/experiments/Knapen_AOT/AOT_stimuli/rescaled_final/1435_fw.mp4	0.0	254.75477576255798	
53	238.6856234073639	fix_post	2		12	51.0	2.5	/experiments/Knapen_AOT/AOT_stimuli/rescaled_final/1435_fw.mp4	0.0	255.27938556671143	0.1000206470489502
54	238.78564405441284	fix_pre	0		118	52.0	2.5	/experiments/Knapen_AOT/AOT_stimuli/rescaled_final/0851_rv.mp4	0.0	255.37940621376038	0.9917876720428467
54	239.76120781898499	pulse	0	t		52.0	2.5	/experiments/Knapen_AOT/AOT_stimuli/rescaled_final/0851_rv.mp4	0.0	256.3549699783325	
54	239.7774317264557	movie	1		285	52.0	2.5	/experiments/Knapen_AOT/AOT_stimuli/rescaled_final/0851_rv.mp4	0.0	256.3711938858032	2.50878643989563
54	241.36152720451355	pulse	1	t		52.0	2.5	/experiments/Knapen_AOT/AOT_stimuli/rescaled_final/0851_rv.mp4	0.0	257.9552893638611	
54	242.28621816635132	fix_post	2		11	52.0	2.5	/experiments/Knapen_AOT/AOT_stimuli/rescaled_final/0851_rv.mp4	0.0	258.87998032569885	0.09161019325256348
55	242.37782835960388	fix_pre	0		120	53.0	2.5	/experiments/Knapen_AOT/AOT_stimuli/rescaled_final/2063_fw.mp4	0.0	258.9715905189514	1.008558750152588
55	242.9615180492401	pulse	0	t		53.0	2.5	/experiments/Knapen_AOT/AOT_stimuli/rescaled_final/2063_fw.mp4	0.0	259.55528020858765	
55	243.38638710975647	movie	1		266	53.0	2.5	/experiments/Knapen_AOT/AOT_stimuli/rescaled_final/2063_fw.mp4	0.0	259.980149269104	2.4920079708099365
55	244.56186628341675	pulse	1	t		53.0	2.5	/experiments/Knapen_AOT/AOT_stimuli/rescaled_final/2063_fw.mp4	0.0	261.1556284427643	
55	245.8783950805664	fix_post	2		12	53.0	2.5	/experiments/Knapen_AOT/AOT_stimuli/rescaled_final/2063_fw.mp4	0.0	262.47215723991394	0.10000181198120117
56	245.9783968925476	fix_pre	0		120	54.0	2.5	/experiments/Knapen_AOT/AOT_stimuli/rescaled_final/2012_fw.mp4	0.0	262.57215905189514	1.008471965789795
56	246.1619746685028	pulse	0	t		54.0	2.5	/experiments/Knapen_AOT/AOT_stimuli/rescaled_final/2012_fw.mp4	0.0	262.75573682785034	
56	246.9868688583374	movie	1		270	54.0	2.5	/experiments/Knapen_AOT/AOT_stimuli/rescaled_final/2012_fw.mp4	0.0	263.58063101768494	2.4920406341552734
56	247.76107335090637	pulse	1	t		54.0	2.5	/experiments/Knapen_AOT/AOT_stimuli/rescaled_final/2012_fw.mp4	0.0	264.3548355102539	
56	249.3626046180725	pulse	1	t		54.0	2.5	/experiments/Knapen_AOT/AOT_stimuli/rescaled_final/2012_fw.mp4	0.0	265.95636677742004	
56	249.47890949249268	fix_post	2		12	54.0	2.5	/experiments/Knapen_AOT/AOT_stimuli/rescaled_final/2012_fw.mp4	0.0	266.0726716518402	0.10001707077026367
57	249.57892656326294	fix_pre	0		120	55.0	2.5	blank	1.0	266.1726887226105	1.000169277191162
57	250.5790958404541	movie	1		300	55.0	2.5	blank	1.0	267.17285799980164	2.5003583431243896
57	250.96266770362854	pulse	1	t		55.0	2.5	blank	1.0	267.5564298629761	
57	252.56295466423035	pulse	1	t		55.0	2.5	blank	1.0	269.1567168235779	
57	253.0794541835785	fix_post	2		12	55.0	2.5	blank	1.0	269.673216342926	0.10000753402709961
58	253.1794617176056	fix_pre	0		119	56.0	2.5	/experiments/Knapen_AOT/AOT_stimuli/rescaled_final/1721_rv.mp4	0.0	269.7732238769531	1.0085268020629883
58	254.16332530975342	pulse	0	t		56.0	2.5	/experiments/Knapen_AOT/AOT_stimuli/rescaled_final/1721_rv.mp4	0.0	270.75708746910095	
58	254.18798851966858	movie	1		279	56.0	2.5	/experiments/Knapen_AOT/AOT_stimuli/rescaled_final/1721_rv.mp4	0.0	270.7817506790161	2.4920012950897217
58	255.7620177268982	pulse	1	t		56.0	2.5	/experiments/Knapen_AOT/AOT_stimuli/rescaled_final/1721_rv.mp4	0.0	272.3557798862457	
58	256.6799898147583	fix_post	2		12	56.0	2.5	/experiments/Knapen_AOT/AOT_stimuli/rescaled_final/1721_rv.mp4	0.0	273.27375197410583	0.10000419616699219
59	256.7799940109253	fix_pre	0		120	57.0	2.5	/experiments/Knapen_AOT/AOT_stimuli/rescaled_final/1108_fw.mp4	0.0	273.3737561702728	1.0085299015045166
59	257.3636939525604	pulse	0	t		57.0	2.5	/experiments/Knapen_AOT/AOT_stimuli/rescaled_final/1108_fw.mp4	0.0	273.95745611190796	
59	257.7885239124298	movie	1		282	57.0	2.5	/experiments/Knapen_AOT/AOT_stimuli/rescaled_final/1108_fw.mp4	0.0	274.38228607177734	2.4920153617858887
59	258.9625952243805	pulse	1	t		57.0	2.5	/experiments/Knapen_AOT/AOT_stimuli/rescaled_final/1108_fw.mp4	0.0	275.556357383728	
59	260.2805392742157	fix_post	2		12	57.0	2.5	/experiments/Knapen_AOT/AOT_stimuli/rescaled_final/1108_fw.mp4	0.0	276.87430143356323	0.10001349449157715
60	260.3805527687073	fix_pre	0		120	58.0	2.5	/experiments/Knapen_AOT/AOT_stimuli/rescaled_final/0082_fw.mp4	0.0	276.9743149280548	1.0085575580596924
60	260.56416511535645	pulse	0	t		58.0	2.5	/experiments/Knapen_AOT/AOT_stimuli/rescaled_final/0082_fw.mp4	0.0	277.157927274704	
60	261.38911032676697	movie	1		277	58.0	2.5	/experiments/Knapen_AOT/AOT_stimuli/rescaled_final/0082_fw.mp4	0.0	277.9828724861145	2.492004632949829
60	262.16437339782715	pulse	1	t		58.0	2.5	/experiments/Knapen_AOT/AOT_stimuli/rescaled_final/0082_fw.mp4	0.0	278.7581355571747	
60	263.7630138397217	pulse	1	t		58.0	2.5	/experiments/Knapen_AOT/AOT_stimuli/rescaled_final/0082_fw.mp4	0.0	280.3567759990692	
60	263.8811149597168	fix_post	2		12	58.0	2.5	/experiments/Knapen_AOT/AOT_stimuli/rescaled_final/0082_fw.mp4	0.0	280.47487711906433	0.09996461868286133
61	263.98107957839966	fix_pre	0		120	59.0	2.5	/experiments/Knapen_AOT/AOT_stimuli/rescaled_final/1455_rv.mp4	0.0	280.5748417377472	1.0086510181427002
61	264.98973059654236	movie	1		283	59.0	2.5	/experiments/Knapen_AOT/AOT_stimuli/rescaled_final/1455_rv.mp4	0.0	281.5834927558899	2.491891384124756
61	265.36294627189636	pulse	1	t		59.0	2.5	/experiments/Knapen_AOT/AOT_stimuli/rescaled_final/1455_rv.mp4	0.0	281.9567084312439	
61	266.963077545166	pulse	1	t		59.0	2.5	/experiments/Knapen_AOT/AOT_stimuli/rescaled_final/1455_rv.mp4	0.0	283.55683970451355	
61	267.4816219806671	fix_post	2		12	59.0	2.5	/experiments/Knapen_AOT/AOT_stimuli/rescaled_final/1455_rv.mp4	0.0	284.07538414001465	0.10003852844238281
62	267.5816605091095	fix_pre	0		119	60.0	2.5	/experiments/Knapen_AOT/AOT_stimuli/rescaled_final/1549_rv.mp4	0.0	284.17542266845703	1.0002503395080566
62	268.56549644470215	pulse	0	t		60.0	2.5	/experiments/Knapen_AOT/AOT_stimuli/rescaled_final/1549_rv.mp4	0.0	285.1592586040497	
62	268.58191084861755	movie	1		290	60.0	2.5	/experiments/Knapen_AOT/AOT_stimuli/rescaled_final/1549_rv.mp4	0.0	285.1756730079651	2.5002448558807373
62	270.1641848087311	pulse	1	t		60.0	2.5	/experiments/Knapen_AOT/AOT_stimuli/rescaled_final/1549_rv.mp4	0.0	286.7579469680786	
62	271.0821557044983	fix_post	2		12	60.0	2.5	/experiments/Knapen_AOT/AOT_stimuli/rescaled_final/1549_rv.mp4	0.0	287.6759178638458	0.10005927085876465
63	271.18221497535706	fix_pre	0		120	61.0	2.5	/experiments/Knapen_AOT/AOT_stimuli/rescaled_final/0431_rv.mp4	0.0	287.7759771347046	1.0084872245788574
63	271.76587557792664	pulse	0	t		61.0	2.5	/experiments/Knapen_AOT/AOT_stimuli/rescaled_final/0431_rv.mp4	0.0	288.35963773727417	
63	272.1907021999359	movie	1		285	61.0	2.5	/experiments/Knapen_AOT/AOT_stimuli/rescaled_final/0431_rv.mp4	0.0	288.78446435928345	2.492013692855835
63	273.36428666114807	pulse	1	t		61.0	2.5	/experiments/Knapen_AOT/AOT_stimuli/rescaled_final/0431_rv.mp4	0.0	289.9580488204956	
63	274.68271589279175	fix_post	2		12	61.0	2.5	/experiments/Knapen_AOT/AOT_stimuli/rescaled_final/0431_rv.mp4	0.0	291.2764780521393	0.10000133514404297
64	274.7827172279358	fix_pre	0		120	62.0	2.5	blank	1.0	291.3764793872833	1.0001404285430908
64	274.96630692481995	pulse	0	t		62.0	2.5	blank	1.0	291.5600690841675	
64	275.7828576564789	movie	1		300	62.0	2.5	blank	1.0	292.3766198158264	2.500398874282837
64	276.5665318965912	pulse	1	t		62.0	2.5	blank	1.0	293.1602940559387	
64	278.16694355010986	pulse	1	t		62.0	2.5	blank	1.0	294.7607057094574	
64	278.2832565307617	fix_post	2		12	62.0	2.5	blank	1.0	294.87701869010925	0.09999895095825195
65	278.38325548171997	fix_pre	0		120	63.0	2.5	/experiments/Knapen_AOT/AOT_stimuli/rescaled_final/1901_fw.mp4	0.0	294.9770176410675	1.0086719989776611
65	279.39192748069763	movie	1		275	63.0	2.5	/experiments/Knapen_AOT/AOT_stimuli/rescaled_final/1901_fw.mp4	0.0	295.98568964004517	2.4918575286865234
65	279.7654809951782	pulse	1	t		63.0	2.5	/experiments/Knapen_AOT/AOT_stimuli/rescaled_final/1901_fw.mp4	0.0	296.35924315452576	
65	281.36575531959534	pulse	1	t		63.0	2.5	/experiments/Knapen_AOT/AOT_stimuli/rescaled_final/1901_fw.mp4	0.0	297.95951747894287	
65	281.88378500938416	fix_post	2		12	63.0	2.5	/experiments/Knapen_AOT/AOT_stimuli/rescaled_final/1901_fw.mp4	0.0	298.4775471687317	0.10004281997680664
66	281.98382782936096	fix_pre	0		119	64.0	2.5	/experiments/Knapen_AOT/AOT_stimuli/rescaled_final/2001_rv.mp4	0.0	298.5775899887085	1.0001962184906006
66	282.9675395488739	pulse	0	t		64.0	2.5	/experiments/Knapen_AOT/AOT_stimuli/rescaled_final/2001_rv.mp4	0.0	299.56130170822144	
66	282.98402404785156	movie	1		278	64.0	2.5	/experiments/Knapen_AOT/AOT_stimuli/rescaled_final/2001_rv.mp4	0.0	299.5777862071991	2.500305414199829
66	284.56612515449524	pulse	1	t		64.0	2.5	/experiments/Knapen_AOT/AOT_stimuli/rescaled_final/2001_rv.mp4	0.0	301.1598873138428	
66	285.4843294620514	fix_post	2		12	64.0	2.5	/experiments/Knapen_AOT/AOT_stimuli/rescaled_final/2001_rv.mp4	0.0	302.0780916213989	0.1000218391418457
67	285.58435130119324	fix_pre	0		120	65.0	2.5	/experiments/Knapen_AOT/AOT_stimuli/rescaled_final/1654_rv.mp4	0.0	302.17811346054077	1.0084915161132812
67	286.1681354045868	pulse	0	t		65.0	2.5	/experiments/Knapen_AOT/AOT_stimuli/rescaled_final/1654_rv.mp4	0.0	302.7618975639343	
67	286.5928428173065	movie	1		273	65.0	2.5	/experiments/Knapen_AOT/AOT_stimuli/rescaled_final/1654_rv.mp4	0.0	303.18660497665405	2.492013931274414
67	287.7668225765228	pulse	1	t		65.0	2.5	/experiments/Knapen_AOT/AOT_stimuli/rescaled_final/1654_rv.mp4	0.0	304.36058473587036	
67	289.08485674858093	fix_post	2		12	65.0	2.5	/experiments/Knapen_AOT/AOT_stimuli/rescaled_final/1654_rv.mp4	0.0	305.67861890792847	0.10002827644348145
68	289.1848850250244	fix_pre	0		120	66.0	2.5	/experiments/Knapen_AOT/AOT_stimuli/rescaled_final/0851_fw.mp4	0.0	305.77864718437195	1.0085158348083496
68	289.36852765083313	pulse	0	t		66.0	2.5	/experiments/Knapen_AOT/AOT_stimuli/rescaled_final/0851_fw.mp4	0.0	305.96228981018066	
68	290.19340085983276	movie	1		272	66.0	2.5	/experiments/Knapen_AOT/AOT_stimuli/rescaled_final/0851_fw.mp4	0.0	306.7871630191803	2.49200439453125
68	290.96729588508606	pulse	1	t		66.0	2.5	/experiments/Knapen_AOT/AOT_stimuli/rescaled_final/0851_fw.mp4	0.0	307.5610580444336	
68	292.5670659542084	pulse	1	t		66.0	2.5	/experiments/Knapen_AOT/AOT_stimuli/rescaled_final/0851_fw.mp4	0.0	309.1608281135559	
68	292.685405254364	fix_post	2		12	66.0	2.5	/experiments/Knapen_AOT/AOT_stimuli/rescaled_final/0851_fw.mp4	0.0	309.27916741371155	0.10002398490905762
69	292.78542923927307	fix_pre	0		120	67.0	2.5	/experiments/Knapen_AOT/AOT_stimuli/rescaled_final/1589_rv.mp4	0.0	309.3791913986206	1.008493423461914
69	293.793922662735	movie	1		274	67.0	2.5	/experiments/Knapen_AOT/AOT_stimuli/rescaled_final/1589_rv.mp4	0.0	310.3876848220825	2.4920859336853027
69	294.1678092479706	pulse	1	t		67.0	2.5	/experiments/Knapen_AOT/AOT_stimuli/rescaled_final/1589_rv.mp4	0.0	310.7615714073181	
69	295.76742601394653	pulse	1	t		67.0	2.5	/experiments/Knapen_AOT/AOT_stimuli/rescaled_final/1589_rv.mp4	0.0	312.36118817329407	
69	296.2860085964203	fix_post	2		12	67.0	2.5	/experiments/Knapen_AOT/AOT_stimuli/rescaled_final/1589_rv.mp4	0.0	312.8797707557678	0.10007214546203613
70	296.3860807418823	fix_pre	0		118	68.0	2.5	blank	1.0	312.97984290122986	0.9833598136901855
70	297.3615200519562	pulse	0	t		68.0	2.5	blank	1.0	313.9552822113037	
70	297.3694405555725	movie	1		301	68.0	2.5	blank	1.0	313.96320271492004	2.5087075233459473
70	298.9618537425995	pulse	1	t		68.0	2.5	blank	1.0	315.555615901947	
70	299.87814807891846	fix_post	2		12	68.0	2.5	blank	1.0	316.471910238266	0.10002565383911133
71	299.97817373275757	fix_pre	0		120	69.0	2.5	/experiments/Knapen_AOT/AOT_stimuli/rescaled_final/2178_rv.mp4	0.0	316.5719358921051	1.0086631774902344
71	300.5619246959686	pulse	0	t		69.0	2.5	/experiments/Knapen_AOT/AOT_stimuli/rescaled_final/2178_rv.mp4	0.0	317.15568685531616	
71	300.9868369102478	movie	1		266	69.0	2.5	/experiments/Knapen_AOT/AOT_stimuli/rescaled_final/2178_rv.mp4	0.0	317.58059906959534	2.491905689239502
71	302.1622714996338	pulse	1	t		69.0	2.5	/experiments/Knapen_AOT/AOT_stimuli/rescaled_final/2178_rv.mp4	0.0	318.7560336589813	
71	303.4787425994873	fix_post	2		12	69.0	2.5	/experiments/Knapen_AOT/AOT_stimuli/rescaled_final/2178_rv.mp4	0.0	320.07250475883484	0.09996294975280762
72	303.5787055492401	fix_pre	0		120	70.0	2.5	/experiments/Knapen_AOT/AOT_stimuli/rescaled_final/1740_rv.mp4	0.0	320.17246770858765	1.0085008144378662
72	303.76230549812317	pulse	0	t		70.0	2.5	/experiments/Knapen_AOT/AOT_stimuli/rescaled_final/1740_rv.mp4	0.0	320.3560676574707	
72	304.587206363678	movie	1		286	70.0	2.5	/experiments/Knapen_AOT/AOT_stimuli/rescaled_final/1740_rv.mp4	0.0	321.1809685230255	2.4920713901519775
72	305.3629631996155	pulse	1	t		70.0	2.5	/experiments/Knapen_AOT/AOT_stimuli/rescaled_final/1740_rv.mp4	0.0	321.956725358963	
72	306.96271324157715	pulse	1	t		70.0	2.5	/experiments/Knapen_AOT/AOT_stimuli/rescaled_final/1740_rv.mp4	0.0	323.5564754009247	
72	307.07927775382996	fix_post	2		12	70.0	2.5	/experiments/Knapen_AOT/AOT_stimuli/rescaled_final/1740_rv.mp4	0.0	323.6730399131775	0.09998202323913574
73	307.1792597770691	fix_pre	0		120	71.0	2.5	/experiments/Knapen_AOT/AOT_stimuli/rescaled_final/0284_rv.mp4	0.0	323.7730219364166	1.0085372924804688
73	308.18779706954956	movie	1		276	71.0	2.5	/experiments/Knapen_AOT/AOT_stimuli/rescaled_final/0284_rv.mp4	0.0	324.7815592288971	2.491973876953125
73	308.5632026195526	pulse	1	t		71.0	2.5	/experiments/Knapen_AOT/AOT_stimuli/rescaled_final/0284_rv.mp4	0.0	325.15696477890015	
73	310.1632339954376	pulse	1	t		71.0	2.5	/experiments/Knapen_AOT/AOT_stimuli/rescaled_final/0284_rv.mp4	0.0	326.75699615478516	
73	310.6797709465027	fix_post	2		12	71.0	2.5	/experiments/Knapen_AOT/AOT_stimuli/rescaled_final/0284_rv.mp4	0.0	327.2735331058502	0.10001897811889648
74	310.7797899246216	fix_pre	0		119	72.0	2.5	/experiments/Knapen_AOT/AOT_stimuli/rescaled_final/1956_fw.mp4	0.0	327.3735520839691	1.000211477279663
74	311.76349425315857	pulse	0	t		72.0	2.5	/experiments/Knapen_AOT/AOT_stimuli/rescaled_final/1956_fw.mp4	0.0	328.3572564125061	
74	311.78000140190125	movie	1		273	72.0	2.5	/experiments/Knapen_AOT/AOT_stimuli/rescaled_final/1956_fw.mp4	0.0	328.3737635612488	2.500349521636963
74	313.3622670173645	pulse	1	t		72.0	2.5	/experiments/Knapen_AOT/AOT_stimuli/rescaled_final/1956_fw.mp4	0.0	329.95602917671204	
74	314.2803509235382	fix_post	2		12	72.0	2.5	/experiments/Knapen_AOT/AOT_stimuli/rescaled_final/1956_fw.mp4	0.0	330.87411308288574	0.0999917984008789
75	314.3803427219391	fix_pre	0		120	73.0	2.5	/experiments/Knapen_AOT/AOT_stimuli/rescaled_final/0651_fw.mp4	0.0	330.9741048812866	1.0085079669952393
75	314.96394538879395	pulse	0	t		73.0	2.5	/experiments/Knapen_AOT/AOT_stimuli/rescaled_final/0651_fw.mp4	0.0	331.5577075481415	
75	315.3888506889343	movie	1		276	73.0	2.5	/experiments/Knapen_AOT/AOT_stimuli/rescaled_final/0651_fw.mp4	0.0	331.98261284828186	2.49204158782959
75	316.5627248287201	pulse	1	t		73.0	2.5	/experiments/Knapen_AOT/AOT_stimuli/rescaled_final/0651_fw.mp4	0.0	333.1564869880676	
75	317.8808922767639	fix_post	2		12	73.0	2.5	/experiments/Knapen_AOT/AOT_stimuli/rescaled_final/0651_fw.mp4	0.0	334.47465443611145	0.09997081756591797
76	317.98086309432983	fix_pre	0		120	74.0	2.5	/experiments/Knapen_AOT/AOT_stimuli/rescaled_final/1721_fw.mp4	0.0	334.57462525367737	1.008509635925293
76	318.16448855400085	pulse	0	t		74.0	2.5	/experiments/Knapen_AOT/AOT_stimuli/rescaled_final/1721_fw.mp4	0.0	334.7582507133484	
76	318.9893727302551	movie	1		285	74.0	2.5	/experiments/Knapen_AOT/AOT_stimuli/rescaled_final/1721_fw.mp4	0.0	335.58313488960266	2.492307662963867
76	319.7629725933075	pulse	1	t		74.0	2.5	/experiments/Knapen_AOT/AOT_stimuli/rescaled_final/1721_fw.mp4	0.0	336.35673475265503	
76	321.36309123039246	pulse	1	t		74.0	2.5	/experiments/Knapen_AOT/AOT_stimuli/rescaled_final/1721_fw.mp4	0.0	337.95685338974	
76	321.481680393219	fix_post	2		12	74.0	2.5	/experiments/Knapen_AOT/AOT_stimuli/rescaled_final/1721_fw.mp4	0.0	338.0754425525665	0.0997774600982666
77	321.58145785331726	fix_pre	0		120	75.0	2.5	blank	1.0	338.1752200126648	1.0000712871551514
77	322.5815291404724	movie	1		300	75.0	2.5	blank	1.0	339.17529129981995	2.50042986869812
77	322.9651868343353	pulse	1	t		75.0	2.5	blank	1.0	339.55894899368286	
77	324.56544041633606	pulse	1	t		75.0	2.5	blank	1.0	341.1592025756836	
77	325.08195900917053	fix_post	2		12	75.0	2.5	blank	1.0	341.67572116851807	0.10001945495605469
78	325.1819784641266	fix_pre	0		119	76.0	2.5	/experiments/Knapen_AOT/AOT_stimuli/rescaled_final/1395_fw.mp4	0.0	341.7757406234741	1.000154972076416
78	326.1658778190613	pulse	0	t		76.0	2.5	/experiments/Knapen_AOT/AOT_stimuli/rescaled_final/1395_fw.mp4	0.0	342.7596399784088	
78	326.182133436203	movie	1		268	76.0	2.5	/experiments/Knapen_AOT/AOT_stimuli/rescaled_final/1395_fw.mp4	0.0	342.77589559555054	2.500347375869751
78	327.7662787437439	pulse	1	t		76.0	2.5	/experiments/Knapen_AOT/AOT_stimuli/rescaled_final/1395_fw.mp4	0.0	344.36004090309143	
78	328.68248081207275	fix_post	2		12	76.0	2.5	/experiments/Knapen_AOT/AOT_stimuli/rescaled_final/1395_fw.mp4	0.0	345.2762429714203	0.10002446174621582
79	328.78250527381897	fix_pre	0		120	77.0	2.5	/experiments/Knapen_AOT/AOT_stimuli/rescaled_final/1554_rv.mp4	0.0	345.3762674331665	1.0084874629974365
79	329.3663878440857	pulse	0	t		77.0	2.5	/experiments/Knapen_AOT/AOT_stimuli/rescaled_final/1554_rv.mp4	0.0	345.9601500034332	
79	329.7909927368164	movie	1		285	77.0	2.5	/experiments/Knapen_AOT/AOT_stimuli/rescaled_final/1554_rv.mp4	0.0	346.38475489616394	2.492013692855835
79	330.96660828590393	pulse	1	t		77.0	2.5	/experiments/Knapen_AOT/AOT_stimuli/rescaled_final/1554_rv.mp4	0.0	347.56037044525146	
79	332.28300642967224	fix_post	2		12	77.0	2.5	/experiments/Knapen_AOT/AOT_stimuli/rescaled_final/1554_rv.mp4	0.0	348.8767685890198	0.10003852844238281
80	332.3830449581146	fix_pre	0		120	78.0	2.5	/experiments/Knapen_AOT/AOT_stimuli/rescaled_final/0661_rv.mp4	0.0	348.97680711746216	1.0085370540618896
80	332.56660532951355	pulse	0	t		78.0	2.5	/experiments/Knapen_AOT/AOT_stimuli/rescaled_final/0661_rv.mp4	0.0	349.1603674888611	
80	333.3915820121765	movie	1		269	78.0	2.5	/experiments/Knapen_AOT/AOT_stimuli/rescaled_final/0661_rv.mp4	0.0	349.98534417152405	2.491986036300659
80	334.1670877933502	pulse	1	t		78.0	2.5	/experiments/Knapen_AOT/AOT_stimuli/rescaled_final/0661_rv.mp4	0.0	350.76084995269775	
80	335.7654321193695	pulse	1	t		78.0	2.5	/experiments/Knapen_AOT/AOT_stimuli/rescaled_final/0661_rv.mp4	0.0	352.35919427871704	
80	335.8835680484772	fix_post	2		12	78.0	2.5	/experiments/Knapen_AOT/AOT_stimuli/rescaled_final/0661_rv.mp4	0.0	352.4773302078247	0.10002565383911133
81	335.9835937023163	fix_pre	0		120	79.0	2.5	/experiments/Knapen_AOT/AOT_stimuli/rescaled_final/2122_rv.mp4	0.0	352.5773558616638	1.0084576606750488
81	336.99205136299133	movie	1		261	79.0	2.5	/experiments/Knapen_AOT/AOT_stimuli/rescaled_final/2122_rv.mp4	0.0	353.58581352233887	2.4920642375946045
81	337.36699056625366	pulse	1	t		79.0	2.5	/experiments/Knapen_AOT/AOT_stimuli/rescaled_final/2122_rv.mp4	0.0	353.9607527256012	
81	338.9658577442169	pulse	1	t		79.0	2.5	/experiments/Knapen_AOT/AOT_stimuli/rescaled_final/2122_rv.mp4	0.0	355.55961990356445	
81	339.48411560058594	fix_post	2		12	79.0	2.5	/experiments/Knapen_AOT/AOT_stimuli/rescaled_final/2122_rv.mp4	0.0	356.0778777599335	0.10003304481506348
82	339.584148645401	fix_pre	0		119	80.0	2.5	/experiments/Knapen_AOT/AOT_stimuli/rescaled_final/1801_fw.mp4	0.0	356.17791080474854	1.0001096725463867
82	340.56123900413513	pulse	0	t		80.0	2.5	/experiments/Knapen_AOT/AOT_stimuli/rescaled_final/1801_fw.mp4	0.0	357.15500116348267	
82	340.5842583179474	movie	1		268	80.0	2.5	/experiments/Knapen_AOT/AOT_stimuli/rescaled_final/1801_fw.mp4	0.0	357.1780204772949	2.50040602684021
82	342.16810297966003	pulse	1	t		80.0	2.5	/experiments/Knapen_AOT/AOT_stimuli/rescaled_final/1801_fw.mp4	0.0	358.76186513900757	
82	343.0846643447876	fix_post	2		12	80.0	2.5	/experiments/Knapen_AOT/AOT_stimuli/rescaled_final/1801_fw.mp4	0.0	359.67842650413513	0.10000729560852051
83	343.1846716403961	fix_pre	0		120	81.0	2.5	/experiments/Knapen_AOT/AOT_stimuli/rescaled_final/0765_fw.mp4	0.0	359.77843379974365	1.0084941387176514
83	343.768443107605	pulse	0	t		81.0	2.5	/experiments/Knapen_AOT/AOT_stimuli/rescaled_final/0765_fw.mp4	0.0	360.3622052669525	
83	344.19316577911377	movie	1		275	81.0	2.5	/experiments/Knapen_AOT/AOT_stimuli/rescaled_final/0765_fw.mp4	0.0	360.7869279384613	2.492067813873291
83	345.3671762943268	pulse	1	t		81.0	2.5	/experiments/Knapen_AOT/AOT_stimuli/rescaled_final/0765_fw.mp4	0.0	361.9609384536743	
83	346.68523359298706	fix_post	2		12	81.0	2.5	/experiments/Knapen_AOT/AOT_stimuli/rescaled_final/0765_fw.mp4	0.0	363.2789957523346	0.09999775886535645
84	346.7852313518524	fix_pre	0		120	82.0	2.5	/experiments/Knapen_AOT/AOT_stimuli/rescaled_final/1197_rv.mp4	0.0	363.37899351119995	1.008497714996338
84	346.96094703674316	pulse	0	t		82.0	2.5	/experiments/Knapen_AOT/AOT_stimuli/rescaled_final/1197_rv.mp4	0.0	363.5547091960907	
84	347.79372906684875	movie	1		276	82.0	2.5	/experiments/Knapen_AOT/AOT_stimuli/rescaled_final/1197_rv.mp4	0.0	364.3874912261963	2.4920246601104736
84	348.56094765663147	pulse	1	t		82.0	2.5	/experiments/Knapen_AOT/AOT_stimuli/rescaled_final/1197_rv.mp4	0.0	365.154709815979	
84	350.161123752594	pulse	1	t		82.0	2.5	/experiments/Knapen_AOT/AOT_stimuli/rescaled_final/1197_rv.mp4	0.0	366.7548859119415	
84	350.28575372695923	fix_post	2		12	82.0	2.5	/experiments/Knapen_AOT/AOT_stimuli/rescaled_final/1197_rv.mp4	0.0	366.87951588630676	0.10003042221069336
85	350.3857841491699	fix_pre	0		120	83.0	2.5	blank	1.0	366.97954630851746	1.0001287460327148
85	351.38591289520264	movie	1		300	83.0	2.5	blank	1.0	367.97967505455017	2.5003578662872314
85	351.7612361907959	pulse	1	t		83.0	2.5	blank	1.0	368.35499835014343	
85	353.3614673614502	pulse	1	t		83.0	2.5	blank	1.0	369.95522952079773	
85	353.88627076148987	fix_post	2		12	83.0	2.5	blank	1.0	370.4800329208374	0.09998846054077148
87	353.98625922203064	stim	0		1715					370.5800213813782	14.29386019706726
87	354.9619140625	pulse	0	t						371.55567622184753	
87	356.5620172023773	pulse	0	t						373.15577936172485	
87	358.1622064113617	pulse	0	t						374.75596857070923	
87	359.76240968704224	pulse	0	t						376.35617184638977	
87	361.3626968860626	pulse	0	t						377.95645904541016	
87	362.96293210983276	pulse	0	t						379.5566942691803	
87	364.5632441043854	pulse	0	t						381.1570062637329	
87	366.1635036468506	pulse	0	t						382.7572658061981	
87	367.7635860443115	pulse	0	t						384.35734820365906	
