trial_nr	onset	event_type	phase	response	nr_frames	movie_index	movie_duration	movie_file	blank	onset_abs	duration
0	0.20829296112060547	stim	0		19					137.85040998458862	0.17497014999389648
0	0.37586212158203125	response	0	space						138.01797914505005	
1	0.38326311111450195	stim	0		4566					138.02538013458252	38.067188024520874
1	38.44040513038635	pulse	0	t						176.08252215385437	
1	38.450451135635376	stim	1		1716					176.0925681591034	14.307207822799683
1	40.031007051467896	pulse	1	t						177.6731240749359	
1	41.63126802444458	pulse	1	t						179.2733850479126	
1	43.23140096664429	pulse	1	t						180.8735179901123	
1	44.8316490650177	pulse	1	t						182.47376608848572	
1	46.431962966918945	pulse	1	t						184.07407999038696	
1	48.032124042510986	pulse	1	t						185.674241065979	
1	49.6323561668396	pulse	1	t						187.27447319030762	
1	51.232584953308105	pulse	1	t						188.87470197677612	
2	52.75765895843506	fix_pre	0		10	0.0	2.5	/experiments/knapen_AOT/AOT_stimuli/rescaled_final/2051_fw.mp4	0.0	190.39977598190308	0.0917820930480957
2	52.83300018310547	pulse	0	t		0.0	2.5	/experiments/knapen_AOT/AOT_stimuli/rescaled_final/2051_fw.mp4	0.0	190.4751172065735	
2	52.849441051483154	movie	1		240	0.0	2.5	/experiments/knapen_AOT/AOT_stimuli/rescaled_final/2051_fw.mp4	0.0	190.49155807495117	2.500540018081665
2	54.43773007392883	pulse	1	t		0.0	2.5	/experiments/knapen_AOT/AOT_stimuli/rescaled_final/2051_fw.mp4	0.0	192.07984709739685	
2	55.34998106956482	fix_post	2		12	0.0	2.5	/experiments/knapen_AOT/AOT_stimuli/rescaled_final/2051_fw.mp4	0.0	192.99209809303284	0.09981298446655273
3	55.44979405403137	fix_pre	0		120	1.0	2.5	/experiments/knapen_AOT/AOT_stimuli/rescaled_final/0506_fw.mp4	0.0	193.0919110774994	1.0001270771026611
3	56.03331899642944	pulse	0	t		1.0	2.5	/experiments/knapen_AOT/AOT_stimuli/rescaled_final/0506_fw.mp4	0.0	193.67543601989746	
3	56.44992113113403	movie	1		243	1.0	2.5	/experiments/knapen_AOT/AOT_stimuli/rescaled_final/0506_fw.mp4	0.0	194.09203815460205	2.5003719329833984
3	57.633732080459595	pulse	1	t		1.0	2.5	/experiments/knapen_AOT/AOT_stimuli/rescaled_final/0506_fw.mp4	0.0	195.2758491039276	
3	58.95029306411743	fix_post	2		12	1.0	2.5	/experiments/knapen_AOT/AOT_stimuli/rescaled_final/0506_fw.mp4	0.0	196.59241008758545	0.1000070571899414
4	59.05030012130737	fix_pre	0		120	2.0	2.5	/experiments/knapen_AOT/AOT_stimuli/rescaled_final/1501_rv.mp4	0.0	196.6924171447754	1.0001380443572998
4	59.23388695716858	pulse	0	t		2.0	2.5	/experiments/knapen_AOT/AOT_stimuli/rescaled_final/1501_rv.mp4	0.0	196.8760039806366	
4	60.05043816566467	movie	1		243	2.0	2.5	/experiments/knapen_AOT/AOT_stimuli/rescaled_final/1501_rv.mp4	0.0	197.6925551891327	2.5006189346313477
4	60.83416795730591	pulse	1	t		2.0	2.5	/experiments/knapen_AOT/AOT_stimuli/rescaled_final/1501_rv.mp4	0.0	198.47628498077393	
4	62.434290170669556	pulse	1	t		2.0	2.5	/experiments/knapen_AOT/AOT_stimuli/rescaled_final/1501_rv.mp4	0.0	200.07640719413757	
4	62.55105710029602	fix_post	2		12	2.0	2.5	/experiments/knapen_AOT/AOT_stimuli/rescaled_final/1501_rv.mp4	0.0	200.19317412376404	0.09981799125671387
5	62.650875091552734	fix_pre	0		120	3.0	2.5	/experiments/knapen_AOT/AOT_stimuli/rescaled_final/0609_fw.mp4	0.0	200.29299211502075	1.000119924545288
5	63.65099501609802	movie	1		242	3.0	2.5	/experiments/knapen_AOT/AOT_stimuli/rescaled_final/0609_fw.mp4	0.0	201.29311203956604	2.4920599460601807
5	64.03528213500977	pulse	1	t		3.0	2.5	/experiments/knapen_AOT/AOT_stimuli/rescaled_final/0609_fw.mp4	0.0	201.67739915847778	
5	65.63476514816284	pulse	1	t		3.0	2.5	/experiments/knapen_AOT/AOT_stimuli/rescaled_final/0609_fw.mp4	0.0	203.27688217163086	
5	66.1430549621582	fix_post	2		12	3.0	2.5	/experiments/knapen_AOT/AOT_stimuli/rescaled_final/0609_fw.mp4	0.0	203.78517198562622	0.1000051498413086
6	66.24306011199951	fix_pre	0		120	4.0	2.5	/experiments/knapen_AOT/AOT_stimuli/rescaled_final/0463_rv.mp4	0.0	203.88517713546753	1.000093936920166
6	67.2350971698761	pulse	0	t		4.0	2.5	/experiments/knapen_AOT/AOT_stimuli/rescaled_final/0463_rv.mp4	0.0	204.87721419334412	
6	67.24315404891968	movie	1		243	4.0	2.5	/experiments/knapen_AOT/AOT_stimuli/rescaled_final/0463_rv.mp4	0.0	204.8852710723877	2.5088820457458496
6	68.83619117736816	pulse	1	t		4.0	2.5	/experiments/knapen_AOT/AOT_stimuli/rescaled_final/0463_rv.mp4	0.0	206.47830820083618	
6	69.75203609466553	fix_post	2		12	4.0	2.5	/experiments/knapen_AOT/AOT_stimuli/rescaled_final/0463_rv.mp4	0.0	207.39415311813354	0.09993886947631836
7	69.85197496414185	fix_pre	0		120	5.0	2.5	/experiments/knapen_AOT/AOT_stimuli/rescaled_final/0178_fw.mp4	0.0	207.49409198760986	1.000124216079712
7	70.43549609184265	pulse	0	t		5.0	2.5	/experiments/knapen_AOT/AOT_stimuli/rescaled_final/0178_fw.mp4	0.0	208.07761311531067	
7	70.85209918022156	movie	1		243	5.0	2.5	/experiments/knapen_AOT/AOT_stimuli/rescaled_final/0178_fw.mp4	0.0	208.49421620368958	2.500347852706909
7	72.0316321849823	pulse	1	t		5.0	2.5	/experiments/knapen_AOT/AOT_stimuli/rescaled_final/0178_fw.mp4	0.0	209.67374920845032	
7	73.35244703292847	fix_post	2		12	5.0	2.5	/experiments/knapen_AOT/AOT_stimuli/rescaled_final/0178_fw.mp4	0.0	210.99456405639648	0.1000070571899414
8	73.45245409011841	fix_pre	0		120	6.0	2.5	blank	1.0	211.09457111358643	1.00016188621521
8	73.6360490322113	pulse	0	t		6.0	2.5	blank	1.0	211.27816605567932	
8	74.45261597633362	movie	1		300	6.0	2.5	blank	1.0	212.09473299980164	2.5004000663757324
8	75.23628616333008	pulse	1	t		6.0	2.5	blank	1.0	212.8784031867981	
8	76.83647012710571	pulse	1	t		6.0	2.5	blank	1.0	214.47858715057373	
8	76.95301604270935	fix_post	2		12	6.0	2.5	blank	1.0	214.59513306617737	0.10000300407409668
9	77.05301904678345	fix_pre	0		120	7.0	2.5	/experiments/knapen_AOT/AOT_stimuli/rescaled_final/1221_fw.mp4	0.0	214.69513607025146	1.0001380443572998
9	78.05315709114075	movie	1		241	7.0	2.5	/experiments/knapen_AOT/AOT_stimuli/rescaled_final/1221_fw.mp4	0.0	215.69527411460876	2.492194890975952
9	78.43821406364441	pulse	1	t		7.0	2.5	/experiments/knapen_AOT/AOT_stimuli/rescaled_final/1221_fw.mp4	0.0	216.08033108711243	
9	80.03704118728638	pulse	1	t		7.0	2.5	/experiments/knapen_AOT/AOT_stimuli/rescaled_final/1221_fw.mp4	0.0	217.6791582107544	
9	80.5453519821167	fix_post	2		12	7.0	2.5	/experiments/knapen_AOT/AOT_stimuli/rescaled_final/1221_fw.mp4	0.0	218.18746900558472	0.09985899925231934
10	80.64521098136902	fix_pre	0		120	8.0	2.5	/experiments/knapen_AOT/AOT_stimuli/rescaled_final/1216_rv.mp4	0.0	218.28732800483704	1.0001120567321777
10	81.63723802566528	pulse	0	t		8.0	2.5	/experiments/knapen_AOT/AOT_stimuli/rescaled_final/1216_rv.mp4	0.0	219.2793550491333	
10	81.6453230381012	movie	1		243	8.0	2.5	/experiments/knapen_AOT/AOT_stimuli/rescaled_final/1216_rv.mp4	0.0	219.2874400615692	2.508768081665039
10	83.23804306983948	pulse	1	t		8.0	2.5	/experiments/knapen_AOT/AOT_stimuli/rescaled_final/1216_rv.mp4	0.0	220.8801600933075	
10	84.15409111976624	fix_post	2		12	8.0	2.5	/experiments/knapen_AOT/AOT_stimuli/rescaled_final/1216_rv.mp4	0.0	221.79620814323425	0.09999203681945801
11	84.2540831565857	fix_pre	0		120	9.0	2.5	/experiments/knapen_AOT/AOT_stimuli/rescaled_final/1000_rv.mp4	0.0	221.8962001800537	1.0001659393310547
11	84.83021116256714	pulse	0	t		9.0	2.5	/experiments/knapen_AOT/AOT_stimuli/rescaled_final/1000_rv.mp4	0.0	222.47232818603516	
11	85.25424909591675	movie	1		243	9.0	2.5	/experiments/knapen_AOT/AOT_stimuli/rescaled_final/1000_rv.mp4	0.0	222.89636611938477	2.500493049621582
11	86.43028616905212	pulse	1	t		9.0	2.5	/experiments/knapen_AOT/AOT_stimuli/rescaled_final/1000_rv.mp4	0.0	224.07240319252014	
11	87.75474214553833	fix_post	2		9	9.0	2.5	/experiments/knapen_AOT/AOT_stimuli/rescaled_final/1000_rv.mp4	0.0	225.39685916900635	0.09985589981079102
12	87.85459804534912	fix_pre	0		120	10.0	2.5	/experiments/knapen_AOT/AOT_stimuli/rescaled_final/0169_rv.mp4	0.0	225.49671506881714	1.0001780986785889
12	88.03064918518066	pulse	0	t		10.0	2.5	/experiments/knapen_AOT/AOT_stimuli/rescaled_final/0169_rv.mp4	0.0	225.67276620864868	
12	88.85477614402771	movie	1		242	10.0	2.5	/experiments/knapen_AOT/AOT_stimuli/rescaled_final/0169_rv.mp4	0.0	226.49689316749573	2.5005388259887695
12	89.63094305992126	pulse	1	t		10.0	2.5	/experiments/knapen_AOT/AOT_stimuli/rescaled_final/0169_rv.mp4	0.0	227.27306008338928	
12	91.23044610023499	pulse	1	t		10.0	2.5	/experiments/knapen_AOT/AOT_stimuli/rescaled_final/0169_rv.mp4	0.0	228.872563123703	
12	91.35531497001648	fix_post	2		12	10.0	2.5	/experiments/knapen_AOT/AOT_stimuli/rescaled_final/0169_rv.mp4	0.0	228.9974319934845	0.09980511665344238
13	91.45512008666992	fix_pre	0		120	11.0	2.5	/experiments/knapen_AOT/AOT_stimuli/rescaled_final/2048_rv.mp4	0.0	229.09723711013794	1.0001859664916992
13	92.45530605316162	movie	1		241	11.0	2.5	/experiments/knapen_AOT/AOT_stimuli/rescaled_final/2048_rv.mp4	0.0	230.09742307662964	2.49214506149292
13	92.83056402206421	pulse	1	t		11.0	2.5	/experiments/knapen_AOT/AOT_stimuli/rescaled_final/2048_rv.mp4	0.0	230.47268104553223	
13	94.43078899383545	pulse	1	t		11.0	2.5	/experiments/knapen_AOT/AOT_stimuli/rescaled_final/2048_rv.mp4	0.0	232.07290601730347	
13	94.94745111465454	fix_post	2		12	11.0	2.5	/experiments/knapen_AOT/AOT_stimuli/rescaled_final/2048_rv.mp4	0.0	232.58956813812256	0.09994292259216309
14	95.0473940372467	fix_pre	0		119	12.0	2.5	/experiments/knapen_AOT/AOT_stimuli/rescaled_final/0717_fw.mp4	0.0	232.68951106071472	0.991786003112793
14	96.03102517127991	pulse	0	t		12.0	2.5	/experiments/knapen_AOT/AOT_stimuli/rescaled_final/0717_fw.mp4	0.0	233.67314219474792	
14	96.0391800403595	movie	1		244	12.0	2.5	/experiments/knapen_AOT/AOT_stimuli/rescaled_final/0717_fw.mp4	0.0	233.68129706382751	2.508795976638794
14	97.63170218467712	pulse	1	t		12.0	2.5	/experiments/knapen_AOT/AOT_stimuli/rescaled_final/0717_fw.mp4	0.0	235.27381920814514	
14	98.54797601699829	fix_post	2		12	12.0	2.5	/experiments/knapen_AOT/AOT_stimuli/rescaled_final/0717_fw.mp4	0.0	236.1900930404663	0.09995007514953613
15	98.64792609214783	fix_pre	0		120	13.0	2.5	/experiments/knapen_AOT/AOT_stimuli/rescaled_final/1104_fw.mp4	0.0	236.29004311561584	1.0001399517059326
15	99.23154401779175	pulse	0	t		13.0	2.5	/experiments/knapen_AOT/AOT_stimuli/rescaled_final/1104_fw.mp4	0.0	236.87366104125977	
15	99.64806604385376	movie	1		242	13.0	2.5	/experiments/knapen_AOT/AOT_stimuli/rescaled_final/1104_fw.mp4	0.0	237.29018306732178	2.5004971027374268
15	100.8318681716919	pulse	1	t		13.0	2.5	/experiments/knapen_AOT/AOT_stimuli/rescaled_final/1104_fw.mp4	0.0	238.4739851951599	
15	102.14856314659119	fix_post	2		12	13.0	2.5	/experiments/knapen_AOT/AOT_stimuli/rescaled_final/1104_fw.mp4	0.0	239.7906801700592	0.09986090660095215
16	102.24842405319214	fix_pre	0		120	14.0	2.5	blank	1.0	239.89054107666016	1.0000989437103271
16	102.43203902244568	pulse	0	t		14.0	2.5	blank	1.0	240.0741560459137	
16	103.24852299690247	movie	1		300	14.0	2.5	blank	1.0	240.89064002037048	2.5004470348358154
16	104.0322539806366	pulse	1	t		14.0	2.5	blank	1.0	241.67437100410461	
16	105.63251209259033	pulse	1	t		14.0	2.5	blank	1.0	243.27462911605835	
16	105.74897003173828	fix_post	2		12	14.0	2.5	blank	1.0	243.3910870552063	0.0999901294708252
17	105.8489601612091	fix_pre	0		120	15.0	2.5	/experiments/knapen_AOT/AOT_stimuli/rescaled_final/2056_rv.mp4	0.0	243.49107718467712	1.0001049041748047
17	106.84906506538391	movie	1		241	15.0	2.5	/experiments/knapen_AOT/AOT_stimuli/rescaled_final/2056_rv.mp4	0.0	244.49118208885193	2.4921679496765137
17	107.2339460849762	pulse	1	t		15.0	2.5	/experiments/knapen_AOT/AOT_stimuli/rescaled_final/2056_rv.mp4	0.0	244.8760631084442	
17	108.83289217948914	pulse	1	t		15.0	2.5	/experiments/knapen_AOT/AOT_stimuli/rescaled_final/2056_rv.mp4	0.0	246.47500920295715	
17	109.34123301506042	fix_post	2		12	15.0	2.5	/experiments/knapen_AOT/AOT_stimuli/rescaled_final/2056_rv.mp4	0.0	246.98335003852844	0.0999760627746582
18	109.44120907783508	fix_pre	0		120	16.0	2.5	/experiments/knapen_AOT/AOT_stimuli/rescaled_final/2011_rv.mp4	0.0	247.0833261013031	1.000075101852417
18	110.4331431388855	pulse	0	t		16.0	2.5	/experiments/knapen_AOT/AOT_stimuli/rescaled_final/2011_rv.mp4	0.0	248.07526016235352	
18	110.4412841796875	movie	1		245	16.0	2.5	/experiments/knapen_AOT/AOT_stimuli/rescaled_final/2011_rv.mp4	0.0	248.08340120315552	2.5087499618530273
18	112.03381109237671	pulse	1	t		16.0	2.5	/experiments/knapen_AOT/AOT_stimuli/rescaled_final/2011_rv.mp4	0.0	249.67592811584473	
18	112.95003414154053	fix_post	2		12	16.0	2.5	/experiments/knapen_AOT/AOT_stimuli/rescaled_final/2011_rv.mp4	0.0	250.59215116500854	0.10001087188720703
19	113.05004501342773	fix_pre	0		120	17.0	2.5	/experiments/knapen_AOT/AOT_stimuli/rescaled_final/2077_rv.mp4	0.0	250.69216203689575	1.0001471042633057
19	113.6336681842804	pulse	0	t		17.0	2.5	/experiments/knapen_AOT/AOT_stimuli/rescaled_final/2077_rv.mp4	0.0	251.2757852077484	
19	114.05019211769104	movie	1		242	17.0	2.5	/experiments/knapen_AOT/AOT_stimuli/rescaled_final/2077_rv.mp4	0.0	251.69230914115906	2.500452995300293
19	115.2339870929718	pulse	1	t		17.0	2.5	/experiments/knapen_AOT/AOT_stimuli/rescaled_final/2077_rv.mp4	0.0	252.87610411643982	
19	116.55064511299133	fix_post	2		12	17.0	2.5	/experiments/knapen_AOT/AOT_stimuli/rescaled_final/2077_rv.mp4	0.0	254.19276213645935	0.09995198249816895
20	116.6505970954895	fix_pre	0		120	18.0	2.5	/experiments/knapen_AOT/AOT_stimuli/rescaled_final/0961_rv.mp4	0.0	254.29271411895752	1.000101089477539
20	116.83410096168518	pulse	0	t		18.0	2.5	/experiments/knapen_AOT/AOT_stimuli/rescaled_final/0961_rv.mp4	0.0	254.4762179851532	
20	117.65069818496704	movie	1		242	18.0	2.5	/experiments/knapen_AOT/AOT_stimuli/rescaled_final/0961_rv.mp4	0.0	255.29281520843506	2.5005788803100586
20	118.43439507484436	pulse	1	t		18.0	2.5	/experiments/knapen_AOT/AOT_stimuli/rescaled_final/0961_rv.mp4	0.0	256.0765120983124	
20	120.03459095954895	pulse	1	t		18.0	2.5	/experiments/knapen_AOT/AOT_stimuli/rescaled_final/0961_rv.mp4	0.0	257.67670798301697	
20	120.1512770652771	fix_post	2		12	18.0	2.5	/experiments/knapen_AOT/AOT_stimuli/rescaled_final/0961_rv.mp4	0.0	257.7933940887451	0.09987998008728027
21	120.25115704536438	fix_pre	0		120	19.0	2.5	blank	1.0	257.8932740688324	1.0001389980316162
21	121.251296043396	movie	1		299	19.0	2.5	blank	1.0	258.893413066864	2.4920201301574707
21	121.63481116294861	pulse	1	t		19.0	2.5	blank	1.0	259.2769281864166	
21	123.23499703407288	pulse	1	t		19.0	2.5	blank	1.0	260.8771140575409	
21	123.74331617355347	fix_post	2		12	19.0	2.5	blank	1.0	261.3854331970215	0.10000896453857422
22	123.84332513809204	fix_pre	0		120	20.0	2.5	/experiments/knapen_AOT/AOT_stimuli/rescaled_final/1881_rv.mp4	0.0	261.48544216156006	1.0000929832458496
22	124.83534216880798	pulse	0	t		20.0	2.5	/experiments/knapen_AOT/AOT_stimuli/rescaled_final/1881_rv.mp4	0.0	262.477459192276	
22	124.84341812133789	movie	1		245	20.0	2.5	/experiments/knapen_AOT/AOT_stimuli/rescaled_final/1881_rv.mp4	0.0	262.4855351448059	2.5087599754333496
22	126.43677401542664	pulse	1	t		20.0	2.5	/experiments/knapen_AOT/AOT_stimuli/rescaled_final/1881_rv.mp4	0.0	264.07889103889465	
22	127.35217809677124	fix_post	2		12	20.0	2.5	/experiments/knapen_AOT/AOT_stimuli/rescaled_final/1881_rv.mp4	0.0	264.99429512023926	0.10002398490905762
23	127.4522020816803	fix_pre	0		120	21.0	2.5	/experiments/knapen_AOT/AOT_stimuli/rescaled_final/0703_fw.mp4	0.0	265.0943191051483	1.0001370906829834
23	128.03577208518982	pulse	0	t		21.0	2.5	/experiments/knapen_AOT/AOT_stimuli/rescaled_final/0703_fw.mp4	0.0	265.67788910865784	
23	128.45233917236328	movie	1		243	21.0	2.5	/experiments/knapen_AOT/AOT_stimuli/rescaled_final/0703_fw.mp4	0.0	266.0944561958313	2.500447988510132
23	129.63613414764404	pulse	1	t		21.0	2.5	/experiments/knapen_AOT/AOT_stimuli/rescaled_final/0703_fw.mp4	0.0	267.27825117111206	
23	130.9527871608734	fix_post	2		12	21.0	2.5	/experiments/knapen_AOT/AOT_stimuli/rescaled_final/0703_fw.mp4	0.0	268.59490418434143	0.09992694854736328
24	131.05271410942078	fix_pre	0		120	22.0	2.5	/experiments/knapen_AOT/AOT_stimuli/rescaled_final/1902_fw.mp4	0.0	268.6948311328888	1.0001769065856934
24	131.23630809783936	pulse	0	t		22.0	2.5	/experiments/knapen_AOT/AOT_stimuli/rescaled_final/1902_fw.mp4	0.0	268.8784251213074	
24	132.05289101600647	movie	1		243	22.0	2.5	/experiments/knapen_AOT/AOT_stimuli/rescaled_final/1902_fw.mp4	0.0	269.6950080394745	2.5004849433898926
24	132.8366720676422	pulse	1	t		22.0	2.5	/experiments/knapen_AOT/AOT_stimuli/rescaled_final/1902_fw.mp4	0.0	270.47878909111023	
24	134.43670797348022	pulse	1	t		22.0	2.5	/experiments/knapen_AOT/AOT_stimuli/rescaled_final/1902_fw.mp4	0.0	272.07882499694824	
24	134.55337595939636	fix_post	2		12	22.0	2.5	/experiments/knapen_AOT/AOT_stimuli/rescaled_final/1902_fw.mp4	0.0	272.1954929828644	0.09984803199768066
25	134.65322399139404	fix_pre	0		120	23.0	2.5	/experiments/knapen_AOT/AOT_stimuli/rescaled_final/2054_rv.mp4	0.0	272.29534101486206	1.0001730918884277
25	135.65339708328247	movie	1		242	23.0	2.5	/experiments/knapen_AOT/AOT_stimuli/rescaled_final/2054_rv.mp4	0.0	273.2955141067505	2.4920289516448975
25	136.03835010528564	pulse	1	t		23.0	2.5	/experiments/knapen_AOT/AOT_stimuli/rescaled_final/2054_rv.mp4	0.0	273.68046712875366	
25	137.62988710403442	pulse	1	t		23.0	2.5	/experiments/knapen_AOT/AOT_stimuli/rescaled_final/2054_rv.mp4	0.0	275.27200412750244	
25	138.14542603492737	fix_post	2		12	23.0	2.5	/experiments/knapen_AOT/AOT_stimuli/rescaled_final/2054_rv.mp4	0.0	275.7875430583954	0.10002493858337402
26	138.24545097351074	fix_pre	0		120	24.0	2.5	/experiments/knapen_AOT/AOT_stimuli/rescaled_final/1039_fw.mp4	0.0	275.88756799697876	1.0001251697540283
26	139.23006010055542	pulse	0	t		24.0	2.5	/experiments/knapen_AOT/AOT_stimuli/rescaled_final/1039_fw.mp4	0.0	276.87217712402344	
26	139.24557614326477	movie	1		243	24.0	2.5	/experiments/knapen_AOT/AOT_stimuli/rescaled_final/1039_fw.mp4	0.0	276.8876931667328	2.508826971054077
26	140.83835315704346	pulse	1	t		24.0	2.5	/experiments/knapen_AOT/AOT_stimuli/rescaled_final/1039_fw.mp4	0.0	278.4804701805115	
26	141.75440311431885	fix_post	2		12	24.0	2.5	/experiments/knapen_AOT/AOT_stimuli/rescaled_final/1039_fw.mp4	0.0	279.39652013778687	0.099945068359375
27	141.85434818267822	fix_pre	0		120	25.0	2.5	/experiments/knapen_AOT/AOT_stimuli/rescaled_final/0079_fw.mp4	0.0	279.49646520614624	1.0001277923583984
27	142.43045711517334	pulse	0	t		25.0	2.5	/experiments/knapen_AOT/AOT_stimuli/rescaled_final/0079_fw.mp4	0.0	280.07257413864136	
27	142.85447597503662	movie	1		242	25.0	2.5	/experiments/knapen_AOT/AOT_stimuli/rescaled_final/0079_fw.mp4	0.0	280.49659299850464	2.5005722045898438
27	144.03034806251526	pulse	1	t		25.0	2.5	/experiments/knapen_AOT/AOT_stimuli/rescaled_final/0079_fw.mp4	0.0	281.6724650859833	
27	145.35504817962646	fix_post	2		9	25.0	2.5	/experiments/knapen_AOT/AOT_stimuli/rescaled_final/0079_fw.mp4	0.0	282.9971652030945	0.0998377799987793
28	145.45488595962524	fix_pre	0		120	26.0	2.5	blank	1.0	283.09700298309326	1.0001389980316162
28	145.63000416755676	pulse	0	t		26.0	2.5	blank	1.0	283.2721211910248	
28	146.45502495765686	movie	1		300	26.0	2.5	blank	1.0	284.0971419811249	2.5003480911254883
28	147.23030495643616	pulse	1	t		26.0	2.5	blank	1.0	284.8724219799042	
28	148.83051300048828	pulse	1	t		26.0	2.5	blank	1.0	286.4726300239563	
28	148.95537304878235	fix_post	2		12	26.0	2.5	blank	1.0	286.59749007225037	0.10002493858337402
29	149.05539798736572	fix_pre	0		119	27.0	2.5	/experiments/knapen_AOT/AOT_stimuli/rescaled_final/1881_rv.mp4	0.0	286.69751501083374	0.9918510913848877
29	150.0472490787506	movie	1		244	27.0	2.5	/experiments/knapen_AOT/AOT_stimuli/rescaled_final/1881_rv.mp4	0.0	287.6893661022186	2.5003130435943604
29	150.43135404586792	pulse	1	t		27.0	2.5	/experiments/knapen_AOT/AOT_stimuli/rescaled_final/1881_rv.mp4	0.0	288.07347106933594	
29	152.03107118606567	pulse	1	t		27.0	2.5	/experiments/knapen_AOT/AOT_stimuli/rescaled_final/1881_rv.mp4	0.0	289.6731882095337	
29	152.54756212234497	fix_post	2		12	27.0	2.5	/experiments/knapen_AOT/AOT_stimuli/rescaled_final/1881_rv.mp4	0.0	290.189679145813	0.1000509262084961
30	152.64761304855347	fix_pre	0		119	28.0	2.5	/experiments/knapen_AOT/AOT_stimuli/rescaled_final/1085_rv.mp4	0.0	290.2897300720215	0.991786003112793
30	153.63130497932434	pulse	0	t		28.0	2.5	/experiments/knapen_AOT/AOT_stimuli/rescaled_final/1085_rv.mp4	0.0	291.27342200279236	
30	153.63939905166626	movie	1		244	28.0	2.5	/experiments/knapen_AOT/AOT_stimuli/rescaled_final/1085_rv.mp4	0.0	291.2815160751343	2.508826971054077
30	155.23240613937378	pulse	1	t		28.0	2.5	/experiments/knapen_AOT/AOT_stimuli/rescaled_final/1085_rv.mp4	0.0	292.8745231628418	
30	156.14822602272034	fix_post	2		12	28.0	2.5	/experiments/knapen_AOT/AOT_stimuli/rescaled_final/1085_rv.mp4	0.0	293.79034304618835	0.09993314743041992
31	156.24815917015076	fix_pre	0		120	29.0	2.5	/experiments/knapen_AOT/AOT_stimuli/rescaled_final/0894_rv.mp4	0.0	293.8902761936188	1.0001208782196045
31	156.83168506622314	pulse	0	t		29.0	2.5	/experiments/knapen_AOT/AOT_stimuli/rescaled_final/0894_rv.mp4	0.0	294.47380208969116	
31	157.24828004837036	movie	1		242	29.0	2.5	/experiments/knapen_AOT/AOT_stimuli/rescaled_final/0894_rv.mp4	0.0	294.8903970718384	2.5005221366882324
31	158.43209600448608	pulse	1	t		29.0	2.5	/experiments/knapen_AOT/AOT_stimuli/rescaled_final/0894_rv.mp4	0.0	296.0742130279541	
31	159.7488021850586	fix_post	2		12	29.0	2.5	/experiments/knapen_AOT/AOT_stimuli/rescaled_final/0894_rv.mp4	0.0	297.3909192085266	0.09991288185119629
32	159.8487150669098	fix_pre	0		120	30.0	2.5	/experiments/knapen_AOT/AOT_stimuli/rescaled_final/0415_rv.mp4	0.0	297.4908320903778	1.0001649856567383
32	160.0322880744934	pulse	0	t		30.0	2.5	/experiments/knapen_AOT/AOT_stimuli/rescaled_final/0415_rv.mp4	0.0	297.6744050979614	
32	160.84888005256653	movie	1		243	30.0	2.5	/experiments/knapen_AOT/AOT_stimuli/rescaled_final/0415_rv.mp4	0.0	298.49099707603455	2.500546932220459
32	161.63246417045593	pulse	1	t		30.0	2.5	/experiments/knapen_AOT/AOT_stimuli/rescaled_final/0415_rv.mp4	0.0	299.27458119392395	
32	163.2325530052185	pulse	1	t		30.0	2.5	/experiments/knapen_AOT/AOT_stimuli/rescaled_final/0415_rv.mp4	0.0	300.8746700286865	
32	163.349426984787	fix_post	2		12	30.0	2.5	/experiments/knapen_AOT/AOT_stimuli/rescaled_final/0415_rv.mp4	0.0	300.991544008255	0.09980416297912598
33	163.4492311477661	fix_pre	0		120	31.0	2.5	/experiments/knapen_AOT/AOT_stimuli/rescaled_final/0483_fw.mp4	0.0	301.09134817123413	1.000119924545288
33	164.4493510723114	movie	1		242	31.0	2.5	/experiments/knapen_AOT/AOT_stimuli/rescaled_final/0483_fw.mp4	0.0	302.0914680957794	2.49214506149292
33	164.83357095718384	pulse	1	t		31.0	2.5	/experiments/knapen_AOT/AOT_stimuli/rescaled_final/0483_fw.mp4	0.0	302.47568798065186	
33	166.43323516845703	pulse	1	t		31.0	2.5	/experiments/knapen_AOT/AOT_stimuli/rescaled_final/0483_fw.mp4	0.0	304.07535219192505	
33	166.94149613380432	fix_post	2		12	31.0	2.5	/experiments/knapen_AOT/AOT_stimuli/rescaled_final/0483_fw.mp4	0.0	304.58361315727234	0.09992599487304688
34	167.04142212867737	fix_pre	0		120	32.0	2.5	/experiments/knapen_AOT/AOT_stimuli/rescaled_final/1599_rv.mp4	0.0	304.6835391521454	1.0001230239868164
34	168.03344917297363	pulse	0	t		32.0	2.5	/experiments/knapen_AOT/AOT_stimuli/rescaled_final/1599_rv.mp4	0.0	305.67556619644165	
34	168.04154515266418	movie	1		243	32.0	2.5	/experiments/knapen_AOT/AOT_stimuli/rescaled_final/1599_rv.mp4	0.0	305.6836621761322	2.508852005004883
34	169.63489508628845	pulse	1	t		32.0	2.5	/experiments/knapen_AOT/AOT_stimuli/rescaled_final/1599_rv.mp4	0.0	307.27701210975647	
34	170.55039715766907	fix_post	2		12	32.0	2.5	/experiments/knapen_AOT/AOT_stimuli/rescaled_final/1599_rv.mp4	0.0	308.1925141811371	0.09991693496704102
35	170.6503140926361	fix_pre	0		120	33.0	2.5	/experiments/knapen_AOT/AOT_stimuli/rescaled_final/0619_rv.mp4	0.0	308.2924311161041	1.0001380443572998
35	171.23394107818604	pulse	0	t		33.0	2.5	/experiments/knapen_AOT/AOT_stimuli/rescaled_final/0619_rv.mp4	0.0	308.87605810165405	
35	171.6504521369934	movie	1		242	33.0	2.5	/experiments/knapen_AOT/AOT_stimuli/rescaled_final/0619_rv.mp4	0.0	309.2925691604614	2.500527858734131
35	172.83429217338562	pulse	1	t		33.0	2.5	/experiments/knapen_AOT/AOT_stimuli/rescaled_final/0619_rv.mp4	0.0	310.47640919685364	
35	174.15097999572754	fix_post	2		12	33.0	2.5	/experiments/knapen_AOT/AOT_stimuli/rescaled_final/0619_rv.mp4	0.0	311.79309701919556	0.099884033203125
36	174.25086402893066	fix_pre	0		120	34.0	2.5	blank	1.0	311.8929810523987	1.000133991241455
36	174.43445014953613	pulse	0	t		34.0	2.5	blank	1.0	312.07656717300415	
36	175.25099802017212	movie	1		300	34.0	2.5	blank	1.0	312.89311504364014	2.5003600120544434
36	176.03462409973145	pulse	1	t		34.0	2.5	blank	1.0	313.67674112319946	
36	177.63485312461853	pulse	1	t		34.0	2.5	blank	1.0	315.27697014808655	
36	177.75135803222656	fix_post	2		12	34.0	2.5	blank	1.0	315.3934750556946	0.10001707077026367
37	177.85137510299683	fix_pre	0		120	35.0	2.5	/experiments/knapen_AOT/AOT_stimuli/rescaled_final/1085_fw.mp4	0.0	315.49349212646484	1.0001220703125
37	178.85149717330933	movie	1		242	35.0	2.5	/experiments/knapen_AOT/AOT_stimuli/rescaled_final/1085_fw.mp4	0.0	316.49361419677734	2.492215871810913
37	179.2361650466919	pulse	1	t		35.0	2.5	/experiments/knapen_AOT/AOT_stimuli/rescaled_final/1085_fw.mp4	0.0	316.8782820701599	
37	180.83542108535767	pulse	1	t		35.0	2.5	/experiments/knapen_AOT/AOT_stimuli/rescaled_final/1085_fw.mp4	0.0	318.4775381088257	
37	181.34371304512024	fix_post	2		12	35.0	2.5	/experiments/knapen_AOT/AOT_stimuli/rescaled_final/1085_fw.mp4	0.0	318.98583006858826	0.0998389720916748
38	181.4435520172119	fix_pre	0		120	36.0	2.5	/experiments/knapen_AOT/AOT_stimuli/rescaled_final/1456_fw.mp4	0.0	319.08566904067993	1.000133991241455
38	182.4356141090393	pulse	0	t		36.0	2.5	/experiments/knapen_AOT/AOT_stimuli/rescaled_final/1456_fw.mp4	0.0	320.0777311325073	
38	182.44368600845337	movie	1		243	36.0	2.5	/experiments/knapen_AOT/AOT_stimuli/rescaled_final/1456_fw.mp4	0.0	320.0858030319214	2.5088350772857666
38	184.0365800857544	pulse	1	t		36.0	2.5	/experiments/knapen_AOT/AOT_stimuli/rescaled_final/1456_fw.mp4	0.0	321.6786971092224	
38	184.95252108573914	fix_post	2		12	36.0	2.5	/experiments/knapen_AOT/AOT_stimuli/rescaled_final/1456_fw.mp4	0.0	322.59463810920715	0.09989190101623535
39	185.05241298675537	fix_pre	0		120	37.0	2.5	/experiments/knapen_AOT/AOT_stimuli/rescaled_final/1290_fw.mp4	0.0	322.6945300102234	1.0001671314239502
39	185.63604617118835	pulse	0	t		37.0	2.5	/experiments/knapen_AOT/AOT_stimuli/rescaled_final/1290_fw.mp4	0.0	323.2781631946564	
39	186.05258011817932	movie	1		243	37.0	2.5	/experiments/knapen_AOT/AOT_stimuli/rescaled_final/1290_fw.mp4	0.0	323.69469714164734	2.5005500316619873
39	187.23646807670593	pulse	1	t		37.0	2.5	/experiments/knapen_AOT/AOT_stimuli/rescaled_final/1290_fw.mp4	0.0	324.87858510017395	
39	188.5531301498413	fix_post	2		12	37.0	2.5	/experiments/knapen_AOT/AOT_stimuli/rescaled_final/1290_fw.mp4	0.0	326.1952471733093	0.09984183311462402
40	188.65297198295593	fix_pre	0		120	38.0	2.5	/experiments/knapen_AOT/AOT_stimuli/rescaled_final/0500_fw.mp4	0.0	326.29508900642395	1.0002520084381104
40	188.83652806282043	pulse	0	t		38.0	2.5	/experiments/knapen_AOT/AOT_stimuli/rescaled_final/0500_fw.mp4	0.0	326.47864508628845	
40	189.65322399139404	movie	1		243	38.0	2.5	/experiments/knapen_AOT/AOT_stimuli/rescaled_final/0500_fw.mp4	0.0	327.29534101486206	2.5003011226654053
40	190.43673515319824	pulse	1	t		38.0	2.5	/experiments/knapen_AOT/AOT_stimuli/rescaled_final/0500_fw.mp4	0.0	328.07885217666626	
40	192.03692412376404	pulse	1	t		38.0	2.5	/experiments/knapen_AOT/AOT_stimuli/rescaled_final/0500_fw.mp4	0.0	329.67904114723206	
40	192.15352511405945	fix_post	2		12	38.0	2.5	/experiments/knapen_AOT/AOT_stimuli/rescaled_final/0500_fw.mp4	0.0	329.79564213752747	0.10000991821289062
41	192.25353503227234	fix_pre	0		120	39.0	2.5	/experiments/knapen_AOT/AOT_stimuli/rescaled_final/0390_fw.mp4	0.0	329.89565205574036	1.0001211166381836
41	193.25365614891052	movie	1		242	39.0	2.5	/experiments/knapen_AOT/AOT_stimuli/rescaled_final/0390_fw.mp4	0.0	330.89577317237854	2.492161989212036
41	193.63836812973022	pulse	1	t		39.0	2.5	/experiments/knapen_AOT/AOT_stimuli/rescaled_final/0390_fw.mp4	0.0	331.28048515319824	
41	195.23031902313232	pulse	1	t		39.0	2.5	/experiments/knapen_AOT/AOT_stimuli/rescaled_final/0390_fw.mp4	0.0	332.87243604660034	
41	195.74581813812256	fix_post	2		12	39.0	2.5	/experiments/knapen_AOT/AOT_stimuli/rescaled_final/0390_fw.mp4	0.0	333.3879351615906	0.09987592697143555
42	195.845694065094	fix_pre	0		119	40.0	2.5	/experiments/knapen_AOT/AOT_stimuli/rescaled_final/1481_fw.mp4	0.0	333.487811088562	0.9918060302734375
42	196.82961010932922	pulse	0	t		40.0	2.5	/experiments/knapen_AOT/AOT_stimuli/rescaled_final/1481_fw.mp4	0.0	334.47172713279724	
42	196.83750009536743	movie	1		243	40.0	2.5	/experiments/knapen_AOT/AOT_stimuli/rescaled_final/1481_fw.mp4	0.0	334.47961711883545	2.5088050365448
42	198.43031907081604	pulse	1	t		40.0	2.5	/experiments/knapen_AOT/AOT_stimuli/rescaled_final/1481_fw.mp4	0.0	336.07243609428406	
42	199.34630513191223	fix_post	2		12	40.0	2.5	/experiments/knapen_AOT/AOT_stimuli/rescaled_final/1481_fw.mp4	0.0	336.98842215538025	0.09998297691345215
43	199.44628810882568	fix_pre	0		120	41.0	2.5	blank	1.0	337.0884051322937	1.0000958442687988
43	200.02979803085327	pulse	0	t		41.0	2.5	blank	1.0	337.6719150543213	
43	200.44638395309448	movie	1		297	41.0	2.5	blank	1.0	338.0885009765625	2.5003881454467773
43	201.63010001182556	pulse	1	t		41.0	2.5	blank	1.0	339.2722170352936	
43	202.94677209854126	fix_post	2		12	41.0	2.5	blank	1.0	340.5888891220093	0.1000368595123291
44	203.0468089580536	fix_pre	0		120	42.0	2.5	/experiments/knapen_AOT/AOT_stimuli/rescaled_final/1685_rv.mp4	0.0	340.6889259815216	1.0001521110534668
44	203.23032307624817	pulse	0	t		42.0	2.5	/experiments/knapen_AOT/AOT_stimuli/rescaled_final/1685_rv.mp4	0.0	340.8724400997162	
44	204.04696106910706	movie	1		242	42.0	2.5	/experiments/knapen_AOT/AOT_stimuli/rescaled_final/1685_rv.mp4	0.0	341.6890780925751	2.500535011291504
44	204.8306121826172	pulse	1	t		42.0	2.5	/experiments/knapen_AOT/AOT_stimuli/rescaled_final/1685_rv.mp4	0.0	342.4727292060852	
44	206.43098616600037	pulse	1	t		42.0	2.5	/experiments/knapen_AOT/AOT_stimuli/rescaled_final/1685_rv.mp4	0.0	344.0731031894684	
44	206.54749608039856	fix_post	2		12	42.0	2.5	/experiments/knapen_AOT/AOT_stimuli/rescaled_final/1685_rv.mp4	0.0	344.1896131038666	0.09983491897583008
45	206.6473309993744	fix_pre	0		120	43.0	2.5	/experiments/knapen_AOT/AOT_stimuli/rescaled_final/0390_fw.mp4	0.0	344.2894480228424	1.000171184539795
45	207.64750218391418	movie	1		242	43.0	2.5	/experiments/knapen_AOT/AOT_stimuli/rescaled_final/0390_fw.mp4	0.0	345.2896192073822	2.492020845413208
45	208.03166699409485	pulse	1	t		43.0	2.5	/experiments/knapen_AOT/AOT_stimuli/rescaled_final/0390_fw.mp4	0.0	345.67378401756287	
45	209.63134598731995	pulse	1	t		43.0	2.5	/experiments/knapen_AOT/AOT_stimuli/rescaled_final/0390_fw.mp4	0.0	347.27346301078796	
45	210.1395230293274	fix_post	2		12	43.0	2.5	/experiments/knapen_AOT/AOT_stimuli/rescaled_final/0390_fw.mp4	0.0	347.7816400527954	0.0999901294708252
46	210.23951315879822	fix_pre	0		120	44.0	2.5	/experiments/knapen_AOT/AOT_stimuli/rescaled_final/1694_rv.mp4	0.0	347.88163018226624	1.0001599788665771
46	211.23157501220703	pulse	0	t		44.0	2.5	/experiments/knapen_AOT/AOT_stimuli/rescaled_final/1694_rv.mp4	0.0	348.87369203567505	
46	211.2396731376648	movie	1		243	44.0	2.5	/experiments/knapen_AOT/AOT_stimuli/rescaled_final/1694_rv.mp4	0.0	348.8817901611328	2.5088088512420654
46	212.83608317375183	pulse	1	t		44.0	2.5	/experiments/knapen_AOT/AOT_stimuli/rescaled_final/1694_rv.mp4	0.0	350.47820019721985	
46	213.74848198890686	fix_post	2		12	44.0	2.5	/experiments/knapen_AOT/AOT_stimuli/rescaled_final/1694_rv.mp4	0.0	351.3905990123749	0.09994101524353027
47	213.8484230041504	fix_pre	0		120	45.0	2.5	/experiments/knapen_AOT/AOT_stimuli/rescaled_final/1481_rv.mp4	0.0	351.4905400276184	1.0001649856567383
47	214.4320240020752	pulse	0	t		45.0	2.5	/experiments/knapen_AOT/AOT_stimuli/rescaled_final/1481_rv.mp4	0.0	352.0741410255432	
47	214.84858798980713	movie	1		242	45.0	2.5	/experiments/knapen_AOT/AOT_stimuli/rescaled_final/1481_rv.mp4	0.0	352.49070501327515	2.5004851818084717
47	216.03231811523438	pulse	1	t		45.0	2.5	/experiments/knapen_AOT/AOT_stimuli/rescaled_final/1481_rv.mp4	0.0	353.6744351387024	
47	217.3490731716156	fix_post	2		12	45.0	2.5	/experiments/knapen_AOT/AOT_stimuli/rescaled_final/1481_rv.mp4	0.0	354.9911901950836	0.09985995292663574
48	217.44893312454224	fix_pre	0		120	46.0	2.5	/experiments/knapen_AOT/AOT_stimuli/rescaled_final/1012_rv.mp4	0.0	355.09105014801025	1.0001740455627441
48	217.63248896598816	pulse	0	t		46.0	2.5	/experiments/knapen_AOT/AOT_stimuli/rescaled_final/1012_rv.mp4	0.0	355.2746059894562	
48	218.44910717010498	movie	1		242	46.0	2.5	/experiments/knapen_AOT/AOT_stimuli/rescaled_final/1012_rv.mp4	0.0	356.091224193573	2.5004630088806152
48	219.23275518417358	pulse	1	t		46.0	2.5	/experiments/knapen_AOT/AOT_stimuli/rescaled_final/1012_rv.mp4	0.0	356.8748722076416	
48	220.83319997787476	pulse	1	t		46.0	2.5	/experiments/knapen_AOT/AOT_stimuli/rescaled_final/1012_rv.mp4	0.0	358.4753170013428	
48	220.9495701789856	fix_post	2		12	46.0	2.5	/experiments/knapen_AOT/AOT_stimuli/rescaled_final/1012_rv.mp4	0.0	358.5916872024536	0.09990787506103516
49	221.04947805404663	fix_pre	0		120	47.0	2.5	/experiments/knapen_AOT/AOT_stimuli/rescaled_final/0565_rv.mp4	0.0	358.69159507751465	1.0001509189605713
49	222.0496289730072	movie	1		241	47.0	2.5	/experiments/knapen_AOT/AOT_stimuli/rescaled_final/0565_rv.mp4	0.0	359.6917459964752	2.4921481609344482
49	222.4337990283966	pulse	1	t		47.0	2.5	/experiments/knapen_AOT/AOT_stimuli/rescaled_final/0565_rv.mp4	0.0	360.0759160518646	
49	224.0334780216217	pulse	1	t		47.0	2.5	/experiments/knapen_AOT/AOT_stimuli/rescaled_final/0565_rv.mp4	0.0	361.6755950450897	
49	224.54177713394165	fix_post	2		12	47.0	2.5	/experiments/knapen_AOT/AOT_stimuli/rescaled_final/0565_rv.mp4	0.0	362.18389415740967	0.09994101524353027
50	224.64171814918518	fix_pre	0		120	48.0	2.5	blank	1.0	362.2838351726532	1.0001659393310547
50	225.63370013237	pulse	0	t		48.0	2.5	blank	1.0	363.275817155838	
50	225.64188408851624	movie	1		301	48.0	2.5	blank	1.0	363.28400111198425	2.5086510181427
50	227.23390007019043	pulse	1	t		48.0	2.5	blank	1.0	364.87601709365845	
50	228.15053510665894	fix_post	2		12	48.0	2.5	blank	1.0	365.79265213012695	0.09999895095825195
51	228.2505340576172	fix_pre	0		120	49.0	2.5	/experiments/knapen_AOT/AOT_stimuli/rescaled_final/0301_rv.mp4	0.0	365.8926510810852	1.0001800060272217
51	228.83413410186768	pulse	0	t		49.0	2.5	/experiments/knapen_AOT/AOT_stimuli/rescaled_final/0301_rv.mp4	0.0	366.4762511253357	
51	229.2507140636444	movie	1		242	49.0	2.5	/experiments/knapen_AOT/AOT_stimuli/rescaled_final/0301_rv.mp4	0.0	366.8928310871124	2.500509023666382
51	230.43459010124207	pulse	1	t		49.0	2.5	/experiments/knapen_AOT/AOT_stimuli/rescaled_final/0301_rv.mp4	0.0	368.0767071247101	
51	231.7512230873108	fix_post	2		12	49.0	2.5	/experiments/knapen_AOT/AOT_stimuli/rescaled_final/0301_rv.mp4	0.0	369.3933401107788	0.09987807273864746
52	231.85110116004944	fix_pre	0		120	50.0	2.5	/experiments/knapen_AOT/AOT_stimuli/rescaled_final/2090_rv.mp4	0.0	369.49321818351746	1.0001378059387207
52	232.03463196754456	pulse	0	t		50.0	2.5	/experiments/knapen_AOT/AOT_stimuli/rescaled_final/2090_rv.mp4	0.0	369.6767489910126	
52	232.85123896598816	movie	1		243	50.0	2.5	/experiments/knapen_AOT/AOT_stimuli/rescaled_final/2090_rv.mp4	0.0	370.4933559894562	2.5004971027374268
52	233.63485407829285	pulse	1	t		50.0	2.5	/experiments/knapen_AOT/AOT_stimuli/rescaled_final/2090_rv.mp4	0.0	371.27697110176086	
52	235.23526000976562	pulse	1	t		50.0	2.5	/experiments/knapen_AOT/AOT_stimuli/rescaled_final/2090_rv.mp4	0.0	372.87737703323364	
52	235.3517360687256	fix_post	2		12	50.0	2.5	/experiments/knapen_AOT/AOT_stimuli/rescaled_final/2090_rv.mp4	0.0	372.9938530921936	0.09987807273864746
53	235.45161414146423	fix_pre	0		120	51.0	2.5	/experiments/knapen_AOT/AOT_stimuli/rescaled_final/0788_fw.mp4	0.0	373.09373116493225	1.0002038478851318
53	236.45181798934937	movie	1		242	51.0	2.5	/experiments/knapen_AOT/AOT_stimuli/rescaled_final/0788_fw.mp4	0.0	374.0939350128174	2.4922540187835693
53	236.836678981781	pulse	1	t		51.0	2.5	/experiments/knapen_AOT/AOT_stimuli/rescaled_final/0788_fw.mp4	0.0	374.478796005249	
53	238.4356231689453	pulse	1	t		51.0	2.5	/experiments/knapen_AOT/AOT_stimuli/rescaled_final/0788_fw.mp4	0.0	376.07774019241333	
53	238.94407200813293	fix_post	2		12	51.0	2.5	/experiments/knapen_AOT/AOT_stimuli/rescaled_final/0788_fw.mp4	0.0	376.58618903160095	0.09975504875183105
54	239.04382705688477	fix_pre	0		120	52.0	2.5	/experiments/knapen_AOT/AOT_stimuli/rescaled_final/1949_fw.mp4	0.0	376.6859440803528	1.000154972076416
54	240.03581500053406	pulse	0	t		52.0	2.5	/experiments/knapen_AOT/AOT_stimuli/rescaled_final/1949_fw.mp4	0.0	377.6779320240021	
54	240.04398202896118	movie	1		244	52.0	2.5	/experiments/knapen_AOT/AOT_stimuli/rescaled_final/1949_fw.mp4	0.0	377.6860990524292	2.508800983428955
54	241.6400601863861	pulse	1	t		52.0	2.5	/experiments/knapen_AOT/AOT_stimuli/rescaled_final/1949_fw.mp4	0.0	379.2821772098541	
54	242.55278301239014	fix_post	2		12	52.0	2.5	/experiments/knapen_AOT/AOT_stimuli/rescaled_final/1949_fw.mp4	0.0	380.19490003585815	0.09991002082824707
55	242.65269303321838	fix_pre	0		120	53.0	2.5	/experiments/knapen_AOT/AOT_stimuli/rescaled_final/1543_fw.mp4	0.0	380.2948100566864	1.0001780986785889
55	243.23633408546448	pulse	0	t		53.0	2.5	/experiments/knapen_AOT/AOT_stimuli/rescaled_final/1543_fw.mp4	0.0	380.8784511089325	
55	243.65287113189697	movie	1		242	53.0	2.5	/experiments/knapen_AOT/AOT_stimuli/rescaled_final/1543_fw.mp4	0.0	381.294988155365	2.5005369186401367
55	244.83660197257996	pulse	1	t		53.0	2.5	/experiments/knapen_AOT/AOT_stimuli/rescaled_final/1543_fw.mp4	0.0	382.478718996048	
55	246.1534080505371	fix_post	2		12	53.0	2.5	/experiments/knapen_AOT/AOT_stimuli/rescaled_final/1543_fw.mp4	0.0	383.7955250740051	0.09987092018127441
56	246.25327897071838	fix_pre	0		120	54.0	2.5	/experiments/knapen_AOT/AOT_stimuli/rescaled_final/1335_fw.mp4	0.0	383.8953959941864	1.0000841617584229
56	246.43685007095337	pulse	0	t		54.0	2.5	/experiments/knapen_AOT/AOT_stimuli/rescaled_final/1335_fw.mp4	0.0	384.0789670944214	
56	247.2533631324768	movie	1		242	54.0	2.5	/experiments/knapen_AOT/AOT_stimuli/rescaled_final/1335_fw.mp4	0.0	384.8954801559448	2.500638961791992
56	248.0371241569519	pulse	1	t		54.0	2.5	/experiments/knapen_AOT/AOT_stimuli/rescaled_final/1335_fw.mp4	0.0	385.6792411804199	
56	249.63852405548096	pulse	1	t		54.0	2.5	/experiments/knapen_AOT/AOT_stimuli/rescaled_final/1335_fw.mp4	0.0	387.280641078949	
56	249.7540020942688	fix_post	2		12	54.0	2.5	/experiments/knapen_AOT/AOT_stimuli/rescaled_final/1335_fw.mp4	0.0	387.3961191177368	0.09979104995727539
57	249.85379314422607	fix_pre	0		120	55.0	2.5	/experiments/knapen_AOT/AOT_stimuli/rescaled_final/0003_rv.mp4	0.0	387.4959101676941	1.0001778602600098
57	250.85397100448608	movie	1		242	55.0	2.5	/experiments/knapen_AOT/AOT_stimuli/rescaled_final/0003_rv.mp4	0.0	388.4960880279541	2.4922080039978027
57	251.23818707466125	pulse	1	t		55.0	2.5	/experiments/knapen_AOT/AOT_stimuli/rescaled_final/0003_rv.mp4	0.0	388.8803040981293	
57	252.83040499687195	pulse	1	t		55.0	2.5	/experiments/knapen_AOT/AOT_stimuli/rescaled_final/0003_rv.mp4	0.0	390.47252202033997	
57	253.3461790084839	fix_post	2		12	55.0	2.5	/experiments/knapen_AOT/AOT_stimuli/rescaled_final/0003_rv.mp4	0.0	390.9882960319519	0.09986114501953125
58	253.44604015350342	fix_pre	0		120	56.0	2.5	blank	1.0	391.08815717697144	1.000135898590088
58	254.4304699897766	pulse	0	t		56.0	2.5	blank	1.0	392.07258701324463	
58	254.4461760520935	movie	1		301	56.0	2.5	blank	1.0	392.0882930755615	2.5086989402770996
58	256.03070402145386	pulse	1	t		56.0	2.5	blank	1.0	393.6728210449219	
58	256.9548749923706	fix_post	2		12	56.0	2.5	blank	1.0	394.5969920158386	0.09998917579650879
59	257.0548641681671	fix_pre	0		120	57.0	2.5	/experiments/knapen_AOT/AOT_stimuli/rescaled_final/2163_fw.mp4	0.0	394.69698119163513	1.0001428127288818
59	257.63027596473694	pulse	0	t		57.0	2.5	/experiments/knapen_AOT/AOT_stimuli/rescaled_final/2163_fw.mp4	0.0	395.27239298820496	
59	258.055006980896	movie	1		244	57.0	2.5	/experiments/knapen_AOT/AOT_stimuli/rescaled_final/2163_fw.mp4	0.0	395.697124004364	2.5003910064697266
59	259.2315800189972	pulse	1	t		57.0	2.5	/experiments/knapen_AOT/AOT_stimuli/rescaled_final/2163_fw.mp4	0.0	396.8736970424652	
59	260.5553979873657	fix_post	2		10	57.0	2.5	/experiments/knapen_AOT/AOT_stimuli/rescaled_final/2163_fw.mp4	0.0	398.19751501083374	0.09998202323913574
60	260.65538001060486	fix_pre	0		120	58.0	2.5	/experiments/knapen_AOT/AOT_stimuli/rescaled_final/1115_fw.mp4	0.0	398.2974970340729	1.0001640319824219
60	260.83054518699646	pulse	0	t		58.0	2.5	/experiments/knapen_AOT/AOT_stimuli/rescaled_final/1115_fw.mp4	0.0	398.4726622104645	
60	261.6555440425873	movie	1		242	58.0	2.5	/experiments/knapen_AOT/AOT_stimuli/rescaled_final/1115_fw.mp4	0.0	399.2976610660553	2.500570058822632
60	262.43078899383545	pulse	1	t		58.0	2.5	/experiments/knapen_AOT/AOT_stimuli/rescaled_final/1115_fw.mp4	0.0	400.07290601730347	
60	264.0310959815979	pulse	1	t		58.0	2.5	/experiments/knapen_AOT/AOT_stimuli/rescaled_final/1115_fw.mp4	0.0	401.6732130050659	
60	264.1561141014099	fix_post	2		12	58.0	2.5	/experiments/knapen_AOT/AOT_stimuli/rescaled_final/1115_fw.mp4	0.0	401.79823112487793	0.09981393814086914
61	264.2559280395508	fix_pre	0		120	59.0	2.5	/experiments/knapen_AOT/AOT_stimuli/rescaled_final/0406_fw.mp4	0.0	401.8980450630188	1.0001411437988281
61	265.2560691833496	movie	1		242	59.0	2.5	/experiments/knapen_AOT/AOT_stimuli/rescaled_final/0406_fw.mp4	0.0	402.8981862068176	2.492243766784668
61	265.63132905960083	pulse	1	t		59.0	2.5	/experiments/knapen_AOT/AOT_stimuli/rescaled_final/0406_fw.mp4	0.0	403.27344608306885	
61	267.23169898986816	pulse	1	t		59.0	2.5	/experiments/knapen_AOT/AOT_stimuli/rescaled_final/0406_fw.mp4	0.0	404.8738160133362	
61	267.7483129501343	fix_post	2		12	59.0	2.5	/experiments/knapen_AOT/AOT_stimuli/rescaled_final/0406_fw.mp4	0.0	405.3904299736023	0.0998220443725586
62	267.84813499450684	fix_pre	0		119	60.0	2.5	/experiments/knapen_AOT/AOT_stimuli/rescaled_final/0735_rv.mp4	0.0	405.49025201797485	0.991811990737915
62	268.8317201137543	pulse	0	t		60.0	2.5	/experiments/knapen_AOT/AOT_stimuli/rescaled_final/0735_rv.mp4	0.0	406.4738371372223	
62	268.83994698524475	movie	1		246	60.0	2.5	/experiments/knapen_AOT/AOT_stimuli/rescaled_final/0735_rv.mp4	0.0	406.48206400871277	2.5087029933929443
62	270.43283200263977	pulse	1	t		60.0	2.5	/experiments/knapen_AOT/AOT_stimuli/rescaled_final/0735_rv.mp4	0.0	408.0749490261078	
62	271.3486499786377	fix_post	2		12	60.0	2.5	/experiments/knapen_AOT/AOT_stimuli/rescaled_final/0735_rv.mp4	0.0	408.9907670021057	0.09999704360961914
63	271.4486470222473	fix_pre	0		120	61.0	2.5	/experiments/knapen_AOT/AOT_stimuli/rescaled_final/1216_fw.mp4	0.0	409.09076404571533	1.0001521110534668
63	272.03237199783325	pulse	0	t		61.0	2.5	/experiments/knapen_AOT/AOT_stimuli/rescaled_final/1216_fw.mp4	0.0	409.67448902130127	
63	272.4487991333008	movie	1		242	61.0	2.5	/experiments/knapen_AOT/AOT_stimuli/rescaled_final/1216_fw.mp4	0.0	410.0909161567688	2.5006308555603027
63	273.632609128952	pulse	1	t		61.0	2.5	/experiments/knapen_AOT/AOT_stimuli/rescaled_final/1216_fw.mp4	0.0	411.27472615242004	
63	274.9494299888611	fix_post	2		12	61.0	2.5	/experiments/knapen_AOT/AOT_stimuli/rescaled_final/1216_fw.mp4	0.0	412.5915470123291	0.0997769832611084
64	275.0492069721222	fix_pre	0		120	62.0	2.5	blank	1.0	412.6913239955902	1.0002110004425049
64	275.2326900959015	pulse	0	t		62.0	2.5	blank	1.0	412.8748071193695	
64	276.0494179725647	movie	1		300	62.0	2.5	blank	1.0	413.6915349960327	2.50032901763916
64	276.8330421447754	pulse	1	t		62.0	2.5	blank	1.0	414.4751591682434	
64	278.4332420825958	pulse	1	t		62.0	2.5	blank	1.0	416.07535910606384	
64	278.54974699020386	fix_post	2		12	62.0	2.5	blank	1.0	416.1918640136719	0.09997701644897461
65	278.64972400665283	fix_pre	0		120	63.0	2.5	/experiments/knapen_AOT/AOT_stimuli/rescaled_final/1428_fw.mp4	0.0	416.29184103012085	1.0001850128173828
65	279.6499090194702	movie	1		246	63.0	2.5	/experiments/knapen_AOT/AOT_stimuli/rescaled_final/1428_fw.mp4	0.0	417.29202604293823	2.4919910430908203
65	280.03400111198425	pulse	1	t		63.0	2.5	/experiments/knapen_AOT/AOT_stimuli/rescaled_final/1428_fw.mp4	0.0	417.67611813545227	
65	281.633691072464	pulse	1	t		63.0	2.5	/experiments/knapen_AOT/AOT_stimuli/rescaled_final/1428_fw.mp4	0.0	419.275808095932	
65	282.14190006256104	fix_post	2		12	63.0	2.5	/experiments/knapen_AOT/AOT_stimuli/rescaled_final/1428_fw.mp4	0.0	419.78401708602905	0.10006403923034668
66	282.2419641017914	fix_pre	0		120	64.0	2.5	/experiments/knapen_AOT/AOT_stimuli/rescaled_final/0554_fw.mp4	0.0	419.8840811252594	1.0001099109649658
66	283.23391795158386	pulse	0	t		64.0	2.5	/experiments/knapen_AOT/AOT_stimuli/rescaled_final/0554_fw.mp4	0.0	420.8760349750519	
66	283.24207401275635	movie	1		243	64.0	2.5	/experiments/knapen_AOT/AOT_stimuli/rescaled_final/0554_fw.mp4	0.0	420.88419103622437	2.5087521076202393
66	284.83487915992737	pulse	1	t		64.0	2.5	/experiments/knapen_AOT/AOT_stimuli/rescaled_final/0554_fw.mp4	0.0	422.4769961833954	
66	285.7508261203766	fix_post	2		12	64.0	2.5	/experiments/knapen_AOT/AOT_stimuli/rescaled_final/0554_fw.mp4	0.0	423.3929431438446	0.09995388984680176
67	285.8507800102234	fix_pre	0		120	65.0	2.5	/experiments/knapen_AOT/AOT_stimuli/rescaled_final/0148_rv.mp4	0.0	423.4928970336914	1.0001730918884277
67	286.43447709083557	pulse	0	t		65.0	2.5	/experiments/knapen_AOT/AOT_stimuli/rescaled_final/0148_rv.mp4	0.0	424.0765941143036	
67	286.8509531021118	movie	1		243	65.0	2.5	/experiments/knapen_AOT/AOT_stimuli/rescaled_final/0148_rv.mp4	0.0	424.49307012557983	2.500504970550537
67	288.03489804267883	pulse	1	t		65.0	2.5	/experiments/knapen_AOT/AOT_stimuli/rescaled_final/0148_rv.mp4	0.0	425.67701506614685	
67	289.35145807266235	fix_post	2		12	65.0	2.5	/experiments/knapen_AOT/AOT_stimuli/rescaled_final/0148_rv.mp4	0.0	426.99357509613037	0.09990596771240234
68	289.45136404037476	fix_pre	0		120	66.0	2.5	/experiments/knapen_AOT/AOT_stimuli/rescaled_final/0796_rv.mp4	0.0	427.0934810638428	1.0001881122589111
68	289.6348900794983	pulse	0	t		66.0	2.5	/experiments/knapen_AOT/AOT_stimuli/rescaled_final/0796_rv.mp4	0.0	427.2770071029663	
68	290.45155215263367	movie	1		242	66.0	2.5	/experiments/knapen_AOT/AOT_stimuli/rescaled_final/0796_rv.mp4	0.0	428.0936691761017	2.5004689693450928
68	291.23526310920715	pulse	1	t		66.0	2.5	/experiments/knapen_AOT/AOT_stimuli/rescaled_final/0796_rv.mp4	0.0	428.87738013267517	
68	292.8354001045227	pulse	1	t		66.0	2.5	/experiments/knapen_AOT/AOT_stimuli/rescaled_final/0796_rv.mp4	0.0	430.4775171279907	
68	292.95202112197876	fix_post	2		12	66.0	2.5	/experiments/knapen_AOT/AOT_stimuli/rescaled_final/0796_rv.mp4	0.0	430.5941381454468	0.09983301162719727
69	293.05185413360596	fix_pre	0		119	67.0	2.5	/experiments/knapen_AOT/AOT_stimuli/rescaled_final/2102_fw.mp4	0.0	430.693971157074	0.9918258190155029
69	294.04367995262146	movie	1		242	67.0	2.5	/experiments/knapen_AOT/AOT_stimuli/rescaled_final/2102_fw.mp4	0.0	431.6857969760895	2.5006110668182373
69	294.4357089996338	pulse	1	t		67.0	2.5	/experiments/knapen_AOT/AOT_stimuli/rescaled_final/2102_fw.mp4	0.0	432.0778260231018	
69	296.03579902648926	pulse	1	t		67.0	2.5	/experiments/knapen_AOT/AOT_stimuli/rescaled_final/2102_fw.mp4	0.0	433.6779160499573	
69	296.5442910194397	fix_post	2		12	67.0	2.5	/experiments/knapen_AOT/AOT_stimuli/rescaled_final/2102_fw.mp4	0.0	434.1864080429077	0.09980106353759766
70	296.6440920829773	fix_pre	0		120	68.0	2.5	/experiments/knapen_AOT/AOT_stimuli/rescaled_final/1694_fw.mp4	0.0	434.2862091064453	1.0001220703125
70	297.6360659599304	pulse	0	t		68.0	2.5	/experiments/knapen_AOT/AOT_stimuli/rescaled_final/1694_fw.mp4	0.0	435.27818298339844	
70	297.6442141532898	movie	1		243	68.0	2.5	/experiments/knapen_AOT/AOT_stimuli/rescaled_final/1694_fw.mp4	0.0	435.2863311767578	2.5088448524475098
70	299.23695397377014	pulse	1	t		68.0	2.5	/experiments/knapen_AOT/AOT_stimuli/rescaled_final/1694_fw.mp4	0.0	436.87907099723816	
70	300.1530590057373	fix_post	2		12	68.0	2.5	/experiments/knapen_AOT/AOT_stimuli/rescaled_final/1694_fw.mp4	0.0	437.7951760292053	0.09989809989929199
71	300.2529571056366	fix_pre	0		120	69.0	2.5	blank	1.0	437.8950741291046	1.0001749992370605
71	300.836608171463	pulse	0	t		69.0	2.5	blank	1.0	438.47872519493103	
71	301.25313210487366	movie	1		300	69.0	2.5	blank	1.0	438.8952491283417	2.500342845916748
71	302.43694400787354	pulse	1	t		69.0	2.5	blank	1.0	440.07906103134155	
71	303.7534749507904	fix_post	2		12	69.0	2.5	blank	1.0	441.3955919742584	0.10003805160522461
72	303.85351300239563	fix_pre	0		120	70.0	2.5	/experiments/knapen_AOT/AOT_stimuli/rescaled_final/0784_rv.mp4	0.0	441.49563002586365	1.000148057937622
72	304.03703808784485	pulse	0	t		70.0	2.5	/experiments/knapen_AOT/AOT_stimuli/rescaled_final/0784_rv.mp4	0.0	441.67915511131287	
72	304.85366106033325	movie	1		243	70.0	2.5	/experiments/knapen_AOT/AOT_stimuli/rescaled_final/0784_rv.mp4	0.0	442.49577808380127	2.5004589557647705
72	305.62983798980713	pulse	1	t		70.0	2.5	/experiments/knapen_AOT/AOT_stimuli/rescaled_final/0784_rv.mp4	0.0	443.27195501327515	
72	307.2376129627228	pulse	1	t		70.0	2.5	/experiments/knapen_AOT/AOT_stimuli/rescaled_final/0784_rv.mp4	0.0	444.8797299861908	
72	307.354120016098	fix_post	2		12	70.0	2.5	/experiments/knapen_AOT/AOT_stimuli/rescaled_final/0784_rv.mp4	0.0	444.99623703956604	0.09990096092224121
73	307.45402097702026	fix_pre	0		120	71.0	2.5	/experiments/knapen_AOT/AOT_stimuli/rescaled_final/0703_rv.mp4	0.0	445.0961380004883	1.0001862049102783
73	308.45420718193054	movie	1		242	71.0	2.5	/experiments/knapen_AOT/AOT_stimuli/rescaled_final/0703_rv.mp4	0.0	446.09632420539856	2.4921979904174805
73	308.838623046875	pulse	1	t		71.0	2.5	/experiments/knapen_AOT/AOT_stimuli/rescaled_final/0703_rv.mp4	0.0	446.480740070343	
73	310.42988896369934	pulse	1	t		71.0	2.5	/experiments/knapen_AOT/AOT_stimuli/rescaled_final/0703_rv.mp4	0.0	448.07200598716736	
73	310.946405172348	fix_post	2		12	71.0	2.5	/experiments/knapen_AOT/AOT_stimuli/rescaled_final/0703_rv.mp4	0.0	448.58852219581604	0.09980893135070801
74	311.04621410369873	fix_pre	0		119	72.0	2.5	/experiments/knapen_AOT/AOT_stimuli/rescaled_final/0227_rv.mp4	0.0	448.68833112716675	0.9918289184570312
74	312.0298910140991	pulse	0	t		72.0	2.5	/experiments/knapen_AOT/AOT_stimuli/rescaled_final/0227_rv.mp4	0.0	449.67200803756714	
74	312.03804302215576	movie	1		243	72.0	2.5	/experiments/knapen_AOT/AOT_stimuli/rescaled_final/0227_rv.mp4	0.0	449.6801600456238	2.5087599754333496
74	313.6307511329651	pulse	1	t		72.0	2.5	/experiments/knapen_AOT/AOT_stimuli/rescaled_final/0227_rv.mp4	0.0	451.2728681564331	
74	314.5468029975891	fix_post	2		12	72.0	2.5	/experiments/knapen_AOT/AOT_stimuli/rescaled_final/0227_rv.mp4	0.0	452.18892002105713	0.0999460220336914
75	314.6467490196228	fix_pre	0		120	73.0	2.5	/experiments/knapen_AOT/AOT_stimuli/rescaled_final/1803_fw.mp4	0.0	452.2888660430908	1.00018310546875
75	315.23037004470825	pulse	0	t		73.0	2.5	/experiments/knapen_AOT/AOT_stimuli/rescaled_final/1803_fw.mp4	0.0	452.87248706817627	
75	315.64693212509155	movie	1		242	73.0	2.5	/experiments/knapen_AOT/AOT_stimuli/rescaled_final/1803_fw.mp4	0.0	453.28904914855957	2.500499963760376
75	316.8307011127472	pulse	1	t		73.0	2.5	/experiments/knapen_AOT/AOT_stimuli/rescaled_final/1803_fw.mp4	0.0	454.4728181362152	
75	318.14743208885193	fix_post	2		12	73.0	2.5	/experiments/knapen_AOT/AOT_stimuli/rescaled_final/1803_fw.mp4	0.0	455.78954911231995	0.09990596771240234
76	318.24733805656433	fix_pre	0		120	74.0	2.5	/experiments/knapen_AOT/AOT_stimuli/rescaled_final/1752_fw.mp4	0.0	455.88945508003235	1.0001139640808105
76	318.4308531284332	pulse	0	t		74.0	2.5	/experiments/knapen_AOT/AOT_stimuli/rescaled_final/1752_fw.mp4	0.0	456.07297015190125	
76	319.24745202064514	movie	1		243	74.0	2.5	/experiments/knapen_AOT/AOT_stimuli/rescaled_final/1752_fw.mp4	0.0	456.88956904411316	2.5025980472564697
76	320.03120708465576	pulse	1	t		74.0	2.5	/experiments/knapen_AOT/AOT_stimuli/rescaled_final/1752_fw.mp4	0.0	457.6733241081238	
76	321.63128209114075	pulse	1	t		74.0	2.5	/experiments/knapen_AOT/AOT_stimuli/rescaled_final/1752_fw.mp4	0.0	459.27339911460876	
76	321.7500500679016	fix_post	2		9	74.0	2.5	/experiments/knapen_AOT/AOT_stimuli/rescaled_final/1752_fw.mp4	0.0	459.39216709136963	0.0977790355682373
77	321.84782910346985	fix_pre	0		120	75.0	2.5	/experiments/knapen_AOT/AOT_stimuli/rescaled_final/1068_rv.mp4	0.0	459.48994612693787	1.0001890659332275
77	322.8480181694031	movie	1		242	75.0	2.5	/experiments/knapen_AOT/AOT_stimuli/rescaled_final/1068_rv.mp4	0.0	460.4901351928711	2.491987943649292
77	323.23228096961975	pulse	1	t		75.0	2.5	/experiments/knapen_AOT/AOT_stimuli/rescaled_final/1068_rv.mp4	0.0	460.87439799308777	
77	324.83183097839355	pulse	1	t		75.0	2.5	/experiments/knapen_AOT/AOT_stimuli/rescaled_final/1068_rv.mp4	0.0	462.4739480018616	
77	325.34000611305237	fix_post	2		12	75.0	2.5	/experiments/knapen_AOT/AOT_stimuli/rescaled_final/1068_rv.mp4	0.0	462.9821231365204	0.10002398490905762
78	325.4400300979614	fix_pre	0		120	76.0	2.5	blank	1.0	463.08214712142944	1.0001699924468994
78	326.4321460723877	pulse	0	t		76.0	2.5	blank	1.0	464.0742630958557	
78	326.4402000904083	movie	1		301	76.0	2.5	blank	1.0	464.08231711387634	2.508758068084717
78	328.0322940349579	pulse	1	t		76.0	2.5	blank	1.0	465.6744110584259	
78	328.94895815849304	fix_post	2		12	76.0	2.5	blank	1.0	466.59107518196106	0.10004901885986328
79	329.0490071773529	fix_pre	0		120	77.0	2.5	/experiments/knapen_AOT/AOT_stimuli/rescaled_final/1115_rv.mp4	0.0	466.6911242008209	1.00003981590271
79	329.63256001472473	pulse	0	t		77.0	2.5	/experiments/knapen_AOT/AOT_stimuli/rescaled_final/1115_rv.mp4	0.0	467.27467703819275	
79	330.0490469932556	movie	1		242	77.0	2.5	/experiments/knapen_AOT/AOT_stimuli/rescaled_final/1115_rv.mp4	0.0	467.69116401672363	2.5005409717559814
79	331.2329361438751	pulse	1	t		77.0	2.5	/experiments/knapen_AOT/AOT_stimuli/rescaled_final/1115_rv.mp4	0.0	468.87505316734314	
79	332.5495879650116	fix_post	2		12	77.0	2.5	/experiments/knapen_AOT/AOT_stimuli/rescaled_final/1115_rv.mp4	0.0	470.1917049884796	0.09990906715393066
80	332.6494970321655	fix_pre	0		120	78.0	2.5	/experiments/knapen_AOT/AOT_stimuli/rescaled_final/1622_rv.mp4	0.0	470.29161405563354	1.0001060962677002
80	332.8330671787262	pulse	0	t		78.0	2.5	/experiments/knapen_AOT/AOT_stimuli/rescaled_final/1622_rv.mp4	0.0	470.4751842021942	
80	333.6496031284332	movie	1		242	78.0	2.5	/experiments/knapen_AOT/AOT_stimuli/rescaled_final/1622_rv.mp4	0.0	471.29172015190125	2.500566005706787
80	334.4332311153412	pulse	1	t		78.0	2.5	/experiments/knapen_AOT/AOT_stimuli/rescaled_final/1622_rv.mp4	0.0	472.0753481388092	
80	336.03373312950134	pulse	1	t		78.0	2.5	/experiments/knapen_AOT/AOT_stimuli/rescaled_final/1622_rv.mp4	0.0	473.67585015296936	
80	336.15016913414	fix_post	2		12	78.0	2.5	/experiments/knapen_AOT/AOT_stimuli/rescaled_final/1622_rv.mp4	0.0	473.79228615760803	0.09979391098022461
81	336.24996304512024	fix_pre	0		120	79.0	2.5	/experiments/knapen_AOT/AOT_stimuli/rescaled_final/1326_fw.mp4	0.0	473.89208006858826	1.0002341270446777
81	337.2501971721649	movie	1		240	79.0	2.5	/experiments/knapen_AOT/AOT_stimuli/rescaled_final/1326_fw.mp4	0.0	474.89231419563293	2.4920969009399414
81	337.6343650817871	pulse	1	t		79.0	2.5	/experiments/knapen_AOT/AOT_stimuli/rescaled_final/1326_fw.mp4	0.0	475.2764821052551	
81	339.23396015167236	pulse	1	t		79.0	2.5	/experiments/knapen_AOT/AOT_stimuli/rescaled_final/1326_fw.mp4	0.0	476.8760771751404	
81	339.74229407310486	fix_post	2		12	79.0	2.5	/experiments/knapen_AOT/AOT_stimuli/rescaled_final/1326_fw.mp4	0.0	477.3844110965729	0.10001802444458008
82	339.84231209754944	fix_pre	0		120	80.0	2.5	/experiments/knapen_AOT/AOT_stimuli/rescaled_final/0597_fw.mp4	0.0	477.48442912101746	1.0000159740447998
82	340.83420515060425	pulse	0	t		80.0	2.5	/experiments/knapen_AOT/AOT_stimuli/rescaled_final/0597_fw.mp4	0.0	478.47632217407227	
82	340.84232807159424	movie	1		243	80.0	2.5	/experiments/knapen_AOT/AOT_stimuli/rescaled_final/0597_fw.mp4	0.0	478.48444509506226	2.508975028991699
82	342.4350290298462	pulse	1	t		80.0	2.5	/experiments/knapen_AOT/AOT_stimuli/rescaled_final/0597_fw.mp4	0.0	480.0771460533142	
82	343.35130310058594	fix_post	2		12	80.0	2.5	/experiments/knapen_AOT/AOT_stimuli/rescaled_final/0597_fw.mp4	0.0	480.99342012405396	0.09985589981079102
83	343.45115900039673	fix_pre	0		120	81.0	2.5	/experiments/knapen_AOT/AOT_stimuli/rescaled_final/1679_rv.mp4	0.0	481.09327602386475	1.0000121593475342
83	344.03463196754456	pulse	0	t		81.0	2.5	/experiments/knapen_AOT/AOT_stimuli/rescaled_final/1679_rv.mp4	0.0	481.6767489910126	
83	344.45117115974426	movie	1		242	81.0	2.5	/experiments/knapen_AOT/AOT_stimuli/rescaled_final/1679_rv.mp4	0.0	482.0932881832123	2.500513792037964
83	345.63498306274414	pulse	1	t		81.0	2.5	/experiments/knapen_AOT/AOT_stimuli/rescaled_final/1679_rv.mp4	0.0	483.27710008621216	
83	346.9516849517822	fix_post	2		12	81.0	2.5	/experiments/knapen_AOT/AOT_stimuli/rescaled_final/1679_rv.mp4	0.0	484.59380197525024	0.0999140739440918
84	347.0515990257263	fix_pre	0		120	82.0	2.5	blank	1.0	484.69371604919434	1.000133991241455
84	347.23514008522034	pulse	0	t		82.0	2.5	blank	1.0	484.87725710868835	
84	348.0517330169678	movie	1		300	82.0	2.5	blank	1.0	485.6938500404358	2.5004470348358154
84	348.8353910446167	pulse	1	t		82.0	2.5	blank	1.0	486.4775080680847	
84	350.4355821609497	pulse	1	t		82.0	2.5	blank	1.0	488.0776991844177	
84	350.5521800518036	fix_post	2		12	82.0	2.5	blank	1.0	488.1942970752716	0.10001206398010254
85	350.6521921157837	fix_pre	0		120	83.0	2.5	/experiments/knapen_AOT/AOT_stimuli/rescaled_final/0543_rv.mp4	0.0	488.2943091392517	1.0000989437103271
85	351.652291059494	movie	1		242	83.0	2.5	/experiments/knapen_AOT/AOT_stimuli/rescaled_final/0543_rv.mp4	0.0	489.29440808296204	2.4922590255737305
85	352.0367829799652	pulse	1	t		83.0	2.5	/experiments/knapen_AOT/AOT_stimuli/rescaled_final/0543_rv.mp4	0.0	489.6789000034332	
85	353.6361150741577	pulse	1	t		83.0	2.5	/experiments/knapen_AOT/AOT_stimuli/rescaled_final/0543_rv.mp4	0.0	491.27823209762573	
85	354.14455008506775	fix_post	2		12	83.0	2.5	/experiments/knapen_AOT/AOT_stimuli/rescaled_final/0543_rv.mp4	0.0	491.78666710853577	0.09978199005126953
87	354.244332075119	stim	0		1716					491.88644909858704	14.302160024642944
87	355.23638010025024	pulse	0	t						492.87849712371826	
87	356.8366451263428	pulse	0	t						494.4787621498108	
87	358.43677616119385	pulse	0	t						496.07889318466187	
87	360.0370421409607	pulse	0	t						497.6791591644287	
87	361.6372661590576	pulse	0	t						499.27938318252563	
87	363.23022198677063	pulse	0	t						500.87233901023865	
87	364.8304371833801	pulse	0	t						502.47255420684814	
87	366.430545091629	pulse	0	t						504.07266211509705	
87	368.03082609176636	pulse	0	t						505.6729431152344	
