trial_nr	onset	event_type	phase	response	nr_frames	movie_index	movie_duration	movie_file	blank	onset_abs	duration
0	0.13333606719970703	stim	0		209					46.87722301483154	1.7416009902954102
0	1.8668689727783203	response	0	space						48.610755920410156	
1	1.8749370574951172	stim	0		4468					48.61882400512695	37.23319101333618
1	39.10264015197754	pulse	0	t						85.84652709960938	
1	39.1081280708313	stim	1		1717					85.85201501846313	14.308255910873413
1	40.69995307922363	pulse	1	t						87.44384002685547	
1	42.29990100860596	pulse	1	t						89.0437879562378	
1	43.8998441696167	pulse	1	t						90.64373111724854	
1	45.50006914138794	pulse	1	t						92.24395608901978	
1	47.09958815574646	pulse	1	t						93.8434751033783	
1	48.70011901855469	pulse	1	t						95.44400596618652	
1	50.299856185913086	pulse	1	t						97.04374313354492	
1	51.89986801147461	pulse	1	t						98.64375495910645	
2	53.41638398170471	fix_pre	0		11	0.0	2.5	/experiments/aot/S_ILSVRC2015_test_00012005.mp4	0.0	100.16027092933655	0.09171009063720703
2	53.499920129776	pulse	0	t		0.0	2.5	/experiments/aot/S_ILSVRC2015_test_00012005.mp4	0.0	100.24380707740784	
2	53.50809407234192	movie	1		301	0.0	2.5	/experiments/aot/S_ILSVRC2015_test_00012005.mp4	0.0	100.25198101997375	2.5082790851593018
2	55.0999071598053	pulse	1	t		0.0	2.5	/experiments/aot/S_ILSVRC2015_test_00012005.mp4	0.0	101.84379410743713	
2	56.01637315750122	fix_post	2		12	0.0	2.5	/experiments/aot/S_ILSVRC2015_test_00012005.mp4	0.0	102.76026010513306	0.10001993179321289
3	56.116393089294434	fix_pre	0		120	1.0	2.5	/experiments/aot/S_yt-AbJBxqEYoMg_105.mp4	0.0	102.86028003692627	0.9999549388885498
3	56.699817180633545	pulse	0	t		1.0	2.5	/experiments/aot/S_yt-AbJBxqEYoMg_105.mp4	0.0	103.44370412826538	
3	57.11634802818298	movie	1		300	1.0	2.5	/experiments/aot/S_yt-AbJBxqEYoMg_105.mp4	0.0	103.86023497581482	2.4999849796295166
3	58.299750089645386	pulse	1	t		1.0	2.5	/experiments/aot/S_yt-AbJBxqEYoMg_105.mp4	0.0	105.04363703727722	
3	59.6163330078125	fix_post	2		12	1.0	2.5	/experiments/aot/S_yt-AbJBxqEYoMg_105.mp4	0.0	106.36021995544434	0.09995508193969727
4	59.7162880897522	fix_pre	0		120	2.0	2.5	/experiments/aot/R_S_yt-Gc1p5CnDbDY_22.mp4	0.0	106.46017503738403	0.9999771118164062
4	59.89982008934021	pulse	0	t		2.0	2.5	/experiments/aot/R_S_yt-Gc1p5CnDbDY_22.mp4	0.0	106.64370703697205	
4	60.7162652015686	movie	1		300	2.0	2.5	/experiments/aot/R_S_yt-Gc1p5CnDbDY_22.mp4	0.0	107.46015214920044	2.5000648498535156
4	61.49979209899902	pulse	1	t		2.0	2.5	/experiments/aot/R_S_yt-Gc1p5CnDbDY_22.mp4	0.0	108.24367904663086	
4	63.09980511665344	pulse	1	t		2.0	2.5	/experiments/aot/R_S_yt-Gc1p5CnDbDY_22.mp4	0.0	109.84369206428528	
4	63.21633005142212	fix_post	2		12	2.0	2.5	/experiments/aot/R_S_yt-Gc1p5CnDbDY_22.mp4	0.0	109.96021699905396	0.09993910789489746
5	63.31626915931702	fix_pre	0		120	3.0	2.5	/experiments/aot/R_S_yt-ebajhZwlVJM_32.mp4	0.0	110.06015610694885	1.0000488758087158
5	64.31631803512573	movie	1		300	3.0	2.5	/experiments/aot/R_S_yt-ebajhZwlVJM_32.mp4	0.0	111.06020498275757	2.499998092651367
5	64.69978213310242	pulse	1	t		3.0	2.5	/experiments/aot/R_S_yt-ebajhZwlVJM_32.mp4	0.0	111.44366908073425	
5	66.29977107048035	pulse	1	t		3.0	2.5	/experiments/aot/R_S_yt-ebajhZwlVJM_32.mp4	0.0	113.04365801811218	
5	66.8163161277771	fix_post	2		12	3.0	2.5	/experiments/aot/R_S_yt-ebajhZwlVJM_32.mp4	0.0	113.56020307540894	0.09995198249816895
6	66.91626811027527	fix_pre	0		119	4.0	2.5	/experiments/aot/R_S_nPwtvvPgdNc_39.mp4	0.0	113.6601550579071	0.9917430877685547
6	67.89982604980469	pulse	0	t		4.0	2.5	/experiments/aot/R_S_nPwtvvPgdNc_39.mp4	0.0	114.64371299743652	
6	67.90801119804382	movie	1		301	4.0	2.5	/experiments/aot/R_S_nPwtvvPgdNc_39.mp4	0.0	114.65189814567566	2.5083389282226562
6	69.49978518486023	pulse	1	t		4.0	2.5	/experiments/aot/R_S_nPwtvvPgdNc_39.mp4	0.0	116.24367213249207	
6	70.41635012626648	fix_post	2		12	4.0	2.5	/experiments/aot/R_S_nPwtvvPgdNc_39.mp4	0.0	117.16023707389832	0.09984993934631348
7	70.5162000656128	fix_pre	0		120	5.0	2.5	/experiments/aot/R_S_G007_C004_UHD_SDR_2K_AVC.mp4	0.0	117.26008701324463	1.0000789165496826
7	71.0998260974884	pulse	0	t		5.0	2.5	/experiments/aot/R_S_G007_C004_UHD_SDR_2K_AVC.mp4	0.0	117.84371304512024	
7	71.51627898216248	movie	1		170	5.0	2.5	/experiments/aot/R_S_G007_C004_UHD_SDR_2K_AVC.mp4	0.0	118.26016592979431	2.499983072280884
7	72.69986701011658	pulse	1	t		5.0	2.5	/experiments/aot/R_S_G007_C004_UHD_SDR_2K_AVC.mp4	0.0	119.44375395774841	
7	74.01626205444336	fix_post	2		12	5.0	2.5	/experiments/aot/R_S_G007_C004_UHD_SDR_2K_AVC.mp4	0.0	120.7601490020752	0.10005998611450195
8	74.11632204055786	fix_pre	0		120	6.0	2.5	blank	1.0	120.8602089881897	1.0000419616699219
8	74.29980897903442	pulse	0	t		6.0	2.5	blank	1.0	121.04369592666626	
8	75.11636400222778	movie	1		300	6.0	2.5	blank	1.0	121.86025094985962	2.499948024749756
8	75.89980602264404	pulse	1	t		6.0	2.5	blank	1.0	122.64369297027588	
8	77.49977016448975	pulse	1	t		6.0	2.5	blank	1.0	124.24365711212158	
8	77.61631202697754	fix_post	2		12	6.0	2.5	blank	1.0	124.36019897460938	0.09996294975280762
9	77.71627497673035	fix_pre	0		120	7.0	2.5	/experiments/aot/S_yt-c-H45QS0CF4_147.mp4	0.0	124.46016192436218	0.9999840259552002
9	78.71625900268555	movie	1		300	7.0	2.5	/experiments/aot/S_yt-c-H45QS0CF4_147.mp4	0.0	125.46014595031738	2.5000481605529785
9	79.09979104995728	pulse	1	t		7.0	2.5	/experiments/aot/S_yt-c-H45QS0CF4_147.mp4	0.0	125.84367799758911	
9	80.69974613189697	pulse	1	t		7.0	2.5	/experiments/aot/S_yt-c-H45QS0CF4_147.mp4	0.0	127.44363307952881	
9	81.21630716323853	fix_post	2		12	7.0	2.5	/experiments/aot/S_yt-c-H45QS0CF4_147.mp4	0.0	127.96019411087036	0.0999448299407959
10	81.31625199317932	fix_pre	0		119	8.0	2.5	/experiments/aot/S_comp_L007_C007_PS_v01_SDR_PS_20180925_SDR_2K_AVC.mp4	0.0	128.06013894081116	0.9916911125183105
10	82.29968619346619	pulse	0	t		8.0	2.5	/experiments/aot/S_comp_L007_C007_PS_v01_SDR_PS_20180925_SDR_2K_AVC.mp4	0.0	129.04357314109802	
10	82.30794310569763	movie	1		164	8.0	2.5	/experiments/aot/S_comp_L007_C007_PS_v01_SDR_PS_20180925_SDR_2K_AVC.mp4	0.0	129.05183005332947	2.5083608627319336
10	83.8995110988617	pulse	1	t		8.0	2.5	/experiments/aot/S_comp_L007_C007_PS_v01_SDR_PS_20180925_SDR_2K_AVC.mp4	0.0	130.64339804649353	
10	84.81630396842957	fix_post	2		12	8.0	2.5	/experiments/aot/S_comp_L007_C007_PS_v01_SDR_PS_20180925_SDR_2K_AVC.mp4	0.0	131.5601909160614	0.09999203681945801
11	84.91629600524902	fix_pre	0		120	9.0	2.5	/experiments/aot/S_yt-GfPep7IhZIU_47.mp4	0.0	131.66018295288086	0.9999971389770508
11	85.4997329711914	pulse	0	t		9.0	2.5	/experiments/aot/S_yt-GfPep7IhZIU_47.mp4	0.0	132.24361991882324	
11	85.91629314422607	movie	1		300	9.0	2.5	/experiments/aot/S_yt-GfPep7IhZIU_47.mp4	0.0	132.6601800918579	2.4999849796295166
11	87.09963202476501	pulse	1	t		9.0	2.5	/experiments/aot/S_yt-GfPep7IhZIU_47.mp4	0.0	133.84351897239685	
11	88.41627812385559	fix_post	2		12	9.0	2.5	/experiments/aot/S_yt-GfPep7IhZIU_47.mp4	0.0	135.16016507148743	0.09997200965881348
12	88.5162501335144	fix_pre	0		120	10.0	2.5	/experiments/aot/R_S_yt-Ub5Xx5BqIOk_74.mp4	0.0	135.26013708114624	1.0001099109649658
12	88.6997561454773	pulse	0	t		10.0	2.5	/experiments/aot/R_S_yt-Ub5Xx5BqIOk_74.mp4	0.0	135.44364309310913	
12	89.51636004447937	movie	1		300	10.0	2.5	/experiments/aot/R_S_yt-Ub5Xx5BqIOk_74.mp4	0.0	136.2602469921112	2.4998581409454346
12	90.29964900016785	pulse	1	t		10.0	2.5	/experiments/aot/R_S_yt-Ub5Xx5BqIOk_74.mp4	0.0	137.04353594779968	
12	91.899658203125	pulse	1	t		10.0	2.5	/experiments/aot/R_S_yt-Ub5Xx5BqIOk_74.mp4	0.0	138.64354515075684	
12	92.0162181854248	fix_post	2		12	10.0	2.5	/experiments/aot/R_S_yt-Ub5Xx5BqIOk_74.mp4	0.0	138.76010513305664	0.09998297691345215
13	92.11620116233826	fix_pre	0		120	11.0	2.5	/experiments/aot/S_yt-5fZZrdwkFx0_28.mp4	0.0	138.8600881099701	1.000018835067749
13	93.116219997406	movie	1		299	11.0	2.5	/experiments/aot/S_yt-5fZZrdwkFx0_28.mp4	0.0	139.86010694503784	2.5000011920928955
13	93.49968099594116	pulse	1	t		11.0	2.5	/experiments/aot/S_yt-5fZZrdwkFx0_28.mp4	0.0	140.243567943573	
13	95.09962797164917	pulse	1	t		11.0	2.5	/experiments/aot/S_yt-5fZZrdwkFx0_28.mp4	0.0	141.843514919281	
13	95.6162211894989	fix_post	2		12	11.0	2.5	/experiments/aot/S_yt-5fZZrdwkFx0_28.mp4	0.0	142.36010813713074	0.09997296333312988
14	95.71619415283203	fix_pre	0		119	12.0	2.5	/experiments/aot/R_S_yt-FMIevUic_XY_50.mp4	0.0	142.46008110046387	0.9917178153991699
14	96.69966912269592	pulse	0	t		12.0	2.5	/experiments/aot/R_S_yt-FMIevUic_XY_50.mp4	0.0	143.44355607032776	
14	96.7079119682312	movie	1		301	12.0	2.5	/experiments/aot/R_S_yt-FMIevUic_XY_50.mp4	0.0	143.45179891586304	2.5082712173461914
14	98.2997031211853	pulse	1	t		12.0	2.5	/experiments/aot/R_S_yt-FMIevUic_XY_50.mp4	0.0	145.04359006881714	
14	99.21618318557739	fix_post	2		12	12.0	2.5	/experiments/aot/R_S_yt-FMIevUic_XY_50.mp4	0.0	145.96007013320923	0.10000085830688477
15	99.31618404388428	fix_pre	0		120	13.0	2.5	blank	1.0	146.0600709915161	0.9999620914459229
15	99.8996000289917	pulse	0	t		13.0	2.5	blank	1.0	146.64348697662354	
15	100.3161461353302	movie	1		300	13.0	2.5	blank	1.0	147.06003308296204	2.4995648860931396
15	101.4996349811554	pulse	1	t		13.0	2.5	blank	1.0	148.24352192878723	
15	102.81571102142334	fix_post	2		12	13.0	2.5	blank	1.0	149.55959796905518	0.10001707077026367
16	102.9157280921936	fix_pre	0		120	14.0	2.5	/experiments/aot/S_b1-3.mp4	0.0	149.65961503982544	1.0001490116119385
16	103.09930801391602	pulse	0	t		14.0	2.5	/experiments/aot/S_b1-3.mp4	0.0	149.84319496154785	
16	103.91587710380554	movie	1		163	14.0	2.5	/experiments/aot/S_b1-3.mp4	0.0	150.65976405143738	2.5002269744873047
16	104.69997811317444	pulse	1	t		14.0	2.5	/experiments/aot/S_b1-3.mp4	0.0	151.44386506080627	
16	106.29975318908691	pulse	1	t		14.0	2.5	/experiments/aot/S_b1-3.mp4	0.0	153.04364013671875	
16	106.41610407829285	fix_post	2		12	14.0	2.5	/experiments/aot/S_b1-3.mp4	0.0	153.15999102592468	0.10001707077026367
17	106.51612114906311	fix_pre	0		120	15.0	2.5	/experiments/aot/S_comp_L007_C007_PS_v01_SDR_PS_20180925_SDR_2K_AVC.mp4	0.0	153.26000809669495	0.9999799728393555
17	107.51610112190247	movie	1		165	15.0	2.5	/experiments/aot/S_comp_L007_C007_PS_v01_SDR_PS_20180925_SDR_2K_AVC.mp4	0.0	154.2599880695343	2.49993896484375
17	107.8996729850769	pulse	1	t		15.0	2.5	/experiments/aot/S_comp_L007_C007_PS_v01_SDR_PS_20180925_SDR_2K_AVC.mp4	0.0	154.64355993270874	
17	109.49962902069092	pulse	1	t		15.0	2.5	/experiments/aot/S_comp_L007_C007_PS_v01_SDR_PS_20180925_SDR_2K_AVC.mp4	0.0	156.24351596832275	
17	110.01604008674622	fix_post	2		12	15.0	2.5	/experiments/aot/S_comp_L007_C007_PS_v01_SDR_PS_20180925_SDR_2K_AVC.mp4	0.0	156.75992703437805	0.1000208854675293
18	110.11606097221375	fix_pre	0		119	16.0	2.5	/experiments/aot/R_S_ILSVRC2015_train_00457000.mp4	0.0	156.85994791984558	0.9916520118713379
18	111.0995180606842	pulse	0	t		16.0	2.5	/experiments/aot/R_S_ILSVRC2015_train_00457000.mp4	0.0	157.84340500831604	
18	111.10771298408508	movie	1		301	16.0	2.5	/experiments/aot/R_S_ILSVRC2015_train_00457000.mp4	0.0	157.85159993171692	2.5082831382751465
18	112.69952917098999	pulse	1	t		16.0	2.5	/experiments/aot/R_S_ILSVRC2015_train_00457000.mp4	0.0	159.44341611862183	
18	113.61599612236023	fix_post	2		12	16.0	2.5	/experiments/aot/R_S_ILSVRC2015_train_00457000.mp4	0.0	160.35988306999207	0.10004401206970215
19	113.71604013442993	fix_pre	0		120	17.0	2.5	/experiments/aot/R_S_yt-BG-G7m5wLZ4_94.mp4	0.0	160.45992708206177	1.0
19	114.29953408241272	pulse	0	t		17.0	2.5	/experiments/aot/R_S_yt-BG-G7m5wLZ4_94.mp4	0.0	161.04342103004456	
19	114.71604013442993	movie	1		300	17.0	2.5	/experiments/aot/R_S_yt-BG-G7m5wLZ4_94.mp4	0.0	161.45992708206177	2.500056028366089
19	115.89953398704529	pulse	1	t		17.0	2.5	/experiments/aot/R_S_yt-BG-G7m5wLZ4_94.mp4	0.0	162.64342093467712	
19	117.21609616279602	fix_post	2		12	17.0	2.5	/experiments/aot/R_S_yt-BG-G7m5wLZ4_94.mp4	0.0	163.95998311042786	0.09994292259216309
20	117.31603908538818	fix_pre	0		120	18.0	2.5	/experiments/aot/S_yt-mQRzWCcKOR8_28.mp4	0.0	164.05992603302002	0.9999890327453613
20	117.49946713447571	pulse	0	t		18.0	2.5	/experiments/aot/S_yt-mQRzWCcKOR8_28.mp4	0.0	164.24335408210754	
20	118.31602811813354	movie	1		300	18.0	2.5	/experiments/aot/S_yt-mQRzWCcKOR8_28.mp4	0.0	165.05991506576538	2.499993085861206
20	119.09949398040771	pulse	1	t		18.0	2.5	/experiments/aot/S_yt-mQRzWCcKOR8_28.mp4	0.0	165.84338092803955	
20	120.69957709312439	pulse	1	t		18.0	2.5	/experiments/aot/S_yt-mQRzWCcKOR8_28.mp4	0.0	167.44346404075623	
20	120.81602120399475	fix_post	2		12	18.0	2.5	/experiments/aot/S_yt-mQRzWCcKOR8_28.mp4	0.0	167.5599081516266	0.10004591941833496
21	120.91606712341309	fix_pre	0		120	19.0	2.5	blank	1.0	167.65995407104492	1.0000228881835938
21	121.91609001159668	movie	1		300	19.0	2.5	blank	1.0	168.65997695922852	2.499986171722412
21	122.29957699775696	pulse	1	t		19.0	2.5	blank	1.0	169.0434639453888	
21	123.89958214759827	pulse	1	t		19.0	2.5	blank	1.0	170.6434690952301	
21	124.41607618331909	fix_post	2		12	19.0	2.5	blank	1.0	171.15996313095093	0.09991598129272461
22	124.51599216461182	fix_pre	0		119	20.0	2.5	/experiments/aot/R_S_pexels-cottonbro-9499408.mp4	0.0	171.25987911224365	0.991689920425415
22	125.49949598312378	pulse	0	t		20.0	2.5	/experiments/aot/R_S_pexels-cottonbro-9499408.mp4	0.0	172.24338293075562	
22	125.50768208503723	movie	1		163	20.0	2.5	/experiments/aot/R_S_pexels-cottonbro-9499408.mp4	0.0	172.25156903266907	2.5083160400390625
22	127.09872007369995	pulse	1	t		20.0	2.5	/experiments/aot/R_S_pexels-cottonbro-9499408.mp4	0.0	173.8426070213318	
22	128.0159981250763	fix_post	2		12	20.0	2.5	/experiments/aot/R_S_pexels-cottonbro-9499408.mp4	0.0	174.75988507270813	0.10001492500305176
23	128.11601305007935	fix_pre	0		120	21.0	2.5	/experiments/aot/R_S_yt-WASlRH1zA8c_175.mp4	0.0	174.85989999771118	0.9999301433563232
23	128.69951915740967	pulse	0	t		21.0	2.5	/experiments/aot/R_S_yt-WASlRH1zA8c_175.mp4	0.0	175.4434061050415	
23	129.11594319343567	movie	1		300	21.0	2.5	/experiments/aot/R_S_yt-WASlRH1zA8c_175.mp4	0.0	175.8598301410675	2.500002861022949
23	130.299574136734	pulse	1	t		21.0	2.5	/experiments/aot/R_S_yt-WASlRH1zA8c_175.mp4	0.0	177.04346108436584	
23	131.61594605445862	fix_post	2		12	21.0	2.5	/experiments/aot/R_S_yt-WASlRH1zA8c_175.mp4	0.0	178.35983300209045	0.10002613067626953
24	131.7159721851349	fix_pre	0		120	22.0	2.5	/experiments/aot/R_S_dwi2oPzQ1Wo_48.mp4	0.0	178.45985913276672	1.0000739097595215
24	131.89941596984863	pulse	0	t		22.0	2.5	/experiments/aot/R_S_dwi2oPzQ1Wo_48.mp4	0.0	178.64330291748047	
24	132.7160460948944	movie	1		300	22.0	2.5	/experiments/aot/R_S_dwi2oPzQ1Wo_48.mp4	0.0	179.45993304252625	2.4999001026153564
24	133.49951100349426	pulse	1	t		22.0	2.5	/experiments/aot/R_S_dwi2oPzQ1Wo_48.mp4	0.0	180.2433979511261	
24	135.10006713867188	pulse	1	t		22.0	2.5	/experiments/aot/R_S_dwi2oPzQ1Wo_48.mp4	0.0	181.8439540863037	
24	135.21594619750977	fix_post	2		12	22.0	2.5	/experiments/aot/R_S_dwi2oPzQ1Wo_48.mp4	0.0	181.9598331451416	0.09998297691345215
25	135.31592917442322	fix_pre	0		120	23.0	2.5	/experiments/aot/R_S_yt-wIZprsJwxBM_298.mp4	0.0	182.05981612205505	0.9999909400939941
25	136.3159201145172	movie	1		300	23.0	2.5	/experiments/aot/R_S_yt-wIZprsJwxBM_298.mp4	0.0	183.05980706214905	2.5000250339508057
25	136.69947004318237	pulse	1	t		23.0	2.5	/experiments/aot/R_S_yt-wIZprsJwxBM_298.mp4	0.0	183.4433569908142	
25	138.29944610595703	pulse	1	t		23.0	2.5	/experiments/aot/R_S_yt-wIZprsJwxBM_298.mp4	0.0	185.04333305358887	
25	138.81594514846802	fix_post	2		12	23.0	2.5	/experiments/aot/R_S_yt-wIZprsJwxBM_298.mp4	0.0	185.55983209609985	0.10001993179321289
26	138.91596508026123	fix_pre	0		119	24.0	2.5	/experiments/aot/S_ILSVRC2015_test_00012005.mp4	0.0	185.65985202789307	0.9916520118713379
26	139.8994870185852	pulse	0	t		24.0	2.5	/experiments/aot/S_ILSVRC2015_test_00012005.mp4	0.0	186.64337396621704	
26	139.90761709213257	movie	1		301	24.0	2.5	/experiments/aot/S_ILSVRC2015_test_00012005.mp4	0.0	186.6515040397644	2.5083720684051514
26	141.49956607818604	pulse	1	t		24.0	2.5	/experiments/aot/S_ILSVRC2015_test_00012005.mp4	0.0	188.24345302581787	
26	142.41598916053772	fix_post	2		12	24.0	2.5	/experiments/aot/S_ILSVRC2015_test_00012005.mp4	0.0	189.15987610816956	0.0999898910522461
27	142.51597905158997	fix_pre	0		120	25.0	2.5	/experiments/aot/R_S_yt-UojTppgtyCE_121.mp4	0.0	189.2598659992218	0.9999439716339111
27	143.0995180606842	pulse	0	t		25.0	2.5	/experiments/aot/R_S_yt-UojTppgtyCE_121.mp4	0.0	189.84340500831604	
27	143.51592302322388	movie	1		300	25.0	2.5	/experiments/aot/R_S_yt-UojTppgtyCE_121.mp4	0.0	190.2598099708557	2.5000410079956055
27	144.69948410987854	pulse	1	t		25.0	2.5	/experiments/aot/R_S_yt-UojTppgtyCE_121.mp4	0.0	191.44337105751038	
27	146.01596403121948	fix_post	2		12	25.0	2.5	/experiments/aot/R_S_yt-UojTppgtyCE_121.mp4	0.0	192.75985097885132	0.1000051498413086
28	146.1159691810608	fix_pre	0		120	26.0	2.5	/experiments/aot/R_S_yt-2y6A9DJPsDU_65.mp4	0.0	192.85985612869263	0.9999279975891113
28	146.2994270324707	pulse	0	t		26.0	2.5	/experiments/aot/R_S_yt-2y6A9DJPsDU_65.mp4	0.0	193.04331398010254	
28	147.1158971786499	movie	1		299	26.0	2.5	/experiments/aot/R_S_yt-2y6A9DJPsDU_65.mp4	0.0	193.85978412628174	2.4999887943267822
28	147.8993091583252	pulse	1	t		26.0	2.5	/experiments/aot/R_S_yt-2y6A9DJPsDU_65.mp4	0.0	194.64319610595703	
28	149.49995803833008	pulse	1	t		26.0	2.5	/experiments/aot/R_S_yt-2y6A9DJPsDU_65.mp4	0.0	196.2438449859619	
28	149.61588597297668	fix_post	2		12	26.0	2.5	/experiments/aot/R_S_yt-2y6A9DJPsDU_65.mp4	0.0	196.35977292060852	0.09999203681945801
29	149.71587800979614	fix_pre	0		120	27.0	2.5	/experiments/aot/S_yt-yJmHtBFyhH4_15.mp4	0.0	196.45976495742798	1.0000419616699219
29	150.71591997146606	movie	1		300	27.0	2.5	/experiments/aot/S_yt-yJmHtBFyhH4_15.mp4	0.0	197.4598069190979	2.4999639987945557
29	151.0993800163269	pulse	1	t		27.0	2.5	/experiments/aot/S_yt-yJmHtBFyhH4_15.mp4	0.0	197.84326696395874	
29	152.69933414459229	pulse	1	t		27.0	2.5	/experiments/aot/S_yt-yJmHtBFyhH4_15.mp4	0.0	199.44322109222412	
29	153.21588397026062	fix_post	2		12	27.0	2.5	/experiments/aot/S_yt-yJmHtBFyhH4_15.mp4	0.0	199.95977091789246	0.09999203681945801
30	153.31587600708008	fix_pre	0		119	28.0	2.5	blank	1.0	200.0597629547119	0.991595983505249
30	154.29933500289917	pulse	0	t		28.0	2.5	blank	1.0	201.043221950531	
30	154.30747199058533	movie	1		301	28.0	2.5	blank	1.0	201.05135893821716	2.508481979370117
30	155.89936804771423	pulse	1	t		28.0	2.5	blank	1.0	202.64325499534607	
30	156.81595396995544	fix_post	2		12	28.0	2.5	blank	1.0	203.55984091758728	0.09996223449707031
31	156.91591620445251	fix_pre	0		120	29.0	2.5	/experiments/aot/S_9smWynsk6sI_158.mp4	0.0	203.65980315208435	0.9995319843292236
31	157.4993131160736	pulse	0	t		29.0	2.5	/experiments/aot/S_9smWynsk6sI_158.mp4	0.0	204.24320006370544	
31	157.91544818878174	movie	1		300	29.0	2.5	/experiments/aot/S_9smWynsk6sI_158.mp4	0.0	204.65933513641357	2.500645875930786
31	159.09936118125916	pulse	1	t		29.0	2.5	/experiments/aot/S_9smWynsk6sI_158.mp4	0.0	205.843248128891	
31	160.41609406471252	fix_post	2		12	29.0	2.5	/experiments/aot/S_9smWynsk6sI_158.mp4	0.0	207.15998101234436	0.09963393211364746
32	160.51572799682617	fix_pre	0		120	30.0	2.5	/experiments/aot/S_yt-R0gFQo85cAE_5.mp4	0.0	207.259614944458	1.0001370906829834
32	160.69962120056152	pulse	0	t		30.0	2.5	/experiments/aot/S_yt-R0gFQo85cAE_5.mp4	0.0	207.44350814819336	
32	161.51586508750916	movie	1		300	30.0	2.5	/experiments/aot/S_yt-R0gFQo85cAE_5.mp4	0.0	208.259752035141	2.5000240802764893
32	162.29926013946533	pulse	1	t		30.0	2.5	/experiments/aot/S_yt-R0gFQo85cAE_5.mp4	0.0	209.04314708709717	
32	163.8989040851593	pulse	1	t		30.0	2.5	/experiments/aot/S_yt-R0gFQo85cAE_5.mp4	0.0	210.64279103279114	
32	164.01588916778564	fix_post	2		12	30.0	2.5	/experiments/aot/S_yt-R0gFQo85cAE_5.mp4	0.0	210.75977611541748	0.09996581077575684
33	164.1158549785614	fix_pre	0		120	31.0	2.5	/experiments/aot/R_S_yt-WTxvvlP8xnw_113.mp4	0.0	210.85974192619324	0.9999520778656006
33	165.115807056427	movie	1		299	31.0	2.5	/experiments/aot/R_S_yt-WTxvvlP8xnw_113.mp4	0.0	211.85969400405884	2.500023126602173
33	165.49942803382874	pulse	1	t		31.0	2.5	/experiments/aot/R_S_yt-WTxvvlP8xnw_113.mp4	0.0	212.24331498146057	
33	167.09927010536194	pulse	1	t		31.0	2.5	/experiments/aot/R_S_yt-WTxvvlP8xnw_113.mp4	0.0	213.84315705299377	
33	167.61583018302917	fix_post	2		12	31.0	2.5	/experiments/aot/R_S_yt-WTxvvlP8xnw_113.mp4	0.0	214.359717130661	0.09997081756591797
34	167.7158010005951	fix_pre	0		119	32.0	2.5	/experiments/aot/S_yt-UzWRbs9Syf4_7.mp4	0.0	214.45968794822693	0.9916319847106934
34	168.69936203956604	pulse	0	t		32.0	2.5	/experiments/aot/S_yt-UzWRbs9Syf4_7.mp4	0.0	215.44324898719788	
34	168.7074329853058	movie	1		301	32.0	2.5	/experiments/aot/S_yt-UzWRbs9Syf4_7.mp4	0.0	215.45131993293762	2.5083670616149902
34	170.29930019378662	pulse	1	t		32.0	2.5	/experiments/aot/S_yt-UzWRbs9Syf4_7.mp4	0.0	217.04318714141846	
34	171.21580004692078	fix_post	2		12	32.0	2.5	/experiments/aot/S_yt-UzWRbs9Syf4_7.mp4	0.0	217.9596869945526	0.09996199607849121
35	171.31576204299927	fix_pre	0		120	33.0	2.5	blank	1.0	218.0596489906311	0.9999909400939941
35	171.8993740081787	pulse	0	t		33.0	2.5	blank	1.0	218.64326095581055	
35	172.31575298309326	movie	1		300	33.0	2.5	blank	1.0	219.0596399307251	2.499969005584717
35	173.49929308891296	pulse	1	t		33.0	2.5	blank	1.0	220.2431800365448	
35	174.81572198867798	fix_post	2		12	33.0	2.5	blank	1.0	221.55960893630981	0.10006308555603027
36	174.915785074234	fix_pre	0		120	34.0	2.5	/experiments/aot/S_production_ID_4428752.mp4	0.0	221.65967202186584	0.9999709129333496
36	175.0992341041565	pulse	0	t		34.0	2.5	/experiments/aot/S_production_ID_4428752.mp4	0.0	221.84312105178833	
36	175.91575598716736	movie	1		159	34.0	2.5	/experiments/aot/S_production_ID_4428752.mp4	0.0	222.6596429347992	2.5000650882720947
36	176.69895720481873	pulse	1	t		34.0	2.5	/experiments/aot/S_production_ID_4428752.mp4	0.0	223.44284415245056	
36	178.29873609542847	pulse	1	t		34.0	2.5	/experiments/aot/S_production_ID_4428752.mp4	0.0	225.0426230430603	
36	178.41582107543945	fix_post	2		12	34.0	2.5	/experiments/aot/S_production_ID_4428752.mp4	0.0	225.1597080230713	0.09998798370361328
37	178.51580905914307	fix_pre	0		120	35.0	2.5	/experiments/aot/S_yt-wIZprsJwxBM_298.mp4	0.0	225.2596960067749	1.0000169277191162
37	179.51582598686218	movie	1		300	35.0	2.5	/experiments/aot/S_yt-wIZprsJwxBM_298.mp4	0.0	226.25971293449402	2.499890089035034
37	179.89927101135254	pulse	1	t		35.0	2.5	/experiments/aot/S_yt-wIZprsJwxBM_298.mp4	0.0	226.64315795898438	
37	181.49934220314026	pulse	1	t		35.0	2.5	/experiments/aot/S_yt-wIZprsJwxBM_298.mp4	0.0	228.2432291507721	
37	182.01571607589722	fix_post	2		12	35.0	2.5	/experiments/aot/S_yt-wIZprsJwxBM_298.mp4	0.0	228.75960302352905	0.10009503364562988
38	182.11581110954285	fix_pre	0		119	36.0	2.5	/experiments/aot/S_yt-YOLaQ53ooks_195.mp4	0.0	228.85969805717468	0.9916110038757324
38	183.09925413131714	pulse	0	t		36.0	2.5	/experiments/aot/S_yt-YOLaQ53ooks_195.mp4	0.0	229.84314107894897	
38	183.10742211341858	movie	1		301	36.0	2.5	/experiments/aot/S_yt-YOLaQ53ooks_195.mp4	0.0	229.85130906105042	2.5083839893341064
38	184.69924402236938	pulse	1	t		36.0	2.5	/experiments/aot/S_yt-YOLaQ53ooks_195.mp4	0.0	231.44313097000122	
38	185.61580610275269	fix_post	2		12	36.0	2.5	/experiments/aot/S_yt-YOLaQ53ooks_195.mp4	0.0	232.35969305038452	0.09991097450256348
39	185.71571707725525	fix_pre	0		120	37.0	2.5	/experiments/aot/R_S_fHdEaNT0gA0_35.mp4	0.0	232.45960402488708	1.0000801086425781
39	186.29922008514404	pulse	0	t		37.0	2.5	/experiments/aot/R_S_fHdEaNT0gA0_35.mp4	0.0	233.04310703277588	
39	186.71579718589783	movie	1		300	37.0	2.5	/experiments/aot/R_S_fHdEaNT0gA0_35.mp4	0.0	233.45968413352966	2.4999489784240723
39	187.899188041687	pulse	1	t		37.0	2.5	/experiments/aot/R_S_fHdEaNT0gA0_35.mp4	0.0	234.64307498931885	
39	189.2157461643219	fix_post	2		12	37.0	2.5	/experiments/aot/R_S_fHdEaNT0gA0_35.mp4	0.0	235.95963311195374	0.09996581077575684
40	189.31571197509766	fix_pre	0		120	38.0	2.5	/experiments/aot/R_S_yt-XF0fyyFEgWo_280.mp4	0.0	236.0595989227295	0.999535083770752
40	189.4991750717163	pulse	0	t		38.0	2.5	/experiments/aot/R_S_yt-XF0fyyFEgWo_280.mp4	0.0	236.24306201934814	
40	190.3152470588684	movie	1		300	38.0	2.5	/experiments/aot/R_S_yt-XF0fyyFEgWo_280.mp4	0.0	237.05913400650024	2.5004539489746094
40	191.09927797317505	pulse	1	t		38.0	2.5	/experiments/aot/R_S_yt-XF0fyyFEgWo_280.mp4	0.0	237.84316492080688	
40	192.69930601119995	pulse	1	t		38.0	2.5	/experiments/aot/R_S_yt-XF0fyyFEgWo_280.mp4	0.0	239.4431929588318	
40	192.81570100784302	fix_post	2		12	38.0	2.5	/experiments/aot/R_S_yt-XF0fyyFEgWo_280.mp4	0.0	239.55958795547485	0.09995412826538086
41	192.9156551361084	fix_pre	0		120	39.0	2.5	/experiments/aot/R_S_comp_L007_C007_PS_v01_SDR_PS_20180925_SDR_2K_AVC.mp4	0.0	239.65954208374023	1.0000019073486328
41	193.91565704345703	movie	1		168	39.0	2.5	/experiments/aot/R_S_comp_L007_C007_PS_v01_SDR_PS_20180925_SDR_2K_AVC.mp4	0.0	240.65954399108887	2.500009059906006
41	194.29915404319763	pulse	1	t		39.0	2.5	/experiments/aot/R_S_comp_L007_C007_PS_v01_SDR_PS_20180925_SDR_2K_AVC.mp4	0.0	241.04304099082947	
41	195.89923310279846	pulse	1	t		39.0	2.5	/experiments/aot/R_S_comp_L007_C007_PS_v01_SDR_PS_20180925_SDR_2K_AVC.mp4	0.0	242.6431200504303	
41	196.41566610336304	fix_post	2		12	39.0	2.5	/experiments/aot/R_S_comp_L007_C007_PS_v01_SDR_PS_20180925_SDR_2K_AVC.mp4	0.0	243.15955305099487	0.1000359058380127
42	196.51570200920105	fix_pre	0		119	40.0	2.5	blank	1.0	243.25958895683289	0.991624116897583
42	197.49914598464966	pulse	0	t		40.0	2.5	blank	1.0	244.2430329322815	
42	197.50732612609863	movie	1		301	40.0	2.5	blank	1.0	244.25121307373047	2.5083868503570557
42	199.099102973938	pulse	1	t		40.0	2.5	blank	1.0	245.84298992156982	
42	200.0157129764557	fix_post	2		12	40.0	2.5	blank	1.0	246.75959992408752	0.10001802444458008
43	200.11573100090027	fix_pre	0		120	41.0	2.5	/experiments/aot/S_nPwtvvPgdNc_39.mp4	0.0	246.8596179485321	0.999859094619751
43	200.6990931034088	pulse	0	t		41.0	2.5	/experiments/aot/S_nPwtvvPgdNc_39.mp4	0.0	247.44298005104065	
43	201.11559009552002	movie	1		299	41.0	2.5	/experiments/aot/S_nPwtvvPgdNc_39.mp4	0.0	247.85947704315186	2.500030040740967
43	202.29921507835388	pulse	1	t		41.0	2.5	/experiments/aot/S_nPwtvvPgdNc_39.mp4	0.0	249.04310202598572	
43	203.615620136261	fix_post	2		12	41.0	2.5	/experiments/aot/S_nPwtvvPgdNc_39.mp4	0.0	250.35950708389282	0.09996294975280762
44	203.7155830860138	fix_pre	0		120	42.0	2.5	/experiments/aot/R_S_pexels-koolshooters-7327405.mp4	0.0	250.45947003364563	1.0000290870666504
44	203.89903211593628	pulse	0	t		42.0	2.5	/experiments/aot/R_S_pexels-koolshooters-7327405.mp4	0.0	250.64291906356812	
44	204.71561217308044	movie	1		162	42.0	2.5	/experiments/aot/R_S_pexels-koolshooters-7327405.mp4	0.0	251.45949912071228	2.4999589920043945
44	205.49918603897095	pulse	1	t		42.0	2.5	/experiments/aot/R_S_pexels-koolshooters-7327405.mp4	0.0	252.24307298660278	
44	207.0986270904541	pulse	1	t		42.0	2.5	/experiments/aot/R_S_pexels-koolshooters-7327405.mp4	0.0	253.84251403808594	
44	207.21557116508484	fix_post	2		12	42.0	2.5	/experiments/aot/R_S_pexels-koolshooters-7327405.mp4	0.0	253.95945811271667	0.10000300407409668
45	207.31557416915894	fix_pre	0		120	43.0	2.5	/experiments/aot/S_wc-7ugQ0V4lxYkJ_131.mp4	0.0	254.05946111679077	0.9999799728393555
45	208.3155541419983	movie	1		300	43.0	2.5	/experiments/aot/S_wc-7ugQ0V4lxYkJ_131.mp4	0.0	255.05944108963013	2.500093936920166
45	208.69907116889954	pulse	1	t		43.0	2.5	/experiments/aot/S_wc-7ugQ0V4lxYkJ_131.mp4	0.0	255.44295811653137	
45	210.299054145813	pulse	1	t		43.0	2.5	/experiments/aot/S_wc-7ugQ0V4lxYkJ_131.mp4	0.0	257.0429410934448	
45	210.81564807891846	fix_post	2		12	43.0	2.5	/experiments/aot/S_wc-7ugQ0V4lxYkJ_131.mp4	0.0	257.5595350265503	0.1001589298248291
46	210.9158070087433	fix_pre	0		119	44.0	2.5	/experiments/aot/R_S_yt-mL3MuCfKtdY_79.mp4	0.0	257.6596939563751	0.9916081428527832
46	211.89910507202148	pulse	0	t		44.0	2.5	/experiments/aot/R_S_yt-mL3MuCfKtdY_79.mp4	0.0	258.6429920196533	
46	211.90741515159607	movie	1		301	44.0	2.5	/experiments/aot/R_S_yt-mL3MuCfKtdY_79.mp4	0.0	258.6513020992279	2.507807970046997
46	213.49924898147583	pulse	1	t		44.0	2.5	/experiments/aot/R_S_yt-mL3MuCfKtdY_79.mp4	0.0	260.24313592910767	
46	214.41522312164307	fix_post	2		12	44.0	2.5	/experiments/aot/R_S_yt-mL3MuCfKtdY_79.mp4	0.0	261.1591100692749	0.09997391700744629
47	214.5151970386505	fix_pre	0		120	45.0	2.5	/experiments/aot/R_S_wc-7ugQ0V4lxYkJ_131.mp4	0.0	261.25908398628235	1.000594139099121
47	215.09872913360596	pulse	0	t		45.0	2.5	/experiments/aot/R_S_wc-7ugQ0V4lxYkJ_131.mp4	0.0	261.8426160812378	
47	215.51579117774963	movie	1		299	45.0	2.5	/experiments/aot/R_S_wc-7ugQ0V4lxYkJ_131.mp4	0.0	262.25967812538147	2.4998979568481445
47	216.6993010044098	pulse	1	t		45.0	2.5	/experiments/aot/R_S_wc-7ugQ0V4lxYkJ_131.mp4	0.0	263.4431879520416	
47	218.01568913459778	fix_post	2		12	45.0	2.5	/experiments/aot/R_S_wc-7ugQ0V4lxYkJ_131.mp4	0.0	264.7595760822296	0.10000896453857422
48	218.11569809913635	fix_pre	0		120	46.0	2.5	/experiments/aot/S_ILSVRC2015_train_00743005.mp4	0.0	264.8595850467682	0.9998900890350342
48	218.29908919334412	pulse	0	t		46.0	2.5	/experiments/aot/S_ILSVRC2015_train_00743005.mp4	0.0	265.04297614097595	
48	219.1155881881714	movie	1		300	46.0	2.5	/experiments/aot/S_ILSVRC2015_train_00743005.mp4	0.0	265.8594751358032	2.499905824661255
48	219.89904808998108	pulse	1	t		46.0	2.5	/experiments/aot/S_ILSVRC2015_train_00743005.mp4	0.0	266.6429350376129	
48	221.49904108047485	pulse	1	t		46.0	2.5	/experiments/aot/S_ILSVRC2015_train_00743005.mp4	0.0	268.2429280281067	
48	221.61549401283264	fix_post	2		12	46.0	2.5	/experiments/aot/S_ILSVRC2015_train_00743005.mp4	0.0	268.3593809604645	0.10007214546203613
49	221.71556615829468	fix_pre	0		120	47.0	2.5	/experiments/aot/S_ILSVRC2015_train_00414000.mp4	0.0	268.4594531059265	0.9999120235443115
49	222.715478181839	movie	1		300	47.0	2.5	/experiments/aot/S_ILSVRC2015_train_00414000.mp4	0.0	269.4593651294708	2.5000338554382324
49	223.09892416000366	pulse	1	t		47.0	2.5	/experiments/aot/S_ILSVRC2015_train_00414000.mp4	0.0	269.8428111076355	
49	224.6989870071411	pulse	1	t		47.0	2.5	/experiments/aot/S_ILSVRC2015_train_00414000.mp4	0.0	271.44287395477295	
49	225.21551203727722	fix_post	2		12	47.0	2.5	/experiments/aot/S_ILSVRC2015_train_00414000.mp4	0.0	271.95939898490906	0.09993314743041992
50	225.31544518470764	fix_pre	0		119	48.0	2.5	/experiments/aot/R_S_wc-sd8_iKx0t7s7_9.mp4	0.0	272.0593321323395	0.991675853729248
50	226.29904508590698	pulse	0	t		48.0	2.5	/experiments/aot/R_S_wc-sd8_iKx0t7s7_9.mp4	0.0	273.0429320335388	
50	226.3071210384369	movie	1		166	48.0	2.5	/experiments/aot/R_S_wc-sd8_iKx0t7s7_9.mp4	0.0	273.0510079860687	2.5084710121154785
50	227.89966106414795	pulse	1	t		48.0	2.5	/experiments/aot/R_S_wc-sd8_iKx0t7s7_9.mp4	0.0	274.6435480117798	
50	228.81559205055237	fix_post	2		12	48.0	2.5	/experiments/aot/R_S_wc-sd8_iKx0t7s7_9.mp4	0.0	275.5594789981842	0.09991908073425293
51	228.91551113128662	fix_pre	0		120	49.0	2.5	blank	1.0	275.65939807891846	1.0
51	229.4988911151886	pulse	0	t		49.0	2.5	blank	1.0	276.24277806282043	
51	229.91551113128662	movie	1		300	49.0	2.5	blank	1.0	276.65939807891846	2.5000429153442383
51	231.09905314445496	pulse	1	t		49.0	2.5	blank	1.0	277.8429400920868	
51	232.41555404663086	fix_post	2		12	49.0	2.5	blank	1.0	279.1594409942627	0.10001301765441895
52	232.51556706428528	fix_pre	0		120	50.0	2.5	/experiments/aot/S_comp_A007_C017_01156B_v02_SDR_PS_20180925_SDR_2K_AVC.mp4	0.0	279.2594540119171	1.0000150203704834
52	232.6990191936493	pulse	0	t		50.0	2.5	/experiments/aot/S_comp_A007_C017_01156B_v02_SDR_PS_20180925_SDR_2K_AVC.mp4	0.0	279.4429061412811	
52	233.51558208465576	movie	1		162	50.0	2.5	/experiments/aot/S_comp_A007_C017_01156B_v02_SDR_PS_20180925_SDR_2K_AVC.mp4	0.0	280.2594690322876	2.499936103820801
52	234.2990481853485	pulse	1	t		50.0	2.5	/experiments/aot/S_comp_A007_C017_01156B_v02_SDR_PS_20180925_SDR_2K_AVC.mp4	0.0	281.04293513298035	
52	235.89902997016907	pulse	1	t		50.0	2.5	/experiments/aot/S_comp_A007_C017_01156B_v02_SDR_PS_20180925_SDR_2K_AVC.mp4	0.0	282.6429169178009	
52	236.01551818847656	fix_post	2		12	50.0	2.5	/experiments/aot/S_comp_A007_C017_01156B_v02_SDR_PS_20180925_SDR_2K_AVC.mp4	0.0	282.7594051361084	0.10001587867736816
53	236.11553406715393	fix_pre	0		120	51.0	2.5	/experiments/aot/S_comp_A103_C002_0205DG_v12_SDR_FINAL_20180706_SDR_2K_AVC.mp4	0.0	282.85942101478577	0.9999639987945557
53	237.1154980659485	movie	1		162	51.0	2.5	/experiments/aot/S_comp_A103_C002_0205DG_v12_SDR_FINAL_20180706_SDR_2K_AVC.mp4	0.0	283.8593850135803	2.4999890327453613
53	237.49901604652405	pulse	1	t		51.0	2.5	/experiments/aot/S_comp_A103_C002_0205DG_v12_SDR_FINAL_20180706_SDR_2K_AVC.mp4	0.0	284.2429029941559	
53	239.099102973938	pulse	1	t		51.0	2.5	/experiments/aot/S_comp_A103_C002_0205DG_v12_SDR_FINAL_20180706_SDR_2K_AVC.mp4	0.0	285.8429899215698	
53	239.61548709869385	fix_post	2		12	51.0	2.5	/experiments/aot/S_comp_A103_C002_0205DG_v12_SDR_FINAL_20180706_SDR_2K_AVC.mp4	0.0	286.3593740463257	0.0999000072479248
54	239.71538710594177	fix_pre	0		119	52.0	2.5	/experiments/aot/R_S_yt-HoRtvVuuvOs_5.mp4	0.0	286.4592740535736	0.9917590618133545
54	240.6990101337433	pulse	0	t		52.0	2.5	/experiments/aot/R_S_yt-HoRtvVuuvOs_5.mp4	0.0	287.4428970813751	
54	240.70714616775513	movie	1		301	52.0	2.5	/experiments/aot/R_S_yt-HoRtvVuuvOs_5.mp4	0.0	287.45103311538696	2.5083158016204834
54	242.2989330291748	pulse	1	t		52.0	2.5	/experiments/aot/R_S_yt-HoRtvVuuvOs_5.mp4	0.0	289.04281997680664	
54	243.2154619693756	fix_post	2		12	52.0	2.5	/experiments/aot/R_S_yt-HoRtvVuuvOs_5.mp4	0.0	289.95934891700745	0.10000109672546387
55	243.31546306610107	fix_pre	0		120	53.0	2.5	/experiments/aot/R_S_ILSVRC2015_test_00012005.mp4	0.0	290.0593500137329	0.9999420642852783
55	243.89900016784668	pulse	0	t		53.0	2.5	/experiments/aot/R_S_ILSVRC2015_test_00012005.mp4	0.0	290.6428871154785	
55	244.31540513038635	movie	1		300	53.0	2.5	/experiments/aot/R_S_ILSVRC2015_test_00012005.mp4	0.0	291.0592920780182	2.5000908374786377
55	245.4989550113678	pulse	1	t		53.0	2.5	/experiments/aot/R_S_ILSVRC2015_test_00012005.mp4	0.0	292.24284195899963	
55	246.815495967865	fix_post	2		12	53.0	2.5	/experiments/aot/R_S_ILSVRC2015_test_00012005.mp4	0.0	293.5593829154968	0.09993505477905273
56	246.91543102264404	fix_pre	0		120	54.0	2.5	blank	1.0	293.6593179702759	0.9999959468841553
56	247.0989351272583	pulse	0	t		54.0	2.5	blank	1.0	293.84282207489014	
56	247.9154269695282	movie	1		300	54.0	2.5	blank	1.0	294.65931391716003	2.500058174133301
56	248.6989290714264	pulse	1	t		54.0	2.5	blank	1.0	295.4428160190582	
56	250.29893898963928	pulse	1	t		54.0	2.5	blank	1.0	297.0428259372711	
56	250.4154851436615	fix_post	2		12	54.0	2.5	blank	1.0	297.15937209129333	0.09994983673095703
57	250.51543498039246	fix_pre	0		120	55.0	2.5	/experiments/aot/S_comp_LA_A009_C009_PSNK_v02_SDR_PS_FINAL_20180709_SDR_2K_AVC.mp4	0.0	297.2593219280243	0.9999551773071289
57	251.51539015769958	movie	1		162	55.0	2.5	/experiments/aot/S_comp_LA_A009_C009_PSNK_v02_SDR_PS_FINAL_20180709_SDR_2K_AVC.mp4	0.0	298.2592771053314	2.500044822692871
57	251.8989269733429	pulse	1	t		55.0	2.5	/experiments/aot/S_comp_LA_A009_C009_PSNK_v02_SDR_PS_FINAL_20180709_SDR_2K_AVC.mp4	0.0	298.64281392097473	
57	253.49899816513062	pulse	1	t		55.0	2.5	/experiments/aot/S_comp_LA_A009_C009_PSNK_v02_SDR_PS_FINAL_20180709_SDR_2K_AVC.mp4	0.0	300.24288511276245	
57	254.01543498039246	fix_post	2		12	55.0	2.5	/experiments/aot/S_comp_LA_A009_C009_PSNK_v02_SDR_PS_FINAL_20180709_SDR_2K_AVC.mp4	0.0	300.7593219280243	0.10003018379211426
58	254.11546516418457	fix_pre	0		119	56.0	2.5	/experiments/aot/R_S_wc-NVeGRb_y_y_5_36.mp4	0.0	300.8593521118164	0.9915449619293213
58	255.09889912605286	pulse	0	t		56.0	2.5	/experiments/aot/R_S_wc-NVeGRb_y_y_5_36.mp4	0.0	301.8427860736847	
58	255.1070101261139	movie	1		164	56.0	2.5	/experiments/aot/R_S_wc-NVeGRb_y_y_5_36.mp4	0.0	301.8508970737457	2.508384943008423
58	256.69887113571167	pulse	1	t		56.0	2.5	/experiments/aot/R_S_wc-NVeGRb_y_y_5_36.mp4	0.0	303.4427580833435	
58	257.6153950691223	fix_post	2		12	56.0	2.5	/experiments/aot/R_S_wc-NVeGRb_y_y_5_36.mp4	0.0	304.35928201675415	0.09999799728393555
59	257.71539306640625	fix_pre	0		120	57.0	2.5	/experiments/aot/S_b4-3.mp4	0.0	304.4592800140381	1.0000801086425781
59	258.2988691329956	pulse	0	t		57.0	2.5	/experiments/aot/S_b4-3.mp4	0.0	305.04275608062744	
59	258.7154731750488	movie	1		160	57.0	2.5	/experiments/aot/S_b4-3.mp4	0.0	305.45936012268066	2.4998769760131836
59	259.89899015426636	pulse	1	t		57.0	2.5	/experiments/aot/S_b4-3.mp4	0.0	306.6428771018982	
59	261.215350151062	fix_post	2		12	57.0	2.5	/experiments/aot/S_b4-3.mp4	0.0	307.95923709869385	0.10008382797241211
60	261.3154339790344	fix_pre	0		120	58.0	2.5	/experiments/aot/R_S_yt-lEPoNlKWibA_1.mp4	0.0	308.05932092666626	1.0000040531158447
60	261.49903106689453	pulse	0	t		58.0	2.5	/experiments/aot/R_S_yt-lEPoNlKWibA_1.mp4	0.0	308.24291801452637	
60	262.31543803215027	movie	1		300	58.0	2.5	/experiments/aot/R_S_yt-lEPoNlKWibA_1.mp4	0.0	309.0593249797821	2.499880075454712
60	263.09884119033813	pulse	1	t		58.0	2.5	/experiments/aot/R_S_yt-lEPoNlKWibA_1.mp4	0.0	309.84272813796997	
60	264.69839811325073	pulse	1	t		58.0	2.5	/experiments/aot/R_S_yt-lEPoNlKWibA_1.mp4	0.0	311.44228506088257	
60	264.815318107605	fix_post	2		12	58.0	2.5	/experiments/aot/R_S_yt-lEPoNlKWibA_1.mp4	0.0	311.5592050552368	0.10004305839538574
61	264.91536116600037	fix_pre	0		120	59.0	2.5	/experiments/aot/R_S_yt-zhQ32_OayBQ_39.mp4	0.0	311.6592481136322	0.9999909400939941
61	265.91535210609436	movie	1		300	59.0	2.5	/experiments/aot/R_S_yt-zhQ32_OayBQ_39.mp4	0.0	312.6592390537262	2.500062942504883
61	266.2988061904907	pulse	1	t		59.0	2.5	/experiments/aot/R_S_yt-zhQ32_OayBQ_39.mp4	0.0	313.04269313812256	
61	267.8988091945648	pulse	1	t		59.0	2.5	/experiments/aot/R_S_yt-zhQ32_OayBQ_39.mp4	0.0	314.64269614219666	
61	268.41541504859924	fix_post	2		12	59.0	2.5	/experiments/aot/R_S_yt-zhQ32_OayBQ_39.mp4	0.0	315.1593019962311	0.0999751091003418
62	268.5153901576996	fix_pre	0		119	60.0	2.5	/experiments/aot/R_S_yt-bQRBtP9zkms_111.mp4	0.0	315.2592771053314	0.9911658763885498
62	269.49879813194275	pulse	0	t		60.0	2.5	/experiments/aot/R_S_yt-bQRBtP9zkms_111.mp4	0.0	316.2426850795746	
62	269.50655603408813	movie	1		301	60.0	2.5	/experiments/aot/R_S_yt-bQRBtP9zkms_111.mp4	0.0	316.25044298171997	2.508543014526367
62	271.0989320278168	pulse	1	t		60.0	2.5	/experiments/aot/R_S_yt-bQRBtP9zkms_111.mp4	0.0	317.8428189754486	
62	272.0150990486145	fix_post	2		12	60.0	2.5	/experiments/aot/R_S_yt-bQRBtP9zkms_111.mp4	0.0	318.75898599624634	0.10003209114074707
63	272.11513113975525	fix_pre	0		120	61.0	2.5	blank	1.0	318.8590180873871	1.0002009868621826
63	272.69874715805054	pulse	0	t		61.0	2.5	blank	1.0	319.4426341056824	
63	273.11533212661743	movie	1		300	61.0	2.5	blank	1.0	319.85921907424927	2.4999868869781494
63	274.2988610267639	pulse	1	t		61.0	2.5	blank	1.0	321.04274797439575	
63	275.6153190135956	fix_post	2		12	61.0	2.5	blank	1.0	322.3592059612274	0.09998798370361328
64	275.7153069972992	fix_pre	0		120	62.0	2.5	/experiments/aot/R_S_yt-JTVyt-eu4VI_1.mp4	0.0	322.45919394493103	0.99996018409729
64	275.89877104759216	pulse	0	t		62.0	2.5	/experiments/aot/R_S_yt-JTVyt-eu4VI_1.mp4	0.0	322.642657995224	
64	276.7152671813965	movie	1		300	62.0	2.5	/experiments/aot/R_S_yt-JTVyt-eu4VI_1.mp4	0.0	323.4591541290283	2.50002384185791
64	277.4986951351166	pulse	1	t		62.0	2.5	/experiments/aot/R_S_yt-JTVyt-eu4VI_1.mp4	0.0	324.2425820827484	
64	279.09872007369995	pulse	1	t		62.0	2.5	/experiments/aot/R_S_yt-JTVyt-eu4VI_1.mp4	0.0	325.8426070213318	
64	279.2152910232544	fix_post	2		12	62.0	2.5	/experiments/aot/R_S_yt-JTVyt-eu4VI_1.mp4	0.0	325.95917797088623	0.09993815422058105
65	279.315229177475	fix_pre	0		120	63.0	2.5	/experiments/aot/S_flickr-lamujuri-10653517683_4.mp4	0.0	326.0591161251068	1.0000598430633545
65	280.31528902053833	movie	1		165	63.0	2.5	/experiments/aot/S_flickr-lamujuri-10653517683_4.mp4	0.0	327.05917596817017	2.499981164932251
65	280.69877099990845	pulse	1	t		63.0	2.5	/experiments/aot/S_flickr-lamujuri-10653517683_4.mp4	0.0	327.4426579475403	
65	282.29876708984375	pulse	1	t		63.0	2.5	/experiments/aot/S_flickr-lamujuri-10653517683_4.mp4	0.0	329.0426540374756	
65	282.8152701854706	fix_post	2		12	63.0	2.5	/experiments/aot/S_flickr-lamujuri-10653517683_4.mp4	0.0	329.5591571331024	0.09995889663696289
66	282.91522908210754	fix_pre	0		119	64.0	2.5	/experiments/aot/R_S_ILSVRC2015_train_00599000.mp4	0.0	329.6591160297394	0.9916648864746094
66	283.8986930847168	pulse	0	t		64.0	2.5	/experiments/aot/R_S_ILSVRC2015_train_00599000.mp4	0.0	330.64258003234863	
66	283.90689396858215	movie	1		301	64.0	2.5	/experiments/aot/R_S_ILSVRC2015_train_00599000.mp4	0.0	330.650780916214	2.508312225341797
66	285.4986970424652	pulse	1	t		64.0	2.5	/experiments/aot/R_S_ILSVRC2015_train_00599000.mp4	0.0	332.24258399009705	
66	286.41520619392395	fix_post	2		12	64.0	2.5	/experiments/aot/R_S_ILSVRC2015_train_00599000.mp4	0.0	333.1590931415558	0.10012388229370117
67	286.51533007621765	fix_pre	0		120	65.0	2.5	/experiments/aot/R_S_yt-kkbtZP78JxQ_96.mp4	0.0	333.2592170238495	0.9998679161071777
67	287.0987319946289	pulse	0	t		65.0	2.5	/experiments/aot/R_S_yt-kkbtZP78JxQ_96.mp4	0.0	333.84261894226074	
67	287.51519799232483	movie	1		300	65.0	2.5	/experiments/aot/R_S_yt-kkbtZP78JxQ_96.mp4	0.0	334.25908493995667	2.500115156173706
67	288.6986060142517	pulse	1	t		65.0	2.5	/experiments/aot/R_S_yt-kkbtZP78JxQ_96.mp4	0.0	335.44249296188354	
67	290.01531314849854	fix_post	2		12	65.0	2.5	/experiments/aot/R_S_yt-kkbtZP78JxQ_96.mp4	0.0	336.75920009613037	0.09991598129272461
68	290.11522912979126	fix_pre	0		120	66.0	2.5	/experiments/aot/S_ILSVRC2015_train_00404003.mp4	0.0	336.8591160774231	1.000025987625122
68	290.29862809181213	pulse	0	t		66.0	2.5	/experiments/aot/S_ILSVRC2015_train_00404003.mp4	0.0	337.04251503944397	
68	291.1152551174164	movie	1		300	66.0	2.5	/experiments/aot/S_ILSVRC2015_train_00404003.mp4	0.0	337.8591420650482	2.499889850616455
68	291.89865899086	pulse	1	t		66.0	2.5	/experiments/aot/S_ILSVRC2015_train_00404003.mp4	0.0	338.6425459384918	
68	293.4991810321808	pulse	1	t		66.0	2.5	/experiments/aot/S_ILSVRC2015_train_00404003.mp4	0.0	340.2430679798126	
68	293.61514496803284	fix_post	2		12	66.0	2.5	/experiments/aot/S_ILSVRC2015_train_00404003.mp4	0.0	340.3590319156647	0.10000419616699219
69	293.71514916419983	fix_pre	0		120	67.0	2.5	/experiments/aot/S_59eT4XDXNno_25.mp4	0.0	340.45903611183167	1.000082015991211
69	294.71523118019104	movie	1		300	67.0	2.5	/experiments/aot/S_59eT4XDXNno_25.mp4	0.0	341.4591181278229	2.500041961669922
69	295.0986330509186	pulse	1	t		67.0	2.5	/experiments/aot/S_59eT4XDXNno_25.mp4	0.0	341.8425199985504	
69	296.69864106178284	pulse	1	t		67.0	2.5	/experiments/aot/S_59eT4XDXNno_25.mp4	0.0	343.4425280094147	
69	297.21527314186096	fix_post	2		12	67.0	2.5	/experiments/aot/S_59eT4XDXNno_25.mp4	0.0	343.9591600894928	0.09994292259216309
70	297.3152160644531	fix_pre	0		119	68.0	2.5	blank	1.0	344.05910301208496	0.9915740489959717
70	298.2987060546875	pulse	0	t		68.0	2.5	blank	1.0	345.04259300231934	
70	298.3067901134491	movie	1		301	68.0	2.5	blank	1.0	345.05067706108093	2.5083959102630615
70	299.8987820148468	pulse	1	t		68.0	2.5	blank	1.0	346.64266896247864	
70	300.81518602371216	fix_post	2		12	68.0	2.5	blank	1.0	347.559072971344	0.10001301765441895
71	300.9151990413666	fix_pre	0		120	69.0	2.5	/experiments/aot/S_yt-_zDYi2P-QxY_128.mp4	0.0	347.6590859889984	0.9999849796295166
71	301.4987061023712	pulse	0	t		69.0	2.5	/experiments/aot/S_yt-_zDYi2P-QxY_128.mp4	0.0	348.24259305000305	
71	301.9151840209961	movie	1		300	69.0	2.5	/experiments/aot/S_yt-_zDYi2P-QxY_128.mp4	0.0	348.65907096862793	2.4999711513519287
71	303.0986611843109	pulse	1	t		69.0	2.5	/experiments/aot/S_yt-_zDYi2P-QxY_128.mp4	0.0	349.84254813194275	
71	304.415155172348	fix_post	2		12	69.0	2.5	/experiments/aot/S_yt-_zDYi2P-QxY_128.mp4	0.0	351.15904211997986	0.10003995895385742
72	304.5151951313019	fix_pre	0		120	70.0	2.5	/experiments/aot/R_S_yt-p0buJEEKeuI_61.mp4	0.0	351.2590820789337	0.999985933303833
72	304.6986200809479	pulse	0	t		70.0	2.5	/experiments/aot/R_S_yt-p0buJEEKeuI_61.mp4	0.0	351.4425070285797	
72	305.5151810646057	movie	1		300	70.0	2.5	/experiments/aot/R_S_yt-p0buJEEKeuI_61.mp4	0.0	352.25906801223755	2.4999139308929443
72	306.2985751628876	pulse	1	t		70.0	2.5	/experiments/aot/R_S_yt-p0buJEEKeuI_61.mp4	0.0	353.0424621105194	
72	307.89886713027954	pulse	1	t		70.0	2.5	/experiments/aot/R_S_yt-p0buJEEKeuI_61.mp4	0.0	354.6427540779114	
72	308.01509499549866	fix_post	2		12	70.0	2.5	/experiments/aot/R_S_yt-p0buJEEKeuI_61.mp4	0.0	354.7589819431305	0.1000661849975586
73	308.1151611804962	fix_pre	0		120	71.0	2.5	/experiments/aot/S_wc-sd8_iKx0t7s7_9.mp4	0.0	354.85904812812805	0.9999029636383057
73	309.1150641441345	movie	1		162	71.0	2.5	/experiments/aot/S_wc-sd8_iKx0t7s7_9.mp4	0.0	355.85895109176636	2.5001440048217773
73	309.49863505363464	pulse	1	t		71.0	2.5	/experiments/aot/S_wc-sd8_iKx0t7s7_9.mp4	0.0	356.2425220012665	
73	311.09861516952515	pulse	1	t		71.0	2.5	/experiments/aot/S_wc-sd8_iKx0t7s7_9.mp4	0.0	357.842502117157	
73	311.6152081489563	fix_post	2		12	71.0	2.5	/experiments/aot/S_wc-sd8_iKx0t7s7_9.mp4	0.0	358.35909509658813	0.0999610424041748
74	311.7151691913605	fix_pre	0		119	72.0	2.5	/experiments/aot/S_yt-I2n2eo2zoZs_112.mp4	0.0	358.4590561389923	0.9915378093719482
74	312.6986210346222	pulse	0	t		72.0	2.5	/experiments/aot/S_yt-I2n2eo2zoZs_112.mp4	0.0	359.442507982254	
74	312.7067070007324	movie	1		301	72.0	2.5	/experiments/aot/S_yt-I2n2eo2zoZs_112.mp4	0.0	359.45059394836426	2.508404016494751
74	314.2986361980438	pulse	1	t		72.0	2.5	/experiments/aot/S_yt-I2n2eo2zoZs_112.mp4	0.0	361.04252314567566	
74	315.2151110172272	fix_post	2		12	72.0	2.5	/experiments/aot/S_yt-I2n2eo2zoZs_112.mp4	0.0	361.958997964859	0.09995198249816895
75	315.31506299972534	fix_pre	0		120	73.0	2.5	/experiments/aot/S_yt-BDCyXL5e9S4_223.mp4	0.0	362.0589499473572	0.9999899864196777
75	315.89858198165894	pulse	0	t		73.0	2.5	/experiments/aot/S_yt-BDCyXL5e9S4_223.mp4	0.0	362.64246892929077	
75	316.315052986145	movie	1		300	73.0	2.5	/experiments/aot/S_yt-BDCyXL5e9S4_223.mp4	0.0	363.05893993377686	2.500030994415283
75	317.4985980987549	pulse	1	t		73.0	2.5	/experiments/aot/S_yt-BDCyXL5e9S4_223.mp4	0.0	364.2424850463867	
75	318.8150839805603	fix_post	2		12	73.0	2.5	/experiments/aot/S_yt-BDCyXL5e9S4_223.mp4	0.0	365.55897092819214	0.10004711151123047
76	318.91513109207153	fix_pre	0		120	74.0	2.5	/experiments/aot/R_S_dwi2oPzQ1Wo_48.mp4	0.0	365.65901803970337	0.9999890327453613
76	319.09859108924866	pulse	0	t		74.0	2.5	/experiments/aot/R_S_dwi2oPzQ1Wo_48.mp4	0.0	365.8424780368805	
76	319.9151201248169	movie	1		300	74.0	2.5	/experiments/aot/R_S_dwi2oPzQ1Wo_48.mp4	0.0	366.65900707244873	2.4999759197235107
76	320.6986060142517	pulse	1	t		74.0	2.5	/experiments/aot/R_S_dwi2oPzQ1Wo_48.mp4	0.0	367.44249296188354	
76	322.2985680103302	pulse	1	t		74.0	2.5	/experiments/aot/R_S_dwi2oPzQ1Wo_48.mp4	0.0	369.04245495796204	
76	322.4150960445404	fix_post	2		12	74.0	2.5	/experiments/aot/R_S_dwi2oPzQ1Wo_48.mp4	0.0	369.15898299217224	0.10002398490905762
77	322.51512002944946	fix_pre	0		120	75.0	2.5	/experiments/aot/R_S_ILSVRC2015_train_00549001.mp4	0.0	369.2590069770813	0.999413013458252
77	323.5145330429077	movie	1		298	75.0	2.5	/experiments/aot/R_S_ILSVRC2015_train_00549001.mp4	0.0	370.25841999053955	2.5005431175231934
77	323.8985810279846	pulse	1	t		75.0	2.5	/experiments/aot/R_S_ILSVRC2015_train_00549001.mp4	0.0	370.64246797561646	
77	325.4980721473694	pulse	1	t		75.0	2.5	/experiments/aot/R_S_ILSVRC2015_train_00549001.mp4	0.0	372.2419590950012	
77	326.0150761604309	fix_post	2		12	75.0	2.5	/experiments/aot/R_S_ILSVRC2015_train_00549001.mp4	0.0	372.75896310806274	0.09961104393005371
78	326.11468720436096	fix_pre	0		119	76.0	2.5	blank	1.0	372.8585741519928	0.9916729927062988
78	327.0982279777527	pulse	0	t		76.0	2.5	blank	1.0	373.8421149253845	
78	327.10636019706726	movie	1		301	76.0	2.5	blank	1.0	373.8502471446991	2.508753776550293
78	328.69840598106384	pulse	1	t		76.0	2.5	blank	1.0	375.4422929286957	
78	329.61511397361755	fix_post	2		12	76.0	2.5	blank	1.0	376.3590009212494	0.09994721412658691
79	329.71506118774414	fix_pre	0		120	77.0	2.5	/experiments/aot/R_S_pexels-koolshooters-7327405.mp4	0.0	376.458948135376	0.9999828338623047
79	330.2985100746155	pulse	0	t		77.0	2.5	/experiments/aot/R_S_pexels-koolshooters-7327405.mp4	0.0	377.0423970222473	
79	330.71504402160645	movie	1		162	77.0	2.5	/experiments/aot/R_S_pexels-koolshooters-7327405.mp4	0.0	377.4589309692383	2.49997615814209
79	331.8985011577606	pulse	1	t		77.0	2.5	/experiments/aot/R_S_pexels-koolshooters-7327405.mp4	0.0	378.64238810539246	
79	333.21502017974854	fix_post	2		12	77.0	2.5	/experiments/aot/R_S_pexels-koolshooters-7327405.mp4	0.0	379.95890712738037	0.09995794296264648
80	333.3149781227112	fix_pre	0		120	78.0	2.5	/experiments/aot/S_yt-Xkx53mjgj2E_30.mp4	0.0	380.058865070343	0.9999880790710449
80	333.49855518341064	pulse	0	t		78.0	2.5	/experiments/aot/S_yt-Xkx53mjgj2E_30.mp4	0.0	380.2424421310425	
80	334.3149662017822	movie	1		300	78.0	2.5	/experiments/aot/S_yt-Xkx53mjgj2E_30.mp4	0.0	381.05885314941406	2.5000269412994385
80	335.0984001159668	pulse	1	t		78.0	2.5	/experiments/aot/S_yt-Xkx53mjgj2E_30.mp4	0.0	381.84228706359863	
80	336.6988821029663	pulse	1	t		78.0	2.5	/experiments/aot/S_yt-Xkx53mjgj2E_30.mp4	0.0	383.44276905059814	
80	336.81499314308167	fix_post	2		12	78.0	2.5	/experiments/aot/S_yt-Xkx53mjgj2E_30.mp4	0.0	383.5588800907135	0.09993386268615723
81	336.9149270057678	fix_pre	0		120	79.0	2.5	/experiments/aot/S_ILSVRC2015_train_00599000.mp4	0.0	383.65881395339966	1.0000040531158447
81	337.91493105888367	movie	1		300	79.0	2.5	/experiments/aot/S_ILSVRC2015_train_00599000.mp4	0.0	384.6588180065155	2.4999990463256836
81	338.29847502708435	pulse	1	t		79.0	2.5	/experiments/aot/S_ILSVRC2015_train_00599000.mp4	0.0	385.0423619747162	
81	339.89840817451477	pulse	1	t		79.0	2.5	/experiments/aot/S_ILSVRC2015_train_00599000.mp4	0.0	386.6422951221466	
81	340.41493010520935	fix_post	2		12	79.0	2.5	/experiments/aot/S_ILSVRC2015_train_00599000.mp4	0.0	387.1588170528412	0.0999748706817627
82	340.5149049758911	fix_pre	0		119	80.0	2.5	/experiments/aot/S_fHdEaNT0gA0_35.mp4	0.0	387.25879192352295	0.9916791915893555
82	341.49844908714294	pulse	0	t		80.0	2.5	/experiments/aot/S_fHdEaNT0gA0_35.mp4	0.0	388.2423360347748	
82	341.50658416748047	movie	1		301	80.0	2.5	/experiments/aot/S_fHdEaNT0gA0_35.mp4	0.0	388.2504711151123	2.5083658695220947
82	343.09844613075256	pulse	1	t		80.0	2.5	/experiments/aot/S_fHdEaNT0gA0_35.mp4	0.0	389.8423330783844	
82	344.01495003700256	fix_post	2		12	80.0	2.5	/experiments/aot/S_fHdEaNT0gA0_35.mp4	0.0	390.7588369846344	0.10010099411010742
83	344.11505103111267	fix_pre	0		120	81.0	2.5	/experiments/aot/R_S_yt-Gc1p5CnDbDY_22.mp4	0.0	390.8589379787445	0.9999110698699951
83	344.6984510421753	pulse	0	t		81.0	2.5	/experiments/aot/R_S_yt-Gc1p5CnDbDY_22.mp4	0.0	391.44233798980713	
83	345.11496210098267	movie	1		300	81.0	2.5	/experiments/aot/R_S_yt-Gc1p5CnDbDY_22.mp4	0.0	391.8588490486145	2.500066041946411
83	346.29844903945923	pulse	1	t		81.0	2.5	/experiments/aot/R_S_yt-Gc1p5CnDbDY_22.mp4	0.0	393.04233598709106	
83	347.6150281429291	fix_post	2		12	81.0	2.5	/experiments/aot/R_S_yt-Gc1p5CnDbDY_22.mp4	0.0	394.3589150905609	0.09992599487304688
84	347.7149541378021	fix_pre	0		120	82.0	2.5	/experiments/aot/R_S_yt-fnE8kgUHUMI_64.mp4	0.0	394.45884108543396	0.9999539852142334
84	347.8984000682831	pulse	0	t		82.0	2.5	/experiments/aot/R_S_yt-fnE8kgUHUMI_64.mp4	0.0	394.6422870159149	
84	348.71490812301636	movie	1		299	82.0	2.5	/experiments/aot/R_S_yt-fnE8kgUHUMI_64.mp4	0.0	395.4587950706482	2.4999759197235107
84	349.4983870983124	pulse	1	t		82.0	2.5	/experiments/aot/R_S_yt-fnE8kgUHUMI_64.mp4	0.0	396.2422740459442	
84	351.0983760356903	pulse	1	t		82.0	2.5	/experiments/aot/R_S_yt-fnE8kgUHUMI_64.mp4	0.0	397.84226298332214	
84	351.21488404273987	fix_post	2		12	82.0	2.5	/experiments/aot/R_S_yt-fnE8kgUHUMI_64.mp4	0.0	397.9587709903717	0.10001897811889648
85	351.31490302085876	fix_pre	0		120	83.0	2.5	blank	1.0	398.0587899684906	1.000063180923462
85	352.3149662017822	movie	1		300	83.0	2.5	blank	1.0	399.05885314941406	2.500027894973755
85	352.6984181404114	pulse	1	t		83.0	2.5	blank	1.0	399.4423050880432	
85	354.2983241081238	pulse	1	t		83.0	2.5	blank	1.0	401.0422110557556	
85	354.814994096756	fix_post	2		12	83.0	2.5	blank	1.0	401.5588810443878	0.09984803199768066
87	354.91484212875366	stim	0		1716					401.6587290763855	14.300060987472534
87	355.8984282016754	pulse	0	t						402.64231514930725	
87	357.4982969760895	pulse	0	t						404.2421839237213	
87	359.09828901290894	pulse	0	t						405.84217596054077	
87	360.69835019111633	pulse	0	t						407.44223713874817	
87	362.298278093338	pulse	0	t						409.04216504096985	
87	363.898255109787	pulse	0	t						410.6421420574188	
87	365.49830317497253	pulse	0	t						412.24219012260437	
87	367.09835600852966	pulse	0	t						413.8422429561615	
87	368.69827699661255	pulse	0	t						415.4421639442444	
