trial_nr	onset	event_type	phase	response	nr_frames	movie_index	movie_duration	movie_file	blank	onset_abs	duration
0	0.1332108974456787	stim	0		140					21.649346828460693	1.1667211055755615
0	1.2918779850006104	response	0	space						22.808013916015625	
1	1.2999320030212402	stim	0		42841					22.816067934036255	357.00665307044983
1	358.3026649951935	pulse	0	t						379.8188009262085	
1	358.30658507347107	stim	1		1717					379.8227210044861	14.308178901672363
1	359.89840388298035	pulse	1	t						381.41453981399536	
1	361.4979019165039	pulse	1	t						383.0140378475189	
1	363.09817695617676	pulse	1	t						384.6143128871918	
1	364.69840598106384	pulse	1	t						386.21454191207886	
1	366.2983920574188	pulse	1	t						387.81452798843384	
1	367.8983678817749	pulse	1	t						389.4145038127899	
1	369.49826192855835	pulse	1	t						391.01439785957336	
1	371.098247051239	pulse	1	t						392.614382982254	
2	372.61476397514343	fix_pre	0		11	0.0	2.5	/experiments/AOT/AOT_stimuli/rescaled_final/1392_fw.mp4	0.0	394.13089990615845	0.09165000915527344
2	372.69836688041687	pulse	0	t		0.0	2.5	/experiments/AOT/AOT_stimuli/rescaled_final/1392_fw.mp4	0.0	394.2145028114319	
2	372.7064139842987	movie	1		244	0.0	2.5	/experiments/AOT/AOT_stimuli/rescaled_final/1392_fw.mp4	0.0	394.2225499153137	2.508291006088257
2	374.29772901535034	pulse	1	t		0.0	2.5	/experiments/AOT/AOT_stimuli/rescaled_final/1392_fw.mp4	0.0	395.81386494636536	
2	375.21470499038696	fix_post	2		12	0.0	2.5	/experiments/AOT/AOT_stimuli/rescaled_final/1392_fw.mp4	0.0	396.730840921402	0.10003089904785156
3	375.3147358894348	fix_pre	0		120	1.0	2.5	/experiments/AOT/AOT_stimuli/rescaled_final/1664_fw.mp4	0.0	396.83087182044983	0.9999690055847168
3	375.89821696281433	pulse	0	t		1.0	2.5	/experiments/AOT/AOT_stimuli/rescaled_final/1664_fw.mp4	0.0	397.41435289382935	
3	376.31470489501953	movie	1		246	1.0	2.5	/experiments/AOT/AOT_stimuli/rescaled_final/1664_fw.mp4	0.0	397.83084082603455	2.500030040740967
3	377.49847888946533	pulse	1	t		1.0	2.5	/experiments/AOT/AOT_stimuli/rescaled_final/1664_fw.mp4	0.0	399.01461482048035	
3	378.8147349357605	fix_post	2		12	1.0	2.5	/experiments/AOT/AOT_stimuli/rescaled_final/1664_fw.mp4	0.0	400.3308708667755	0.09997892379760742
4	378.9147138595581	fix_pre	0		120	2.0	2.5	/experiments/AOT/AOT_stimuli/rescaled_final/1751_fw.mp4	0.0	400.4308497905731	1.0000150203704834
4	379.0983099937439	pulse	0	t		2.0	2.5	/experiments/AOT/AOT_stimuli/rescaled_final/1751_fw.mp4	0.0	400.6144459247589	
4	379.9147288799286	movie	1		243	2.0	2.5	/experiments/AOT/AOT_stimuli/rescaled_final/1751_fw.mp4	0.0	401.4308648109436	2.4999821186065674
4	380.69826006889343	pulse	1	t		2.0	2.5	/experiments/AOT/AOT_stimuli/rescaled_final/1751_fw.mp4	0.0	402.21439599990845	
4	382.2965998649597	pulse	1	t		2.0	2.5	/experiments/AOT/AOT_stimuli/rescaled_final/1751_fw.mp4	0.0	403.81273579597473	
4	382.41471099853516	fix_post	2		12	2.0	2.5	/experiments/AOT/AOT_stimuli/rescaled_final/1751_fw.mp4	0.0	403.93084692955017	0.09999895095825195
5	382.5147099494934	fix_pre	0		120	3.0	2.5	/experiments/AOT/AOT_stimuli/rescaled_final/1664_rv.mp4	0.0	404.0308458805084	1.0001099109649658
5	383.5148198604584	movie	1		244	3.0	2.5	/experiments/AOT/AOT_stimuli/rescaled_final/1664_rv.mp4	0.0	405.0309557914734	2.4999701976776123
5	383.8980269432068	pulse	1	t		3.0	2.5	/experiments/AOT/AOT_stimuli/rescaled_final/1664_rv.mp4	0.0	405.4141628742218	
5	385.4982199668884	pulse	1	t		3.0	2.5	/experiments/AOT/AOT_stimuli/rescaled_final/1664_rv.mp4	0.0	407.01435589790344	
5	386.014790058136	fix_post	2		12	3.0	2.5	/experiments/AOT/AOT_stimuli/rescaled_final/1664_rv.mp4	0.0	407.530925989151	0.10001397132873535
6	386.1148040294647	fix_pre	0		119	4.0	2.5	/experiments/AOT/AOT_stimuli/rescaled_final/1992_rv.mp4	0.0	407.63093996047974	0.9916348457336426
6	387.0982789993286	pulse	0	t		4.0	2.5	/experiments/AOT/AOT_stimuli/rescaled_final/1992_rv.mp4	0.0	408.6144149303436	
6	387.10643887519836	movie	1		246	4.0	2.5	/experiments/AOT/AOT_stimuli/rescaled_final/1992_rv.mp4	0.0	408.6225748062134	2.5082759857177734
6	388.6976869106293	pulse	1	t		4.0	2.5	/experiments/AOT/AOT_stimuli/rescaled_final/1992_rv.mp4	0.0	410.2138228416443	
6	389.61471486091614	fix_post	2		12	4.0	2.5	/experiments/AOT/AOT_stimuli/rescaled_final/1992_rv.mp4	0.0	411.13085079193115	0.10003805160522461
7	389.71475291252136	fix_pre	0		120	5.0	2.5	/experiments/AOT/AOT_stimuli/rescaled_final/1493_rv.mp4	0.0	411.2308888435364	1.000063180923462
7	390.2982280254364	pulse	0	t		5.0	2.5	/experiments/AOT/AOT_stimuli/rescaled_final/1493_rv.mp4	0.0	411.8143639564514	
7	390.7148160934448	movie	1		244	5.0	2.5	/experiments/AOT/AOT_stimuli/rescaled_final/1493_rv.mp4	0.0	412.23095202445984	2.4999399185180664
7	391.89823293685913	pulse	1	t		5.0	2.5	/experiments/AOT/AOT_stimuli/rescaled_final/1493_rv.mp4	0.0	413.41436886787415	
7	393.2147560119629	fix_post	2		12	5.0	2.5	/experiments/AOT/AOT_stimuli/rescaled_final/1493_rv.mp4	0.0	414.7308919429779	0.09996390342712402
8	393.31471991539	fix_pre	0		120	6.0	2.5	/experiments/AOT/AOT_stimuli/rescaled_final/1849_fw.mp4	0.0	414.83085584640503	1.0000109672546387
8	393.49814891815186	pulse	0	t		6.0	2.5	/experiments/AOT/AOT_stimuli/rescaled_final/1849_fw.mp4	0.0	415.01428484916687	
8	394.31473088264465	movie	1		243	6.0	2.5	/experiments/AOT/AOT_stimuli/rescaled_final/1849_fw.mp4	0.0	415.83086681365967	2.499951124191284
8	395.0981569290161	pulse	1	t		6.0	2.5	/experiments/AOT/AOT_stimuli/rescaled_final/1849_fw.mp4	0.0	416.6142928600311	
8	396.6966428756714	pulse	1	t		6.0	2.5	/experiments/AOT/AOT_stimuli/rescaled_final/1849_fw.mp4	0.0	418.2127788066864	
8	396.81468200683594	fix_post	2		12	6.0	2.5	/experiments/AOT/AOT_stimuli/rescaled_final/1849_fw.mp4	0.0	418.33081793785095	0.10006189346313477
9	396.9147439002991	fix_pre	0		120	7.0	2.5	blank	1.0	418.4308798313141	0.9999191761016846
9	397.91466307640076	movie	1		300	7.0	2.5	blank	1.0	419.43079900741577	2.5000288486480713
9	398.2982120513916	pulse	1	t		7.0	2.5	blank	1.0	419.8143479824066	
9	399.8982400894165	pulse	1	t		7.0	2.5	blank	1.0	421.4143760204315	
9	400.4146919250488	fix_post	2		12	7.0	2.5	blank	1.0	421.93082785606384	0.10004901885986328
10	400.5147409439087	fix_pre	0		119	8.0	2.5	/experiments/AOT/AOT_stimuli/rescaled_final/1985_fw.mp4	0.0	422.0308768749237	0.9916319847106934
10	401.49812507629395	pulse	0	t		8.0	2.5	/experiments/AOT/AOT_stimuli/rescaled_final/1985_fw.mp4	0.0	423.01426100730896	
10	401.5063729286194	movie	1		248	8.0	2.5	/experiments/AOT/AOT_stimuli/rescaled_final/1985_fw.mp4	0.0	423.0225088596344	2.5082881450653076
10	403.09924602508545	pulse	1	t		8.0	2.5	/experiments/AOT/AOT_stimuli/rescaled_final/1985_fw.mp4	0.0	424.61538195610046	
10	404.0146610736847	fix_post	2		12	8.0	2.5	/experiments/AOT/AOT_stimuli/rescaled_final/1985_fw.mp4	0.0	425.5307970046997	0.09998393058776855
11	404.11464500427246	fix_pre	0		120	9.0	2.5	/experiments/AOT/AOT_stimuli/rescaled_final/0775_fw.mp4	0.0	425.6307809352875	1.000053882598877
11	404.6993758678436	pulse	0	t		9.0	2.5	/experiments/AOT/AOT_stimuli/rescaled_final/0775_fw.mp4	0.0	426.21551179885864	
11	405.11469888687134	movie	1		246	9.0	2.5	/experiments/AOT/AOT_stimuli/rescaled_final/0775_fw.mp4	0.0	426.63083481788635	2.49991512298584
11	406.2981798648834	pulse	1	t		9.0	2.5	/experiments/AOT/AOT_stimuli/rescaled_final/0775_fw.mp4	0.0	427.81431579589844	
11	407.6146140098572	fix_post	2		12	9.0	2.5	/experiments/AOT/AOT_stimuli/rescaled_final/0775_fw.mp4	0.0	429.1307499408722	0.09999704360961914
12	407.7146110534668	fix_pre	0		120	10.0	2.5	/experiments/AOT/AOT_stimuli/rescaled_final/1362_fw.mp4	0.0	429.2307469844818	1.0001018047332764
12	407.89806389808655	pulse	0	t		10.0	2.5	/experiments/AOT/AOT_stimuli/rescaled_final/1362_fw.mp4	0.0	429.41419982910156	
12	408.7147128582001	movie	1		243	10.0	2.5	/experiments/AOT/AOT_stimuli/rescaled_final/1362_fw.mp4	0.0	430.2308487892151	2.499878168106079
12	409.4981110095978	pulse	1	t		10.0	2.5	/experiments/AOT/AOT_stimuli/rescaled_final/1362_fw.mp4	0.0	431.0142469406128	
12	411.1065330505371	pulse	1	t		10.0	2.5	/experiments/AOT/AOT_stimuli/rescaled_final/1362_fw.mp4	0.0	432.6226689815521	
12	411.21459102630615	fix_post	2		12	10.0	2.5	/experiments/AOT/AOT_stimuli/rescaled_final/1362_fw.mp4	0.0	432.73072695732117	0.10008883476257324
13	411.3146798610687	fix_pre	0		120	11.0	2.5	/experiments/AOT/AOT_stimuli/rescaled_final/0810_fw.mp4	0.0	432.83081579208374	0.9999761581420898
13	412.3146560192108	movie	1		244	11.0	2.5	/experiments/AOT/AOT_stimuli/rescaled_final/0810_fw.mp4	0.0	433.83079195022583	2.499891996383667
13	412.69911909103394	pulse	1	t		11.0	2.5	/experiments/AOT/AOT_stimuli/rescaled_final/0810_fw.mp4	0.0	434.21525502204895	
13	414.29803800582886	pulse	1	t		11.0	2.5	/experiments/AOT/AOT_stimuli/rescaled_final/0810_fw.mp4	0.0	435.8141739368439	
13	414.8145480155945	fix_post	2		12	11.0	2.5	/experiments/AOT/AOT_stimuli/rescaled_final/0810_fw.mp4	0.0	436.3306839466095	0.10006904602050781
14	414.914617061615	fix_pre	0		119	12.0	2.5	/experiments/AOT/AOT_stimuli/rescaled_final/0008_fw.mp4	0.0	436.43075299263	0.9916789531707764
14	415.8980860710144	pulse	0	t		12.0	2.5	/experiments/AOT/AOT_stimuli/rescaled_final/0008_fw.mp4	0.0	437.4142220020294	
14	415.90629601478577	movie	1		244	12.0	2.5	/experiments/AOT/AOT_stimuli/rescaled_final/0008_fw.mp4	0.0	437.4224319458008	2.5084049701690674
14	417.4974489212036	pulse	1	t		12.0	2.5	/experiments/AOT/AOT_stimuli/rescaled_final/0008_fw.mp4	0.0	439.0135848522186	
14	418.41470098495483	fix_post	2		12	12.0	2.5	/experiments/AOT/AOT_stimuli/rescaled_final/0008_fw.mp4	0.0	439.93083691596985	0.09963202476501465
15	418.51433300971985	fix_pre	0		120	13.0	2.5	/experiments/AOT/AOT_stimuli/rescaled_final/0824_fw.mp4	0.0	440.03046894073486	1.0001909732818604
15	419.09801506996155	pulse	0	t		13.0	2.5	/experiments/AOT/AOT_stimuli/rescaled_final/0824_fw.mp4	0.0	440.61415100097656	
15	419.5145239830017	movie	1		242	13.0	2.5	/experiments/AOT/AOT_stimuli/rescaled_final/0824_fw.mp4	0.0	441.0306599140167	2.5000689029693604
15	420.6981210708618	pulse	1	t		13.0	2.5	/experiments/AOT/AOT_stimuli/rescaled_final/0824_fw.mp4	0.0	442.21425700187683	
15	422.01459288597107	fix_post	2		12	13.0	2.5	/experiments/AOT/AOT_stimuli/rescaled_final/0824_fw.mp4	0.0	443.5307288169861	0.09998297691345215
16	422.1145758628845	fix_pre	0		120	14.0	2.5	blank	1.0	443.63071179389954	1.000042200088501
16	422.29806089401245	pulse	0	t		14.0	2.5	blank	1.0	443.81419682502747	
16	423.114618062973	movie	1		300	14.0	2.5	blank	1.0	444.63075399398804	2.499898910522461
16	423.89801502227783	pulse	1	t		14.0	2.5	blank	1.0	445.41415095329285	
16	425.49794697761536	pulse	1	t		14.0	2.5	blank	1.0	447.01408290863037	
16	425.6145169734955	fix_post	2		12	14.0	2.5	blank	1.0	447.1306529045105	0.10002493858337402
17	425.71454191207886	fix_pre	0		120	15.0	2.5	/experiments/AOT/AOT_stimuli/rescaled_final/0337_rv.mp4	0.0	447.2306778430939	1.0000121593475342
17	426.7145540714264	movie	1		243	15.0	2.5	/experiments/AOT/AOT_stimuli/rescaled_final/0337_rv.mp4	0.0	448.2306900024414	2.500079870223999
17	427.0974860191345	pulse	1	t		15.0	2.5	/experiments/AOT/AOT_stimuli/rescaled_final/0337_rv.mp4	0.0	448.61362195014954	
17	428.6979179382324	pulse	1	t		15.0	2.5	/experiments/AOT/AOT_stimuli/rescaled_final/0337_rv.mp4	0.0	450.21405386924744	
17	429.2146339416504	fix_post	2		12	15.0	2.5	/experiments/AOT/AOT_stimuli/rescaled_final/0337_rv.mp4	0.0	450.7307698726654	0.09982013702392578
18	429.3144540786743	fix_pre	0		119	16.0	2.5	/experiments/AOT/AOT_stimuli/rescaled_final/2093_rv.mp4	0.0	450.83059000968933	0.9917018413543701
18	430.29797887802124	pulse	0	t		16.0	2.5	/experiments/AOT/AOT_stimuli/rescaled_final/2093_rv.mp4	0.0	451.81411480903625	
18	430.3061559200287	movie	1		244	16.0	2.5	/experiments/AOT/AOT_stimuli/rescaled_final/2093_rv.mp4	0.0	451.8222918510437	2.508331060409546
18	431.8977539539337	pulse	1	t		16.0	2.5	/experiments/AOT/AOT_stimuli/rescaled_final/2093_rv.mp4	0.0	453.41388988494873	
18	432.81448698043823	fix_post	2		12	16.0	2.5	/experiments/AOT/AOT_stimuli/rescaled_final/2093_rv.mp4	0.0	454.33062291145325	0.10005807876586914
19	432.9145450592041	fix_pre	0		120	17.0	2.5	/experiments/AOT/AOT_stimuli/rescaled_final/1231_rv.mp4	0.0	454.4306809902191	0.9999728202819824
19	433.49804401397705	pulse	0	t		17.0	2.5	/experiments/AOT/AOT_stimuli/rescaled_final/1231_rv.mp4	0.0	455.01417994499207	
19	433.9145178794861	movie	1		243	17.0	2.5	/experiments/AOT/AOT_stimuli/rescaled_final/1231_rv.mp4	0.0	455.4306538105011	2.5000340938568115
19	435.0981719493866	pulse	1	t		17.0	2.5	/experiments/AOT/AOT_stimuli/rescaled_final/1231_rv.mp4	0.0	456.6143078804016	
19	436.4145519733429	fix_post	2		12	17.0	2.5	/experiments/AOT/AOT_stimuli/rescaled_final/1231_rv.mp4	0.0	457.9306879043579	0.09993100166320801
20	436.5144829750061	fix_pre	0		120	18.0	2.5	/experiments/AOT/AOT_stimuli/rescaled_final/0446_fw.mp4	0.0	458.0306189060211	0.9999690055847168
20	436.6979830265045	pulse	0	t		18.0	2.5	/experiments/AOT/AOT_stimuli/rescaled_final/0446_fw.mp4	0.0	458.21411895751953	
20	437.5144519805908	movie	1		244	18.0	2.5	/experiments/AOT/AOT_stimuli/rescaled_final/0446_fw.mp4	0.0	459.03058791160583	2.5000228881835938
20	438.29798102378845	pulse	1	t		18.0	2.5	/experiments/AOT/AOT_stimuli/rescaled_final/0446_fw.mp4	0.0	459.81411695480347	
20	439.9063949584961	pulse	1	t		18.0	2.5	/experiments/AOT/AOT_stimuli/rescaled_final/0446_fw.mp4	0.0	461.4225308895111	
20	440.0144748687744	fix_post	2		12	18.0	2.5	/experiments/AOT/AOT_stimuli/rescaled_final/0446_fw.mp4	0.0	461.53061079978943	0.10006308555603027
21	440.11453795433044	fix_pre	0		120	19.0	2.5	blank	1.0	461.63067388534546	1.000011920928955
21	441.1145498752594	movie	1		300	19.0	2.5	blank	1.0	462.6306858062744	2.499969005584717
21	441.49802589416504	pulse	1	t		19.0	2.5	blank	1.0	463.01416182518005	
21	443.09789299964905	pulse	1	t		19.0	2.5	blank	1.0	464.61402893066406	
21	443.6145188808441	fix_post	2		12	19.0	2.5	blank	1.0	465.13065481185913	0.0999910831451416
22	443.71450996398926	fix_pre	0		119	20.0	2.5	/experiments/AOT/AOT_stimuli/rescaled_final/1645_fw.mp4	0.0	465.2306458950043	0.9916279315948486
22	444.6980330944061	pulse	0	t		20.0	2.5	/experiments/AOT/AOT_stimuli/rescaled_final/1645_fw.mp4	0.0	466.21416902542114	
22	444.7061378955841	movie	1		245	20.0	2.5	/experiments/AOT/AOT_stimuli/rescaled_final/1645_fw.mp4	0.0	466.2222738265991	2.508357048034668
22	446.2973918914795	pulse	1	t		20.0	2.5	/experiments/AOT/AOT_stimuli/rescaled_final/1645_fw.mp4	0.0	467.8135278224945	
22	447.2144949436188	fix_post	2		12	20.0	2.5	/experiments/AOT/AOT_stimuli/rescaled_final/1645_fw.mp4	0.0	468.7306308746338	0.09997797012329102
23	447.31447291374207	fix_pre	0		120	21.0	2.5	/experiments/AOT/AOT_stimuli/rescaled_final/1820_rv.mp4	0.0	468.8306088447571	0.9998540878295898
23	447.89899492263794	pulse	0	t		21.0	2.5	/experiments/AOT/AOT_stimuli/rescaled_final/1820_rv.mp4	0.0	469.41513085365295	
23	448.31432700157166	movie	1		245	21.0	2.5	/experiments/AOT/AOT_stimuli/rescaled_final/1820_rv.mp4	0.0	469.83046293258667	2.5001308917999268
23	449.4979569911957	pulse	1	t		21.0	2.5	/experiments/AOT/AOT_stimuli/rescaled_final/1820_rv.mp4	0.0	471.0140929222107	
23	450.8144578933716	fix_post	2		12	21.0	2.5	/experiments/AOT/AOT_stimuli/rescaled_final/1820_rv.mp4	0.0	472.3305938243866	0.10004806518554688
24	450.91450595855713	fix_pre	0		120	22.0	2.5	/experiments/AOT/AOT_stimuli/rescaled_final/0462_fw.mp4	0.0	472.43064188957214	0.999953031539917
24	451.0979220867157	pulse	0	t		22.0	2.5	/experiments/AOT/AOT_stimuli/rescaled_final/0462_fw.mp4	0.0	472.6140580177307	
24	451.91445899009705	movie	1		245	22.0	2.5	/experiments/AOT/AOT_stimuli/rescaled_final/0462_fw.mp4	0.0	473.43059492111206	2.4999940395355225
24	452.6978569030762	pulse	1	t		22.0	2.5	/experiments/AOT/AOT_stimuli/rescaled_final/0462_fw.mp4	0.0	474.2139928340912	
24	454.29618096351624	pulse	1	t		22.0	2.5	/experiments/AOT/AOT_stimuli/rescaled_final/0462_fw.mp4	0.0	475.81231689453125	
24	454.41445302963257	fix_post	2		12	22.0	2.5	/experiments/AOT/AOT_stimuli/rescaled_final/0462_fw.mp4	0.0	475.9305889606476	0.09994292259216309
25	454.51439595222473	fix_pre	0		120	23.0	2.5	/experiments/AOT/AOT_stimuli/rescaled_final/2136_rv.mp4	0.0	476.03053188323975	1.0000691413879395
25	455.51446509361267	movie	1		244	23.0	2.5	/experiments/AOT/AOT_stimuli/rescaled_final/2136_rv.mp4	0.0	477.0306010246277	2.499997854232788
25	455.89748096466064	pulse	1	t		23.0	2.5	/experiments/AOT/AOT_stimuli/rescaled_final/2136_rv.mp4	0.0	477.41361689567566	
25	457.49784207344055	pulse	1	t		23.0	2.5	/experiments/AOT/AOT_stimuli/rescaled_final/2136_rv.mp4	0.0	479.01397800445557	
25	458.01446294784546	fix_post	2		12	23.0	2.5	/experiments/AOT/AOT_stimuli/rescaled_final/2136_rv.mp4	0.0	479.5305988788605	0.0999290943145752
26	458.11439204216003	fix_pre	0		119	24.0	2.5	/experiments/AOT/AOT_stimuli/rescaled_final/1292_fw.mp4	0.0	479.63052797317505	0.9917459487915039
26	459.097815990448	pulse	0	t		24.0	2.5	/experiments/AOT/AOT_stimuli/rescaled_final/1292_fw.mp4	0.0	480.613951921463	
26	459.10613799095154	movie	1		245	24.0	2.5	/experiments/AOT/AOT_stimuli/rescaled_final/1292_fw.mp4	0.0	480.62227392196655	2.50827693939209
26	460.69722604751587	pulse	1	t		24.0	2.5	/experiments/AOT/AOT_stimuli/rescaled_final/1292_fw.mp4	0.0	482.2133619785309	
26	461.6144149303436	fix_post	2		12	24.0	2.5	/experiments/AOT/AOT_stimuli/rescaled_final/1292_fw.mp4	0.0	483.13055086135864	0.09996604919433594
27	461.71438097953796	fix_pre	0		120	25.0	2.5	/experiments/AOT/AOT_stimuli/rescaled_final/0061_fw.mp4	0.0	483.230516910553	1.000040054321289
27	462.2978410720825	pulse	0	t		25.0	2.5	/experiments/AOT/AOT_stimuli/rescaled_final/0061_fw.mp4	0.0	483.81397700309753	
27	462.71442103385925	movie	1		244	25.0	2.5	/experiments/AOT/AOT_stimuli/rescaled_final/0061_fw.mp4	0.0	484.23055696487427	2.499979019165039
27	463.8978490829468	pulse	1	t		25.0	2.5	/experiments/AOT/AOT_stimuli/rescaled_final/0061_fw.mp4	0.0	485.4139850139618	
27	465.2144000530243	fix_post	2		12	25.0	2.5	/experiments/AOT/AOT_stimuli/rescaled_final/0061_fw.mp4	0.0	486.7305359840393	0.10006499290466309
28	465.31446504592896	fix_pre	0		120	26.0	2.5	/experiments/AOT/AOT_stimuli/rescaled_final/0981_fw.mp4	0.0	486.83060097694397	0.9999408721923828
28	465.49780106544495	pulse	0	t		26.0	2.5	/experiments/AOT/AOT_stimuli/rescaled_final/0981_fw.mp4	0.0	487.01393699645996	
28	466.31440591812134	movie	1		244	26.0	2.5	/experiments/AOT/AOT_stimuli/rescaled_final/0981_fw.mp4	0.0	487.83054184913635	2.500012159347534
28	467.09789299964905	pulse	1	t		26.0	2.5	/experiments/AOT/AOT_stimuli/rescaled_final/0981_fw.mp4	0.0	488.61402893066406	
28	468.69649505615234	pulse	1	t		26.0	2.5	/experiments/AOT/AOT_stimuli/rescaled_final/0981_fw.mp4	0.0	490.21263098716736	
28	468.8144180774689	fix_post	2		12	26.0	2.5	/experiments/AOT/AOT_stimuli/rescaled_final/0981_fw.mp4	0.0	490.3305540084839	0.09994387626647949
29	468.91436195373535	fix_pre	0		120	27.0	2.5	blank	1.0	490.43049788475037	1.0000441074371338
29	469.9144060611725	movie	1		300	27.0	2.5	blank	1.0	491.4305419921875	2.4999349117279053
29	470.29783606529236	pulse	1	t		27.0	2.5	blank	1.0	491.8139719963074	
29	471.8973979949951	pulse	1	t		27.0	2.5	blank	1.0	493.41353392601013	
29	472.4143409729004	fix_post	2		12	27.0	2.5	blank	1.0	493.9304769039154	0.10003304481506348
30	472.51437401771545	fix_pre	0		119	28.0	2.5	/experiments/AOT/AOT_stimuli/rescaled_final/1647_fw.mp4	0.0	494.03050994873047	0.9916720390319824
30	473.4978029727936	pulse	0	t		28.0	2.5	/experiments/AOT/AOT_stimuli/rescaled_final/1647_fw.mp4	0.0	495.0139389038086	
30	473.50604605674744	movie	1		246	28.0	2.5	/experiments/AOT/AOT_stimuli/rescaled_final/1647_fw.mp4	0.0	495.02218198776245	2.508316993713379
30	475.09918689727783	pulse	1	t		28.0	2.5	/experiments/AOT/AOT_stimuli/rescaled_final/1647_fw.mp4	0.0	496.61532282829285	
30	476.0143630504608	fix_post	2		12	28.0	2.5	/experiments/AOT/AOT_stimuli/rescaled_final/1647_fw.mp4	0.0	497.53049898147583	0.09999203681945801
31	476.1143550872803	fix_pre	0		120	29.0	2.5	/experiments/AOT/AOT_stimuli/rescaled_final/0333_fw.mp4	0.0	497.6304910182953	0.9999887943267822
31	476.6978840827942	pulse	0	t		29.0	2.5	/experiments/AOT/AOT_stimuli/rescaled_final/0333_fw.mp4	0.0	498.2140200138092	
31	477.11434388160706	movie	1		244	29.0	2.5	/experiments/AOT/AOT_stimuli/rescaled_final/0333_fw.mp4	0.0	498.63047981262207	2.500016212463379
31	478.29787397384644	pulse	1	t		29.0	2.5	/experiments/AOT/AOT_stimuli/rescaled_final/0333_fw.mp4	0.0	499.81400990486145	
31	479.61436009407043	fix_post	2		12	29.0	2.5	/experiments/AOT/AOT_stimuli/rescaled_final/0333_fw.mp4	0.0	501.13049602508545	0.09998083114624023
32	479.7143409252167	fix_pre	0		120	30.0	2.5	/experiments/AOT/AOT_stimuli/rescaled_final/0203_fw.mp4	0.0	501.2304768562317	0.9998891353607178
32	479.8977930545807	pulse	0	t		30.0	2.5	/experiments/AOT/AOT_stimuli/rescaled_final/0203_fw.mp4	0.0	501.4139289855957	
32	480.7142300605774	movie	1		244	30.0	2.5	/experiments/AOT/AOT_stimuli/rescaled_final/0203_fw.mp4	0.0	502.2303659915924	2.500093936920166
32	481.49767088890076	pulse	1	t		30.0	2.5	/experiments/AOT/AOT_stimuli/rescaled_final/0203_fw.mp4	0.0	503.01380681991577	
32	483.09634590148926	pulse	1	t		30.0	2.5	/experiments/AOT/AOT_stimuli/rescaled_final/0203_fw.mp4	0.0	504.6124818325043	
32	483.21432399749756	fix_post	2		12	30.0	2.5	/experiments/AOT/AOT_stimuli/rescaled_final/0203_fw.mp4	0.0	504.7304599285126	0.09989309310913086
33	483.3142170906067	fix_pre	0		120	31.0	2.5	/experiments/AOT/AOT_stimuli/rescaled_final/2105_rv.mp4	0.0	504.8303530216217	1.00003981590271
33	484.3142569065094	movie	1		242	31.0	2.5	/experiments/AOT/AOT_stimuli/rescaled_final/2105_rv.mp4	0.0	505.8303928375244	2.4999570846557617
33	484.6971318721771	pulse	1	t		31.0	2.5	/experiments/AOT/AOT_stimuli/rescaled_final/2105_rv.mp4	0.0	506.21326780319214	
33	486.2976920604706	pulse	1	t		31.0	2.5	/experiments/AOT/AOT_stimuli/rescaled_final/2105_rv.mp4	0.0	507.8138279914856	
33	486.81421399116516	fix_post	2		12	31.0	2.5	/experiments/AOT/AOT_stimuli/rescaled_final/2105_rv.mp4	0.0	508.3303499221802	0.10001897811889648
34	486.91423296928406	fix_pre	0		119	32.0	2.5	/experiments/AOT/AOT_stimuli/rescaled_final/1664_rv.mp4	0.0	508.4303689002991	0.9916589260101318
34	487.8977630138397	pulse	0	t		32.0	2.5	/experiments/AOT/AOT_stimuli/rescaled_final/1664_rv.mp4	0.0	509.41389894485474	
34	487.9058918952942	movie	1		246	32.0	2.5	/experiments/AOT/AOT_stimuli/rescaled_final/1664_rv.mp4	0.0	509.4220278263092	2.508395195007324
34	489.4974949359894	pulse	1	t		32.0	2.5	/experiments/AOT/AOT_stimuli/rescaled_final/1664_rv.mp4	0.0	511.0136308670044	
34	490.4142870903015	fix_post	2		12	32.0	2.5	/experiments/AOT/AOT_stimuli/rescaled_final/1664_rv.mp4	0.0	511.9304230213165	0.09994387626647949
35	490.514230966568	fix_pre	0		120	33.0	2.5	/experiments/AOT/AOT_stimuli/rescaled_final/0720_fw.mp4	0.0	512.030366897583	1.0001099109649658
35	491.09765887260437	pulse	0	t		33.0	2.5	/experiments/AOT/AOT_stimuli/rescaled_final/0720_fw.mp4	0.0	512.6137948036194	
35	491.51434087753296	movie	1		246	33.0	2.5	/experiments/AOT/AOT_stimuli/rescaled_final/0720_fw.mp4	0.0	513.030476808548	2.499843120574951
35	492.69767594337463	pulse	1	t		33.0	2.5	/experiments/AOT/AOT_stimuli/rescaled_final/0720_fw.mp4	0.0	514.2138118743896	
35	494.0141839981079	fix_post	2		12	33.0	2.5	/experiments/AOT/AOT_stimuli/rescaled_final/0720_fw.mp4	0.0	515.5303199291229	0.10005688667297363
36	494.1142408847809	fix_pre	0		120	34.0	2.5	blank	1.0	515.6303768157959	0.9998960494995117
36	494.29763102531433	pulse	0	t		34.0	2.5	blank	1.0	515.8137669563293	
36	495.1141369342804	movie	1		300	34.0	2.5	blank	1.0	516.6302728652954	2.500035047531128
36	495.8976180553436	pulse	1	t		34.0	2.5	blank	1.0	517.4137539863586	
36	497.4976580142975	pulse	1	t		34.0	2.5	blank	1.0	519.0137939453125	
36	497.6141719818115	fix_post	2		12	34.0	2.5	blank	1.0	519.1303079128265	0.10001397132873535
37	497.71418595314026	fix_pre	0		120	35.0	2.5	/experiments/AOT/AOT_stimuli/rescaled_final/1042_fw.mp4	0.0	519.2303218841553	1.0000290870666504
37	498.7142150402069	movie	1		244	35.0	2.5	/experiments/AOT/AOT_stimuli/rescaled_final/1042_fw.mp4	0.0	520.2303509712219	2.499948024749756
37	499.0975410938263	pulse	1	t		35.0	2.5	/experiments/AOT/AOT_stimuli/rescaled_final/1042_fw.mp4	0.0	520.6136770248413	
37	500.6976878643036	pulse	1	t		35.0	2.5	/experiments/AOT/AOT_stimuli/rescaled_final/1042_fw.mp4	0.0	522.2138237953186	
37	501.21416306495667	fix_post	2		12	35.0	2.5	/experiments/AOT/AOT_stimuli/rescaled_final/1042_fw.mp4	0.0	522.7302989959717	0.10001492500305176
38	501.3141779899597	fix_pre	0		119	36.0	2.5	/experiments/AOT/AOT_stimuli/rescaled_final/0446_rv.mp4	0.0	522.8303139209747	0.9916799068450928
38	502.2976858615875	pulse	0	t		36.0	2.5	/experiments/AOT/AOT_stimuli/rescaled_final/0446_rv.mp4	0.0	523.8138217926025	
38	502.3058578968048	movie	1		245	36.0	2.5	/experiments/AOT/AOT_stimuli/rescaled_final/0446_rv.mp4	0.0	523.8219938278198	2.5083391666412354
38	503.89759492874146	pulse	1	t		36.0	2.5	/experiments/AOT/AOT_stimuli/rescaled_final/0446_rv.mp4	0.0	525.4137308597565	
38	504.81419706344604	fix_post	2		12	36.0	2.5	/experiments/AOT/AOT_stimuli/rescaled_final/0446_rv.mp4	0.0	526.3303329944611	0.09991192817687988
39	504.9141089916229	fix_pre	0		120	37.0	2.5	/experiments/AOT/AOT_stimuli/rescaled_final/0824_fw.mp4	0.0	526.4302449226379	1.0000169277191162
39	505.4977009296417	pulse	0	t		37.0	2.5	/experiments/AOT/AOT_stimuli/rescaled_final/0824_fw.mp4	0.0	527.0138368606567	
39	505.91412591934204	movie	1		244	37.0	2.5	/experiments/AOT/AOT_stimuli/rescaled_final/0824_fw.mp4	0.0	527.430261850357	2.5000720024108887
39	507.0977098941803	pulse	1	t		37.0	2.5	/experiments/AOT/AOT_stimuli/rescaled_final/0824_fw.mp4	0.0	528.6138458251953	
39	508.41419792175293	fix_post	2		12	37.0	2.5	/experiments/AOT/AOT_stimuli/rescaled_final/0824_fw.mp4	0.0	529.930333852768	0.10001397132873535
40	508.51421189308167	fix_pre	0		120	38.0	2.5	/experiments/AOT/AOT_stimuli/rescaled_final/0555_fw.mp4	0.0	530.0303478240967	0.9999191761016846
40	508.69761204719543	pulse	0	t		38.0	2.5	/experiments/AOT/AOT_stimuli/rescaled_final/0555_fw.mp4	0.0	530.2137479782104	
40	509.51413106918335	movie	1		245	38.0	2.5	/experiments/AOT/AOT_stimuli/rescaled_final/0555_fw.mp4	0.0	531.0302670001984	2.5000269412994385
40	510.2975618839264	pulse	1	t		38.0	2.5	/experiments/AOT/AOT_stimuli/rescaled_final/0555_fw.mp4	0.0	531.8136978149414	
40	511.9060208797455	pulse	1	t		38.0	2.5	/experiments/AOT/AOT_stimuli/rescaled_final/0555_fw.mp4	0.0	533.4221568107605	
40	512.0141580104828	fix_post	2		12	38.0	2.5	/experiments/AOT/AOT_stimuli/rescaled_final/0555_fw.mp4	0.0	533.5302939414978	0.09999990463256836
41	512.1141579151154	fix_pre	0		120	39.0	2.5	/experiments/AOT/AOT_stimuli/rescaled_final/0001_rv.mp4	0.0	533.6302938461304	0.9999861717224121
41	513.1141440868378	movie	1		244	39.0	2.5	/experiments/AOT/AOT_stimuli/rescaled_final/0001_rv.mp4	0.0	534.6302800178528	2.5000219345092773
41	513.4971759319305	pulse	1	t		39.0	2.5	/experiments/AOT/AOT_stimuli/rescaled_final/0001_rv.mp4	0.0	535.0133118629456	
41	515.0975430011749	pulse	1	t		39.0	2.5	/experiments/AOT/AOT_stimuli/rescaled_final/0001_rv.mp4	0.0	536.6136789321899	
41	515.614166021347	fix_post	2		12	39.0	2.5	/experiments/AOT/AOT_stimuli/rescaled_final/0001_rv.mp4	0.0	537.1303019523621	0.09988093376159668
42	515.7140469551086	fix_pre	0		119	40.0	2.5	/experiments/AOT/AOT_stimuli/rescaled_final/0203_fw.mp4	0.0	537.2301828861237	0.9917159080505371
42	516.6975378990173	pulse	0	t		40.0	2.5	/experiments/AOT/AOT_stimuli/rescaled_final/0203_fw.mp4	0.0	538.2136738300323	
42	516.7057628631592	movie	1		245	40.0	2.5	/experiments/AOT/AOT_stimuli/rescaled_final/0203_fw.mp4	0.0	538.2218987941742	2.5083651542663574
42	518.2971658706665	pulse	1	t		40.0	2.5	/experiments/AOT/AOT_stimuli/rescaled_final/0203_fw.mp4	0.0	539.8133018016815	
42	519.2141280174255	fix_post	2		12	40.0	2.5	/experiments/AOT/AOT_stimuli/rescaled_final/0203_fw.mp4	0.0	540.7302639484406	0.09990692138671875
43	519.3140349388123	fix_pre	0		120	41.0	2.5	/experiments/AOT/AOT_stimuli/rescaled_final/0697_rv.mp4	0.0	540.8301708698273	1.0000360012054443
43	519.8975479602814	pulse	0	t		41.0	2.5	/experiments/AOT/AOT_stimuli/rescaled_final/0697_rv.mp4	0.0	541.4136838912964	
43	520.3140709400177	movie	1		243	41.0	2.5	/experiments/AOT/AOT_stimuli/rescaled_final/0697_rv.mp4	0.0	541.8302068710327	2.500011920928955
43	521.4975850582123	pulse	1	t		41.0	2.5	/experiments/AOT/AOT_stimuli/rescaled_final/0697_rv.mp4	0.0	543.0137209892273	
43	522.8140828609467	fix_post	2		12	41.0	2.5	/experiments/AOT/AOT_stimuli/rescaled_final/0697_rv.mp4	0.0	544.3302187919617	0.09998607635498047
44	522.9140689373016	fix_pre	0		120	42.0	2.5	blank	1.0	544.4302048683167	1.0000560283660889
44	523.0975630283356	pulse	0	t		42.0	2.5	blank	1.0	544.6136989593506	
44	523.9141249656677	movie	1		300	42.0	2.5	blank	1.0	545.4302608966827	2.500077962875366
44	524.6975700855255	pulse	1	t		42.0	2.5	blank	1.0	546.2137060165405	
44	526.2975769042969	pulse	1	t		42.0	2.5	blank	1.0	547.8137128353119	
44	526.4142029285431	fix_post	2		12	42.0	2.5	blank	1.0	547.9303388595581	0.09992599487304688
45	526.5141289234161	fix_pre	0		120	43.0	2.5	/experiments/AOT/AOT_stimuli/rescaled_final/1551_fw.mp4	0.0	548.0302648544312	0.99993896484375
45	527.5140678882599	movie	1		244	43.0	2.5	/experiments/AOT/AOT_stimuli/rescaled_final/1551_fw.mp4	0.0	549.0302038192749	2.4996821880340576
45	527.8967580795288	pulse	1	t		43.0	2.5	/experiments/AOT/AOT_stimuli/rescaled_final/1551_fw.mp4	0.0	549.4128940105438	
45	529.4971599578857	pulse	1	t		43.0	2.5	/experiments/AOT/AOT_stimuli/rescaled_final/1551_fw.mp4	0.0	551.0132958889008	
45	530.013750076294	fix_post	2		12	43.0	2.5	/experiments/AOT/AOT_stimuli/rescaled_final/1551_fw.mp4	0.0	551.529886007309	0.10003781318664551
46	530.1137878894806	fix_pre	0		119	44.0	2.5	/experiments/AOT/AOT_stimuli/rescaled_final/2114_rv.mp4	0.0	551.6299238204956	0.9918551445007324
46	531.097806930542	pulse	0	t		44.0	2.5	/experiments/AOT/AOT_stimuli/rescaled_final/2114_rv.mp4	0.0	552.613942861557	
46	531.1056430339813	movie	1		248	44.0	2.5	/experiments/AOT/AOT_stimuli/rescaled_final/2114_rv.mp4	0.0	552.6217789649963	2.5083749294281006
46	532.6970789432526	pulse	1	t		44.0	2.5	/experiments/AOT/AOT_stimuli/rescaled_final/2114_rv.mp4	0.0	554.2132148742676	
46	533.6140179634094	fix_post	2		12	44.0	2.5	/experiments/AOT/AOT_stimuli/rescaled_final/2114_rv.mp4	0.0	555.1301538944244	0.10007691383361816
47	533.714094877243	fix_pre	0		120	45.0	2.5	/experiments/AOT/AOT_stimuli/rescaled_final/1362_rv.mp4	0.0	555.230230808258	0.9998791217803955
47	534.297504901886	pulse	0	t		45.0	2.5	/experiments/AOT/AOT_stimuli/rescaled_final/1362_rv.mp4	0.0	555.813640832901	
47	534.7139739990234	movie	1		245	45.0	2.5	/experiments/AOT/AOT_stimuli/rescaled_final/1362_rv.mp4	0.0	556.2301099300385	2.5
47	535.8974719047546	pulse	1	t		45.0	2.5	/experiments/AOT/AOT_stimuli/rescaled_final/1362_rv.mp4	0.0	557.4136078357697	
47	537.2139739990234	fix_post	2		12	45.0	2.5	/experiments/AOT/AOT_stimuli/rescaled_final/1362_rv.mp4	0.0	558.7301099300385	0.10000491142272949
48	537.3139789104462	fix_pre	0		120	46.0	2.5	/experiments/AOT/AOT_stimuli/rescaled_final/1469_rv.mp4	0.0	558.8301148414612	1.0000300407409668
48	537.4974920749664	pulse	0	t		46.0	2.5	/experiments/AOT/AOT_stimuli/rescaled_final/1469_rv.mp4	0.0	559.0136280059814	
48	538.3140089511871	movie	1		245	46.0	2.5	/experiments/AOT/AOT_stimuli/rescaled_final/1469_rv.mp4	0.0	559.8301448822021	2.499920129776001
48	539.0974190235138	pulse	1	t		46.0	2.5	/experiments/AOT/AOT_stimuli/rescaled_final/1469_rv.mp4	0.0	560.6135549545288	
48	540.697016954422	pulse	1	t		46.0	2.5	/experiments/AOT/AOT_stimuli/rescaled_final/1469_rv.mp4	0.0	562.213152885437	
48	540.8139290809631	fix_post	2		12	46.0	2.5	/experiments/AOT/AOT_stimuli/rescaled_final/1469_rv.mp4	0.0	562.3300650119781	0.09998893737792969
49	540.9139180183411	fix_pre	0		120	47.0	2.5	blank	1.0	562.4300539493561	1.0000040531158447
49	541.9139220714569	movie	1		300	47.0	2.5	blank	1.0	563.4300580024719	2.5000498294830322
49	542.2974400520325	pulse	1	t		47.0	2.5	blank	1.0	563.8135759830475	
49	543.8974668979645	pulse	1	t		47.0	2.5	blank	1.0	565.4136028289795	
49	544.4139719009399	fix_post	2		12	47.0	2.5	blank	1.0	565.930107831955	0.09995603561401367
50	544.513927936554	fix_pre	0		119	48.0	2.5	/experiments/AOT/AOT_stimuli/rescaled_final/1773_rv.mp4	0.0	566.030063867569	0.9916479587554932
50	545.4974269866943	pulse	0	t		48.0	2.5	/experiments/AOT/AOT_stimuli/rescaled_final/1773_rv.mp4	0.0	567.0135629177094	
50	545.5055758953094	movie	1		244	48.0	2.5	/experiments/AOT/AOT_stimuli/rescaled_final/1773_rv.mp4	0.0	567.0217118263245	2.508362054824829
50	547.0971879959106	pulse	1	t		48.0	2.5	/experiments/AOT/AOT_stimuli/rescaled_final/1773_rv.mp4	0.0	568.6133239269257	
50	548.0139379501343	fix_post	2		12	48.0	2.5	/experiments/AOT/AOT_stimuli/rescaled_final/1773_rv.mp4	0.0	569.5300738811493	0.09999394416809082
51	548.1139318943024	fix_pre	0		120	49.0	2.5	/experiments/AOT/AOT_stimuli/rescaled_final/1149_rv.mp4	0.0	569.6300678253174	1.000087022781372
51	548.6974339485168	pulse	0	t		49.0	2.5	/experiments/AOT/AOT_stimuli/rescaled_final/1149_rv.mp4	0.0	570.2135698795319	
51	549.1140189170837	movie	1		243	49.0	2.5	/experiments/AOT/AOT_stimuli/rescaled_final/1149_rv.mp4	0.0	570.6301548480988	2.4999630451202393
51	550.2975189685822	pulse	1	t		49.0	2.5	/experiments/AOT/AOT_stimuli/rescaled_final/1149_rv.mp4	0.0	571.8136548995972	
51	551.613981962204	fix_post	2		12	49.0	2.5	/experiments/AOT/AOT_stimuli/rescaled_final/1149_rv.mp4	0.0	573.130117893219	0.09994792938232422
52	551.7139298915863	fix_pre	0		120	50.0	2.5	/experiments/AOT/AOT_stimuli/rescaled_final/0398_fw.mp4	0.0	573.2300658226013	1.0000510215759277
52	551.8974370956421	pulse	0	t		50.0	2.5	/experiments/AOT/AOT_stimuli/rescaled_final/0398_fw.mp4	0.0	573.4135730266571	
52	552.7139809131622	movie	1		247	50.0	2.5	/experiments/AOT/AOT_stimuli/rescaled_final/0398_fw.mp4	0.0	574.2301168441772	2.499959945678711
52	553.4974160194397	pulse	1	t		50.0	2.5	/experiments/AOT/AOT_stimuli/rescaled_final/0398_fw.mp4	0.0	575.0135519504547	
52	555.097051858902	pulse	1	t		50.0	2.5	/experiments/AOT/AOT_stimuli/rescaled_final/0398_fw.mp4	0.0	576.613187789917	
52	555.2139408588409	fix_post	2		12	50.0	2.5	/experiments/AOT/AOT_stimuli/rescaled_final/0398_fw.mp4	0.0	576.730076789856	0.10003805160522461
53	555.3139789104462	fix_pre	0		120	51.0	2.5	/experiments/AOT/AOT_stimuli/rescaled_final/0045_fw.mp4	0.0	576.8301148414612	0.9999740123748779
53	556.313952922821	movie	1		246	51.0	2.5	/experiments/AOT/AOT_stimuli/rescaled_final/0045_fw.mp4	0.0	577.8300888538361	2.4999780654907227
53	556.6973729133606	pulse	1	t		51.0	2.5	/experiments/AOT/AOT_stimuli/rescaled_final/0045_fw.mp4	0.0	578.2135088443756	
53	558.2973380088806	pulse	1	t		51.0	2.5	/experiments/AOT/AOT_stimuli/rescaled_final/0045_fw.mp4	0.0	579.8134739398956	
53	558.8139309883118	fix_post	2		12	51.0	2.5	/experiments/AOT/AOT_stimuli/rescaled_final/0045_fw.mp4	0.0	580.3300669193268	0.10000491142272949
54	558.9139358997345	fix_pre	0		119	52.0	2.5	/experiments/AOT/AOT_stimuli/rescaled_final/2039_rv.mp4	0.0	580.4300718307495	0.9917020797729492
54	559.8974530696869	pulse	0	t		52.0	2.5	/experiments/AOT/AOT_stimuli/rescaled_final/2039_rv.mp4	0.0	581.4135890007019	
54	559.9056379795074	movie	1		245	52.0	2.5	/experiments/AOT/AOT_stimuli/rescaled_final/2039_rv.mp4	0.0	581.4217739105225	2.508251905441284
54	561.4968829154968	pulse	1	t		52.0	2.5	/experiments/AOT/AOT_stimuli/rescaled_final/2039_rv.mp4	0.0	583.0130188465118	
54	562.4138898849487	fix_post	2		12	52.0	2.5	/experiments/AOT/AOT_stimuli/rescaled_final/2039_rv.mp4	0.0	583.9300258159637	0.10006213188171387
55	562.5139520168304	fix_pre	0		120	53.0	2.5	/experiments/AOT/AOT_stimuli/rescaled_final/0005_fw.mp4	0.0	584.0300879478455	0.9998979568481445
55	563.097424030304	pulse	0	t		53.0	2.5	/experiments/AOT/AOT_stimuli/rescaled_final/0005_fw.mp4	0.0	584.613559961319	
55	563.5138499736786	movie	1		244	53.0	2.5	/experiments/AOT/AOT_stimuli/rescaled_final/0005_fw.mp4	0.0	585.0299859046936	2.5000240802764893
55	564.697438955307	pulse	1	t		53.0	2.5	/experiments/AOT/AOT_stimuli/rescaled_final/0005_fw.mp4	0.0	586.213574886322	
55	566.0138740539551	fix_post	2		12	53.0	2.5	/experiments/AOT/AOT_stimuli/rescaled_final/0005_fw.mp4	0.0	587.5300099849701	0.10013484954833984
56	566.1140089035034	fix_pre	0		120	54.0	2.5	/experiments/AOT/AOT_stimuli/rescaled_final/1710_fw.mp4	0.0	587.6301448345184	0.999873161315918
56	566.2975039482117	pulse	0	t		54.0	2.5	/experiments/AOT/AOT_stimuli/rescaled_final/1710_fw.mp4	0.0	587.8136398792267	
56	567.1138820648193	movie	1		244	54.0	2.5	/experiments/AOT/AOT_stimuli/rescaled_final/1710_fw.mp4	0.0	588.6300179958344	2.4999659061431885
56	567.8973209857941	pulse	1	t		54.0	2.5	/experiments/AOT/AOT_stimuli/rescaled_final/1710_fw.mp4	0.0	589.4134569168091	
56	569.4974060058594	pulse	1	t		54.0	2.5	/experiments/AOT/AOT_stimuli/rescaled_final/1710_fw.mp4	0.0	591.0135419368744	
56	569.6138479709625	fix_post	2		12	54.0	2.5	/experiments/AOT/AOT_stimuli/rescaled_final/1710_fw.mp4	0.0	591.1299839019775	0.10007810592651367
57	569.713926076889	fix_pre	0		120	55.0	2.5	/experiments/AOT/AOT_stimuli/rescaled_final/1493_fw.mp4	0.0	591.230062007904	1.000006914138794
57	570.7139329910278	movie	1		243	55.0	2.5	/experiments/AOT/AOT_stimuli/rescaled_final/1493_fw.mp4	0.0	592.2300689220428	2.499969005584717
57	571.0970060825348	pulse	1	t		55.0	2.5	/experiments/AOT/AOT_stimuli/rescaled_final/1493_fw.mp4	0.0	592.6131420135498	
57	572.6973469257355	pulse	1	t		55.0	2.5	/experiments/AOT/AOT_stimuli/rescaled_final/1493_fw.mp4	0.0	594.2134828567505	
57	573.2139019966125	fix_post	2		12	55.0	2.5	/experiments/AOT/AOT_stimuli/rescaled_final/1493_fw.mp4	0.0	594.7300379276276	0.09994792938232422
58	573.3138499259949	fix_pre	0		119	56.0	2.5	blank	1.0	594.8299858570099	0.9916970729827881
58	574.29736495018	pulse	0	t		56.0	2.5	blank	1.0	595.8135008811951	
58	574.3055469989777	movie	1		301	56.0	2.5	blank	1.0	595.8216829299927	2.508363962173462
58	575.8973898887634	pulse	1	t		56.0	2.5	blank	1.0	597.4135258197784	
58	576.8139109611511	fix_post	2		12	56.0	2.5	blank	1.0	598.3300468921661	0.09992098808288574
59	576.913831949234	fix_pre	0		120	57.0	2.5	/experiments/AOT/AOT_stimuli/rescaled_final/0461_rv.mp4	0.0	598.429967880249	1.0000319480895996
59	577.4973659515381	pulse	0	t		57.0	2.5	/experiments/AOT/AOT_stimuli/rescaled_final/0461_rv.mp4	0.0	599.0135018825531	
59	577.9138638973236	movie	1		243	57.0	2.5	/experiments/AOT/AOT_stimuli/rescaled_final/0461_rv.mp4	0.0	599.4299998283386	2.4999570846557617
59	579.097461938858	pulse	1	t		57.0	2.5	/experiments/AOT/AOT_stimuli/rescaled_final/0461_rv.mp4	0.0	600.613597869873	
59	580.4138209819794	fix_post	2		12	57.0	2.5	/experiments/AOT/AOT_stimuli/rescaled_final/0461_rv.mp4	0.0	601.9299569129944	0.09998202323913574
60	580.5138030052185	fix_pre	0		120	58.0	2.5	/experiments/AOT/AOT_stimuli/rescaled_final/0397_rv.mp4	0.0	602.0299389362335	1.0000050067901611
60	580.6972470283508	pulse	0	t		58.0	2.5	/experiments/AOT/AOT_stimuli/rescaled_final/0397_rv.mp4	0.0	602.2133829593658	
60	581.5138080120087	movie	1		246	58.0	2.5	/experiments/AOT/AOT_stimuli/rescaled_final/0397_rv.mp4	0.0	603.0299439430237	2.4995579719543457
60	582.2972779273987	pulse	1	t		58.0	2.5	/experiments/AOT/AOT_stimuli/rescaled_final/0397_rv.mp4	0.0	603.8134138584137	
60	583.8978199958801	pulse	1	t		58.0	2.5	/experiments/AOT/AOT_stimuli/rescaled_final/0397_rv.mp4	0.0	605.4139559268951	
60	584.013365983963	fix_post	2		12	58.0	2.5	/experiments/AOT/AOT_stimuli/rescaled_final/0397_rv.mp4	0.0	605.529501914978	0.1000370979309082
61	584.1134030818939	fix_pre	0		120	59.0	2.5	/experiments/AOT/AOT_stimuli/rescaled_final/1903_rv.mp4	0.0	605.6295390129089	1.000478982925415
61	585.1138820648193	movie	1		245	59.0	2.5	/experiments/AOT/AOT_stimuli/rescaled_final/1903_rv.mp4	0.0	606.6300179958344	2.4999020099639893
61	585.5052540302277	pulse	1	t		59.0	2.5	/experiments/AOT/AOT_stimuli/rescaled_final/1903_rv.mp4	0.0	607.0213899612427	
61	587.0980310440063	pulse	1	t		59.0	2.5	/experiments/AOT/AOT_stimuli/rescaled_final/1903_rv.mp4	0.0	608.6141669750214	
61	587.6137840747833	fix_post	2		12	59.0	2.5	/experiments/AOT/AOT_stimuli/rescaled_final/1903_rv.mp4	0.0	609.1299200057983	0.10000085830688477
62	587.7137849330902	fix_pre	0		119	60.0	2.5	/experiments/AOT/AOT_stimuli/rescaled_final/0376_fw.mp4	0.0	609.2299208641052	0.9916360378265381
62	588.6972079277039	pulse	0	t		60.0	2.5	/experiments/AOT/AOT_stimuli/rescaled_final/0376_fw.mp4	0.0	610.2133438587189	
62	588.7054209709167	movie	1		246	60.0	2.5	/experiments/AOT/AOT_stimuli/rescaled_final/0376_fw.mp4	0.0	610.2215569019318	2.5083019733428955
62	590.3056080341339	pulse	1	t		60.0	2.5	/experiments/AOT/AOT_stimuli/rescaled_final/0376_fw.mp4	0.0	611.8217439651489	
62	591.2137229442596	fix_post	2		12	60.0	2.5	/experiments/AOT/AOT_stimuli/rescaled_final/0376_fw.mp4	0.0	612.7298588752747	0.10004115104675293
63	591.3137640953064	fix_pre	0		120	61.0	2.5	blank	1.0	612.8299000263214	0.9999358654022217
63	591.8971800804138	pulse	0	t		61.0	2.5	blank	1.0	613.4133160114288	
63	592.3136999607086	movie	1		300	61.0	2.5	blank	1.0	613.8298358917236	2.500040054321289
63	593.4972639083862	pulse	1	t		61.0	2.5	blank	1.0	615.0133998394012	
63	594.8137400150299	fix_post	2		12	61.0	2.5	blank	1.0	616.3298759460449	0.09995388984680176
64	594.9136939048767	fix_pre	0		120	62.0	2.5	/experiments/AOT/AOT_stimuli/rescaled_final/1573_rv.mp4	0.0	616.4298298358917	1.0000951290130615
64	595.0972189903259	pulse	0	t		62.0	2.5	/experiments/AOT/AOT_stimuli/rescaled_final/1573_rv.mp4	0.0	616.6133549213409	
64	595.9137890338898	movie	1		243	62.0	2.5	/experiments/AOT/AOT_stimuli/rescaled_final/1573_rv.mp4	0.0	617.4299249649048	2.499959945678711
64	596.6971480846405	pulse	1	t		62.0	2.5	/experiments/AOT/AOT_stimuli/rescaled_final/1573_rv.mp4	0.0	618.2132840156555	
64	598.3056519031525	pulse	1	t		62.0	2.5	/experiments/AOT/AOT_stimuli/rescaled_final/1573_rv.mp4	0.0	619.8217878341675	
64	598.4137489795685	fix_post	2		12	62.0	2.5	/experiments/AOT/AOT_stimuli/rescaled_final/1573_rv.mp4	0.0	619.9298849105835	0.10003805160522461
65	598.5137870311737	fix_pre	0		120	63.0	2.5	/experiments/AOT/AOT_stimuli/rescaled_final/0192_fw.mp4	0.0	620.0299229621887	0.9999279975891113
65	599.5137150287628	movie	1		246	63.0	2.5	/experiments/AOT/AOT_stimuli/rescaled_final/0192_fw.mp4	0.0	621.0298509597778	2.5000619888305664
65	599.9056169986725	pulse	1	t		63.0	2.5	/experiments/AOT/AOT_stimuli/rescaled_final/0192_fw.mp4	0.0	621.4217529296875	
65	601.4971709251404	pulse	1	t		63.0	2.5	/experiments/AOT/AOT_stimuli/rescaled_final/0192_fw.mp4	0.0	623.0133068561554	
65	602.0137770175934	fix_post	2		12	63.0	2.5	/experiments/AOT/AOT_stimuli/rescaled_final/0192_fw.mp4	0.0	623.5299129486084	0.0998680591583252
66	602.1136450767517	fix_pre	0		119	64.0	2.5	/experiments/AOT/AOT_stimuli/rescaled_final/0853_rv.mp4	0.0	623.6297810077667	0.9917328357696533
66	603.0971639156342	pulse	0	t		64.0	2.5	/experiments/AOT/AOT_stimuli/rescaled_final/0853_rv.mp4	0.0	624.6132998466492	
66	603.1053779125214	movie	1		247	64.0	2.5	/experiments/AOT/AOT_stimuli/rescaled_final/0853_rv.mp4	0.0	624.6215138435364	2.5083401203155518
66	604.7056338787079	pulse	1	t		64.0	2.5	/experiments/AOT/AOT_stimuli/rescaled_final/0853_rv.mp4	0.0	626.2217698097229	
66	605.6137180328369	fix_post	2		12	64.0	2.5	/experiments/AOT/AOT_stimuli/rescaled_final/0853_rv.mp4	0.0	627.1298539638519	0.10000896453857422
67	605.7137269973755	fix_pre	0		120	65.0	2.5	/experiments/AOT/AOT_stimuli/rescaled_final/1051_rv.mp4	0.0	627.2298629283905	0.9999959468841553
67	606.2973358631134	pulse	0	t		65.0	2.5	/experiments/AOT/AOT_stimuli/rescaled_final/1051_rv.mp4	0.0	627.8134717941284	
67	606.7137229442596	movie	1		244	65.0	2.5	/experiments/AOT/AOT_stimuli/rescaled_final/1051_rv.mp4	0.0	628.2298588752747	2.5000219345092773
67	607.897274017334	pulse	1	t		65.0	2.5	/experiments/AOT/AOT_stimuli/rescaled_final/1051_rv.mp4	0.0	629.413409948349	
67	609.2137448787689	fix_post	2		12	65.0	2.5	/experiments/AOT/AOT_stimuli/rescaled_final/1051_rv.mp4	0.0	630.7298808097839	0.09987998008728027
68	609.3136248588562	fix_pre	0		120	66.0	2.5	/experiments/AOT/AOT_stimuli/rescaled_final/1206_fw.mp4	0.0	630.8297607898712	1.0002081394195557
68	609.4971749782562	pulse	0	t		66.0	2.5	/experiments/AOT/AOT_stimuli/rescaled_final/1206_fw.mp4	0.0	631.0133109092712	
68	610.3138329982758	movie	1		243	66.0	2.5	/experiments/AOT/AOT_stimuli/rescaled_final/1206_fw.mp4	0.0	631.8299689292908	2.4998300075531006
68	611.0971438884735	pulse	1	t		66.0	2.5	/experiments/AOT/AOT_stimuli/rescaled_final/1206_fw.mp4	0.0	632.6132798194885	
68	612.6975610256195	pulse	1	t		66.0	2.5	/experiments/AOT/AOT_stimuli/rescaled_final/1206_fw.mp4	0.0	634.2136969566345	
68	612.8136630058289	fix_post	2		12	66.0	2.5	/experiments/AOT/AOT_stimuli/rescaled_final/1206_fw.mp4	0.0	634.3297989368439	0.09994196891784668
69	612.9136049747467	fix_pre	0		120	67.0	2.5	/experiments/AOT/AOT_stimuli/rescaled_final/0462_rv.mp4	0.0	634.4297409057617	1.0001170635223389
69	613.913722038269	movie	1		244	67.0	2.5	/experiments/AOT/AOT_stimuli/rescaled_final/0462_rv.mp4	0.0	635.4298579692841	2.4999959468841553
69	614.2981679439545	pulse	1	t		67.0	2.5	/experiments/AOT/AOT_stimuli/rescaled_final/0462_rv.mp4	0.0	635.8143038749695	
69	615.8980090618134	pulse	1	t		67.0	2.5	/experiments/AOT/AOT_stimuli/rescaled_final/0462_rv.mp4	0.0	637.4141449928284	
69	616.4137179851532	fix_post	2		12	67.0	2.5	/experiments/AOT/AOT_stimuli/rescaled_final/0462_rv.mp4	0.0	637.9298539161682	0.09990692138671875
70	616.5136249065399	fix_pre	0		119	68.0	2.5	/experiments/AOT/AOT_stimuli/rescaled_final/1602_rv.mp4	0.0	638.0297608375549	0.9916560649871826
70	617.4971139431	pulse	0	t		68.0	2.5	/experiments/AOT/AOT_stimuli/rescaled_final/1602_rv.mp4	0.0	639.013249874115	
70	617.5052809715271	movie	1		243	68.0	2.5	/experiments/AOT/AOT_stimuli/rescaled_final/1602_rv.mp4	0.0	639.0214169025421	2.5083329677581787
70	619.1055629253387	pulse	1	t		68.0	2.5	/experiments/AOT/AOT_stimuli/rescaled_final/1602_rv.mp4	0.0	640.6216988563538	
70	620.0136139392853	fix_post	2		12	68.0	2.5	/experiments/AOT/AOT_stimuli/rescaled_final/1602_rv.mp4	0.0	641.5297498703003	0.10001397132873535
71	620.113627910614	fix_pre	0		120	69.0	2.5	blank	1.0	641.629763841629	1.0000581741333008
71	620.6970770359039	pulse	0	t		69.0	2.5	blank	1.0	642.213212966919	
71	621.1136860847473	movie	1		300	69.0	2.5	blank	1.0	642.6298220157623	2.49996280670166
71	622.2971580028534	pulse	1	t		69.0	2.5	blank	1.0	643.8132939338684	
71	623.613648891449	fix_post	2		12	69.0	2.5	blank	1.0	645.129784822464	0.09994697570800781
72	623.713595867157	fix_pre	0		120	70.0	2.5	/experiments/AOT/AOT_stimuli/rescaled_final/1166_rv.mp4	0.0	645.229731798172	1.0000901222229004
72	623.8971180915833	pulse	0	t		70.0	2.5	/experiments/AOT/AOT_stimuli/rescaled_final/1166_rv.mp4	0.0	645.4132540225983	
72	624.7136859893799	movie	1		245	70.0	2.5	/experiments/AOT/AOT_stimuli/rescaled_final/1166_rv.mp4	0.0	646.2298219203949	2.500040054321289
72	625.4971079826355	pulse	1	t		70.0	2.5	/experiments/AOT/AOT_stimuli/rescaled_final/1166_rv.mp4	0.0	647.0132439136505	
72	627.1054558753967	pulse	1	t		70.0	2.5	/experiments/AOT/AOT_stimuli/rescaled_final/1166_rv.mp4	0.0	648.6215918064117	
72	627.2137260437012	fix_post	2		12	70.0	2.5	/experiments/AOT/AOT_stimuli/rescaled_final/1166_rv.mp4	0.0	648.7298619747162	0.09983086585998535
73	627.3135569095612	fix_pre	0		120	71.0	2.5	/experiments/AOT/AOT_stimuli/rescaled_final/1000_rv.mp4	0.0	648.8296928405762	1.0000791549682617
73	628.3136360645294	movie	1		243	71.0	2.5	/experiments/AOT/AOT_stimuli/rescaled_final/1000_rv.mp4	0.0	649.8297719955444	2.499943971633911
73	628.6980710029602	pulse	1	t		71.0	2.5	/experiments/AOT/AOT_stimuli/rescaled_final/1000_rv.mp4	0.0	650.2142069339752	
73	630.297040939331	pulse	1	t		71.0	2.5	/experiments/AOT/AOT_stimuli/rescaled_final/1000_rv.mp4	0.0	651.8131768703461	
73	630.8135800361633	fix_post	2		12	71.0	2.5	/experiments/AOT/AOT_stimuli/rescaled_final/1000_rv.mp4	0.0	652.3297159671783	0.09994983673095703
74	630.9135298728943	fix_pre	0		120	72.0	2.5	/experiments/AOT/AOT_stimuli/rescaled_final/2039_fw.mp4	0.0	652.4296658039093	0.9999780654907227
74	631.8979249000549	pulse	0	t		72.0	2.5	/experiments/AOT/AOT_stimuli/rescaled_final/2039_fw.mp4	0.0	653.41406083107	
74	631.913507938385	movie	1		244	72.0	2.5	/experiments/AOT/AOT_stimuli/rescaled_final/2039_fw.mp4	0.0	653.4296438694	2.5084121227264404
74	633.505138874054	pulse	1	t		72.0	2.5	/experiments/AOT/AOT_stimuli/rescaled_final/2039_fw.mp4	0.0	655.021274805069	
74	634.4219200611115	fix_post	2		12	72.0	2.5	/experiments/AOT/AOT_stimuli/rescaled_final/2039_fw.mp4	0.0	655.9380559921265	0.10004091262817383
75	634.5219609737396	fix_pre	0		120	73.0	2.5	/experiments/AOT/AOT_stimuli/rescaled_final/0052_rv.mp4	0.0	656.0380969047546	0.9998819828033447
75	635.0977559089661	pulse	0	t		73.0	2.5	/experiments/AOT/AOT_stimuli/rescaled_final/0052_rv.mp4	0.0	656.6138918399811	
75	635.521842956543	movie	1		243	73.0	2.5	/experiments/AOT/AOT_stimuli/rescaled_final/0052_rv.mp4	0.0	657.037978887558	2.500067949295044
75	636.7054588794708	pulse	1	t		73.0	2.5	/experiments/AOT/AOT_stimuli/rescaled_final/0052_rv.mp4	0.0	658.2215948104858	
75	638.021910905838	fix_post	2		12	73.0	2.5	/experiments/AOT/AOT_stimuli/rescaled_final/0052_rv.mp4	0.0	659.538046836853	0.10000014305114746
76	638.1219110488892	fix_pre	0		120	74.0	2.5	/experiments/AOT/AOT_stimuli/rescaled_final/1446_rv.mp4	0.0	659.6380469799042	0.9999618530273438
76	638.2970640659332	pulse	0	t		74.0	2.5	/experiments/AOT/AOT_stimuli/rescaled_final/1446_rv.mp4	0.0	659.8131999969482	
76	639.1218729019165	movie	1		243	74.0	2.5	/experiments/AOT/AOT_stimuli/rescaled_final/1446_rv.mp4	0.0	660.6380088329315	2.50016713142395
76	639.8974719047546	pulse	1	t		74.0	2.5	/experiments/AOT/AOT_stimuli/rescaled_final/1446_rv.mp4	0.0	661.4136078357697	
76	641.4970579147339	pulse	1	t		74.0	2.5	/experiments/AOT/AOT_stimuli/rescaled_final/1446_rv.mp4	0.0	663.0131938457489	
76	641.6220400333405	fix_post	2		12	74.0	2.5	/experiments/AOT/AOT_stimuli/rescaled_final/1446_rv.mp4	0.0	663.1381759643555	0.0999610424041748
77	641.7220010757446	fix_pre	0		120	75.0	2.5	/experiments/AOT/AOT_stimuli/rescaled_final/0712_rv.mp4	0.0	663.2381370067596	0.9998078346252441
77	642.7218089103699	movie	1		245	75.0	2.5	/experiments/AOT/AOT_stimuli/rescaled_final/0712_rv.mp4	0.0	664.2379448413849	2.500051975250244
77	643.0969240665436	pulse	1	t		75.0	2.5	/experiments/AOT/AOT_stimuli/rescaled_final/0712_rv.mp4	0.0	664.6130599975586	
77	644.6970930099487	pulse	1	t		75.0	2.5	/experiments/AOT/AOT_stimuli/rescaled_final/0712_rv.mp4	0.0	666.2132289409637	
77	645.2218608856201	fix_post	2		12	75.0	2.5	/experiments/AOT/AOT_stimuli/rescaled_final/0712_rv.mp4	0.0	666.7379968166351	0.09998512268066406
78	645.3218460083008	fix_pre	0		118	76.0	2.5	/experiments/AOT/AOT_stimuli/rescaled_final/0247_fw.mp4	0.0	666.8379819393158	0.9833118915557861
78	646.2969989776611	pulse	0	t		76.0	2.5	/experiments/AOT/AOT_stimuli/rescaled_final/0247_fw.mp4	0.0	667.8131349086761	
78	646.3051578998566	movie	1		244	76.0	2.5	/experiments/AOT/AOT_stimuli/rescaled_final/0247_fw.mp4	0.0	667.8212938308716	2.508308172225952
78	647.905385017395	pulse	1	t		76.0	2.5	/experiments/AOT/AOT_stimuli/rescaled_final/0247_fw.mp4	0.0	669.42152094841	
78	648.8134660720825	fix_post	2		12	76.0	2.5	/experiments/AOT/AOT_stimuli/rescaled_final/0247_fw.mp4	0.0	670.3296020030975	0.09992289543151855
79	648.913388967514	fix_pre	0		120	77.0	2.5	blank	1.0	670.429524898529	1.0001420974731445
79	649.4977638721466	pulse	0	t		77.0	2.5	blank	1.0	671.0138998031616	
79	649.9135310649872	movie	1		300	77.0	2.5	blank	1.0	671.4296669960022	2.4999349117279053
79	651.097718000412	pulse	1	t		77.0	2.5	blank	1.0	672.613853931427	
79	652.4134659767151	fix_post	2		12	77.0	2.5	blank	1.0	673.9296019077301	0.10005593299865723
80	652.5135219097137	fix_pre	0		120	78.0	2.5	/experiments/AOT/AOT_stimuli/rescaled_final/1357_fw.mp4	0.0	674.0296578407288	0.9999401569366455
80	652.6977119445801	pulse	0	t		78.0	2.5	/experiments/AOT/AOT_stimuli/rescaled_final/1357_fw.mp4	0.0	674.2138478755951	
80	653.5134620666504	movie	1		245	78.0	2.5	/experiments/AOT/AOT_stimuli/rescaled_final/1357_fw.mp4	0.0	675.0295979976654	2.5000569820404053
80	654.2968709468842	pulse	1	t		78.0	2.5	/experiments/AOT/AOT_stimuli/rescaled_final/1357_fw.mp4	0.0	675.8130068778992	
80	655.9054880142212	pulse	1	t		78.0	2.5	/experiments/AOT/AOT_stimuli/rescaled_final/1357_fw.mp4	0.0	677.4216239452362	
80	656.0135190486908	fix_post	2		12	78.0	2.5	/experiments/AOT/AOT_stimuli/rescaled_final/1357_fw.mp4	0.0	677.5296549797058	0.09993386268615723
81	656.113452911377	fix_pre	0		120	79.0	2.5	/experiments/AOT/AOT_stimuli/rescaled_final/0045_rv.mp4	0.0	677.629588842392	1.0001661777496338
81	657.1136190891266	movie	1		242	79.0	2.5	/experiments/AOT/AOT_stimuli/rescaled_final/0045_rv.mp4	0.0	678.6297550201416	2.4998347759246826
81	657.5053238868713	pulse	1	t		79.0	2.5	/experiments/AOT/AOT_stimuli/rescaled_final/0045_rv.mp4	0.0	679.0214598178864	
81	659.0968508720398	pulse	1	t		79.0	2.5	/experiments/AOT/AOT_stimuli/rescaled_final/0045_rv.mp4	0.0	680.6129868030548	
81	659.6134538650513	fix_post	2		12	79.0	2.5	/experiments/AOT/AOT_stimuli/rescaled_final/0045_rv.mp4	0.0	681.1295897960663	0.10001802444458008
82	659.7134718894958	fix_pre	0		119	80.0	2.5	/experiments/AOT/AOT_stimuli/rescaled_final/1469_rv.mp4	0.0	681.2296078205109	0.9916691780090332
82	660.6968529224396	pulse	0	t		80.0	2.5	/experiments/AOT/AOT_stimuli/rescaled_final/1469_rv.mp4	0.0	682.2129888534546	
82	660.7051410675049	movie	1		244	80.0	2.5	/experiments/AOT/AOT_stimuli/rescaled_final/1469_rv.mp4	0.0	682.2212769985199	2.5084068775177
82	662.2980270385742	pulse	1	t		80.0	2.5	/experiments/AOT/AOT_stimuli/rescaled_final/1469_rv.mp4	0.0	683.8141629695892	
82	663.2135479450226	fix_post	2		12	80.0	2.5	/experiments/AOT/AOT_stimuli/rescaled_final/1469_rv.mp4	0.0	684.7296838760376	0.09989595413208008
83	663.3134438991547	fix_pre	0		120	81.0	2.5	/experiments/AOT/AOT_stimuli/rescaled_final/1240_fw.mp4	0.0	684.8295798301697	1.0000531673431396
83	663.8977229595184	pulse	0	t		81.0	2.5	/experiments/AOT/AOT_stimuli/rescaled_final/1240_fw.mp4	0.0	685.4138588905334	
83	664.3134970664978	movie	1		244	81.0	2.5	/experiments/AOT/AOT_stimuli/rescaled_final/1240_fw.mp4	0.0	685.8296329975128	2.4998538494110107
83	665.4979140758514	pulse	1	t		81.0	2.5	/experiments/AOT/AOT_stimuli/rescaled_final/1240_fw.mp4	0.0	687.0140500068665	
83	666.8133509159088	fix_post	2		12	81.0	2.5	/experiments/AOT/AOT_stimuli/rescaled_final/1240_fw.mp4	0.0	688.3294868469238	0.10005712509155273
84	666.9134080410004	fix_pre	0		120	82.0	2.5	blank	1.0	688.4295439720154	1.000053882598877
84	667.0977330207825	pulse	0	t		82.0	2.5	blank	1.0	688.6138689517975	
84	667.9134619235992	movie	1		300	82.0	2.5	blank	1.0	689.4295978546143	2.4999899864196777
84	668.6978120803833	pulse	1	t		82.0	2.5	blank	1.0	690.2139480113983	
84	670.2976489067078	pulse	1	t		82.0	2.5	blank	1.0	691.8137848377228	
84	670.4134519100189	fix_post	2		12	82.0	2.5	blank	1.0	691.9295878410339	0.09996604919433594
85	670.5134179592133	fix_pre	0		120	83.0	2.5	/experiments/AOT/AOT_stimuli/rescaled_final/1602_rv.mp4	0.0	692.0295538902283	0.9999959468841553
85	671.5134139060974	movie	1		244	83.0	2.5	/experiments/AOT/AOT_stimuli/rescaled_final/1602_rv.mp4	0.0	693.0295498371124	2.5000181198120117
85	671.9052560329437	pulse	1	t		83.0	2.5	/experiments/AOT/AOT_stimuli/rescaled_final/1602_rv.mp4	0.0	693.4213919639587	
85	673.4969389438629	pulse	1	t		83.0	2.5	/experiments/AOT/AOT_stimuli/rescaled_final/1602_rv.mp4	0.0	695.0130748748779	
85	674.0134320259094	fix_post	2		12	83.0	2.5	/experiments/AOT/AOT_stimuli/rescaled_final/1602_rv.mp4	0.0	695.5295679569244	0.10003399848937988
87	674.1134660243988	stim	0		1716					695.6296019554138	14.299897909164429
87	675.0969080924988	pulse	0	t						696.6130440235138	
87	676.6968579292297	pulse	0	t						698.2129938602448	
87	678.2968370914459	pulse	0	t						699.8129730224609	
87	679.897784948349	pulse	0	t						701.413920879364	
87	681.4977948665619	pulse	0	t						703.0139307975769	
87	683.0977549552917	pulse	0	t						704.6138908863068	
87	684.6977310180664	pulse	0	t						706.2138669490814	
87	686.297721862793	pulse	0	t						707.813857793808	
87	687.8968200683594	pulse	0	t						709.4129559993744	
