trial_nr	onset	event_type	phase	response	nr_frames	movie_index	movie_duration	movie_file	blank	onset_abs	duration
0	0.15784502029418945	stim	0		38					19.684016942977905	0.3170168399810791
0	0.46691083908081055	response	0	space						19.993082761764526	
1	0.47486186027526855	stim	0		13602					20.001033782958984	113.3493959903717
1	113.81383895874023	pulse	0	t						133.34001088142395	
1	113.82425785064697	stim	1		1717					133.3504297733307	14.308362007141113
1	115.40877389907837	pulse	1	t						134.93494582176208	
1	117.01612281799316	pulse	1	t						136.54229474067688	
1	118.61612391471863	pulse	1	t						138.14229583740234	
1	120.216068983078	pulse	1	t						139.74224090576172	
1	121.81615996360779	pulse	1	t						141.3423318862915	
1	123.41601300239563	pulse	1	t						142.94218492507935	
1	125.0085289478302	pulse	1	t						144.53470087051392	
1	126.60848689079285	pulse	1	t						146.13465881347656	
2	128.1326198577881	fix_pre	0		11	0.0	2.5	/experiments/AOT/AOT_stimuli/rescaled_final/1750_rv.mp4	0.0	147.6587917804718	0.09163713455200195
2	128.20870780944824	pulse	0	t		0.0	2.5	/experiments/AOT/AOT_stimuli/rescaled_final/1750_rv.mp4	0.0	147.73487973213196	
2	128.2242569923401	movie	1		244	0.0	2.5	/experiments/AOT/AOT_stimuli/rescaled_final/1750_rv.mp4	0.0	147.7504289150238	2.5082879066467285
2	129.81558203697205	pulse	1	t		0.0	2.5	/experiments/AOT/AOT_stimuli/rescaled_final/1750_rv.mp4	0.0	149.34175395965576	
2	130.73254489898682	fix_post	2		12	0.0	2.5	/experiments/AOT/AOT_stimuli/rescaled_final/1750_rv.mp4	0.0	150.25871682167053	0.0996091365814209
3	130.83215403556824	fix_pre	0		120	1.0	2.5	/experiments/AOT/AOT_stimuli/rescaled_final/2003_rv.mp4	0.0	150.35832595825195	1.000065803527832
3	131.40868592262268	pulse	0	t		1.0	2.5	/experiments/AOT/AOT_stimuli/rescaled_final/2003_rv.mp4	0.0	150.9348578453064	
3	131.83221983909607	movie	1		244	1.0	2.5	/experiments/AOT/AOT_stimuli/rescaled_final/2003_rv.mp4	0.0	151.35839176177979	2.5002541542053223
3	133.01581692695618	pulse	1	t		1.0	2.5	/experiments/AOT/AOT_stimuli/rescaled_final/2003_rv.mp4	0.0	152.5419888496399	
3	134.3324739933014	fix_post	2		12	1.0	2.5	/experiments/AOT/AOT_stimuli/rescaled_final/2003_rv.mp4	0.0	153.8586459159851	0.10003399848937988
4	134.43250799179077	fix_pre	0		120	2.0	2.5	/experiments/AOT/AOT_stimuli/rescaled_final/0726_rv.mp4	0.0	153.9586799144745	0.9996309280395508
4	134.6160638332367	pulse	0	t		2.0	2.5	/experiments/AOT/AOT_stimuli/rescaled_final/0726_rv.mp4	0.0	154.1422357559204	
4	135.43213891983032	movie	1		248	2.0	2.5	/experiments/AOT/AOT_stimuli/rescaled_final/0726_rv.mp4	0.0	154.95831084251404	2.5004889965057373
4	136.2159538269043	pulse	1	t		2.0	2.5	/experiments/AOT/AOT_stimuli/rescaled_final/0726_rv.mp4	0.0	155.742125749588	
4	137.81558990478516	pulse	1	t		2.0	2.5	/experiments/AOT/AOT_stimuli/rescaled_final/0726_rv.mp4	0.0	157.34176182746887	
4	137.93262791633606	fix_post	2		12	2.0	2.5	/experiments/AOT/AOT_stimuli/rescaled_final/0726_rv.mp4	0.0	157.45879983901978	0.09984898567199707
5	138.03247690200806	fix_pre	0		120	3.0	2.5	/experiments/AOT/AOT_stimuli/rescaled_final/1876_rv.mp4	0.0	157.55864882469177	0.9996740818023682
5	139.03215098381042	movie	1		245	3.0	2.5	/experiments/AOT/AOT_stimuli/rescaled_final/1876_rv.mp4	0.0	158.55832290649414	2.5002968311309814
5	139.41621494293213	pulse	1	t		3.0	2.5	/experiments/AOT/AOT_stimuli/rescaled_final/1876_rv.mp4	0.0	158.94238686561584	
5	141.01596403121948	pulse	1	t		3.0	2.5	/experiments/AOT/AOT_stimuli/rescaled_final/1876_rv.mp4	0.0	160.5421359539032	
5	141.5324478149414	fix_post	2		12	3.0	2.5	/experiments/AOT/AOT_stimuli/rescaled_final/1876_rv.mp4	0.0	161.05861973762512	0.10007810592651367
6	141.63252592086792	fix_pre	0		119	4.0	2.5	/experiments/AOT/AOT_stimuli/rescaled_final/1485_fw.mp4	0.0	161.15869784355164	0.9917199611663818
6	142.61597180366516	pulse	0	t		4.0	2.5	/experiments/AOT/AOT_stimuli/rescaled_final/1485_fw.mp4	0.0	162.14214372634888	
6	142.6242458820343	movie	1		245	4.0	2.5	/experiments/AOT/AOT_stimuli/rescaled_final/1485_fw.mp4	0.0	162.15041780471802	2.5082931518554688
6	144.2158420085907	pulse	1	t		4.0	2.5	/experiments/AOT/AOT_stimuli/rescaled_final/1485_fw.mp4	0.0	163.7420139312744	
6	145.13253903388977	fix_post	2		12	4.0	2.5	/experiments/AOT/AOT_stimuli/rescaled_final/1485_fw.mp4	0.0	164.6587109565735	0.09994983673095703
7	145.23248887062073	fix_pre	0		120	5.0	2.5	/experiments/AOT/AOT_stimuli/rescaled_final/1096_fw.mp4	0.0	164.75866079330444	0.999981164932251
7	145.80842781066895	pulse	0	t		5.0	2.5	/experiments/AOT/AOT_stimuli/rescaled_final/1096_fw.mp4	0.0	165.33459973335266	
7	146.23247003555298	movie	1		244	5.0	2.5	/experiments/AOT/AOT_stimuli/rescaled_final/1096_fw.mp4	0.0	165.7586419582367	2.5000648498535156
7	147.4159939289093	pulse	1	t		5.0	2.5	/experiments/AOT/AOT_stimuli/rescaled_final/1096_fw.mp4	0.0	166.94216585159302	
7	148.7325348854065	fix_post	2		12	5.0	2.5	/experiments/AOT/AOT_stimuli/rescaled_final/1096_fw.mp4	0.0	168.2587068080902	0.099945068359375
8	148.83247995376587	fix_pre	0		120	6.0	2.5	/experiments/AOT/AOT_stimuli/rescaled_final/0264_fw.mp4	0.0	168.35865187644958	0.9999508857727051
8	149.0159888267517	pulse	0	t		6.0	2.5	/experiments/AOT/AOT_stimuli/rescaled_final/0264_fw.mp4	0.0	168.54216074943542	
8	149.83243083953857	movie	1		242	6.0	2.5	/experiments/AOT/AOT_stimuli/rescaled_final/0264_fw.mp4	0.0	169.3586027622223	2.500058174133301
8	150.61586093902588	pulse	1	t		6.0	2.5	/experiments/AOT/AOT_stimuli/rescaled_final/0264_fw.mp4	0.0	170.1420328617096	
8	152.21432495117188	pulse	1	t		6.0	2.5	/experiments/AOT/AOT_stimuli/rescaled_final/0264_fw.mp4	0.0	171.7404968738556	
8	152.33248901367188	fix_post	2		12	6.0	2.5	/experiments/AOT/AOT_stimuli/rescaled_final/0264_fw.mp4	0.0	171.8586609363556	0.09994888305664062
9	152.43243789672852	fix_pre	0		120	7.0	2.5	blank	1.0	171.95860981941223	1.0000829696655273
9	153.43252086639404	movie	1		300	7.0	2.5	blank	1.0	172.95869278907776	2.4999189376831055
9	153.8159499168396	pulse	1	t		7.0	2.5	blank	1.0	173.34212183952332	
9	155.41598796844482	pulse	1	t		7.0	2.5	blank	1.0	174.94215989112854	
9	155.93243980407715	fix_post	2		12	7.0	2.5	blank	1.0	175.45861172676086	0.1000370979309082
10	156.03247690200806	fix_pre	0		119	8.0	2.5	/experiments/AOT/AOT_stimuli/rescaled_final/1904_fw.mp4	0.0	175.55864882469177	0.9916019439697266
10	157.0158929824829	pulse	0	t		8.0	2.5	/experiments/AOT/AOT_stimuli/rescaled_final/1904_fw.mp4	0.0	176.54206490516663	
10	157.02407884597778	movie	1		246	8.0	2.5	/experiments/AOT/AOT_stimuli/rescaled_final/1904_fw.mp4	0.0	176.5502507686615	2.5083391666412354
10	158.61541199684143	pulse	1	t		8.0	2.5	/experiments/AOT/AOT_stimuli/rescaled_final/1904_fw.mp4	0.0	178.14158391952515	
10	159.53241801261902	fix_post	2		12	8.0	2.5	/experiments/AOT/AOT_stimuli/rescaled_final/1904_fw.mp4	0.0	179.05858993530273	0.09999680519104004
11	159.63241481781006	fix_pre	0		120	9.0	2.5	/experiments/AOT/AOT_stimuli/rescaled_final/0065_fw.mp4	0.0	179.15858674049377	1.000042200088501
11	160.21582102775574	pulse	0	t		9.0	2.5	/experiments/AOT/AOT_stimuli/rescaled_final/0065_fw.mp4	0.0	179.74199295043945	
11	160.63245701789856	movie	1		244	9.0	2.5	/experiments/AOT/AOT_stimuli/rescaled_final/0065_fw.mp4	0.0	180.15862894058228	2.499574899673462
11	161.81600189208984	pulse	1	t		9.0	2.5	/experiments/AOT/AOT_stimuli/rescaled_final/0065_fw.mp4	0.0	181.34217381477356	
11	163.13203191757202	fix_post	2		12	9.0	2.5	/experiments/AOT/AOT_stimuli/rescaled_final/0065_fw.mp4	0.0	182.65820384025574	0.1003420352935791
12	163.2323739528656	fix_pre	0		120	10.0	2.5	/experiments/AOT/AOT_stimuli/rescaled_final/1614_rv.mp4	0.0	182.75854587554932	1.0001120567321777
12	163.4084508419037	pulse	0	t		10.0	2.5	/experiments/AOT/AOT_stimuli/rescaled_final/1614_rv.mp4	0.0	182.9346227645874	
12	164.23248600959778	movie	1		246	10.0	2.5	/experiments/AOT/AOT_stimuli/rescaled_final/1614_rv.mp4	0.0	183.7586579322815	2.4998939037323
12	165.01593494415283	pulse	1	t		10.0	2.5	/experiments/AOT/AOT_stimuli/rescaled_final/1614_rv.mp4	0.0	184.54210686683655	
12	166.6148488521576	pulse	1	t		10.0	2.5	/experiments/AOT/AOT_stimuli/rescaled_final/1614_rv.mp4	0.0	186.1410207748413	
12	166.73237991333008	fix_post	2		12	10.0	2.5	/experiments/AOT/AOT_stimuli/rescaled_final/1614_rv.mp4	0.0	186.2585518360138	0.10000801086425781
13	166.83238792419434	fix_pre	0		120	11.0	2.5	/experiments/AOT/AOT_stimuli/rescaled_final/1442_rv.mp4	0.0	186.35855984687805	0.9999380111694336
13	167.83232593536377	movie	1		243	11.0	2.5	/experiments/AOT/AOT_stimuli/rescaled_final/1442_rv.mp4	0.0	187.35849785804749	2.50006103515625
13	168.21529293060303	pulse	1	t		11.0	2.5	/experiments/AOT/AOT_stimuli/rescaled_final/1442_rv.mp4	0.0	187.74146485328674	
13	169.81586289405823	pulse	1	t		11.0	2.5	/experiments/AOT/AOT_stimuli/rescaled_final/1442_rv.mp4	0.0	189.34203481674194	
13	170.33238697052002	fix_post	2		12	11.0	2.5	/experiments/AOT/AOT_stimuli/rescaled_final/1442_rv.mp4	0.0	189.85855889320374	0.09988903999328613
14	170.4322760105133	fix_pre	0		119	12.0	2.5	blank	1.0	189.95844793319702	0.9917190074920654
14	171.41587495803833	pulse	0	t		12.0	2.5	blank	1.0	190.94204688072205	
14	171.42399501800537	movie	1		301	12.0	2.5	blank	1.0	190.9501669406891	2.5083298683166504
14	173.0158908367157	pulse	1	t		12.0	2.5	blank	1.0	192.5420627593994	
14	173.93232488632202	fix_post	2		12	12.0	2.5	blank	1.0	193.45849680900574	0.09994697570800781
15	174.03227186203003	fix_pre	0		120	13.0	2.5	/experiments/AOT/AOT_stimuli/rescaled_final/1615_fw.mp4	0.0	193.55844378471375	0.9999940395355225
15	174.61590600013733	pulse	0	t		13.0	2.5	/experiments/AOT/AOT_stimuli/rescaled_final/1615_fw.mp4	0.0	194.14207792282104	
15	175.03226590156555	movie	1		245	13.0	2.5	/experiments/AOT/AOT_stimuli/rescaled_final/1615_fw.mp4	0.0	194.55843782424927	2.5000009536743164
15	176.2158648967743	pulse	1	t		13.0	2.5	/experiments/AOT/AOT_stimuli/rescaled_final/1615_fw.mp4	0.0	195.742036819458	
15	177.53226685523987	fix_post	2		12	13.0	2.5	/experiments/AOT/AOT_stimuli/rescaled_final/1615_fw.mp4	0.0	197.05843877792358	0.10000300407409668
16	177.63226985931396	fix_pre	0		120	14.0	2.5	/experiments/AOT/AOT_stimuli/rescaled_final/0779_fw.mp4	0.0	197.15844178199768	1.000054121017456
16	177.81592202186584	pulse	0	t		14.0	2.5	/experiments/AOT/AOT_stimuli/rescaled_final/0779_fw.mp4	0.0	197.34209394454956	
16	178.63232398033142	movie	1		245	14.0	2.5	/experiments/AOT/AOT_stimuli/rescaled_final/0779_fw.mp4	0.0	198.15849590301514	2.4999639987945557
16	179.4090039730072	pulse	1	t		14.0	2.5	/experiments/AOT/AOT_stimuli/rescaled_final/0779_fw.mp4	0.0	198.93517589569092	
16	181.0119559764862	pulse	1	t		14.0	2.5	/experiments/AOT/AOT_stimuli/rescaled_final/0779_fw.mp4	0.0	200.53812789916992	
16	181.13228797912598	fix_post	2		12	14.0	2.5	/experiments/AOT/AOT_stimuli/rescaled_final/0779_fw.mp4	0.0	200.6584599018097	0.10002994537353516
17	181.2323179244995	fix_pre	0		120	15.0	2.5	/experiments/AOT/AOT_stimuli/rescaled_final/0003_rv.mp4	0.0	200.75848984718323	0.9999649524688721
17	182.23228287696838	movie	1		244	15.0	2.5	/experiments/AOT/AOT_stimuli/rescaled_final/0003_rv.mp4	0.0	201.7584547996521	2.5000250339508057
17	182.61509799957275	pulse	1	t		15.0	2.5	/experiments/AOT/AOT_stimuli/rescaled_final/0003_rv.mp4	0.0	202.14126992225647	
17	184.21563982963562	pulse	1	t		15.0	2.5	/experiments/AOT/AOT_stimuli/rescaled_final/0003_rv.mp4	0.0	203.74181175231934	
17	184.7323079109192	fix_post	2		12	15.0	2.5	/experiments/AOT/AOT_stimuli/rescaled_final/0003_rv.mp4	0.0	204.2584798336029	0.10001397132873535
18	184.83232188224792	fix_pre	0		119	16.0	2.5	/experiments/AOT/AOT_stimuli/rescaled_final/1436_rv.mp4	0.0	204.35849380493164	0.9916501045227051
18	185.81576585769653	pulse	0	t		16.0	2.5	/experiments/AOT/AOT_stimuli/rescaled_final/1436_rv.mp4	0.0	205.34193778038025	
18	185.82397198677063	movie	1		246	16.0	2.5	/experiments/AOT/AOT_stimuli/rescaled_final/1436_rv.mp4	0.0	205.35014390945435	2.5084118843078613
18	187.41482782363892	pulse	1	t		16.0	2.5	/experiments/AOT/AOT_stimuli/rescaled_final/1436_rv.mp4	0.0	206.94099974632263	
18	188.3323838710785	fix_post	2		12	16.0	2.5	/experiments/AOT/AOT_stimuli/rescaled_final/1436_rv.mp4	0.0	207.8585557937622	0.09995293617248535
19	188.43233680725098	fix_pre	0		120	17.0	2.5	/experiments/AOT/AOT_stimuli/rescaled_final/0971_rv.mp4	0.0	207.9585087299347	1.000216007232666
19	189.01612496376038	pulse	0	t		17.0	2.5	/experiments/AOT/AOT_stimuli/rescaled_final/0971_rv.mp4	0.0	208.5422968864441	
19	189.43255281448364	movie	1		245	17.0	2.5	/experiments/AOT/AOT_stimuli/rescaled_final/0971_rv.mp4	0.0	208.95872473716736	2.4997119903564453
19	190.61581182479858	pulse	1	t		17.0	2.5	/experiments/AOT/AOT_stimuli/rescaled_final/0971_rv.mp4	0.0	210.1419837474823	
19	191.9322648048401	fix_post	2		12	17.0	2.5	/experiments/AOT/AOT_stimuli/rescaled_final/0971_rv.mp4	0.0	211.4584367275238	0.09996819496154785
20	192.03223299980164	fix_pre	0		120	18.0	2.5	/experiments/AOT/AOT_stimuli/rescaled_final/0480_fw.mp4	0.0	211.55840492248535	1.0000278949737549
20	192.21579790115356	pulse	0	t		18.0	2.5	/experiments/AOT/AOT_stimuli/rescaled_final/0480_fw.mp4	0.0	211.74196982383728	
20	193.0322608947754	movie	1		244	18.0	2.5	/experiments/AOT/AOT_stimuli/rescaled_final/0480_fw.mp4	0.0	212.5584328174591	2.4995861053466797
20	193.8156979084015	pulse	1	t		18.0	2.5	/experiments/AOT/AOT_stimuli/rescaled_final/0480_fw.mp4	0.0	213.3418698310852	
20	195.41471886634827	pulse	1	t		18.0	2.5	/experiments/AOT/AOT_stimuli/rescaled_final/0480_fw.mp4	0.0	214.94089078903198	
20	195.53184700012207	fix_post	2		12	18.0	2.5	/experiments/AOT/AOT_stimuli/rescaled_final/0480_fw.mp4	0.0	215.0580189228058	0.10031795501708984
21	195.63216495513916	fix_pre	0		120	19.0	2.5	blank	1.0	215.15833687782288	1.0000910758972168
21	196.63225603103638	movie	1		300	19.0	2.5	blank	1.0	216.1584279537201	2.4999067783355713
21	197.0158839225769	pulse	1	t		19.0	2.5	blank	1.0	216.54205584526062	
21	198.6156120300293	pulse	1	t		19.0	2.5	blank	1.0	218.141783952713	
21	199.13216280937195	fix_post	2		12	19.0	2.5	blank	1.0	218.65833473205566	0.10002517700195312
22	199.2321879863739	fix_pre	0		119	20.0	2.5	/experiments/AOT/AOT_stimuli/rescaled_final/1358_rv.mp4	0.0	218.75835990905762	0.9916930198669434
22	200.21569180488586	pulse	0	t		20.0	2.5	/experiments/AOT/AOT_stimuli/rescaled_final/1358_rv.mp4	0.0	219.74186372756958	
22	200.22388100624084	movie	1		246	20.0	2.5	/experiments/AOT/AOT_stimuli/rescaled_final/1358_rv.mp4	0.0	219.75005292892456	2.5083208084106445
22	201.81524991989136	pulse	1	t		20.0	2.5	/experiments/AOT/AOT_stimuli/rescaled_final/1358_rv.mp4	0.0	221.34142184257507	
22	202.7322018146515	fix_post	2		12	20.0	2.5	/experiments/AOT/AOT_stimuli/rescaled_final/1358_rv.mp4	0.0	222.2583737373352	0.09998202323913574
23	202.83218383789062	fix_pre	0		120	21.0	2.5	/experiments/AOT/AOT_stimuli/rescaled_final/0961_fw.mp4	0.0	222.35835576057434	1.0000240802764893
23	203.41569781303406	pulse	0	t		21.0	2.5	/experiments/AOT/AOT_stimuli/rescaled_final/0961_fw.mp4	0.0	222.94186973571777	
23	203.83220791816711	movie	1		244	21.0	2.5	/experiments/AOT/AOT_stimuli/rescaled_final/0961_fw.mp4	0.0	223.35837984085083	2.5000178813934326
23	205.01573300361633	pulse	1	t		21.0	2.5	/experiments/AOT/AOT_stimuli/rescaled_final/0961_fw.mp4	0.0	224.54190492630005	
23	206.33222579956055	fix_post	2		12	21.0	2.5	/experiments/AOT/AOT_stimuli/rescaled_final/0961_fw.mp4	0.0	225.85839772224426	0.09994316101074219
24	206.4321689605713	fix_pre	0		120	22.0	2.5	/experiments/AOT/AOT_stimuli/rescaled_final/0565_fw.mp4	0.0	225.958340883255	1.0001108646392822
24	206.61568999290466	pulse	0	t		22.0	2.5	/experiments/AOT/AOT_stimuli/rescaled_final/0565_fw.mp4	0.0	226.14186191558838	
24	207.43227982521057	movie	1		243	22.0	2.5	/experiments/AOT/AOT_stimuli/rescaled_final/0565_fw.mp4	0.0	226.9584517478943	2.4998960494995117
24	208.21572184562683	pulse	1	t		22.0	2.5	/experiments/AOT/AOT_stimuli/rescaled_final/0565_fw.mp4	0.0	227.74189376831055	
24	209.81409192085266	pulse	1	t		22.0	2.5	/experiments/AOT/AOT_stimuli/rescaled_final/0565_fw.mp4	0.0	229.34026384353638	
24	209.93217587471008	fix_post	2		12	22.0	2.5	/experiments/AOT/AOT_stimuli/rescaled_final/0565_fw.mp4	0.0	229.4583477973938	0.09998512268066406
25	210.03216099739075	fix_pre	0		120	23.0	2.5	/experiments/AOT/AOT_stimuli/rescaled_final/0433_fw.mp4	0.0	229.55833292007446	1.0000369548797607
25	211.0321979522705	movie	1		244	23.0	2.5	/experiments/AOT/AOT_stimuli/rescaled_final/0433_fw.mp4	0.0	230.55836987495422	2.4998929500579834
25	211.41544389724731	pulse	1	t		23.0	2.5	/experiments/AOT/AOT_stimuli/rescaled_final/0433_fw.mp4	0.0	230.94161581993103	
25	213.0156488418579	pulse	1	t		23.0	2.5	/experiments/AOT/AOT_stimuli/rescaled_final/0433_fw.mp4	0.0	232.54182076454163	
25	213.5320909023285	fix_post	2		12	23.0	2.5	/experiments/AOT/AOT_stimuli/rescaled_final/0433_fw.mp4	0.0	233.0582628250122	0.10004210472106934
26	213.63213300704956	fix_pre	0		119	24.0	2.5	/experiments/AOT/AOT_stimuli/rescaled_final/0786_fw.mp4	0.0	233.15830492973328	0.9915900230407715
26	214.61568593978882	pulse	0	t		24.0	2.5	/experiments/AOT/AOT_stimuli/rescaled_final/0786_fw.mp4	0.0	234.14185786247253	
26	214.62372303009033	movie	1		245	24.0	2.5	/experiments/AOT/AOT_stimuli/rescaled_final/0786_fw.mp4	0.0	234.14989495277405	2.5084187984466553
26	216.21515703201294	pulse	1	t		24.0	2.5	/experiments/AOT/AOT_stimuli/rescaled_final/0786_fw.mp4	0.0	235.74132895469666	
26	217.132141828537	fix_post	2		12	24.0	2.5	/experiments/AOT/AOT_stimuli/rescaled_final/0786_fw.mp4	0.0	236.6583137512207	0.10005497932434082
27	217.23219680786133	fix_pre	0		120	25.0	2.5	/experiments/AOT/AOT_stimuli/rescaled_final/0832_fw.mp4	0.0	236.75836873054504	0.9999210834503174
27	217.81563687324524	pulse	0	t		25.0	2.5	/experiments/AOT/AOT_stimuli/rescaled_final/0832_fw.mp4	0.0	237.34180879592896	
27	218.23211789131165	movie	1		242	25.0	2.5	/experiments/AOT/AOT_stimuli/rescaled_final/0832_fw.mp4	0.0	237.75828981399536	2.5004360675811768
27	219.41569900512695	pulse	1	t		25.0	2.5	/experiments/AOT/AOT_stimuli/rescaled_final/0832_fw.mp4	0.0	238.94187092781067	
27	220.73255395889282	fix_post	2		12	25.0	2.5	/experiments/AOT/AOT_stimuli/rescaled_final/0832_fw.mp4	0.0	240.25872588157654	0.0995490550994873
28	220.8321030139923	fix_pre	0		120	26.0	2.5	blank	1.0	240.35827493667603	0.9999759197235107
28	221.0156078338623	pulse	0	t		26.0	2.5	blank	1.0	240.54177975654602	
28	221.83207893371582	movie	1		300	26.0	2.5	blank	1.0	241.35825085639954	2.500077962875366
28	222.61556601524353	pulse	1	t		26.0	2.5	blank	1.0	242.14173793792725	
28	224.2155740261078	pulse	1	t		26.0	2.5	blank	1.0	243.7417459487915	
28	224.3321568965912	fix_post	2		12	26.0	2.5	blank	1.0	243.8583288192749	0.09999394416809082
29	224.43215084075928	fix_pre	0		120	27.0	2.5	/experiments/AOT/AOT_stimuli/rescaled_final/1442_fw.mp4	0.0	243.958322763443	0.9999921321868896
29	225.43214297294617	movie	1		245	27.0	2.5	/experiments/AOT/AOT_stimuli/rescaled_final/1442_fw.mp4	0.0	244.95831489562988	2.4999840259552
29	225.816987991333	pulse	1	t		27.0	2.5	/experiments/AOT/AOT_stimuli/rescaled_final/1442_fw.mp4	0.0	245.34315991401672	
29	227.41554880142212	pulse	1	t		27.0	2.5	/experiments/AOT/AOT_stimuli/rescaled_final/1442_fw.mp4	0.0	246.94172072410583	
29	227.93212699890137	fix_post	2		12	27.0	2.5	/experiments/AOT/AOT_stimuli/rescaled_final/1442_fw.mp4	0.0	247.45829892158508	0.09996390342712402
30	228.0320909023285	fix_pre	0		119	28.0	2.5	/experiments/AOT/AOT_stimuli/rescaled_final/1666_fw.mp4	0.0	247.5582628250122	0.9915881156921387
30	229.0155999660492	pulse	0	t		28.0	2.5	/experiments/AOT/AOT_stimuli/rescaled_final/1666_fw.mp4	0.0	248.5417718887329	
30	229.02367901802063	movie	1		246	28.0	2.5	/experiments/AOT/AOT_stimuli/rescaled_final/1666_fw.mp4	0.0	248.54985094070435	2.50833797454834
30	230.6152958869934	pulse	1	t		28.0	2.5	/experiments/AOT/AOT_stimuli/rescaled_final/1666_fw.mp4	0.0	250.14146780967712	
30	231.53201699256897	fix_post	2		12	28.0	2.5	/experiments/AOT/AOT_stimuli/rescaled_final/1666_fw.mp4	0.0	251.05818891525269	0.10003304481506348
31	231.63205003738403	fix_pre	0		120	29.0	2.5	/experiments/AOT/AOT_stimuli/rescaled_final/1381_rv.mp4	0.0	251.15822196006775	0.9995808601379395
31	232.21557784080505	pulse	0	t		29.0	2.5	/experiments/AOT/AOT_stimuli/rescaled_final/1381_rv.mp4	0.0	251.74174976348877	
31	232.63163089752197	movie	1		245	29.0	2.5	/experiments/AOT/AOT_stimuli/rescaled_final/1381_rv.mp4	0.0	252.1578028202057	2.500417947769165
31	233.81567192077637	pulse	1	t		29.0	2.5	/experiments/AOT/AOT_stimuli/rescaled_final/1381_rv.mp4	0.0	253.34184384346008	
31	235.13204884529114	fix_post	2		12	29.0	2.5	/experiments/AOT/AOT_stimuli/rescaled_final/1381_rv.mp4	0.0	254.65822076797485	0.100006103515625
32	235.23205494880676	fix_pre	0		120	30.0	2.5	/experiments/AOT/AOT_stimuli/rescaled_final/1682_fw.mp4	0.0	254.75822687149048	0.999993085861206
32	235.41554284095764	pulse	0	t		30.0	2.5	/experiments/AOT/AOT_stimuli/rescaled_final/1682_fw.mp4	0.0	254.94171476364136	
32	236.23204803466797	movie	1		244	30.0	2.5	/experiments/AOT/AOT_stimuli/rescaled_final/1682_fw.mp4	0.0	255.75821995735168	2.5000507831573486
32	237.01563596725464	pulse	1	t		30.0	2.5	/experiments/AOT/AOT_stimuli/rescaled_final/1682_fw.mp4	0.0	256.54180788993835	
32	238.61406183242798	pulse	1	t		30.0	2.5	/experiments/AOT/AOT_stimuli/rescaled_final/1682_fw.mp4	0.0	258.1402337551117	
32	238.73209881782532	fix_post	2		12	30.0	2.5	/experiments/AOT/AOT_stimuli/rescaled_final/1682_fw.mp4	0.0	258.25827074050903	0.09986209869384766
33	238.83196091651917	fix_pre	0		120	31.0	2.5	/experiments/AOT/AOT_stimuli/rescaled_final/1418_rv.mp4	0.0	258.3581328392029	1.0000720024108887
33	239.83203291893005	movie	1		244	31.0	2.5	/experiments/AOT/AOT_stimuli/rescaled_final/1418_rv.mp4	0.0	259.35820484161377	2.499588966369629
33	240.21511101722717	pulse	1	t		31.0	2.5	/experiments/AOT/AOT_stimuli/rescaled_final/1418_rv.mp4	0.0	259.7412829399109	
33	241.8155059814453	pulse	1	t		31.0	2.5	/experiments/AOT/AOT_stimuli/rescaled_final/1418_rv.mp4	0.0	261.341677904129	
33	242.33162188529968	fix_post	2		12	31.0	2.5	/experiments/AOT/AOT_stimuli/rescaled_final/1418_rv.mp4	0.0	261.8577938079834	0.10002398490905762
34	242.43164587020874	fix_pre	0		119	32.0	2.5	/experiments/AOT/AOT_stimuli/rescaled_final/1159_rv.mp4	0.0	261.95781779289246	0.9920580387115479
34	243.41511797904968	pulse	0	t		32.0	2.5	/experiments/AOT/AOT_stimuli/rescaled_final/1159_rv.mp4	0.0	262.9412899017334	
34	243.4237039089203	movie	1		245	32.0	2.5	/experiments/AOT/AOT_stimuli/rescaled_final/1159_rv.mp4	0.0	262.949875831604	2.508246898651123
34	245.01510095596313	pulse	1	t		32.0	2.5	/experiments/AOT/AOT_stimuli/rescaled_final/1159_rv.mp4	0.0	264.54127287864685	
34	245.9319508075714	fix_post	2		12	32.0	2.5	/experiments/AOT/AOT_stimuli/rescaled_final/1159_rv.mp4	0.0	265.4581227302551	0.10006904602050781
35	246.03201985359192	fix_pre	0		120	33.0	2.5	/experiments/AOT/AOT_stimuli/rescaled_final/0617_rv.mp4	0.0	265.55819177627563	0.9999830722808838
35	246.61554980278015	pulse	0	t		33.0	2.5	/experiments/AOT/AOT_stimuli/rescaled_final/0617_rv.mp4	0.0	266.14172172546387	
35	247.0320029258728	movie	1		243	33.0	2.5	/experiments/AOT/AOT_stimuli/rescaled_final/0617_rv.mp4	0.0	266.5581748485565	2.499980926513672
35	248.21554684638977	pulse	1	t		33.0	2.5	/experiments/AOT/AOT_stimuli/rescaled_final/0617_rv.mp4	0.0	267.7417187690735	
35	249.53198385238647	fix_post	2		12	33.0	2.5	/experiments/AOT/AOT_stimuli/rescaled_final/0617_rv.mp4	0.0	269.0581557750702	0.10001111030578613
36	249.63199496269226	fix_pre	0		120	34.0	2.5	blank	1.0	269.158166885376	0.9998819828033447
36	249.81555795669556	pulse	0	t		34.0	2.5	blank	1.0	269.3417298793793	
36	250.6318769454956	movie	1		300	34.0	2.5	blank	1.0	270.1580488681793	2.500066041946411
36	251.4154758453369	pulse	1	t		34.0	2.5	blank	1.0	270.94164776802063	
36	253.0154709815979	pulse	1	t		34.0	2.5	blank	1.0	272.5416429042816	
36	253.13194298744202	fix_post	2		12	34.0	2.5	blank	1.0	272.65811491012573	0.09997081756591797
37	253.23191380500793	fix_pre	0		120	35.0	2.5	/experiments/AOT/AOT_stimuli/rescaled_final/1027_fw.mp4	0.0	272.75808572769165	1.0000410079956055
37	254.23195481300354	movie	1		245	35.0	2.5	/experiments/AOT/AOT_stimuli/rescaled_final/1027_fw.mp4	0.0	273.75812673568726	2.4999501705169678
37	254.61488485336304	pulse	1	t		35.0	2.5	/experiments/AOT/AOT_stimuli/rescaled_final/1027_fw.mp4	0.0	274.14105677604675	
37	256.21543288230896	pulse	1	t		35.0	2.5	/experiments/AOT/AOT_stimuli/rescaled_final/1027_fw.mp4	0.0	275.7416048049927	
37	256.7319049835205	fix_post	2		12	35.0	2.5	/experiments/AOT/AOT_stimuli/rescaled_final/1027_fw.mp4	0.0	276.2580769062042	0.10004401206970215
38	256.8319489955902	fix_pre	0		119	36.0	2.5	/experiments/AOT/AOT_stimuli/rescaled_final/1021_fw.mp4	0.0	276.3581209182739	0.9917159080505371
38	257.8154208660126	pulse	0	t		36.0	2.5	/experiments/AOT/AOT_stimuli/rescaled_final/1021_fw.mp4	0.0	277.3415927886963	
38	257.82366490364075	movie	1		245	36.0	2.5	/experiments/AOT/AOT_stimuli/rescaled_final/1021_fw.mp4	0.0	277.34983682632446	2.5082828998565674
38	259.41529393196106	pulse	1	t		36.0	2.5	/experiments/AOT/AOT_stimuli/rescaled_final/1021_fw.mp4	0.0	278.9414658546448	
38	260.3319478034973	fix_post	2		12	36.0	2.5	/experiments/AOT/AOT_stimuli/rescaled_final/1021_fw.mp4	0.0	279.85811972618103	0.09997701644897461
39	260.4319248199463	fix_pre	0		120	37.0	2.5	/experiments/AOT/AOT_stimuli/rescaled_final/2070_fw.mp4	0.0	279.95809674263	1.0000619888305664
39	261.01535081863403	pulse	0	t		37.0	2.5	/experiments/AOT/AOT_stimuli/rescaled_final/2070_fw.mp4	0.0	280.54152274131775	
39	261.43198680877686	movie	1		244	37.0	2.5	/experiments/AOT/AOT_stimuli/rescaled_final/2070_fw.mp4	0.0	280.95815873146057	2.499488115310669
39	262.6154718399048	pulse	1	t		37.0	2.5	/experiments/AOT/AOT_stimuli/rescaled_final/2070_fw.mp4	0.0	282.1416437625885	
39	263.9314749240875	fix_post	2		12	37.0	2.5	/experiments/AOT/AOT_stimuli/rescaled_final/2070_fw.mp4	0.0	283.45764684677124	0.10047101974487305
40	264.0319459438324	fix_pre	0		120	38.0	2.5	/experiments/AOT/AOT_stimuli/rescaled_final/0963_fw.mp4	0.0	283.5581178665161	0.9999940395355225
40	264.21530294418335	pulse	0	t		38.0	2.5	/experiments/AOT/AOT_stimuli/rescaled_final/0963_fw.mp4	0.0	283.74147486686707	
40	265.0319399833679	movie	1		243	38.0	2.5	/experiments/AOT/AOT_stimuli/rescaled_final/0963_fw.mp4	0.0	284.55811190605164	2.4995269775390625
40	265.8153398036957	pulse	1	t		38.0	2.5	/experiments/AOT/AOT_stimuli/rescaled_final/0963_fw.mp4	0.0	285.3415117263794	
40	267.4137809276581	pulse	1	t		38.0	2.5	/experiments/AOT/AOT_stimuli/rescaled_final/0963_fw.mp4	0.0	286.9399528503418	
40	267.531466960907	fix_post	2		12	38.0	2.5	/experiments/AOT/AOT_stimuli/rescaled_final/0963_fw.mp4	0.0	287.0576388835907	0.10044193267822266
41	267.6319088935852	fix_pre	0		120	39.0	2.5	/experiments/AOT/AOT_stimuli/rescaled_final/0554_rv.mp4	0.0	287.1580808162689	0.9999840259552002
41	268.6318929195404	movie	1		243	39.0	2.5	/experiments/AOT/AOT_stimuli/rescaled_final/0554_rv.mp4	0.0	288.1580648422241	2.500053882598877
41	269.015389919281	pulse	1	t		39.0	2.5	/experiments/AOT/AOT_stimuli/rescaled_final/0554_rv.mp4	0.0	288.5415618419647	
41	270.61537289619446	pulse	1	t		39.0	2.5	/experiments/AOT/AOT_stimuli/rescaled_final/0554_rv.mp4	0.0	290.1415448188782	
41	271.1319468021393	fix_post	2		12	39.0	2.5	/experiments/AOT/AOT_stimuli/rescaled_final/0554_rv.mp4	0.0	290.658118724823	0.09989213943481445
42	271.2318389415741	fix_pre	0		119	40.0	2.5	/experiments/AOT/AOT_stimuli/rescaled_final/0657_rv.mp4	0.0	290.7580108642578	0.9916589260101318
42	272.21542096138	pulse	0	t		40.0	2.5	/experiments/AOT/AOT_stimuli/rescaled_final/0657_rv.mp4	0.0	291.7415928840637	
42	272.22349786758423	movie	1		244	40.0	2.5	/experiments/AOT/AOT_stimuli/rescaled_final/0657_rv.mp4	0.0	291.74966979026794	2.5084099769592285
42	273.8152279853821	pulse	1	t		40.0	2.5	/experiments/AOT/AOT_stimuli/rescaled_final/0657_rv.mp4	0.0	293.3413999080658	
42	274.73190784454346	fix_post	2		12	40.0	2.5	/experiments/AOT/AOT_stimuli/rescaled_final/0657_rv.mp4	0.0	294.2580797672272	0.09990715980529785
43	274.83181500434875	fix_pre	0		120	41.0	2.5	blank	1.0	294.35798692703247	0.9999668598175049
43	275.4153778553009	pulse	0	t		41.0	2.5	blank	1.0	294.9415497779846	
43	275.83178186416626	movie	1		300	41.0	2.5	blank	1.0	295.35795378685	2.5000619888305664
43	277.0153708457947	pulse	1	t		41.0	2.5	blank	1.0	296.5415427684784	
43	278.3318438529968	fix_post	2		12	41.0	2.5	blank	1.0	297.85801577568054	0.09999704360961914
44	278.43184089660645	fix_pre	0		120	42.0	2.5	/experiments/AOT/AOT_stimuli/rescaled_final/1740_fw.mp4	0.0	297.95801281929016	1.0000100135803223
44	278.6154749393463	pulse	0	t		42.0	2.5	/experiments/AOT/AOT_stimuli/rescaled_final/1740_fw.mp4	0.0	298.14164686203003	
44	279.43185091018677	movie	1		242	42.0	2.5	/experiments/AOT/AOT_stimuli/rescaled_final/1740_fw.mp4	0.0	298.9580228328705	2.5000529289245605
44	280.2153248786926	pulse	1	t		42.0	2.5	/experiments/AOT/AOT_stimuli/rescaled_final/1740_fw.mp4	0.0	299.74149680137634	
44	281.8138048648834	pulse	1	t		42.0	2.5	/experiments/AOT/AOT_stimuli/rescaled_final/1740_fw.mp4	0.0	301.33997678756714	
44	281.9319038391113	fix_post	2		12	42.0	2.5	/experiments/AOT/AOT_stimuli/rescaled_final/1740_fw.mp4	0.0	301.45807576179504	0.09994697570800781
45	282.03185081481934	fix_pre	0		120	43.0	2.5	/experiments/AOT/AOT_stimuli/rescaled_final/0264_fw.mp4	0.0	301.55802273750305	0.999582052230835
45	283.03143286705017	movie	1		243	43.0	2.5	/experiments/AOT/AOT_stimuli/rescaled_final/0264_fw.mp4	0.0	302.5576047897339	2.5004079341888428
45	283.41506695747375	pulse	1	t		43.0	2.5	/experiments/AOT/AOT_stimuli/rescaled_final/0264_fw.mp4	0.0	302.94123888015747	
45	285.0153479576111	pulse	1	t		43.0	2.5	/experiments/AOT/AOT_stimuli/rescaled_final/0264_fw.mp4	0.0	304.5415198802948	
45	285.531840801239	fix_post	2		12	43.0	2.5	/experiments/AOT/AOT_stimuli/rescaled_final/0264_fw.mp4	0.0	305.05801272392273	0.09992122650146484
46	285.6317620277405	fix_pre	0		119	44.0	2.5	/experiments/AOT/AOT_stimuli/rescaled_final/1417_rv.mp4	0.0	305.1579339504242	0.9916567802429199
46	286.6152639389038	pulse	0	t		44.0	2.5	/experiments/AOT/AOT_stimuli/rescaled_final/1417_rv.mp4	0.0	306.1414358615875	
46	286.6234188079834	movie	1		245	44.0	2.5	/experiments/AOT/AOT_stimuli/rescaled_final/1417_rv.mp4	0.0	306.1495907306671	2.508451223373413
46	288.2152328491211	pulse	1	t		44.0	2.5	/experiments/AOT/AOT_stimuli/rescaled_final/1417_rv.mp4	0.0	307.7414047718048	
46	289.1318700313568	fix_post	2		12	44.0	2.5	/experiments/AOT/AOT_stimuli/rescaled_final/1417_rv.mp4	0.0	308.6580419540405	0.09984993934631348
47	289.2317199707031	fix_pre	0		120	45.0	2.5	/experiments/AOT/AOT_stimuli/rescaled_final/1633_fw.mp4	0.0	308.75789189338684	1.0000660419464111
47	289.81524896621704	pulse	0	t		45.0	2.5	/experiments/AOT/AOT_stimuli/rescaled_final/1633_fw.mp4	0.0	309.34142088890076	
47	290.23178601264954	movie	1		244	45.0	2.5	/experiments/AOT/AOT_stimuli/rescaled_final/1633_fw.mp4	0.0	309.75795793533325	2.499964952468872
47	291.4154210090637	pulse	1	t		45.0	2.5	/experiments/AOT/AOT_stimuli/rescaled_final/1633_fw.mp4	0.0	310.94159293174744	
47	292.7317509651184	fix_post	2		12	45.0	2.5	/experiments/AOT/AOT_stimuli/rescaled_final/1633_fw.mp4	0.0	312.2579228878021	0.1000678539276123
48	292.831818819046	fix_pre	0		120	46.0	2.5	/experiments/AOT/AOT_stimuli/rescaled_final/0723_rv.mp4	0.0	312.35799074172974	0.9995410442352295
48	293.01535987854004	pulse	0	t		46.0	2.5	/experiments/AOT/AOT_stimuli/rescaled_final/0723_rv.mp4	0.0	312.54153180122375	
48	293.83135986328125	movie	1		245	46.0	2.5	/experiments/AOT/AOT_stimuli/rescaled_final/0723_rv.mp4	0.0	313.35753178596497	2.500399112701416
48	294.615247964859	pulse	1	t		46.0	2.5	/experiments/AOT/AOT_stimuli/rescaled_final/0723_rv.mp4	0.0	314.1414198875427	
48	296.2114279270172	pulse	1	t		46.0	2.5	/experiments/AOT/AOT_stimuli/rescaled_final/0723_rv.mp4	0.0	315.7375998497009	
48	296.33175897598267	fix_post	2		12	46.0	2.5	/experiments/AOT/AOT_stimuli/rescaled_final/0723_rv.mp4	0.0	315.8579308986664	0.09995603561401367
49	296.4317150115967	fix_pre	0		120	47.0	2.5	/experiments/AOT/AOT_stimuli/rescaled_final/0753_rv.mp4	0.0	315.9578869342804	1.0000529289245605
49	297.43176794052124	movie	1		247	47.0	2.5	/experiments/AOT/AOT_stimuli/rescaled_final/0753_rv.mp4	0.0	316.95793986320496	2.5000979900360107
49	297.81457781791687	pulse	1	t		47.0	2.5	/experiments/AOT/AOT_stimuli/rescaled_final/0753_rv.mp4	0.0	317.3407497406006	
49	299.4149580001831	pulse	1	t		47.0	2.5	/experiments/AOT/AOT_stimuli/rescaled_final/0753_rv.mp4	0.0	318.9411299228668	
49	299.93186593055725	fix_post	2		12	47.0	2.5	/experiments/AOT/AOT_stimuli/rescaled_final/0753_rv.mp4	0.0	319.45803785324097	0.10001492500305176
50	300.0318808555603	fix_pre	0		119	48.0	2.5	/experiments/AOT/AOT_stimuli/rescaled_final/0789_rv.mp4	0.0	319.558052778244	0.9913930892944336
50	301.0155189037323	pulse	0	t		48.0	2.5	/experiments/AOT/AOT_stimuli/rescaled_final/0789_rv.mp4	0.0	320.541690826416	
50	301.02327394485474	movie	1		247	48.0	2.5	/experiments/AOT/AOT_stimuli/rescaled_final/0789_rv.mp4	0.0	320.54944586753845	2.50849986076355
50	302.6148819923401	pulse	1	t		48.0	2.5	/experiments/AOT/AOT_stimuli/rescaled_final/0789_rv.mp4	0.0	322.1410539150238	
50	303.5317738056183	fix_post	2		12	48.0	2.5	/experiments/AOT/AOT_stimuli/rescaled_final/0789_rv.mp4	0.0	323.057945728302	0.0999760627746582
51	303.63174986839294	fix_pre	0		120	49.0	2.5	blank	1.0	323.15792179107666	0.9999411106109619
51	304.21520495414734	pulse	0	t		49.0	2.5	blank	1.0	323.74137687683105	
51	304.6316909790039	movie	1		300	49.0	2.5	blank	1.0	324.1578629016876	2.499579906463623
51	305.8152959346771	pulse	1	t		49.0	2.5	blank	1.0	325.34146785736084	
51	307.13127088546753	fix_post	2		12	49.0	2.5	blank	1.0	326.65744280815125	0.10044312477111816
52	307.23171401023865	fix_pre	0		120	50.0	2.5	/experiments/AOT/AOT_stimuli/rescaled_final/2111_rv.mp4	0.0	326.75788593292236	0.9999549388885498
52	307.41523599624634	pulse	0	t		50.0	2.5	/experiments/AOT/AOT_stimuli/rescaled_final/2111_rv.mp4	0.0	326.94140791893005	
52	308.2316689491272	movie	1		243	50.0	2.5	/experiments/AOT/AOT_stimuli/rescaled_final/2111_rv.mp4	0.0	327.7578408718109	2.499976873397827
52	309.01516795158386	pulse	1	t		50.0	2.5	/experiments/AOT/AOT_stimuli/rescaled_final/2111_rv.mp4	0.0	328.5413398742676	
52	310.6136939525604	pulse	1	t		50.0	2.5	/experiments/AOT/AOT_stimuli/rescaled_final/2111_rv.mp4	0.0	330.13986587524414	
52	310.731645822525	fix_post	2		12	50.0	2.5	/experiments/AOT/AOT_stimuli/rescaled_final/2111_rv.mp4	0.0	330.25781774520874	0.0999751091003418
53	310.83162093162537	fix_pre	0		120	51.0	2.5	/experiments/AOT/AOT_stimuli/rescaled_final/1534_rv.mp4	0.0	330.3577928543091	1.0000369548797607
53	311.8316578865051	movie	1		243	51.0	2.5	/experiments/AOT/AOT_stimuli/rescaled_final/1534_rv.mp4	0.0	331.35782980918884	2.499979019165039
53	312.21466302871704	pulse	1	t		51.0	2.5	/experiments/AOT/AOT_stimuli/rescaled_final/1534_rv.mp4	0.0	331.74083495140076	
53	313.81514596939087	pulse	1	t		51.0	2.5	/experiments/AOT/AOT_stimuli/rescaled_final/1534_rv.mp4	0.0	333.3413178920746	
53	314.33163690567017	fix_post	2		12	51.0	2.5	/experiments/AOT/AOT_stimuli/rescaled_final/1534_rv.mp4	0.0	333.8578088283539	0.09998011589050293
54	314.43161702156067	fix_pre	0		119	52.0	2.5	/experiments/AOT/AOT_stimuli/rescaled_final/2032_fw.mp4	0.0	333.9577889442444	0.9916977882385254
54	315.4151418209076	pulse	0	t		52.0	2.5	/experiments/AOT/AOT_stimuli/rescaled_final/2032_fw.mp4	0.0	334.9413137435913	
54	315.4233148097992	movie	1		246	52.0	2.5	/experiments/AOT/AOT_stimuli/rescaled_final/2032_fw.mp4	0.0	334.9494867324829	2.508397102355957
54	317.0151398181915	pulse	1	t		52.0	2.5	/experiments/AOT/AOT_stimuli/rescaled_final/2032_fw.mp4	0.0	336.54131174087524	
54	317.93171191215515	fix_post	2		12	52.0	2.5	/experiments/AOT/AOT_stimuli/rescaled_final/2032_fw.mp4	0.0	337.45788383483887	0.09998512268066406
55	318.0316970348358	fix_pre	0		120	53.0	2.5	/experiments/AOT/AOT_stimuli/rescaled_final/0843_rv.mp4	0.0	337.55786895751953	0.9995298385620117
55	318.61512184143066	pulse	0	t		53.0	2.5	/experiments/AOT/AOT_stimuli/rescaled_final/0843_rv.mp4	0.0	338.1412937641144	
55	319.0312268733978	movie	1		246	53.0	2.5	/experiments/AOT/AOT_stimuli/rescaled_final/0843_rv.mp4	0.0	338.55739879608154	2.4999570846557617
55	320.2151699066162	pulse	1	t		53.0	2.5	/experiments/AOT/AOT_stimuli/rescaled_final/0843_rv.mp4	0.0	339.7413418292999	
55	321.5311839580536	fix_post	2		12	53.0	2.5	/experiments/AOT/AOT_stimuli/rescaled_final/0843_rv.mp4	0.0	341.0573558807373	0.10037398338317871
56	321.63155794143677	fix_pre	0		120	54.0	2.5	/experiments/AOT/AOT_stimuli/rescaled_final/2066_fw.mp4	0.0	341.1577298641205	1.0000450611114502
56	321.81516289711	pulse	0	t		54.0	2.5	/experiments/AOT/AOT_stimuli/rescaled_final/2066_fw.mp4	0.0	341.3413348197937	
56	322.6316030025482	movie	1		244	54.0	2.5	/experiments/AOT/AOT_stimuli/rescaled_final/2066_fw.mp4	0.0	342.15777492523193	2.50002384185791
56	323.415079832077	pulse	1	t		54.0	2.5	/experiments/AOT/AOT_stimuli/rescaled_final/2066_fw.mp4	0.0	342.94125175476074	
56	325.01349401474	pulse	1	t		54.0	2.5	/experiments/AOT/AOT_stimuli/rescaled_final/2066_fw.mp4	0.0	344.5396659374237	
56	325.1316268444061	fix_post	2		12	54.0	2.5	/experiments/AOT/AOT_stimuli/rescaled_final/2066_fw.mp4	0.0	344.65779876708984	0.10001707077026367
57	325.2316439151764	fix_pre	0		120	55.0	2.5	/experiments/AOT/AOT_stimuli/rescaled_final/0782_fw.mp4	0.0	344.7578158378601	0.9999699592590332
57	326.2316138744354	movie	1		245	55.0	2.5	/experiments/AOT/AOT_stimuli/rescaled_final/0782_fw.mp4	0.0	345.75778579711914	2.4999310970306396
57	326.614825963974	pulse	1	t		55.0	2.5	/experiments/AOT/AOT_stimuli/rescaled_final/0782_fw.mp4	0.0	346.1409978866577	
57	328.21505403518677	pulse	1	t		55.0	2.5	/experiments/AOT/AOT_stimuli/rescaled_final/0782_fw.mp4	0.0	347.7412259578705	
57	328.73154497146606	fix_post	2		12	55.0	2.5	/experiments/AOT/AOT_stimuli/rescaled_final/0782_fw.mp4	0.0	348.2577168941498	0.10004401206970215
58	328.83158898353577	fix_pre	0		119	56.0	2.5	blank	1.0	348.3577609062195	0.9916799068450928
58	329.81502389907837	pulse	0	t		56.0	2.5	blank	1.0	349.3411958217621	
58	329.82326889038086	movie	1		301	56.0	2.5	blank	1.0	349.3494408130646	2.5083560943603516
58	331.4150779247284	pulse	1	t		56.0	2.5	blank	1.0	350.9412498474121	
58	332.3316249847412	fix_post	2		12	56.0	2.5	blank	1.0	351.8577969074249	0.09993100166320801
59	332.4315559864044	fix_pre	0		120	57.0	2.5	/experiments/AOT/AOT_stimuli/rescaled_final/0682_fw.mp4	0.0	351.95772790908813	1.0000510215759277
59	333.01510095596313	pulse	0	t		57.0	2.5	/experiments/AOT/AOT_stimuli/rescaled_final/0682_fw.mp4	0.0	352.54127287864685	
59	333.43160700798035	movie	1		244	57.0	2.5	/experiments/AOT/AOT_stimuli/rescaled_final/0682_fw.mp4	0.0	352.95777893066406	2.4994819164276123
59	334.61511993408203	pulse	1	t		57.0	2.5	/experiments/AOT/AOT_stimuli/rescaled_final/0682_fw.mp4	0.0	354.14129185676575	
59	335.93108892440796	fix_post	2		12	57.0	2.5	/experiments/AOT/AOT_stimuli/rescaled_final/0682_fw.mp4	0.0	355.4572608470917	0.10044598579406738
60	336.031534910202	fix_pre	0		120	58.0	2.5	/experiments/AOT/AOT_stimuli/rescaled_final/1358_rv.mp4	0.0	355.55770683288574	0.9999411106109619
60	336.21507501602173	pulse	0	t		58.0	2.5	/experiments/AOT/AOT_stimuli/rescaled_final/1358_rv.mp4	0.0	355.74124693870544	
60	337.031476020813	movie	1		243	58.0	2.5	/experiments/AOT/AOT_stimuli/rescaled_final/1358_rv.mp4	0.0	356.5576479434967	2.500108003616333
60	337.8150749206543	pulse	1	t		58.0	2.5	/experiments/AOT/AOT_stimuli/rescaled_final/1358_rv.mp4	0.0	357.341246843338	
60	339.41359782218933	pulse	1	t		58.0	2.5	/experiments/AOT/AOT_stimuli/rescaled_final/1358_rv.mp4	0.0	358.93976974487305	
60	339.5315840244293	fix_post	2		12	58.0	2.5	/experiments/AOT/AOT_stimuli/rescaled_final/1358_rv.mp4	0.0	359.05775594711304	0.10013985633850098
61	339.6317238807678	fix_pre	0		120	59.0	2.5	/experiments/AOT/AOT_stimuli/rescaled_final/0789_fw.mp4	0.0	359.15789580345154	0.9998481273651123
61	340.63157200813293	movie	1		246	59.0	2.5	/experiments/AOT/AOT_stimuli/rescaled_final/0789_fw.mp4	0.0	360.15774393081665	2.499614953994751
61	341.0161929130554	pulse	1	t		59.0	2.5	/experiments/AOT/AOT_stimuli/rescaled_final/0789_fw.mp4	0.0	360.54236483573914	
61	342.61502981185913	pulse	1	t		59.0	2.5	/experiments/AOT/AOT_stimuli/rescaled_final/0789_fw.mp4	0.0	362.14120173454285	
61	343.1311869621277	fix_post	2		12	59.0	2.5	/experiments/AOT/AOT_stimuli/rescaled_final/0789_fw.mp4	0.0	362.6573588848114	0.10040903091430664
62	343.231595993042	fix_pre	0		119	60.0	2.5	/experiments/AOT/AOT_stimuli/rescaled_final/0554_rv.mp4	0.0	362.7577679157257	0.9916369915008545
62	344.21501302719116	pulse	0	t		60.0	2.5	/experiments/AOT/AOT_stimuli/rescaled_final/0554_rv.mp4	0.0	363.7411849498749	
62	344.22323298454285	movie	1		245	60.0	2.5	/experiments/AOT/AOT_stimuli/rescaled_final/0554_rv.mp4	0.0	363.74940490722656	2.50833797454834
62	345.8148329257965	pulse	1	t		60.0	2.5	/experiments/AOT/AOT_stimuli/rescaled_final/0554_rv.mp4	0.0	365.3410048484802	
62	346.7315709590912	fix_post	2		12	60.0	2.5	/experiments/AOT/AOT_stimuli/rescaled_final/0554_rv.mp4	0.0	366.2577428817749	0.09999299049377441
63	346.83156394958496	fix_pre	0		120	61.0	2.5	blank	1.0	366.3577358722687	0.9999539852142334
63	347.4150278568268	pulse	0	t		61.0	2.5	blank	1.0	366.9411997795105	
63	347.8315179347992	movie	1		300	61.0	2.5	blank	1.0	367.3576898574829	2.4999380111694336
63	349.0150508880615	pulse	1	t		61.0	2.5	blank	1.0	368.54122281074524	
63	350.3314559459686	fix_post	2		12	61.0	2.5	blank	1.0	369.85762786865234	0.0999600887298584
64	350.4314160346985	fix_pre	0		120	62.0	2.5	/experiments/AOT/AOT_stimuli/rescaled_final/0605_rv.mp4	0.0	369.9575879573822	1.0002567768096924
64	350.61494398117065	pulse	0	t		62.0	2.5	/experiments/AOT/AOT_stimuli/rescaled_final/0605_rv.mp4	0.0	370.14111590385437	
64	351.4316728115082	movie	1		244	62.0	2.5	/experiments/AOT/AOT_stimuli/rescaled_final/0605_rv.mp4	0.0	370.9578447341919	2.499406099319458
64	352.21499586105347	pulse	1	t		62.0	2.5	/experiments/AOT/AOT_stimuli/rescaled_final/0605_rv.mp4	0.0	371.7411677837372	
64	353.8133590221405	pulse	1	t		62.0	2.5	/experiments/AOT/AOT_stimuli/rescaled_final/0605_rv.mp4	0.0	373.3395309448242	
64	353.93107891082764	fix_post	2		12	62.0	2.5	/experiments/AOT/AOT_stimuli/rescaled_final/0605_rv.mp4	0.0	373.45725083351135	0.10005497932434082
65	354.031133890152	fix_pre	0		120	63.0	2.5	/experiments/AOT/AOT_stimuli/rescaled_final/1298_rv.mp4	0.0	373.5573058128357	1.0000331401824951
65	355.0311670303345	movie	1		243	63.0	2.5	/experiments/AOT/AOT_stimuli/rescaled_final/1298_rv.mp4	0.0	374.5573389530182	2.500255823135376
65	355.4147388935089	pulse	1	t		63.0	2.5	/experiments/AOT/AOT_stimuli/rescaled_final/1298_rv.mp4	0.0	374.9409108161926	
65	357.01515197753906	pulse	1	t		63.0	2.5	/experiments/AOT/AOT_stimuli/rescaled_final/1298_rv.mp4	0.0	376.5413239002228	
65	357.53142285346985	fix_post	2		12	63.0	2.5	/experiments/AOT/AOT_stimuli/rescaled_final/1298_rv.mp4	0.0	377.05759477615356	0.10001611709594727
66	357.6314389705658	fix_pre	0		119	64.0	2.5	/experiments/AOT/AOT_stimuli/rescaled_final/2165_fw.mp4	0.0	377.1576108932495	0.9917888641357422
66	358.61502385139465	pulse	0	t		64.0	2.5	/experiments/AOT/AOT_stimuli/rescaled_final/2165_fw.mp4	0.0	378.14119577407837	
66	358.62322783470154	movie	1		245	64.0	2.5	/experiments/AOT/AOT_stimuli/rescaled_final/2165_fw.mp4	0.0	378.14939975738525	2.5081980228424072
66	360.2150938510895	pulse	1	t		64.0	2.5	/experiments/AOT/AOT_stimuli/rescaled_final/2165_fw.mp4	0.0	379.7412657737732	
66	361.13142585754395	fix_post	2		12	64.0	2.5	/experiments/AOT/AOT_stimuli/rescaled_final/2165_fw.mp4	0.0	380.65759778022766	0.10002303123474121
67	361.2314488887787	fix_pre	0		120	65.0	2.5	/experiments/AOT/AOT_stimuli/rescaled_final/0536_rv.mp4	0.0	380.7576208114624	0.9999849796295166
67	361.8150188922882	pulse	0	t		65.0	2.5	/experiments/AOT/AOT_stimuli/rescaled_final/0536_rv.mp4	0.0	381.3411908149719	
67	362.2314338684082	movie	1		246	65.0	2.5	/experiments/AOT/AOT_stimuli/rescaled_final/0536_rv.mp4	0.0	381.7576057910919	2.499994993209839
67	363.4149420261383	pulse	1	t		65.0	2.5	/experiments/AOT/AOT_stimuli/rescaled_final/0536_rv.mp4	0.0	382.941113948822	
67	364.73142886161804	fix_post	2		12	65.0	2.5	/experiments/AOT/AOT_stimuli/rescaled_final/0536_rv.mp4	0.0	384.25760078430176	0.09991312026977539
68	364.8313419818878	fix_pre	0		120	66.0	2.5	/experiments/AOT/AOT_stimuli/rescaled_final/0899_rv.mp4	0.0	384.35751390457153	1.000025987625122
68	365.0148718357086	pulse	0	t		66.0	2.5	/experiments/AOT/AOT_stimuli/rescaled_final/0899_rv.mp4	0.0	384.54104375839233	
68	365.83136796951294	movie	1		244	66.0	2.5	/experiments/AOT/AOT_stimuli/rescaled_final/0899_rv.mp4	0.0	385.35753989219666	2.4999709129333496
68	366.61487197875977	pulse	1	t		66.0	2.5	/experiments/AOT/AOT_stimuli/rescaled_final/0899_rv.mp4	0.0	386.1410439014435	
68	368.21320700645447	pulse	1	t		66.0	2.5	/experiments/AOT/AOT_stimuli/rescaled_final/0899_rv.mp4	0.0	387.7393789291382	
68	368.3313388824463	fix_post	2		12	66.0	2.5	/experiments/AOT/AOT_stimuli/rescaled_final/0899_rv.mp4	0.0	387.85751080513	0.10007500648498535
69	368.4314138889313	fix_pre	0		120	67.0	2.5	/experiments/AOT/AOT_stimuli/rescaled_final/0473_fw.mp4	0.0	387.957585811615	0.99993896484375
69	369.431352853775	movie	1		244	67.0	2.5	/experiments/AOT/AOT_stimuli/rescaled_final/0473_fw.mp4	0.0	388.95752477645874	2.499972105026245
69	369.8150689601898	pulse	1	t		67.0	2.5	/experiments/AOT/AOT_stimuli/rescaled_final/0473_fw.mp4	0.0	389.34124088287354	
69	371.4148428440094	pulse	1	t		67.0	2.5	/experiments/AOT/AOT_stimuli/rescaled_final/0473_fw.mp4	0.0	390.9410147666931	
69	371.93132495880127	fix_post	2		12	67.0	2.5	/experiments/AOT/AOT_stimuli/rescaled_final/0473_fw.mp4	0.0	391.457496881485	0.09997105598449707
70	372.03129601478577	fix_pre	0		119	68.0	2.5	/experiments/AOT/AOT_stimuli/rescaled_final/1120_rv.mp4	0.0	391.5574679374695	0.9917798042297363
70	373.0148868560791	pulse	0	t		68.0	2.5	/experiments/AOT/AOT_stimuli/rescaled_final/1120_rv.mp4	0.0	392.5410587787628	
70	373.0230758190155	movie	1		245	68.0	2.5	/experiments/AOT/AOT_stimuli/rescaled_final/1120_rv.mp4	0.0	392.5492477416992	2.508200168609619
70	374.6162328720093	pulse	1	t		68.0	2.5	/experiments/AOT/AOT_stimuli/rescaled_final/1120_rv.mp4	0.0	394.142404794693	
70	375.5312759876251	fix_post	2		12	68.0	2.5	/experiments/AOT/AOT_stimuli/rescaled_final/1120_rv.mp4	0.0	395.05744791030884	0.09971404075622559
71	375.63099002838135	fix_pre	0		120	69.0	2.5	blank	1.0	395.15716195106506	1.0003387928009033
71	376.2149028778076	pulse	0	t		69.0	2.5	blank	1.0	395.74107480049133	
71	376.63132882118225	movie	1		300	69.0	2.5	blank	1.0	396.15750074386597	2.5000500679016113
71	377.8148739337921	pulse	1	t		69.0	2.5	blank	1.0	397.34104585647583	
71	379.13137888908386	fix_post	2		12	69.0	2.5	blank	1.0	398.6575508117676	0.09998607635498047
72	379.23136496543884	fix_pre	0		120	70.0	2.5	/experiments/AOT/AOT_stimuli/rescaled_final/0497_rv.mp4	0.0	398.75753688812256	1.000072956085205
72	379.4148910045624	pulse	0	t		70.0	2.5	/experiments/AOT/AOT_stimuli/rescaled_final/0497_rv.mp4	0.0	398.9410629272461	
72	380.23143792152405	movie	1		245	70.0	2.5	/experiments/AOT/AOT_stimuli/rescaled_final/0497_rv.mp4	0.0	399.75760984420776	2.5000569820404053
72	381.0147650241852	pulse	1	t		70.0	2.5	/experiments/AOT/AOT_stimuli/rescaled_final/0497_rv.mp4	0.0	400.5409369468689	
72	382.61358880996704	pulse	1	t		70.0	2.5	/experiments/AOT/AOT_stimuli/rescaled_final/0497_rv.mp4	0.0	402.13976073265076	
72	382.73149490356445	fix_post	2		12	70.0	2.5	/experiments/AOT/AOT_stimuli/rescaled_final/0497_rv.mp4	0.0	402.25766682624817	0.09977507591247559
73	382.83126997947693	fix_pre	0		120	71.0	2.5	/experiments/AOT/AOT_stimuli/rescaled_final/0734_rv.mp4	0.0	402.35744190216064	1.0000579357147217
73	383.83132791519165	movie	1		246	71.0	2.5	/experiments/AOT/AOT_stimuli/rescaled_final/0734_rv.mp4	0.0	403.35749983787537	2.5000460147857666
73	384.21488094329834	pulse	1	t		71.0	2.5	/experiments/AOT/AOT_stimuli/rescaled_final/0734_rv.mp4	0.0	403.74105286598206	
73	385.8148229122162	pulse	1	t		71.0	2.5	/experiments/AOT/AOT_stimuli/rescaled_final/0734_rv.mp4	0.0	405.3409948348999	
73	386.3313739299774	fix_post	2		12	71.0	2.5	/experiments/AOT/AOT_stimuli/rescaled_final/0734_rv.mp4	0.0	405.85754585266113	0.09999299049377441
74	386.4313669204712	fix_pre	0		119	72.0	2.5	/experiments/AOT/AOT_stimuli/rescaled_final/1417_fw.mp4	0.0	405.9575388431549	0.991610050201416
74	387.4148750305176	pulse	0	t		72.0	2.5	/experiments/AOT/AOT_stimuli/rescaled_final/1417_fw.mp4	0.0	406.9410469532013	
74	387.4229769706726	movie	1		247	72.0	2.5	/experiments/AOT/AOT_stimuli/rescaled_final/1417_fw.mp4	0.0	406.9491488933563	2.5079379081726074
74	389.01444697380066	pulse	1	t		72.0	2.5	/experiments/AOT/AOT_stimuli/rescaled_final/1417_fw.mp4	0.0	408.5406188964844	
74	389.9309148788452	fix_post	2		12	72.0	2.5	/experiments/AOT/AOT_stimuli/rescaled_final/1417_fw.mp4	0.0	409.45708680152893	0.09991002082824707
75	390.03082489967346	fix_pre	0		120	73.0	2.5	/experiments/AOT/AOT_stimuli/rescaled_final/1417_rv.mp4	0.0	409.5569968223572	1.0005359649658203
75	390.6148238182068	pulse	0	t		73.0	2.5	/experiments/AOT/AOT_stimuli/rescaled_final/1417_rv.mp4	0.0	410.1409957408905	
75	391.0313608646393	movie	1		246	73.0	2.5	/experiments/AOT/AOT_stimuli/rescaled_final/1417_rv.mp4	0.0	410.557532787323	2.4999310970306396
75	392.21485900878906	pulse	1	t		73.0	2.5	/experiments/AOT/AOT_stimuli/rescaled_final/1417_rv.mp4	0.0	411.7410309314728	
75	393.5312919616699	fix_post	2		12	73.0	2.5	/experiments/AOT/AOT_stimuli/rescaled_final/1417_rv.mp4	0.0	413.05746388435364	0.10003089904785156
76	393.6313228607178	fix_pre	0		120	74.0	2.5	/experiments/AOT/AOT_stimuli/rescaled_final/0536_fw.mp4	0.0	413.1574947834015	0.9999959468841553
76	393.8147358894348	pulse	0	t		74.0	2.5	/experiments/AOT/AOT_stimuli/rescaled_final/0536_fw.mp4	0.0	413.34090781211853	
76	394.63131880760193	movie	1		245	74.0	2.5	/experiments/AOT/AOT_stimuli/rescaled_final/0536_fw.mp4	0.0	414.15749073028564	2.49996018409729
76	395.414803981781	pulse	1	t		74.0	2.5	/experiments/AOT/AOT_stimuli/rescaled_final/0536_fw.mp4	0.0	414.9409759044647	
76	397.0133419036865	pulse	1	t		74.0	2.5	/experiments/AOT/AOT_stimuli/rescaled_final/0536_fw.mp4	0.0	416.53951382637024	
76	397.1312789916992	fix_post	2		12	74.0	2.5	/experiments/AOT/AOT_stimuli/rescaled_final/0536_fw.mp4	0.0	416.65745091438293	0.0999758243560791
77	397.2312548160553	fix_pre	0		120	75.0	2.5	/experiments/AOT/AOT_stimuli/rescaled_final/0276_rv.mp4	0.0	416.757426738739	1.0000710487365723
77	398.23132586479187	movie	1		244	75.0	2.5	/experiments/AOT/AOT_stimuli/rescaled_final/0276_rv.mp4	0.0	417.7574977874756	2.4999890327453613
77	398.6143579483032	pulse	1	t		75.0	2.5	/experiments/AOT/AOT_stimuli/rescaled_final/0276_rv.mp4	0.0	418.14052987098694	
77	400.21475291252136	pulse	1	t		75.0	2.5	/experiments/AOT/AOT_stimuli/rescaled_final/0276_rv.mp4	0.0	419.7409248352051	
77	400.73131489753723	fix_post	2		12	75.0	2.5	/experiments/AOT/AOT_stimuli/rescaled_final/0276_rv.mp4	0.0	420.25748682022095	0.09995508193969727
78	400.83126997947693	fix_pre	0		119	76.0	2.5	/experiments/AOT/AOT_stimuli/rescaled_final/1105_rv.mp4	0.0	420.35744190216064	0.9917318820953369
78	401.8147578239441	pulse	0	t		76.0	2.5	/experiments/AOT/AOT_stimuli/rescaled_final/1105_rv.mp4	0.0	421.3409297466278	
78	401.82300186157227	movie	1		243	76.0	2.5	/experiments/AOT/AOT_stimuli/rescaled_final/1105_rv.mp4	0.0	421.349173784256	2.508178949356079
78	403.4157588481903	pulse	1	t		76.0	2.5	/experiments/AOT/AOT_stimuli/rescaled_final/1105_rv.mp4	0.0	422.941930770874	
78	404.33118081092834	fix_post	2		12	76.0	2.5	/experiments/AOT/AOT_stimuli/rescaled_final/1105_rv.mp4	0.0	423.85735273361206	0.1000051498413086
79	404.43118596076965	fix_pre	0		120	77.0	2.5	blank	1.0	423.95735788345337	1.0000360012054443
79	405.0147399902344	pulse	0	t		77.0	2.5	blank	1.0	424.5409119129181	
79	405.4312219619751	movie	1		300	77.0	2.5	blank	1.0	424.9573938846588	2.4999618530273438
79	406.6147530078888	pulse	1	t		77.0	2.5	blank	1.0	426.1409249305725	
79	407.93118381500244	fix_post	2		12	77.0	2.5	blank	1.0	427.45735573768616	0.09956002235412598
80	408.03074383735657	fix_pre	0		120	78.0	2.5	/experiments/AOT/AOT_stimuli/rescaled_final/0276_fw.mp4	0.0	427.5569157600403	1.0007641315460205
80	408.2148439884186	pulse	0	t		78.0	2.5	/experiments/AOT/AOT_stimuli/rescaled_final/0276_fw.mp4	0.0	427.7410159111023	
80	409.0315079689026	movie	1		244	78.0	2.5	/experiments/AOT/AOT_stimuli/rescaled_final/0276_fw.mp4	0.0	428.5576798915863	2.4993748664855957
80	409.8142240047455	pulse	1	t		78.0	2.5	/experiments/AOT/AOT_stimuli/rescaled_final/0276_fw.mp4	0.0	429.3403959274292	
80	411.4127550125122	pulse	1	t		78.0	2.5	/experiments/AOT/AOT_stimuli/rescaled_final/0276_fw.mp4	0.0	430.9389269351959	
80	411.5308828353882	fix_post	2		12	78.0	2.5	/experiments/AOT/AOT_stimuli/rescaled_final/0276_fw.mp4	0.0	431.0570547580719	0.09999799728393555
81	411.6308808326721	fix_pre	0		120	79.0	2.5	/experiments/AOT/AOT_stimuli/rescaled_final/0139_fw.mp4	0.0	431.15705275535583	1.0001401901245117
81	412.63102102279663	movie	1		244	79.0	2.5	/experiments/AOT/AOT_stimuli/rescaled_final/0139_fw.mp4	0.0	432.15719294548035	2.500213861465454
81	413.0142478942871	pulse	1	t		79.0	2.5	/experiments/AOT/AOT_stimuli/rescaled_final/0139_fw.mp4	0.0	432.5404198169708	
81	414.61466097831726	pulse	1	t		79.0	2.5	/experiments/AOT/AOT_stimuli/rescaled_final/0139_fw.mp4	0.0	434.140832901001	
81	415.1312348842621	fix_post	2		12	79.0	2.5	/experiments/AOT/AOT_stimuli/rescaled_final/0139_fw.mp4	0.0	434.6574068069458	0.09999799728393555
82	415.231232881546	fix_pre	0		119	80.0	2.5	/experiments/AOT/AOT_stimuli/rescaled_final/1121_rv.mp4	0.0	434.75740480422974	0.9916250705718994
82	416.21471190452576	pulse	0	t		80.0	2.5	/experiments/AOT/AOT_stimuli/rescaled_final/1121_rv.mp4	0.0	435.7408838272095	
82	416.2228579521179	movie	1		247	80.0	2.5	/experiments/AOT/AOT_stimuli/rescaled_final/1121_rv.mp4	0.0	435.74902987480164	2.5082590579986572
82	417.81419801712036	pulse	1	t		80.0	2.5	/experiments/AOT/AOT_stimuli/rescaled_final/1121_rv.mp4	0.0	437.3403699398041	
82	418.7311170101166	fix_post	2		12	80.0	2.5	/experiments/AOT/AOT_stimuli/rescaled_final/1121_rv.mp4	0.0	438.2572889328003	0.10003995895385742
83	418.83115696907043	fix_pre	0		120	81.0	2.5	/experiments/AOT/AOT_stimuli/rescaled_final/1020_fw.mp4	0.0	438.35732889175415	1.0000090599060059
83	419.4146029949188	pulse	0	t		81.0	2.5	/experiments/AOT/AOT_stimuli/rescaled_final/1020_fw.mp4	0.0	438.94077491760254	
83	419.83116602897644	movie	1		246	81.0	2.5	/experiments/AOT/AOT_stimuli/rescaled_final/1020_fw.mp4	0.0	439.35733795166016	2.500225782394409
83	421.0146789550781	pulse	1	t		81.0	2.5	/experiments/AOT/AOT_stimuli/rescaled_final/1020_fw.mp4	0.0	440.54085087776184	
83	422.33139181137085	fix_post	2		12	81.0	2.5	/experiments/AOT/AOT_stimuli/rescaled_final/1020_fw.mp4	0.0	441.85756373405457	0.09972214698791504
84	422.43111395835876	fix_pre	0		120	82.0	2.5	blank	1.0	441.9572858810425	1.0001230239868164
84	422.6146149635315	pulse	0	t		82.0	2.5	blank	1.0	442.1407868862152	
84	423.4312369823456	movie	1		300	82.0	2.5	blank	1.0	442.9574089050293	2.4999568462371826
84	424.2145628929138	pulse	1	t		82.0	2.5	blank	1.0	443.74073481559753	
84	425.8145418167114	pulse	1	t		82.0	2.5	blank	1.0	445.34071373939514	
84	425.93119382858276	fix_post	2		12	82.0	2.5	blank	1.0	445.4573657512665	0.0999150276184082
85	426.0311088562012	fix_pre	0		120	83.0	2.5	/experiments/AOT/AOT_stimuli/rescaled_final/0320_fw.mp4	0.0	445.5572807788849	1.0000081062316895
85	427.03111696243286	movie	1		246	83.0	2.5	/experiments/AOT/AOT_stimuli/rescaled_final/0320_fw.mp4	0.0	446.5572888851166	2.499927043914795
85	427.4141788482666	pulse	1	t		83.0	2.5	/experiments/AOT/AOT_stimuli/rescaled_final/0320_fw.mp4	0.0	446.9403507709503	
85	429.01464796066284	pulse	1	t		83.0	2.5	/experiments/AOT/AOT_stimuli/rescaled_final/0320_fw.mp4	0.0	448.54081988334656	
85	429.53104400634766	fix_post	2		12	83.0	2.5	/experiments/AOT/AOT_stimuli/rescaled_final/0320_fw.mp4	0.0	449.0572159290314	0.10002398490905762
87	429.6310679912567	stim	0		1716					449.15723991394043	14.300017833709717
87	430.6145558357239	pulse	0	t						450.1407277584076	
87	432.21463084220886	pulse	0	t						451.7408027648926	
87	433.81456089019775	pulse	0	t						453.34073281288147	
87	435.41446685791016	pulse	0	t						454.9406387805939	
87	437.01447081565857	pulse	0	t						456.5406427383423	
87	438.614483833313	pulse	0	t						458.1406557559967	
87	440.2144868373871	pulse	0	t						459.7406587600708	
87	441.81441283226013	pulse	0	t						461.34058475494385	
87	443.4145498275757	pulse	0	t						462.9407217502594	
