trial_nr	onset	event_type	phase	response	nr_frames	movie_index	movie_duration	movie_file	blank	onset_abs	duration
0	0.1416013240814209	stim	0		63					13.944047212600708	0.5249896049499512
0	0.6584601402282715	response	0	space						14.460906028747559	
1	0.6665909290313721	stim	0		4092					14.46903681755066	34.11455321311951
1	34.77135896682739	pulse	0	t						48.57380485534668	
1	34.78114414215088	stim	1		1716					48.583590030670166	14.301016330718994
1	36.36368680000305	pulse	1	t						50.16613268852234	
1	37.963953495025635	pulse	1	t						51.76639938354492	
1	39.55598759651184	pulse	1	t						53.35843348503113	
1	41.15606927871704	pulse	1	t						54.95851516723633	
1	42.75634741783142	pulse	1	t						56.55879330635071	
1	44.356603384017944	pulse	1	t						58.15904927253723	
1	45.95684099197388	pulse	1	t						59.759286880493164	
1	47.55701541900635	pulse	1	t						61.359461307525635	
2	49.08216047286987	fix_pre	0		10	0.0	2.5	/experiments/Knapen_AOT/AOT_stimuli/rescaled_final/1212_rv.mp4	0.0	62.88460636138916	0.09172558784484863
2	49.15734124183655	pulse	0	t		0.0	2.5	/experiments/Knapen_AOT/AOT_stimuli/rescaled_final/1212_rv.mp4	0.0	62.959787130355835	
2	49.17388606071472	movie	1		300	0.0	2.5	/experiments/Knapen_AOT/AOT_stimuli/rescaled_final/1212_rv.mp4	0.0	62.97633194923401	2.5003209114074707
2	50.75763726234436	pulse	1	t		0.0	2.5	/experiments/Knapen_AOT/AOT_stimuli/rescaled_final/1212_rv.mp4	0.0	64.56008315086365	
2	51.67420697212219	fix_post	2		12	0.0	2.5	/experiments/Knapen_AOT/AOT_stimuli/rescaled_final/1212_rv.mp4	0.0	65.47665286064148	0.10003089904785156
3	51.774237871170044	fix_pre	0		120	1.0	2.5	/experiments/Knapen_AOT/AOT_stimuli/rescaled_final/1238_rv.mp4	0.0	65.57668375968933	1.000124216079712
3	52.35778784751892	pulse	0	t		1.0	2.5	/experiments/Knapen_AOT/AOT_stimuli/rescaled_final/1238_rv.mp4	0.0	66.16023373603821	
3	52.774362087249756	movie	1		300	1.0	2.5	/experiments/Knapen_AOT/AOT_stimuli/rescaled_final/1238_rv.mp4	0.0	66.57680797576904	2.5004310607910156
3	53.958062410354614	pulse	1	t		1.0	2.5	/experiments/Knapen_AOT/AOT_stimuli/rescaled_final/1238_rv.mp4	0.0	67.7605082988739	
3	55.27479314804077	fix_post	2		12	1.0	2.5	/experiments/Knapen_AOT/AOT_stimuli/rescaled_final/1238_rv.mp4	0.0	69.07723903656006	0.10002422332763672
4	55.37481737136841	fix_pre	0		120	2.0	2.5	/experiments/Knapen_AOT/AOT_stimuli/rescaled_final/2178_fw.mp4	0.0	69.1772632598877	1.0000860691070557
4	55.55828499794006	pulse	0	t		2.0	2.5	/experiments/Knapen_AOT/AOT_stimuli/rescaled_final/2178_fw.mp4	0.0	69.36073088645935	
4	56.374903440475464	movie	1		300	2.0	2.5	/experiments/Knapen_AOT/AOT_stimuli/rescaled_final/2178_fw.mp4	0.0	70.17734932899475	2.5004074573516846
4	57.15854358673096	pulse	1	t		2.0	2.5	/experiments/Knapen_AOT/AOT_stimuli/rescaled_final/2178_fw.mp4	0.0	70.96098947525024	
4	58.75878190994263	pulse	1	t		2.0	2.5	/experiments/Knapen_AOT/AOT_stimuli/rescaled_final/2178_fw.mp4	0.0	72.56122779846191	
4	58.87531089782715	fix_post	2		12	2.0	2.5	/experiments/Knapen_AOT/AOT_stimuli/rescaled_final/2178_fw.mp4	0.0	72.67775678634644	0.10000896453857422
5	58.97531986236572	fix_pre	0		120	3.0	2.5	/experiments/Knapen_AOT/AOT_stimuli/rescaled_final/1953_fw.mp4	0.0	72.77776575088501	1.0001745223999023
5	59.975494384765625	movie	1		299	3.0	2.5	/experiments/Knapen_AOT/AOT_stimuli/rescaled_final/1953_fw.mp4	0.0	73.77794027328491	2.492011070251465
5	60.35911846160889	pulse	1	t		3.0	2.5	/experiments/Knapen_AOT/AOT_stimuli/rescaled_final/1953_fw.mp4	0.0	74.16156435012817	
5	61.959285736083984	pulse	1	t		3.0	2.5	/experiments/Knapen_AOT/AOT_stimuli/rescaled_final/1953_fw.mp4	0.0	75.76173162460327	
5	62.46750545501709	fix_post	2		12	3.0	2.5	/experiments/Knapen_AOT/AOT_stimuli/rescaled_final/1953_fw.mp4	0.0	76.26995134353638	0.10002326965332031
6	62.56752872467041	fix_pre	0		120	4.0	2.5	/experiments/Knapen_AOT/AOT_stimuli/rescaled_final/0954_fw.mp4	0.0	76.3699746131897	1.0001330375671387
6	63.559454917907715	pulse	0	t		4.0	2.5	/experiments/Knapen_AOT/AOT_stimuli/rescaled_final/0954_fw.mp4	0.0	77.361900806427	
6	63.56766176223755	movie	1		301	4.0	2.5	/experiments/Knapen_AOT/AOT_stimuli/rescaled_final/0954_fw.mp4	0.0	77.37010765075684	2.508723258972168
6	65.15978598594666	pulse	1	t		4.0	2.5	/experiments/Knapen_AOT/AOT_stimuli/rescaled_final/0954_fw.mp4	0.0	78.96223187446594	
6	66.07638502120972	fix_post	2		12	4.0	2.5	/experiments/Knapen_AOT/AOT_stimuli/rescaled_final/0954_fw.mp4	0.0	79.878830909729	0.10002732276916504
7	66.17641234397888	fix_pre	0		120	5.0	2.5	/experiments/Knapen_AOT/AOT_stimuli/rescaled_final/1035_fw.mp4	0.0	79.97885823249817	1.0001578330993652
7	66.75996351242065	pulse	0	t		5.0	2.5	/experiments/Knapen_AOT/AOT_stimuli/rescaled_final/1035_fw.mp4	0.0	80.56240940093994	
7	67.17657017707825	movie	1		300	5.0	2.5	/experiments/Knapen_AOT/AOT_stimuli/rescaled_final/1035_fw.mp4	0.0	80.97901606559753	2.5003767013549805
7	68.356205701828	pulse	1	t		5.0	2.5	/experiments/Knapen_AOT/AOT_stimuli/rescaled_final/1035_fw.mp4	0.0	82.15865159034729	
7	69.67694687843323	fix_post	2		12	5.0	2.5	/experiments/Knapen_AOT/AOT_stimuli/rescaled_final/1035_fw.mp4	0.0	83.47939276695251	0.09999442100524902
8	69.77694129943848	fix_pre	0		120	6.0	2.5	blank	1.0	83.57938718795776	1.0001811981201172
8	69.96049928665161	pulse	0	t		6.0	2.5	blank	1.0	83.7629451751709	
8	70.7771224975586	movie	1		300	6.0	2.5	blank	1.0	84.57956838607788	2.5003418922424316
8	71.5606701374054	pulse	1	t		6.0	2.5	blank	1.0	85.36311602592468	
8	73.16089153289795	pulse	1	t		6.0	2.5	blank	1.0	86.96333742141724	
8	73.27746438980103	fix_post	2		12	6.0	2.5	blank	1.0	87.07991027832031	0.10002541542053223
9	73.37748980522156	fix_pre	0		120	7.0	2.5	/experiments/Knapen_AOT/AOT_stimuli/rescaled_final/1992_rv.mp4	0.0	87.17993569374084	1.0002233982086182
9	74.37771320343018	movie	1		299	7.0	2.5	/experiments/Knapen_AOT/AOT_stimuli/rescaled_final/1992_rv.mp4	0.0	88.18015909194946	2.4919755458831787
9	74.7570469379425	pulse	1	t		7.0	2.5	/experiments/Knapen_AOT/AOT_stimuli/rescaled_final/1992_rv.mp4	0.0	88.55949282646179	
9	76.35706067085266	pulse	1	t		7.0	2.5	/experiments/Knapen_AOT/AOT_stimuli/rescaled_final/1992_rv.mp4	0.0	90.15950655937195	
9	76.86968874931335	fix_post	2		12	7.0	2.5	/experiments/Knapen_AOT/AOT_stimuli/rescaled_final/1992_rv.mp4	0.0	90.67213463783264	0.10003113746643066
10	76.96971988677979	fix_pre	0		120	8.0	2.5	/experiments/Knapen_AOT/AOT_stimuli/rescaled_final/0403_rv.mp4	0.0	90.77216577529907	1.000105857849121
10	77.96162104606628	pulse	0	t		8.0	2.5	/experiments/Knapen_AOT/AOT_stimuli/rescaled_final/0403_rv.mp4	0.0	91.76406693458557	
10	77.9698257446289	movie	1		301	8.0	2.5	/experiments/Knapen_AOT/AOT_stimuli/rescaled_final/0403_rv.mp4	0.0	91.7722716331482	2.508744239807129
10	79.55803751945496	pulse	1	t		8.0	2.5	/experiments/Knapen_AOT/AOT_stimuli/rescaled_final/0403_rv.mp4	0.0	93.36048340797424	
10	80.47856998443604	fix_post	2		12	8.0	2.5	/experiments/Knapen_AOT/AOT_stimuli/rescaled_final/0403_rv.mp4	0.0	94.28101587295532	0.10003066062927246
11	80.57860064506531	fix_pre	0		120	9.0	2.5	/experiments/Knapen_AOT/AOT_stimuli/rescaled_final/1805_rv.mp4	0.0	94.3810465335846	1.0001153945922852
11	81.16211366653442	pulse	0	t		9.0	2.5	/experiments/Knapen_AOT/AOT_stimuli/rescaled_final/1805_rv.mp4	0.0	94.96455955505371	
11	81.57871603965759	movie	1		300	9.0	2.5	/experiments/Knapen_AOT/AOT_stimuli/rescaled_final/1805_rv.mp4	0.0	95.38116192817688	2.5003767013549805
11	82.758145570755	pulse	1	t		9.0	2.5	/experiments/Knapen_AOT/AOT_stimuli/rescaled_final/1805_rv.mp4	0.0	96.56059145927429	
11	84.07909274101257	fix_post	2		12	9.0	2.5	/experiments/Knapen_AOT/AOT_stimuli/rescaled_final/1805_rv.mp4	0.0	97.88153862953186	0.10003948211669922
12	84.17913222312927	fix_pre	0		120	10.0	2.5	/experiments/Knapen_AOT/AOT_stimuli/rescaled_final/0304_fw.mp4	0.0	97.98157811164856	1.0001449584960938
12	84.36260724067688	pulse	0	t		10.0	2.5	/experiments/Knapen_AOT/AOT_stimuli/rescaled_final/0304_fw.mp4	0.0	98.16505312919617	
12	85.17927718162537	movie	1		300	10.0	2.5	/experiments/Knapen_AOT/AOT_stimuli/rescaled_final/0304_fw.mp4	0.0	98.98172307014465	2.500418186187744
12	85.95843076705933	pulse	1	t		10.0	2.5	/experiments/Knapen_AOT/AOT_stimuli/rescaled_final/0304_fw.mp4	0.0	99.76087665557861	
12	87.55870008468628	pulse	1	t		10.0	2.5	/experiments/Knapen_AOT/AOT_stimuli/rescaled_final/0304_fw.mp4	0.0	101.36114597320557	
12	87.67969536781311	fix_post	2		12	10.0	2.5	/experiments/Knapen_AOT/AOT_stimuli/rescaled_final/0304_fw.mp4	0.0	101.4821412563324	0.0999906063079834
13	87.7796859741211	fix_pre	0		120	11.0	2.5	/experiments/Knapen_AOT/AOT_stimuli/rescaled_final/1216_rv.mp4	0.0	101.58213186264038	1.00010347366333
13	88.77978944778442	movie	1		299	11.0	2.5	/experiments/Knapen_AOT/AOT_stimuli/rescaled_final/1216_rv.mp4	0.0	102.58223533630371	2.4920480251312256
13	89.15949511528015	pulse	1	t		11.0	2.5	/experiments/Knapen_AOT/AOT_stimuli/rescaled_final/1216_rv.mp4	0.0	102.96194100379944	
13	90.75911521911621	pulse	1	t		11.0	2.5	/experiments/Knapen_AOT/AOT_stimuli/rescaled_final/1216_rv.mp4	0.0	104.5615611076355	
13	91.27183747291565	fix_post	2		12	11.0	2.5	/experiments/Knapen_AOT/AOT_stimuli/rescaled_final/1216_rv.mp4	0.0	105.07428336143494	0.1000204086303711
14	91.37185788154602	fix_pre	0		120	12.0	2.5	blank	1.0	105.17430377006531	1.000152826309204
14	92.36379384994507	pulse	0	t		12.0	2.5	blank	1.0	106.16623973846436	
14	92.37201070785522	movie	1		301	12.0	2.5	blank	1.0	106.17445659637451	2.5087051391601562
14	93.96400952339172	pulse	1	t		12.0	2.5	blank	1.0	107.76645541191101	
14	94.88071584701538	fix_post	2		12	12.0	2.5	blank	1.0	108.68316173553467	0.10001492500305176
15	94.98073077201843	fix_pre	0		120	13.0	2.5	/experiments/Knapen_AOT/AOT_stimuli/rescaled_final/0928_rv.mp4	0.0	108.78317666053772	1.0001821517944336
15	95.55647563934326	pulse	0	t		13.0	2.5	/experiments/Knapen_AOT/AOT_stimuli/rescaled_final/0928_rv.mp4	0.0	109.35892152786255	
15	95.98091292381287	movie	1		300	13.0	2.5	/experiments/Knapen_AOT/AOT_stimuli/rescaled_final/0928_rv.mp4	0.0	109.78335881233215	2.5003790855407715
15	97.16058254241943	pulse	1	t		13.0	2.5	/experiments/Knapen_AOT/AOT_stimuli/rescaled_final/0928_rv.mp4	0.0	110.96302843093872	
15	98.48129200935364	fix_post	2		12	13.0	2.5	/experiments/Knapen_AOT/AOT_stimuli/rescaled_final/0928_rv.mp4	0.0	112.28373789787292	0.1000356674194336
16	98.58132767677307	fix_pre	0		120	14.0	2.5	/experiments/Knapen_AOT/AOT_stimuli/rescaled_final/0918_fw.mp4	0.0	112.38377356529236	1.0000920295715332
16	98.75646376609802	pulse	0	t		14.0	2.5	/experiments/Knapen_AOT/AOT_stimuli/rescaled_final/0918_fw.mp4	0.0	112.55890965461731	
16	99.5814197063446	movie	1		300	14.0	2.5	/experiments/Knapen_AOT/AOT_stimuli/rescaled_final/0918_fw.mp4	0.0	113.38386559486389	2.5003809928894043
16	100.35676050186157	pulse	1	t		14.0	2.5	/experiments/Knapen_AOT/AOT_stimuli/rescaled_final/0918_fw.mp4	0.0	114.15920639038086	
16	101.95695328712463	pulse	1	t		14.0	2.5	/experiments/Knapen_AOT/AOT_stimuli/rescaled_final/0918_fw.mp4	0.0	115.75939917564392	
16	102.08180069923401	fix_post	2		12	14.0	2.5	/experiments/Knapen_AOT/AOT_stimuli/rescaled_final/0918_fw.mp4	0.0	115.8842465877533	0.10001802444458008
17	102.18181872367859	fix_pre	0		120	15.0	2.5	/experiments/Knapen_AOT/AOT_stimuli/rescaled_final/2040_rv.mp4	0.0	115.98426461219788	1.0001490116119385
17	103.18196773529053	movie	1		299	15.0	2.5	/experiments/Knapen_AOT/AOT_stimuli/rescaled_final/2040_rv.mp4	0.0	116.98441362380981	2.492032527923584
17	103.5573103427887	pulse	1	t		15.0	2.5	/experiments/Knapen_AOT/AOT_stimuli/rescaled_final/2040_rv.mp4	0.0	117.35975623130798	
17	105.1574592590332	pulse	1	t		15.0	2.5	/experiments/Knapen_AOT/AOT_stimuli/rescaled_final/2040_rv.mp4	0.0	118.95990514755249	
17	105.67400026321411	fix_post	2		12	15.0	2.5	/experiments/Knapen_AOT/AOT_stimuli/rescaled_final/2040_rv.mp4	0.0	119.4764461517334	0.10002279281616211
18	105.77402305603027	fix_pre	0		119	16.0	2.5	/experiments/Knapen_AOT/AOT_stimuli/rescaled_final/0635_fw.mp4	0.0	119.57646894454956	0.9922137260437012
18	106.75767755508423	pulse	0	t		16.0	2.5	/experiments/Knapen_AOT/AOT_stimuli/rescaled_final/0635_fw.mp4	0.0	120.56012344360352	
18	106.76623678207397	movie	1		301	16.0	2.5	/experiments/Knapen_AOT/AOT_stimuli/rescaled_final/0635_fw.mp4	0.0	120.56868267059326	2.508345603942871
18	108.35798811912537	pulse	1	t		16.0	2.5	/experiments/Knapen_AOT/AOT_stimuli/rescaled_final/0635_fw.mp4	0.0	122.16043400764465	
18	109.27458238601685	fix_post	2		12	16.0	2.5	/experiments/Knapen_AOT/AOT_stimuli/rescaled_final/0635_fw.mp4	0.0	123.07702827453613	0.1000053882598877
19	109.37458777427673	fix_pre	0		120	17.0	2.5	/experiments/Knapen_AOT/AOT_stimuli/rescaled_final/2097_rv.mp4	0.0	123.17703366279602	1.0001347064971924
19	109.9581048488617	pulse	0	t		17.0	2.5	/experiments/Knapen_AOT/AOT_stimuli/rescaled_final/2097_rv.mp4	0.0	123.76055073738098	
19	110.37472248077393	movie	1		299	17.0	2.5	/experiments/Knapen_AOT/AOT_stimuli/rescaled_final/2097_rv.mp4	0.0	124.17716836929321	2.5003724098205566
19	111.5583827495575	pulse	1	t		17.0	2.5	/experiments/Knapen_AOT/AOT_stimuli/rescaled_final/2097_rv.mp4	0.0	125.36082863807678	
19	112.87509489059448	fix_post	2		12	17.0	2.5	/experiments/Knapen_AOT/AOT_stimuli/rescaled_final/2097_rv.mp4	0.0	126.67754077911377	0.10004568099975586
20	112.97514057159424	fix_pre	0		120	18.0	2.5	/experiments/Knapen_AOT/AOT_stimuli/rescaled_final/2132_rv.mp4	0.0	126.77758646011353	1.0001184940338135
20	113.1586549282074	pulse	0	t		18.0	2.5	/experiments/Knapen_AOT/AOT_stimuli/rescaled_final/2132_rv.mp4	0.0	126.96110081672668	
20	113.97525906562805	movie	1		300	18.0	2.5	/experiments/Knapen_AOT/AOT_stimuli/rescaled_final/2132_rv.mp4	0.0	127.77770495414734	2.500433921813965
20	114.75885343551636	pulse	1	t		18.0	2.5	/experiments/Knapen_AOT/AOT_stimuli/rescaled_final/2132_rv.mp4	0.0	128.56129932403564	
20	116.35916948318481	pulse	1	t		18.0	2.5	/experiments/Knapen_AOT/AOT_stimuli/rescaled_final/2132_rv.mp4	0.0	130.1616153717041	
20	116.47569298744202	fix_post	2		12	18.0	2.5	/experiments/Knapen_AOT/AOT_stimuli/rescaled_final/2132_rv.mp4	0.0	130.2781388759613	0.09998369216918945
21	116.5756766796112	fix_pre	0		120	19.0	2.5	blank	1.0	130.3781225681305	1.0001156330108643
21	117.57579231262207	movie	1		299	19.0	2.5	blank	1.0	131.37823820114136	2.4920458793640137
21	117.95936346054077	pulse	1	t		19.0	2.5	blank	1.0	131.76180934906006	
21	119.55956506729126	pulse	1	t		19.0	2.5	blank	1.0	133.36201095581055	
21	120.06783819198608	fix_post	2		12	19.0	2.5	blank	1.0	133.87028408050537	0.1000518798828125
22	120.1678900718689	fix_pre	0		120	20.0	2.5	/experiments/Knapen_AOT/AOT_stimuli/rescaled_final/1903_fw.mp4	0.0	133.97033596038818	1.0084660053253174
22	121.15985107421875	pulse	0	t		20.0	2.5	/experiments/Knapen_AOT/AOT_stimuli/rescaled_final/1903_fw.mp4	0.0	134.96229696273804	
22	121.17635607719421	movie	1		299	20.0	2.5	/experiments/Knapen_AOT/AOT_stimuli/rescaled_final/1903_fw.mp4	0.0	134.9788019657135	2.5004029273986816
22	122.76013565063477	pulse	1	t		20.0	2.5	/experiments/Knapen_AOT/AOT_stimuli/rescaled_final/1903_fw.mp4	0.0	136.56258153915405	
22	123.6767590045929	fix_post	2		12	20.0	2.5	/experiments/Knapen_AOT/AOT_stimuli/rescaled_final/1903_fw.mp4	0.0	137.47920489311218	0.10001420974731445
23	123.77677321434021	fix_pre	0		120	21.0	2.5	/experiments/Knapen_AOT/AOT_stimuli/rescaled_final/0121_rv.mp4	0.0	137.5792191028595	1.0001072883605957
23	124.36026501655579	pulse	0	t		21.0	2.5	/experiments/Knapen_AOT/AOT_stimuli/rescaled_final/0121_rv.mp4	0.0	138.16271090507507	
23	124.7768805027008	movie	1		300	21.0	2.5	/experiments/Knapen_AOT/AOT_stimuli/rescaled_final/0121_rv.mp4	0.0	138.5793263912201	2.500378131866455
23	125.96062326431274	pulse	1	t		21.0	2.5	/experiments/Knapen_AOT/AOT_stimuli/rescaled_final/0121_rv.mp4	0.0	139.76306915283203	
23	127.27725863456726	fix_post	2		12	21.0	2.5	/experiments/Knapen_AOT/AOT_stimuli/rescaled_final/0121_rv.mp4	0.0	141.07970452308655	0.10001587867736816
24	127.37727451324463	fix_pre	0		120	22.0	2.5	/experiments/Knapen_AOT/AOT_stimuli/rescaled_final/0946_fw.mp4	0.0	141.17972040176392	1.000157356262207
24	127.56079077720642	pulse	0	t		22.0	2.5	/experiments/Knapen_AOT/AOT_stimuli/rescaled_final/0946_fw.mp4	0.0	141.3632366657257	
24	128.37743186950684	movie	1		300	22.0	2.5	/experiments/Knapen_AOT/AOT_stimuli/rescaled_final/0946_fw.mp4	0.0	142.17987775802612	2.5005030632019043
24	129.15706491470337	pulse	1	t		22.0	2.5	/experiments/Knapen_AOT/AOT_stimuli/rescaled_final/0946_fw.mp4	0.0	142.95951080322266	
24	130.75693202018738	pulse	1	t		22.0	2.5	/experiments/Knapen_AOT/AOT_stimuli/rescaled_final/0946_fw.mp4	0.0	144.55937790870667	
24	130.87793493270874	fix_post	2		12	22.0	2.5	/experiments/Knapen_AOT/AOT_stimuli/rescaled_final/0946_fw.mp4	0.0	144.68038082122803	0.09990715980529785
25	130.97784209251404	fix_pre	0		120	23.0	2.5	/experiments/Knapen_AOT/AOT_stimuli/rescaled_final/0304_rv.mp4	0.0	144.78028798103333	1.0001220703125
25	131.97796416282654	movie	1		299	23.0	2.5	/experiments/Knapen_AOT/AOT_stimuli/rescaled_final/0304_rv.mp4	0.0	145.78041005134583	2.4920475482940674
25	132.35752630233765	pulse	1	t		23.0	2.5	/experiments/Knapen_AOT/AOT_stimuli/rescaled_final/0304_rv.mp4	0.0	146.15997219085693	
25	133.95731616020203	pulse	1	t		23.0	2.5	/experiments/Knapen_AOT/AOT_stimuli/rescaled_final/0304_rv.mp4	0.0	147.7597620487213	
25	134.4700117111206	fix_post	2		12	23.0	2.5	/experiments/Knapen_AOT/AOT_stimuli/rescaled_final/0304_rv.mp4	0.0	148.2724575996399	0.10002279281616211
26	134.57003450393677	fix_pre	0		120	24.0	2.5	/experiments/Knapen_AOT/AOT_stimuli/rescaled_final/1226_fw.mp4	0.0	148.37248039245605	1.0003409385681152
26	135.56195831298828	pulse	0	t		24.0	2.5	/experiments/Knapen_AOT/AOT_stimuli/rescaled_final/1226_fw.mp4	0.0	149.36440420150757	
26	135.57037544250488	movie	1		301	24.0	2.5	/experiments/Knapen_AOT/AOT_stimuli/rescaled_final/1226_fw.mp4	0.0	149.37282133102417	2.508575201034546
26	137.15907311439514	pulse	1	t		24.0	2.5	/experiments/Knapen_AOT/AOT_stimuli/rescaled_final/1226_fw.mp4	0.0	150.96151900291443	
26	138.07895064353943	fix_post	2		12	24.0	2.5	/experiments/Knapen_AOT/AOT_stimuli/rescaled_final/1226_fw.mp4	0.0	151.88139653205872	0.10001540184020996
27	138.17896604537964	fix_pre	0		120	25.0	2.5	/experiments/Knapen_AOT/AOT_stimuli/rescaled_final/1057_rv.mp4	0.0	151.98141193389893	1.0001063346862793
27	138.76248955726624	pulse	0	t		25.0	2.5	/experiments/Knapen_AOT/AOT_stimuli/rescaled_final/1057_rv.mp4	0.0	152.56493544578552	
27	139.17907238006592	movie	1		300	25.0	2.5	/experiments/Knapen_AOT/AOT_stimuli/rescaled_final/1057_rv.mp4	0.0	152.9815182685852	2.500354766845703
27	140.3583207130432	pulse	1	t		25.0	2.5	/experiments/Knapen_AOT/AOT_stimuli/rescaled_final/1057_rv.mp4	0.0	154.1607666015625	
27	141.67942714691162	fix_post	2		12	25.0	2.5	/experiments/Knapen_AOT/AOT_stimuli/rescaled_final/1057_rv.mp4	0.0	155.4818730354309	0.1000359058380127
28	141.77946305274963	fix_pre	0		120	26.0	2.5	/experiments/Knapen_AOT/AOT_stimuli/rescaled_final/0866_rv.mp4	0.0	155.58190894126892	1.0001351833343506
28	141.96298241615295	pulse	0	t		26.0	2.5	/experiments/Knapen_AOT/AOT_stimuli/rescaled_final/0866_rv.mp4	0.0	155.76542830467224	
28	142.77959823608398	movie	1		300	26.0	2.5	/experiments/Knapen_AOT/AOT_stimuli/rescaled_final/0866_rv.mp4	0.0	156.58204412460327	2.5004231929779053
28	143.55870866775513	pulse	1	t		26.0	2.5	/experiments/Knapen_AOT/AOT_stimuli/rescaled_final/0866_rv.mp4	0.0	157.3611545562744	
28	145.15907096862793	pulse	1	t		26.0	2.5	/experiments/Knapen_AOT/AOT_stimuli/rescaled_final/0866_rv.mp4	0.0	158.96151685714722	
28	145.2800214290619	fix_post	2		12	26.0	2.5	/experiments/Knapen_AOT/AOT_stimuli/rescaled_final/0866_rv.mp4	0.0	159.08246731758118	0.10001182556152344
29	145.3800332546234	fix_pre	0		120	27.0	2.5	blank	1.0	159.1824791431427	1.0001060962677002
29	146.3801393508911	movie	1		299	27.0	2.5	blank	1.0	160.1825852394104	2.4920287132263184
29	146.7636170387268	pulse	1	t		27.0	2.5	blank	1.0	160.5660629272461	
29	148.3638458251953	pulse	1	t		27.0	2.5	blank	1.0	162.1662917137146	
29	148.87216806411743	fix_post	2		12	27.0	2.5	blank	1.0	162.67461395263672	0.10004973411560059
30	148.97221779823303	fix_pre	0		120	28.0	2.5	/experiments/Knapen_AOT/AOT_stimuli/rescaled_final/1953_rv.mp4	0.0	162.77466368675232	1.0084660053253174
30	149.964106798172	pulse	0	t		28.0	2.5	/experiments/Knapen_AOT/AOT_stimuli/rescaled_final/1953_rv.mp4	0.0	163.76655268669128	
30	149.98068380355835	movie	1		299	28.0	2.5	/experiments/Knapen_AOT/AOT_stimuli/rescaled_final/1953_rv.mp4	0.0	163.78312969207764	2.500430107116699
30	151.56073689460754	pulse	1	t		28.0	2.5	/experiments/Knapen_AOT/AOT_stimuli/rescaled_final/1953_rv.mp4	0.0	165.36318278312683	
30	152.48111391067505	fix_post	2		12	28.0	2.5	/experiments/Knapen_AOT/AOT_stimuli/rescaled_final/1953_rv.mp4	0.0	166.28355979919434	0.09999394416809082
31	152.58110785484314	fix_pre	0		120	29.0	2.5	/experiments/Knapen_AOT/AOT_stimuli/rescaled_final/1856_fw.mp4	0.0	166.38355374336243	1.0000863075256348
31	153.16464471817017	pulse	0	t		29.0	2.5	/experiments/Knapen_AOT/AOT_stimuli/rescaled_final/1856_fw.mp4	0.0	166.96709060668945	
31	153.58119416236877	movie	1		300	29.0	2.5	/experiments/Knapen_AOT/AOT_stimuli/rescaled_final/1856_fw.mp4	0.0	167.38364005088806	2.5003960132598877
31	154.76063108444214	pulse	1	t		29.0	2.5	/experiments/Knapen_AOT/AOT_stimuli/rescaled_final/1856_fw.mp4	0.0	168.56307697296143	
31	156.08159017562866	fix_post	2		12	29.0	2.5	/experiments/Knapen_AOT/AOT_stimuli/rescaled_final/1856_fw.mp4	0.0	169.88403606414795	0.1000213623046875
32	156.18161153793335	fix_pre	0		120	30.0	2.5	/experiments/Knapen_AOT/AOT_stimuli/rescaled_final/1472_fw.mp4	0.0	169.98405742645264	1.0001730918884277
32	156.35687160491943	pulse	0	t		30.0	2.5	/experiments/Knapen_AOT/AOT_stimuli/rescaled_final/1472_fw.mp4	0.0	170.15931749343872	
32	157.18178462982178	movie	1		300	30.0	2.5	/experiments/Knapen_AOT/AOT_stimuli/rescaled_final/1472_fw.mp4	0.0	170.98423051834106	2.500410318374634
32	157.95702409744263	pulse	1	t		30.0	2.5	/experiments/Knapen_AOT/AOT_stimuli/rescaled_final/1472_fw.mp4	0.0	171.7594699859619	
32	159.55728888511658	pulse	1	t		30.0	2.5	/experiments/Knapen_AOT/AOT_stimuli/rescaled_final/1472_fw.mp4	0.0	173.35973477363586	
32	159.6821949481964	fix_post	2		12	30.0	2.5	/experiments/Knapen_AOT/AOT_stimuli/rescaled_final/1472_fw.mp4	0.0	173.4846408367157	0.10000181198120117
33	159.7821967601776	fix_pre	0		120	31.0	2.5	/experiments/Knapen_AOT/AOT_stimuli/rescaled_final/1952_rv.mp4	0.0	173.5846426486969	1.0001027584075928
33	160.7822995185852	movie	1		299	31.0	2.5	/experiments/Knapen_AOT/AOT_stimuli/rescaled_final/1952_rv.mp4	0.0	174.5847454071045	2.492056131362915
33	161.15762042999268	pulse	1	t		31.0	2.5	/experiments/Knapen_AOT/AOT_stimuli/rescaled_final/1952_rv.mp4	0.0	174.96006631851196	
33	162.75773811340332	pulse	1	t		31.0	2.5	/experiments/Knapen_AOT/AOT_stimuli/rescaled_final/1952_rv.mp4	0.0	176.5601840019226	
33	163.27435564994812	fix_post	2		12	31.0	2.5	/experiments/Knapen_AOT/AOT_stimuli/rescaled_final/1952_rv.mp4	0.0	177.0768015384674	0.09999775886535645
34	163.37435340881348	fix_pre	0		119	32.0	2.5	/experiments/Knapen_AOT/AOT_stimuli/rescaled_final/1918_rv.mp4	0.0	177.17679929733276	0.9918150901794434
34	164.35795545578003	pulse	0	t		32.0	2.5	/experiments/Knapen_AOT/AOT_stimuli/rescaled_final/1918_rv.mp4	0.0	178.16040134429932	
34	164.36616849899292	movie	1		301	32.0	2.5	/experiments/Knapen_AOT/AOT_stimuli/rescaled_final/1918_rv.mp4	0.0	178.1686143875122	2.5087087154388428
34	165.95827531814575	pulse	1	t		32.0	2.5	/experiments/Knapen_AOT/AOT_stimuli/rescaled_final/1918_rv.mp4	0.0	179.76072120666504	
34	166.87487721443176	fix_post	2		12	32.0	2.5	/experiments/Knapen_AOT/AOT_stimuli/rescaled_final/1918_rv.mp4	0.0	180.67732310295105	0.10001564025878906
35	166.97489285469055	fix_pre	0		120	33.0	2.5	blank	1.0	180.77733874320984	1.0001471042633057
35	167.5584568977356	pulse	0	t		33.0	2.5	blank	1.0	181.36090278625488	
35	167.97503995895386	movie	1		300	33.0	2.5	blank	1.0	181.77748584747314	2.500396251678467
35	169.15872478485107	pulse	1	t		33.0	2.5	blank	1.0	182.96117067337036	
35	170.47543621063232	fix_post	2		12	33.0	2.5	blank	1.0	184.2778820991516	0.1000051498413086
36	170.57544136047363	fix_pre	0		120	34.0	2.5	/experiments/Knapen_AOT/AOT_stimuli/rescaled_final/0668_fw.mp4	0.0	184.37788724899292	1.000121831893921
36	170.75890612602234	pulse	0	t		34.0	2.5	/experiments/Knapen_AOT/AOT_stimuli/rescaled_final/0668_fw.mp4	0.0	184.56135201454163	
36	171.57556319236755	movie	1		300	34.0	2.5	/experiments/Knapen_AOT/AOT_stimuli/rescaled_final/0668_fw.mp4	0.0	185.37800908088684	2.5003929138183594
36	172.35917925834656	pulse	1	t		34.0	2.5	/experiments/Knapen_AOT/AOT_stimuli/rescaled_final/0668_fw.mp4	0.0	186.16162514686584	
36	173.95943117141724	pulse	1	t		34.0	2.5	/experiments/Knapen_AOT/AOT_stimuli/rescaled_final/0668_fw.mp4	0.0	187.76187705993652	
36	174.0759561061859	fix_post	2		12	34.0	2.5	/experiments/Knapen_AOT/AOT_stimuli/rescaled_final/0668_fw.mp4	0.0	187.8784019947052	0.10004496574401855
37	174.17600107192993	fix_pre	0		120	35.0	2.5	/experiments/Knapen_AOT/AOT_stimuli/rescaled_final/1763_fw.mp4	0.0	187.97844696044922	1.0001327991485596
37	175.1761338710785	movie	1		299	35.0	2.5	/experiments/Knapen_AOT/AOT_stimuli/rescaled_final/1763_fw.mp4	0.0	188.97857975959778	2.4920637607574463
37	175.5597014427185	pulse	1	t		35.0	2.5	/experiments/Knapen_AOT/AOT_stimuli/rescaled_final/1763_fw.mp4	0.0	189.3621473312378	
37	177.15994143486023	pulse	1	t		35.0	2.5	/experiments/Knapen_AOT/AOT_stimuli/rescaled_final/1763_fw.mp4	0.0	190.96238732337952	
37	177.66819763183594	fix_post	2		12	35.0	2.5	/experiments/Knapen_AOT/AOT_stimuli/rescaled_final/1763_fw.mp4	0.0	191.47064352035522	0.10001039505004883
38	177.768208026886	fix_pre	0		120	36.0	2.5	/experiments/Knapen_AOT/AOT_stimuli/rescaled_final/1497_rv.mp4	0.0	191.57065391540527	1.0085394382476807
38	178.76010942459106	pulse	0	t		36.0	2.5	/experiments/Knapen_AOT/AOT_stimuli/rescaled_final/1497_rv.mp4	0.0	192.56255531311035	
38	178.77674746513367	movie	1		300	36.0	2.5	/experiments/Knapen_AOT/AOT_stimuli/rescaled_final/1497_rv.mp4	0.0	192.57919335365295	2.5002918243408203
38	180.3586745262146	pulse	1	t		36.0	2.5	/experiments/Knapen_AOT/AOT_stimuli/rescaled_final/1497_rv.mp4	0.0	194.1611204147339	
38	181.2770392894745	fix_post	2		12	36.0	2.5	/experiments/Knapen_AOT/AOT_stimuli/rescaled_final/1497_rv.mp4	0.0	195.07948517799377	0.10004019737243652
39	181.37707948684692	fix_pre	0		120	37.0	2.5	/experiments/Knapen_AOT/AOT_stimuli/rescaled_final/2166_rv.mp4	0.0	195.1795253753662	1.000129222869873
39	181.9605951309204	pulse	0	t		37.0	2.5	/experiments/Knapen_AOT/AOT_stimuli/rescaled_final/2166_rv.mp4	0.0	195.7630410194397	
39	182.3772087097168	movie	1		300	37.0	2.5	/experiments/Knapen_AOT/AOT_stimuli/rescaled_final/2166_rv.mp4	0.0	196.17965459823608	2.5003745555877686
39	183.55653357505798	pulse	1	t		37.0	2.5	/experiments/Knapen_AOT/AOT_stimuli/rescaled_final/2166_rv.mp4	0.0	197.35897946357727	
39	184.87758326530457	fix_post	2		12	37.0	2.5	/experiments/Knapen_AOT/AOT_stimuli/rescaled_final/2166_rv.mp4	0.0	198.68002915382385	0.1000208854675293
40	184.9776041507721	fix_pre	0		120	38.0	2.5	/experiments/Knapen_AOT/AOT_stimuli/rescaled_final/0128_fw.mp4	0.0	198.78005003929138	1.0001587867736816
40	185.16108107566833	pulse	0	t		38.0	2.5	/experiments/Knapen_AOT/AOT_stimuli/rescaled_final/0128_fw.mp4	0.0	198.96352696418762	
40	185.97776293754578	movie	1		300	38.0	2.5	/experiments/Knapen_AOT/AOT_stimuli/rescaled_final/0128_fw.mp4	0.0	199.78020882606506	2.5003647804260254
40	186.75694870948792	pulse	1	t		38.0	2.5	/experiments/Knapen_AOT/AOT_stimuli/rescaled_final/0128_fw.mp4	0.0	200.5593945980072	
40	188.3571515083313	pulse	1	t		38.0	2.5	/experiments/Knapen_AOT/AOT_stimuli/rescaled_final/0128_fw.mp4	0.0	202.1595973968506	
40	188.4781277179718	fix_post	2		12	38.0	2.5	/experiments/Knapen_AOT/AOT_stimuli/rescaled_final/0128_fw.mp4	0.0	202.2805736064911	0.1000206470489502
41	188.57814836502075	fix_pre	0		120	39.0	2.5	/experiments/Knapen_AOT/AOT_stimuli/rescaled_final/2124_fw.mp4	0.0	202.38059425354004	1.0001418590545654
41	189.57829022407532	movie	1		299	39.0	2.5	/experiments/Knapen_AOT/AOT_stimuli/rescaled_final/2124_fw.mp4	0.0	203.3807361125946	2.4920506477355957
41	189.95774269104004	pulse	1	t		39.0	2.5	/experiments/Knapen_AOT/AOT_stimuli/rescaled_final/2124_fw.mp4	0.0	203.76018857955933	
41	191.55762577056885	pulse	1	t		39.0	2.5	/experiments/Knapen_AOT/AOT_stimuli/rescaled_final/2124_fw.mp4	0.0	205.36007165908813	
41	192.0703408718109	fix_post	2		12	39.0	2.5	/experiments/Knapen_AOT/AOT_stimuli/rescaled_final/2124_fw.mp4	0.0	205.8727867603302	0.10001206398010254
42	192.17035293579102	fix_pre	0		120	40.0	2.5	blank	1.0	205.9727988243103	1.0002014636993408
42	193.16232419013977	pulse	0	t		40.0	2.5	blank	1.0	206.96477007865906	
42	193.17055439949036	movie	1		301	40.0	2.5	blank	1.0	206.97300028800964	2.508650541305542
42	194.7625653743744	pulse	1	t		40.0	2.5	blank	1.0	208.56501126289368	
42	195.6792049407959	fix_post	2		12	40.0	2.5	blank	1.0	209.48165082931519	0.10003280639648438
43	195.77923774719238	fix_pre	0		120	41.0	2.5	/experiments/Knapen_AOT/AOT_stimuli/rescaled_final/2166_fw.mp4	0.0	209.58168363571167	1.000171184539795
43	196.36275911331177	pulse	0	t		41.0	2.5	/experiments/Knapen_AOT/AOT_stimuli/rescaled_final/2166_fw.mp4	0.0	210.16520500183105	
43	196.77940893173218	movie	1		299	41.0	2.5	/experiments/Knapen_AOT/AOT_stimuli/rescaled_final/2166_fw.mp4	0.0	210.58185482025146	2.500340223312378
43	197.9588553905487	pulse	1	t		41.0	2.5	/experiments/Knapen_AOT/AOT_stimuli/rescaled_final/2166_fw.mp4	0.0	211.761301279068	
43	199.27974915504456	fix_post	2		12	41.0	2.5	/experiments/Knapen_AOT/AOT_stimuli/rescaled_final/2166_fw.mp4	0.0	213.08219504356384	0.10001754760742188
44	199.37976670265198	fix_pre	0		120	42.0	2.5	/experiments/Knapen_AOT/AOT_stimuli/rescaled_final/1936_rv.mp4	0.0	213.18221259117126	1.000135898590088
44	199.56324243545532	pulse	0	t		42.0	2.5	/experiments/Knapen_AOT/AOT_stimuli/rescaled_final/1936_rv.mp4	0.0	213.3656883239746	
44	200.37990260124207	movie	1		300	42.0	2.5	/experiments/Knapen_AOT/AOT_stimuli/rescaled_final/1936_rv.mp4	0.0	214.18234848976135	2.500385046005249
44	201.15902018547058	pulse	1	t		42.0	2.5	/experiments/Knapen_AOT/AOT_stimuli/rescaled_final/1936_rv.mp4	0.0	214.96146607398987	
44	202.75946950912476	pulse	1	t		42.0	2.5	/experiments/Knapen_AOT/AOT_stimuli/rescaled_final/1936_rv.mp4	0.0	216.56191539764404	
44	202.88028764724731	fix_post	2		12	42.0	2.5	/experiments/Knapen_AOT/AOT_stimuli/rescaled_final/1936_rv.mp4	0.0	216.6827335357666	0.10001707077026367
45	202.98030471801758	fix_pre	0		120	43.0	2.5	/experiments/Knapen_AOT/AOT_stimuli/rescaled_final/2051_rv.mp4	0.0	216.78275060653687	1.0001764297485352
45	203.9804811477661	movie	1		299	43.0	2.5	/experiments/Knapen_AOT/AOT_stimuli/rescaled_final/2051_rv.mp4	0.0	217.7829270362854	2.4920077323913574
45	204.36004328727722	pulse	1	t		43.0	2.5	/experiments/Knapen_AOT/AOT_stimuli/rescaled_final/2051_rv.mp4	0.0	218.1624891757965	
45	205.9602541923523	pulse	1	t		43.0	2.5	/experiments/Knapen_AOT/AOT_stimuli/rescaled_final/2051_rv.mp4	0.0	219.76270008087158	
45	206.47248888015747	fix_post	2		12	43.0	2.5	/experiments/Knapen_AOT/AOT_stimuli/rescaled_final/2051_rv.mp4	0.0	220.27493476867676	0.10004830360412598
46	206.5725371837616	fix_pre	0		119	44.0	2.5	/experiments/Knapen_AOT/AOT_stimuli/rescaled_final/2141_fw.mp4	0.0	220.37498307228088	1.0002245903015137
46	207.5562493801117	pulse	0	t		44.0	2.5	/experiments/Knapen_AOT/AOT_stimuli/rescaled_final/2141_fw.mp4	0.0	221.35869526863098	
46	207.5727617740631	movie	1		299	44.0	2.5	/experiments/Knapen_AOT/AOT_stimuli/rescaled_final/2141_fw.mp4	0.0	221.3752076625824	2.500284194946289
46	209.15652132034302	pulse	1	t		44.0	2.5	/experiments/Knapen_AOT/AOT_stimuli/rescaled_final/2141_fw.mp4	0.0	222.9589672088623	
46	210.0730459690094	fix_post	2		12	44.0	2.5	/experiments/Knapen_AOT/AOT_stimuli/rescaled_final/2141_fw.mp4	0.0	223.8754918575287	0.10000896453857422
47	210.17305493354797	fix_pre	0		120	45.0	2.5	/experiments/Knapen_AOT/AOT_stimuli/rescaled_final/2142_fw.mp4	0.0	223.97550082206726	1.000176191329956
47	210.75663471221924	pulse	0	t		45.0	2.5	/experiments/Knapen_AOT/AOT_stimuli/rescaled_final/2142_fw.mp4	0.0	224.55908060073853	
47	211.17323112487793	movie	1		287	45.0	2.5	/experiments/Knapen_AOT/AOT_stimuli/rescaled_final/2142_fw.mp4	0.0	224.97567701339722	2.5003459453582764
47	212.3568844795227	pulse	1	t		45.0	2.5	/experiments/Knapen_AOT/AOT_stimuli/rescaled_final/2142_fw.mp4	0.0	226.159330368042	
47	213.6735770702362	fix_post	2		12	45.0	2.5	/experiments/Knapen_AOT/AOT_stimuli/rescaled_final/2142_fw.mp4	0.0	227.4760229587555	0.10002326965332031
48	213.77360033988953	fix_pre	0		120	46.0	2.5	/experiments/Knapen_AOT/AOT_stimuli/rescaled_final/0275_rv.mp4	0.0	227.5760462284088	1.0001435279846191
48	213.95713806152344	pulse	0	t		46.0	2.5	/experiments/Knapen_AOT/AOT_stimuli/rescaled_final/0275_rv.mp4	0.0	227.75958395004272	
48	214.77374386787415	movie	1		300	46.0	2.5	/experiments/Knapen_AOT/AOT_stimuli/rescaled_final/0275_rv.mp4	0.0	228.57618975639343	2.500403642654419
48	215.55735230445862	pulse	1	t		46.0	2.5	/experiments/Knapen_AOT/AOT_stimuli/rescaled_final/0275_rv.mp4	0.0	229.3597981929779	
48	217.15758085250854	pulse	1	t		46.0	2.5	/experiments/Knapen_AOT/AOT_stimuli/rescaled_final/0275_rv.mp4	0.0	230.96002674102783	
48	217.27414751052856	fix_post	2		12	46.0	2.5	/experiments/Knapen_AOT/AOT_stimuli/rescaled_final/0275_rv.mp4	0.0	231.07659339904785	0.09999418258666992
49	217.37414169311523	fix_pre	0		120	47.0	2.5	blank	1.0	231.17658758163452	1.0001420974731445
49	218.37428379058838	movie	1		299	47.0	2.5	blank	1.0	232.17672967910767	2.492034673690796
49	218.7579472064972	pulse	1	t		47.0	2.5	blank	1.0	232.56039309501648	
49	220.3580231666565	pulse	1	t		47.0	2.5	blank	1.0	234.16046905517578	
49	220.86631846427917	fix_post	2		12	47.0	2.5	blank	1.0	234.66876435279846	0.10004067420959473
50	220.96635913848877	fix_pre	0		120	48.0	2.5	/experiments/Knapen_AOT/AOT_stimuli/rescaled_final/2171_fw.mp4	0.0	234.76880502700806	1.0084831714630127
50	221.95832133293152	pulse	0	t		48.0	2.5	/experiments/Knapen_AOT/AOT_stimuli/rescaled_final/2171_fw.mp4	0.0	235.7607672214508	
50	221.97484230995178	movie	1		300	48.0	2.5	/experiments/Knapen_AOT/AOT_stimuli/rescaled_final/2171_fw.mp4	0.0	235.77728819847107	2.500347852706909
50	223.55864596366882	pulse	1	t		48.0	2.5	/experiments/Knapen_AOT/AOT_stimuli/rescaled_final/2171_fw.mp4	0.0	237.3610918521881	
50	224.4751901626587	fix_post	2		12	48.0	2.5	/experiments/Knapen_AOT/AOT_stimuli/rescaled_final/2171_fw.mp4	0.0	238.27763605117798	0.10003495216369629
51	224.5752251148224	fix_pre	0		120	49.0	2.5	/experiments/Knapen_AOT/AOT_stimuli/rescaled_final/1440_rv.mp4	0.0	238.37767100334167	1.0001463890075684
51	225.15878558158875	pulse	0	t		49.0	2.5	/experiments/Knapen_AOT/AOT_stimuli/rescaled_final/1440_rv.mp4	0.0	238.96123147010803	
51	225.57537150382996	movie	1		299	49.0	2.5	/experiments/Knapen_AOT/AOT_stimuli/rescaled_final/1440_rv.mp4	0.0	239.37781739234924	2.5003817081451416
51	226.75903701782227	pulse	1	t		49.0	2.5	/experiments/Knapen_AOT/AOT_stimuli/rescaled_final/1440_rv.mp4	0.0	240.56148290634155	
51	228.0757532119751	fix_post	2		12	49.0	2.5	/experiments/Knapen_AOT/AOT_stimuli/rescaled_final/1440_rv.mp4	0.0	241.87819910049438	0.10001420974731445
52	228.1757674217224	fix_pre	0		120	50.0	2.5	/experiments/Knapen_AOT/AOT_stimuli/rescaled_final/0668_rv.mp4	0.0	241.9782133102417	1.0001657009124756
52	228.3592426776886	pulse	0	t		50.0	2.5	/experiments/Knapen_AOT/AOT_stimuli/rescaled_final/0668_rv.mp4	0.0	242.16168856620789	
52	229.1759331226349	movie	1		300	50.0	2.5	/experiments/Knapen_AOT/AOT_stimuli/rescaled_final/0668_rv.mp4	0.0	242.97837901115417	2.5003514289855957
52	229.95951890945435	pulse	1	t		50.0	2.5	/experiments/Knapen_AOT/AOT_stimuli/rescaled_final/0668_rv.mp4	0.0	243.76196479797363	
52	231.5597414970398	pulse	1	t		50.0	2.5	/experiments/Knapen_AOT/AOT_stimuli/rescaled_final/0668_rv.mp4	0.0	245.36218738555908	
52	231.67628455162048	fix_post	2		12	50.0	2.5	/experiments/Knapen_AOT/AOT_stimuli/rescaled_final/0668_rv.mp4	0.0	245.47873044013977	0.1000204086303711
53	231.77630496025085	fix_pre	0		120	51.0	2.5	/experiments/Knapen_AOT/AOT_stimuli/rescaled_final/0768_rv.mp4	0.0	245.57875084877014	1.0001599788665771
53	232.77646493911743	movie	1		299	51.0	2.5	/experiments/Knapen_AOT/AOT_stimuli/rescaled_final/0768_rv.mp4	0.0	246.57891082763672	2.4920201301574707
53	233.16009664535522	pulse	1	t		51.0	2.5	/experiments/Knapen_AOT/AOT_stimuli/rescaled_final/0768_rv.mp4	0.0	246.9625425338745	
53	234.76030492782593	pulse	1	t		51.0	2.5	/experiments/Knapen_AOT/AOT_stimuli/rescaled_final/0768_rv.mp4	0.0	248.56275081634521	
53	235.2684850692749	fix_post	2		12	51.0	2.5	/experiments/Knapen_AOT/AOT_stimuli/rescaled_final/0768_rv.mp4	0.0	249.0709309577942	0.10003304481506348
54	235.36851811408997	fix_pre	0		120	52.0	2.5	/experiments/Knapen_AOT/AOT_stimuli/rescaled_final/1306_fw.mp4	0.0	249.17096400260925	1.0004138946533203
54	236.36045145988464	pulse	0	t		52.0	2.5	/experiments/Knapen_AOT/AOT_stimuli/rescaled_final/1306_fw.mp4	0.0	250.16289734840393	
54	236.3689320087433	movie	1		301	52.0	2.5	/experiments/Knapen_AOT/AOT_stimuli/rescaled_final/1306_fw.mp4	0.0	250.17137789726257	2.508427381515503
54	237.95701575279236	pulse	1	t		52.0	2.5	/experiments/Knapen_AOT/AOT_stimuli/rescaled_final/1306_fw.mp4	0.0	251.75946164131165	
54	238.8773593902588	fix_post	2		12	52.0	2.5	/experiments/Knapen_AOT/AOT_stimuli/rescaled_final/1306_fw.mp4	0.0	252.67980527877808	0.10002493858337402
55	238.97738432884216	fix_pre	0		120	53.0	2.5	/experiments/Knapen_AOT/AOT_stimuli/rescaled_final/1433_fw.mp4	0.0	252.77983021736145	1.0001575946807861
55	239.56093978881836	pulse	0	t		53.0	2.5	/experiments/Knapen_AOT/AOT_stimuli/rescaled_final/1433_fw.mp4	0.0	253.36338567733765	
55	239.97754192352295	movie	1		298	53.0	2.5	/experiments/Knapen_AOT/AOT_stimuli/rescaled_final/1433_fw.mp4	0.0	253.77998781204224	2.5003817081451416
55	241.15695238113403	pulse	1	t		53.0	2.5	/experiments/Knapen_AOT/AOT_stimuli/rescaled_final/1433_fw.mp4	0.0	254.95939826965332	
55	242.4779236316681	fix_post	2		12	53.0	2.5	/experiments/Knapen_AOT/AOT_stimuli/rescaled_final/1433_fw.mp4	0.0	256.2803695201874	0.1000065803527832
56	242.57793021202087	fix_pre	0		120	54.0	2.5	blank	1.0	256.38037610054016	1.0001323223114014
56	242.76142191886902	pulse	0	t		54.0	2.5	blank	1.0	256.5638678073883	
56	243.57806253433228	movie	1		300	54.0	2.5	blank	1.0	257.38050842285156	2.5004022121429443
56	244.36163783073425	pulse	1	t		54.0	2.5	blank	1.0	258.16408371925354	
56	245.96189737319946	pulse	1	t		54.0	2.5	blank	1.0	259.76434326171875	
56	246.07846474647522	fix_post	2		12	54.0	2.5	blank	1.0	259.8809106349945	0.10006356239318848
57	246.1785283088684	fix_pre	0		120	55.0	2.5	/experiments/Knapen_AOT/AOT_stimuli/rescaled_final/1228_rv.mp4	0.0	259.9809741973877	1.0000944137573242
57	247.17862272262573	movie	1		299	55.0	2.5	/experiments/Knapen_AOT/AOT_stimuli/rescaled_final/1228_rv.mp4	0.0	260.981068611145	2.4920358657836914
57	247.55818819999695	pulse	1	t		55.0	2.5	/experiments/Knapen_AOT/AOT_stimuli/rescaled_final/1228_rv.mp4	0.0	261.36063408851624	
57	249.15828943252563	pulse	1	t		55.0	2.5	/experiments/Knapen_AOT/AOT_stimuli/rescaled_final/1228_rv.mp4	0.0	262.9607353210449	
57	249.67065858840942	fix_post	2		12	55.0	2.5	/experiments/Knapen_AOT/AOT_stimuli/rescaled_final/1228_rv.mp4	0.0	263.4731044769287	0.10001468658447266
58	249.7706732749939	fix_pre	0		120	56.0	2.5	/experiments/Knapen_AOT/AOT_stimuli/rescaled_final/1031_rv.mp4	0.0	263.5731191635132	1.0085105895996094
58	250.76261353492737	pulse	0	t		56.0	2.5	/experiments/Knapen_AOT/AOT_stimuli/rescaled_final/1031_rv.mp4	0.0	264.56505942344666	
58	250.7791838645935	movie	1		300	56.0	2.5	/experiments/Knapen_AOT/AOT_stimuli/rescaled_final/1031_rv.mp4	0.0	264.5816297531128	2.500352144241333
58	252.35920643806458	pulse	1	t		56.0	2.5	/experiments/Knapen_AOT/AOT_stimuli/rescaled_final/1031_rv.mp4	0.0	266.16165232658386	
58	253.27953600883484	fix_post	2		12	56.0	2.5	/experiments/Knapen_AOT/AOT_stimuli/rescaled_final/1031_rv.mp4	0.0	267.0819818973541	0.10003423690795898
59	253.3795702457428	fix_pre	0		120	57.0	2.5	/experiments/Knapen_AOT/AOT_stimuli/rescaled_final/0918_fw.mp4	0.0	267.1820161342621	1.000138282775879
59	253.96312189102173	pulse	0	t		57.0	2.5	/experiments/Knapen_AOT/AOT_stimuli/rescaled_final/0918_fw.mp4	0.0	267.765567779541	
59	254.37970852851868	movie	1		300	57.0	2.5	/experiments/Knapen_AOT/AOT_stimuli/rescaled_final/0918_fw.mp4	0.0	268.18215441703796	2.500406503677368
59	255.55910658836365	pulse	1	t		57.0	2.5	/experiments/Knapen_AOT/AOT_stimuli/rescaled_final/0918_fw.mp4	0.0	269.36155247688293	
59	256.88011503219604	fix_post	2		12	57.0	2.5	/experiments/Knapen_AOT/AOT_stimuli/rescaled_final/0918_fw.mp4	0.0	270.68256092071533	0.10002732276916504
60	256.9801423549652	fix_pre	0		120	58.0	2.5	/experiments/Knapen_AOT/AOT_stimuli/rescaled_final/1966_rv.mp4	0.0	270.7825882434845	1.0001170635223389
60	257.16361832618713	pulse	0	t		58.0	2.5	/experiments/Knapen_AOT/AOT_stimuli/rescaled_final/1966_rv.mp4	0.0	270.9660642147064	
60	257.98025941848755	movie	1		300	58.0	2.5	/experiments/Knapen_AOT/AOT_stimuli/rescaled_final/1966_rv.mp4	0.0	271.78270530700684	2.5003631114959717
60	258.7594151496887	pulse	1	t		58.0	2.5	/experiments/Knapen_AOT/AOT_stimuli/rescaled_final/1966_rv.mp4	0.0	272.561861038208	
60	260.35994005203247	pulse	1	t		58.0	2.5	/experiments/Knapen_AOT/AOT_stimuli/rescaled_final/1966_rv.mp4	0.0	274.16238594055176	
60	260.4806225299835	fix_post	2		12	58.0	2.5	/experiments/Knapen_AOT/AOT_stimuli/rescaled_final/1966_rv.mp4	0.0	274.2830684185028	0.10001254081726074
61	260.5806350708008	fix_pre	0		120	59.0	2.5	/experiments/Knapen_AOT/AOT_stimuli/rescaled_final/0530_rv.mp4	0.0	274.38308095932007	1.0001411437988281
61	261.5807762145996	movie	1		299	59.0	2.5	/experiments/Knapen_AOT/AOT_stimuli/rescaled_final/0530_rv.mp4	0.0	275.3832221031189	2.492055654525757
61	261.960471868515	pulse	1	t		59.0	2.5	/experiments/Knapen_AOT/AOT_stimuli/rescaled_final/0530_rv.mp4	0.0	275.7629177570343	
61	263.56007075309753	pulse	1	t		59.0	2.5	/experiments/Knapen_AOT/AOT_stimuli/rescaled_final/0530_rv.mp4	0.0	277.3625166416168	
61	264.07283186912537	fix_post	2		12	59.0	2.5	/experiments/Knapen_AOT/AOT_stimuli/rescaled_final/0530_rv.mp4	0.0	277.87527775764465	0.1000051498413086
62	264.1728370189667	fix_pre	0		120	60.0	2.5	/experiments/Knapen_AOT/AOT_stimuli/rescaled_final/0618_fw.mp4	0.0	277.97528290748596	1.0004644393920898
62	265.1569399833679	pulse	0	t		60.0	2.5	/experiments/Knapen_AOT/AOT_stimuli/rescaled_final/0618_fw.mp4	0.0	278.9593858718872	
62	265.17330145835876	movie	1		301	60.0	2.5	/experiments/Knapen_AOT/AOT_stimuli/rescaled_final/0618_fw.mp4	0.0	278.97574734687805	2.508394956588745
62	266.7573366165161	pulse	1	t		60.0	2.5	/experiments/Knapen_AOT/AOT_stimuli/rescaled_final/0618_fw.mp4	0.0	280.5597825050354	
62	267.6816964149475	fix_post	2		12	60.0	2.5	/experiments/Knapen_AOT/AOT_stimuli/rescaled_final/0618_fw.mp4	0.0	281.4841423034668	0.10004186630249023
63	267.78173828125	fix_pre	0		120	61.0	2.5	/experiments/Knapen_AOT/AOT_stimuli/rescaled_final/1071_rv.mp4	0.0	281.5841841697693	1.0001697540283203
63	268.35697317123413	pulse	0	t		61.0	2.5	/experiments/Knapen_AOT/AOT_stimuli/rescaled_final/1071_rv.mp4	0.0	282.1594190597534	
63	268.7819080352783	movie	1		300	61.0	2.5	/experiments/Knapen_AOT/AOT_stimuli/rescaled_final/1071_rv.mp4	0.0	282.5843539237976	2.500340223312378
63	269.9572389125824	pulse	1	t		61.0	2.5	/experiments/Knapen_AOT/AOT_stimuli/rescaled_final/1071_rv.mp4	0.0	283.7596848011017	
63	271.2822482585907	fix_post	2		12	61.0	2.5	/experiments/Knapen_AOT/AOT_stimuli/rescaled_final/1071_rv.mp4	0.0	285.08469414711	0.10001492500305176
64	271.38226318359375	fix_pre	0		120	62.0	2.5	/experiments/Knapen_AOT/AOT_stimuli/rescaled_final/1154_rv.mp4	0.0	285.18470907211304	1.0001451969146729
64	271.55739641189575	pulse	0	t		62.0	2.5	/experiments/Knapen_AOT/AOT_stimuli/rescaled_final/1154_rv.mp4	0.0	285.35984230041504	
64	272.3824083805084	movie	1		300	62.0	2.5	/experiments/Knapen_AOT/AOT_stimuli/rescaled_final/1154_rv.mp4	0.0	286.1848542690277	2.500380039215088
64	273.1576244831085	pulse	1	t		62.0	2.5	/experiments/Knapen_AOT/AOT_stimuli/rescaled_final/1154_rv.mp4	0.0	286.9600703716278	
64	274.7578854560852	pulse	1	t		62.0	2.5	/experiments/Knapen_AOT/AOT_stimuli/rescaled_final/1154_rv.mp4	0.0	288.5603313446045	
64	274.8827884197235	fix_post	2		12	62.0	2.5	/experiments/Knapen_AOT/AOT_stimuli/rescaled_final/1154_rv.mp4	0.0	288.6852343082428	0.10001158714294434
65	274.98280000686646	fix_pre	0		120	63.0	2.5	blank	1.0	288.78524589538574	1.000148057937622
65	275.9829480648041	movie	1		299	63.0	2.5	blank	1.0	289.78539395332336	2.492051839828491
65	276.358110666275	pulse	1	t		63.0	2.5	blank	1.0	290.1605565547943	
65	277.9584159851074	pulse	1	t		63.0	2.5	blank	1.0	291.7608618736267	
65	278.47499990463257	fix_post	2		12	63.0	2.5	blank	1.0	292.27744579315186	0.10002732276916504
66	278.57502722740173	fix_pre	0		119	64.0	2.5	/experiments/Knapen_AOT/AOT_stimuli/rescaled_final/1026_rv.mp4	0.0	292.377473115921	1.0001862049102783
66	279.5585958957672	pulse	0	t		64.0	2.5	/experiments/Knapen_AOT/AOT_stimuli/rescaled_final/1026_rv.mp4	0.0	293.3610417842865	
66	279.575213432312	movie	1		299	64.0	2.5	/experiments/Knapen_AOT/AOT_stimuli/rescaled_final/1026_rv.mp4	0.0	293.3776593208313	2.5003440380096436
66	281.15893745422363	pulse	1	t		64.0	2.5	/experiments/Knapen_AOT/AOT_stimuli/rescaled_final/1026_rv.mp4	0.0	294.9613833427429	
66	282.07555747032166	fix_post	2		12	64.0	2.5	/experiments/Knapen_AOT/AOT_stimuli/rescaled_final/1026_rv.mp4	0.0	295.87800335884094	0.10000491142272949
67	282.1755623817444	fix_pre	0		120	65.0	2.5	/experiments/Knapen_AOT/AOT_stimuli/rescaled_final/1138_fw.mp4	0.0	295.9780082702637	1.0001637935638428
67	282.75905299186707	pulse	0	t		65.0	2.5	/experiments/Knapen_AOT/AOT_stimuli/rescaled_final/1138_fw.mp4	0.0	296.56149888038635	
67	283.1757261753082	movie	1		299	65.0	2.5	/experiments/Knapen_AOT/AOT_stimuli/rescaled_final/1138_fw.mp4	0.0	296.9781720638275	2.5003395080566406
67	284.3594024181366	pulse	1	t		65.0	2.5	/experiments/Knapen_AOT/AOT_stimuli/rescaled_final/1138_fw.mp4	0.0	298.1618483066559	
67	285.67606568336487	fix_post	2		12	65.0	2.5	/experiments/Knapen_AOT/AOT_stimuli/rescaled_final/1138_fw.mp4	0.0	299.47851157188416	0.10001778602600098
68	285.77608346939087	fix_pre	0		120	66.0	2.5	/experiments/Knapen_AOT/AOT_stimuli/rescaled_final/0403_fw.mp4	0.0	299.57852935791016	1.0001490116119385
68	285.9595425128937	pulse	0	t		66.0	2.5	/experiments/Knapen_AOT/AOT_stimuli/rescaled_final/0403_fw.mp4	0.0	299.76198840141296	
68	286.7762324810028	movie	1		300	66.0	2.5	/experiments/Knapen_AOT/AOT_stimuli/rescaled_final/0403_fw.mp4	0.0	300.5786783695221	2.5003955364227295
68	287.5597939491272	pulse	1	t		66.0	2.5	/experiments/Knapen_AOT/AOT_stimuli/rescaled_final/0403_fw.mp4	0.0	301.3622398376465	
68	289.1601026058197	pulse	1	t		66.0	2.5	/experiments/Knapen_AOT/AOT_stimuli/rescaled_final/0403_fw.mp4	0.0	302.962548494339	
68	289.27662801742554	fix_post	2		12	66.0	2.5	/experiments/Knapen_AOT/AOT_stimuli/rescaled_final/0403_fw.mp4	0.0	303.0790739059448	0.10001921653747559
69	289.376647233963	fix_pre	0		120	67.0	2.5	/experiments/Knapen_AOT/AOT_stimuli/rescaled_final/2153_fw.mp4	0.0	303.1790931224823	1.0001356601715088
69	290.3767828941345	movie	1		299	67.0	2.5	/experiments/Knapen_AOT/AOT_stimuli/rescaled_final/2153_fw.mp4	0.0	304.1792287826538	2.492034673690796
69	290.7603118419647	pulse	1	t		67.0	2.5	/experiments/Knapen_AOT/AOT_stimuli/rescaled_final/2153_fw.mp4	0.0	304.562757730484	
69	292.36057901382446	pulse	1	t		67.0	2.5	/experiments/Knapen_AOT/AOT_stimuli/rescaled_final/2153_fw.mp4	0.0	306.16302490234375	
69	292.8688175678253	fix_post	2		12	67.0	2.5	/experiments/Knapen_AOT/AOT_stimuli/rescaled_final/2153_fw.mp4	0.0	306.6712634563446	0.10001540184020996
70	292.9688329696655	fix_pre	0		120	68.0	2.5	blank	1.0	306.7712788581848	1.00016188621521
70	293.96074056625366	pulse	0	t		68.0	2.5	blank	1.0	307.76318645477295	
70	293.96899485588074	movie	1		301	68.0	2.5	blank	1.0	307.7714407444	2.508700132369995
70	295.5609872341156	pulse	1	t		68.0	2.5	blank	1.0	309.3634331226349	
70	296.47769498825073	fix_post	2		12	68.0	2.5	blank	1.0	310.28014087677	0.1000370979309082
71	296.57773208618164	fix_pre	0		120	69.0	2.5	/experiments/Knapen_AOT/AOT_stimuli/rescaled_final/1588_rv.mp4	0.0	310.3801779747009	1.0084800720214844
71	297.16132140159607	pulse	0	t		69.0	2.5	/experiments/Knapen_AOT/AOT_stimuli/rescaled_final/1588_rv.mp4	0.0	310.96376729011536	
71	297.5862121582031	movie	1		299	69.0	2.5	/experiments/Knapen_AOT/AOT_stimuli/rescaled_final/1588_rv.mp4	0.0	311.3886580467224	2.4920272827148438
71	298.757440328598	pulse	1	t		69.0	2.5	/experiments/Knapen_AOT/AOT_stimuli/rescaled_final/1588_rv.mp4	0.0	312.5598862171173	
71	300.07823944091797	fix_post	2		12	69.0	2.5	/experiments/Knapen_AOT/AOT_stimuli/rescaled_final/1588_rv.mp4	0.0	313.88068532943726	0.10004281997680664
72	300.1782822608948	fix_pre	0		120	70.0	2.5	/experiments/Knapen_AOT/AOT_stimuli/rescaled_final/1992_fw.mp4	0.0	313.98072814941406	1.0001835823059082
72	300.3617124557495	pulse	0	t		70.0	2.5	/experiments/Knapen_AOT/AOT_stimuli/rescaled_final/1992_fw.mp4	0.0	314.1641583442688	
72	301.1784658432007	movie	1		300	70.0	2.5	/experiments/Knapen_AOT/AOT_stimuli/rescaled_final/1992_fw.mp4	0.0	314.98091173171997	2.5003364086151123
72	301.9575843811035	pulse	1	t		70.0	2.5	/experiments/Knapen_AOT/AOT_stimuli/rescaled_final/1992_fw.mp4	0.0	315.7600302696228	
72	303.55792713165283	pulse	1	t		70.0	2.5	/experiments/Knapen_AOT/AOT_stimuli/rescaled_final/1992_fw.mp4	0.0	317.3603730201721	
72	303.6788022518158	fix_post	2		12	70.0	2.5	/experiments/Knapen_AOT/AOT_stimuli/rescaled_final/1992_fw.mp4	0.0	317.4812481403351	0.10001039505004883
73	303.77881264686584	fix_pre	0		120	71.0	2.5	/experiments/Knapen_AOT/AOT_stimuli/rescaled_final/0936_fw.mp4	0.0	317.58125853538513	1.0001375675201416
73	304.778950214386	movie	1		299	71.0	2.5	/experiments/Knapen_AOT/AOT_stimuli/rescaled_final/0936_fw.mp4	0.0	318.5813961029053	2.4920358657836914
73	305.1585063934326	pulse	1	t		71.0	2.5	/experiments/Knapen_AOT/AOT_stimuli/rescaled_final/0936_fw.mp4	0.0	318.9609522819519	
73	306.75837898254395	pulse	1	t		71.0	2.5	/experiments/Knapen_AOT/AOT_stimuli/rescaled_final/0936_fw.mp4	0.0	320.56082487106323	
73	307.2709860801697	fix_post	2		12	71.0	2.5	/experiments/Knapen_AOT/AOT_stimuli/rescaled_final/0936_fw.mp4	0.0	321.07343196868896	0.10001134872436523
74	307.37099742889404	fix_pre	0		120	72.0	2.5	/experiments/Knapen_AOT/AOT_stimuli/rescaled_final/1303_fw.mp4	0.0	321.17344331741333	1.0085067749023438
74	308.36291217803955	pulse	0	t		72.0	2.5	/experiments/Knapen_AOT/AOT_stimuli/rescaled_final/1303_fw.mp4	0.0	322.16535806655884	
74	308.3795042037964	movie	1		300	72.0	2.5	/experiments/Knapen_AOT/AOT_stimuli/rescaled_final/1303_fw.mp4	0.0	322.1819500923157	2.5003719329833984
74	309.95973110198975	pulse	1	t		72.0	2.5	/experiments/Knapen_AOT/AOT_stimuli/rescaled_final/1303_fw.mp4	0.0	323.76217699050903	
74	310.8798761367798	fix_post	2		12	72.0	2.5	/experiments/Knapen_AOT/AOT_stimuli/rescaled_final/1303_fw.mp4	0.0	324.6823220252991	0.1000058650970459
75	310.97988200187683	fix_pre	0		120	73.0	2.5	/experiments/Knapen_AOT/AOT_stimuli/rescaled_final/0092_rv.mp4	0.0	324.7823278903961	1.000152349472046
75	311.5633895397186	pulse	0	t		73.0	2.5	/experiments/Knapen_AOT/AOT_stimuli/rescaled_final/0092_rv.mp4	0.0	325.3658354282379	
75	311.9800343513489	movie	1		300	73.0	2.5	/experiments/Knapen_AOT/AOT_stimuli/rescaled_final/0092_rv.mp4	0.0	325.78248023986816	2.500375509262085
75	313.1593897342682	pulse	1	t		73.0	2.5	/experiments/Knapen_AOT/AOT_stimuli/rescaled_final/0092_rv.mp4	0.0	326.9618356227875	
75	314.48040986061096	fix_post	2		12	73.0	2.5	/experiments/Knapen_AOT/AOT_stimuli/rescaled_final/0092_rv.mp4	0.0	328.28285574913025	0.10001826286315918
76	314.5804281234741	fix_pre	0		120	74.0	2.5	/experiments/Knapen_AOT/AOT_stimuli/rescaled_final/0094_fw.mp4	0.0	328.3828740119934	1.00016188621521
76	314.76387667655945	pulse	0	t		74.0	2.5	/experiments/Knapen_AOT/AOT_stimuli/rescaled_final/0094_fw.mp4	0.0	328.56632256507874	
76	315.58059000968933	movie	1		300	74.0	2.5	/experiments/Knapen_AOT/AOT_stimuli/rescaled_final/0094_fw.mp4	0.0	329.3830358982086	2.5003538131713867
76	316.3596441745758	pulse	1	t		74.0	2.5	/experiments/Knapen_AOT/AOT_stimuli/rescaled_final/0094_fw.mp4	0.0	330.1620900630951	
76	317.9601447582245	pulse	1	t		74.0	2.5	/experiments/Knapen_AOT/AOT_stimuli/rescaled_final/0094_fw.mp4	0.0	331.7625906467438	
76	318.0809438228607	fix_post	2		12	74.0	2.5	/experiments/Knapen_AOT/AOT_stimuli/rescaled_final/0094_fw.mp4	0.0	331.88338971138	0.10002756118774414
77	318.18097138404846	fix_pre	0		120	75.0	2.5	/experiments/Knapen_AOT/AOT_stimuli/rescaled_final/0059_fw.mp4	0.0	331.98341727256775	1.0001473426818848
77	319.18111872673035	movie	1		298	75.0	2.5	/experiments/Knapen_AOT/AOT_stimuli/rescaled_final/0059_fw.mp4	0.0	332.98356461524963	2.492041826248169
77	319.5606210231781	pulse	1	t		75.0	2.5	/experiments/Knapen_AOT/AOT_stimuli/rescaled_final/0059_fw.mp4	0.0	333.3630669116974	
77	321.1604254245758	pulse	1	t		75.0	2.5	/experiments/Knapen_AOT/AOT_stimuli/rescaled_final/0059_fw.mp4	0.0	334.9628713130951	
77	321.6731605529785	fix_post	2		12	75.0	2.5	/experiments/Knapen_AOT/AOT_stimuli/rescaled_final/0059_fw.mp4	0.0	335.4756064414978	0.10001540184020996
78	321.7731759548187	fix_pre	0		120	76.0	2.5	blank	1.0	335.575621843338	1.000147819519043
78	322.75709342956543	pulse	0	t		76.0	2.5	blank	1.0	336.5595393180847	
78	322.77332377433777	movie	1		301	76.0	2.5	blank	1.0	336.57576966285706	2.5087051391601562
78	324.3571574687958	pulse	1	t		76.0	2.5	blank	1.0	338.15960335731506	
78	325.2820289134979	fix_post	2		12	76.0	2.5	blank	1.0	339.0844748020172	0.10001683235168457
79	325.3820457458496	fix_pre	0		120	77.0	2.5	/experiments/Knapen_AOT/AOT_stimuli/rescaled_final/2141_fw.mp4	0.0	339.1844916343689	1.0004334449768066
79	325.9572992324829	pulse	0	t		77.0	2.5	/experiments/Knapen_AOT/AOT_stimuli/rescaled_final/2141_fw.mp4	0.0	339.7597451210022	
79	326.3824791908264	movie	1		300	77.0	2.5	/experiments/Knapen_AOT/AOT_stimuli/rescaled_final/2141_fw.mp4	0.0	340.1849250793457	2.5000839233398438
79	327.5575342178345	pulse	1	t		77.0	2.5	/experiments/Knapen_AOT/AOT_stimuli/rescaled_final/2141_fw.mp4	0.0	341.35998010635376	
79	328.88256311416626	fix_post	2		12	77.0	2.5	/experiments/Knapen_AOT/AOT_stimuli/rescaled_final/2141_fw.mp4	0.0	342.68500900268555	0.10002970695495605
80	328.9825928211212	fix_pre	0		120	78.0	2.5	/experiments/Knapen_AOT/AOT_stimuli/rescaled_final/1281_rv.mp4	0.0	342.7850387096405	1.0001420974731445
80	329.15773367881775	pulse	0	t		78.0	2.5	/experiments/Knapen_AOT/AOT_stimuli/rescaled_final/1281_rv.mp4	0.0	342.96017956733704	
80	329.98273491859436	movie	1		299	78.0	2.5	/experiments/Knapen_AOT/AOT_stimuli/rescaled_final/1281_rv.mp4	0.0	343.78518080711365	2.500382900238037
80	330.75796484947205	pulse	1	t		78.0	2.5	/experiments/Knapen_AOT/AOT_stimuli/rescaled_final/1281_rv.mp4	0.0	344.56041073799133	
80	332.3582248687744	pulse	1	t		78.0	2.5	/experiments/Knapen_AOT/AOT_stimuli/rescaled_final/1281_rv.mp4	0.0	346.1606707572937	
80	332.4831178188324	fix_post	2		12	78.0	2.5	/experiments/Knapen_AOT/AOT_stimuli/rescaled_final/1281_rv.mp4	0.0	346.2855637073517	0.10004210472106934
81	332.58315992355347	fix_pre	0		120	79.0	2.5	/experiments/Knapen_AOT/AOT_stimuli/rescaled_final/1625_fw.mp4	0.0	346.38560581207275	1.000117540359497
81	333.58327746391296	movie	1		299	79.0	2.5	/experiments/Knapen_AOT/AOT_stimuli/rescaled_final/1625_fw.mp4	0.0	347.38572335243225	2.492032766342163
81	333.95866417884827	pulse	1	t		79.0	2.5	/experiments/Knapen_AOT/AOT_stimuli/rescaled_final/1625_fw.mp4	0.0	347.76111006736755	
81	335.5586767196655	pulse	1	t		79.0	2.5	/experiments/Knapen_AOT/AOT_stimuli/rescaled_final/1625_fw.mp4	0.0	349.3611226081848	
81	336.0753102302551	fix_post	2		12	79.0	2.5	/experiments/Knapen_AOT/AOT_stimuli/rescaled_final/1625_fw.mp4	0.0	349.8777561187744	0.10001850128173828
82	336.17532873153687	fix_pre	0		119	80.0	2.5	/experiments/Knapen_AOT/AOT_stimuli/rescaled_final/0409_rv.mp4	0.0	349.97777462005615	0.9917929172515869
82	337.1588935852051	pulse	0	t		80.0	2.5	/experiments/Knapen_AOT/AOT_stimuli/rescaled_final/0409_rv.mp4	0.0	350.96133947372437	
82	337.16712164878845	movie	1		301	80.0	2.5	/experiments/Knapen_AOT/AOT_stimuli/rescaled_final/0409_rv.mp4	0.0	350.96956753730774	2.5087335109710693
82	338.75929379463196	pulse	1	t		80.0	2.5	/experiments/Knapen_AOT/AOT_stimuli/rescaled_final/0409_rv.mp4	0.0	352.56173968315125	
82	339.6758551597595	fix_post	2		12	80.0	2.5	/experiments/Knapen_AOT/AOT_stimuli/rescaled_final/0409_rv.mp4	0.0	353.4783010482788	0.10001969337463379
83	339.77587485313416	fix_pre	0		120	81.0	2.5	/experiments/Knapen_AOT/AOT_stimuli/rescaled_final/1027_rv.mp4	0.0	353.57832074165344	1.0001659393310547
83	340.35942578315735	pulse	0	t		81.0	2.5	/experiments/Knapen_AOT/AOT_stimuli/rescaled_final/1027_rv.mp4	0.0	354.16187167167664	
83	340.7760407924652	movie	1		300	81.0	2.5	/experiments/Knapen_AOT/AOT_stimuli/rescaled_final/1027_rv.mp4	0.0	354.5784866809845	2.5004007816314697
83	341.9596800804138	pulse	1	t		81.0	2.5	/experiments/Knapen_AOT/AOT_stimuli/rescaled_final/1027_rv.mp4	0.0	355.7621259689331	
83	343.2764415740967	fix_post	2		12	81.0	2.5	/experiments/Knapen_AOT/AOT_stimuli/rescaled_final/1027_rv.mp4	0.0	357.07888746261597	0.10000944137573242
84	343.3764510154724	fix_pre	0		120	82.0	2.5	/experiments/Knapen_AOT/AOT_stimuli/rescaled_final/0388_fw.mp4	0.0	357.1788969039917	1.0001122951507568
84	343.55988335609436	pulse	0	t		82.0	2.5	/experiments/Knapen_AOT/AOT_stimuli/rescaled_final/0388_fw.mp4	0.0	357.36232924461365	
84	344.37656331062317	movie	1		300	82.0	2.5	/experiments/Knapen_AOT/AOT_stimuli/rescaled_final/0388_fw.mp4	0.0	358.17900919914246	2.5003719329833984
84	345.1601264476776	pulse	1	t		82.0	2.5	/experiments/Knapen_AOT/AOT_stimuli/rescaled_final/0388_fw.mp4	0.0	358.9625723361969	
84	346.76037311553955	pulse	1	t		82.0	2.5	/experiments/Knapen_AOT/AOT_stimuli/rescaled_final/0388_fw.mp4	0.0	360.56281900405884	
84	346.87693524360657	fix_post	2		12	82.0	2.5	/experiments/Knapen_AOT/AOT_stimuli/rescaled_final/0388_fw.mp4	0.0	360.67938113212585	0.10004186630249023
85	346.97697710990906	fix_pre	0		120	83.0	2.5	blank	1.0	360.77942299842834	1.000138759613037
85	347.9771158695221	movie	1		299	83.0	2.5	blank	1.0	361.7795617580414	2.492011785507202
85	348.36057901382446	pulse	1	t		83.0	2.5	blank	1.0	362.16302490234375	
85	349.96081495285034	pulse	1	t		83.0	2.5	blank	1.0	363.76326084136963	
85	350.4691276550293	fix_post	2		12	83.0	2.5	blank	1.0	364.2715735435486	0.10003328323364258
87	350.56916093826294	stim	0		1716					364.3716068267822	14.302148580551147
87	351.561105966568	pulse	0	t						365.3635518550873	
87	353.1613025665283	pulse	0	t						366.9637484550476	
87	354.761638879776	pulse	0	t						368.5640847682953	
87	356.3617868423462	pulse	0	t						370.1642327308655	
87	357.9620180130005	pulse	0	t						371.7644639015198	
87	359.5622470378876	pulse	0	t						373.36469292640686	
87	361.16250872612	pulse	0	t						374.9649546146393	
87	362.7627203464508	pulse	0	t						376.5651662349701	
87	364.36297941207886	pulse	0	t						378.16542530059814	
