trial_nr	onset	event_type	phase	response	nr_frames	movie_index	movie_duration	movie_file	blank	onset_abs	duration
0	0.14990901947021484	stim	0		18					19.799628019332886	0.15002989768981934
0	0.2920999526977539	response	0	space						19.941818952560425	
1	0.2999389171600342	stim	0		4676					19.949657917022705	38.96685814857483
1	39.25670886039734	pulse	0	t						58.90642786026001	
1	39.26679706573486	stim	1		1717					58.916516065597534	14.308237791061401
1	40.851069927215576	pulse	1	t						60.50078892707825	
1	42.451042890548706	pulse	1	t						62.10076189041138	
1	44.05094885826111	pulse	1	t						63.70066785812378	
1	45.65105390548706	pulse	1	t						65.30077290534973	
1	47.25117802619934	pulse	1	t						66.90089702606201	
1	48.850244998931885	pulse	1	t						68.49996399879456	
1	50.45020794868469	pulse	1	t						70.09992694854736	
1	52.05106997489929	pulse	1	t						71.70078897476196	
2	53.575034856796265	fix_pre	0		11	0.0	2.5	/experiments/AOT/AOT_stimuli/rescaled_final/0976_rv.mp4	0.0	73.22475385665894	0.09165215492248535
2	53.65099000930786	pulse	0	t		0.0	2.5	/experiments/AOT/AOT_stimuli/rescaled_final/0976_rv.mp4	0.0	73.30070900917053	
2	53.66668701171875	movie	1		246	0.0	2.5	/experiments/AOT/AOT_stimuli/rescaled_final/0976_rv.mp4	0.0	73.31640601158142	2.5080599784851074
2	55.259345054626465	pulse	1	t		0.0	2.5	/experiments/AOT/AOT_stimuli/rescaled_final/0976_rv.mp4	0.0	74.90906405448914	
2	56.17474699020386	fix_post	2		12	0.0	2.5	/experiments/AOT/AOT_stimuli/rescaled_final/0976_rv.mp4	0.0	75.82446599006653	0.09989094734191895
3	56.274637937545776	fix_pre	0		120	1.0	2.5	/experiments/AOT/AOT_stimuli/rescaled_final/0141_rv.mp4	0.0	75.92435693740845	1.0001630783081055
3	56.8511700630188	pulse	0	t		1.0	2.5	/experiments/AOT/AOT_stimuli/rescaled_final/0141_rv.mp4	0.0	76.50088906288147	
3	57.27480101585388	movie	1		243	1.0	2.5	/experiments/AOT/AOT_stimuli/rescaled_final/0141_rv.mp4	0.0	76.92452001571655	2.5002009868621826
3	58.451415061950684	pulse	1	t		1.0	2.5	/experiments/AOT/AOT_stimuli/rescaled_final/0141_rv.mp4	0.0	78.10113406181335	
3	59.775002002716064	fix_post	2		12	1.0	2.5	/experiments/AOT/AOT_stimuli/rescaled_final/0141_rv.mp4	0.0	79.42472100257874	0.09994387626647949
4	59.874945878982544	fix_pre	0		120	2.0	2.5	/experiments/AOT/AOT_stimuli/rescaled_final/2096_rv.mp4	0.0	79.52466487884521	1.0000991821289062
4	60.051109075546265	pulse	0	t		2.0	2.5	/experiments/AOT/AOT_stimuli/rescaled_final/2096_rv.mp4	0.0	79.70082807540894	
4	60.87504506111145	movie	1		246	2.0	2.5	/experiments/AOT/AOT_stimuli/rescaled_final/2096_rv.mp4	0.0	80.52476406097412	2.499910831451416
4	61.650928020477295	pulse	1	t		2.0	2.5	/experiments/AOT/AOT_stimuli/rescaled_final/2096_rv.mp4	0.0	81.30064702033997	
4	63.25712704658508	pulse	1	t		2.0	2.5	/experiments/AOT/AOT_stimuli/rescaled_final/2096_rv.mp4	0.0	82.90684604644775	
4	63.374955892562866	fix_post	2		12	2.0	2.5	/experiments/AOT/AOT_stimuli/rescaled_final/2096_rv.mp4	0.0	83.02467489242554	0.09997296333312988
5	63.474928855895996	fix_pre	0		120	3.0	2.5	/experiments/AOT/AOT_stimuli/rescaled_final/1518_fw.mp4	0.0	83.12464785575867	0.9996130466461182
5	64.47454190254211	movie	1		244	3.0	2.5	/experiments/AOT/AOT_stimuli/rescaled_final/1518_fw.mp4	0.0	84.12426090240479	2.5000979900360107
5	64.85800886154175	pulse	1	t		3.0	2.5	/experiments/AOT/AOT_stimuli/rescaled_final/1518_fw.mp4	0.0	84.50772786140442	
5	66.45109295845032	pulse	1	t		3.0	2.5	/experiments/AOT/AOT_stimuli/rescaled_final/1518_fw.mp4	0.0	86.10081195831299	
5	66.97463989257812	fix_post	2		12	3.0	2.5	/experiments/AOT/AOT_stimuli/rescaled_final/1518_fw.mp4	0.0	86.6243588924408	0.10028600692749023
6	67.07492589950562	fix_pre	0		119	4.0	2.5	/experiments/AOT/AOT_stimuli/rescaled_final/1040_rv.mp4	0.0	86.72464489936829	0.9916369915008545
6	68.05841207504272	pulse	0	t		4.0	2.5	/experiments/AOT/AOT_stimuli/rescaled_final/1040_rv.mp4	0.0	87.7081310749054	
6	68.06656289100647	movie	1		246	4.0	2.5	/experiments/AOT/AOT_stimuli/rescaled_final/1040_rv.mp4	0.0	87.71628189086914	2.5083999633789062
6	69.65791988372803	pulse	1	t		4.0	2.5	/experiments/AOT/AOT_stimuli/rescaled_final/1040_rv.mp4	0.0	89.3076388835907	
6	70.57496285438538	fix_post	2		12	4.0	2.5	/experiments/AOT/AOT_stimuli/rescaled_final/1040_rv.mp4	0.0	90.22468185424805	0.09989619255065918
7	70.67485904693604	fix_pre	0		120	5.0	2.5	/experiments/AOT/AOT_stimuli/rescaled_final/1629_fw.mp4	0.0	90.3245780467987	0.9996688365936279
7	71.25088000297546	pulse	0	t		5.0	2.5	/experiments/AOT/AOT_stimuli/rescaled_final/1629_fw.mp4	0.0	90.90059900283813	
7	71.67452788352966	movie	1		244	5.0	2.5	/experiments/AOT/AOT_stimuli/rescaled_final/1629_fw.mp4	0.0	91.32424688339233	2.4999489784240723
7	72.85111808776855	pulse	1	t		5.0	2.5	/experiments/AOT/AOT_stimuli/rescaled_final/1629_fw.mp4	0.0	92.50083708763123	
7	74.17447686195374	fix_post	2		12	5.0	2.5	/experiments/AOT/AOT_stimuli/rescaled_final/1629_fw.mp4	0.0	93.8241958618164	0.10037922859191895
8	74.27485609054565	fix_pre	0		120	6.0	2.5	/experiments/AOT/AOT_stimuli/rescaled_final/0836_fw.mp4	0.0	93.92457509040833	1.0001068115234375
8	74.45087099075317	pulse	0	t		6.0	2.5	/experiments/AOT/AOT_stimuli/rescaled_final/0836_fw.mp4	0.0	94.10058999061584	
8	75.27496290206909	movie	1		243	6.0	2.5	/experiments/AOT/AOT_stimuli/rescaled_final/0836_fw.mp4	0.0	94.92468190193176	2.4999091625213623
8	76.05091500282288	pulse	1	t		6.0	2.5	/experiments/AOT/AOT_stimuli/rescaled_final/0836_fw.mp4	0.0	95.70063400268555	
8	77.65659499168396	pulse	1	t		6.0	2.5	/experiments/AOT/AOT_stimuli/rescaled_final/0836_fw.mp4	0.0	97.30631399154663	
8	77.77487206459045	fix_post	2		12	6.0	2.5	/experiments/AOT/AOT_stimuli/rescaled_final/0836_fw.mp4	0.0	97.42459106445312	0.1000509262084961
9	77.87492299079895	fix_pre	0		120	7.0	2.5	blank	1.0	97.52464199066162	1.000067949295044
9	78.874990940094	movie	1		300	7.0	2.5	blank	1.0	98.52470993995667	2.499436140060425
9	79.25086998939514	pulse	1	t		7.0	2.5	blank	1.0	98.90058898925781	
9	80.850830078125	pulse	1	t		7.0	2.5	blank	1.0	100.50054907798767	
9	81.37442708015442	fix_post	2		12	7.0	2.5	blank	1.0	101.02414608001709	0.10040998458862305
10	81.47483706474304	fix_pre	0		119	8.0	2.5	/experiments/AOT/AOT_stimuli/rescaled_final/1162_fw.mp4	0.0	101.12455606460571	0.9916548728942871
10	82.45080995559692	pulse	0	t		8.0	2.5	/experiments/AOT/AOT_stimuli/rescaled_final/1162_fw.mp4	0.0	102.1005289554596	
10	82.46649193763733	movie	1		245	8.0	2.5	/experiments/AOT/AOT_stimuli/rescaled_final/1162_fw.mp4	0.0	102.1162109375	2.508310079574585
10	84.05809092521667	pulse	1	t		8.0	2.5	/experiments/AOT/AOT_stimuli/rescaled_final/1162_fw.mp4	0.0	103.70780992507935	
10	84.97480201721191	fix_post	2		12	8.0	2.5	/experiments/AOT/AOT_stimuli/rescaled_final/1162_fw.mp4	0.0	104.62452101707458	0.10003805160522461
11	85.07484006881714	fix_pre	0		120	9.0	2.5	/experiments/AOT/AOT_stimuli/rescaled_final/0114_fw.mp4	0.0	104.72455906867981	0.9995739459991455
11	85.65838599205017	pulse	0	t		9.0	2.5	/experiments/AOT/AOT_stimuli/rescaled_final/0114_fw.mp4	0.0	105.30810499191284	
11	86.07441401481628	movie	1		247	9.0	2.5	/experiments/AOT/AOT_stimuli/rescaled_final/0114_fw.mp4	0.0	105.72413301467896	2.500375986099243
11	87.25849485397339	pulse	1	t		9.0	2.5	/experiments/AOT/AOT_stimuli/rescaled_final/0114_fw.mp4	0.0	106.90821385383606	
11	88.57479000091553	fix_post	2		12	9.0	2.5	/experiments/AOT/AOT_stimuli/rescaled_final/0114_fw.mp4	0.0	108.2245090007782	0.10001802444458008
12	88.67480802536011	fix_pre	0		120	10.0	2.5	/experiments/AOT/AOT_stimuli/rescaled_final/2021_fw.mp4	0.0	108.32452702522278	0.9999978542327881
12	88.85085797309875	pulse	0	t		10.0	2.5	/experiments/AOT/AOT_stimuli/rescaled_final/2021_fw.mp4	0.0	108.50057697296143	
12	89.6748058795929	movie	1		246	10.0	2.5	/experiments/AOT/AOT_stimuli/rescaled_final/2021_fw.mp4	0.0	109.32452487945557	2.499988079071045
12	90.45114302635193	pulse	1	t		10.0	2.5	/experiments/AOT/AOT_stimuli/rescaled_final/2021_fw.mp4	0.0	110.1008620262146	
12	92.0571038722992	pulse	1	t		10.0	2.5	/experiments/AOT/AOT_stimuli/rescaled_final/2021_fw.mp4	0.0	111.70682287216187	
12	92.17479395866394	fix_post	2		12	10.0	2.5	/experiments/AOT/AOT_stimuli/rescaled_final/2021_fw.mp4	0.0	111.82451295852661	0.09997892379760742
13	92.27477288246155	fix_pre	0		120	11.0	2.5	/experiments/AOT/AOT_stimuli/rescaled_final/1781_rv.mp4	0.0	111.92449188232422	1.000020980834961
13	93.27479386329651	movie	1		245	11.0	2.5	/experiments/AOT/AOT_stimuli/rescaled_final/1781_rv.mp4	0.0	112.92451286315918	2.499997138977051
13	93.65822696685791	pulse	1	t		11.0	2.5	/experiments/AOT/AOT_stimuli/rescaled_final/1781_rv.mp4	0.0	113.30794596672058	
13	95.25106596946716	pulse	1	t		11.0	2.5	/experiments/AOT/AOT_stimuli/rescaled_final/1781_rv.mp4	0.0	114.90078496932983	
13	95.77479100227356	fix_post	2		12	11.0	2.5	/experiments/AOT/AOT_stimuli/rescaled_final/1781_rv.mp4	0.0	115.42451000213623	0.10003495216369629
14	95.87482595443726	fix_pre	0		119	12.0	2.5	blank	1.0	115.52454495429993	0.9915881156921387
14	96.85081386566162	pulse	0	t		12.0	2.5	blank	1.0	116.50053286552429	
14	96.8664140701294	movie	1		301	12.0	2.5	blank	1.0	116.51613306999207	2.507964849472046
14	98.45073699951172	pulse	1	t		12.0	2.5	blank	1.0	118.10045599937439	
14	99.37437891960144	fix_post	2		12	12.0	2.5	blank	1.0	119.02409791946411	0.10042715072631836
15	99.47480607032776	fix_pre	0		120	13.0	2.5	/experiments/AOT/AOT_stimuli/rescaled_final/0670_fw.mp4	0.0	119.12452507019043	1.0000159740447998
15	100.05833601951599	pulse	0	t		13.0	2.5	/experiments/AOT/AOT_stimuli/rescaled_final/0670_fw.mp4	0.0	119.70805501937866	
15	100.47482204437256	movie	1		243	13.0	2.5	/experiments/AOT/AOT_stimuli/rescaled_final/0670_fw.mp4	0.0	120.12454104423523	2.4999380111694336
15	101.65835785865784	pulse	1	t		13.0	2.5	/experiments/AOT/AOT_stimuli/rescaled_final/0670_fw.mp4	0.0	121.30807685852051	
15	102.97476005554199	fix_post	2		12	13.0	2.5	/experiments/AOT/AOT_stimuli/rescaled_final/0670_fw.mp4	0.0	122.62447905540466	0.09999799728393555
16	103.07475805282593	fix_pre	0		120	14.0	2.5	/experiments/AOT/AOT_stimuli/rescaled_final/0413_fw.mp4	0.0	122.7244770526886	0.9999949932098389
16	103.25829291343689	pulse	0	t		14.0	2.5	/experiments/AOT/AOT_stimuli/rescaled_final/0413_fw.mp4	0.0	122.90801191329956	
16	104.07475304603577	movie	1		244	14.0	2.5	/experiments/AOT/AOT_stimuli/rescaled_final/0413_fw.mp4	0.0	123.72447204589844	2.5000078678131104
16	104.85827803611755	pulse	1	t		14.0	2.5	/experiments/AOT/AOT_stimuli/rescaled_final/0413_fw.mp4	0.0	124.50799703598022	
16	106.45691704750061	pulse	1	t		14.0	2.5	/experiments/AOT/AOT_stimuli/rescaled_final/0413_fw.mp4	0.0	126.10663604736328	
16	106.57476091384888	fix_post	2		12	14.0	2.5	/experiments/AOT/AOT_stimuli/rescaled_final/0413_fw.mp4	0.0	126.22447991371155	0.09995913505554199
17	106.67472004890442	fix_pre	0		120	15.0	2.5	/experiments/AOT/AOT_stimuli/rescaled_final/0140_fw.mp4	0.0	126.32443904876709	0.9996340274810791
17	107.6743540763855	movie	1		246	15.0	2.5	/experiments/AOT/AOT_stimuli/rescaled_final/0140_fw.mp4	0.0	127.32407307624817	2.50042986869812
17	108.05935096740723	pulse	1	t		15.0	2.5	/experiments/AOT/AOT_stimuli/rescaled_final/0140_fw.mp4	0.0	127.7090699672699	
17	109.65075588226318	pulse	1	t		15.0	2.5	/experiments/AOT/AOT_stimuli/rescaled_final/0140_fw.mp4	0.0	129.30047488212585	
17	110.17478394508362	fix_post	2		12	15.0	2.5	/experiments/AOT/AOT_stimuli/rescaled_final/0140_fw.mp4	0.0	129.8245029449463	0.10006403923034668
18	110.27484798431396	fix_pre	0		119	16.0	2.5	/experiments/AOT/AOT_stimuli/rescaled_final/1178_rv.mp4	0.0	129.92456698417664	0.9911580085754395
18	111.25777387619019	pulse	0	t		16.0	2.5	/experiments/AOT/AOT_stimuli/rescaled_final/1178_rv.mp4	0.0	130.90749287605286	
18	111.2660059928894	movie	1		245	16.0	2.5	/experiments/AOT/AOT_stimuli/rescaled_final/1178_rv.mp4	0.0	130.91572499275208	2.5090320110321045
18	112.85764503479004	pulse	1	t		16.0	2.5	/experiments/AOT/AOT_stimuli/rescaled_final/1178_rv.mp4	0.0	132.5073640346527	
18	113.77503800392151	fix_post	2		12	16.0	2.5	/experiments/AOT/AOT_stimuli/rescaled_final/1178_rv.mp4	0.0	133.42475700378418	0.10005998611450195
19	113.87509799003601	fix_pre	0		120	17.0	2.5	/experiments/AOT/AOT_stimuli/rescaled_final/1511_rv.mp4	0.0	133.52481698989868	0.9996669292449951
19	114.4507839679718	pulse	0	t		17.0	2.5	/experiments/AOT/AOT_stimuli/rescaled_final/1511_rv.mp4	0.0	134.10050296783447	
19	114.874764919281	movie	1		242	17.0	2.5	/experiments/AOT/AOT_stimuli/rescaled_final/1511_rv.mp4	0.0	134.52448391914368	2.500507116317749
19	116.0583188533783	pulse	1	t		17.0	2.5	/experiments/AOT/AOT_stimuli/rescaled_final/1511_rv.mp4	0.0	135.70803785324097	
19	117.37527203559875	fix_post	2		12	17.0	2.5	/experiments/AOT/AOT_stimuli/rescaled_final/1511_rv.mp4	0.0	137.02499103546143	0.09947896003723145
20	117.47475099563599	fix_pre	0		120	18.0	2.5	/experiments/AOT/AOT_stimuli/rescaled_final/2028_fw.mp4	0.0	137.12446999549866	0.9999229907989502
20	117.65821695327759	pulse	0	t		18.0	2.5	/experiments/AOT/AOT_stimuli/rescaled_final/2028_fw.mp4	0.0	137.30793595314026	
20	118.47467398643494	movie	1		243	18.0	2.5	/experiments/AOT/AOT_stimuli/rescaled_final/2028_fw.mp4	0.0	138.1243929862976	2.4999680519104004
20	119.25820088386536	pulse	1	t		18.0	2.5	/experiments/AOT/AOT_stimuli/rescaled_final/2028_fw.mp4	0.0	138.90791988372803	
20	120.85656595230103	pulse	1	t		18.0	2.5	/experiments/AOT/AOT_stimuli/rescaled_final/2028_fw.mp4	0.0	140.5062849521637	
20	120.97464203834534	fix_post	2		12	18.0	2.5	/experiments/AOT/AOT_stimuli/rescaled_final/2028_fw.mp4	0.0	140.624361038208	0.09998893737792969
21	121.07463097572327	fix_pre	0		120	19.0	2.5	/experiments/AOT/AOT_stimuli/rescaled_final/1195_rv.mp4	0.0	140.72434997558594	0.9996891021728516
21	122.07432007789612	movie	1		245	19.0	2.5	/experiments/AOT/AOT_stimuli/rescaled_final/1195_rv.mp4	0.0	141.7240390777588	2.5003738403320312
21	122.45821595191956	pulse	1	t		19.0	2.5	/experiments/AOT/AOT_stimuli/rescaled_final/1195_rv.mp4	0.0	142.10793495178223	
21	124.0507378578186	pulse	1	t		19.0	2.5	/experiments/AOT/AOT_stimuli/rescaled_final/1195_rv.mp4	0.0	143.70045685768127	
21	124.57469391822815	fix_post	2		12	19.0	2.5	/experiments/AOT/AOT_stimuli/rescaled_final/1195_rv.mp4	0.0	144.22441291809082	0.09996199607849121
22	124.67465591430664	fix_pre	0		119	20.0	2.5	/experiments/AOT/AOT_stimuli/rescaled_final/1504_fw.mp4	0.0	144.3243749141693	0.9916269779205322
22	125.65055894851685	pulse	0	t		20.0	2.5	/experiments/AOT/AOT_stimuli/rescaled_final/1504_fw.mp4	0.0	145.30027794837952	
22	125.66628289222717	movie	1		246	20.0	2.5	/experiments/AOT/AOT_stimuli/rescaled_final/1504_fw.mp4	0.0	145.31600189208984	2.508334159851074
22	127.25783491134644	pulse	1	t		20.0	2.5	/experiments/AOT/AOT_stimuli/rescaled_final/1504_fw.mp4	0.0	146.9075539112091	
22	128.17461705207825	fix_post	2		12	20.0	2.5	/experiments/AOT/AOT_stimuli/rescaled_final/1504_fw.mp4	0.0	147.82433605194092	0.10004496574401855
23	128.27466201782227	fix_pre	0		120	21.0	2.5	blank	1.0	147.92438101768494	0.9999179840087891
23	128.8507239818573	pulse	0	t		21.0	2.5	blank	1.0	148.50044298171997	
23	129.27458000183105	movie	1		300	21.0	2.5	blank	1.0	148.92429900169373	2.5001020431518555
23	130.45064902305603	pulse	1	t		21.0	2.5	blank	1.0	150.1003680229187	
23	131.7746820449829	fix_post	2		12	21.0	2.5	blank	1.0	151.42440104484558	0.10005688667297363
24	131.87473893165588	fix_pre	0		120	22.0	2.5	/experiments/AOT/AOT_stimuli/rescaled_final/0602_rv.mp4	0.0	151.52445793151855	0.9998669624328613
24	132.05818700790405	pulse	0	t		22.0	2.5	/experiments/AOT/AOT_stimuli/rescaled_final/0602_rv.mp4	0.0	151.70790600776672	
24	132.87460589408875	movie	1		245	22.0	2.5	/experiments/AOT/AOT_stimuli/rescaled_final/0602_rv.mp4	0.0	152.52432489395142	2.500041961669922
24	133.65814399719238	pulse	1	t		22.0	2.5	/experiments/AOT/AOT_stimuli/rescaled_final/0602_rv.mp4	0.0	153.30786299705505	
24	135.25705695152283	pulse	1	t		22.0	2.5	/experiments/AOT/AOT_stimuli/rescaled_final/0602_rv.mp4	0.0	154.9067759513855	
24	135.37464785575867	fix_post	2		12	22.0	2.5	/experiments/AOT/AOT_stimuli/rescaled_final/0602_rv.mp4	0.0	155.02436685562134	0.10001802444458008
25	135.47466588020325	fix_pre	0		120	23.0	2.5	/experiments/AOT/AOT_stimuli/rescaled_final/1022_rv.mp4	0.0	155.12438488006592	1.0000121593475342
25	136.47467803955078	movie	1		246	23.0	2.5	/experiments/AOT/AOT_stimuli/rescaled_final/1022_rv.mp4	0.0	156.12439703941345	2.499537944793701
25	136.85783696174622	pulse	1	t		23.0	2.5	/experiments/AOT/AOT_stimuli/rescaled_final/1022_rv.mp4	0.0	156.5075559616089	
25	138.45084500312805	pulse	1	t		23.0	2.5	/experiments/AOT/AOT_stimuli/rescaled_final/1022_rv.mp4	0.0	158.10056400299072	
25	138.97421598434448	fix_post	2		12	23.0	2.5	/experiments/AOT/AOT_stimuli/rescaled_final/1022_rv.mp4	0.0	158.62393498420715	0.10031604766845703
26	139.07453203201294	fix_pre	0		119	24.0	2.5	/experiments/AOT/AOT_stimuli/rescaled_final/0668_fw.mp4	0.0	158.7242510318756	0.9916820526123047
26	140.05815887451172	pulse	0	t		24.0	2.5	/experiments/AOT/AOT_stimuli/rescaled_final/0668_fw.mp4	0.0	159.7078778743744	
26	140.06621408462524	movie	1		244	24.0	2.5	/experiments/AOT/AOT_stimuli/rescaled_final/0668_fw.mp4	0.0	159.71593308448792	2.507962942123413
26	141.65780687332153	pulse	1	t		24.0	2.5	/experiments/AOT/AOT_stimuli/rescaled_final/0668_fw.mp4	0.0	161.3075258731842	
26	142.57417702674866	fix_post	2		12	24.0	2.5	/experiments/AOT/AOT_stimuli/rescaled_final/0668_fw.mp4	0.0	162.22389602661133	0.10001397132873535
27	142.6741909980774	fix_pre	0		120	25.0	2.5	/experiments/AOT/AOT_stimuli/rescaled_final/0773_rv.mp4	0.0	162.32390999794006	1.0003290176391602
27	143.2506890296936	pulse	0	t		25.0	2.5	/experiments/AOT/AOT_stimuli/rescaled_final/0773_rv.mp4	0.0	162.90040802955627	
27	143.67452001571655	movie	1		244	25.0	2.5	/experiments/AOT/AOT_stimuli/rescaled_final/0773_rv.mp4	0.0	163.32423901557922	2.499614953994751
27	144.85814785957336	pulse	1	t		25.0	2.5	/experiments/AOT/AOT_stimuli/rescaled_final/0773_rv.mp4	0.0	164.50786685943604	
27	146.1741349697113	fix_post	2		12	25.0	2.5	/experiments/AOT/AOT_stimuli/rescaled_final/0773_rv.mp4	0.0	165.82385396957397	0.10044693946838379
28	146.2745819091797	fix_pre	0		120	26.0	2.5	/experiments/AOT/AOT_stimuli/rescaled_final/0355_rv.mp4	0.0	165.92430090904236	0.9995770454406738
28	146.45050191879272	pulse	0	t		26.0	2.5	/experiments/AOT/AOT_stimuli/rescaled_final/0355_rv.mp4	0.0	166.1002209186554	
28	147.27415895462036	movie	1		245	26.0	2.5	/experiments/AOT/AOT_stimuli/rescaled_final/0355_rv.mp4	0.0	166.92387795448303	2.4999940395355225
28	148.05797600746155	pulse	1	t		26.0	2.5	/experiments/AOT/AOT_stimuli/rescaled_final/0355_rv.mp4	0.0	167.70769500732422	
28	149.6542420387268	pulse	1	t		26.0	2.5	/experiments/AOT/AOT_stimuli/rescaled_final/0355_rv.mp4	0.0	169.30396103858948	
28	149.77415299415588	fix_post	2		12	26.0	2.5	/experiments/AOT/AOT_stimuli/rescaled_final/0355_rv.mp4	0.0	169.42387199401855	0.10040998458862305
29	149.8745629787445	fix_pre	0		120	27.0	2.5	/experiments/AOT/AOT_stimuli/rescaled_final/1343_rv.mp4	0.0	169.52428197860718	0.9999918937683105
29	150.87455487251282	movie	1		244	27.0	2.5	/experiments/AOT/AOT_stimuli/rescaled_final/1343_rv.mp4	0.0	170.5242738723755	2.499993085861206
29	151.25885105133057	pulse	1	t		27.0	2.5	/experiments/AOT/AOT_stimuli/rescaled_final/1343_rv.mp4	0.0	170.90857005119324	
29	152.85806608200073	pulse	1	t		27.0	2.5	/experiments/AOT/AOT_stimuli/rescaled_final/1343_rv.mp4	0.0	172.5077850818634	
29	153.37454795837402	fix_post	2		12	27.0	2.5	/experiments/AOT/AOT_stimuli/rescaled_final/1343_rv.mp4	0.0	173.0242669582367	0.10002493858337402
30	153.4745728969574	fix_pre	0		119	28.0	2.5	blank	1.0	173.12429189682007	0.9915370941162109
30	154.4580750465393	pulse	0	t		28.0	2.5	blank	1.0	174.10779404640198	
30	154.4661099910736	movie	1		301	28.0	2.5	blank	1.0	174.11582899093628	2.508401870727539
30	156.0580039024353	pulse	1	t		28.0	2.5	blank	1.0	175.70772290229797	
30	156.97451186180115	fix_post	2		12	28.0	2.5	blank	1.0	176.62423086166382	0.1000051498413086
31	157.07451701164246	fix_pre	0		120	29.0	2.5	/experiments/AOT/AOT_stimuli/rescaled_final/1211_rv.mp4	0.0	176.72423601150513	0.9995388984680176
31	157.6580319404602	pulse	0	t		29.0	2.5	/experiments/AOT/AOT_stimuli/rescaled_final/1211_rv.mp4	0.0	177.30775094032288	
31	158.07405591011047	movie	1		244	29.0	2.5	/experiments/AOT/AOT_stimuli/rescaled_final/1211_rv.mp4	0.0	177.72377490997314	2.5004889965057373
31	159.25806403160095	pulse	1	t		29.0	2.5	/experiments/AOT/AOT_stimuli/rescaled_final/1211_rv.mp4	0.0	178.90778303146362	
31	160.5745449066162	fix_post	2		12	29.0	2.5	/experiments/AOT/AOT_stimuli/rescaled_final/1211_rv.mp4	0.0	180.22426390647888	0.09996414184570312
32	160.6745090484619	fix_pre	0		120	30.0	2.5	/experiments/AOT/AOT_stimuli/rescaled_final/1851_fw.mp4	0.0	180.32422804832458	0.9999539852142334
32	160.85055088996887	pulse	0	t		30.0	2.5	/experiments/AOT/AOT_stimuli/rescaled_final/1851_fw.mp4	0.0	180.50026988983154	
32	161.67446303367615	movie	1		244	30.0	2.5	/experiments/AOT/AOT_stimuli/rescaled_final/1851_fw.mp4	0.0	181.32418203353882	2.499640941619873
32	162.45058608055115	pulse	1	t		30.0	2.5	/experiments/AOT/AOT_stimuli/rescaled_final/1851_fw.mp4	0.0	182.10030508041382	
32	164.0565309524536	pulse	1	t		30.0	2.5	/experiments/AOT/AOT_stimuli/rescaled_final/1851_fw.mp4	0.0	183.70624995231628	
32	164.17410397529602	fix_post	2		12	30.0	2.5	/experiments/AOT/AOT_stimuli/rescaled_final/1851_fw.mp4	0.0	183.8238229751587	0.10036611557006836
33	164.2744700908661	fix_pre	0		120	31.0	2.5	/experiments/AOT/AOT_stimuli/rescaled_final/1922_fw.mp4	0.0	183.92418909072876	1.000020980834961
33	165.27449107170105	movie	1		244	31.0	2.5	/experiments/AOT/AOT_stimuli/rescaled_final/1922_fw.mp4	0.0	184.92421007156372	2.4996449947357178
33	165.65788292884827	pulse	1	t		31.0	2.5	/experiments/AOT/AOT_stimuli/rescaled_final/1922_fw.mp4	0.0	185.30760192871094	
33	167.25756192207336	pulse	1	t		31.0	2.5	/experiments/AOT/AOT_stimuli/rescaled_final/1922_fw.mp4	0.0	186.90728092193604	
33	167.77413606643677	fix_post	2		12	31.0	2.5	/experiments/AOT/AOT_stimuli/rescaled_final/1922_fw.mp4	0.0	187.42385506629944	0.09990787506103516
34	167.8740439414978	fix_pre	0		119	32.0	2.5	/experiments/AOT/AOT_stimuli/rescaled_final/1860_fw.mp4	0.0	187.52376294136047	0.9923090934753418
34	168.85816407203674	pulse	0	t		32.0	2.5	/experiments/AOT/AOT_stimuli/rescaled_final/1860_fw.mp4	0.0	188.5078830718994	
34	168.86635303497314	movie	1		245	32.0	2.5	/experiments/AOT/AOT_stimuli/rescaled_final/1860_fw.mp4	0.0	188.51607203483582	2.5080909729003906
34	170.45769786834717	pulse	1	t		32.0	2.5	/experiments/AOT/AOT_stimuli/rescaled_final/1860_fw.mp4	0.0	190.10741686820984	
34	171.37444400787354	fix_post	2		12	32.0	2.5	/experiments/AOT/AOT_stimuli/rescaled_final/1860_fw.mp4	0.0	191.0241630077362	0.10004401206970215
35	171.47448801994324	fix_pre	0		120	33.0	2.5	blank	1.0	191.1242070198059	0.9999849796295166
35	172.0579719543457	pulse	0	t		33.0	2.5	blank	1.0	191.70769095420837	
35	172.47447299957275	movie	1		300	33.0	2.5	blank	1.0	192.12419199943542	2.4999070167541504
35	173.6579179763794	pulse	1	t		33.0	2.5	blank	1.0	193.30763697624207	
35	174.9743800163269	fix_post	2		12	33.0	2.5	blank	1.0	194.62409901618958	0.10006499290466309
36	175.07444500923157	fix_pre	0		120	34.0	2.5	/experiments/AOT/AOT_stimuli/rescaled_final/1526_fw.mp4	0.0	194.72416400909424	0.9999139308929443
36	175.2578639984131	pulse	0	t		34.0	2.5	/experiments/AOT/AOT_stimuli/rescaled_final/1526_fw.mp4	0.0	194.90758299827576	
36	176.0743589401245	movie	1		247	34.0	2.5	/experiments/AOT/AOT_stimuli/rescaled_final/1526_fw.mp4	0.0	195.72407793998718	2.500002145767212
36	176.85796904563904	pulse	1	t		34.0	2.5	/experiments/AOT/AOT_stimuli/rescaled_final/1526_fw.mp4	0.0	196.5076880455017	
36	178.4539020061493	pulse	1	t		34.0	2.5	/experiments/AOT/AOT_stimuli/rescaled_final/1526_fw.mp4	0.0	198.10362100601196	
36	178.57436108589172	fix_post	2		12	34.0	2.5	/experiments/AOT/AOT_stimuli/rescaled_final/1526_fw.mp4	0.0	198.2240800857544	0.09996891021728516
37	178.674329996109	fix_pre	0		120	35.0	2.5	/experiments/AOT/AOT_stimuli/rescaled_final/2176_rv.mp4	0.0	198.32404899597168	1.0000619888305664
37	179.67439198493958	movie	1		245	35.0	2.5	/experiments/AOT/AOT_stimuli/rescaled_final/2176_rv.mp4	0.0	199.32411098480225	2.499945878982544
37	180.0574460029602	pulse	1	t		35.0	2.5	/experiments/AOT/AOT_stimuli/rescaled_final/2176_rv.mp4	0.0	199.70716500282288	
37	181.6579020023346	pulse	1	t		35.0	2.5	/experiments/AOT/AOT_stimuli/rescaled_final/2176_rv.mp4	0.0	201.30762100219727	
37	182.17433786392212	fix_post	2		12	35.0	2.5	/experiments/AOT/AOT_stimuli/rescaled_final/2176_rv.mp4	0.0	201.8240568637848	0.10003113746643066
38	182.27436900138855	fix_pre	0		119	36.0	2.5	/experiments/AOT/AOT_stimuli/rescaled_final/1174_fw.mp4	0.0	201.92408800125122	0.9916379451751709
38	183.25787591934204	pulse	0	t		36.0	2.5	/experiments/AOT/AOT_stimuli/rescaled_final/1174_fw.mp4	0.0	202.9075949192047	
38	183.26600694656372	movie	1		245	36.0	2.5	/experiments/AOT/AOT_stimuli/rescaled_final/1174_fw.mp4	0.0	202.9157259464264	2.508366107940674
38	184.85759091377258	pulse	1	t		36.0	2.5	/experiments/AOT/AOT_stimuli/rescaled_final/1174_fw.mp4	0.0	204.50730991363525	
38	185.7743730545044	fix_post	2		12	36.0	2.5	/experiments/AOT/AOT_stimuli/rescaled_final/1174_fw.mp4	0.0	205.42409205436707	0.09994387626647949
39	185.87431693077087	fix_pre	0		120	37.0	2.5	/experiments/AOT/AOT_stimuli/rescaled_final/0413_rv.mp4	0.0	205.52403593063354	1.0000510215759277
39	186.45794796943665	pulse	0	t		37.0	2.5	/experiments/AOT/AOT_stimuli/rescaled_final/0413_rv.mp4	0.0	206.10766696929932	
39	186.8743679523468	movie	1		246	37.0	2.5	/experiments/AOT/AOT_stimuli/rescaled_final/0413_rv.mp4	0.0	206.52408695220947	2.4999449253082275
39	188.05799198150635	pulse	1	t		37.0	2.5	/experiments/AOT/AOT_stimuli/rescaled_final/0413_rv.mp4	0.0	207.70771098136902	
39	189.37431287765503	fix_post	2		12	37.0	2.5	/experiments/AOT/AOT_stimuli/rescaled_final/0413_rv.mp4	0.0	209.0240318775177	0.10003113746643066
40	189.47434401512146	fix_pre	0		120	38.0	2.5	/experiments/AOT/AOT_stimuli/rescaled_final/1518_rv.mp4	0.0	209.12406301498413	0.9999408721923828
40	189.65792608261108	pulse	0	t		38.0	2.5	/experiments/AOT/AOT_stimuli/rescaled_final/1518_rv.mp4	0.0	209.30764508247375	
40	190.47428488731384	movie	1		243	38.0	2.5	/experiments/AOT/AOT_stimuli/rescaled_final/1518_rv.mp4	0.0	210.1240038871765	2.5000500679016113
40	191.25792503356934	pulse	1	t		38.0	2.5	/experiments/AOT/AOT_stimuli/rescaled_final/1518_rv.mp4	0.0	210.907644033432	
40	192.85623407363892	pulse	1	t		38.0	2.5	/experiments/AOT/AOT_stimuli/rescaled_final/1518_rv.mp4	0.0	212.5059530735016	
40	192.97433495521545	fix_post	2		12	38.0	2.5	/experiments/AOT/AOT_stimuli/rescaled_final/1518_rv.mp4	0.0	212.62405395507812	0.09999299049377441
41	193.07432794570923	fix_pre	0		120	39.0	2.5	/experiments/AOT/AOT_stimuli/rescaled_final/2058_fw.mp4	0.0	212.7240469455719	1.0000269412994385
41	194.07435488700867	movie	1		243	39.0	2.5	/experiments/AOT/AOT_stimuli/rescaled_final/2058_fw.mp4	0.0	213.72407388687134	2.4999639987945557
41	194.45743989944458	pulse	1	t		39.0	2.5	/experiments/AOT/AOT_stimuli/rescaled_final/2058_fw.mp4	0.0	214.10715889930725	
41	196.05779886245728	pulse	1	t		39.0	2.5	/experiments/AOT/AOT_stimuli/rescaled_final/2058_fw.mp4	0.0	215.70751786231995	
41	196.57431888580322	fix_post	2		12	39.0	2.5	/experiments/AOT/AOT_stimuli/rescaled_final/2058_fw.mp4	0.0	216.2240378856659	0.09997320175170898
42	196.67429208755493	fix_pre	0		119	40.0	2.5	/experiments/AOT/AOT_stimuli/rescaled_final/0345_rv.mp4	0.0	216.3240110874176	0.9917500019073486
42	197.65792989730835	pulse	0	t		40.0	2.5	/experiments/AOT/AOT_stimuli/rescaled_final/0345_rv.mp4	0.0	217.30764889717102	
42	197.66604208946228	movie	1		244	40.0	2.5	/experiments/AOT/AOT_stimuli/rescaled_final/0345_rv.mp4	0.0	217.31576108932495	2.5082128047943115
42	199.25769686698914	pulse	1	t		40.0	2.5	/experiments/AOT/AOT_stimuli/rescaled_final/0345_rv.mp4	0.0	218.9074158668518	
42	200.1742548942566	fix_post	2		12	40.0	2.5	/experiments/AOT/AOT_stimuli/rescaled_final/0345_rv.mp4	0.0	219.82397389411926	0.100006103515625
43	200.27426099777222	fix_pre	0		120	41.0	2.5	/experiments/AOT/AOT_stimuli/rescaled_final/1887_fw.mp4	0.0	219.9239799976349	1.0000178813934326
43	200.8578450679779	pulse	0	t		41.0	2.5	/experiments/AOT/AOT_stimuli/rescaled_final/1887_fw.mp4	0.0	220.50756406784058	
43	201.27427887916565	movie	1		246	41.0	2.5	/experiments/AOT/AOT_stimuli/rescaled_final/1887_fw.mp4	0.0	220.92399787902832	2.499559164047241
43	202.4578239917755	pulse	1	t		41.0	2.5	/experiments/AOT/AOT_stimuli/rescaled_final/1887_fw.mp4	0.0	222.10754299163818	
43	203.7738380432129	fix_post	2		12	41.0	2.5	/experiments/AOT/AOT_stimuli/rescaled_final/1887_fw.mp4	0.0	223.42355704307556	0.10043096542358398
44	203.87426900863647	fix_pre	0		120	42.0	2.5	blank	1.0	223.52398800849915	1.0000228881835938
44	204.05769896507263	pulse	0	t		42.0	2.5	blank	1.0	223.7074179649353	
44	204.87429189682007	movie	1		300	42.0	2.5	blank	1.0	224.52401089668274	2.4999630451202393
44	205.6576690673828	pulse	1	t		42.0	2.5	blank	1.0	225.30738806724548	
44	207.25773096084595	pulse	1	t		42.0	2.5	blank	1.0	226.90744996070862	
44	207.3742549419403	fix_post	2		12	42.0	2.5	blank	1.0	227.02397394180298	0.10001397132873535
45	207.47426891326904	fix_pre	0		120	43.0	2.5	/experiments/AOT/AOT_stimuli/rescaled_final/0099_fw.mp4	0.0	227.1239879131317	1.0000059604644775
45	208.47427487373352	movie	1		244	43.0	2.5	/experiments/AOT/AOT_stimuli/rescaled_final/0099_fw.mp4	0.0	228.1239938735962	2.5000040531158447
45	208.85744094848633	pulse	1	t		43.0	2.5	/experiments/AOT/AOT_stimuli/rescaled_final/0099_fw.mp4	0.0	228.507159948349	
45	210.45038604736328	pulse	1	t		43.0	2.5	/experiments/AOT/AOT_stimuli/rescaled_final/0099_fw.mp4	0.0	230.10010504722595	
45	210.97427892684937	fix_post	2		12	43.0	2.5	/experiments/AOT/AOT_stimuli/rescaled_final/0099_fw.mp4	0.0	230.62399792671204	0.09991598129272461
46	211.0741949081421	fix_pre	0		119	44.0	2.5	/experiments/AOT/AOT_stimuli/rescaled_final/1095_fw.mp4	0.0	230.72391390800476	0.9917361736297607
46	212.05774188041687	pulse	0	t		44.0	2.5	/experiments/AOT/AOT_stimuli/rescaled_final/1095_fw.mp4	0.0	231.70746088027954	
46	212.06593108177185	movie	1		246	44.0	2.5	/experiments/AOT/AOT_stimuli/rescaled_final/1095_fw.mp4	0.0	231.71565008163452	2.5083959102630615
46	213.65765190124512	pulse	1	t		44.0	2.5	/experiments/AOT/AOT_stimuli/rescaled_final/1095_fw.mp4	0.0	233.3073709011078	
46	214.5743269920349	fix_post	2		12	44.0	2.5	/experiments/AOT/AOT_stimuli/rescaled_final/1095_fw.mp4	0.0	234.22404599189758	0.09988093376159668
47	214.6742079257965	fix_pre	0		120	45.0	2.5	/experiments/AOT/AOT_stimuli/rescaled_final/0976_fw.mp4	0.0	234.32392692565918	1.0000231266021729
47	215.25783586502075	pulse	0	t		45.0	2.5	/experiments/AOT/AOT_stimuli/rescaled_final/0976_fw.mp4	0.0	234.90755486488342	
47	215.67423105239868	movie	1		245	45.0	2.5	/experiments/AOT/AOT_stimuli/rescaled_final/0976_fw.mp4	0.0	235.32395005226135	2.4995548725128174
47	216.8577618598938	pulse	1	t		45.0	2.5	/experiments/AOT/AOT_stimuli/rescaled_final/0976_fw.mp4	0.0	236.50748085975647	
47	218.1737859249115	fix_post	2		12	45.0	2.5	/experiments/AOT/AOT_stimuli/rescaled_final/0976_fw.mp4	0.0	237.82350492477417	0.10052108764648438
48	218.27430701255798	fix_pre	0		120	46.0	2.5	/experiments/AOT/AOT_stimuli/rescaled_final/1022_fw.mp4	0.0	237.92402601242065	0.9999189376831055
48	218.45776391029358	pulse	0	t		46.0	2.5	/experiments/AOT/AOT_stimuli/rescaled_final/1022_fw.mp4	0.0	238.10748291015625	
48	219.2742259502411	movie	1		243	46.0	2.5	/experiments/AOT/AOT_stimuli/rescaled_final/1022_fw.mp4	0.0	238.92394495010376	2.4995651245117188
48	220.057678937912	pulse	1	t		46.0	2.5	/experiments/AOT/AOT_stimuli/rescaled_final/1022_fw.mp4	0.0	239.70739793777466	
48	221.65618085861206	pulse	1	t		46.0	2.5	/experiments/AOT/AOT_stimuli/rescaled_final/1022_fw.mp4	0.0	241.30589985847473	
48	221.7737910747528	fix_post	2		12	46.0	2.5	/experiments/AOT/AOT_stimuli/rescaled_final/1022_fw.mp4	0.0	241.42351007461548	0.10044097900390625
49	221.8742320537567	fix_pre	0		120	47.0	2.5	blank	1.0	241.52395105361938	1.0000128746032715
49	222.87424492835999	movie	1		300	47.0	2.5	blank	1.0	242.52396392822266	2.5002570152282715
49	223.25734400749207	pulse	1	t		47.0	2.5	blank	1.0	242.90706300735474	
49	224.85791206359863	pulse	1	t		47.0	2.5	blank	1.0	244.5076310634613	
49	225.37450194358826	fix_post	2		12	47.0	2.5	blank	1.0	245.02422094345093	0.09998393058776855
50	225.47448587417603	fix_pre	0		119	48.0	2.5	/experiments/AOT/AOT_stimuli/rescaled_final/1327_rv.mp4	0.0	245.1242048740387	0.9913501739501953
50	226.457750082016	pulse	0	t		48.0	2.5	/experiments/AOT/AOT_stimuli/rescaled_final/1327_rv.mp4	0.0	246.10746908187866	
50	226.46583604812622	movie	1		245	48.0	2.5	/experiments/AOT/AOT_stimuli/rescaled_final/1327_rv.mp4	0.0	246.1155550479889	2.5082859992980957
50	228.0578670501709	pulse	1	t		48.0	2.5	/experiments/AOT/AOT_stimuli/rescaled_final/1327_rv.mp4	0.0	247.70758605003357	
50	228.97412204742432	fix_post	2		12	48.0	2.5	/experiments/AOT/AOT_stimuli/rescaled_final/1327_rv.mp4	0.0	248.623841047287	0.10006999969482422
51	229.07419204711914	fix_pre	0		120	49.0	2.5	/experiments/AOT/AOT_stimuli/rescaled_final/0896_fw.mp4	0.0	248.7239110469818	1.000013828277588
51	229.65770387649536	pulse	0	t		49.0	2.5	/experiments/AOT/AOT_stimuli/rescaled_final/0896_fw.mp4	0.0	249.30742287635803	
51	230.07420587539673	movie	1		242	49.0	2.5	/experiments/AOT/AOT_stimuli/rescaled_final/0896_fw.mp4	0.0	249.7239248752594	2.4999780654907227
51	231.25773692131042	pulse	1	t		49.0	2.5	/experiments/AOT/AOT_stimuli/rescaled_final/0896_fw.mp4	0.0	250.9074559211731	
51	232.57418394088745	fix_post	2		12	49.0	2.5	/experiments/AOT/AOT_stimuli/rescaled_final/0896_fw.mp4	0.0	252.22390294075012	0.0998990535736084
52	232.67408299446106	fix_pre	0		120	50.0	2.5	/experiments/AOT/AOT_stimuli/rescaled_final/1345_rv.mp4	0.0	252.32380199432373	0.9996469020843506
52	232.85766506195068	pulse	0	t		50.0	2.5	/experiments/AOT/AOT_stimuli/rescaled_final/1345_rv.mp4	0.0	252.50738406181335	
52	233.6737298965454	movie	1		242	50.0	2.5	/experiments/AOT/AOT_stimuli/rescaled_final/1345_rv.mp4	0.0	253.32344889640808	2.5003700256347656
52	234.45763087272644	pulse	1	t		50.0	2.5	/experiments/AOT/AOT_stimuli/rescaled_final/1345_rv.mp4	0.0	254.1073498725891	
52	236.0559229850769	pulse	1	t		50.0	2.5	/experiments/AOT/AOT_stimuli/rescaled_final/1345_rv.mp4	0.0	255.70564198493958	
52	236.17409992218018	fix_post	2		12	50.0	2.5	/experiments/AOT/AOT_stimuli/rescaled_final/1345_rv.mp4	0.0	255.82381892204285	0.1000680923461914
53	236.27416801452637	fix_pre	0		120	51.0	2.5	/experiments/AOT/AOT_stimuli/rescaled_final/1178_fw.mp4	0.0	255.92388701438904	0.9999430179595947
53	237.27411103248596	movie	1		243	51.0	2.5	/experiments/AOT/AOT_stimuli/rescaled_final/1178_fw.mp4	0.0	256.92383003234863	2.499932050704956
53	237.65856099128723	pulse	1	t		51.0	2.5	/experiments/AOT/AOT_stimuli/rescaled_final/1178_fw.mp4	0.0	257.3082799911499	
53	239.25763988494873	pulse	1	t		51.0	2.5	/experiments/AOT/AOT_stimuli/rescaled_final/1178_fw.mp4	0.0	258.9073588848114	
53	239.77404308319092	fix_post	2		12	51.0	2.5	/experiments/AOT/AOT_stimuli/rescaled_final/1178_fw.mp4	0.0	259.4237620830536	0.10006093978881836
54	239.87410402297974	fix_pre	0		119	52.0	2.5	/experiments/AOT/AOT_stimuli/rescaled_final/0779_fw.mp4	0.0	259.5238230228424	0.9916720390319824
54	240.85759091377258	pulse	0	t		52.0	2.5	/experiments/AOT/AOT_stimuli/rescaled_final/0779_fw.mp4	0.0	260.50730991363525	
54	240.86577606201172	movie	1		246	52.0	2.5	/experiments/AOT/AOT_stimuli/rescaled_final/0779_fw.mp4	0.0	260.5154950618744	2.5082688331604004
54	242.4576690196991	pulse	1	t		52.0	2.5	/experiments/AOT/AOT_stimuli/rescaled_final/0779_fw.mp4	0.0	262.10738801956177	
54	243.37404489517212	fix_post	2		12	52.0	2.5	/experiments/AOT/AOT_stimuli/rescaled_final/0779_fw.mp4	0.0	263.0237638950348	0.10016202926635742
55	243.47420692443848	fix_pre	0		120	53.0	2.5	/experiments/AOT/AOT_stimuli/rescaled_final/0732_fw.mp4	0.0	263.12392592430115	0.999467134475708
55	244.05758786201477	pulse	0	t		53.0	2.5	/experiments/AOT/AOT_stimuli/rescaled_final/0732_fw.mp4	0.0	263.70730686187744	
55	244.47367405891418	movie	1		247	53.0	2.5	/experiments/AOT/AOT_stimuli/rescaled_final/0732_fw.mp4	0.0	264.12339305877686	2.4999840259552
55	245.65763902664185	pulse	1	t		53.0	2.5	/experiments/AOT/AOT_stimuli/rescaled_final/0732_fw.mp4	0.0	265.3073580265045	
55	246.97365808486938	fix_post	2		12	53.0	2.5	/experiments/AOT/AOT_stimuli/rescaled_final/0732_fw.mp4	0.0	266.62337708473206	0.10050678253173828
56	247.07416486740112	fix_pre	0		120	54.0	2.5	blank	1.0	266.7238838672638	0.9998950958251953
56	247.2576298713684	pulse	0	t		54.0	2.5	blank	1.0	266.9073488712311	
56	248.07405996322632	movie	1		300	54.0	2.5	blank	1.0	267.723778963089	2.499798059463501
56	248.85751795768738	pulse	1	t		54.0	2.5	blank	1.0	268.50723695755005	
56	250.45762085914612	pulse	1	t		54.0	2.5	blank	1.0	270.1073398590088	
56	250.57385802268982	fix_post	2		12	54.0	2.5	blank	1.0	270.2235770225525	0.10018205642700195
57	250.67404007911682	fix_pre	0		120	55.0	2.5	/experiments/AOT/AOT_stimuli/rescaled_final/0777_rv.mp4	0.0	270.3237590789795	0.9996278285980225
57	251.67366790771484	movie	1		244	55.0	2.5	/experiments/AOT/AOT_stimuli/rescaled_final/0777_rv.mp4	0.0	271.3233869075775	2.5003721714019775
57	252.05856108665466	pulse	1	t		55.0	2.5	/experiments/AOT/AOT_stimuli/rescaled_final/0777_rv.mp4	0.0	271.70828008651733	
57	253.6575539112091	pulse	1	t		55.0	2.5	/experiments/AOT/AOT_stimuli/rescaled_final/0777_rv.mp4	0.0	273.3072729110718	
57	254.17404007911682	fix_post	2		12	55.0	2.5	/experiments/AOT/AOT_stimuli/rescaled_final/0777_rv.mp4	0.0	273.8237590789795	0.09994077682495117
58	254.27398085594177	fix_pre	0		119	56.0	2.5	/experiments/AOT/AOT_stimuli/rescaled_final/1157_fw.mp4	0.0	273.92369985580444	0.9917972087860107
58	255.25761008262634	pulse	0	t		56.0	2.5	/experiments/AOT/AOT_stimuli/rescaled_final/1157_fw.mp4	0.0	274.907329082489	
58	255.26577806472778	movie	1		245	56.0	2.5	/experiments/AOT/AOT_stimuli/rescaled_final/1157_fw.mp4	0.0	274.91549706459045	2.508234977722168
58	256.85687589645386	pulse	1	t		56.0	2.5	/experiments/AOT/AOT_stimuli/rescaled_final/1157_fw.mp4	0.0	276.5065948963165	
58	257.77401304244995	fix_post	2		12	56.0	2.5	/experiments/AOT/AOT_stimuli/rescaled_final/1157_fw.mp4	0.0	277.4237320423126	0.09955382347106934
59	257.873566865921	fix_pre	0		120	57.0	2.5	/experiments/AOT/AOT_stimuli/rescaled_final/1971_rv.mp4	0.0	277.5232858657837	0.9999971389770508
59	258.4575569629669	pulse	0	t		57.0	2.5	/experiments/AOT/AOT_stimuli/rescaled_final/1971_rv.mp4	0.0	278.1072759628296	
59	258.87356400489807	movie	1		244	57.0	2.5	/experiments/AOT/AOT_stimuli/rescaled_final/1971_rv.mp4	0.0	278.52328300476074	2.5004148483276367
59	260.0576560497284	pulse	1	t		57.0	2.5	/experiments/AOT/AOT_stimuli/rescaled_final/1971_rv.mp4	0.0	279.70737504959106	
59	261.3739788532257	fix_post	2		12	57.0	2.5	/experiments/AOT/AOT_stimuli/rescaled_final/1971_rv.mp4	0.0	281.0236978530884	0.10005402565002441
60	261.47403287887573	fix_pre	0		120	58.0	2.5	/experiments/AOT/AOT_stimuli/rescaled_final/0896_fw.mp4	0.0	281.1237518787384	1.0000131130218506
60	261.6576499938965	pulse	0	t		58.0	2.5	/experiments/AOT/AOT_stimuli/rescaled_final/0896_fw.mp4	0.0	281.30736899375916	
60	262.4740459918976	movie	1		243	58.0	2.5	/experiments/AOT/AOT_stimuli/rescaled_final/0896_fw.mp4	0.0	282.12376499176025	2.4995548725128174
60	263.2575159072876	pulse	1	t		58.0	2.5	/experiments/AOT/AOT_stimuli/rescaled_final/0896_fw.mp4	0.0	282.90723490715027	
60	264.8558928966522	pulse	1	t		58.0	2.5	/experiments/AOT/AOT_stimuli/rescaled_final/0896_fw.mp4	0.0	284.5056118965149	
60	264.9736008644104	fix_post	2		12	58.0	2.5	/experiments/AOT/AOT_stimuli/rescaled_final/0896_fw.mp4	0.0	284.62331986427307	0.10038900375366211
61	265.07398986816406	fix_pre	0		120	59.0	2.5	/experiments/AOT/AOT_stimuli/rescaled_final/0873_rv.mp4	0.0	284.72370886802673	0.9995460510253906
61	266.07353591918945	movie	1		243	59.0	2.5	/experiments/AOT/AOT_stimuli/rescaled_final/0873_rv.mp4	0.0	285.7232549190521	2.500014066696167
61	266.45754504203796	pulse	1	t		59.0	2.5	/experiments/AOT/AOT_stimuli/rescaled_final/0873_rv.mp4	0.0	286.10726404190063	
61	268.0574700832367	pulse	1	t		59.0	2.5	/experiments/AOT/AOT_stimuli/rescaled_final/0873_rv.mp4	0.0	287.70718908309937	
61	268.5735499858856	fix_post	2		12	59.0	2.5	/experiments/AOT/AOT_stimuli/rescaled_final/0873_rv.mp4	0.0	288.2232689857483	0.10044193267822266
62	268.67399191856384	fix_pre	0		119	60.0	2.5	/experiments/AOT/AOT_stimuli/rescaled_final/0714_fw.mp4	0.0	288.3237109184265	0.9915771484375
62	269.65747904777527	pulse	0	t		60.0	2.5	/experiments/AOT/AOT_stimuli/rescaled_final/0714_fw.mp4	0.0	289.30719804763794	
62	269.66556906700134	movie	1		245	60.0	2.5	/experiments/AOT/AOT_stimuli/rescaled_final/0714_fw.mp4	0.0	289.315288066864	2.5083658695220947
62	271.25695300102234	pulse	1	t		60.0	2.5	/experiments/AOT/AOT_stimuli/rescaled_final/0714_fw.mp4	0.0	290.906672000885	
62	272.17393493652344	fix_post	2		12	60.0	2.5	/experiments/AOT/AOT_stimuli/rescaled_final/0714_fw.mp4	0.0	291.8236539363861	0.09957695007324219
63	272.2735118865967	fix_pre	0		120	61.0	2.5	blank	1.0	291.92323088645935	1.0004050731658936
63	272.8574960231781	pulse	0	t		61.0	2.5	blank	1.0	292.50721502304077	
63	273.2739169597626	movie	1		300	61.0	2.5	blank	1.0	292.92363595962524	2.4999969005584717
63	274.4574239253998	pulse	1	t		61.0	2.5	blank	1.0	294.10714292526245	
63	275.77391386032104	fix_post	2		12	61.0	2.5	blank	1.0	295.4236328601837	0.1000680923461914
64	275.87398195266724	fix_pre	0		120	62.0	2.5	/experiments/AOT/AOT_stimuli/rescaled_final/1163_rv.mp4	0.0	295.5237009525299	1.0000040531158447
64	276.05754804611206	pulse	0	t		62.0	2.5	/experiments/AOT/AOT_stimuli/rescaled_final/1163_rv.mp4	0.0	295.70726704597473	
64	276.8739860057831	movie	1		245	62.0	2.5	/experiments/AOT/AOT_stimuli/rescaled_final/1163_rv.mp4	0.0	296.52370500564575	2.49954891204834
64	277.65694093704224	pulse	1	t		62.0	2.5	/experiments/AOT/AOT_stimuli/rescaled_final/1163_rv.mp4	0.0	297.3066599369049	
64	279.25576186180115	pulse	1	t		62.0	2.5	/experiments/AOT/AOT_stimuli/rescaled_final/1163_rv.mp4	0.0	298.9054808616638	
64	279.3735349178314	fix_post	2		12	62.0	2.5	/experiments/AOT/AOT_stimuli/rescaled_final/1163_rv.mp4	0.0	299.0232539176941	0.10004496574401855
65	279.47357988357544	fix_pre	0		120	63.0	2.5	/experiments/AOT/AOT_stimuli/rescaled_final/1390_fw.mp4	0.0	299.1232988834381	1.0004889965057373
65	280.4740688800812	movie	1		244	63.0	2.5	/experiments/AOT/AOT_stimuli/rescaled_final/1390_fw.mp4	0.0	300.12378787994385	2.4994630813598633
65	280.85743498802185	pulse	1	t		63.0	2.5	/experiments/AOT/AOT_stimuli/rescaled_final/1390_fw.mp4	0.0	300.5071539878845	
65	282.4574279785156	pulse	1	t		63.0	2.5	/experiments/AOT/AOT_stimuli/rescaled_final/1390_fw.mp4	0.0	302.1071469783783	
65	282.97353196144104	fix_post	2		12	63.0	2.5	/experiments/AOT/AOT_stimuli/rescaled_final/1390_fw.mp4	0.0	302.6232509613037	0.1004800796508789
66	283.0740120410919	fix_pre	0		119	64.0	2.5	/experiments/AOT/AOT_stimuli/rescaled_final/2171_rv.mp4	0.0	302.7237310409546	0.9915108680725098
66	284.0574269294739	pulse	0	t		64.0	2.5	/experiments/AOT/AOT_stimuli/rescaled_final/2171_rv.mp4	0.0	303.70714592933655	
66	284.06552290916443	movie	1		244	64.0	2.5	/experiments/AOT/AOT_stimuli/rescaled_final/2171_rv.mp4	0.0	303.7152419090271	2.5082931518554688
66	285.65701389312744	pulse	1	t		64.0	2.5	/experiments/AOT/AOT_stimuli/rescaled_final/2171_rv.mp4	0.0	305.3067328929901	
66	286.5738160610199	fix_post	2		12	64.0	2.5	/experiments/AOT/AOT_stimuli/rescaled_final/2171_rv.mp4	0.0	306.22353506088257	0.10001182556152344
67	286.6738278865814	fix_pre	0		120	65.0	2.5	/experiments/AOT/AOT_stimuli/rescaled_final/0303_fw.mp4	0.0	306.3235468864441	1.0000090599060059
67	287.25731587409973	pulse	0	t		65.0	2.5	/experiments/AOT/AOT_stimuli/rescaled_final/0303_fw.mp4	0.0	306.9070348739624	
67	287.6738369464874	movie	1		244	65.0	2.5	/experiments/AOT/AOT_stimuli/rescaled_final/0303_fw.mp4	0.0	307.3235559463501	2.5001440048217773
67	288.8574140071869	pulse	1	t		65.0	2.5	/experiments/AOT/AOT_stimuli/rescaled_final/0303_fw.mp4	0.0	308.50713300704956	
67	290.1739809513092	fix_post	2		12	65.0	2.5	/experiments/AOT/AOT_stimuli/rescaled_final/0303_fw.mp4	0.0	309.8236999511719	0.09990906715393066
68	290.27389001846313	fix_pre	0		120	66.0	2.5	/experiments/AOT/AOT_stimuli/rescaled_final/1700_rv.mp4	0.0	309.9236090183258	0.9999680519104004
68	290.45735788345337	pulse	0	t		66.0	2.5	/experiments/AOT/AOT_stimuli/rescaled_final/1700_rv.mp4	0.0	310.10707688331604	
68	291.27385807037354	movie	1		244	66.0	2.5	/experiments/AOT/AOT_stimuli/rescaled_final/1700_rv.mp4	0.0	310.9235770702362	2.4995498657226562
68	292.05729508399963	pulse	1	t		66.0	2.5	/experiments/AOT/AOT_stimuli/rescaled_final/1700_rv.mp4	0.0	311.7070140838623	
68	293.65561985969543	pulse	1	t		66.0	2.5	/experiments/AOT/AOT_stimuli/rescaled_final/1700_rv.mp4	0.0	313.3053388595581	
68	293.7734079360962	fix_post	2		12	66.0	2.5	/experiments/AOT/AOT_stimuli/rescaled_final/1700_rv.mp4	0.0	313.42312693595886	0.10045194625854492
69	293.87385988235474	fix_pre	0		120	67.0	2.5	/experiments/AOT/AOT_stimuli/rescaled_final/0853_fw.mp4	0.0	313.5235788822174	0.9999401569366455
69	294.8738000392914	movie	1		244	67.0	2.5	/experiments/AOT/AOT_stimuli/rescaled_final/0853_fw.mp4	0.0	314.52351903915405	2.5001108646392822
69	295.25687193870544	pulse	1	t		67.0	2.5	/experiments/AOT/AOT_stimuli/rescaled_final/0853_fw.mp4	0.0	314.9065909385681	
69	296.85738587379456	pulse	1	t		67.0	2.5	/experiments/AOT/AOT_stimuli/rescaled_final/0853_fw.mp4	0.0	316.5071048736572	
69	297.37391090393066	fix_post	2		12	67.0	2.5	/experiments/AOT/AOT_stimuli/rescaled_final/0853_fw.mp4	0.0	317.02362990379333	0.09990715980529785
70	297.47381806373596	fix_pre	0		119	68.0	2.5	blank	1.0	317.12353706359863	0.9916489124298096
70	298.45735788345337	pulse	0	t		68.0	2.5	blank	1.0	318.10707688331604	
70	298.46546697616577	movie	1		301	68.0	2.5	blank	1.0	318.11518597602844	2.508359909057617
70	300.0574150085449	pulse	1	t		68.0	2.5	blank	1.0	319.7071340084076	
70	300.9738268852234	fix_post	2		12	68.0	2.5	blank	1.0	320.62354588508606	0.10012412071228027
71	301.07395100593567	fix_pre	0		120	69.0	2.5	/experiments/AOT/AOT_stimuli/rescaled_final/2062_rv.mp4	0.0	320.72367000579834	0.9998159408569336
71	301.65731287002563	pulse	0	t		69.0	2.5	/experiments/AOT/AOT_stimuli/rescaled_final/2062_rv.mp4	0.0	321.3070318698883	
71	302.0737669467926	movie	1		244	69.0	2.5	/experiments/AOT/AOT_stimuli/rescaled_final/2062_rv.mp4	0.0	321.7234859466553	2.5000641345977783
71	303.2574620246887	pulse	1	t		69.0	2.5	/experiments/AOT/AOT_stimuli/rescaled_final/2062_rv.mp4	0.0	322.9071810245514	
71	304.5738310813904	fix_post	2		12	69.0	2.5	/experiments/AOT/AOT_stimuli/rescaled_final/2062_rv.mp4	0.0	324.22355008125305	0.09994792938232422
72	304.6737790107727	fix_pre	0		120	70.0	2.5	/experiments/AOT/AOT_stimuli/rescaled_final/1969_rv.mp4	0.0	324.3234980106354	0.9999589920043945
72	304.85727405548096	pulse	0	t		70.0	2.5	/experiments/AOT/AOT_stimuli/rescaled_final/1969_rv.mp4	0.0	324.5069930553436	
72	305.6737380027771	movie	1		244	70.0	2.5	/experiments/AOT/AOT_stimuli/rescaled_final/1969_rv.mp4	0.0	325.32345700263977	2.5000810623168945
72	306.45726704597473	pulse	1	t		70.0	2.5	/experiments/AOT/AOT_stimuli/rescaled_final/1969_rv.mp4	0.0	326.1069860458374	
72	308.05598306655884	pulse	1	t		70.0	2.5	/experiments/AOT/AOT_stimuli/rescaled_final/1969_rv.mp4	0.0	327.7057020664215	
72	308.173819065094	fix_post	2		12	70.0	2.5	/experiments/AOT/AOT_stimuli/rescaled_final/1969_rv.mp4	0.0	327.82353806495667	0.09990286827087402
73	308.27372193336487	fix_pre	0		120	71.0	2.5	/experiments/AOT/AOT_stimuli/rescaled_final/0920_fw.mp4	0.0	327.92344093322754	0.9999871253967285
73	309.2737090587616	movie	1		243	71.0	2.5	/experiments/AOT/AOT_stimuli/rescaled_final/0920_fw.mp4	0.0	328.92342805862427	2.4995949268341064
73	309.65868186950684	pulse	1	t		71.0	2.5	/experiments/AOT/AOT_stimuli/rescaled_final/0920_fw.mp4	0.0	329.3084008693695	
73	311.25732803344727	pulse	1	t		71.0	2.5	/experiments/AOT/AOT_stimuli/rescaled_final/0920_fw.mp4	0.0	330.90704703330994	
73	311.7733039855957	fix_post	2		12	71.0	2.5	/experiments/AOT/AOT_stimuli/rescaled_final/0920_fw.mp4	0.0	331.4230229854584	0.10049796104431152
74	311.87380194664	fix_pre	0		119	72.0	2.5	/experiments/AOT/AOT_stimuli/rescaled_final/0873_fw.mp4	0.0	331.5235209465027	0.9915440082550049
74	312.85726499557495	pulse	0	t		72.0	2.5	/experiments/AOT/AOT_stimuli/rescaled_final/0873_fw.mp4	0.0	332.5069839954376	
74	312.865345954895	movie	1		245	72.0	2.5	/experiments/AOT/AOT_stimuli/rescaled_final/0873_fw.mp4	0.0	332.5150649547577	2.508168935775757
74	314.45697808265686	pulse	1	t		72.0	2.5	/experiments/AOT/AOT_stimuli/rescaled_final/0873_fw.mp4	0.0	334.10669708251953	
74	315.3735148906708	fix_post	2		12	72.0	2.5	/experiments/AOT/AOT_stimuli/rescaled_final/0873_fw.mp4	0.0	335.02323389053345	0.10019397735595703
75	315.47370886802673	fix_pre	0		120	73.0	2.5	/experiments/AOT/AOT_stimuli/rescaled_final/1528_fw.mp4	0.0	335.1234278678894	1.0000290870666504
75	316.0571548938751	pulse	0	t		73.0	2.5	/experiments/AOT/AOT_stimuli/rescaled_final/1528_fw.mp4	0.0	335.7068738937378	
75	316.4737379550934	movie	1		248	73.0	2.5	/experiments/AOT/AOT_stimuli/rescaled_final/1528_fw.mp4	0.0	336.12345695495605	2.4999279975891113
75	317.6572799682617	pulse	1	t		73.0	2.5	/experiments/AOT/AOT_stimuli/rescaled_final/1528_fw.mp4	0.0	337.3069989681244	
75	318.9736659526825	fix_post	2		12	73.0	2.5	/experiments/AOT/AOT_stimuli/rescaled_final/1528_fw.mp4	0.0	338.62338495254517	0.10001492500305176
76	319.07368087768555	fix_pre	0		120	74.0	2.5	/experiments/AOT/AOT_stimuli/rescaled_final/1215_rv.mp4	0.0	338.7233998775482	1.0000641345977783
76	319.2572820186615	pulse	0	t		74.0	2.5	/experiments/AOT/AOT_stimuli/rescaled_final/1215_rv.mp4	0.0	338.90700101852417	
76	320.0737450122833	movie	1		246	74.0	2.5	/experiments/AOT/AOT_stimuli/rescaled_final/1215_rv.mp4	0.0	339.723464012146	2.500020980834961
76	320.85733008384705	pulse	1	t		74.0	2.5	/experiments/AOT/AOT_stimuli/rescaled_final/1215_rv.mp4	0.0	340.5070490837097	
76	322.4558598995209	pulse	1	t		74.0	2.5	/experiments/AOT/AOT_stimuli/rescaled_final/1215_rv.mp4	0.0	342.10557889938354	
76	322.5737659931183	fix_post	2		12	74.0	2.5	/experiments/AOT/AOT_stimuli/rescaled_final/1215_rv.mp4	0.0	342.22348499298096	0.09992003440856934
77	322.67368602752686	fix_pre	0		120	75.0	2.5	/experiments/AOT/AOT_stimuli/rescaled_final/0013_fw.mp4	0.0	342.3234050273895	1.0000829696655273
77	323.6737689971924	movie	1		245	75.0	2.5	/experiments/AOT/AOT_stimuli/rescaled_final/0013_fw.mp4	0.0	343.32348799705505	2.4998960494995117
77	324.05716490745544	pulse	1	t		75.0	2.5	/experiments/AOT/AOT_stimuli/rescaled_final/0013_fw.mp4	0.0	343.7068839073181	
77	325.6572299003601	pulse	1	t		75.0	2.5	/experiments/AOT/AOT_stimuli/rescaled_final/0013_fw.mp4	0.0	345.3069489002228	
77	326.1736650466919	fix_post	2		12	75.0	2.5	/experiments/AOT/AOT_stimuli/rescaled_final/0013_fw.mp4	0.0	345.82338404655457	0.09958600997924805
78	326.27325105667114	fix_pre	0		119	76.0	2.5	/experiments/AOT/AOT_stimuli/rescaled_final/2025_fw.mp4	0.0	345.9229700565338	0.9921488761901855
78	327.25722789764404	pulse	0	t		76.0	2.5	/experiments/AOT/AOT_stimuli/rescaled_final/2025_fw.mp4	0.0	346.9069468975067	
78	327.2653999328613	movie	1		245	76.0	2.5	/experiments/AOT/AOT_stimuli/rescaled_final/2025_fw.mp4	0.0	346.915118932724	2.508226156234741
78	328.8569278717041	pulse	1	t		76.0	2.5	/experiments/AOT/AOT_stimuli/rescaled_final/2025_fw.mp4	0.0	348.5066468715668	
78	329.77362608909607	fix_post	2		12	76.0	2.5	/experiments/AOT/AOT_stimuli/rescaled_final/2025_fw.mp4	0.0	349.42334508895874	0.10009884834289551
79	329.87372493743896	fix_pre	0		120	77.0	2.5	blank	1.0	349.52344393730164	0.9999780654907227
79	330.457181930542	pulse	0	t		77.0	2.5	blank	1.0	350.10690093040466	
79	330.8737030029297	movie	1		300	77.0	2.5	blank	1.0	350.52342200279236	2.4995439052581787
79	332.0571138858795	pulse	1	t		77.0	2.5	blank	1.0	351.7068328857422	
79	333.37324690818787	fix_post	2		12	77.0	2.5	blank	1.0	353.02296590805054	0.10044312477111816
80	333.473690032959	fix_pre	0		120	78.0	2.5	/experiments/AOT/AOT_stimuli/rescaled_final/1061_rv.mp4	0.0	353.12340903282166	0.9995670318603516
80	333.657173871994	pulse	0	t		78.0	2.5	/experiments/AOT/AOT_stimuli/rescaled_final/1061_rv.mp4	0.0	353.3068928718567	
80	334.47325706481934	movie	1		246	78.0	2.5	/experiments/AOT/AOT_stimuli/rescaled_final/1061_rv.mp4	0.0	354.122976064682	2.500670909881592
80	335.25712490081787	pulse	1	t		78.0	2.5	/experiments/AOT/AOT_stimuli/rescaled_final/1061_rv.mp4	0.0	354.90684390068054	
80	336.8561689853668	pulse	1	t		78.0	2.5	/experiments/AOT/AOT_stimuli/rescaled_final/1061_rv.mp4	0.0	356.5058879852295	
80	336.9739279747009	fix_post	2		12	78.0	2.5	/experiments/AOT/AOT_stimuli/rescaled_final/1061_rv.mp4	0.0	356.6236469745636	0.0999751091003418
81	337.07390308380127	fix_pre	0		120	79.0	2.5	/experiments/AOT/AOT_stimuli/rescaled_final/1215_fw.mp4	0.0	356.72362208366394	0.9993538856506348
81	338.0732569694519	movie	1		246	79.0	2.5	/experiments/AOT/AOT_stimuli/rescaled_final/1215_fw.mp4	0.0	357.7229759693146	2.500391960144043
81	338.456848859787	pulse	1	t		79.0	2.5	/experiments/AOT/AOT_stimuli/rescaled_final/1215_fw.mp4	0.0	358.10656785964966	
81	340.0572018623352	pulse	1	t		79.0	2.5	/experiments/AOT/AOT_stimuli/rescaled_final/1215_fw.mp4	0.0	359.7069208621979	
81	340.57364892959595	fix_post	2		12	79.0	2.5	/experiments/AOT/AOT_stimuli/rescaled_final/1215_fw.mp4	0.0	360.2233679294586	0.09996700286865234
82	340.6736159324646	fix_pre	0		119	80.0	2.5	/experiments/AOT/AOT_stimuli/rescaled_final/1629_fw.mp4	0.0	360.32333493232727	0.9917070865631104
82	341.65717101097107	pulse	0	t		80.0	2.5	/experiments/AOT/AOT_stimuli/rescaled_final/1629_fw.mp4	0.0	361.30689001083374	
82	341.6653230190277	movie	1		246	80.0	2.5	/experiments/AOT/AOT_stimuli/rescaled_final/1629_fw.mp4	0.0	361.3150420188904	2.508280038833618
82	343.2565550804138	pulse	1	t		80.0	2.5	/experiments/AOT/AOT_stimuli/rescaled_final/1629_fw.mp4	0.0	362.9062740802765	
82	344.1736030578613	fix_post	2		12	80.0	2.5	/experiments/AOT/AOT_stimuli/rescaled_final/1629_fw.mp4	0.0	363.823322057724	0.09989500045776367
83	344.2734980583191	fix_pre	0		120	81.0	2.5	/experiments/AOT/AOT_stimuli/rescaled_final/0836_rv.mp4	0.0	363.92321705818176	0.9997608661651611
83	344.85706996917725	pulse	0	t		81.0	2.5	/experiments/AOT/AOT_stimuli/rescaled_final/0836_rv.mp4	0.0	364.5067889690399	
83	345.27325892448425	movie	1		246	81.0	2.5	/experiments/AOT/AOT_stimuli/rescaled_final/0836_rv.mp4	0.0	364.9229779243469	2.500262975692749
83	346.4571330547333	pulse	1	t		81.0	2.5	/experiments/AOT/AOT_stimuli/rescaled_final/0836_rv.mp4	0.0	366.10685205459595	
83	347.773521900177	fix_post	2		12	81.0	2.5	/experiments/AOT/AOT_stimuli/rescaled_final/0836_rv.mp4	0.0	367.4232409000397	0.09965896606445312
84	347.87318086624146	fix_pre	0		120	82.0	2.5	/experiments/AOT/AOT_stimuli/rescaled_final/1971_rv.mp4	0.0	367.5228998661041	1.000385046005249
84	348.0571799278259	pulse	0	t		82.0	2.5	/experiments/AOT/AOT_stimuli/rescaled_final/1971_rv.mp4	0.0	367.7068989276886	
84	348.8735659122467	movie	1		245	82.0	2.5	/experiments/AOT/AOT_stimuli/rescaled_final/1971_rv.mp4	0.0	368.5232849121094	2.4999239444732666
84	349.6570100784302	pulse	1	t		82.0	2.5	/experiments/AOT/AOT_stimuli/rescaled_final/1971_rv.mp4	0.0	369.30672907829285	
84	351.2557830810547	pulse	1	t		82.0	2.5	/experiments/AOT/AOT_stimuli/rescaled_final/1971_rv.mp4	0.0	370.90550208091736	
84	351.37348985671997	fix_post	2		12	82.0	2.5	/experiments/AOT/AOT_stimuli/rescaled_final/1971_rv.mp4	0.0	371.02320885658264	0.10001707077026367
85	351.47350692749023	fix_pre	0		120	83.0	2.5	blank	1.0	371.1232259273529	1.0000040531158447
85	352.4735109806061	movie	1		300	83.0	2.5	blank	1.0	372.12322998046875	2.50006103515625
85	352.85706400871277	pulse	1	t		83.0	2.5	blank	1.0	372.50678300857544	
85	354.4570200443268	pulse	1	t		83.0	2.5	blank	1.0	374.10673904418945	
85	354.97357201576233	fix_post	2		12	83.0	2.5	blank	1.0	374.623291015625	0.09964895248413086
87	355.07322096824646	stim	0		1716					374.72293996810913	14.300318956375122
87	356.0570750236511	pulse	0	t						375.7067940235138	
87	357.6569330692291	pulse	0	t						377.3066520690918	
87	359.2569658756256	pulse	0	t						378.9066848754883	
87	360.8570520877838	pulse	0	t						380.5067710876465	
87	362.4569799900055	pulse	0	t						382.10669898986816	
87	364.05695700645447	pulse	0	t						383.70667600631714	
87	365.65695691108704	pulse	0	t						385.3066759109497	
87	367.2570638656616	pulse	0	t						386.9067828655243	
87	368.85692286491394	pulse	0	t						388.5066418647766	
