trial_nr	onset	event_type	phase	response	nr_frames	movie_index	movie_duration	movie_file	blank	onset_abs	duration
0	0.20845603942871094	stim	0		56					18.82716202735901	0.4665799140930176
0	0.6668760776519775	response	0	space						19.285582065582275	
1	0.6750359535217285	stim	0		4203					19.293741941452026	35.039576053619385
1	35.7046320438385	pulse	0	t						54.3233380317688	
1	35.71461200714111	stim	1		1716					54.33331799507141	14.30125904083252
1	37.29732394218445	pulse	1	t						55.916029930114746	
1	38.897743940353394	pulse	1	t						57.51644992828369	
1	40.498003005981445	pulse	1	t						59.11670899391174	
1	42.09811496734619	pulse	1	t						60.71682095527649	
1	43.698254108428955	pulse	1	t						62.31696009635925	
1	45.29858589172363	pulse	1	t						63.91729187965393	
1	46.898886919021606	pulse	1	t						65.5175929069519	
1	48.49903702735901	pulse	1	t						67.1177430152893	
2	50.01587104797363	fix_pre	0		11	0.0	2.5	/experiments/knapen_AOT/AOT_stimuli/rescaled_final/1056_rv.mp4	0.0	68.63457703590393	0.09167003631591797
2	50.09923005104065	pulse	0	t		0.0	2.5	/experiments/knapen_AOT/AOT_stimuli/rescaled_final/1056_rv.mp4	0.0	68.71793603897095	
2	50.10754108428955	movie	1		242	0.0	2.5	/experiments/knapen_AOT/AOT_stimuli/rescaled_final/1056_rv.mp4	0.0	68.72624707221985	2.5086488723754883
2	51.70071792602539	pulse	1	t		0.0	2.5	/experiments/knapen_AOT/AOT_stimuli/rescaled_final/1056_rv.mp4	0.0	70.31942391395569	
2	52.61618995666504	fix_post	2		12	0.0	2.5	/experiments/knapen_AOT/AOT_stimuli/rescaled_final/1056_rv.mp4	0.0	71.23489594459534	0.09994792938232422
3	52.71613788604736	fix_pre	0		120	1.0	2.5	/experiments/knapen_AOT/AOT_stimuli/rescaled_final/0251_fw.mp4	0.0	71.33484387397766	1.0002000331878662
3	53.29989695549011	pulse	0	t		1.0	2.5	/experiments/knapen_AOT/AOT_stimuli/rescaled_final/0251_fw.mp4	0.0	71.91860294342041	
3	53.71633791923523	movie	1		243	1.0	2.5	/experiments/knapen_AOT/AOT_stimuli/rescaled_final/0251_fw.mp4	0.0	72.33504390716553	2.5005459785461426
3	54.900238037109375	pulse	1	t		1.0	2.5	/experiments/knapen_AOT/AOT_stimuli/rescaled_final/0251_fw.mp4	0.0	73.51894402503967	
3	56.21688389778137	fix_post	2		12	1.0	2.5	/experiments/knapen_AOT/AOT_stimuli/rescaled_final/0251_fw.mp4	0.0	74.83558988571167	0.09987521171569824
4	56.31675910949707	fix_pre	0		120	2.0	2.5	/experiments/knapen_AOT/AOT_stimuli/rescaled_final/0280_fw.mp4	0.0	74.93546509742737	1.0001628398895264
4	56.50024700164795	pulse	0	t		2.0	2.5	/experiments/knapen_AOT/AOT_stimuli/rescaled_final/0280_fw.mp4	0.0	75.11895298957825	
4	57.3169219493866	movie	1		242	2.0	2.5	/experiments/knapen_AOT/AOT_stimuli/rescaled_final/0280_fw.mp4	0.0	75.9356279373169	2.500415086746216
4	58.10044503211975	pulse	1	t		2.0	2.5	/experiments/knapen_AOT/AOT_stimuli/rescaled_final/0280_fw.mp4	0.0	76.71915102005005	
4	59.70061492919922	pulse	1	t		2.0	2.5	/experiments/knapen_AOT/AOT_stimuli/rescaled_final/0280_fw.mp4	0.0	78.31932091712952	
4	59.81733703613281	fix_post	2		12	2.0	2.5	/experiments/knapen_AOT/AOT_stimuli/rescaled_final/0280_fw.mp4	0.0	78.43604302406311	0.09989285469055176
5	59.917229890823364	fix_pre	0		119	3.0	2.5	/experiments/knapen_AOT/AOT_stimuli/rescaled_final/0833_rv.mp4	0.0	78.53593587875366	0.9918150901794434
5	60.90904498100281	movie	1		242	3.0	2.5	/experiments/knapen_AOT/AOT_stimuli/rescaled_final/0833_rv.mp4	0.0	79.5277509689331	2.500394105911255
5	61.30114698410034	pulse	1	t		3.0	2.5	/experiments/knapen_AOT/AOT_stimuli/rescaled_final/0833_rv.mp4	0.0	79.91985297203064	
5	62.90121793746948	pulse	1	t		3.0	2.5	/experiments/knapen_AOT/AOT_stimuli/rescaled_final/0833_rv.mp4	0.0	81.51992392539978	
5	63.40943908691406	fix_post	2		12	3.0	2.5	/experiments/knapen_AOT/AOT_stimuli/rescaled_final/0833_rv.mp4	0.0	82.02814507484436	0.10005903244018555
6	63.50949811935425	fix_pre	0		120	4.0	2.5	/experiments/knapen_AOT/AOT_stimuli/rescaled_final/1167_fw.mp4	0.0	82.12820410728455	1.000128984451294
6	64.50145411491394	pulse	0	t		4.0	2.5	/experiments/knapen_AOT/AOT_stimuli/rescaled_final/1167_fw.mp4	0.0	83.12016010284424	
6	64.50962710380554	movie	1		244	4.0	2.5	/experiments/knapen_AOT/AOT_stimuli/rescaled_final/1167_fw.mp4	0.0	83.12833309173584	2.508737802505493
6	66.10261297225952	pulse	1	t		4.0	2.5	/experiments/knapen_AOT/AOT_stimuli/rescaled_final/1167_fw.mp4	0.0	84.72131896018982	
6	67.01836490631104	fix_post	2		12	4.0	2.5	/experiments/knapen_AOT/AOT_stimuli/rescaled_final/1167_fw.mp4	0.0	85.63707089424133	0.099945068359375
7	67.11830997467041	fix_pre	0		120	5.0	2.5	/experiments/knapen_AOT/AOT_stimuli/rescaled_final/1484_rv.mp4	0.0	85.73701596260071	1.000143051147461
7	67.69449710845947	pulse	0	t		5.0	2.5	/experiments/knapen_AOT/AOT_stimuli/rescaled_final/1484_rv.mp4	0.0	86.31320309638977	
7	68.11845302581787	movie	1		242	5.0	2.5	/experiments/knapen_AOT/AOT_stimuli/rescaled_final/1484_rv.mp4	0.0	86.73715901374817	2.500648021697998
7	69.29439902305603	pulse	1	t		5.0	2.5	/experiments/knapen_AOT/AOT_stimuli/rescaled_final/1484_rv.mp4	0.0	87.91310501098633	
7	70.61910104751587	fix_post	2		12	5.0	2.5	/experiments/knapen_AOT/AOT_stimuli/rescaled_final/1484_rv.mp4	0.0	89.23780703544617	0.0998079776763916
8	70.71890902519226	fix_pre	0		120	6.0	2.5	/experiments/knapen_AOT/AOT_stimuli/rescaled_final/1529_fw.mp4	0.0	89.33761501312256	1.0000760555267334
8	70.89508605003357	pulse	0	t		6.0	2.5	/experiments/knapen_AOT/AOT_stimuli/rescaled_final/1529_fw.mp4	0.0	89.51379203796387	
8	71.718985080719	movie	1		242	6.0	2.5	/experiments/knapen_AOT/AOT_stimuli/rescaled_final/1529_fw.mp4	0.0	90.33769106864929	2.5005719661712646
8	72.49515104293823	pulse	1	t		6.0	2.5	/experiments/knapen_AOT/AOT_stimuli/rescaled_final/1529_fw.mp4	0.0	91.11385703086853	
8	74.09450602531433	pulse	1	t		6.0	2.5	/experiments/knapen_AOT/AOT_stimuli/rescaled_final/1529_fw.mp4	0.0	92.71321201324463	
8	74.21955704689026	fix_post	2		12	6.0	2.5	/experiments/knapen_AOT/AOT_stimuli/rescaled_final/1529_fw.mp4	0.0	92.83826303482056	0.09984993934631348
9	74.31940698623657	fix_pre	0		120	7.0	2.5	blank	1.0	92.93811297416687	1.000143051147461
9	75.31955003738403	movie	1		299	7.0	2.5	blank	1.0	93.93825602531433	2.4920530319213867
9	75.69476795196533	pulse	1	t		7.0	2.5	blank	1.0	94.31347393989563	
9	77.29513502120972	pulse	1	t		7.0	2.5	blank	1.0	95.91384100914001	
9	77.81160306930542	fix_post	2		12	7.0	2.5	blank	1.0	96.43030905723572	0.09999895095825195
10	77.91160202026367	fix_pre	0		119	8.0	2.5	/experiments/knapen_AOT/AOT_stimuli/rescaled_final/0522_fw.mp4	0.0	96.53030800819397	0.9918808937072754
10	78.89518809318542	pulse	0	t		8.0	2.5	/experiments/knapen_AOT/AOT_stimuli/rescaled_final/0522_fw.mp4	0.0	97.51389408111572	
10	78.90348291397095	movie	1		243	8.0	2.5	/experiments/knapen_AOT/AOT_stimuli/rescaled_final/0522_fw.mp4	0.0	97.52218890190125	2.5085999965667725
10	80.49699902534485	pulse	1	t		8.0	2.5	/experiments/knapen_AOT/AOT_stimuli/rescaled_final/0522_fw.mp4	0.0	99.11570501327515	
10	81.41208291053772	fix_post	2		12	8.0	2.5	/experiments/knapen_AOT/AOT_stimuli/rescaled_final/0522_fw.mp4	0.0	100.03078889846802	0.10007715225219727
11	81.51216006278992	fix_pre	0		120	9.0	2.5	/experiments/knapen_AOT/AOT_stimuli/rescaled_final/0695_rv.mp4	0.0	100.13086605072021	1.000213861465454
11	82.09575295448303	pulse	0	t		9.0	2.5	/experiments/knapen_AOT/AOT_stimuli/rescaled_final/0695_rv.mp4	0.0	100.71445894241333	
11	82.51237392425537	movie	1		243	9.0	2.5	/experiments/knapen_AOT/AOT_stimuli/rescaled_final/0695_rv.mp4	0.0	101.13107991218567	2.5004470348358154
11	83.69603204727173	pulse	1	t		9.0	2.5	/experiments/knapen_AOT/AOT_stimuli/rescaled_final/0695_rv.mp4	0.0	102.31473803520203	
11	85.01282095909119	fix_post	2		12	9.0	2.5	/experiments/knapen_AOT/AOT_stimuli/rescaled_final/0695_rv.mp4	0.0	103.63152694702148	0.09984803199768066
12	85.11266899108887	fix_pre	0		120	10.0	2.5	/experiments/knapen_AOT/AOT_stimuli/rescaled_final/0371_rv.mp4	0.0	103.73137497901917	1.0002191066741943
12	85.29615998268127	pulse	0	t		10.0	2.5	/experiments/knapen_AOT/AOT_stimuli/rescaled_final/0371_rv.mp4	0.0	103.91486597061157	
12	86.11288809776306	movie	1		243	10.0	2.5	/experiments/knapen_AOT/AOT_stimuli/rescaled_final/0371_rv.mp4	0.0	104.73159408569336	2.5002880096435547
12	86.89649295806885	pulse	1	t		10.0	2.5	/experiments/knapen_AOT/AOT_stimuli/rescaled_final/0371_rv.mp4	0.0	105.51519894599915	
12	88.4967360496521	pulse	1	t		10.0	2.5	/experiments/knapen_AOT/AOT_stimuli/rescaled_final/0371_rv.mp4	0.0	107.1154420375824	
12	88.61317610740662	fix_post	2		12	10.0	2.5	/experiments/knapen_AOT/AOT_stimuli/rescaled_final/0371_rv.mp4	0.0	107.23188209533691	0.1000368595123291
13	88.71321296691895	fix_pre	0		119	11.0	2.5	/experiments/knapen_AOT/AOT_stimuli/rescaled_final/0251_rv.mp4	0.0	107.33191895484924	0.9917910099029541
13	89.7050039768219	movie	1		243	11.0	2.5	/experiments/knapen_AOT/AOT_stimuli/rescaled_final/0251_rv.mp4	0.0	108.3237099647522	2.500581979751587
13	90.0970070362091	pulse	1	t		11.0	2.5	/experiments/knapen_AOT/AOT_stimuli/rescaled_final/0251_rv.mp4	0.0	108.7157130241394	
13	91.6971549987793	pulse	1	t		11.0	2.5	/experiments/knapen_AOT/AOT_stimuli/rescaled_final/0251_rv.mp4	0.0	110.3158609867096	
13	92.20558595657349	fix_post	2		9	11.0	2.5	/experiments/knapen_AOT/AOT_stimuli/rescaled_final/0251_rv.mp4	0.0	110.82429194450378	0.09985613822937012
14	92.30544209480286	fix_pre	0		120	12.0	2.5	/experiments/knapen_AOT/AOT_stimuli/rescaled_final/0477_fw.mp4	0.0	110.92414808273315	1.0000958442687988
14	93.29749011993408	pulse	0	t		12.0	2.5	/experiments/knapen_AOT/AOT_stimuli/rescaled_final/0477_fw.mp4	0.0	111.91619610786438	
14	93.30553793907166	movie	1		244	12.0	2.5	/experiments/knapen_AOT/AOT_stimuli/rescaled_final/0477_fw.mp4	0.0	111.92424392700195	2.5088560581207275
14	94.90219807624817	pulse	1	t		12.0	2.5	/experiments/knapen_AOT/AOT_stimuli/rescaled_final/0477_fw.mp4	0.0	113.52090406417847	
14	95.81439399719238	fix_post	2		12	12.0	2.5	/experiments/knapen_AOT/AOT_stimuli/rescaled_final/0477_fw.mp4	0.0	114.43309998512268	0.10000896453857422
15	95.91440296173096	fix_pre	0		120	13.0	2.5	/experiments/knapen_AOT/AOT_stimuli/rescaled_final/0849_fw.mp4	0.0	114.53310894966125	1.0000591278076172
15	96.4979190826416	pulse	0	t		13.0	2.5	/experiments/knapen_AOT/AOT_stimuli/rescaled_final/0849_fw.mp4	0.0	115.1166250705719	
15	96.91446208953857	movie	1		243	13.0	2.5	/experiments/knapen_AOT/AOT_stimuli/rescaled_final/0849_fw.mp4	0.0	115.53316807746887	2.500471830368042
15	98.09816908836365	pulse	1	t		13.0	2.5	/experiments/knapen_AOT/AOT_stimuli/rescaled_final/0849_fw.mp4	0.0	116.71687507629395	
15	99.41493391990662	fix_post	2		12	13.0	2.5	/experiments/knapen_AOT/AOT_stimuli/rescaled_final/0849_fw.mp4	0.0	118.03363990783691	0.09992003440856934
16	99.51485395431519	fix_pre	0		120	14.0	2.5	blank	1.0	118.13355994224548	1.0001299381256104
16	99.69838905334473	pulse	0	t		14.0	2.5	blank	1.0	118.31709504127502	
16	100.5149838924408	movie	1		300	14.0	2.5	blank	1.0	119.1336898803711	2.500378131866455
16	101.29873299598694	pulse	1	t		14.0	2.5	blank	1.0	119.91743898391724	
16	102.89891600608826	pulse	1	t		14.0	2.5	blank	1.0	121.51762199401855	
16	103.01536202430725	fix_post	2		12	14.0	2.5	blank	1.0	121.63406801223755	0.10010004043579102
17	103.11546206474304	fix_pre	0		120	15.0	2.5	/experiments/knapen_AOT/AOT_stimuli/rescaled_final/0170_fw.mp4	0.0	121.73416805267334	1.0000529289245605
17	104.1155149936676	movie	1		241	15.0	2.5	/experiments/knapen_AOT/AOT_stimuli/rescaled_final/0170_fw.mp4	0.0	122.7342209815979	2.492121934890747
17	104.49981093406677	pulse	1	t		15.0	2.5	/experiments/knapen_AOT/AOT_stimuli/rescaled_final/0170_fw.mp4	0.0	123.11851692199707	
17	106.0992910861969	pulse	1	t		15.0	2.5	/experiments/knapen_AOT/AOT_stimuli/rescaled_final/0170_fw.mp4	0.0	124.7179970741272	
17	106.60763692855835	fix_post	2		12	15.0	2.5	/experiments/knapen_AOT/AOT_stimuli/rescaled_final/0170_fw.mp4	0.0	125.22634291648865	0.10001301765441895
18	106.70764994621277	fix_pre	0		120	16.0	2.5	/experiments/knapen_AOT/AOT_stimuli/rescaled_final/0826_fw.mp4	0.0	125.32635593414307	1.0000550746917725
18	107.69968390464783	pulse	0	t		16.0	2.5	/experiments/knapen_AOT/AOT_stimuli/rescaled_final/0826_fw.mp4	0.0	126.31838989257812	
18	107.70770502090454	movie	1		244	16.0	2.5	/experiments/knapen_AOT/AOT_stimuli/rescaled_final/0826_fw.mp4	0.0	126.32641100883484	2.508737087249756
18	109.3004379272461	pulse	1	t		16.0	2.5	/experiments/knapen_AOT/AOT_stimuli/rescaled_final/0826_fw.mp4	0.0	127.91914391517639	
18	110.2164421081543	fix_post	2		12	16.0	2.5	/experiments/knapen_AOT/AOT_stimuli/rescaled_final/0826_fw.mp4	0.0	128.8351480960846	0.1000678539276123
19	110.31650996208191	fix_pre	0		120	17.0	2.5	/experiments/knapen_AOT/AOT_stimuli/rescaled_final/0237_fw.mp4	0.0	128.9352159500122	1.000136137008667
19	110.900062084198	pulse	0	t		17.0	2.5	/experiments/knapen_AOT/AOT_stimuli/rescaled_final/0237_fw.mp4	0.0	129.5187680721283	
19	111.31664609909058	movie	1		243	17.0	2.5	/experiments/knapen_AOT/AOT_stimuli/rescaled_final/0237_fw.mp4	0.0	129.93535208702087	2.5004258155822754
19	112.49648904800415	pulse	1	t		17.0	2.5	/experiments/knapen_AOT/AOT_stimuli/rescaled_final/0237_fw.mp4	0.0	131.11519503593445	
19	113.81707191467285	fix_post	2		12	17.0	2.5	/experiments/knapen_AOT/AOT_stimuli/rescaled_final/0237_fw.mp4	0.0	132.43577790260315	0.09989714622497559
20	113.91696906089783	fix_pre	0		120	18.0	2.5	/experiments/knapen_AOT/AOT_stimuli/rescaled_final/0435_fw.mp4	0.0	132.53567504882812	1.000121831893921
20	114.10067391395569	pulse	0	t		18.0	2.5	/experiments/knapen_AOT/AOT_stimuli/rescaled_final/0435_fw.mp4	0.0	132.719379901886	
20	114.91709089279175	movie	1		243	18.0	2.5	/experiments/knapen_AOT/AOT_stimuli/rescaled_final/0435_fw.mp4	0.0	133.53579688072205	2.5005910396575928
20	115.70083689689636	pulse	1	t		18.0	2.5	/experiments/knapen_AOT/AOT_stimuli/rescaled_final/0435_fw.mp4	0.0	134.31954288482666	
20	117.30107688903809	pulse	1	t		18.0	2.5	/experiments/knapen_AOT/AOT_stimuli/rescaled_final/0435_fw.mp4	0.0	135.91978287696838	
20	117.41768193244934	fix_post	2		12	18.0	2.5	/experiments/knapen_AOT/AOT_stimuli/rescaled_final/0435_fw.mp4	0.0	136.03638792037964	0.09979796409606934
21	117.51747989654541	fix_pre	0		120	19.0	2.5	/experiments/knapen_AOT/AOT_stimuli/rescaled_final/0135_fw.mp4	0.0	136.1361858844757	1.0001811981201172
21	118.51766109466553	movie	1		241	19.0	2.5	/experiments/knapen_AOT/AOT_stimuli/rescaled_final/0135_fw.mp4	0.0	137.13636708259583	2.4921607971191406
21	118.90154910087585	pulse	1	t		19.0	2.5	/experiments/knapen_AOT/AOT_stimuli/rescaled_final/0135_fw.mp4	0.0	137.52025508880615	
21	120.49418592453003	pulse	1	t		19.0	2.5	/experiments/knapen_AOT/AOT_stimuli/rescaled_final/0135_fw.mp4	0.0	139.11289191246033	
21	121.00982189178467	fix_post	2		12	19.0	2.5	/experiments/knapen_AOT/AOT_stimuli/rescaled_final/0135_fw.mp4	0.0	139.62852787971497	0.0998830795288086
22	121.10970497131348	fix_pre	0		120	20.0	2.5	blank	1.0	139.72841095924377	1.0001461505889893
22	122.09423398971558	pulse	0	t		20.0	2.5	blank	1.0	140.71293997764587	
22	122.10985112190247	movie	1		301	20.0	2.5	blank	1.0	140.72855710983276	2.508739948272705
22	123.69453001022339	pulse	1	t		20.0	2.5	blank	1.0	142.3132359981537	
22	124.61859107017517	fix_post	2		12	20.0	2.5	blank	1.0	143.23729705810547	0.10007190704345703
23	124.71866297721863	fix_pre	0		120	21.0	2.5	/experiments/knapen_AOT/AOT_stimuli/rescaled_final/1167_rv.mp4	0.0	143.33736896514893	1.000028133392334
23	125.29470610618591	pulse	0	t		21.0	2.5	/experiments/knapen_AOT/AOT_stimuli/rescaled_final/1167_rv.mp4	0.0	143.9134120941162	
23	125.71869111061096	movie	1		243	21.0	2.5	/experiments/knapen_AOT/AOT_stimuli/rescaled_final/1167_rv.mp4	0.0	144.33739709854126	2.5005359649658203
23	126.8947229385376	pulse	1	t		21.0	2.5	/experiments/knapen_AOT/AOT_stimuli/rescaled_final/1167_rv.mp4	0.0	145.5134289264679	
23	128.21922707557678	fix_post	2		12	21.0	2.5	/experiments/knapen_AOT/AOT_stimuli/rescaled_final/1167_rv.mp4	0.0	146.83793306350708	0.09988689422607422
24	128.31911396980286	fix_pre	0		120	22.0	2.5	/experiments/knapen_AOT/AOT_stimuli/rescaled_final/0009_rv.mp4	0.0	146.93781995773315	1.0001389980316162
24	128.4942491054535	pulse	0	t		22.0	2.5	/experiments/knapen_AOT/AOT_stimuli/rescaled_final/0009_rv.mp4	0.0	147.1129550933838	
24	129.31925296783447	movie	1		242	22.0	2.5	/experiments/knapen_AOT/AOT_stimuli/rescaled_final/0009_rv.mp4	0.0	147.93795895576477	2.5006229877471924
24	130.09454488754272	pulse	1	t		22.0	2.5	/experiments/knapen_AOT/AOT_stimuli/rescaled_final/0009_rv.mp4	0.0	148.71325087547302	
24	131.6949179172516	pulse	1	t		22.0	2.5	/experiments/knapen_AOT/AOT_stimuli/rescaled_final/0009_rv.mp4	0.0	150.31362390518188	
24	131.81987595558167	fix_post	2		12	22.0	2.5	/experiments/knapen_AOT/AOT_stimuli/rescaled_final/0009_rv.mp4	0.0	150.43858194351196	0.09981799125671387
25	131.91969394683838	fix_pre	0		120	23.0	2.5	/experiments/knapen_AOT/AOT_stimuli/rescaled_final/1964_rv.mp4	0.0	150.53839993476868	1.0000970363616943
25	132.91979098320007	movie	1		242	23.0	2.5	/experiments/knapen_AOT/AOT_stimuli/rescaled_final/1964_rv.mp4	0.0	151.53849697113037	2.4922571182250977
25	133.29514002799988	pulse	1	t		23.0	2.5	/experiments/knapen_AOT/AOT_stimuli/rescaled_final/1964_rv.mp4	0.0	151.91384601593018	
25	134.8953709602356	pulse	1	t		23.0	2.5	/experiments/knapen_AOT/AOT_stimuli/rescaled_final/1964_rv.mp4	0.0	153.5140769481659	
25	135.41204810142517	fix_post	2		12	23.0	2.5	/experiments/knapen_AOT/AOT_stimuli/rescaled_final/1964_rv.mp4	0.0	154.03075408935547	0.09985089302062988
26	135.5118989944458	fix_pre	0		119	24.0	2.5	/experiments/knapen_AOT/AOT_stimuli/rescaled_final/1279_rv.mp4	0.0	154.1306049823761	0.9917600154876709
26	136.4955689907074	pulse	0	t		24.0	2.5	/experiments/knapen_AOT/AOT_stimuli/rescaled_final/1279_rv.mp4	0.0	155.1142749786377	
26	136.50365900993347	movie	1		244	24.0	2.5	/experiments/knapen_AOT/AOT_stimuli/rescaled_final/1279_rv.mp4	0.0	155.12236499786377	2.508807897567749
26	138.0964059829712	pulse	1	t		24.0	2.5	/experiments/knapen_AOT/AOT_stimuli/rescaled_final/1279_rv.mp4	0.0	156.7151119709015	
26	139.01246690750122	fix_post	2		12	24.0	2.5	/experiments/knapen_AOT/AOT_stimuli/rescaled_final/1279_rv.mp4	0.0	157.63117289543152	0.0999460220336914
27	139.1124129295349	fix_pre	0		120	25.0	2.5	/experiments/knapen_AOT/AOT_stimuli/rescaled_final/0086_rv.mp4	0.0	157.7311189174652	1.0001449584960938
27	139.69610500335693	pulse	0	t		25.0	2.5	/experiments/knapen_AOT/AOT_stimuli/rescaled_final/0086_rv.mp4	0.0	158.31481099128723	
27	140.112557888031	movie	1		242	25.0	2.5	/experiments/knapen_AOT/AOT_stimuli/rescaled_final/0086_rv.mp4	0.0	158.7312638759613	2.5005180835723877
27	141.2963089942932	pulse	1	t		25.0	2.5	/experiments/knapen_AOT/AOT_stimuli/rescaled_final/0086_rv.mp4	0.0	159.9150149822235	
27	142.6130759716034	fix_post	2		12	25.0	2.5	/experiments/knapen_AOT/AOT_stimuli/rescaled_final/0086_rv.mp4	0.0	161.2317819595337	0.09984707832336426
28	142.71292304992676	fix_pre	0		120	26.0	2.5	/experiments/knapen_AOT/AOT_stimuli/rescaled_final/0714_fw.mp4	0.0	161.33162903785706	1.0002009868621826
28	142.8964660167694	pulse	0	t		26.0	2.5	/experiments/knapen_AOT/AOT_stimuli/rescaled_final/0714_fw.mp4	0.0	161.5151720046997	
28	143.71312403678894	movie	1		243	26.0	2.5	/experiments/knapen_AOT/AOT_stimuli/rescaled_final/0714_fw.mp4	0.0	162.33183002471924	2.500359058380127
28	144.49671006202698	pulse	1	t		26.0	2.5	/experiments/knapen_AOT/AOT_stimuli/rescaled_final/0714_fw.mp4	0.0	163.11541604995728	
28	146.09699010849	pulse	1	t		26.0	2.5	/experiments/knapen_AOT/AOT_stimuli/rescaled_final/0714_fw.mp4	0.0	164.7156960964203	
28	146.21348309516907	fix_post	2		12	26.0	2.5	/experiments/knapen_AOT/AOT_stimuli/rescaled_final/0714_fw.mp4	0.0	164.83218908309937	0.10002398490905762
29	146.31350708007812	fix_pre	0		120	27.0	2.5	/experiments/knapen_AOT/AOT_stimuli/rescaled_final/1385_rv.mp4	0.0	164.93221306800842	1.0001628398895264
29	147.31366991996765	movie	1		242	27.0	2.5	/experiments/knapen_AOT/AOT_stimuli/rescaled_final/1385_rv.mp4	0.0	165.93237590789795	2.49219012260437
29	147.69798707962036	pulse	1	t		27.0	2.5	/experiments/knapen_AOT/AOT_stimuli/rescaled_final/1385_rv.mp4	0.0	166.31669306755066	
29	149.29742693901062	pulse	1	t		27.0	2.5	/experiments/knapen_AOT/AOT_stimuli/rescaled_final/1385_rv.mp4	0.0	167.91613292694092	
29	149.80586004257202	fix_post	2		12	27.0	2.5	/experiments/knapen_AOT/AOT_stimuli/rescaled_final/1385_rv.mp4	0.0	168.42456603050232	0.09984397888183594
30	149.90570402145386	fix_pre	0		120	28.0	2.5	blank	1.0	168.52441000938416	1.000166893005371
30	150.89771509170532	pulse	0	t		28.0	2.5	blank	1.0	169.51642107963562	
30	150.90587091445923	movie	1		298	28.0	2.5	blank	1.0	169.52457690238953	2.5086870193481445
30	152.4980731010437	pulse	1	t		28.0	2.5	blank	1.0	171.116779088974	
30	153.41455793380737	fix_post	2		12	28.0	2.5	blank	1.0	172.03326392173767	0.09998106956481934
31	153.5145390033722	fix_pre	0		120	29.0	2.5	/experiments/knapen_AOT/AOT_stimuli/rescaled_final/2043_rv.mp4	0.0	172.1332449913025	1.000209093093872
31	154.0981800556183	pulse	0	t		29.0	2.5	/experiments/knapen_AOT/AOT_stimuli/rescaled_final/2043_rv.mp4	0.0	172.71688604354858	
31	154.51474809646606	movie	1		243	29.0	2.5	/experiments/knapen_AOT/AOT_stimuli/rescaled_final/2043_rv.mp4	0.0	173.13345408439636	2.5004289150238037
31	155.6985080242157	pulse	1	t		29.0	2.5	/experiments/knapen_AOT/AOT_stimuli/rescaled_final/2043_rv.mp4	0.0	174.317214012146	
31	157.01517701148987	fix_post	2		12	29.0	2.5	/experiments/knapen_AOT/AOT_stimuli/rescaled_final/2043_rv.mp4	0.0	175.63388299942017	0.09992194175720215
32	157.11509895324707	fix_pre	0		120	30.0	2.5	/experiments/knapen_AOT/AOT_stimuli/rescaled_final/0400_fw.mp4	0.0	175.73380494117737	1.0001640319824219
32	157.2986490726471	pulse	0	t		30.0	2.5	/experiments/knapen_AOT/AOT_stimuli/rescaled_final/0400_fw.mp4	0.0	175.9173550605774	
32	158.1152629852295	movie	1		244	30.0	2.5	/experiments/knapen_AOT/AOT_stimuli/rescaled_final/0400_fw.mp4	0.0	176.7339689731598	2.500351905822754
32	158.89897108078003	pulse	1	t		30.0	2.5	/experiments/knapen_AOT/AOT_stimuli/rescaled_final/0400_fw.mp4	0.0	177.51767706871033	
32	160.49918508529663	pulse	1	t		30.0	2.5	/experiments/knapen_AOT/AOT_stimuli/rescaled_final/0400_fw.mp4	0.0	179.11789107322693	
32	160.61561489105225	fix_post	2		12	30.0	2.5	/experiments/knapen_AOT/AOT_stimuli/rescaled_final/0400_fw.mp4	0.0	179.23432087898254	0.10002303123474121
33	160.715637922287	fix_pre	0		120	31.0	2.5	/experiments/knapen_AOT/AOT_stimuli/rescaled_final/1288_rv.mp4	0.0	179.33434391021729	1.0002341270446777
33	161.71587204933167	movie	1		243	31.0	2.5	/experiments/knapen_AOT/AOT_stimuli/rescaled_final/1288_rv.mp4	0.0	180.33457803726196	2.491960048675537
33	162.1007571220398	pulse	1	t		31.0	2.5	/experiments/knapen_AOT/AOT_stimuli/rescaled_final/1288_rv.mp4	0.0	180.7194631099701	
33	163.69960498809814	pulse	1	t		31.0	2.5	/experiments/knapen_AOT/AOT_stimuli/rescaled_final/1288_rv.mp4	0.0	182.31831097602844	
33	164.2078320980072	fix_post	2		12	31.0	2.5	/experiments/knapen_AOT/AOT_stimuli/rescaled_final/1288_rv.mp4	0.0	182.8265380859375	0.10002493858337402
34	164.30785703659058	fix_pre	0		120	32.0	2.5	/experiments/knapen_AOT/AOT_stimuli/rescaled_final/0833_fw.mp4	0.0	182.92656302452087	1.0001299381256104
34	165.29993104934692	pulse	0	t		32.0	2.5	/experiments/knapen_AOT/AOT_stimuli/rescaled_final/0833_fw.mp4	0.0	183.91863703727722	
34	165.3079869747162	movie	1		243	32.0	2.5	/experiments/knapen_AOT/AOT_stimuli/rescaled_final/0833_fw.mp4	0.0	183.92669296264648	2.5086939334869385
34	166.9008219242096	pulse	1	t		32.0	2.5	/experiments/knapen_AOT/AOT_stimuli/rescaled_final/0833_fw.mp4	0.0	185.5195279121399	
34	167.81668090820312	fix_post	2		12	32.0	2.5	/experiments/knapen_AOT/AOT_stimuli/rescaled_final/0833_fw.mp4	0.0	186.43538689613342	0.10002398490905762
35	167.91670489311218	fix_pre	0		120	33.0	2.5	blank	1.0	186.53541088104248	1.000232219696045
35	168.50027298927307	pulse	0	t		33.0	2.5	blank	1.0	187.11897897720337	
35	168.91693711280823	movie	1		300	33.0	2.5	blank	1.0	187.53564310073853	2.5002598762512207
35	170.10057306289673	pulse	1	t		33.0	2.5	blank	1.0	188.71927905082703	
35	171.41719698905945	fix_post	2		12	33.0	2.5	blank	1.0	190.03590297698975	0.10010695457458496
36	171.51730394363403	fix_pre	0		120	34.0	2.5	/experiments/knapen_AOT/AOT_stimuli/rescaled_final/0125_rv.mp4	0.0	190.13600993156433	1.0001239776611328
36	171.70091199874878	pulse	0	t		34.0	2.5	/experiments/knapen_AOT/AOT_stimuli/rescaled_final/0125_rv.mp4	0.0	190.31961798667908	
36	172.51742792129517	movie	1		242	34.0	2.5	/experiments/knapen_AOT/AOT_stimuli/rescaled_final/0125_rv.mp4	0.0	191.13613390922546	2.5005581378936768
36	173.30106806755066	pulse	1	t		34.0	2.5	/experiments/knapen_AOT/AOT_stimuli/rescaled_final/0125_rv.mp4	0.0	191.91977405548096	
36	174.901447057724	pulse	1	t		34.0	2.5	/experiments/knapen_AOT/AOT_stimuli/rescaled_final/0125_rv.mp4	0.0	193.5201530456543	
36	175.01798605918884	fix_post	2		12	34.0	2.5	/experiments/knapen_AOT/AOT_stimuli/rescaled_final/0125_rv.mp4	0.0	193.63669204711914	0.09980487823486328
37	175.1177909374237	fix_pre	0		120	35.0	2.5	/experiments/knapen_AOT/AOT_stimuli/rescaled_final/1288_fw.mp4	0.0	193.736496925354	1.000223159790039
37	176.11801409721375	movie	1		242	35.0	2.5	/experiments/knapen_AOT/AOT_stimuli/rescaled_final/1288_fw.mp4	0.0	194.73672008514404	2.492105007171631
37	176.50217008590698	pulse	1	t		35.0	2.5	/experiments/knapen_AOT/AOT_stimuli/rescaled_final/1288_fw.mp4	0.0	195.12087607383728	
37	178.10182690620422	pulse	1	t		35.0	2.5	/experiments/knapen_AOT/AOT_stimuli/rescaled_final/1288_fw.mp4	0.0	196.72053289413452	
37	178.61011910438538	fix_post	2		12	35.0	2.5	/experiments/knapen_AOT/AOT_stimuli/rescaled_final/1288_fw.mp4	0.0	197.22882509231567	0.09985089302062988
38	178.709969997406	fix_pre	0		120	36.0	2.5	/experiments/knapen_AOT/AOT_stimuli/rescaled_final/1259_rv.mp4	0.0	197.3286759853363	1.0001699924468994
38	179.70197796821594	pulse	0	t		36.0	2.5	/experiments/knapen_AOT/AOT_stimuli/rescaled_final/1259_rv.mp4	0.0	198.32068395614624	
38	179.7101399898529	movie	1		244	36.0	2.5	/experiments/knapen_AOT/AOT_stimuli/rescaled_final/1259_rv.mp4	0.0	198.3288459777832	2.5087718963623047
38	181.3064420223236	pulse	1	t		36.0	2.5	/experiments/knapen_AOT/AOT_stimuli/rescaled_final/1259_rv.mp4	0.0	199.9251480102539	
38	182.2189118862152	fix_post	2		12	36.0	2.5	/experiments/knapen_AOT/AOT_stimuli/rescaled_final/1259_rv.mp4	0.0	200.8376178741455	0.09993505477905273
39	182.31884694099426	fix_pre	0		120	37.0	2.5	/experiments/knapen_AOT/AOT_stimuli/rescaled_final/2083_fw.mp4	0.0	200.93755292892456	1.0001890659332275
39	182.89491605758667	pulse	0	t		37.0	2.5	/experiments/knapen_AOT/AOT_stimuli/rescaled_final/2083_fw.mp4	0.0	201.51362204551697	
39	183.3190360069275	movie	1		242	37.0	2.5	/experiments/knapen_AOT/AOT_stimuli/rescaled_final/2083_fw.mp4	0.0	201.9377419948578	2.5005829334259033
39	184.49578309059143	pulse	1	t		37.0	2.5	/experiments/knapen_AOT/AOT_stimuli/rescaled_final/2083_fw.mp4	0.0	203.11448907852173	
39	185.8196189403534	fix_post	2		12	37.0	2.5	/experiments/knapen_AOT/AOT_stimuli/rescaled_final/2083_fw.mp4	0.0	204.4383249282837	0.09986114501953125
40	185.91948008537292	fix_pre	0		120	38.0	2.5	/experiments/knapen_AOT/AOT_stimuli/rescaled_final/0187_rv.mp4	0.0	204.53818607330322	1.0001349449157715
40	186.0953929424286	pulse	0	t		38.0	2.5	/experiments/knapen_AOT/AOT_stimuli/rescaled_final/0187_rv.mp4	0.0	204.7140989303589	
40	186.9196150302887	movie	1		244	38.0	2.5	/experiments/knapen_AOT/AOT_stimuli/rescaled_final/0187_rv.mp4	0.0	205.538321018219	2.5003058910369873
40	187.6956639289856	pulse	1	t		38.0	2.5	/experiments/knapen_AOT/AOT_stimuli/rescaled_final/0187_rv.mp4	0.0	206.3143699169159	
40	189.29502296447754	pulse	1	t		38.0	2.5	/experiments/knapen_AOT/AOT_stimuli/rescaled_final/0187_rv.mp4	0.0	207.91372895240784	
40	189.41992092132568	fix_post	2		12	38.0	2.5	/experiments/knapen_AOT/AOT_stimuli/rescaled_final/0187_rv.mp4	0.0	208.03862690925598	0.10003018379211426
41	189.5199511051178	fix_pre	0		119	39.0	2.5	/experiments/knapen_AOT/AOT_stimuli/rescaled_final/1990_rv.mp4	0.0	208.1386570930481	0.991797924041748
41	190.51174902915955	movie	1		243	39.0	2.5	/experiments/knapen_AOT/AOT_stimuli/rescaled_final/1990_rv.mp4	0.0	209.13045501708984	2.500464916229248
41	190.89587306976318	pulse	1	t		39.0	2.5	/experiments/knapen_AOT/AOT_stimuli/rescaled_final/1990_rv.mp4	0.0	209.51457905769348	
41	192.49561595916748	pulse	1	t		39.0	2.5	/experiments/knapen_AOT/AOT_stimuli/rescaled_final/1990_rv.mp4	0.0	211.11432194709778	
41	193.0122139453888	fix_post	2		12	39.0	2.5	/experiments/knapen_AOT/AOT_stimuli/rescaled_final/1990_rv.mp4	0.0	211.6309199333191	0.09994697570800781
42	193.1121609210968	fix_pre	0		119	40.0	2.5	/experiments/knapen_AOT/AOT_stimuli/rescaled_final/1703_rv.mp4	0.0	211.7308669090271	0.9917681217193604
42	194.0959119796753	pulse	0	t		40.0	2.5	/experiments/knapen_AOT/AOT_stimuli/rescaled_final/1703_rv.mp4	0.0	212.7146179676056	
42	194.10392904281616	movie	1		243	40.0	2.5	/experiments/knapen_AOT/AOT_stimuli/rescaled_final/1703_rv.mp4	0.0	212.72263503074646	2.5088229179382324
42	195.70054292678833	pulse	1	t		40.0	2.5	/experiments/knapen_AOT/AOT_stimuli/rescaled_final/1703_rv.mp4	0.0	214.31924891471863	
42	196.6127519607544	fix_post	2		12	40.0	2.5	/experiments/knapen_AOT/AOT_stimuli/rescaled_final/1703_rv.mp4	0.0	215.2314579486847	0.09997200965881348
43	196.7127239704132	fix_pre	0		120	41.0	2.5	/experiments/knapen_AOT/AOT_stimuli/rescaled_final/1490_fw.mp4	0.0	215.3314299583435	1.000108003616333
43	197.29622793197632	pulse	0	t		41.0	2.5	/experiments/knapen_AOT/AOT_stimuli/rescaled_final/1490_fw.mp4	0.0	215.91493391990662	
43	197.71283197402954	movie	1		242	41.0	2.5	/experiments/knapen_AOT/AOT_stimuli/rescaled_final/1490_fw.mp4	0.0	216.33153796195984	2.5004920959472656
43	198.89661192893982	pulse	1	t		41.0	2.5	/experiments/knapen_AOT/AOT_stimuli/rescaled_final/1490_fw.mp4	0.0	217.51531791687012	
43	200.2133240699768	fix_post	2		12	41.0	2.5	/experiments/knapen_AOT/AOT_stimuli/rescaled_final/1490_fw.mp4	0.0	218.8320300579071	0.09988903999328613
44	200.3132131099701	fix_pre	0		120	42.0	2.5	blank	1.0	218.9319190979004	1.0001928806304932
44	200.49690198898315	pulse	0	t		42.0	2.5	blank	1.0	219.11560797691345	
44	201.3134059906006	movie	1		300	42.0	2.5	blank	1.0	219.93211197853088	2.500364065170288
44	202.09703397750854	pulse	1	t		42.0	2.5	blank	1.0	220.71573996543884	
44	203.69720101356506	pulse	1	t		42.0	2.5	blank	1.0	222.31590700149536	
44	203.81377005577087	fix_post	2		12	42.0	2.5	blank	1.0	222.43247604370117	0.09999394416809082
45	203.91376399993896	fix_pre	0		120	43.0	2.5	/experiments/knapen_AOT/AOT_stimuli/rescaled_final/0281_fw.mp4	0.0	222.53246998786926	1.000143051147461
45	204.91390705108643	movie	1		242	43.0	2.5	/experiments/knapen_AOT/AOT_stimuli/rescaled_final/0281_fw.mp4	0.0	223.53261303901672	2.492011070251465
45	205.298593044281	pulse	1	t		43.0	2.5	/experiments/knapen_AOT/AOT_stimuli/rescaled_final/0281_fw.mp4	0.0	223.9172990322113	
45	206.89785408973694	pulse	1	t		43.0	2.5	/experiments/knapen_AOT/AOT_stimuli/rescaled_final/0281_fw.mp4	0.0	225.51656007766724	
45	207.4059181213379	fix_post	2		12	43.0	2.5	/experiments/knapen_AOT/AOT_stimuli/rescaled_final/0281_fw.mp4	0.0	226.0246241092682	0.10002684593200684
46	207.5059449672699	fix_pre	0		120	44.0	2.5	/experiments/knapen_AOT/AOT_stimuli/rescaled_final/1853_fw.mp4	0.0	226.1246509552002	1.0001699924468994
46	208.49804592132568	pulse	0	t		44.0	2.5	/experiments/knapen_AOT/AOT_stimuli/rescaled_final/1853_fw.mp4	0.0	227.11675190925598	
46	208.5061149597168	movie	1		244	44.0	2.5	/experiments/knapen_AOT/AOT_stimuli/rescaled_final/1853_fw.mp4	0.0	227.1248209476471	2.508774995803833
46	210.09941792488098	pulse	1	t		44.0	2.5	/experiments/knapen_AOT/AOT_stimuli/rescaled_final/1853_fw.mp4	0.0	228.71812391281128	
46	211.01488995552063	fix_post	2		12	44.0	2.5	/experiments/knapen_AOT/AOT_stimuli/rescaled_final/1853_fw.mp4	0.0	229.63359594345093	0.09996795654296875
47	211.1148579120636	fix_pre	0		118	45.0	2.5	/experiments/knapen_AOT/AOT_stimuli/rescaled_final/0655_rv.mp4	0.0	229.7335638999939	1.0001749992370605
47	211.69843101501465	pulse	0	t		45.0	2.5	/experiments/knapen_AOT/AOT_stimuli/rescaled_final/0655_rv.mp4	0.0	230.31713700294495	
47	212.11503291130066	movie	1		244	45.0	2.5	/experiments/knapen_AOT/AOT_stimuli/rescaled_final/0655_rv.mp4	0.0	230.73373889923096	2.500339984893799
47	213.29887104034424	pulse	1	t		45.0	2.5	/experiments/knapen_AOT/AOT_stimuli/rescaled_final/0655_rv.mp4	0.0	231.91757702827454	
47	214.61537289619446	fix_post	2		12	45.0	2.5	/experiments/knapen_AOT/AOT_stimuli/rescaled_final/0655_rv.mp4	0.0	233.23407888412476	0.10004115104675293
48	214.7154140472412	fix_pre	0		120	46.0	2.5	/experiments/knapen_AOT/AOT_stimuli/rescaled_final/1484_rv.mp4	0.0	233.3341200351715	1.0001170635223389
48	214.89904403686523	pulse	0	t		46.0	2.5	/experiments/knapen_AOT/AOT_stimuli/rescaled_final/1484_rv.mp4	0.0	233.51775002479553	
48	215.71553111076355	movie	1		242	46.0	2.5	/experiments/knapen_AOT/AOT_stimuli/rescaled_final/1484_rv.mp4	0.0	234.33423709869385	2.500393867492676
48	216.49913692474365	pulse	1	t		46.0	2.5	/experiments/knapen_AOT/AOT_stimuli/rescaled_final/1484_rv.mp4	0.0	235.11784291267395	
48	218.09995293617249	pulse	1	t		46.0	2.5	/experiments/knapen_AOT/AOT_stimuli/rescaled_final/1484_rv.mp4	0.0	236.71865892410278	
48	218.21592497825623	fix_post	2		12	46.0	2.5	/experiments/knapen_AOT/AOT_stimuli/rescaled_final/1484_rv.mp4	0.0	236.83463096618652	0.10001897811889648
49	218.31594395637512	fix_pre	0		120	47.0	2.5	/experiments/knapen_AOT/AOT_stimuli/rescaled_final/0616_fw.mp4	0.0	236.93464994430542	1.0001139640808105
49	219.31605792045593	movie	1		241	47.0	2.5	/experiments/knapen_AOT/AOT_stimuli/rescaled_final/0616_fw.mp4	0.0	237.93476390838623	2.492065191268921
49	219.7000060081482	pulse	1	t		47.0	2.5	/experiments/knapen_AOT/AOT_stimuli/rescaled_final/0616_fw.mp4	0.0	238.3187119960785	
49	221.30002999305725	pulse	1	t		47.0	2.5	/experiments/knapen_AOT/AOT_stimuli/rescaled_final/0616_fw.mp4	0.0	239.91873598098755	
49	221.80812311172485	fix_post	2		12	47.0	2.5	/experiments/knapen_AOT/AOT_stimuli/rescaled_final/0616_fw.mp4	0.0	240.42682909965515	0.09997391700744629
50	221.9080970287323	fix_pre	0		120	48.0	2.5	/experiments/knapen_AOT/AOT_stimuli/rescaled_final/0487_fw.mp4	0.0	240.5268030166626	1.0001630783081055
50	222.90012788772583	pulse	0	t		48.0	2.5	/experiments/knapen_AOT/AOT_stimuli/rescaled_final/0487_fw.mp4	0.0	241.51883387565613	
50	222.9082601070404	movie	1		245	48.0	2.5	/experiments/knapen_AOT/AOT_stimuli/rescaled_final/0487_fw.mp4	0.0	241.5269660949707	2.508744955062866
50	224.50075602531433	pulse	1	t		48.0	2.5	/experiments/knapen_AOT/AOT_stimuli/rescaled_final/0487_fw.mp4	0.0	243.11946201324463	
50	225.41700506210327	fix_post	2		12	48.0	2.5	/experiments/knapen_AOT/AOT_stimuli/rescaled_final/0487_fw.mp4	0.0	244.03571105003357	0.09997892379760742
51	225.51698398590088	fix_pre	0		120	49.0	2.5	blank	1.0	244.13568997383118	1.000136137008667
51	226.10070991516113	pulse	0	t		49.0	2.5	blank	1.0	244.71941590309143	
51	226.51712012290955	movie	1		300	49.0	2.5	blank	1.0	245.13582611083984	2.5004379749298096
51	227.7009139060974	pulse	1	t		49.0	2.5	blank	1.0	246.3196198940277	
51	229.01755809783936	fix_post	2		12	49.0	2.5	blank	1.0	247.63626408576965	0.10004591941833496
52	229.1176040172577	fix_pre	0		120	50.0	2.5	/experiments/knapen_AOT/AOT_stimuli/rescaled_final/1871_rv.mp4	0.0	247.736310005188	1.0000438690185547
52	229.30117392539978	pulse	0	t		50.0	2.5	/experiments/knapen_AOT/AOT_stimuli/rescaled_final/1871_rv.mp4	0.0	247.91987991333008	
52	230.11764788627625	movie	1		243	50.0	2.5	/experiments/knapen_AOT/AOT_stimuli/rescaled_final/1871_rv.mp4	0.0	248.73635387420654	2.5005011558532715
52	230.90127897262573	pulse	1	t		50.0	2.5	/experiments/knapen_AOT/AOT_stimuli/rescaled_final/1871_rv.mp4	0.0	249.51998496055603	
52	232.50144290924072	pulse	1	t		50.0	2.5	/experiments/knapen_AOT/AOT_stimuli/rescaled_final/1871_rv.mp4	0.0	251.12014889717102	
52	232.61814904212952	fix_post	2		12	50.0	2.5	/experiments/knapen_AOT/AOT_stimuli/rescaled_final/1871_rv.mp4	0.0	251.23685503005981	0.0999000072479248
53	232.71804904937744	fix_pre	0		120	51.0	2.5	/experiments/knapen_AOT/AOT_stimuli/rescaled_final/1646_rv.mp4	0.0	251.33675503730774	1.0001468658447266
53	233.71819591522217	movie	1		241	51.0	2.5	/experiments/knapen_AOT/AOT_stimuli/rescaled_final/1646_rv.mp4	0.0	252.33690190315247	2.4921040534973145
53	234.10229992866516	pulse	1	t		51.0	2.5	/experiments/knapen_AOT/AOT_stimuli/rescaled_final/1646_rv.mp4	0.0	252.72100591659546	
53	235.6946370601654	pulse	1	t		51.0	2.5	/experiments/knapen_AOT/AOT_stimuli/rescaled_final/1646_rv.mp4	0.0	254.3133430480957	
53	236.21029996871948	fix_post	2		12	51.0	2.5	/experiments/knapen_AOT/AOT_stimuli/rescaled_final/1646_rv.mp4	0.0	254.82900595664978	0.09996795654296875
54	236.31026792526245	fix_pre	0		120	52.0	2.5	/experiments/knapen_AOT/AOT_stimuli/rescaled_final/1385_fw.mp4	0.0	254.92897391319275	1.000288963317871
54	237.29482007026672	pulse	0	t		52.0	2.5	/experiments/knapen_AOT/AOT_stimuli/rescaled_final/1385_fw.mp4	0.0	255.91352605819702	
54	237.31055688858032	movie	1		244	52.0	2.5	/experiments/knapen_AOT/AOT_stimuli/rescaled_final/1385_fw.mp4	0.0	255.92926287651062	2.50862717628479
54	238.9070920944214	pulse	1	t		52.0	2.5	/experiments/knapen_AOT/AOT_stimuli/rescaled_final/1385_fw.mp4	0.0	257.5257980823517	
54	239.8191840648651	fix_post	2		12	52.0	2.5	/experiments/knapen_AOT/AOT_stimuli/rescaled_final/1385_fw.mp4	0.0	258.4378900527954	0.09993195533752441
55	239.91911602020264	fix_pre	0		120	53.0	2.5	/experiments/knapen_AOT/AOT_stimuli/rescaled_final/1197_fw.mp4	0.0	258.53782200813293	1.0002000331878662
55	240.4944610595703	pulse	0	t		53.0	2.5	/experiments/knapen_AOT/AOT_stimuli/rescaled_final/1197_fw.mp4	0.0	259.1131670475006	
55	240.9193160533905	movie	1		242	53.0	2.5	/experiments/knapen_AOT/AOT_stimuli/rescaled_final/1197_fw.mp4	0.0	259.5380220413208	2.5004940032958984
55	242.09588289260864	pulse	1	t		53.0	2.5	/experiments/knapen_AOT/AOT_stimuli/rescaled_final/1197_fw.mp4	0.0	260.71458888053894	
55	243.4198100566864	fix_post	2		12	53.0	2.5	/experiments/knapen_AOT/AOT_stimuli/rescaled_final/1197_fw.mp4	0.0	262.0385160446167	0.09990406036376953
56	243.51971411705017	fix_pre	0		120	54.0	2.5	/experiments/knapen_AOT/AOT_stimuli/rescaled_final/0859_rv.mp4	0.0	262.13842010498047	1.0000979900360107
56	243.69499397277832	pulse	0	t		54.0	2.5	/experiments/knapen_AOT/AOT_stimuli/rescaled_final/0859_rv.mp4	0.0	262.3136999607086	
56	244.51981210708618	movie	1		242	54.0	2.5	/experiments/knapen_AOT/AOT_stimuli/rescaled_final/0859_rv.mp4	0.0	263.1385180950165	2.5005359649658203
56	245.29518389701843	pulse	1	t		54.0	2.5	/experiments/knapen_AOT/AOT_stimuli/rescaled_final/0859_rv.mp4	0.0	263.91388988494873	
56	246.89532208442688	pulse	1	t		54.0	2.5	/experiments/knapen_AOT/AOT_stimuli/rescaled_final/0859_rv.mp4	0.0	265.5140280723572	
56	247.020348072052	fix_post	2		12	54.0	2.5	/experiments/knapen_AOT/AOT_stimuli/rescaled_final/0859_rv.mp4	0.0	265.6390540599823	0.09988594055175781
57	247.12023401260376	fix_pre	0		119	55.0	2.5	/experiments/knapen_AOT/AOT_stimuli/rescaled_final/1259_rv.mp4	0.0	265.73894000053406	0.9917950630187988
57	248.11202907562256	movie	1		243	55.0	2.5	/experiments/knapen_AOT/AOT_stimuli/rescaled_final/1259_rv.mp4	0.0	266.73073506355286	2.5003509521484375
57	248.4967520236969	pulse	1	t		55.0	2.5	/experiments/knapen_AOT/AOT_stimuli/rescaled_final/1259_rv.mp4	0.0	267.1154580116272	
57	250.09592199325562	pulse	1	t		55.0	2.5	/experiments/knapen_AOT/AOT_stimuli/rescaled_final/1259_rv.mp4	0.0	268.7146279811859	
57	250.612380027771	fix_post	2		12	55.0	2.5	/experiments/knapen_AOT/AOT_stimuli/rescaled_final/1259_rv.mp4	0.0	269.2310860157013	0.10005998611450195
58	250.7124400138855	fix_pre	0		119	56.0	2.5	blank	1.0	269.3311460018158	0.9917690753936768
58	251.6961190700531	pulse	0	t		56.0	2.5	blank	1.0	270.3148250579834	
58	251.70420908927917	movie	1		301	56.0	2.5	blank	1.0	270.3229150772095	2.508711814880371
58	253.2962839603424	pulse	1	t		56.0	2.5	blank	1.0	271.9149899482727	
58	254.21292090415955	fix_post	2		12	56.0	2.5	blank	1.0	272.83162689208984	0.10003805160522461
59	254.31295895576477	fix_pre	0		120	57.0	2.5	/experiments/knapen_AOT/AOT_stimuli/rescaled_final/0237_rv.mp4	0.0	272.93166494369507	1.0001239776611328
59	254.89667892456055	pulse	0	t		57.0	2.5	/experiments/knapen_AOT/AOT_stimuli/rescaled_final/0237_rv.mp4	0.0	273.51538491249084	
59	255.3130829334259	movie	1		243	57.0	2.5	/experiments/knapen_AOT/AOT_stimuli/rescaled_final/0237_rv.mp4	0.0	273.9317889213562	2.5005431175231934
59	256.4969251155853	pulse	1	t		57.0	2.5	/experiments/knapen_AOT/AOT_stimuli/rescaled_final/0237_rv.mp4	0.0	275.1156311035156	
59	257.8136260509491	fix_post	2		12	57.0	2.5	/experiments/knapen_AOT/AOT_stimuli/rescaled_final/0237_rv.mp4	0.0	276.4323320388794	0.09983491897583008
60	257.9134609699249	fix_pre	0		120	58.0	2.5	/experiments/knapen_AOT/AOT_stimuli/rescaled_final/1916_rv.mp4	0.0	276.5321669578552	1.0001840591430664
60	258.09707593917847	pulse	0	t		58.0	2.5	/experiments/knapen_AOT/AOT_stimuli/rescaled_final/1916_rv.mp4	0.0	276.71578192710876	
60	258.913645029068	movie	1		242	58.0	2.5	/experiments/knapen_AOT/AOT_stimuli/rescaled_final/1916_rv.mp4	0.0	277.5323510169983	2.500469923019409
60	259.6972689628601	pulse	1	t		58.0	2.5	/experiments/knapen_AOT/AOT_stimuli/rescaled_final/1916_rv.mp4	0.0	278.3159749507904	
60	261.2975060939789	pulse	1	t		58.0	2.5	/experiments/knapen_AOT/AOT_stimuli/rescaled_final/1916_rv.mp4	0.0	279.9162120819092	
60	261.4141149520874	fix_post	2		12	58.0	2.5	/experiments/knapen_AOT/AOT_stimuli/rescaled_final/1916_rv.mp4	0.0	280.0328209400177	0.0998990535736084
61	261.514014005661	fix_pre	0		120	59.0	2.5	/experiments/knapen_AOT/AOT_stimuli/rescaled_final/1127_fw.mp4	0.0	280.1327199935913	1.0001540184020996
61	262.5141680240631	movie	1		242	59.0	2.5	/experiments/knapen_AOT/AOT_stimuli/rescaled_final/1127_fw.mp4	0.0	281.1328740119934	2.4922070503234863
61	262.89973497390747	pulse	1	t		59.0	2.5	/experiments/knapen_AOT/AOT_stimuli/rescaled_final/1127_fw.mp4	0.0	281.51844096183777	
61	264.4979920387268	pulse	1	t		59.0	2.5	/experiments/knapen_AOT/AOT_stimuli/rescaled_final/1127_fw.mp4	0.0	283.1166980266571	
61	265.0063750743866	fix_post	2		12	59.0	2.5	/experiments/knapen_AOT/AOT_stimuli/rescaled_final/1127_fw.mp4	0.0	283.6250810623169	0.09989786148071289
62	265.1062729358673	fix_pre	0		120	60.0	2.5	/experiments/knapen_AOT/AOT_stimuli/rescaled_final/1693_rv.mp4	0.0	283.7249789237976	1.0001580715179443
62	266.0981779098511	pulse	0	t		60.0	2.5	/experiments/knapen_AOT/AOT_stimuli/rescaled_final/1693_rv.mp4	0.0	284.7168838977814	
62	266.10643100738525	movie	1		245	60.0	2.5	/experiments/knapen_AOT/AOT_stimuli/rescaled_final/1693_rv.mp4	0.0	284.72513699531555	2.508631944656372
62	267.6991329193115	pulse	1	t		60.0	2.5	/experiments/knapen_AOT/AOT_stimuli/rescaled_final/1693_rv.mp4	0.0	286.3178389072418	
62	268.6150629520416	fix_post	2		12	60.0	2.5	/experiments/knapen_AOT/AOT_stimuli/rescaled_final/1693_rv.mp4	0.0	287.2337689399719	0.10001015663146973
63	268.7150731086731	fix_pre	0		120	61.0	2.5	blank	1.0	287.3337790966034	1.0002119541168213
63	269.2987389564514	pulse	0	t		61.0	2.5	blank	1.0	287.9174449443817	
63	269.7152850627899	movie	1		300	61.0	2.5	blank	1.0	288.3339910507202	2.5003349781036377
63	270.89893198013306	pulse	1	t		61.0	2.5	blank	1.0	289.51763796806335	
63	272.21562004089355	fix_post	2		12	61.0	2.5	blank	1.0	290.83432602882385	0.10004591941833496
64	272.3156659603119	fix_pre	0		120	62.0	2.5	/experiments/knapen_AOT/AOT_stimuli/rescaled_final/1874_fw.mp4	0.0	290.9343719482422	1.0000951290130615
64	272.49916791915894	pulse	0	t		62.0	2.5	/experiments/knapen_AOT/AOT_stimuli/rescaled_final/1874_fw.mp4	0.0	291.11787390708923	
64	273.31576108932495	movie	1		240	62.0	2.5	/experiments/knapen_AOT/AOT_stimuli/rescaled_final/1874_fw.mp4	0.0	291.93446707725525	2.5004289150238037
64	274.0995080471039	pulse	1	t		62.0	2.5	/experiments/knapen_AOT/AOT_stimuli/rescaled_final/1874_fw.mp4	0.0	292.7182140350342	
64	275.699590921402	pulse	1	t		62.0	2.5	/experiments/knapen_AOT/AOT_stimuli/rescaled_final/1874_fw.mp4	0.0	294.3182969093323	
64	275.81619000434875	fix_post	2		12	62.0	2.5	/experiments/knapen_AOT/AOT_stimuli/rescaled_final/1874_fw.mp4	0.0	294.43489599227905	0.09997797012329102
65	275.91616797447205	fix_pre	0		120	63.0	2.5	/experiments/knapen_AOT/AOT_stimuli/rescaled_final/0284_rv.mp4	0.0	294.53487396240234	1.0002329349517822
65	276.9164009094238	movie	1		241	63.0	2.5	/experiments/knapen_AOT/AOT_stimuli/rescaled_final/0284_rv.mp4	0.0	295.5351068973541	2.492033004760742
65	277.3004570007324	pulse	1	t		63.0	2.5	/experiments/knapen_AOT/AOT_stimuli/rescaled_final/0284_rv.mp4	0.0	295.9191629886627	
65	278.90009689331055	pulse	1	t		63.0	2.5	/experiments/knapen_AOT/AOT_stimuli/rescaled_final/0284_rv.mp4	0.0	297.51880288124084	
65	279.40843391418457	fix_post	2		12	63.0	2.5	/experiments/knapen_AOT/AOT_stimuli/rescaled_final/0284_rv.mp4	0.0	298.02713990211487	0.10001111030578613
66	279.50844502449036	fix_pre	0		120	64.0	2.5	/experiments/knapen_AOT/AOT_stimuli/rescaled_final/1087_rv.mp4	0.0	298.12715101242065	1.0000860691070557
66	280.5003890991211	pulse	0	t		64.0	2.5	/experiments/knapen_AOT/AOT_stimuli/rescaled_final/1087_rv.mp4	0.0	299.1190950870514	
66	280.5085310935974	movie	1		244	64.0	2.5	/experiments/knapen_AOT/AOT_stimuli/rescaled_final/1087_rv.mp4	0.0	299.1272370815277	2.5087478160858154
66	282.10470700263977	pulse	1	t		64.0	2.5	/experiments/knapen_AOT/AOT_stimuli/rescaled_final/1087_rv.mp4	0.0	300.72341299057007	
66	283.0172789096832	fix_post	2		12	64.0	2.5	/experiments/knapen_AOT/AOT_stimuli/rescaled_final/1087_rv.mp4	0.0	301.6359848976135	0.09999799728393555
67	283.11727690696716	fix_pre	0		120	65.0	2.5	/experiments/knapen_AOT/AOT_stimuli/rescaled_final/0713_fw.mp4	0.0	301.73598289489746	1.0001389980316162
67	283.70095896720886	pulse	0	t		65.0	2.5	/experiments/knapen_AOT/AOT_stimuli/rescaled_final/0713_fw.mp4	0.0	302.31966495513916	
67	284.1174159049988	movie	1		244	65.0	2.5	/experiments/knapen_AOT/AOT_stimuli/rescaled_final/0713_fw.mp4	0.0	302.7361218929291	2.500347137451172
67	285.30117106437683	pulse	1	t		65.0	2.5	/experiments/knapen_AOT/AOT_stimuli/rescaled_final/0713_fw.mp4	0.0	303.91987705230713	
67	286.61776304244995	fix_post	2		12	65.0	2.5	/experiments/knapen_AOT/AOT_stimuli/rescaled_final/0713_fw.mp4	0.0	305.23646903038025	0.10002994537353516
68	286.7177929878235	fix_pre	0		120	66.0	2.5	/experiments/knapen_AOT/AOT_stimuli/rescaled_final/1289_rv.mp4	0.0	305.3364989757538	1.0001370906829834
68	286.90139389038086	pulse	0	t		66.0	2.5	/experiments/knapen_AOT/AOT_stimuli/rescaled_final/1289_rv.mp4	0.0	305.52009987831116	
68	287.71793007850647	movie	1		242	66.0	2.5	/experiments/knapen_AOT/AOT_stimuli/rescaled_final/1289_rv.mp4	0.0	306.33663606643677	2.500584840774536
68	288.5017681121826	pulse	1	t		66.0	2.5	/experiments/knapen_AOT/AOT_stimuli/rescaled_final/1289_rv.mp4	0.0	307.1204741001129	
68	290.1015920639038	pulse	1	t		66.0	2.5	/experiments/knapen_AOT/AOT_stimuli/rescaled_final/1289_rv.mp4	0.0	308.7202980518341	
68	290.218514919281	fix_post	2		12	66.0	2.5	/experiments/knapen_AOT/AOT_stimuli/rescaled_final/1289_rv.mp4	0.0	308.8372209072113	0.09984612464904785
69	290.31836104393005	fix_pre	0		119	67.0	2.5	/experiments/knapen_AOT/AOT_stimuli/rescaled_final/1161_rv.mp4	0.0	308.93706703186035	0.9917769432067871
69	291.31013798713684	movie	1		242	67.0	2.5	/experiments/knapen_AOT/AOT_stimuli/rescaled_final/1161_rv.mp4	0.0	309.92884397506714	2.5005979537963867
69	291.7021760940552	pulse	1	t		67.0	2.5	/experiments/knapen_AOT/AOT_stimuli/rescaled_final/1161_rv.mp4	0.0	310.3208820819855	
69	293.30232095718384	pulse	1	t		67.0	2.5	/experiments/knapen_AOT/AOT_stimuli/rescaled_final/1161_rv.mp4	0.0	311.92102694511414	
69	293.8107359409332	fix_post	2		12	67.0	2.5	/experiments/knapen_AOT/AOT_stimuli/rescaled_final/1161_rv.mp4	0.0	312.4294419288635	0.09982514381408691
70	293.9105610847473	fix_pre	0		120	68.0	2.5	/experiments/knapen_AOT/AOT_stimuli/rescaled_final/0031_rv.mp4	0.0	312.5292670726776	1.0001578330993652
70	294.8950569629669	pulse	0	t		68.0	2.5	/experiments/knapen_AOT/AOT_stimuli/rescaled_final/0031_rv.mp4	0.0	313.5137629508972	
70	294.9107189178467	movie	1		244	68.0	2.5	/experiments/knapen_AOT/AOT_stimuli/rescaled_final/0031_rv.mp4	0.0	313.529424905777	2.5086991786956787
70	296.50340509414673	pulse	1	t		68.0	2.5	/experiments/knapen_AOT/AOT_stimuli/rescaled_final/0031_rv.mp4	0.0	315.122111082077	
70	297.41941809654236	fix_post	2		12	68.0	2.5	/experiments/knapen_AOT/AOT_stimuli/rescaled_final/0031_rv.mp4	0.0	316.03812408447266	0.10002398490905762
71	297.5194420814514	fix_pre	0		120	69.0	2.5	/experiments/knapen_AOT/AOT_stimuli/rescaled_final/0017_fw.mp4	0.0	316.1381480693817	1.000093936920166
71	298.0955810546875	pulse	0	t		69.0	2.5	/experiments/knapen_AOT/AOT_stimuli/rescaled_final/0017_fw.mp4	0.0	316.7142870426178	
71	298.5195360183716	movie	1		244	69.0	2.5	/experiments/knapen_AOT/AOT_stimuli/rescaled_final/0017_fw.mp4	0.0	317.1382420063019	2.5004680156707764
71	299.69988894462585	pulse	1	t		69.0	2.5	/experiments/knapen_AOT/AOT_stimuli/rescaled_final/0017_fw.mp4	0.0	318.31859493255615	
71	301.02000403404236	fix_post	2		12	69.0	2.5	/experiments/knapen_AOT/AOT_stimuli/rescaled_final/0017_fw.mp4	0.0	319.63871002197266	0.09993600845336914
72	301.1199400424957	fix_pre	0		120	70.0	2.5	blank	1.0	319.738646030426	1.0001540184020996
72	301.2952620983124	pulse	0	t		70.0	2.5	blank	1.0	319.9139680862427	
72	302.1200940608978	movie	1		300	70.0	2.5	blank	1.0	320.7388000488281	2.500385046005249
72	302.8953459262848	pulse	1	t		70.0	2.5	blank	1.0	321.5140519142151	
72	304.49572491645813	pulse	1	t		70.0	2.5	blank	1.0	323.1144309043884	
72	304.6204791069031	fix_post	2		11	70.0	2.5	blank	1.0	323.2391850948334	0.09165000915527344
73	304.71212911605835	fix_pre	0		120	71.0	2.5	/experiments/knapen_AOT/AOT_stimuli/rescaled_final/1976_rv.mp4	0.0	323.33083510398865	1.0001578330993652
73	305.7122869491577	movie	1		242	71.0	2.5	/experiments/knapen_AOT/AOT_stimuli/rescaled_final/1976_rv.mp4	0.0	324.330992937088	2.500563144683838
73	306.09670400619507	pulse	1	t		71.0	2.5	/experiments/knapen_AOT/AOT_stimuli/rescaled_final/1976_rv.mp4	0.0	324.71540999412537	
73	307.6961479187012	pulse	1	t		71.0	2.5	/experiments/knapen_AOT/AOT_stimuli/rescaled_final/1976_rv.mp4	0.0	326.31485390663147	
73	308.21285009384155	fix_post	2		12	71.0	2.5	/experiments/knapen_AOT/AOT_stimuli/rescaled_final/1976_rv.mp4	0.0	326.83155608177185	0.09981298446655273
74	308.3126630783081	fix_pre	0		119	72.0	2.5	/experiments/knapen_AOT/AOT_stimuli/rescaled_final/1662_fw.mp4	0.0	326.9313690662384	0.9918968677520752
74	309.296324968338	pulse	0	t		72.0	2.5	/experiments/knapen_AOT/AOT_stimuli/rescaled_final/1662_fw.mp4	0.0	327.9150309562683	
74	309.3045599460602	movie	1		243	72.0	2.5	/experiments/knapen_AOT/AOT_stimuli/rescaled_final/1662_fw.mp4	0.0	327.9232659339905	2.5086851119995117
74	310.8971450328827	pulse	1	t		72.0	2.5	/experiments/knapen_AOT/AOT_stimuli/rescaled_final/1662_fw.mp4	0.0	329.515851020813	
74	311.8132450580597	fix_post	2		12	72.0	2.5	/experiments/knapen_AOT/AOT_stimuli/rescaled_final/1662_fw.mp4	0.0	330.43195104599	0.0999748706817627
75	311.91321992874146	fix_pre	0		120	73.0	2.5	/experiments/knapen_AOT/AOT_stimuli/rescaled_final/1814_fw.mp4	0.0	330.53192591667175	1.0001921653747559
75	312.49688696861267	pulse	0	t		73.0	2.5	/experiments/knapen_AOT/AOT_stimuli/rescaled_final/1814_fw.mp4	0.0	331.11559295654297	
75	312.9134120941162	movie	1		243	73.0	2.5	/experiments/knapen_AOT/AOT_stimuli/rescaled_final/1814_fw.mp4	0.0	331.5321180820465	2.500540018081665
75	314.09718108177185	pulse	1	t		73.0	2.5	/experiments/knapen_AOT/AOT_stimuli/rescaled_final/1814_fw.mp4	0.0	332.71588706970215	
75	315.4139521121979	fix_post	2		12	73.0	2.5	/experiments/knapen_AOT/AOT_stimuli/rescaled_final/1814_fw.mp4	0.0	334.0326581001282	0.09986996650695801
76	315.51382207870483	fix_pre	0		120	74.0	2.5	/experiments/knapen_AOT/AOT_stimuli/rescaled_final/0002_rv.mp4	0.0	334.13252806663513	1.0002110004425049
76	315.69726490974426	pulse	0	t		74.0	2.5	/experiments/knapen_AOT/AOT_stimuli/rescaled_final/0002_rv.mp4	0.0	334.31597089767456	
76	316.51403307914734	movie	1		242	74.0	2.5	/experiments/knapen_AOT/AOT_stimuli/rescaled_final/0002_rv.mp4	0.0	335.13273906707764	2.5004279613494873
76	317.2975959777832	pulse	1	t		74.0	2.5	/experiments/knapen_AOT/AOT_stimuli/rescaled_final/0002_rv.mp4	0.0	335.9163019657135	
76	318.8984808921814	pulse	1	t		74.0	2.5	/experiments/knapen_AOT/AOT_stimuli/rescaled_final/0002_rv.mp4	0.0	337.5171868801117	
76	319.0144610404968	fix_post	2		12	74.0	2.5	/experiments/knapen_AOT/AOT_stimuli/rescaled_final/0002_rv.mp4	0.0	337.6331670284271	0.0998680591583252
77	319.11432909965515	fix_pre	0		119	75.0	2.5	/experiments/knapen_AOT/AOT_stimuli/rescaled_final/0525_fw.mp4	0.0	337.73303508758545	0.9917829036712646
77	320.1061120033264	movie	1		243	75.0	2.5	/experiments/knapen_AOT/AOT_stimuli/rescaled_final/0525_fw.mp4	0.0	338.7248179912567	2.5004079341888428
77	320.4980969429016	pulse	1	t		75.0	2.5	/experiments/knapen_AOT/AOT_stimuli/rescaled_final/0525_fw.mp4	0.0	339.1168029308319	
77	322.0983009338379	pulse	1	t		75.0	2.5	/experiments/knapen_AOT/AOT_stimuli/rescaled_final/0525_fw.mp4	0.0	340.7170069217682	
77	322.60651993751526	fix_post	2		12	75.0	2.5	/experiments/knapen_AOT/AOT_stimuli/rescaled_final/0525_fw.mp4	0.0	341.22522592544556	0.09999299049377441
78	322.70651292800903	fix_pre	0		120	76.0	2.5	blank	1.0	341.32521891593933	1.0001740455627441
78	323.69847893714905	pulse	0	t		76.0	2.5	blank	1.0	342.31718492507935	
78	323.7066869735718	movie	1		301	76.0	2.5	blank	1.0	342.3253929615021	2.508661985397339
78	325.2988200187683	pulse	1	t		76.0	2.5	blank	1.0	343.9175260066986	
78	326.2153489589691	fix_post	2		12	76.0	2.5	blank	1.0	344.8340549468994	0.10002899169921875
79	326.31537795066833	fix_pre	0		120	77.0	2.5	/experiments/knapen_AOT/AOT_stimuli/rescaled_final/1875_rv.mp4	0.0	344.93408393859863	1.0001800060272217
79	326.8991560935974	pulse	0	t		77.0	2.5	/experiments/knapen_AOT/AOT_stimuli/rescaled_final/1875_rv.mp4	0.0	345.5178620815277	
79	327.31555795669556	movie	1		242	77.0	2.5	/experiments/knapen_AOT/AOT_stimuli/rescaled_final/1875_rv.mp4	0.0	345.93426394462585	2.5004971027374268
79	328.4993920326233	pulse	1	t		77.0	2.5	/experiments/knapen_AOT/AOT_stimuli/rescaled_final/1875_rv.mp4	0.0	347.1180980205536	
79	329.816055059433	fix_post	2		12	77.0	2.5	/experiments/knapen_AOT/AOT_stimuli/rescaled_final/1875_rv.mp4	0.0	348.4347610473633	0.09987688064575195
80	329.91593194007874	fix_pre	0		120	78.0	2.5	/experiments/knapen_AOT/AOT_stimuli/rescaled_final/0849_rv.mp4	0.0	348.53463792800903	1.0001311302185059
80	330.09946489334106	pulse	0	t		78.0	2.5	/experiments/knapen_AOT/AOT_stimuli/rescaled_final/0849_rv.mp4	0.0	348.71817088127136	
80	330.91606307029724	movie	1		243	78.0	2.5	/experiments/knapen_AOT/AOT_stimuli/rescaled_final/0849_rv.mp4	0.0	349.53476905822754	2.5005369186401367
80	331.69970703125	pulse	1	t		78.0	2.5	/experiments/knapen_AOT/AOT_stimuli/rescaled_final/0849_rv.mp4	0.0	350.3184130191803	
80	333.30004692077637	pulse	1	t		78.0	2.5	/experiments/knapen_AOT/AOT_stimuli/rescaled_final/0849_rv.mp4	0.0	351.91875290870667	
80	333.4165999889374	fix_post	2		12	78.0	2.5	/experiments/knapen_AOT/AOT_stimuli/rescaled_final/0849_rv.mp4	0.0	352.0353059768677	0.0998070240020752
81	333.51640701293945	fix_pre	0		120	79.0	2.5	/experiments/knapen_AOT/AOT_stimuli/rescaled_final/2051_rv.mp4	0.0	352.13511300086975	1.0002589225769043
81	334.51666593551636	movie	1		241	79.0	2.5	/experiments/knapen_AOT/AOT_stimuli/rescaled_final/2051_rv.mp4	0.0	353.13537192344666	2.4920690059661865
81	334.9012179374695	pulse	1	t		79.0	2.5	/experiments/knapen_AOT/AOT_stimuli/rescaled_final/2051_rv.mp4	0.0	353.5199239253998	
81	336.500452041626	pulse	1	t		79.0	2.5	/experiments/knapen_AOT/AOT_stimuli/rescaled_final/2051_rv.mp4	0.0	355.1191580295563	
81	337.00873494148254	fix_post	2		9	79.0	2.5	/experiments/knapen_AOT/AOT_stimuli/rescaled_final/2051_rv.mp4	0.0	355.62744092941284	0.09991812705993652
82	337.1086530685425	fix_pre	0		120	80.0	2.5	/experiments/knapen_AOT/AOT_stimuli/rescaled_final/0430_rv.mp4	0.0	355.7273590564728	1.00022292137146
82	338.1006569862366	pulse	0	t		80.0	2.5	/experiments/knapen_AOT/AOT_stimuli/rescaled_final/0430_rv.mp4	0.0	356.71936297416687	
82	338.10887598991394	movie	1		244	80.0	2.5	/experiments/knapen_AOT/AOT_stimuli/rescaled_final/0430_rv.mp4	0.0	356.72758197784424	2.508687973022461
82	339.70219802856445	pulse	1	t		80.0	2.5	/experiments/knapen_AOT/AOT_stimuli/rescaled_final/0430_rv.mp4	0.0	358.32090401649475	
82	340.6175639629364	fix_post	2		12	80.0	2.5	/experiments/knapen_AOT/AOT_stimuli/rescaled_final/0430_rv.mp4	0.0	359.2362699508667	0.0999610424041748
83	340.7175250053406	fix_pre	0		120	81.0	2.5	/experiments/knapen_AOT/AOT_stimuli/rescaled_final/1087_fw.mp4	0.0	359.3362309932709	1.0002338886260986
83	341.3012158870697	pulse	0	t		81.0	2.5	/experiments/knapen_AOT/AOT_stimuli/rescaled_final/1087_fw.mp4	0.0	359.919921875	
83	341.7177588939667	movie	1		243	81.0	2.5	/experiments/knapen_AOT/AOT_stimuli/rescaled_final/1087_fw.mp4	0.0	360.336464881897	2.500361204147339
83	342.901447057724	pulse	1	t		81.0	2.5	/experiments/knapen_AOT/AOT_stimuli/rescaled_final/1087_fw.mp4	0.0	361.5201530456543	
83	344.218120098114	fix_post	2		12	81.0	2.5	/experiments/knapen_AOT/AOT_stimuli/rescaled_final/1087_fw.mp4	0.0	362.8368260860443	0.09995698928833008
84	344.31807708740234	fix_pre	0		120	82.0	2.5	/experiments/knapen_AOT/AOT_stimuli/rescaled_final/0522_fw.mp4	0.0	362.93678307533264	1.0001180171966553
84	344.50169610977173	pulse	0	t		82.0	2.5	/experiments/knapen_AOT/AOT_stimuli/rescaled_final/0522_fw.mp4	0.0	363.120402097702	
84	345.318195104599	movie	1		243	82.0	2.5	/experiments/knapen_AOT/AOT_stimuli/rescaled_final/0522_fw.mp4	0.0	363.9369010925293	2.5005619525909424
84	346.1018240451813	pulse	1	t		82.0	2.5	/experiments/knapen_AOT/AOT_stimuli/rescaled_final/0522_fw.mp4	0.0	364.7205300331116	
84	347.7019739151001	pulse	1	t		82.0	2.5	/experiments/knapen_AOT/AOT_stimuli/rescaled_final/0522_fw.mp4	0.0	366.3206799030304	
84	347.81875705718994	fix_post	2		12	82.0	2.5	/experiments/knapen_AOT/AOT_stimuli/rescaled_final/0522_fw.mp4	0.0	366.43746304512024	0.09989786148071289
85	347.91865491867065	fix_pre	0		120	83.0	2.5	blank	1.0	366.53736090660095	1.0001311302185059
85	348.91878604888916	movie	1		299	83.0	2.5	blank	1.0	367.53749203681946	2.492029905319214
85	349.2947759628296	pulse	1	t		83.0	2.5	blank	1.0	367.9134819507599	
85	350.8949658870697	pulse	1	t		83.0	2.5	blank	1.0	369.513671875	
85	351.4108159542084	fix_post	2		12	83.0	2.5	blank	1.0	370.0295219421387	0.10009312629699707
87	351.51090908050537	stim	0		1716					370.12961506843567	14.302107810974121
87	352.49550199508667	pulse	0	t						371.11420798301697	
87	354.09567189216614	pulse	0	t						372.71437788009644	
87	355.6948471069336	pulse	0	t						374.3135530948639	
87	357.29512000083923	pulse	0	t						375.91382598876953	
87	358.8954119682312	pulse	0	t						377.5141179561615	
87	360.49569606781006	pulse	0	t						379.11440205574036	
87	362.095920085907	pulse	0	t						380.7146260738373	
87	363.69605803489685	pulse	0	t						382.31476402282715	
87	365.29640889167786	pulse	0	t						383.91511487960815	
