trial_nr	onset	event_type	phase	response	nr_frames	movie_index	movie_duration	movie_file	blank	onset_abs	duration
0	0.20828008651733398	stim	0		57					33.32728695869446	0.47492480278015137
0	0.6750349998474121	response	0	space						33.794041872024536	
1	0.6832048892974854	stim	0		5032					33.80221176147461	41.94796419143677
1	42.621418952941895	pulse	0	t						75.74042582511902	
1	42.63116908073425	stim	1		1716					75.75017595291138	14.302111864089966
1	44.21488809585571	pulse	1	t						77.33389496803284	
1	45.81518793106079	pulse	1	t						78.93419480323792	
1	47.415442943573	pulse	1	t						80.53444981575012	
1	49.015697956085205	pulse	1	t						82.13470482826233	
1	50.61584401130676	pulse	1	t						83.73485088348389	
1	52.21603608131409	pulse	1	t						85.33504295349121	
1	53.81633996963501	pulse	1	t						86.93534684181213	
1	55.416621923446655	pulse	1	t						88.53562879562378	
2	56.93328094482422	fix_pre	0		11	0.0	2.5	/experiments/knapen_AOT/AOT_stimuli/rescaled_final/2100_fw.mp4	0.0	90.05228781700134	0.09164094924926758
2	57.01685094833374	pulse	0	t		0.0	2.5	/experiments/knapen_AOT/AOT_stimuli/rescaled_final/2100_fw.mp4	0.0	90.13585782051086	
2	57.024921894073486	movie	1		247	0.0	2.5	/experiments/knapen_AOT/AOT_stimuli/rescaled_final/2100_fw.mp4	0.0	90.14392876625061	2.5087292194366455
2	58.61766791343689	pulse	1	t		0.0	2.5	/experiments/knapen_AOT/AOT_stimuli/rescaled_final/2100_fw.mp4	0.0	91.73667478561401	
2	59.53365111351013	fix_post	2		12	0.0	2.5	/experiments/knapen_AOT/AOT_stimuli/rescaled_final/2100_fw.mp4	0.0	92.65265798568726	0.10003089904785156
3	59.63368201255798	fix_pre	0		120	1.0	2.5	/experiments/knapen_AOT/AOT_stimuli/rescaled_final/1514_rv.mp4	0.0	92.75268888473511	1.0001320838928223
3	60.217360973358154	pulse	0	t		1.0	2.5	/experiments/knapen_AOT/AOT_stimuli/rescaled_final/1514_rv.mp4	0.0	93.33636784553528	
3	60.633814096450806	movie	1		244	1.0	2.5	/experiments/knapen_AOT/AOT_stimuli/rescaled_final/1514_rv.mp4	0.0	93.75282096862793	2.5004448890686035
3	61.81772804260254	pulse	1	t		1.0	2.5	/experiments/knapen_AOT/AOT_stimuli/rescaled_final/1514_rv.mp4	0.0	94.93673491477966	
3	63.13425898551941	fix_post	2		12	1.0	2.5	/experiments/knapen_AOT/AOT_stimuli/rescaled_final/1514_rv.mp4	0.0	96.25326585769653	0.09994101524353027
4	63.23420000076294	fix_pre	0		120	2.0	2.5	/experiments/knapen_AOT/AOT_stimuli/rescaled_final/1764_rv.mp4	0.0	96.35320687294006	1.0001521110534668
4	63.417989015579224	pulse	0	t		2.0	2.5	/experiments/knapen_AOT/AOT_stimuli/rescaled_final/1764_rv.mp4	0.0	96.53699588775635	
4	64.2343521118164	movie	1		246	2.0	2.5	/experiments/knapen_AOT/AOT_stimuli/rescaled_final/1764_rv.mp4	0.0	97.35335898399353	2.5003788471221924
4	65.01069188117981	pulse	1	t		2.0	2.5	/experiments/knapen_AOT/AOT_stimuli/rescaled_final/1764_rv.mp4	0.0	98.12969875335693	
4	66.610769033432	pulse	1	t		2.0	2.5	/experiments/knapen_AOT/AOT_stimuli/rescaled_final/1764_rv.mp4	0.0	99.72977590560913	
4	66.7347309589386	fix_post	2		12	2.0	2.5	/experiments/knapen_AOT/AOT_stimuli/rescaled_final/1764_rv.mp4	0.0	99.85373783111572	0.10001206398010254
5	66.8347430229187	fix_pre	0		120	3.0	2.5	/experiments/knapen_AOT/AOT_stimuli/rescaled_final/0857_fw.mp4	0.0	99.95374989509583	1.0001468658447266
5	67.83488988876343	movie	1		244	3.0	2.5	/experiments/knapen_AOT/AOT_stimuli/rescaled_final/0857_fw.mp4	0.0	100.95389676094055	2.4920570850372314
5	68.22228693962097	pulse	1	t		3.0	2.5	/experiments/knapen_AOT/AOT_stimuli/rescaled_final/0857_fw.mp4	0.0	101.3412938117981	
5	69.81140899658203	pulse	1	t		3.0	2.5	/experiments/knapen_AOT/AOT_stimuli/rescaled_final/0857_fw.mp4	0.0	102.93041586875916	
5	70.32694697380066	fix_post	2		12	3.0	2.5	/experiments/knapen_AOT/AOT_stimuli/rescaled_final/0857_fw.mp4	0.0	103.44595384597778	0.10002303123474121
6	70.4269700050354	fix_pre	0		119	4.0	2.5	/experiments/knapen_AOT/AOT_stimuli/rescaled_final/1250_rv.mp4	0.0	103.54597687721252	0.9917941093444824
6	71.41074109077454	pulse	0	t		4.0	2.5	/experiments/knapen_AOT/AOT_stimuli/rescaled_final/1250_rv.mp4	0.0	104.52974796295166	
6	71.41876411437988	movie	1		247	4.0	2.5	/experiments/knapen_AOT/AOT_stimuli/rescaled_final/1250_rv.mp4	0.0	104.537770986557	2.508732795715332
6	73.01138496398926	pulse	1	t		4.0	2.5	/experiments/knapen_AOT/AOT_stimuli/rescaled_final/1250_rv.mp4	0.0	106.13039183616638	
6	73.92749691009521	fix_post	2		12	4.0	2.5	/experiments/knapen_AOT/AOT_stimuli/rescaled_final/1250_rv.mp4	0.0	107.04650378227234	0.10003399848937988
7	74.0275309085846	fix_pre	0		120	5.0	2.5	blank	1.0	107.14653778076172	1.0001389980316162
7	74.61102795600891	pulse	0	t		5.0	2.5	blank	1.0	107.73003482818604	
7	75.02766990661621	movie	1		300	5.0	2.5	blank	1.0	108.14667677879333	2.5003411769866943
7	76.21140098571777	pulse	1	t		5.0	2.5	blank	1.0	109.3304078578949	
7	77.5280110836029	fix_post	2		12	5.0	2.5	blank	1.0	110.64701795578003	0.1000058650970459
8	77.62801694869995	fix_pre	0		120	6.0	2.5	/experiments/knapen_AOT/AOT_stimuli/rescaled_final/0259_fw.mp4	0.0	110.74702382087708	1.0002009868621826
8	77.81172800064087	pulse	0	t		6.0	2.5	/experiments/knapen_AOT/AOT_stimuli/rescaled_final/0259_fw.mp4	0.0	110.930734872818	
8	78.62821793556213	movie	1		245	6.0	2.5	/experiments/knapen_AOT/AOT_stimuli/rescaled_final/0259_fw.mp4	0.0	111.74722480773926	2.5003111362457275
8	79.41192197799683	pulse	1	t		6.0	2.5	/experiments/knapen_AOT/AOT_stimuli/rescaled_final/0259_fw.mp4	0.0	112.53092885017395	
8	81.01208710670471	pulse	1	t		6.0	2.5	/experiments/knapen_AOT/AOT_stimuli/rescaled_final/0259_fw.mp4	0.0	114.13109397888184	
8	81.12852907180786	fix_post	2		9	6.0	2.5	/experiments/knapen_AOT/AOT_stimuli/rescaled_final/0259_fw.mp4	0.0	114.24753594398499	0.10008502006530762
9	81.22861409187317	fix_pre	0		120	7.0	2.5	/experiments/knapen_AOT/AOT_stimuli/rescaled_final/1896_fw.mp4	0.0	114.3476209640503	1.0001099109649658
9	82.22872400283813	movie	1		244	7.0	2.5	/experiments/knapen_AOT/AOT_stimuli/rescaled_final/1896_fw.mp4	0.0	115.34773087501526	2.492008924484253
9	82.61270499229431	pulse	1	t		7.0	2.5	/experiments/knapen_AOT/AOT_stimuli/rescaled_final/1896_fw.mp4	0.0	115.73171186447144	
9	84.21256995201111	pulse	1	t		7.0	2.5	/experiments/knapen_AOT/AOT_stimuli/rescaled_final/1896_fw.mp4	0.0	117.33157682418823	
9	84.72073292732239	fix_post	2		12	7.0	2.5	/experiments/knapen_AOT/AOT_stimuli/rescaled_final/1896_fw.mp4	0.0	117.83973979949951	0.10007596015930176
10	84.82080888748169	fix_pre	0		120	8.0	2.5	/experiments/knapen_AOT/AOT_stimuli/rescaled_final/2119_fw.mp4	0.0	117.93981575965881	1.0001270771026611
10	85.8128879070282	pulse	0	t		8.0	2.5	/experiments/knapen_AOT/AOT_stimuli/rescaled_final/2119_fw.mp4	0.0	118.93189477920532	
10	85.82093596458435	movie	1		252	8.0	2.5	/experiments/knapen_AOT/AOT_stimuli/rescaled_final/2119_fw.mp4	0.0	118.93994283676147	2.508726119995117
10	87.41365909576416	pulse	1	t		8.0	2.5	/experiments/knapen_AOT/AOT_stimuli/rescaled_final/2119_fw.mp4	0.0	120.53266596794128	
10	88.32966208457947	fix_post	2		12	8.0	2.5	/experiments/knapen_AOT/AOT_stimuli/rescaled_final/2119_fw.mp4	0.0	121.44866895675659	0.10000801086425781
11	88.42967009544373	fix_pre	0		120	9.0	2.5	/experiments/knapen_AOT/AOT_stimuli/rescaled_final/1885_rv.mp4	0.0	121.54867696762085	1.000133991241455
11	89.01334404945374	pulse	0	t		9.0	2.5	/experiments/knapen_AOT/AOT_stimuli/rescaled_final/1885_rv.mp4	0.0	122.13235092163086	
11	89.42980408668518	movie	1		245	9.0	2.5	/experiments/knapen_AOT/AOT_stimuli/rescaled_final/1885_rv.mp4	0.0	122.5488109588623	2.5003387928009033
11	90.61355590820312	pulse	1	t		9.0	2.5	/experiments/knapen_AOT/AOT_stimuli/rescaled_final/1885_rv.mp4	0.0	123.73256278038025	
11	91.93014287948608	fix_post	2		12	9.0	2.5	/experiments/knapen_AOT/AOT_stimuli/rescaled_final/1885_rv.mp4	0.0	125.04914975166321	0.10007309913635254
12	92.03021597862244	fix_pre	0		120	10.0	2.5	/experiments/knapen_AOT/AOT_stimuli/rescaled_final/0131_fw.mp4	0.0	125.14922285079956	1.0001699924468994
12	92.21385288238525	pulse	0	t		10.0	2.5	/experiments/knapen_AOT/AOT_stimuli/rescaled_final/0131_fw.mp4	0.0	125.33285975456238	
12	93.03038597106934	movie	1		244	10.0	2.5	/experiments/knapen_AOT/AOT_stimuli/rescaled_final/0131_fw.mp4	0.0	126.14939284324646	2.5003130435943604
12	93.81402707099915	pulse	1	t		10.0	2.5	/experiments/knapen_AOT/AOT_stimuli/rescaled_final/0131_fw.mp4	0.0	126.93303394317627	
12	95.41552591323853	pulse	1	t		10.0	2.5	/experiments/knapen_AOT/AOT_stimuli/rescaled_final/0131_fw.mp4	0.0	128.53453278541565	
12	95.5306990146637	fix_post	2		12	10.0	2.5	/experiments/knapen_AOT/AOT_stimuli/rescaled_final/0131_fw.mp4	0.0	128.64970588684082	0.10002493858337402
13	95.63072395324707	fix_pre	0		120	11.0	2.5	/experiments/knapen_AOT/AOT_stimuli/rescaled_final/1409_fw.mp4	0.0	128.7497308254242	1.0001389980316162
13	96.63086295127869	movie	1		242	11.0	2.5	/experiments/knapen_AOT/AOT_stimuli/rescaled_final/1409_fw.mp4	0.0	129.7498698234558	2.492064952850342
13	97.01502799987793	pulse	1	t		11.0	2.5	/experiments/knapen_AOT/AOT_stimuli/rescaled_final/1409_fw.mp4	0.0	130.13403487205505	
13	98.61476802825928	pulse	1	t		11.0	2.5	/experiments/knapen_AOT/AOT_stimuli/rescaled_final/1409_fw.mp4	0.0	131.7337749004364	
13	99.12292790412903	fix_post	2		12	11.0	2.5	/experiments/knapen_AOT/AOT_stimuli/rescaled_final/1409_fw.mp4	0.0	132.24193477630615	0.0999751091003418
14	99.22290301322937	fix_pre	0		120	12.0	2.5	/experiments/knapen_AOT/AOT_stimuli/rescaled_final/1492_fw.mp4	0.0	132.3419098854065	1.0001840591430664
14	100.21503591537476	pulse	0	t		12.0	2.5	/experiments/knapen_AOT/AOT_stimuli/rescaled_final/1492_fw.mp4	0.0	133.33404278755188	
14	100.22308707237244	movie	1		245	12.0	2.5	/experiments/knapen_AOT/AOT_stimuli/rescaled_final/1492_fw.mp4	0.0	133.34209394454956	2.5086560249328613
14	101.81672310829163	pulse	1	t		12.0	2.5	/experiments/knapen_AOT/AOT_stimuli/rescaled_final/1492_fw.mp4	0.0	134.93572998046875	
14	102.7317430973053	fix_post	2		12	12.0	2.5	/experiments/knapen_AOT/AOT_stimuli/rescaled_final/1492_fw.mp4	0.0	135.85074996948242	0.10005593299865723
15	102.83179903030396	fix_pre	0		120	13.0	2.5	blank	1.0	135.95080590248108	1.0001440048217773
15	103.41544699668884	pulse	0	t		13.0	2.5	blank	1.0	136.53445386886597	
15	103.83194303512573	movie	1		300	13.0	2.5	blank	1.0	136.95094990730286	2.500359058380127
15	105.0156478881836	pulse	1	t		13.0	2.5	blank	1.0	138.13465476036072	
15	106.33230209350586	fix_post	2		12	13.0	2.5	blank	1.0	139.45130896568298	0.10001182556152344
16	106.43231391906738	fix_pre	0		120	14.0	2.5	/experiments/knapen_AOT/AOT_stimuli/rescaled_final/0399_fw.mp4	0.0	139.5513207912445	1.0001661777496338
16	106.61589288711548	pulse	0	t		14.0	2.5	/experiments/knapen_AOT/AOT_stimuli/rescaled_final/0399_fw.mp4	0.0	139.7348997592926	
16	107.43248009681702	movie	1		245	14.0	2.5	/experiments/knapen_AOT/AOT_stimuli/rescaled_final/0399_fw.mp4	0.0	140.55148696899414	2.500358819961548
16	108.21610689163208	pulse	1	t		14.0	2.5	/experiments/knapen_AOT/AOT_stimuli/rescaled_final/0399_fw.mp4	0.0	141.3351137638092	
16	109.81429195404053	pulse	1	t		14.0	2.5	/experiments/knapen_AOT/AOT_stimuli/rescaled_final/0399_fw.mp4	0.0	142.93329882621765	
16	109.93283891677856	fix_post	2		12	14.0	2.5	/experiments/knapen_AOT/AOT_stimuli/rescaled_final/0399_fw.mp4	0.0	143.0518457889557	0.10005402565002441
17	110.03289294242859	fix_pre	0		120	15.0	2.5	/experiments/knapen_AOT/AOT_stimuli/rescaled_final/1523_fw.mp4	0.0	143.1518998146057	1.000128984451294
17	111.03302192687988	movie	1		243	15.0	2.5	/experiments/knapen_AOT/AOT_stimuli/rescaled_final/1523_fw.mp4	0.0	144.152028799057	2.4920051097869873
17	111.41807508468628	pulse	1	t		15.0	2.5	/experiments/knapen_AOT/AOT_stimuli/rescaled_final/1523_fw.mp4	0.0	144.5370819568634	
17	113.01679801940918	pulse	1	t		15.0	2.5	/experiments/knapen_AOT/AOT_stimuli/rescaled_final/1523_fw.mp4	0.0	146.1358048915863	
17	113.52502703666687	fix_post	2		12	15.0	2.5	/experiments/knapen_AOT/AOT_stimuli/rescaled_final/1523_fw.mp4	0.0	146.644033908844	0.10009598731994629
18	113.62512302398682	fix_pre	0		120	16.0	2.5	/experiments/knapen_AOT/AOT_stimuli/rescaled_final/0357_fw.mp4	0.0	146.74412989616394	1.0000669956207275
18	114.61702299118042	pulse	0	t		16.0	2.5	/experiments/knapen_AOT/AOT_stimuli/rescaled_final/0357_fw.mp4	0.0	147.73602986335754	
18	114.62519001960754	movie	1		245	16.0	2.5	/experiments/knapen_AOT/AOT_stimuli/rescaled_final/0357_fw.mp4	0.0	147.74419689178467	2.5087480545043945
18	116.21769094467163	pulse	1	t		16.0	2.5	/experiments/knapen_AOT/AOT_stimuli/rescaled_final/0357_fw.mp4	0.0	149.33669781684875	
18	117.13393807411194	fix_post	2		12	16.0	2.5	/experiments/knapen_AOT/AOT_stimuli/rescaled_final/0357_fw.mp4	0.0	150.25294494628906	0.09999585151672363
19	117.23393392562866	fix_pre	0		120	17.0	2.5	/experiments/knapen_AOT/AOT_stimuli/rescaled_final/1102_rv.mp4	0.0	150.3529407978058	1.0001890659332275
19	117.81757998466492	pulse	0	t		17.0	2.5	/experiments/knapen_AOT/AOT_stimuli/rescaled_final/1102_rv.mp4	0.0	150.93658685684204	
19	118.23412299156189	movie	1		243	17.0	2.5	/experiments/knapen_AOT/AOT_stimuli/rescaled_final/1102_rv.mp4	0.0	151.353129863739	2.5003409385681152
19	119.41399788856506	pulse	1	t		17.0	2.5	/experiments/knapen_AOT/AOT_stimuli/rescaled_final/1102_rv.mp4	0.0	152.5330047607422	
19	120.73446393013	fix_post	2		12	17.0	2.5	/experiments/knapen_AOT/AOT_stimuli/rescaled_final/1102_rv.mp4	0.0	153.85347080230713	0.10002803802490234
20	120.83449196815491	fix_pre	0		120	18.0	2.5	/experiments/knapen_AOT/AOT_stimuli/rescaled_final/1414_fw.mp4	0.0	153.95349884033203	1.0001580715179443
20	121.01805591583252	pulse	0	t		18.0	2.5	/experiments/knapen_AOT/AOT_stimuli/rescaled_final/1414_fw.mp4	0.0	154.13706278800964	
20	121.83465003967285	movie	1		243	18.0	2.5	/experiments/knapen_AOT/AOT_stimuli/rescaled_final/1414_fw.mp4	0.0	154.95365691184998	2.5003349781036377
20	122.61085295677185	pulse	1	t		18.0	2.5	/experiments/knapen_AOT/AOT_stimuli/rescaled_final/1414_fw.mp4	0.0	155.72985982894897	
20	124.21853804588318	pulse	1	t		18.0	2.5	/experiments/knapen_AOT/AOT_stimuli/rescaled_final/1414_fw.mp4	0.0	157.3375449180603	
20	124.33498501777649	fix_post	2		12	18.0	2.5	/experiments/knapen_AOT/AOT_stimuli/rescaled_final/1414_fw.mp4	0.0	157.4539918899536	0.10001206398010254
21	124.43499708175659	fix_pre	0		120	19.0	2.5	/experiments/knapen_AOT/AOT_stimuli/rescaled_final/0061_fw.mp4	0.0	157.55400395393372	1.0001559257507324
21	125.43515300750732	movie	1		243	19.0	2.5	/experiments/knapen_AOT/AOT_stimuli/rescaled_final/0061_fw.mp4	0.0	158.55415987968445	2.492108106613159
21	125.81048703193665	pulse	1	t		19.0	2.5	/experiments/knapen_AOT/AOT_stimuli/rescaled_final/0061_fw.mp4	0.0	158.92949390411377	
21	127.41166400909424	pulse	1	t		19.0	2.5	/experiments/knapen_AOT/AOT_stimuli/rescaled_final/0061_fw.mp4	0.0	160.53067088127136	
21	127.92726111412048	fix_post	2		12	19.0	2.5	/experiments/knapen_AOT/AOT_stimuli/rescaled_final/0061_fw.mp4	0.0	161.0462679862976	0.10001587867736816
22	128.02727699279785	fix_pre	0		119	20.0	2.5	blank	1.0	161.14628386497498	0.9917330741882324
22	129.01087594032288	pulse	0	t		20.0	2.5	blank	1.0	162.1298828125	
22	129.01901006698608	movie	1		301	20.0	2.5	blank	1.0	162.1380169391632	2.5087289810180664
22	130.61116909980774	pulse	1	t		20.0	2.5	blank	1.0	163.73017597198486	
22	131.52773904800415	fix_post	2		12	20.0	2.5	blank	1.0	164.64674592018127	0.10002398490905762
23	131.6277630329132	fix_pre	0		120	21.0	2.5	/experiments/knapen_AOT/AOT_stimuli/rescaled_final/0888_fw.mp4	0.0	164.74676990509033	1.0001440048217773
23	132.21148705482483	pulse	0	t		21.0	2.5	/experiments/knapen_AOT/AOT_stimuli/rescaled_final/0888_fw.mp4	0.0	165.33049392700195	
23	132.62790703773499	movie	1		243	21.0	2.5	/experiments/knapen_AOT/AOT_stimuli/rescaled_final/0888_fw.mp4	0.0	165.7469139099121	2.5003559589385986
23	133.81173491477966	pulse	1	t		21.0	2.5	/experiments/knapen_AOT/AOT_stimuli/rescaled_final/0888_fw.mp4	0.0	166.9307417869568	
23	135.12826299667358	fix_post	2		12	21.0	2.5	/experiments/knapen_AOT/AOT_stimuli/rescaled_final/0888_fw.mp4	0.0	168.2472698688507	0.10012102127075195
24	135.22838401794434	fix_pre	0		120	22.0	2.5	/experiments/knapen_AOT/AOT_stimuli/rescaled_final/1162_rv.mp4	0.0	168.34739089012146	1.000187873840332
24	135.41182208061218	pulse	0	t		22.0	2.5	/experiments/knapen_AOT/AOT_stimuli/rescaled_final/1162_rv.mp4	0.0	168.5308289527893	
24	136.22857189178467	movie	1		241	22.0	2.5	/experiments/knapen_AOT/AOT_stimuli/rescaled_final/1162_rv.mp4	0.0	169.3475787639618	2.5002410411834717
24	137.01204299926758	pulse	1	t		22.0	2.5	/experiments/knapen_AOT/AOT_stimuli/rescaled_final/1162_rv.mp4	0.0	170.1310498714447	
24	138.61212992668152	pulse	1	t		22.0	2.5	/experiments/knapen_AOT/AOT_stimuli/rescaled_final/1162_rv.mp4	0.0	171.73113679885864	
24	138.72881293296814	fix_post	2		12	22.0	2.5	/experiments/knapen_AOT/AOT_stimuli/rescaled_final/1162_rv.mp4	0.0	171.84781980514526	0.1000211238861084
25	138.82883405685425	fix_pre	0		119	23.0	2.5	/experiments/knapen_AOT/AOT_stimuli/rescaled_final/1548_fw.mp4	0.0	171.94784092903137	0.9917960166931152
25	139.82063007354736	movie	1		244	23.0	2.5	/experiments/knapen_AOT/AOT_stimuli/rescaled_final/1548_fw.mp4	0.0	172.9396369457245	2.500377893447876
25	140.21275401115417	pulse	1	t		23.0	2.5	/experiments/knapen_AOT/AOT_stimuli/rescaled_final/1548_fw.mp4	0.0	173.3317608833313	
25	141.81289792060852	pulse	1	t		23.0	2.5	/experiments/knapen_AOT/AOT_stimuli/rescaled_final/1548_fw.mp4	0.0	174.93190479278564	
25	142.32100796699524	fix_post	2		12	23.0	2.5	/experiments/knapen_AOT/AOT_stimuli/rescaled_final/1548_fw.mp4	0.0	175.44001483917236	0.09999704360961914
26	142.42100501060486	fix_pre	0		120	24.0	2.5	/experiments/knapen_AOT/AOT_stimuli/rescaled_final/0988_rv.mp4	0.0	175.54001188278198	1.000140905380249
26	143.41303205490112	pulse	0	t		24.0	2.5	/experiments/knapen_AOT/AOT_stimuli/rescaled_final/0988_rv.mp4	0.0	176.53203892707825	
26	143.4211459159851	movie	1		244	24.0	2.5	/experiments/knapen_AOT/AOT_stimuli/rescaled_final/0988_rv.mp4	0.0	176.54015278816223	2.5087339878082275
26	145.0136489868164	pulse	1	t		24.0	2.5	/experiments/knapen_AOT/AOT_stimuli/rescaled_final/0988_rv.mp4	0.0	178.13265585899353	
26	145.92987990379333	fix_post	2		12	24.0	2.5	/experiments/knapen_AOT/AOT_stimuli/rescaled_final/0988_rv.mp4	0.0	179.04888677597046	0.10001611709594727
27	146.02989602088928	fix_pre	0		120	25.0	2.5	/experiments/knapen_AOT/AOT_stimuli/rescaled_final/0505_rv.mp4	0.0	179.1489028930664	1.0001280307769775
27	146.6136291027069	pulse	0	t		25.0	2.5	/experiments/knapen_AOT/AOT_stimuli/rescaled_final/0505_rv.mp4	0.0	179.73263597488403	
27	147.03002405166626	movie	1		244	25.0	2.5	/experiments/knapen_AOT/AOT_stimuli/rescaled_final/0505_rv.mp4	0.0	180.14903092384338	2.5003998279571533
27	148.21393990516663	pulse	1	t		25.0	2.5	/experiments/knapen_AOT/AOT_stimuli/rescaled_final/0505_rv.mp4	0.0	181.33294677734375	
27	149.5304238796234	fix_post	2		12	25.0	2.5	/experiments/knapen_AOT/AOT_stimuli/rescaled_final/0505_rv.mp4	0.0	182.64943075180054	0.10000920295715332
28	149.63043308258057	fix_pre	0		120	26.0	2.5	/experiments/knapen_AOT/AOT_stimuli/rescaled_final/1376_fw.mp4	0.0	182.7494399547577	1.000168800354004
28	149.81392693519592	pulse	0	t		26.0	2.5	/experiments/knapen_AOT/AOT_stimuli/rescaled_final/1376_fw.mp4	0.0	182.93293380737305	
28	150.63060188293457	movie	1		244	26.0	2.5	/experiments/knapen_AOT/AOT_stimuli/rescaled_final/1376_fw.mp4	0.0	183.7496087551117	2.5004220008850098
28	151.41431999206543	pulse	1	t		26.0	2.5	/experiments/knapen_AOT/AOT_stimuli/rescaled_final/1376_fw.mp4	0.0	184.53332686424255	
28	153.0145299434662	pulse	1	t		26.0	2.5	/experiments/knapen_AOT/AOT_stimuli/rescaled_final/1376_fw.mp4	0.0	186.1335368156433	
28	153.13102388381958	fix_post	2		12	26.0	2.5	/experiments/knapen_AOT/AOT_stimuli/rescaled_final/1376_fw.mp4	0.0	186.2500307559967	0.09996700286865234
29	153.23099088668823	fix_pre	0		120	27.0	2.5	/experiments/knapen_AOT/AOT_stimuli/rescaled_final/0156_rv.mp4	0.0	186.34999775886536	1.0001440048217773
29	154.23113489151	movie	1		243	27.0	2.5	/experiments/knapen_AOT/AOT_stimuli/rescaled_final/0156_rv.mp4	0.0	187.35014176368713	2.4920520782470703
29	154.61554098129272	pulse	1	t		27.0	2.5	/experiments/knapen_AOT/AOT_stimuli/rescaled_final/0156_rv.mp4	0.0	187.73454785346985	
29	156.21493101119995	pulse	1	t		27.0	2.5	/experiments/knapen_AOT/AOT_stimuli/rescaled_final/0156_rv.mp4	0.0	189.33393788337708	
29	156.72318696975708	fix_post	2		12	27.0	2.5	/experiments/knapen_AOT/AOT_stimuli/rescaled_final/0156_rv.mp4	0.0	189.8421938419342	0.1000070571899414
30	156.82319402694702	fix_pre	0		120	28.0	2.5	blank	1.0	189.94220089912415	1.0001890659332275
30	157.81519603729248	pulse	0	t		28.0	2.5	blank	1.0	190.9342029094696	
30	157.82338309288025	movie	1		301	28.0	2.5	blank	1.0	190.94238996505737	2.5086469650268555
30	159.4155399799347	pulse	1	t		28.0	2.5	blank	1.0	192.53454685211182	
30	160.3320300579071	fix_post	2		12	28.0	2.5	blank	1.0	193.45103693008423	0.1000509262084961
31	160.4320809841156	fix_pre	0		120	29.0	2.5	/experiments/knapen_AOT/AOT_stimuli/rescaled_final/0956_rv.mp4	0.0	193.55108785629272	1.0001029968261719
31	161.0157608985901	pulse	0	t		29.0	2.5	/experiments/knapen_AOT/AOT_stimuli/rescaled_final/0956_rv.mp4	0.0	194.1347677707672	
31	161.43218398094177	movie	1		244	29.0	2.5	/experiments/knapen_AOT/AOT_stimuli/rescaled_final/0956_rv.mp4	0.0	194.5511908531189	2.500396966934204
31	162.61600303649902	pulse	1	t		29.0	2.5	/experiments/knapen_AOT/AOT_stimuli/rescaled_final/0956_rv.mp4	0.0	195.73500990867615	
31	163.93258094787598	fix_post	2		12	29.0	2.5	/experiments/knapen_AOT/AOT_stimuli/rescaled_final/0956_rv.mp4	0.0	197.0515878200531	0.10006499290466309
32	164.03264594078064	fix_pre	0		120	30.0	2.5	/experiments/knapen_AOT/AOT_stimuli/rescaled_final/0502_fw.mp4	0.0	197.15165281295776	1.0001349449157715
32	164.21607089042664	pulse	0	t		30.0	2.5	/experiments/knapen_AOT/AOT_stimuli/rescaled_final/0502_fw.mp4	0.0	197.33507776260376	
32	165.0327808856964	movie	1		243	30.0	2.5	/experiments/knapen_AOT/AOT_stimuli/rescaled_final/0502_fw.mp4	0.0	198.15178775787354	2.5003461837768555
32	165.8164598941803	pulse	1	t		30.0	2.5	/experiments/knapen_AOT/AOT_stimuli/rescaled_final/0502_fw.mp4	0.0	198.93546676635742	
32	167.41659688949585	pulse	1	t		30.0	2.5	/experiments/knapen_AOT/AOT_stimuli/rescaled_final/0502_fw.mp4	0.0	200.53560376167297	
32	167.53312706947327	fix_post	2		12	30.0	2.5	/experiments/knapen_AOT/AOT_stimuli/rescaled_final/0502_fw.mp4	0.0	200.6521339416504	0.09996700286865234
33	167.63309407234192	fix_pre	0		119	31.0	2.5	/experiments/knapen_AOT/AOT_stimuli/rescaled_final/1376_rv.mp4	0.0	200.75210094451904	0.9918358325958252
33	168.62492990493774	movie	1		243	31.0	2.5	/experiments/knapen_AOT/AOT_stimuli/rescaled_final/1376_rv.mp4	0.0	201.74393677711487	2.5003740787506104
33	169.01695799827576	pulse	1	t		31.0	2.5	/experiments/knapen_AOT/AOT_stimuli/rescaled_final/1376_rv.mp4	0.0	202.13596487045288	
33	170.61713910102844	pulse	1	t		31.0	2.5	/experiments/knapen_AOT/AOT_stimuli/rescaled_final/1376_rv.mp4	0.0	203.73614597320557	
33	171.12530398368835	fix_post	2		12	31.0	2.5	/experiments/knapen_AOT/AOT_stimuli/rescaled_final/1376_rv.mp4	0.0	204.24431085586548	0.10006403923034668
34	171.2253680229187	fix_pre	0		120	32.0	2.5	/experiments/knapen_AOT/AOT_stimuli/rescaled_final/1563_fw.mp4	0.0	204.34437489509583	1.0001349449157715
34	172.2173409461975	pulse	0	t		32.0	2.5	/experiments/knapen_AOT/AOT_stimuli/rescaled_final/1563_fw.mp4	0.0	205.33634781837463	
34	172.22550296783447	movie	1		245	32.0	2.5	/experiments/knapen_AOT/AOT_stimuli/rescaled_final/1563_fw.mp4	0.0	205.3445098400116	2.5086829662323
34	173.8189001083374	pulse	1	t		32.0	2.5	/experiments/knapen_AOT/AOT_stimuli/rescaled_final/1563_fw.mp4	0.0	206.93790698051453	
34	174.73418593406677	fix_post	2		12	32.0	2.5	/experiments/knapen_AOT/AOT_stimuli/rescaled_final/1563_fw.mp4	0.0	207.8531928062439	0.09998917579650879
35	174.83417510986328	fix_pre	0		120	33.0	2.5	blank	1.0	207.9531819820404	1.000168800354004
35	175.4179229736328	pulse	0	t		33.0	2.5	blank	1.0	208.53692984580994	
35	175.83434391021729	movie	1		300	33.0	2.5	blank	1.0	208.9533507823944	2.5003890991210938
35	177.0180139541626	pulse	1	t		33.0	2.5	blank	1.0	210.13702082633972	
35	178.33473300933838	fix_post	2		12	33.0	2.5	blank	1.0	211.4537398815155	0.0999910831451416
36	178.43472409248352	fix_pre	0		120	34.0	2.5	/experiments/knapen_AOT/AOT_stimuli/rescaled_final/1891_fw.mp4	0.0	211.55373096466064	1.0002079010009766
36	178.6183569431305	pulse	0	t		34.0	2.5	/experiments/knapen_AOT/AOT_stimuli/rescaled_final/1891_fw.mp4	0.0	211.73736381530762	
36	179.4349319934845	movie	1		244	34.0	2.5	/experiments/knapen_AOT/AOT_stimuli/rescaled_final/1891_fw.mp4	0.0	212.55393886566162	2.500308036804199
36	180.21109890937805	pulse	1	t		34.0	2.5	/experiments/knapen_AOT/AOT_stimuli/rescaled_final/1891_fw.mp4	0.0	213.33010578155518	
36	181.81883311271667	pulse	1	t		34.0	2.5	/experiments/knapen_AOT/AOT_stimuli/rescaled_final/1891_fw.mp4	0.0	214.9378399848938	
36	181.9352400302887	fix_post	2		12	34.0	2.5	/experiments/knapen_AOT/AOT_stimuli/rescaled_final/1891_fw.mp4	0.0	215.05424690246582	0.10002303123474121
37	182.03526306152344	fix_pre	0		120	35.0	2.5	/experiments/knapen_AOT/AOT_stimuli/rescaled_final/0971_rv.mp4	0.0	215.15426993370056	1.0001568794250488
37	183.0354199409485	movie	1		244	35.0	2.5	/experiments/knapen_AOT/AOT_stimuli/rescaled_final/0971_rv.mp4	0.0	216.1544268131256	2.492074966430664
37	183.41976308822632	pulse	1	t		35.0	2.5	/experiments/knapen_AOT/AOT_stimuli/rescaled_final/0971_rv.mp4	0.0	216.53876996040344	
37	185.0120279788971	pulse	1	t		35.0	2.5	/experiments/knapen_AOT/AOT_stimuli/rescaled_final/0971_rv.mp4	0.0	218.13103485107422	
37	185.52749490737915	fix_post	2		12	35.0	2.5	/experiments/knapen_AOT/AOT_stimuli/rescaled_final/0971_rv.mp4	0.0	218.64650177955627	0.09997415542602539
38	185.62746906280518	fix_pre	0		119	36.0	2.5	/experiments/knapen_AOT/AOT_stimuli/rescaled_final/1479_fw.mp4	0.0	218.7464759349823	0.9918169975280762
38	186.61125206947327	pulse	0	t		36.0	2.5	/experiments/knapen_AOT/AOT_stimuli/rescaled_final/1479_fw.mp4	0.0	219.7302589416504	
38	186.61928606033325	movie	1		244	36.0	2.5	/experiments/knapen_AOT/AOT_stimuli/rescaled_final/1479_fw.mp4	0.0	219.73829293251038	2.508697986602783
38	188.21180891990662	pulse	1	t		36.0	2.5	/experiments/knapen_AOT/AOT_stimuli/rescaled_final/1479_fw.mp4	0.0	221.33081579208374	
38	189.12798404693604	fix_post	2		12	36.0	2.5	/experiments/knapen_AOT/AOT_stimuli/rescaled_final/1479_fw.mp4	0.0	222.24699091911316	0.10007786750793457
39	189.22806191444397	fix_pre	0		120	37.0	2.5	/experiments/knapen_AOT/AOT_stimuli/rescaled_final/0015_rv.mp4	0.0	222.3470687866211	1.0001001358032227
39	189.81175899505615	pulse	0	t		37.0	2.5	/experiments/knapen_AOT/AOT_stimuli/rescaled_final/0015_rv.mp4	0.0	222.93076586723328	
39	190.2281620502472	movie	1		244	37.0	2.5	/experiments/knapen_AOT/AOT_stimuli/rescaled_final/0015_rv.mp4	0.0	223.34716892242432	2.5004379749298096
39	191.4120171070099	pulse	1	t		37.0	2.5	/experiments/knapen_AOT/AOT_stimuli/rescaled_final/0015_rv.mp4	0.0	224.531023979187	
39	192.728600025177	fix_post	2		12	37.0	2.5	/experiments/knapen_AOT/AOT_stimuli/rescaled_final/0015_rv.mp4	0.0	225.84760689735413	0.0999898910522461
40	192.82858991622925	fix_pre	0		120	38.0	2.5	/experiments/knapen_AOT/AOT_stimuli/rescaled_final/1267_rv.mp4	0.0	225.94759678840637	1.000089168548584
40	193.01206302642822	pulse	0	t		38.0	2.5	/experiments/knapen_AOT/AOT_stimuli/rescaled_final/1267_rv.mp4	0.0	226.13106989860535	
40	193.82867908477783	movie	1		244	38.0	2.5	/experiments/knapen_AOT/AOT_stimuli/rescaled_final/1267_rv.mp4	0.0	226.94768595695496	2.5003700256347656
40	194.61238288879395	pulse	1	t		38.0	2.5	/experiments/knapen_AOT/AOT_stimuli/rescaled_final/1267_rv.mp4	0.0	227.73138976097107	
40	196.21257400512695	pulse	1	t		38.0	2.5	/experiments/knapen_AOT/AOT_stimuli/rescaled_final/1267_rv.mp4	0.0	229.33158087730408	
40	196.3290491104126	fix_post	2		12	38.0	2.5	/experiments/knapen_AOT/AOT_stimuli/rescaled_final/1267_rv.mp4	0.0	229.44805598258972	0.1000208854675293
41	196.42906999588013	fix_pre	0		120	39.0	2.5	/experiments/knapen_AOT/AOT_stimuli/rescaled_final/2127_fw.mp4	0.0	229.54807686805725	1.0001890659332275
41	197.42925906181335	movie	1		247	39.0	2.5	/experiments/knapen_AOT/AOT_stimuli/rescaled_final/2127_fw.mp4	0.0	230.54826593399048	2.492004871368408
41	197.81356191635132	pulse	1	t		39.0	2.5	/experiments/knapen_AOT/AOT_stimuli/rescaled_final/2127_fw.mp4	0.0	230.93256878852844	
41	199.41303300857544	pulse	1	t		39.0	2.5	/experiments/knapen_AOT/AOT_stimuli/rescaled_final/2127_fw.mp4	0.0	232.53203988075256	
41	199.92126393318176	fix_post	2		12	39.0	2.5	/experiments/knapen_AOT/AOT_stimuli/rescaled_final/2127_fw.mp4	0.0	233.0402708053589	0.10001707077026367
42	200.02128100395203	fix_pre	0		120	40.0	2.5	/experiments/knapen_AOT/AOT_stimuli/rescaled_final/0255_fw.mp4	0.0	233.14028787612915	1.0001521110534668
42	201.0133819580078	pulse	0	t		40.0	2.5	/experiments/knapen_AOT/AOT_stimuli/rescaled_final/0255_fw.mp4	0.0	234.13238883018494	
42	201.0214331150055	movie	1		242	40.0	2.5	/experiments/knapen_AOT/AOT_stimuli/rescaled_final/0255_fw.mp4	0.0	234.14043998718262	2.508748769760132
42	202.61406207084656	pulse	1	t		40.0	2.5	/experiments/knapen_AOT/AOT_stimuli/rescaled_final/0255_fw.mp4	0.0	235.73306894302368	
42	203.53018188476562	fix_post	2		12	40.0	2.5	/experiments/knapen_AOT/AOT_stimuli/rescaled_final/0255_fw.mp4	0.0	236.64918875694275	0.09998321533203125
43	203.63016510009766	fix_pre	0		120	41.0	2.5	blank	1.0	236.74917197227478	1.000154972076416
43	204.21373510360718	pulse	0	t		41.0	2.5	blank	1.0	237.3327419757843	
43	204.63032007217407	movie	1		300	41.0	2.5	blank	1.0	237.7493269443512	2.500391960144043
43	205.8141040802002	pulse	1	t		41.0	2.5	blank	1.0	238.93311095237732	
43	207.13071203231812	fix_post	2		12	41.0	2.5	blank	1.0	240.24971890449524	0.09996891021728516
44	207.2306809425354	fix_pre	0		120	42.0	2.5	/experiments/knapen_AOT/AOT_stimuli/rescaled_final/0013_fw.mp4	0.0	240.34968781471252	1.000157117843628
44	207.4143979549408	pulse	0	t		42.0	2.5	/experiments/knapen_AOT/AOT_stimuli/rescaled_final/0013_fw.mp4	0.0	240.53340482711792	
44	208.23083806037903	movie	1		244	42.0	2.5	/experiments/knapen_AOT/AOT_stimuli/rescaled_final/0013_fw.mp4	0.0	241.34984493255615	2.500363826751709
44	209.01452708244324	pulse	1	t		42.0	2.5	/experiments/knapen_AOT/AOT_stimuli/rescaled_final/0013_fw.mp4	0.0	242.13353395462036	
44	210.61481595039368	pulse	1	t		42.0	2.5	/experiments/knapen_AOT/AOT_stimuli/rescaled_final/0013_fw.mp4	0.0	243.7338228225708	
44	210.73120188713074	fix_post	2		12	42.0	2.5	/experiments/knapen_AOT/AOT_stimuli/rescaled_final/0013_fw.mp4	0.0	243.85020875930786	0.10005617141723633
45	210.83125805854797	fix_pre	0		120	43.0	2.5	/experiments/knapen_AOT/AOT_stimuli/rescaled_final/0235_rv.mp4	0.0	243.9502649307251	1.0001299381256104
45	211.83138799667358	movie	1		244	43.0	2.5	/experiments/knapen_AOT/AOT_stimuli/rescaled_final/0235_rv.mp4	0.0	244.9503948688507	2.4920430183410645
45	212.21544909477234	pulse	1	t		43.0	2.5	/experiments/knapen_AOT/AOT_stimuli/rescaled_final/0235_rv.mp4	0.0	245.33445596694946	
45	213.81522798538208	pulse	1	t		43.0	2.5	/experiments/knapen_AOT/AOT_stimuli/rescaled_final/0235_rv.mp4	0.0	246.9342348575592	
45	214.32343101501465	fix_post	2		12	43.0	2.5	/experiments/knapen_AOT/AOT_stimuli/rescaled_final/0235_rv.mp4	0.0	247.44243788719177	0.09999895095825195
46	214.4234299659729	fix_pre	0		120	44.0	2.5	/experiments/knapen_AOT/AOT_stimuli/rescaled_final/0549_fw.mp4	0.0	247.54243683815002	1.0001440048217773
46	215.41552710533142	pulse	0	t		44.0	2.5	/experiments/knapen_AOT/AOT_stimuli/rescaled_final/0549_fw.mp4	0.0	248.53453397750854	
46	215.42357397079468	movie	1		244	44.0	2.5	/experiments/knapen_AOT/AOT_stimuli/rescaled_final/0549_fw.mp4	0.0	248.5425808429718	2.5087380409240723
46	217.01645493507385	pulse	1	t		44.0	2.5	/experiments/knapen_AOT/AOT_stimuli/rescaled_final/0549_fw.mp4	0.0	250.13546180725098	
46	217.93231201171875	fix_post	2		12	44.0	2.5	/experiments/knapen_AOT/AOT_stimuli/rescaled_final/0549_fw.mp4	0.0	251.05131888389587	0.10002303123474121
47	218.0323350429535	fix_pre	0		120	45.0	2.5	/experiments/knapen_AOT/AOT_stimuli/rescaled_final/1526_fw.mp4	0.0	251.15134191513062	1.000126838684082
47	218.61586093902588	pulse	0	t		45.0	2.5	/experiments/knapen_AOT/AOT_stimuli/rescaled_final/1526_fw.mp4	0.0	251.734867811203	
47	219.03246188163757	movie	1		245	45.0	2.5	/experiments/knapen_AOT/AOT_stimuli/rescaled_final/1526_fw.mp4	0.0	252.1514687538147	2.5003490447998047
47	220.21624994277954	pulse	1	t		45.0	2.5	/experiments/knapen_AOT/AOT_stimuli/rescaled_final/1526_fw.mp4	0.0	253.33525681495667	
47	221.53281092643738	fix_post	2		12	45.0	2.5	/experiments/knapen_AOT/AOT_stimuli/rescaled_final/1526_fw.mp4	0.0	254.6518177986145	0.10004115104675293
48	221.63285207748413	fix_pre	0		120	46.0	2.5	/experiments/knapen_AOT/AOT_stimuli/rescaled_final/1681_fw.mp4	0.0	254.75185894966125	1.0001330375671387
48	221.8164119720459	pulse	0	t		46.0	2.5	/experiments/knapen_AOT/AOT_stimuli/rescaled_final/1681_fw.mp4	0.0	254.93541884422302	
48	222.63298511505127	movie	1		243	46.0	2.5	/experiments/knapen_AOT/AOT_stimuli/rescaled_final/1681_fw.mp4	0.0	255.7519919872284	2.500370979309082
48	223.41672492027283	pulse	1	t		46.0	2.5	/experiments/knapen_AOT/AOT_stimuli/rescaled_final/1681_fw.mp4	0.0	256.53573179244995	
48	225.01693391799927	pulse	1	t		46.0	2.5	/experiments/knapen_AOT/AOT_stimuli/rescaled_final/1681_fw.mp4	0.0	258.1359407901764	
48	225.13335609436035	fix_post	2		12	46.0	2.5	/experiments/knapen_AOT/AOT_stimuli/rescaled_final/1681_fw.mp4	0.0	258.2523629665375	0.1000518798828125
49	225.23340797424316	fix_pre	0		120	47.0	2.5	/experiments/knapen_AOT/AOT_stimuli/rescaled_final/1896_rv.mp4	0.0	258.3524148464203	1.0001509189605713
49	226.23355889320374	movie	1		244	47.0	2.5	/experiments/knapen_AOT/AOT_stimuli/rescaled_final/1896_rv.mp4	0.0	259.35256576538086	2.4920639991760254
49	226.62203693389893	pulse	1	t		47.0	2.5	/experiments/knapen_AOT/AOT_stimuli/rescaled_final/1896_rv.mp4	0.0	259.74104380607605	
49	228.21748304367065	pulse	1	t		47.0	2.5	/experiments/knapen_AOT/AOT_stimuli/rescaled_final/1896_rv.mp4	0.0	261.3364899158478	
49	228.72562289237976	fix_post	2		12	47.0	2.5	/experiments/knapen_AOT/AOT_stimuli/rescaled_final/1896_rv.mp4	0.0	261.8446297645569	0.0999460220336914
50	228.82556891441345	fix_pre	0		120	48.0	2.5	blank	1.0	261.9445757865906	1.0001389980316162
50	229.81772303581238	pulse	0	t		48.0	2.5	blank	1.0	262.9367299079895	
50	229.82570791244507	movie	1		301	48.0	2.5	blank	1.0	262.9447147846222	2.508769989013672
50	231.41788601875305	pulse	1	t		48.0	2.5	blank	1.0	264.5368928909302	
50	232.33447790145874	fix_post	2		12	48.0	2.5	blank	1.0	265.45348477363586	0.09995007514953613
51	232.43442797660828	fix_pre	0		120	49.0	2.5	/experiments/knapen_AOT/AOT_stimuli/rescaled_final/0401_rv.mp4	0.0	265.5534348487854	1.0002050399780273
51	233.01068305969238	pulse	0	t		49.0	2.5	/experiments/knapen_AOT/AOT_stimuli/rescaled_final/0401_rv.mp4	0.0	266.1296899318695	
51	233.4346330165863	movie	1		243	49.0	2.5	/experiments/knapen_AOT/AOT_stimuli/rescaled_final/0401_rv.mp4	0.0	266.5536398887634	2.5003299713134766
51	234.61836194992065	pulse	1	t		49.0	2.5	/experiments/knapen_AOT/AOT_stimuli/rescaled_final/0401_rv.mp4	0.0	267.7373688220978	
51	235.93496298789978	fix_post	2		12	49.0	2.5	/experiments/knapen_AOT/AOT_stimuli/rescaled_final/0401_rv.mp4	0.0	269.0539698600769	0.10004997253417969
52	236.03501296043396	fix_pre	0		120	50.0	2.5	/experiments/knapen_AOT/AOT_stimuli/rescaled_final/1491_fw.mp4	0.0	269.1540198326111	1.0000989437103271
52	236.21112298965454	pulse	0	t		50.0	2.5	/experiments/knapen_AOT/AOT_stimuli/rescaled_final/1491_fw.mp4	0.0	269.33012986183167	
52	237.0351119041443	movie	1		245	50.0	2.5	/experiments/knapen_AOT/AOT_stimuli/rescaled_final/1491_fw.mp4	0.0	270.1541187763214	2.5004401206970215
52	237.81147694587708	pulse	1	t		50.0	2.5	/experiments/knapen_AOT/AOT_stimuli/rescaled_final/1491_fw.mp4	0.0	270.9304838180542	
52	239.41086888313293	pulse	1	t		50.0	2.5	/experiments/knapen_AOT/AOT_stimuli/rescaled_final/1491_fw.mp4	0.0	272.52987575531006	
52	239.5355520248413	fix_post	2		12	50.0	2.5	/experiments/knapen_AOT/AOT_stimuli/rescaled_final/1491_fw.mp4	0.0	272.65455889701843	0.09996199607849121
53	239.6355140209198	fix_pre	0		120	51.0	2.5	/experiments/knapen_AOT/AOT_stimuli/rescaled_final/0686_rv.mp4	0.0	272.7545208930969	1.0001349449157715
53	240.63564896583557	movie	1		243	51.0	2.5	/experiments/knapen_AOT/AOT_stimuli/rescaled_final/0686_rv.mp4	0.0	273.7546558380127	2.4920620918273926
53	241.01094007492065	pulse	1	t		51.0	2.5	/experiments/knapen_AOT/AOT_stimuli/rescaled_final/0686_rv.mp4	0.0	274.1299469470978	
53	242.6112220287323	pulse	1	t		51.0	2.5	/experiments/knapen_AOT/AOT_stimuli/rescaled_final/0686_rv.mp4	0.0	275.7302289009094	
53	243.12771105766296	fix_post	2		12	51.0	2.5	/experiments/knapen_AOT/AOT_stimuli/rescaled_final/0686_rv.mp4	0.0	276.2467179298401	0.10003304481506348
54	243.22774410247803	fix_pre	0		119	52.0	2.5	/experiments/knapen_AOT/AOT_stimuli/rescaled_final/0253_fw.mp4	0.0	276.34675097465515	0.9917969703674316
54	244.2114360332489	pulse	0	t		52.0	2.5	/experiments/knapen_AOT/AOT_stimuli/rescaled_final/0253_fw.mp4	0.0	277.330442905426	
54	244.21954107284546	movie	1		246	52.0	2.5	/experiments/knapen_AOT/AOT_stimuli/rescaled_final/0253_fw.mp4	0.0	277.3385479450226	2.5087528228759766
54	245.81243705749512	pulse	1	t		52.0	2.5	/experiments/knapen_AOT/AOT_stimuli/rescaled_final/0253_fw.mp4	0.0	278.93144392967224	
54	246.72829389572144	fix_post	2		12	52.0	2.5	/experiments/knapen_AOT/AOT_stimuli/rescaled_final/0253_fw.mp4	0.0	279.84730076789856	0.09995222091674805
55	246.82824611663818	fix_pre	0		120	53.0	2.5	/experiments/knapen_AOT/AOT_stimuli/rescaled_final/1256_fw.mp4	0.0	279.9472529888153	1.0001709461212158
55	247.41189789772034	pulse	0	t		53.0	2.5	/experiments/knapen_AOT/AOT_stimuli/rescaled_final/1256_fw.mp4	0.0	280.53090476989746	
55	247.8284170627594	movie	1		246	53.0	2.5	/experiments/knapen_AOT/AOT_stimuli/rescaled_final/1256_fw.mp4	0.0	280.9474239349365	2.500358819961548
55	249.0122320652008	pulse	1	t		53.0	2.5	/experiments/knapen_AOT/AOT_stimuli/rescaled_final/1256_fw.mp4	0.0	282.13123893737793	
55	250.32877588272095	fix_post	2		12	53.0	2.5	/experiments/knapen_AOT/AOT_stimuli/rescaled_final/1256_fw.mp4	0.0	283.44778275489807	0.10002613067626953
56	250.42880201339722	fix_pre	0		120	54.0	2.5	/experiments/knapen_AOT/AOT_stimuli/rescaled_final/0015_fw.mp4	0.0	283.54780888557434	1.0001499652862549
56	250.61235404014587	pulse	0	t		54.0	2.5	/experiments/knapen_AOT/AOT_stimuli/rescaled_final/0015_fw.mp4	0.0	283.731360912323	
56	251.42895197868347	movie	1		245	54.0	2.5	/experiments/knapen_AOT/AOT_stimuli/rescaled_final/0015_fw.mp4	0.0	284.5479588508606	2.5004000663757324
56	252.21270608901978	pulse	1	t		54.0	2.5	/experiments/knapen_AOT/AOT_stimuli/rescaled_final/0015_fw.mp4	0.0	285.3317129611969	
56	253.81282901763916	pulse	1	t		54.0	2.5	/experiments/knapen_AOT/AOT_stimuli/rescaled_final/0015_fw.mp4	0.0	286.9318358898163	
56	253.9293520450592	fix_post	2		12	54.0	2.5	/experiments/knapen_AOT/AOT_stimuli/rescaled_final/0015_fw.mp4	0.0	287.0483589172363	0.10003089904785156
57	254.02938294410706	fix_pre	0		120	55.0	2.5	blank	1.0	287.1483898162842	1.000096082687378
57	255.02947902679443	movie	1		299	55.0	2.5	blank	1.0	288.14848589897156	2.4920759201049805
57	255.41306495666504	pulse	1	t		55.0	2.5	blank	1.0	288.53207182884216	
57	257.01339507102966	pulse	1	t		55.0	2.5	blank	1.0	290.1324019432068	
57	257.5215549468994	fix_post	2		12	55.0	2.5	blank	1.0	290.64056181907654	0.10004901885986328
58	257.6216039657593	fix_pre	0		120	56.0	2.5	/experiments/knapen_AOT/AOT_stimuli/rescaled_final/2026_rv.mp4	0.0	290.7406108379364	1.0000929832458496
58	258.61356711387634	pulse	0	t		56.0	2.5	/experiments/knapen_AOT/AOT_stimuli/rescaled_final/2026_rv.mp4	0.0	291.73257398605347	
58	258.6216969490051	movie	1		244	56.0	2.5	/experiments/knapen_AOT/AOT_stimuli/rescaled_final/2026_rv.mp4	0.0	291.74070382118225	2.5089521408081055
58	260.21429800987244	pulse	1	t		56.0	2.5	/experiments/knapen_AOT/AOT_stimuli/rescaled_final/2026_rv.mp4	0.0	293.33330488204956	
58	261.13064908981323	fix_post	2		9	56.0	2.5	/experiments/knapen_AOT/AOT_stimuli/rescaled_final/2026_rv.mp4	0.0	294.24965596199036	0.09978699684143066
59	261.23043608665466	fix_pre	0		120	57.0	2.5	/experiments/knapen_AOT/AOT_stimuli/rescaled_final/0686_rv.mp4	0.0	294.3494429588318	1.000121831893921
59	261.8139588832855	pulse	0	t		57.0	2.5	/experiments/knapen_AOT/AOT_stimuli/rescaled_final/0686_rv.mp4	0.0	294.93296575546265	
59	262.2305579185486	movie	1		244	57.0	2.5	/experiments/knapen_AOT/AOT_stimuli/rescaled_final/0686_rv.mp4	0.0	295.3495647907257	2.5003790855407715
59	263.4143719673157	pulse	1	t		57.0	2.5	/experiments/knapen_AOT/AOT_stimuli/rescaled_final/0686_rv.mp4	0.0	296.5333788394928	
59	264.73093700408936	fix_post	2		12	57.0	2.5	/experiments/knapen_AOT/AOT_stimuli/rescaled_final/0686_rv.mp4	0.0	297.8499438762665	0.10001301765441895
60	264.8309500217438	fix_pre	0		120	58.0	2.5	/experiments/knapen_AOT/AOT_stimuli/rescaled_final/0180_rv.mp4	0.0	297.9499568939209	1.0001568794250488
60	265.0146040916443	pulse	0	t		58.0	2.5	/experiments/knapen_AOT/AOT_stimuli/rescaled_final/0180_rv.mp4	0.0	298.1336109638214	
60	265.8311069011688	movie	1		243	58.0	2.5	/experiments/knapen_AOT/AOT_stimuli/rescaled_final/0180_rv.mp4	0.0	298.95011377334595	2.500401020050049
60	266.6148490905762	pulse	1	t		58.0	2.5	/experiments/knapen_AOT/AOT_stimuli/rescaled_final/0180_rv.mp4	0.0	299.7338559627533	
60	268.21490502357483	pulse	1	t		58.0	2.5	/experiments/knapen_AOT/AOT_stimuli/rescaled_final/0180_rv.mp4	0.0	301.33391189575195	
60	268.3315079212189	fix_post	2		12	58.0	2.5	/experiments/knapen_AOT/AOT_stimuli/rescaled_final/0180_rv.mp4	0.0	301.450514793396	0.10001397132873535
61	268.4315218925476	fix_pre	0		120	59.0	2.5	/experiments/knapen_AOT/AOT_stimuli/rescaled_final/1973_rv.mp4	0.0	301.55052876472473	1.0001420974731445
61	269.43166399002075	movie	1		243	59.0	2.5	/experiments/knapen_AOT/AOT_stimuli/rescaled_final/1973_rv.mp4	0.0	302.5506708621979	2.492016077041626
61	269.815789937973	pulse	1	t		59.0	2.5	/experiments/knapen_AOT/AOT_stimuli/rescaled_final/1973_rv.mp4	0.0	302.93479681015015	
61	271.4156138896942	pulse	1	t		59.0	2.5	/experiments/knapen_AOT/AOT_stimuli/rescaled_final/1973_rv.mp4	0.0	304.53462076187134	
61	271.9236800670624	fix_post	2		12	59.0	2.5	/experiments/knapen_AOT/AOT_stimuli/rescaled_final/1973_rv.mp4	0.0	305.0426869392395	0.10005998611450195
62	272.0237400531769	fix_pre	0		120	60.0	2.5	/experiments/knapen_AOT/AOT_stimuli/rescaled_final/1387_rv.mp4	0.0	305.142746925354	1.0000839233398438
62	273.01570105552673	pulse	0	t		60.0	2.5	/experiments/knapen_AOT/AOT_stimuli/rescaled_final/1387_rv.mp4	0.0	306.13470792770386	
62	273.0238239765167	movie	1		246	60.0	2.5	/experiments/knapen_AOT/AOT_stimuli/rescaled_final/1387_rv.mp4	0.0	306.14283084869385	2.5088000297546387
62	274.6168599128723	pulse	1	t		60.0	2.5	/experiments/knapen_AOT/AOT_stimuli/rescaled_final/1387_rv.mp4	0.0	307.73586678504944	
62	275.53262400627136	fix_post	2		12	60.0	2.5	/experiments/knapen_AOT/AOT_stimuli/rescaled_final/1387_rv.mp4	0.0	308.6516308784485	0.09994196891784668
63	275.6325659751892	fix_pre	0		120	61.0	2.5	/experiments/knapen_AOT/AOT_stimuli/rescaled_final/2096_rv.mp4	0.0	308.75157284736633	1.000119924545288
63	276.2161409854889	pulse	0	t		61.0	2.5	/experiments/knapen_AOT/AOT_stimuli/rescaled_final/2096_rv.mp4	0.0	309.335147857666	
63	276.6326858997345	movie	1		245	61.0	2.5	/experiments/knapen_AOT/AOT_stimuli/rescaled_final/2096_rv.mp4	0.0	309.7516927719116	2.500394105911255
63	277.8164629936218	pulse	1	t		61.0	2.5	/experiments/knapen_AOT/AOT_stimuli/rescaled_final/2096_rv.mp4	0.0	310.93546986579895	
63	279.13308000564575	fix_post	2		12	61.0	2.5	/experiments/knapen_AOT/AOT_stimuli/rescaled_final/2096_rv.mp4	0.0	312.2520868778229	0.10001301765441895
64	279.23309302330017	fix_pre	0		120	62.0	2.5	/experiments/knapen_AOT/AOT_stimuli/rescaled_final/1742_rv.mp4	0.0	312.3520998954773	1.0001449584960938
64	279.4167630672455	pulse	0	t		62.0	2.5	/experiments/knapen_AOT/AOT_stimuli/rescaled_final/1742_rv.mp4	0.0	312.5357699394226	
64	280.23323798179626	movie	1		244	62.0	2.5	/experiments/knapen_AOT/AOT_stimuli/rescaled_final/1742_rv.mp4	0.0	313.3522448539734	2.500365972518921
64	281.0169401168823	pulse	1	t		62.0	2.5	/experiments/knapen_AOT/AOT_stimuli/rescaled_final/1742_rv.mp4	0.0	314.13594698905945	
64	282.61929202079773	pulse	1	t		62.0	2.5	/experiments/knapen_AOT/AOT_stimuli/rescaled_final/1742_rv.mp4	0.0	315.73829889297485	
64	282.7336039543152	fix_post	2		12	62.0	2.5	/experiments/knapen_AOT/AOT_stimuli/rescaled_final/1742_rv.mp4	0.0	315.8526108264923	0.10001802444458008
65	282.83362197875977	fix_pre	0		120	63.0	2.5	blank	1.0	315.9526288509369	1.0001630783081055
65	283.83378505706787	movie	1		299	63.0	2.5	blank	1.0	316.952791929245	2.4920690059661865
65	284.21743607521057	pulse	1	t		63.0	2.5	blank	1.0	317.3364429473877	
65	285.81763100624084	pulse	1	t		63.0	2.5	blank	1.0	318.93663787841797	
65	286.32585406303406	fix_post	2		12	63.0	2.5	blank	1.0	319.4448609352112	0.0999898910522461
66	286.4258439540863	fix_pre	0		120	64.0	2.5	/experiments/knapen_AOT/AOT_stimuli/rescaled_final/1006_rv.mp4	0.0	319.5448508262634	1.0001311302185059
66	287.4178900718689	pulse	0	t		64.0	2.5	/experiments/knapen_AOT/AOT_stimuli/rescaled_final/1006_rv.mp4	0.0	320.536896944046	
66	287.4259750843048	movie	1		246	64.0	2.5	/experiments/knapen_AOT/AOT_stimuli/rescaled_final/1006_rv.mp4	0.0	320.54498195648193	2.508734941482544
66	289.0187089443207	pulse	1	t		64.0	2.5	/experiments/knapen_AOT/AOT_stimuli/rescaled_final/1006_rv.mp4	0.0	322.1377158164978	
66	289.93471002578735	fix_post	2		12	64.0	2.5	/experiments/knapen_AOT/AOT_stimuli/rescaled_final/1006_rv.mp4	0.0	323.0537168979645	0.09999990463256836
67	290.0347099304199	fix_pre	0		120	65.0	2.5	/experiments/knapen_AOT/AOT_stimuli/rescaled_final/0320_fw.mp4	0.0	323.15371680259705	1.0001931190490723
67	290.618369102478	pulse	0	t		65.0	2.5	/experiments/knapen_AOT/AOT_stimuli/rescaled_final/0320_fw.mp4	0.0	323.73737597465515	
67	291.034903049469	movie	1		244	65.0	2.5	/experiments/knapen_AOT/AOT_stimuli/rescaled_final/0320_fw.mp4	0.0	324.1539099216461	2.5003039836883545
67	292.21157908439636	pulse	1	t		65.0	2.5	/experiments/knapen_AOT/AOT_stimuli/rescaled_final/0320_fw.mp4	0.0	325.3305859565735	
67	293.53520703315735	fix_post	2		12	65.0	2.5	/experiments/knapen_AOT/AOT_stimuli/rescaled_final/0320_fw.mp4	0.0	326.6542139053345	0.10005593299865723
68	293.635262966156	fix_pre	0		120	66.0	2.5	/experiments/knapen_AOT/AOT_stimuli/rescaled_final/0559_fw.mp4	0.0	326.75426983833313	1.0001370906829834
68	293.8113899230957	pulse	0	t		66.0	2.5	/experiments/knapen_AOT/AOT_stimuli/rescaled_final/0559_fw.mp4	0.0	326.9303967952728	
68	294.635400056839	movie	1		243	66.0	2.5	/experiments/knapen_AOT/AOT_stimuli/rescaled_final/0559_fw.mp4	0.0	327.7544069290161	2.5003700256347656
68	295.41159892082214	pulse	1	t		66.0	2.5	/experiments/knapen_AOT/AOT_stimuli/rescaled_final/0559_fw.mp4	0.0	328.53060579299927	
68	297.0196781158447	pulse	1	t		66.0	2.5	/experiments/knapen_AOT/AOT_stimuli/rescaled_final/0559_fw.mp4	0.0	330.13868498802185	
68	297.13577008247375	fix_post	2		12	66.0	2.5	/experiments/knapen_AOT/AOT_stimuli/rescaled_final/0559_fw.mp4	0.0	330.2547769546509	0.09999299049377441
69	297.23576307296753	fix_pre	0		120	67.0	2.5	/experiments/knapen_AOT/AOT_stimuli/rescaled_final/1717_rv.mp4	0.0	330.35476994514465	1.0001838207244873
69	298.235946893692	movie	1		243	67.0	2.5	/experiments/knapen_AOT/AOT_stimuli/rescaled_final/1717_rv.mp4	0.0	331.35495376586914	2.4920241832733154
69	298.62018609046936	pulse	1	t		67.0	2.5	/experiments/knapen_AOT/AOT_stimuli/rescaled_final/1717_rv.mp4	0.0	331.7391929626465	
69	300.2124230861664	pulse	1	t		67.0	2.5	/experiments/knapen_AOT/AOT_stimuli/rescaled_final/1717_rv.mp4	0.0	333.3314299583435	
69	300.72797107696533	fix_post	2		12	67.0	2.5	/experiments/knapen_AOT/AOT_stimuli/rescaled_final/1717_rv.mp4	0.0	333.84697794914246	0.10002994537353516
70	300.82800102233887	fix_pre	0		119	68.0	2.5	blank	1.0	333.947007894516	0.9917969703674316
70	301.81170105934143	pulse	0	t		68.0	2.5	blank	1.0	334.93070793151855	
70	301.8197979927063	movie	1		301	68.0	2.5	blank	1.0	334.9388048648834	2.5086960792541504
70	303.41185188293457	pulse	1	t		68.0	2.5	blank	1.0	336.5308587551117	
70	304.32849407196045	fix_post	2		12	68.0	2.5	blank	1.0	337.4475009441376	0.10004687309265137
71	304.4285409450531	fix_pre	0		120	69.0	2.5	/experiments/knapen_AOT/AOT_stimuli/rescaled_final/1348_fw.mp4	0.0	337.5475478172302	1.0001471042633057
71	305.0121560096741	pulse	0	t		69.0	2.5	/experiments/knapen_AOT/AOT_stimuli/rescaled_final/1348_fw.mp4	0.0	338.1311628818512	
71	305.4286880493164	movie	1		243	69.0	2.5	/experiments/knapen_AOT/AOT_stimuli/rescaled_final/1348_fw.mp4	0.0	338.54769492149353	2.500354051589966
71	306.61247301101685	pulse	1	t		69.0	2.5	/experiments/knapen_AOT/AOT_stimuli/rescaled_final/1348_fw.mp4	0.0	339.73147988319397	
71	307.9290421009064	fix_post	2		12	69.0	2.5	/experiments/knapen_AOT/AOT_stimuli/rescaled_final/1348_fw.mp4	0.0	341.0480489730835	0.10009884834289551
72	308.02914094924927	fix_pre	0		120	70.0	2.5	/experiments/knapen_AOT/AOT_stimuli/rescaled_final/1563_rv.mp4	0.0	341.1481478214264	1.0001511573791504
72	308.21267008781433	pulse	0	t		70.0	2.5	/experiments/knapen_AOT/AOT_stimuli/rescaled_final/1563_rv.mp4	0.0	341.33167695999146	
72	309.0292921066284	movie	1		244	70.0	2.5	/experiments/knapen_AOT/AOT_stimuli/rescaled_final/1563_rv.mp4	0.0	342.14829897880554	2.500328779220581
72	309.81284189224243	pulse	1	t		70.0	2.5	/experiments/knapen_AOT/AOT_stimuli/rescaled_final/1563_rv.mp4	0.0	342.93184876441956	
72	311.41311502456665	pulse	1	t		70.0	2.5	/experiments/knapen_AOT/AOT_stimuli/rescaled_final/1563_rv.mp4	0.0	344.5321218967438	
72	311.529620885849	fix_post	2		12	70.0	2.5	/experiments/knapen_AOT/AOT_stimuli/rescaled_final/1563_rv.mp4	0.0	344.6486277580261	0.1000511646270752
73	311.6296720504761	fix_pre	0		120	71.0	2.5	/experiments/knapen_AOT/AOT_stimuli/rescaled_final/1935_fw.mp4	0.0	344.7486789226532	1.0000889301300049
73	312.6297609806061	movie	1		244	71.0	2.5	/experiments/knapen_AOT/AOT_stimuli/rescaled_final/1935_fw.mp4	0.0	345.7487678527832	2.4920239448547363
73	313.0140030384064	pulse	1	t		71.0	2.5	/experiments/knapen_AOT/AOT_stimuli/rescaled_final/1935_fw.mp4	0.0	346.1330099105835	
73	314.613648891449	pulse	1	t		71.0	2.5	/experiments/knapen_AOT/AOT_stimuli/rescaled_final/1935_fw.mp4	0.0	347.7326557636261	
73	315.1217849254608	fix_post	2		12	71.0	2.5	/experiments/knapen_AOT/AOT_stimuli/rescaled_final/1935_fw.mp4	0.0	348.24079179763794	0.1000070571899414
74	315.22179198265076	fix_pre	0		120	72.0	2.5	/experiments/knapen_AOT/AOT_stimuli/rescaled_final/0997_rv.mp4	0.0	348.3407988548279	1.0001769065856934
74	316.2138020992279	pulse	0	t		72.0	2.5	/experiments/knapen_AOT/AOT_stimuli/rescaled_final/0997_rv.mp4	0.0	349.33280897140503	
74	316.22196888923645	movie	1		245	72.0	2.5	/experiments/knapen_AOT/AOT_stimuli/rescaled_final/0997_rv.mp4	0.0	349.3409757614136	2.508695125579834
74	317.81455397605896	pulse	1	t		72.0	2.5	/experiments/knapen_AOT/AOT_stimuli/rescaled_final/0997_rv.mp4	0.0	350.9335608482361	
74	318.7306640148163	fix_post	2		12	72.0	2.5	/experiments/knapen_AOT/AOT_stimuli/rescaled_final/0997_rv.mp4	0.0	351.8496708869934	0.10004687309265137
75	318.83071088790894	fix_pre	0		120	73.0	2.5	/experiments/knapen_AOT/AOT_stimuli/rescaled_final/1005_rv.mp4	0.0	351.94971776008606	1.0001370906829834
75	319.4143719673157	pulse	0	t		73.0	2.5	/experiments/knapen_AOT/AOT_stimuli/rescaled_final/1005_rv.mp4	0.0	352.5333788394928	
75	319.8308479785919	movie	1		241	73.0	2.5	/experiments/knapen_AOT/AOT_stimuli/rescaled_final/1005_rv.mp4	0.0	352.94985485076904	2.5003609657287598
75	321.01472210884094	pulse	1	t		73.0	2.5	/experiments/knapen_AOT/AOT_stimuli/rescaled_final/1005_rv.mp4	0.0	354.13372898101807	
75	322.3312089443207	fix_post	2		12	73.0	2.5	/experiments/knapen_AOT/AOT_stimuli/rescaled_final/1005_rv.mp4	0.0	355.4502158164978	0.09999608993530273
76	322.431205034256	fix_pre	0		120	74.0	2.5	/experiments/knapen_AOT/AOT_stimuli/rescaled_final/0061_fw.mp4	0.0	355.5502119064331	1.0001659393310547
76	322.61482405662537	pulse	0	t		74.0	2.5	/experiments/knapen_AOT/AOT_stimuli/rescaled_final/0061_fw.mp4	0.0	355.7338309288025	
76	323.43137097358704	movie	1		245	74.0	2.5	/experiments/knapen_AOT/AOT_stimuli/rescaled_final/0061_fw.mp4	0.0	356.55037784576416	2.5003750324249268
76	324.2149848937988	pulse	1	t		74.0	2.5	/experiments/knapen_AOT/AOT_stimuli/rescaled_final/0061_fw.mp4	0.0	357.33399176597595	
76	325.8152709007263	pulse	1	t		74.0	2.5	/experiments/knapen_AOT/AOT_stimuli/rescaled_final/0061_fw.mp4	0.0	358.93427777290344	
76	325.93174600601196	fix_post	2		12	74.0	2.5	/experiments/knapen_AOT/AOT_stimuli/rescaled_final/0061_fw.mp4	0.0	359.0507528781891	0.09997987747192383
77	326.0317258834839	fix_pre	0		119	75.0	2.5	blank	1.0	359.150732755661	0.9918270111083984
77	327.0235528945923	movie	1		300	75.0	2.5	blank	1.0	360.1425597667694	2.5004050731658936
77	327.4156138896942	pulse	1	t		75.0	2.5	blank	1.0	360.53462076187134	
77	329.0158131122589	pulse	1	t		75.0	2.5	blank	1.0	362.13481998443604	
77	329.5239579677582	fix_post	2		12	75.0	2.5	blank	1.0	362.6429648399353	0.10000896453857422
78	329.62396693229675	fix_pre	0		120	76.0	2.5	/experiments/knapen_AOT/AOT_stimuli/rescaled_final/1541_rv.mp4	0.0	362.7429738044739	1.0001280307769775
78	330.6159551143646	pulse	0	t		76.0	2.5	/experiments/knapen_AOT/AOT_stimuli/rescaled_final/1541_rv.mp4	0.0	363.73496198654175	
78	330.62409496307373	movie	1		246	76.0	2.5	/experiments/knapen_AOT/AOT_stimuli/rescaled_final/1541_rv.mp4	0.0	363.74310183525085	2.5086920261383057
78	332.2167339324951	pulse	1	t		76.0	2.5	/experiments/knapen_AOT/AOT_stimuli/rescaled_final/1541_rv.mp4	0.0	365.33574080467224	
78	333.13278698921204	fix_post	2		12	76.0	2.5	/experiments/knapen_AOT/AOT_stimuli/rescaled_final/1541_rv.mp4	0.0	366.25179386138916	0.10003995895385742
79	333.2328269481659	fix_pre	0		120	77.0	2.5	/experiments/knapen_AOT/AOT_stimuli/rescaled_final/0015_fw.mp4	0.0	366.351833820343	1.0001590251922607
79	333.8164699077606	pulse	0	t		77.0	2.5	/experiments/knapen_AOT/AOT_stimuli/rescaled_final/0015_fw.mp4	0.0	366.93547677993774	
79	334.23298597335815	movie	1		245	77.0	2.5	/experiments/knapen_AOT/AOT_stimuli/rescaled_final/0015_fw.mp4	0.0	367.3519928455353	2.500347137451172
79	335.41682291030884	pulse	1	t		77.0	2.5	/experiments/knapen_AOT/AOT_stimuli/rescaled_final/0015_fw.mp4	0.0	368.53582978248596	
79	336.7333331108093	fix_post	2		12	77.0	2.5	/experiments/knapen_AOT/AOT_stimuli/rescaled_final/0015_fw.mp4	0.0	369.85233998298645	0.10006594657897949
80	336.8333990573883	fix_pre	0		120	78.0	2.5	/experiments/knapen_AOT/AOT_stimuli/rescaled_final/0328_fw.mp4	0.0	369.95240592956543	1.0001168251037598
80	337.0169680118561	pulse	0	t		78.0	2.5	/experiments/knapen_AOT/AOT_stimuli/rescaled_final/0328_fw.mp4	0.0	370.1359748840332	
80	337.83351588249207	movie	1		244	78.0	2.5	/experiments/knapen_AOT/AOT_stimuli/rescaled_final/0328_fw.mp4	0.0	370.9525227546692	2.500354051589966
80	338.6171450614929	pulse	1	t		78.0	2.5	/experiments/knapen_AOT/AOT_stimuli/rescaled_final/0328_fw.mp4	0.0	371.73615193367004	
80	340.2196910381317	pulse	1	t		78.0	2.5	/experiments/knapen_AOT/AOT_stimuli/rescaled_final/0328_fw.mp4	0.0	373.33869791030884	
80	340.33386993408203	fix_post	2		12	78.0	2.5	/experiments/knapen_AOT/AOT_stimuli/rescaled_final/0328_fw.mp4	0.0	373.45287680625916	0.10001897811889648
81	340.4338889122009	fix_pre	0		119	79.0	2.5	/experiments/knapen_AOT/AOT_stimuli/rescaled_final/0923_fw.mp4	0.0	373.55289578437805	0.9918150901794434
81	341.42570400238037	movie	1		244	79.0	2.5	/experiments/knapen_AOT/AOT_stimuli/rescaled_final/0923_fw.mp4	0.0	374.5447108745575	2.5003769397735596
81	341.8178379535675	pulse	1	t		79.0	2.5	/experiments/knapen_AOT/AOT_stimuli/rescaled_final/0923_fw.mp4	0.0	374.93684482574463	
81	343.4179039001465	pulse	1	t		79.0	2.5	/experiments/knapen_AOT/AOT_stimuli/rescaled_final/0923_fw.mp4	0.0	376.5369107723236	
81	343.92608094215393	fix_post	2		12	79.0	2.5	/experiments/knapen_AOT/AOT_stimuli/rescaled_final/0923_fw.mp4	0.0	377.04508781433105	0.10006904602050781
82	344.02614998817444	fix_pre	0		120	80.0	2.5	/experiments/knapen_AOT/AOT_stimuli/rescaled_final/0491_rv.mp4	0.0	377.14515686035156	1.0001099109649658
82	345.0180969238281	pulse	0	t		80.0	2.5	/experiments/knapen_AOT/AOT_stimuli/rescaled_final/0491_rv.mp4	0.0	378.13710379600525	
82	345.0262598991394	movie	1		245	80.0	2.5	/experiments/knapen_AOT/AOT_stimuli/rescaled_final/0491_rv.mp4	0.0	378.1452667713165	2.508700132369995
82	346.61956691741943	pulse	1	t		80.0	2.5	/experiments/knapen_AOT/AOT_stimuli/rescaled_final/0491_rv.mp4	0.0	379.73857378959656	
82	347.5349600315094	fix_post	2		12	80.0	2.5	/experiments/knapen_AOT/AOT_stimuli/rescaled_final/0491_rv.mp4	0.0	380.6539669036865	0.10001206398010254
83	347.6349720954895	fix_pre	0		120	81.0	2.5	/experiments/knapen_AOT/AOT_stimuli/rescaled_final/0549_fw.mp4	0.0	380.7539789676666	1.0001518726348877
83	348.21111702919006	pulse	0	t		81.0	2.5	/experiments/knapen_AOT/AOT_stimuli/rescaled_final/0549_fw.mp4	0.0	381.3301239013672	
83	348.6351239681244	movie	1		243	81.0	2.5	/experiments/knapen_AOT/AOT_stimuli/rescaled_final/0549_fw.mp4	0.0	381.7541308403015	2.5003769397735596
83	349.81511211395264	pulse	1	t		81.0	2.5	/experiments/knapen_AOT/AOT_stimuli/rescaled_final/0549_fw.mp4	0.0	382.93411898612976	
83	351.13550090789795	fix_post	2		12	81.0	2.5	/experiments/knapen_AOT/AOT_stimuli/rescaled_final/0549_fw.mp4	0.0	384.2545077800751	0.10003399848937988
84	351.23553490638733	fix_pre	0		120	82.0	2.5	/experiments/knapen_AOT/AOT_stimuli/rescaled_final/2088_rv.mp4	0.0	384.35454177856445	1.0001211166381836
84	351.4115779399872	pulse	0	t		82.0	2.5	/experiments/knapen_AOT/AOT_stimuli/rescaled_final/2088_rv.mp4	0.0	384.5305848121643	
84	352.2356560230255	movie	1		244	82.0	2.5	/experiments/knapen_AOT/AOT_stimuli/rescaled_final/2088_rv.mp4	0.0	385.35466289520264	2.5003600120544434
84	353.01114797592163	pulse	1	t		82.0	2.5	/experiments/knapen_AOT/AOT_stimuli/rescaled_final/2088_rv.mp4	0.0	386.13015484809875	
84	354.61128997802734	pulse	1	t		82.0	2.5	/experiments/knapen_AOT/AOT_stimuli/rescaled_final/2088_rv.mp4	0.0	387.73029685020447	
84	354.73601603507996	fix_post	2		12	82.0	2.5	/experiments/knapen_AOT/AOT_stimuli/rescaled_final/2088_rv.mp4	0.0	387.8550229072571	0.10001897811889648
85	354.83603501319885	fix_pre	0		119	83.0	2.5	blank	1.0	387.955041885376	0.9918210506439209
85	355.8278560638428	movie	1		300	83.0	2.5	blank	1.0	388.9468629360199	2.5003788471221924
85	356.2113718986511	pulse	1	t		83.0	2.5	blank	1.0	389.33037877082825	
85	357.81176590919495	pulse	1	t		83.0	2.5	blank	1.0	390.93077278137207	
85	358.32823491096497	fix_post	2		12	83.0	2.5	blank	1.0	391.4472417831421	0.10002803802490234
87	358.42826294898987	stim	0		1716					391.547269821167	14.302170038223267
87	359.4119589328766	pulse	0	t						392.5309658050537	
87	361.0121519565582	pulse	0	t						394.13115882873535	
87	362.6123540401459	pulse	0	t						395.731360912323	
87	364.21260809898376	pulse	0	t						397.3316149711609	
87	365.81288599967957	pulse	0	t						398.9318928718567	
87	367.4130311012268	pulse	0	t						400.53203797340393	
87	369.0133340358734	pulse	0	t						402.13234090805054	
87	370.61352801322937	pulse	0	t						403.7325348854065	
87	372.21385192871094	pulse	0	t						405.33285880088806	
