trial_nr	onset	event_type	phase	response	nr_frames	movie_index	movie_duration	movie_file	blank	onset_abs	duration
0	0.20825409889221191	stim	0		21					16.709859132766724	0.17489886283874512
0	0.37521886825561523	response	0	space						16.876823902130127	
1	0.38315296173095703	stim	0		5001					16.88475799560547	41.69155693054199
1	42.064528942108154	pulse	0	t						58.566133975982666	
1	42.07470989227295	stim	1		1715					58.57631492614746	14.300168991088867
1	43.65655207633972	pulse	1	t						60.15815711021423	
1	45.25681805610657	pulse	1	t						61.75842308998108	
1	46.85698103904724	pulse	1	t						63.35858607292175	
1	48.45723605155945	pulse	1	t						64.95884108543396	
1	50.05740404129028	pulse	1	t						66.5590090751648	
1	51.65778994560242	pulse	1	t						68.15939497947693	
1	53.257986068725586	pulse	1	t						69.7595911026001	
1	54.858115911483765	pulse	1	t						71.35972094535828	
2	56.374878883361816	fix_pre	0		11	0.0	2.5	/experiments/knapen_AOT/AOT_stimuli/rescaled_final/1122_rv.mp4	0.0	72.87648391723633	0.09169411659240723
2	56.45836687088013	pulse	0	t		0.0	2.5	/experiments/knapen_AOT/AOT_stimuli/rescaled_final/1122_rv.mp4	0.0	72.95997190475464	
2	56.466572999954224	movie	1		243	0.0	2.5	/experiments/knapen_AOT/AOT_stimuli/rescaled_final/1122_rv.mp4	0.0	72.96817803382874	2.508683919906616
2	58.06322407722473	pulse	1	t		0.0	2.5	/experiments/knapen_AOT/AOT_stimuli/rescaled_final/1122_rv.mp4	0.0	74.56482911109924	
2	58.97525691986084	fix_post	2		12	0.0	2.5	/experiments/knapen_AOT/AOT_stimuli/rescaled_final/1122_rv.mp4	0.0	75.47686195373535	0.10000896453857422
3	59.075265884399414	fix_pre	0		120	1.0	2.5	/experiments/knapen_AOT/AOT_stimuli/rescaled_final/0552_fw.mp4	0.0	75.57687091827393	1.0001790523529053
3	59.65898108482361	pulse	0	t		1.0	2.5	/experiments/knapen_AOT/AOT_stimuli/rescaled_final/0552_fw.mp4	0.0	76.16058611869812	
3	60.07544493675232	movie	1		243	1.0	2.5	/experiments/knapen_AOT/AOT_stimuli/rescaled_final/0552_fw.mp4	0.0	76.57704997062683	2.5004940032958984
3	61.259236097335815	pulse	1	t		1.0	2.5	/experiments/knapen_AOT/AOT_stimuli/rescaled_final/0552_fw.mp4	0.0	77.76084113121033	
3	62.57593894004822	fix_post	2		12	1.0	2.5	/experiments/knapen_AOT/AOT_stimuli/rescaled_final/0552_fw.mp4	0.0	79.07754397392273	0.09995102882385254
4	62.67588996887207	fix_pre	0		120	2.0	2.5	/experiments/knapen_AOT/AOT_stimuli/rescaled_final/0583_rv.mp4	0.0	79.17749500274658	1.0000510215759277
4	62.859304904937744	pulse	0	t		2.0	2.5	/experiments/knapen_AOT/AOT_stimuli/rescaled_final/0583_rv.mp4	0.0	79.36090993881226	
4	63.675940990448	movie	1		242	2.0	2.5	/experiments/knapen_AOT/AOT_stimuli/rescaled_final/0583_rv.mp4	0.0	80.17754602432251	2.500425100326538
4	64.45966696739197	pulse	1	t		2.0	2.5	/experiments/knapen_AOT/AOT_stimuli/rescaled_final/0583_rv.mp4	0.0	80.96127200126648	
4	66.06028890609741	pulse	1	t		2.0	2.5	/experiments/knapen_AOT/AOT_stimuli/rescaled_final/0583_rv.mp4	0.0	82.56189393997192	
4	66.17636609077454	fix_post	2		12	2.0	2.5	/experiments/knapen_AOT/AOT_stimuli/rescaled_final/0583_rv.mp4	0.0	82.67797112464905	0.10003900527954102
5	66.27640509605408	fix_pre	0		120	3.0	2.5	/experiments/knapen_AOT/AOT_stimuli/rescaled_final/0552_fw.mp4	0.0	82.77801012992859	1.0001168251037598
5	67.27652192115784	movie	1		242	3.0	2.5	/experiments/knapen_AOT/AOT_stimuli/rescaled_final/0552_fw.mp4	0.0	83.77812695503235	2.4920871257781982
5	67.66077208518982	pulse	1	t		3.0	2.5	/experiments/knapen_AOT/AOT_stimuli/rescaled_final/0552_fw.mp4	0.0	84.16237711906433	
5	69.2602789402008	pulse	1	t		3.0	2.5	/experiments/knapen_AOT/AOT_stimuli/rescaled_final/0552_fw.mp4	0.0	85.76188397407532	
5	69.76860904693604	fix_post	2		12	3.0	2.5	/experiments/knapen_AOT/AOT_stimuli/rescaled_final/0552_fw.mp4	0.0	86.27021408081055	0.09993386268615723
6	69.86854290962219	fix_pre	0		120	4.0	2.5	/experiments/knapen_AOT/AOT_stimuli/rescaled_final/2013_rv.mp4	0.0	86.3701479434967	1.0001931190490723
6	70.86061406135559	pulse	0	t		4.0	2.5	/experiments/knapen_AOT/AOT_stimuli/rescaled_final/2013_rv.mp4	0.0	87.3622190952301	
6	70.86873602867126	movie	1		244	4.0	2.5	/experiments/knapen_AOT/AOT_stimuli/rescaled_final/2013_rv.mp4	0.0	87.37034106254578	2.5087099075317383
6	72.46216297149658	pulse	1	t		4.0	2.5	/experiments/knapen_AOT/AOT_stimuli/rescaled_final/2013_rv.mp4	0.0	88.9637680053711	
6	73.377445936203	fix_post	2		12	4.0	2.5	/experiments/knapen_AOT/AOT_stimuli/rescaled_final/2013_rv.mp4	0.0	89.87905097007751	0.09997916221618652
7	73.47742509841919	fix_pre	0		120	5.0	2.5	blank	1.0	89.9790301322937	1.0002148151397705
7	74.0535979270935	pulse	0	t		5.0	2.5	blank	1.0	90.55520296096802	
7	74.47763991355896	movie	1		300	5.0	2.5	blank	1.0	90.97924494743347	2.5003490447998047
7	75.6538438796997	pulse	1	t		5.0	2.5	blank	1.0	92.15544891357422	
7	76.97798895835876	fix_post	2		12	5.0	2.5	blank	1.0	93.47959399223328	0.10005593299865723
8	77.07804489135742	fix_pre	0		120	6.0	2.5	/experiments/knapen_AOT/AOT_stimuli/rescaled_final/1636_fw.mp4	0.0	93.57964992523193	1.0000860691070557
8	77.25411295890808	pulse	0	t		6.0	2.5	/experiments/knapen_AOT/AOT_stimuli/rescaled_final/1636_fw.mp4	0.0	93.75571799278259	
8	78.07813096046448	movie	1		244	6.0	2.5	/experiments/knapen_AOT/AOT_stimuli/rescaled_final/1636_fw.mp4	0.0	94.57973599433899	2.500354051589966
8	78.8543848991394	pulse	1	t		6.0	2.5	/experiments/knapen_AOT/AOT_stimuli/rescaled_final/1636_fw.mp4	0.0	95.35598993301392	
8	80.45371508598328	pulse	1	t		6.0	2.5	/experiments/knapen_AOT/AOT_stimuli/rescaled_final/1636_fw.mp4	0.0	96.95532011985779	
8	80.57848501205444	fix_post	2		12	6.0	2.5	/experiments/knapen_AOT/AOT_stimuli/rescaled_final/1636_fw.mp4	0.0	97.08009004592896	0.10006594657897949
9	80.67855095863342	fix_pre	0		120	7.0	2.5	/experiments/knapen_AOT/AOT_stimuli/rescaled_final/0318_rv.mp4	0.0	97.18015599250793	1.000114917755127
9	81.67866587638855	movie	1		242	7.0	2.5	/experiments/knapen_AOT/AOT_stimuli/rescaled_final/0318_rv.mp4	0.0	98.18027091026306	2.4921791553497314
9	82.05382800102234	pulse	1	t		7.0	2.5	/experiments/knapen_AOT/AOT_stimuli/rescaled_final/0318_rv.mp4	0.0	98.55543303489685	
9	83.65417695045471	pulse	1	t		7.0	2.5	/experiments/knapen_AOT/AOT_stimuli/rescaled_final/0318_rv.mp4	0.0	100.15578198432922	
9	84.17084503173828	fix_post	2		12	7.0	2.5	/experiments/knapen_AOT/AOT_stimuli/rescaled_final/0318_rv.mp4	0.0	100.6724500656128	0.09990191459655762
10	84.27074694633484	fix_pre	0		119	8.0	2.5	/experiments/knapen_AOT/AOT_stimuli/rescaled_final/1556_rv.mp4	0.0	100.77235198020935	0.9918351173400879
10	85.25433397293091	pulse	0	t		8.0	2.5	/experiments/knapen_AOT/AOT_stimuli/rescaled_final/1556_rv.mp4	0.0	101.75593900680542	
10	85.26258206367493	movie	1		244	8.0	2.5	/experiments/knapen_AOT/AOT_stimuli/rescaled_final/1556_rv.mp4	0.0	101.76418709754944	2.508633852005005
10	86.85520005226135	pulse	1	t		8.0	2.5	/experiments/knapen_AOT/AOT_stimuli/rescaled_final/1556_rv.mp4	0.0	103.35680508613586	
10	87.77121591567993	fix_post	2		12	8.0	2.5	/experiments/knapen_AOT/AOT_stimuli/rescaled_final/1556_rv.mp4	0.0	104.27282094955444	0.10000014305114746
11	87.87121605873108	fix_pre	0		120	9.0	2.5	/experiments/knapen_AOT/AOT_stimuli/rescaled_final/1657_rv.mp4	0.0	104.37282109260559	1.0002069473266602
11	88.45496797561646	pulse	0	t		9.0	2.5	/experiments/knapen_AOT/AOT_stimuli/rescaled_final/1657_rv.mp4	0.0	104.95657300949097	
11	88.87142300605774	movie	1		242	9.0	2.5	/experiments/knapen_AOT/AOT_stimuli/rescaled_final/1657_rv.mp4	0.0	105.37302803993225	2.500473976135254
11	90.05527997016907	pulse	1	t		9.0	2.5	/experiments/knapen_AOT/AOT_stimuli/rescaled_final/1657_rv.mp4	0.0	106.55688500404358	
11	91.371896982193	fix_post	2		12	9.0	2.5	/experiments/knapen_AOT/AOT_stimuli/rescaled_final/1657_rv.mp4	0.0	107.8735020160675	0.0998830795288086
12	91.4717800617218	fix_pre	0		120	10.0	2.5	/experiments/knapen_AOT/AOT_stimuli/rescaled_final/0573_rv.mp4	0.0	107.97338509559631	1.0001919269561768
12	91.65529799461365	pulse	0	t		10.0	2.5	/experiments/knapen_AOT/AOT_stimuli/rescaled_final/0573_rv.mp4	0.0	108.15690302848816	
12	92.47197198867798	movie	1		244	10.0	2.5	/experiments/knapen_AOT/AOT_stimuli/rescaled_final/0573_rv.mp4	0.0	108.97357702255249	2.5003139972686768
12	93.25553798675537	pulse	1	t		10.0	2.5	/experiments/knapen_AOT/AOT_stimuli/rescaled_final/0573_rv.mp4	0.0	109.75714302062988	
12	94.85572290420532	pulse	1	t		10.0	2.5	/experiments/knapen_AOT/AOT_stimuli/rescaled_final/0573_rv.mp4	0.0	111.35732793807983	
12	94.97228598594666	fix_post	2		12	10.0	2.5	/experiments/knapen_AOT/AOT_stimuli/rescaled_final/0573_rv.mp4	0.0	111.47389101982117	0.10000395774841309
13	95.07228994369507	fix_pre	0		116	11.0	2.5	/experiments/knapen_AOT/AOT_stimuli/rescaled_final/1760_rv.mp4	0.0	111.57389497756958	0.9918601512908936
13	96.06415009498596	movie	1		243	11.0	2.5	/experiments/knapen_AOT/AOT_stimuli/rescaled_final/1760_rv.mp4	0.0	112.56575512886047	2.500454902648926
13	96.45623207092285	pulse	1	t		11.0	2.5	/experiments/knapen_AOT/AOT_stimuli/rescaled_final/1760_rv.mp4	0.0	112.95783710479736	
13	98.05630707740784	pulse	1	t		11.0	2.5	/experiments/knapen_AOT/AOT_stimuli/rescaled_final/1760_rv.mp4	0.0	114.55791211128235	
13	98.56460499763489	fix_post	2		12	11.0	2.5	/experiments/knapen_AOT/AOT_stimuli/rescaled_final/1760_rv.mp4	0.0	115.0662100315094	0.09996294975280762
14	98.6645679473877	fix_pre	0		120	12.0	2.5	/experiments/knapen_AOT/AOT_stimuli/rescaled_final/1772_fw.mp4	0.0	115.1661729812622	1.000180959701538
14	99.65649199485779	pulse	0	t		12.0	2.5	/experiments/knapen_AOT/AOT_stimuli/rescaled_final/1772_fw.mp4	0.0	116.1580970287323	
14	99.66474890708923	movie	1		243	12.0	2.5	/experiments/knapen_AOT/AOT_stimuli/rescaled_final/1772_fw.mp4	0.0	116.16635394096375	2.5085999965667725
14	101.25739097595215	pulse	1	t		12.0	2.5	/experiments/knapen_AOT/AOT_stimuli/rescaled_final/1772_fw.mp4	0.0	117.75899600982666	
14	102.173348903656	fix_post	2		12	12.0	2.5	/experiments/knapen_AOT/AOT_stimuli/rescaled_final/1772_fw.mp4	0.0	118.67495393753052	0.10002803802490234
15	102.27337694168091	fix_pre	0		120	13.0	2.5	/experiments/knapen_AOT/AOT_stimuli/rescaled_final/0870_fw.mp4	0.0	118.77498197555542	1.0001730918884277
15	102.85706090927124	pulse	0	t		13.0	2.5	/experiments/knapen_AOT/AOT_stimuli/rescaled_final/0870_fw.mp4	0.0	119.35866594314575	
15	103.27355003356934	movie	1		242	13.0	2.5	/experiments/knapen_AOT/AOT_stimuli/rescaled_final/0870_fw.mp4	0.0	119.77515506744385	2.50049090385437
15	104.45735502243042	pulse	1	t		13.0	2.5	/experiments/knapen_AOT/AOT_stimuli/rescaled_final/0870_fw.mp4	0.0	120.95896005630493	
15	105.7740409374237	fix_post	2		12	13.0	2.5	/experiments/knapen_AOT/AOT_stimuli/rescaled_final/0870_fw.mp4	0.0	122.27564597129822	0.09986495971679688
16	105.8739058971405	fix_pre	0		120	14.0	2.5	blank	1.0	122.37551093101501	1.000195026397705
16	106.05747699737549	pulse	0	t		14.0	2.5	blank	1.0	122.55908203125	
16	106.87410092353821	movie	1		300	14.0	2.5	blank	1.0	123.37570595741272	2.5003340244293213
16	107.65773296356201	pulse	1	t		14.0	2.5	blank	1.0	124.15933799743652	
16	109.25801301002502	pulse	1	t		14.0	2.5	blank	1.0	125.75961804389954	
16	109.37443494796753	fix_post	2		12	14.0	2.5	blank	1.0	125.87603998184204	0.10003805160522461
17	109.47447299957275	fix_pre	0		119	15.0	2.5	/experiments/knapen_AOT/AOT_stimuli/rescaled_final/0955_rv.mp4	0.0	125.97607803344727	0.9917988777160645
17	110.46627187728882	movie	1		242	15.0	2.5	/experiments/knapen_AOT/AOT_stimuli/rescaled_final/0955_rv.mp4	0.0	126.96787691116333	2.5004830360412598
17	110.85837006568909	pulse	1	t		15.0	2.5	/experiments/knapen_AOT/AOT_stimuli/rescaled_final/0955_rv.mp4	0.0	127.3599750995636	
17	112.45838689804077	pulse	1	t		15.0	2.5	/experiments/knapen_AOT/AOT_stimuli/rescaled_final/0955_rv.mp4	0.0	128.95999193191528	
17	112.96675491333008	fix_post	2		12	15.0	2.5	/experiments/knapen_AOT/AOT_stimuli/rescaled_final/0955_rv.mp4	0.0	129.4683599472046	0.09997797012329102
18	113.06673288345337	fix_pre	0		120	16.0	2.5	/experiments/knapen_AOT/AOT_stimuli/rescaled_final/0324_fw.mp4	0.0	129.56833791732788	1.0000710487365723
18	114.05865287780762	pulse	0	t		16.0	2.5	/experiments/knapen_AOT/AOT_stimuli/rescaled_final/0324_fw.mp4	0.0	130.56025791168213	
18	114.06680393218994	movie	1		243	16.0	2.5	/experiments/knapen_AOT/AOT_stimuli/rescaled_final/0324_fw.mp4	0.0	130.56840896606445	2.5087060928344727
18	115.6595299243927	pulse	1	t		16.0	2.5	/experiments/knapen_AOT/AOT_stimuli/rescaled_final/0324_fw.mp4	0.0	132.1611349582672	
18	116.57551002502441	fix_post	2		12	16.0	2.5	/experiments/knapen_AOT/AOT_stimuli/rescaled_final/0324_fw.mp4	0.0	133.07711505889893	0.10001802444458008
19	116.675528049469	fix_pre	0		120	17.0	2.5	/experiments/knapen_AOT/AOT_stimuli/rescaled_final/2052_rv.mp4	0.0	133.1771330833435	1.0001850128173828
19	117.25923895835876	pulse	0	t		17.0	2.5	/experiments/knapen_AOT/AOT_stimuli/rescaled_final/2052_rv.mp4	0.0	133.76084399223328	
19	117.67571306228638	movie	1		243	17.0	2.5	/experiments/knapen_AOT/AOT_stimuli/rescaled_final/2052_rv.mp4	0.0	134.1773180961609	2.5004639625549316
19	118.85955595970154	pulse	1	t		17.0	2.5	/experiments/knapen_AOT/AOT_stimuli/rescaled_final/2052_rv.mp4	0.0	135.36116099357605	
19	120.17617702484131	fix_post	2		12	17.0	2.5	/experiments/knapen_AOT/AOT_stimuli/rescaled_final/2052_rv.mp4	0.0	136.67778205871582	0.09989595413208008
20	120.27607297897339	fix_pre	0		120	18.0	2.5	/experiments/knapen_AOT/AOT_stimuli/rescaled_final/0541_rv.mp4	0.0	136.7776780128479	1.000143051147461
20	120.45974898338318	pulse	0	t		18.0	2.5	/experiments/knapen_AOT/AOT_stimuli/rescaled_final/0541_rv.mp4	0.0	136.9613540172577	
20	121.27621603012085	movie	1		244	18.0	2.5	/experiments/knapen_AOT/AOT_stimuli/rescaled_final/0541_rv.mp4	0.0	137.77782106399536	2.5003788471221924
20	122.05987691879272	pulse	1	t		18.0	2.5	/experiments/knapen_AOT/AOT_stimuli/rescaled_final/0541_rv.mp4	0.0	138.56148195266724	
20	123.66035795211792	pulse	1	t		18.0	2.5	/experiments/knapen_AOT/AOT_stimuli/rescaled_final/0541_rv.mp4	0.0	140.16196298599243	
20	123.77659487724304	fix_post	2		12	18.0	2.5	/experiments/knapen_AOT/AOT_stimuli/rescaled_final/0541_rv.mp4	0.0	140.27819991111755	0.10000419616699219
21	123.87659907341003	fix_pre	0		120	19.0	2.5	blank	1.0	140.37820410728455	1.0001628398895264
21	124.87676191329956	movie	1		299	19.0	2.5	blank	1.0	141.37836694717407	2.492042064666748
21	125.26038694381714	pulse	1	t		19.0	2.5	blank	1.0	141.76199197769165	
21	126.86059403419495	pulse	1	t		19.0	2.5	blank	1.0	143.36219906806946	
21	127.36880397796631	fix_post	2		12	19.0	2.5	blank	1.0	143.87040901184082	0.10007190704345703
22	127.46887588500977	fix_pre	0		120	20.0	2.5	/experiments/knapen_AOT/AOT_stimuli/rescaled_final/1866_rv.mp4	0.0	143.97048091888428	1.0001120567321777
22	128.46082305908203	pulse	0	t		20.0	2.5	/experiments/knapen_AOT/AOT_stimuli/rescaled_final/1866_rv.mp4	0.0	144.96242809295654	
22	128.46898794174194	movie	1		244	20.0	2.5	/experiments/knapen_AOT/AOT_stimuli/rescaled_final/1866_rv.mp4	0.0	144.97059297561646	2.508702039718628
22	130.0615520477295	pulse	1	t		20.0	2.5	/experiments/knapen_AOT/AOT_stimuli/rescaled_final/1866_rv.mp4	0.0	146.563157081604	
22	130.97768998146057	fix_post	2		12	20.0	2.5	/experiments/knapen_AOT/AOT_stimuli/rescaled_final/1866_rv.mp4	0.0	147.47929501533508	0.10002303123474121
23	131.0777130126953	fix_pre	0		120	21.0	2.5	/experiments/knapen_AOT/AOT_stimuli/rescaled_final/0916_rv.mp4	0.0	147.57931804656982	1.0001130104064941
23	131.66137790679932	pulse	0	t		21.0	2.5	/experiments/knapen_AOT/AOT_stimuli/rescaled_final/0916_rv.mp4	0.0	148.16298294067383	
23	132.0778260231018	movie	1		242	21.0	2.5	/experiments/knapen_AOT/AOT_stimuli/rescaled_final/0916_rv.mp4	0.0	148.57943105697632	2.5004220008850098
23	133.25447797775269	pulse	1	t		21.0	2.5	/experiments/knapen_AOT/AOT_stimuli/rescaled_final/0916_rv.mp4	0.0	149.7560830116272	
23	134.57824802398682	fix_post	2		12	21.0	2.5	/experiments/knapen_AOT/AOT_stimuli/rescaled_final/0916_rv.mp4	0.0	151.07985305786133	0.09995698928833008
24	134.67820501327515	fix_pre	0		120	22.0	2.5	/experiments/knapen_AOT/AOT_stimuli/rescaled_final/0653_rv.mp4	0.0	151.17981004714966	1.0002150535583496
24	134.86189007759094	pulse	0	t		22.0	2.5	/experiments/knapen_AOT/AOT_stimuli/rescaled_final/0653_rv.mp4	0.0	151.36349511146545	
24	135.6784200668335	movie	1		242	22.0	2.5	/experiments/knapen_AOT/AOT_stimuli/rescaled_final/0653_rv.mp4	0.0	152.180025100708	2.500443935394287
24	136.4547200202942	pulse	1	t		22.0	2.5	/experiments/knapen_AOT/AOT_stimuli/rescaled_final/0653_rv.mp4	0.0	152.9563250541687	
24	138.06266593933105	pulse	1	t		22.0	2.5	/experiments/knapen_AOT/AOT_stimuli/rescaled_final/0653_rv.mp4	0.0	154.56427097320557	
24	138.17886400222778	fix_post	2		12	22.0	2.5	/experiments/knapen_AOT/AOT_stimuli/rescaled_final/0653_rv.mp4	0.0	154.6804690361023	0.09987306594848633
25	138.27873706817627	fix_pre	0		120	23.0	2.5	/experiments/knapen_AOT/AOT_stimuli/rescaled_final/0894_rv.mp4	0.0	154.78034210205078	1.0001988410949707
25	139.27893590927124	movie	1		241	23.0	2.5	/experiments/knapen_AOT/AOT_stimuli/rescaled_final/0894_rv.mp4	0.0	155.78054094314575	2.4921059608459473
25	139.66391587257385	pulse	1	t		23.0	2.5	/experiments/knapen_AOT/AOT_stimuli/rescaled_final/0894_rv.mp4	0.0	156.16552090644836	
25	141.254625082016	pulse	1	t		23.0	2.5	/experiments/knapen_AOT/AOT_stimuli/rescaled_final/0894_rv.mp4	0.0	157.7562301158905	
25	141.7710418701172	fix_post	2		12	23.0	2.5	/experiments/knapen_AOT/AOT_stimuli/rescaled_final/0894_rv.mp4	0.0	158.2726469039917	0.099945068359375
26	141.87098693847656	fix_pre	0		119	24.0	2.5	/experiments/knapen_AOT/AOT_stimuli/rescaled_final/1747_rv.mp4	0.0	158.37259197235107	0.9918069839477539
26	142.85461401939392	pulse	0	t		24.0	2.5	/experiments/knapen_AOT/AOT_stimuli/rescaled_final/1747_rv.mp4	0.0	159.35621905326843	
26	142.86279392242432	movie	1		243	24.0	2.5	/experiments/knapen_AOT/AOT_stimuli/rescaled_final/1747_rv.mp4	0.0	159.36439895629883	2.5086779594421387
26	144.45948696136475	pulse	1	t		24.0	2.5	/experiments/knapen_AOT/AOT_stimuli/rescaled_final/1747_rv.mp4	0.0	160.96109199523926	
26	145.37147188186646	fix_post	2		12	24.0	2.5	/experiments/knapen_AOT/AOT_stimuli/rescaled_final/1747_rv.mp4	0.0	161.87307691574097	0.10011506080627441
27	145.47158694267273	fix_pre	0		120	25.0	2.5	/experiments/knapen_AOT/AOT_stimuli/rescaled_final/1857_rv.mp4	0.0	161.97319197654724	1.0001239776611328
27	146.05512499809265	pulse	0	t		25.0	2.5	/experiments/knapen_AOT/AOT_stimuli/rescaled_final/1857_rv.mp4	0.0	162.55673003196716	
27	146.47171092033386	movie	1		242	25.0	2.5	/experiments/knapen_AOT/AOT_stimuli/rescaled_final/1857_rv.mp4	0.0	162.97331595420837	2.500455141067505
27	147.6554400920868	pulse	1	t		25.0	2.5	/experiments/knapen_AOT/AOT_stimuli/rescaled_final/1857_rv.mp4	0.0	164.1570451259613	
27	148.97216606140137	fix_post	2		12	25.0	2.5	/experiments/knapen_AOT/AOT_stimuli/rescaled_final/1857_rv.mp4	0.0	165.47377109527588	0.09988594055175781
28	149.07205200195312	fix_pre	0		120	26.0	2.5	blank	1.0	165.57365703582764	1.0001280307769775
28	149.25561094284058	pulse	0	t		26.0	2.5	blank	1.0	165.7572159767151	
28	150.0721800327301	movie	1		300	26.0	2.5	blank	1.0	166.57378506660461	2.5003788471221924
28	150.85582304000854	pulse	1	t		26.0	2.5	blank	1.0	167.35742807388306	
28	152.4561049938202	pulse	1	t		26.0	2.5	blank	1.0	168.9577100276947	
28	152.5725588798523	fix_post	2		12	26.0	2.5	blank	1.0	169.0741639137268	0.10001420974731445
29	152.6725730895996	fix_pre	0		120	27.0	2.5	/experiments/knapen_AOT/AOT_stimuli/rescaled_final/1160_fw.mp4	0.0	169.17417812347412	1.000196933746338
29	153.67277002334595	movie	1		242	27.0	2.5	/experiments/knapen_AOT/AOT_stimuli/rescaled_final/1160_fw.mp4	0.0	170.17437505722046	2.49214506149292
29	154.05751299858093	pulse	1	t		27.0	2.5	/experiments/knapen_AOT/AOT_stimuli/rescaled_final/1160_fw.mp4	0.0	170.55911803245544	
29	155.65655398368835	pulse	1	t		27.0	2.5	/experiments/knapen_AOT/AOT_stimuli/rescaled_final/1160_fw.mp4	0.0	172.15815901756287	
29	156.16491508483887	fix_post	2		12	27.0	2.5	/experiments/knapen_AOT/AOT_stimuli/rescaled_final/1160_fw.mp4	0.0	172.66652011871338	0.09986996650695801
30	156.26478505134583	fix_pre	0		120	28.0	2.5	/experiments/knapen_AOT/AOT_stimuli/rescaled_final/0526_fw.mp4	0.0	172.76639008522034	1.0001368522644043
30	157.2568929195404	pulse	0	t		28.0	2.5	/experiments/knapen_AOT/AOT_stimuli/rescaled_final/0526_fw.mp4	0.0	173.75849795341492	
30	157.26492190361023	movie	1		244	28.0	2.5	/experiments/knapen_AOT/AOT_stimuli/rescaled_final/0526_fw.mp4	0.0	173.76652693748474	2.5087151527404785
30	158.85818600654602	pulse	1	t		28.0	2.5	/experiments/knapen_AOT/AOT_stimuli/rescaled_final/0526_fw.mp4	0.0	175.35979104042053	
30	159.7736370563507	fix_post	2		9	28.0	2.5	/experiments/knapen_AOT/AOT_stimuli/rescaled_final/0526_fw.mp4	0.0	176.27524209022522	0.10008597373962402
31	159.87372303009033	fix_pre	0		120	29.0	2.5	/experiments/knapen_AOT/AOT_stimuli/rescaled_final/1682_fw.mp4	0.0	176.37532806396484	1.0001208782196045
31	160.45727801322937	pulse	0	t		29.0	2.5	/experiments/knapen_AOT/AOT_stimuli/rescaled_final/1682_fw.mp4	0.0	176.95888304710388	
31	160.87384390830994	movie	1		243	29.0	2.5	/experiments/knapen_AOT/AOT_stimuli/rescaled_final/1682_fw.mp4	0.0	177.37544894218445	2.5003111362457275
31	162.0576150417328	pulse	1	t		29.0	2.5	/experiments/knapen_AOT/AOT_stimuli/rescaled_final/1682_fw.mp4	0.0	178.5592200756073	
31	163.37415504455566	fix_post	2		12	29.0	2.5	/experiments/knapen_AOT/AOT_stimuli/rescaled_final/1682_fw.mp4	0.0	179.87576007843018	0.10002803802490234
32	163.47418308258057	fix_pre	0		120	30.0	2.5	/experiments/knapen_AOT/AOT_stimuli/rescaled_final/1791_rv.mp4	0.0	179.97578811645508	1.0001568794250488
32	163.65779304504395	pulse	0	t		30.0	2.5	/experiments/knapen_AOT/AOT_stimuli/rescaled_final/1791_rv.mp4	0.0	180.15939807891846	
32	164.47433996200562	movie	1		243	30.0	2.5	/experiments/knapen_AOT/AOT_stimuli/rescaled_final/1791_rv.mp4	0.0	180.97594499588013	2.5005719661712646
32	165.25809907913208	pulse	1	t		30.0	2.5	/experiments/knapen_AOT/AOT_stimuli/rescaled_final/1791_rv.mp4	0.0	181.7597041130066	
32	166.8583700656891	pulse	1	t		30.0	2.5	/experiments/knapen_AOT/AOT_stimuli/rescaled_final/1791_rv.mp4	0.0	183.3599750995636	
32	166.97491192817688	fix_post	2		12	30.0	2.5	/experiments/knapen_AOT/AOT_stimuli/rescaled_final/1791_rv.mp4	0.0	183.4765169620514	0.09987115859985352
33	167.07478308677673	fix_pre	0		120	31.0	2.5	/experiments/knapen_AOT/AOT_stimuli/rescaled_final/0893_fw.mp4	0.0	183.57638812065125	1.0001308917999268
33	168.07491397857666	movie	1		241	31.0	2.5	/experiments/knapen_AOT/AOT_stimuli/rescaled_final/0893_fw.mp4	0.0	184.57651901245117	2.492094039916992
33	168.459645986557	pulse	1	t		31.0	2.5	/experiments/knapen_AOT/AOT_stimuli/rescaled_final/0893_fw.mp4	0.0	184.96125102043152	
33	170.05877590179443	pulse	1	t		31.0	2.5	/experiments/knapen_AOT/AOT_stimuli/rescaled_final/0893_fw.mp4	0.0	186.56038093566895	
33	170.56700801849365	fix_post	2		12	31.0	2.5	/experiments/knapen_AOT/AOT_stimuli/rescaled_final/0893_fw.mp4	0.0	187.06861305236816	0.09998202323913574
34	170.6669900417328	fix_pre	0		120	32.0	2.5	/experiments/knapen_AOT/AOT_stimuli/rescaled_final/1296_fw.mp4	0.0	187.1685950756073	1.0001330375671387
34	171.6590609550476	pulse	0	t		32.0	2.5	/experiments/knapen_AOT/AOT_stimuli/rescaled_final/1296_fw.mp4	0.0	188.16066598892212	
34	171.66712307929993	movie	1		244	32.0	2.5	/experiments/knapen_AOT/AOT_stimuli/rescaled_final/1296_fw.mp4	0.0	188.16872811317444	2.5086448192596436
34	173.26366996765137	pulse	1	t		32.0	2.5	/experiments/knapen_AOT/AOT_stimuli/rescaled_final/1296_fw.mp4	0.0	189.76527500152588	
34	174.17576789855957	fix_post	2		12	32.0	2.5	/experiments/knapen_AOT/AOT_stimuli/rescaled_final/1296_fw.mp4	0.0	190.67737293243408	0.10002899169921875
35	174.2757968902588	fix_pre	0		120	33.0	2.5	/experiments/knapen_AOT/AOT_stimuli/rescaled_final/0653_rv.mp4	0.0	190.7774019241333	1.0001411437988281
35	174.85937690734863	pulse	0	t		33.0	2.5	/experiments/knapen_AOT/AOT_stimuli/rescaled_final/0653_rv.mp4	0.0	191.36098194122314	
35	175.27593803405762	movie	1		242	33.0	2.5	/experiments/knapen_AOT/AOT_stimuli/rescaled_final/0653_rv.mp4	0.0	191.77754306793213	2.5003819465637207
35	176.45982599258423	pulse	1	t		33.0	2.5	/experiments/knapen_AOT/AOT_stimuli/rescaled_final/0653_rv.mp4	0.0	192.96143102645874	
35	177.77631998062134	fix_post	2		12	33.0	2.5	/experiments/knapen_AOT/AOT_stimuli/rescaled_final/0653_rv.mp4	0.0	194.27792501449585	0.09998798370361328
36	177.87630796432495	fix_pre	0		120	34.0	2.5	/experiments/knapen_AOT/AOT_stimuli/rescaled_final/0847_rv.mp4	0.0	194.37791299819946	1.0002269744873047
36	178.0598669052124	pulse	0	t		34.0	2.5	/experiments/knapen_AOT/AOT_stimuli/rescaled_final/0847_rv.mp4	0.0	194.5614719390869	
36	178.87653493881226	movie	1		243	34.0	2.5	/experiments/knapen_AOT/AOT_stimuli/rescaled_final/0847_rv.mp4	0.0	195.37813997268677	2.5004570484161377
36	179.66018199920654	pulse	1	t		34.0	2.5	/experiments/knapen_AOT/AOT_stimuli/rescaled_final/0847_rv.mp4	0.0	196.16178703308105	
36	181.26036190986633	pulse	1	t		34.0	2.5	/experiments/knapen_AOT/AOT_stimuli/rescaled_final/0847_rv.mp4	0.0	197.76196694374084	
36	181.3769919872284	fix_post	2		12	34.0	2.5	/experiments/knapen_AOT/AOT_stimuli/rescaled_final/0847_rv.mp4	0.0	197.8785970211029	0.09992504119873047
37	181.47691702842712	fix_pre	0		120	35.0	2.5	blank	1.0	197.97852206230164	1.0001389980316162
37	182.47705602645874	movie	1		299	35.0	2.5	blank	1.0	198.97866106033325	2.4920308589935303
37	182.86057806015015	pulse	1	t		35.0	2.5	blank	1.0	199.36218309402466	
37	184.46091890335083	pulse	1	t		35.0	2.5	blank	1.0	200.96252393722534	
37	184.96908688545227	fix_post	2		12	35.0	2.5	blank	1.0	201.47069191932678	0.10003805160522461
38	185.0691249370575	fix_pre	0		120	36.0	2.5	/experiments/knapen_AOT/AOT_stimuli/rescaled_final/1930_fw.mp4	0.0	201.570729970932	1.0001471042633057
38	186.06119203567505	pulse	0	t		36.0	2.5	/experiments/knapen_AOT/AOT_stimuli/rescaled_final/1930_fw.mp4	0.0	202.56279706954956	
38	186.0692720413208	movie	1		244	36.0	2.5	/experiments/knapen_AOT/AOT_stimuli/rescaled_final/1930_fw.mp4	0.0	202.5708770751953	2.5086820125579834
38	187.661926984787	pulse	1	t		36.0	2.5	/experiments/knapen_AOT/AOT_stimuli/rescaled_final/1930_fw.mp4	0.0	204.1635320186615	
38	188.57795405387878	fix_post	2		12	36.0	2.5	/experiments/knapen_AOT/AOT_stimuli/rescaled_final/1930_fw.mp4	0.0	205.0795590877533	0.10008502006530762
39	188.6780390739441	fix_pre	0		120	37.0	2.5	/experiments/knapen_AOT/AOT_stimuli/rescaled_final/0018_rv.mp4	0.0	205.1796441078186	1.000058889389038
39	189.2540979385376	pulse	0	t		37.0	2.5	/experiments/knapen_AOT/AOT_stimuli/rescaled_final/0018_rv.mp4	0.0	205.7557029724121	
39	189.67809796333313	movie	1		243	37.0	2.5	/experiments/knapen_AOT/AOT_stimuli/rescaled_final/0018_rv.mp4	0.0	206.17970299720764	2.500375986099243
39	190.85484910011292	pulse	1	t		37.0	2.5	/experiments/knapen_AOT/AOT_stimuli/rescaled_final/0018_rv.mp4	0.0	207.35645413398743	
39	192.17847394943237	fix_post	2		12	37.0	2.5	/experiments/knapen_AOT/AOT_stimuli/rescaled_final/0018_rv.mp4	0.0	208.68007898330688	0.10003805160522461
40	192.2785120010376	fix_pre	0		120	38.0	2.5	/experiments/knapen_AOT/AOT_stimuli/rescaled_final/0781_rv.mp4	0.0	208.7801170349121	1.0001780986785889
40	192.45446491241455	pulse	0	t		38.0	2.5	/experiments/knapen_AOT/AOT_stimuli/rescaled_final/0781_rv.mp4	0.0	208.95606994628906	
40	193.2786900997162	movie	1		243	38.0	2.5	/experiments/knapen_AOT/AOT_stimuli/rescaled_final/0781_rv.mp4	0.0	209.7802951335907	2.5004518032073975
40	194.05483198165894	pulse	1	t		38.0	2.5	/experiments/knapen_AOT/AOT_stimuli/rescaled_final/0781_rv.mp4	0.0	210.55643701553345	
40	195.65435194969177	pulse	1	t		38.0	2.5	/experiments/knapen_AOT/AOT_stimuli/rescaled_final/0781_rv.mp4	0.0	212.15595698356628	
40	195.77914190292358	fix_post	2		12	38.0	2.5	/experiments/knapen_AOT/AOT_stimuli/rescaled_final/0781_rv.mp4	0.0	212.2807469367981	0.09989118576049805
41	195.87903308868408	fix_pre	0		120	39.0	2.5	/experiments/knapen_AOT/AOT_stimuli/rescaled_final/1044_rv.mp4	0.0	212.3806381225586	1.0001499652862549
41	196.87918305397034	movie	1		242	39.0	2.5	/experiments/knapen_AOT/AOT_stimuli/rescaled_final/1044_rv.mp4	0.0	213.38078808784485	2.492043972015381
41	197.25435400009155	pulse	1	t		39.0	2.5	/experiments/knapen_AOT/AOT_stimuli/rescaled_final/1044_rv.mp4	0.0	213.75595903396606	
41	198.85468101501465	pulse	1	t		39.0	2.5	/experiments/knapen_AOT/AOT_stimuli/rescaled_final/1044_rv.mp4	0.0	215.35628604888916	
41	199.37122702598572	fix_post	2		12	39.0	2.5	/experiments/knapen_AOT/AOT_stimuli/rescaled_final/1044_rv.mp4	0.0	215.87283205986023	0.09998798370361328
42	199.47121500968933	fix_pre	0		119	40.0	2.5	/experiments/knapen_AOT/AOT_stimuli/rescaled_final/0461_fw.mp4	0.0	215.97282004356384	0.9918558597564697
42	200.454922914505	pulse	0	t		40.0	2.5	/experiments/knapen_AOT/AOT_stimuli/rescaled_final/0461_fw.mp4	0.0	216.95652794837952	
42	200.4630708694458	movie	1		244	40.0	2.5	/experiments/knapen_AOT/AOT_stimuli/rescaled_final/0461_fw.mp4	0.0	216.9646759033203	2.5087032318115234
42	202.05611395835876	pulse	1	t		40.0	2.5	/experiments/knapen_AOT/AOT_stimuli/rescaled_final/0461_fw.mp4	0.0	218.55771899223328	
42	202.97177410125732	fix_post	2		12	40.0	2.5	/experiments/knapen_AOT/AOT_stimuli/rescaled_final/0461_fw.mp4	0.0	219.47337913513184	0.10000991821289062
43	203.07178401947021	fix_pre	0		120	41.0	2.5	blank	1.0	219.57338905334473	1.0002150535583496
43	203.6553659439087	pulse	0	t		41.0	2.5	blank	1.0	220.1569709777832	
43	204.07199907302856	movie	1		300	41.0	2.5	blank	1.0	220.57360410690308	2.5003178119659424
43	205.25557398796082	pulse	1	t		41.0	2.5	blank	1.0	221.75717902183533	
43	206.5723168849945	fix_post	2		12	41.0	2.5	blank	1.0	223.07392191886902	0.10003519058227539
44	206.67235207557678	fix_pre	0		120	42.0	2.5	/experiments/knapen_AOT/AOT_stimuli/rescaled_final/1375_rv.mp4	0.0	223.1739571094513	1.0001568794250488
44	206.85598397254944	pulse	0	t		42.0	2.5	/experiments/knapen_AOT/AOT_stimuli/rescaled_final/1375_rv.mp4	0.0	223.35758900642395	
44	207.67250895500183	movie	1		242	42.0	2.5	/experiments/knapen_AOT/AOT_stimuli/rescaled_final/1375_rv.mp4	0.0	224.17411398887634	2.5003979206085205
44	208.45615696907043	pulse	1	t		42.0	2.5	/experiments/knapen_AOT/AOT_stimuli/rescaled_final/1375_rv.mp4	0.0	224.95776200294495	
44	210.05623292922974	pulse	1	t		42.0	2.5	/experiments/knapen_AOT/AOT_stimuli/rescaled_final/1375_rv.mp4	0.0	226.55783796310425	
44	210.17290687561035	fix_post	2		12	42.0	2.5	/experiments/knapen_AOT/AOT_stimuli/rescaled_final/1375_rv.mp4	0.0	226.67451190948486	0.09995317459106445
45	210.27286005020142	fix_pre	0		119	43.0	2.5	/experiments/knapen_AOT/AOT_stimuli/rescaled_final/0815_rv.mp4	0.0	226.77446508407593	0.9917998313903809
45	211.2646598815918	movie	1		242	43.0	2.5	/experiments/knapen_AOT/AOT_stimuli/rescaled_final/0815_rv.mp4	0.0	227.7662649154663	2.5005271434783936
45	211.65664792060852	pulse	1	t		43.0	2.5	/experiments/knapen_AOT/AOT_stimuli/rescaled_final/0815_rv.mp4	0.0	228.15825295448303	
45	213.25674390792847	pulse	1	t		43.0	2.5	/experiments/knapen_AOT/AOT_stimuli/rescaled_final/0815_rv.mp4	0.0	229.75834894180298	
45	213.7651870250702	fix_post	2		12	43.0	2.5	/experiments/knapen_AOT/AOT_stimuli/rescaled_final/0815_rv.mp4	0.0	230.2667920589447	0.09988284111022949
46	213.86506986618042	fix_pre	0		120	44.0	2.5	/experiments/knapen_AOT/AOT_stimuli/rescaled_final/1682_rv.mp4	0.0	230.36667490005493	1.0000951290130615
46	214.85701203346252	pulse	0	t		44.0	2.5	/experiments/knapen_AOT/AOT_stimuli/rescaled_final/1682_rv.mp4	0.0	231.35861706733704	
46	214.86516499519348	movie	1		244	44.0	2.5	/experiments/knapen_AOT/AOT_stimuli/rescaled_final/1682_rv.mp4	0.0	231.366770029068	2.508758068084717
46	216.45817589759827	pulse	1	t		44.0	2.5	/experiments/knapen_AOT/AOT_stimuli/rescaled_final/1682_rv.mp4	0.0	232.95978093147278	
46	217.3739230632782	fix_post	2		12	44.0	2.5	/experiments/knapen_AOT/AOT_stimuli/rescaled_final/1682_rv.mp4	0.0	233.8755280971527	0.1000518798828125
47	217.473974943161	fix_pre	0		120	45.0	2.5	/experiments/knapen_AOT/AOT_stimuli/rescaled_final/1999_fw.mp4	0.0	233.97557997703552	1.000093936920166
47	218.0574610233307	pulse	0	t		45.0	2.5	/experiments/knapen_AOT/AOT_stimuli/rescaled_final/1999_fw.mp4	0.0	234.5590660572052	
47	218.47406888008118	movie	1		238	45.0	2.5	/experiments/knapen_AOT/AOT_stimuli/rescaled_final/1999_fw.mp4	0.0	234.9756739139557	2.5005390644073486
47	219.6579658985138	pulse	1	t		45.0	2.5	/experiments/knapen_AOT/AOT_stimuli/rescaled_final/1999_fw.mp4	0.0	236.1595709323883	
47	220.97460794448853	fix_post	2		12	45.0	2.5	/experiments/knapen_AOT/AOT_stimuli/rescaled_final/1999_fw.mp4	0.0	237.47621297836304	0.0998990535736084
48	221.07450699806213	fix_pre	0		120	46.0	2.5	/experiments/knapen_AOT/AOT_stimuli/rescaled_final/1164_fw.mp4	0.0	237.57611203193665	1.0001089572906494
48	221.25796508789062	pulse	0	t		46.0	2.5	/experiments/knapen_AOT/AOT_stimuli/rescaled_final/1164_fw.mp4	0.0	237.75957012176514	
48	222.07461595535278	movie	1		242	46.0	2.5	/experiments/knapen_AOT/AOT_stimuli/rescaled_final/1164_fw.mp4	0.0	238.5762209892273	2.500443935394287
48	222.8582260608673	pulse	1	t		46.0	2.5	/experiments/knapen_AOT/AOT_stimuli/rescaled_final/1164_fw.mp4	0.0	239.35983109474182	
48	224.4586319923401	pulse	1	t		46.0	2.5	/experiments/knapen_AOT/AOT_stimuli/rescaled_final/1164_fw.mp4	0.0	240.9602370262146	
48	224.57505989074707	fix_post	2		12	46.0	2.5	/experiments/knapen_AOT/AOT_stimuli/rescaled_final/1164_fw.mp4	0.0	241.07666492462158	0.09996819496154785
49	224.67502808570862	fix_pre	0		119	47.0	2.5	/experiments/knapen_AOT/AOT_stimuli/rescaled_final/0036_fw.mp4	0.0	241.17663311958313	0.9918007850646973
49	225.66682887077332	movie	1		243	47.0	2.5	/experiments/knapen_AOT/AOT_stimuli/rescaled_final/0036_fw.mp4	0.0	242.16843390464783	2.500335216522217
49	226.05891108512878	pulse	1	t		47.0	2.5	/experiments/knapen_AOT/AOT_stimuli/rescaled_final/0036_fw.mp4	0.0	242.5605161190033	
49	227.65898394584656	pulse	1	t		47.0	2.5	/experiments/knapen_AOT/AOT_stimuli/rescaled_final/0036_fw.mp4	0.0	244.16058897972107	
49	228.16716408729553	fix_post	2		12	47.0	2.5	/experiments/knapen_AOT/AOT_stimuli/rescaled_final/0036_fw.mp4	0.0	244.66876912117004	0.10000801086425781
50	228.2671720981598	fix_pre	0		120	48.0	2.5	/experiments/knapen_AOT/AOT_stimuli/rescaled_final/0265_rv.mp4	0.0	244.7687771320343	1.000152826309204
50	229.2591540813446	pulse	0	t		48.0	2.5	/experiments/knapen_AOT/AOT_stimuli/rescaled_final/0265_rv.mp4	0.0	245.76075911521912	
50	229.267324924469	movie	1		244	48.0	2.5	/experiments/knapen_AOT/AOT_stimuli/rescaled_final/0265_rv.mp4	0.0	245.7689299583435	2.5087740421295166
50	230.85997605323792	pulse	1	t		48.0	2.5	/experiments/knapen_AOT/AOT_stimuli/rescaled_final/0265_rv.mp4	0.0	247.36158108711243	
50	231.7760989665985	fix_post	2		12	48.0	2.5	/experiments/knapen_AOT/AOT_stimuli/rescaled_final/0265_rv.mp4	0.0	248.27770400047302	0.10003089904785156
51	231.87612986564636	fix_pre	0		120	49.0	2.5	blank	1.0	248.37773489952087	1.0000581741333008
51	232.45974493026733	pulse	0	t		49.0	2.5	blank	1.0	248.96134996414185	
51	232.87618803977966	movie	1		300	49.0	2.5	blank	1.0	249.37779307365417	2.5004429817199707
51	234.0599489212036	pulse	1	t		49.0	2.5	blank	1.0	250.56155395507812	
51	235.37663102149963	fix_post	2		12	49.0	2.5	blank	1.0	251.87823605537415	0.09998393058776855
52	235.4766149520874	fix_pre	0		120	50.0	2.5	/experiments/knapen_AOT/AOT_stimuli/rescaled_final/0108_rv.mp4	0.0	251.9782199859619	1.0001249313354492
52	235.6601390838623	pulse	0	t		50.0	2.5	/experiments/knapen_AOT/AOT_stimuli/rescaled_final/0108_rv.mp4	0.0	252.16174411773682	
52	236.47673988342285	movie	1		245	50.0	2.5	/experiments/knapen_AOT/AOT_stimuli/rescaled_final/0108_rv.mp4	0.0	252.97834491729736	2.500359058380127
52	237.26046204566956	pulse	1	t		50.0	2.5	/experiments/knapen_AOT/AOT_stimuli/rescaled_final/0108_rv.mp4	0.0	253.76206707954407	
52	238.86063289642334	pulse	1	t		50.0	2.5	/experiments/knapen_AOT/AOT_stimuli/rescaled_final/0108_rv.mp4	0.0	255.36223793029785	
52	238.97709894180298	fix_post	2		12	50.0	2.5	/experiments/knapen_AOT/AOT_stimuli/rescaled_final/0108_rv.mp4	0.0	255.4787039756775	0.10004210472106934
53	239.07714104652405	fix_pre	0		120	51.0	2.5	/experiments/knapen_AOT/AOT_stimuli/rescaled_final/1472_rv.mp4	0.0	255.57874608039856	1.000135898590088
53	240.07727694511414	movie	1		242	51.0	2.5	/experiments/knapen_AOT/AOT_stimuli/rescaled_final/1472_rv.mp4	0.0	256.57888197898865	2.4921021461486816
53	240.46154689788818	pulse	1	t		51.0	2.5	/experiments/knapen_AOT/AOT_stimuli/rescaled_final/1472_rv.mp4	0.0	256.9631519317627	
53	242.0611469745636	pulse	1	t		51.0	2.5	/experiments/knapen_AOT/AOT_stimuli/rescaled_final/1472_rv.mp4	0.0	258.5627520084381	
53	242.56937909126282	fix_post	2		12	51.0	2.5	/experiments/knapen_AOT/AOT_stimuli/rescaled_final/1472_rv.mp4	0.0	259.07098412513733	0.09997081756591797
54	242.66934990882874	fix_pre	0		120	52.0	2.5	/experiments/knapen_AOT/AOT_stimuli/rescaled_final/0041_fw.mp4	0.0	259.17095494270325	1.000180959701538
54	243.6612799167633	pulse	0	t		52.0	2.5	/experiments/knapen_AOT/AOT_stimuli/rescaled_final/0041_fw.mp4	0.0	260.1628849506378	
54	243.66953086853027	movie	1		247	52.0	2.5	/experiments/knapen_AOT/AOT_stimuli/rescaled_final/0041_fw.mp4	0.0	260.1711359024048	2.5086441040039062
54	245.26212906837463	pulse	1	t		52.0	2.5	/experiments/knapen_AOT/AOT_stimuli/rescaled_final/0041_fw.mp4	0.0	261.76373410224915	
54	246.17817497253418	fix_post	2		12	52.0	2.5	/experiments/knapen_AOT/AOT_stimuli/rescaled_final/0041_fw.mp4	0.0	262.6797800064087	0.10002303123474121
55	246.27819800376892	fix_pre	0		120	53.0	2.5	/experiments/knapen_AOT/AOT_stimuli/rescaled_final/1856_fw.mp4	0.0	262.77980303764343	1.0001790523529053
55	246.86195707321167	pulse	0	t		53.0	2.5	/experiments/knapen_AOT/AOT_stimuli/rescaled_final/1856_fw.mp4	0.0	263.3635621070862	
55	247.27837705612183	movie	1		242	53.0	2.5	/experiments/knapen_AOT/AOT_stimuli/rescaled_final/1856_fw.mp4	0.0	263.77998208999634	2.5005199909210205
55	248.45501708984375	pulse	1	t		53.0	2.5	/experiments/knapen_AOT/AOT_stimuli/rescaled_final/1856_fw.mp4	0.0	264.95662212371826	
55	249.77889704704285	fix_post	2		12	53.0	2.5	/experiments/knapen_AOT/AOT_stimuli/rescaled_final/1856_fw.mp4	0.0	266.28050208091736	0.09984588623046875
56	249.87874293327332	fix_pre	0		120	54.0	2.5	/experiments/knapen_AOT/AOT_stimuli/rescaled_final/1503_fw.mp4	0.0	266.3803479671478	1.000190019607544
56	250.0550549030304	pulse	0	t		54.0	2.5	/experiments/knapen_AOT/AOT_stimuli/rescaled_final/1503_fw.mp4	0.0	266.5566599369049	
56	250.87893295288086	movie	1		243	54.0	2.5	/experiments/knapen_AOT/AOT_stimuli/rescaled_final/1503_fw.mp4	0.0	267.38053798675537	2.500378131866455
56	251.65416407585144	pulse	1	t		54.0	2.5	/experiments/knapen_AOT/AOT_stimuli/rescaled_final/1503_fw.mp4	0.0	268.15576910972595	
56	253.26245307922363	pulse	1	t		54.0	2.5	/experiments/knapen_AOT/AOT_stimuli/rescaled_final/1503_fw.mp4	0.0	269.76405811309814	
56	253.37931108474731	fix_post	2		12	54.0	2.5	/experiments/knapen_AOT/AOT_stimuli/rescaled_final/1503_fw.mp4	0.0	269.8809161186218	0.09999799728393555
57	253.47930908203125	fix_pre	0		119	55.0	2.5	/experiments/knapen_AOT/AOT_stimuli/rescaled_final/0666_fw.mp4	0.0	269.98091411590576	0.9917819499969482
57	254.4710910320282	movie	1		242	55.0	2.5	/experiments/knapen_AOT/AOT_stimuli/rescaled_final/0666_fw.mp4	0.0	270.9726960659027	2.5005149841308594
57	254.85538291931152	pulse	1	t		55.0	2.5	/experiments/knapen_AOT/AOT_stimuli/rescaled_final/0666_fw.mp4	0.0	271.35698795318604	
57	256.45503997802734	pulse	1	t		55.0	2.5	/experiments/knapen_AOT/AOT_stimuli/rescaled_final/0666_fw.mp4	0.0	272.95664501190186	
57	256.97160601615906	fix_post	2		12	55.0	2.5	/experiments/knapen_AOT/AOT_stimuli/rescaled_final/0666_fw.mp4	0.0	273.47321105003357	0.09986305236816406
58	257.0714690685272	fix_pre	0		119	56.0	2.5	blank	1.0	273.57307410240173	0.9918258190155029
58	258.0551509857178	pulse	0	t		56.0	2.5	blank	1.0	274.5567560195923	
58	258.0632948875427	movie	1		301	56.0	2.5	blank	1.0	274.56489992141724	2.508772134780884
58	259.65533208847046	pulse	1	t		56.0	2.5	blank	1.0	276.15693712234497	
58	260.5720670223236	fix_post	2		12	56.0	2.5	blank	1.0	277.0736720561981	0.1000070571899414
59	260.67207407951355	fix_pre	0		120	57.0	2.5	/experiments/knapen_AOT/AOT_stimuli/rescaled_final/1698_rv.mp4	0.0	277.17367911338806	1.0000889301300049
59	261.2556788921356	pulse	0	t		57.0	2.5	/experiments/knapen_AOT/AOT_stimuli/rescaled_final/1698_rv.mp4	0.0	277.75728392601013	
59	261.67216300964355	movie	1		243	57.0	2.5	/experiments/knapen_AOT/AOT_stimuli/rescaled_final/1698_rv.mp4	0.0	278.17376804351807	2.5003719329833984
59	262.85605001449585	pulse	1	t		57.0	2.5	/experiments/knapen_AOT/AOT_stimuli/rescaled_final/1698_rv.mp4	0.0	279.35765504837036	
59	264.17253494262695	fix_post	2		12	57.0	2.5	/experiments/knapen_AOT/AOT_stimuli/rescaled_final/1698_rv.mp4	0.0	280.67413997650146	0.10004305839538574
60	264.27257800102234	fix_pre	0		120	58.0	2.5	/experiments/knapen_AOT/AOT_stimuli/rescaled_final/1229_fw.mp4	0.0	280.77418303489685	1.000148057937622
60	264.45620799064636	pulse	0	t		58.0	2.5	/experiments/knapen_AOT/AOT_stimuli/rescaled_final/1229_fw.mp4	0.0	280.9578130245209	
60	265.27272605895996	movie	1		243	58.0	2.5	/experiments/knapen_AOT/AOT_stimuli/rescaled_final/1229_fw.mp4	0.0	281.7743310928345	2.500473976135254
60	266.0563340187073	pulse	1	t		58.0	2.5	/experiments/knapen_AOT/AOT_stimuli/rescaled_final/1229_fw.mp4	0.0	282.5579390525818	
60	267.6568970680237	pulse	1	t		58.0	2.5	/experiments/knapen_AOT/AOT_stimuli/rescaled_final/1229_fw.mp4	0.0	284.1585021018982	
60	267.7732000350952	fix_post	2		12	58.0	2.5	/experiments/knapen_AOT/AOT_stimuli/rescaled_final/1229_fw.mp4	0.0	284.2748050689697	0.09997892379760742
61	267.8731789588928	fix_pre	0		119	59.0	2.5	/experiments/knapen_AOT/AOT_stimuli/rescaled_final/0262_fw.mp4	0.0	284.37478399276733	0.991765022277832
61	268.86494398117065	movie	1		245	59.0	2.5	/experiments/knapen_AOT/AOT_stimuli/rescaled_final/0262_fw.mp4	0.0	285.36654901504517	2.5003600120544434
61	269.2569019794464	pulse	1	t		59.0	2.5	/experiments/knapen_AOT/AOT_stimuli/rescaled_final/0262_fw.mp4	0.0	285.7585070133209	
61	270.857204914093	pulse	1	t		59.0	2.5	/experiments/knapen_AOT/AOT_stimuli/rescaled_final/0262_fw.mp4	0.0	287.35880994796753	
61	271.3653039932251	fix_post	2		12	59.0	2.5	/experiments/knapen_AOT/AOT_stimuli/rescaled_final/0262_fw.mp4	0.0	287.8669090270996	0.0999760627746582
62	271.46528005599976	fix_pre	0		120	60.0	2.5	/experiments/knapen_AOT/AOT_stimuli/rescaled_final/0596_fw.mp4	0.0	287.96688508987427	1.0001718997955322
62	272.4572958946228	pulse	0	t		60.0	2.5	/experiments/knapen_AOT/AOT_stimuli/rescaled_final/0596_fw.mp4	0.0	288.9589009284973	
62	272.4654519557953	movie	1		244	60.0	2.5	/experiments/knapen_AOT/AOT_stimuli/rescaled_final/0596_fw.mp4	0.0	288.9670569896698	2.5087199211120605
62	274.058217048645	pulse	1	t		60.0	2.5	/experiments/knapen_AOT/AOT_stimuli/rescaled_final/0596_fw.mp4	0.0	290.55982208251953	
62	274.97417187690735	fix_post	2		12	60.0	2.5	/experiments/knapen_AOT/AOT_stimuli/rescaled_final/0596_fw.mp4	0.0	291.47577691078186	0.09998512268066406
63	275.074156999588	fix_pre	0		120	61.0	2.5	/experiments/knapen_AOT/AOT_stimuli/rescaled_final/1107_rv.mp4	0.0	291.5757620334625	1.00016188621521
63	275.6578049659729	pulse	0	t		61.0	2.5	/experiments/knapen_AOT/AOT_stimuli/rescaled_final/1107_rv.mp4	0.0	292.1594099998474	
63	276.0743188858032	movie	1		242	61.0	2.5	/experiments/knapen_AOT/AOT_stimuli/rescaled_final/1107_rv.mp4	0.0	292.57592391967773	2.5005550384521484
63	277.25816798210144	pulse	1	t		61.0	2.5	/experiments/knapen_AOT/AOT_stimuli/rescaled_final/1107_rv.mp4	0.0	293.75977301597595	
63	278.57487392425537	fix_post	2		12	61.0	2.5	/experiments/knapen_AOT/AOT_stimuli/rescaled_final/1107_rv.mp4	0.0	295.0764789581299	0.099884033203125
64	278.6747579574585	fix_pre	0		120	62.0	2.5	blank	1.0	295.176362991333	1.000133991241455
64	278.8583459854126	pulse	0	t		62.0	2.5	blank	1.0	295.3599510192871	
64	279.67489194869995	movie	1		300	62.0	2.5	blank	1.0	296.17649698257446	2.5003509521484375
64	280.4585690498352	pulse	1	t		62.0	2.5	blank	1.0	296.9601740837097	
64	282.058739900589	pulse	1	t		62.0	2.5	blank	1.0	298.5603449344635	
64	282.1752429008484	fix_post	2		10	62.0	2.5	blank	1.0	298.6768479347229	0.09998512268066406
65	282.27522802352905	fix_pre	0		120	63.0	2.5	/experiments/knapen_AOT/AOT_stimuli/rescaled_final/1064_fw.mp4	0.0	298.77683305740356	1.0001699924468994
65	283.27539801597595	movie	1		242	63.0	2.5	/experiments/knapen_AOT/AOT_stimuli/rescaled_final/1064_fw.mp4	0.0	299.77700304985046	2.49216890335083
65	283.6594099998474	pulse	1	t		63.0	2.5	/experiments/knapen_AOT/AOT_stimuli/rescaled_final/1064_fw.mp4	0.0	300.1610150337219	
65	285.2592830657959	pulse	1	t		63.0	2.5	/experiments/knapen_AOT/AOT_stimuli/rescaled_final/1064_fw.mp4	0.0	301.7608880996704	
65	285.7675669193268	fix_post	2		12	63.0	2.5	/experiments/knapen_AOT/AOT_stimuli/rescaled_final/1064_fw.mp4	0.0	302.2691719532013	0.09988617897033691
66	285.8674530982971	fix_pre	0		120	64.0	2.5	/experiments/knapen_AOT/AOT_stimuli/rescaled_final/1684_rv.mp4	0.0	302.36905813217163	1.0001649856567383
66	286.8594150543213	pulse	0	t		64.0	2.5	/experiments/knapen_AOT/AOT_stimuli/rescaled_final/1684_rv.mp4	0.0	303.3610200881958	
66	286.86761808395386	movie	1		244	64.0	2.5	/experiments/knapen_AOT/AOT_stimuli/rescaled_final/1684_rv.mp4	0.0	303.36922311782837	2.5086820125579834
66	288.4638788700104	pulse	1	t		64.0	2.5	/experiments/knapen_AOT/AOT_stimuli/rescaled_final/1684_rv.mp4	0.0	304.9654839038849	
66	289.37630009651184	fix_post	2		12	64.0	2.5	/experiments/knapen_AOT/AOT_stimuli/rescaled_final/1684_rv.mp4	0.0	305.87790513038635	0.10003185272216797
67	289.476331949234	fix_pre	0		120	65.0	2.5	/experiments/knapen_AOT/AOT_stimuli/rescaled_final/0752_rv.mp4	0.0	305.9779369831085	1.0001420974731445
67	290.0600039958954	pulse	0	t		65.0	2.5	/experiments/knapen_AOT/AOT_stimuli/rescaled_final/0752_rv.mp4	0.0	306.5616090297699	
67	290.47647404670715	movie	1		245	65.0	2.5	/experiments/knapen_AOT/AOT_stimuli/rescaled_final/0752_rv.mp4	0.0	306.97807908058167	2.500339984893799
67	291.6563940048218	pulse	1	t		65.0	2.5	/experiments/knapen_AOT/AOT_stimuli/rescaled_final/0752_rv.mp4	0.0	308.1579990386963	
67	292.97681403160095	fix_post	2		12	65.0	2.5	/experiments/knapen_AOT/AOT_stimuli/rescaled_final/0752_rv.mp4	0.0	309.47841906547546	0.10005998611450195
68	293.07687401771545	fix_pre	0		120	66.0	2.5	/experiments/knapen_AOT/AOT_stimuli/rescaled_final/0154_rv.mp4	0.0	309.57847905158997	1.0001590251922607
68	293.2603979110718	pulse	0	t		66.0	2.5	/experiments/knapen_AOT/AOT_stimuli/rescaled_final/0154_rv.mp4	0.0	309.7620029449463	
68	294.0770330429077	movie	1		244	66.0	2.5	/experiments/knapen_AOT/AOT_stimuli/rescaled_final/0154_rv.mp4	0.0	310.5786380767822	2.500365972518921
68	294.8606948852539	pulse	1	t		66.0	2.5	/experiments/knapen_AOT/AOT_stimuli/rescaled_final/0154_rv.mp4	0.0	311.3622999191284	
68	296.4609990119934	pulse	1	t		66.0	2.5	/experiments/knapen_AOT/AOT_stimuli/rescaled_final/0154_rv.mp4	0.0	312.9626040458679	
68	296.57739901542664	fix_post	2		12	66.0	2.5	/experiments/knapen_AOT/AOT_stimuli/rescaled_final/0154_rv.mp4	0.0	313.07900404930115	0.10010004043579102
69	296.6774990558624	fix_pre	0		120	67.0	2.5	/experiments/knapen_AOT/AOT_stimuli/rescaled_final/0870_rv.mp4	0.0	313.17910408973694	1.000079870223999
69	297.6775789260864	movie	1		241	67.0	2.5	/experiments/knapen_AOT/AOT_stimuli/rescaled_final/0870_rv.mp4	0.0	314.17918395996094	2.4920830726623535
69	298.06248688697815	pulse	1	t		67.0	2.5	/experiments/knapen_AOT/AOT_stimuli/rescaled_final/0870_rv.mp4	0.0	314.56409192085266	
69	299.66139101982117	pulse	1	t		67.0	2.5	/experiments/knapen_AOT/AOT_stimuli/rescaled_final/0870_rv.mp4	0.0	316.1629960536957	
69	300.1696619987488	fix_post	2		12	67.0	2.5	/experiments/knapen_AOT/AOT_stimuli/rescaled_final/0870_rv.mp4	0.0	316.6712670326233	0.09991693496704102
70	300.2695789337158	fix_pre	0		120	68.0	2.5	/experiments/knapen_AOT/AOT_stimuli/rescaled_final/1358_fw.mp4	0.0	316.77118396759033	1.0002379417419434
70	301.261687040329	pulse	0	t		68.0	2.5	/experiments/knapen_AOT/AOT_stimuli/rescaled_final/1358_fw.mp4	0.0	317.7632920742035	
70	301.26981687545776	movie	1		243	68.0	2.5	/experiments/knapen_AOT/AOT_stimuli/rescaled_final/1358_fw.mp4	0.0	317.7714219093323	2.508635997772217
70	302.8624019622803	pulse	1	t		68.0	2.5	/experiments/knapen_AOT/AOT_stimuli/rescaled_final/1358_fw.mp4	0.0	319.3640069961548	
70	303.77845287323	fix_post	2		12	68.0	2.5	/experiments/knapen_AOT/AOT_stimuli/rescaled_final/1358_fw.mp4	0.0	320.2800579071045	0.10006904602050781
71	303.8785219192505	fix_pre	0		120	69.0	2.5	blank	1.0	320.380126953125	1.0000941753387451
71	304.4546489715576	pulse	0	t		69.0	2.5	blank	1.0	320.95625400543213	
71	304.87861609458923	movie	1		300	69.0	2.5	blank	1.0	321.38022112846375	2.5003888607025146
71	306.0549318790436	pulse	1	t		69.0	2.5	blank	1.0	322.5565369129181	
71	307.37900495529175	fix_post	2		12	69.0	2.5	blank	1.0	323.88060998916626	0.10004997253417969
72	307.4790549278259	fix_pre	0		120	70.0	2.5	/experiments/knapen_AOT/AOT_stimuli/rescaled_final/1240_rv.mp4	0.0	323.98065996170044	1.0001170635223389
72	307.65508699417114	pulse	0	t		70.0	2.5	/experiments/knapen_AOT/AOT_stimuli/rescaled_final/1240_rv.mp4	0.0	324.15669202804565	
72	308.47917199134827	movie	1		243	70.0	2.5	/experiments/knapen_AOT/AOT_stimuli/rescaled_final/1240_rv.mp4	0.0	324.9807770252228	2.5005009174346924
72	309.2545120716095	pulse	1	t		70.0	2.5	/experiments/knapen_AOT/AOT_stimuli/rescaled_final/1240_rv.mp4	0.0	325.756117105484	
72	310.8546929359436	pulse	1	t		70.0	2.5	/experiments/knapen_AOT/AOT_stimuli/rescaled_final/1240_rv.mp4	0.0	327.3562979698181	
72	310.97967290878296	fix_post	2		12	70.0	2.5	/experiments/knapen_AOT/AOT_stimuli/rescaled_final/1240_rv.mp4	0.0	327.48127794265747	0.09990715980529785
73	311.07958006858826	fix_pre	0		120	71.0	2.5	/experiments/knapen_AOT/AOT_stimuli/rescaled_final/0324_rv.mp4	0.0	327.58118510246277	1.0001168251037598
73	312.079696893692	movie	1		241	71.0	2.5	/experiments/knapen_AOT/AOT_stimuli/rescaled_final/0324_rv.mp4	0.0	328.5813019275665	2.4921371936798096
73	312.45492696762085	pulse	1	t		71.0	2.5	/experiments/knapen_AOT/AOT_stimuli/rescaled_final/0324_rv.mp4	0.0	328.95653200149536	
73	314.05531907081604	pulse	1	t		71.0	2.5	/experiments/knapen_AOT/AOT_stimuli/rescaled_final/0324_rv.mp4	0.0	330.55692410469055	
73	314.5718340873718	fix_post	2		12	71.0	2.5	/experiments/knapen_AOT/AOT_stimuli/rescaled_final/0324_rv.mp4	0.0	331.07343912124634	0.09995293617248535
74	314.6717870235443	fix_pre	0		119	72.0	2.5	/experiments/knapen_AOT/AOT_stimuli/rescaled_final/1854_fw.mp4	0.0	331.1733920574188	0.9918770790100098
74	315.65534591674805	pulse	0	t		72.0	2.5	/experiments/knapen_AOT/AOT_stimuli/rescaled_final/1854_fw.mp4	0.0	332.15695095062256	
74	315.6636641025543	movie	1		243	72.0	2.5	/experiments/knapen_AOT/AOT_stimuli/rescaled_final/1854_fw.mp4	0.0	332.16526913642883	2.508575916290283
74	317.2564260959625	pulse	1	t		72.0	2.5	/experiments/knapen_AOT/AOT_stimuli/rescaled_final/1854_fw.mp4	0.0	333.75803112983704	
74	318.1722400188446	fix_post	2		12	72.0	2.5	/experiments/knapen_AOT/AOT_stimuli/rescaled_final/1854_fw.mp4	0.0	334.6738450527191	0.1000208854675293
75	318.27226090431213	fix_pre	0		120	73.0	2.5	/experiments/knapen_AOT/AOT_stimuli/rescaled_final/2145_rv.mp4	0.0	334.77386593818665	1.0001871585845947
75	318.8559238910675	pulse	0	t		73.0	2.5	/experiments/knapen_AOT/AOT_stimuli/rescaled_final/2145_rv.mp4	0.0	335.357528924942	
75	319.27244806289673	movie	1		243	73.0	2.5	/experiments/knapen_AOT/AOT_stimuli/rescaled_final/2145_rv.mp4	0.0	335.77405309677124	2.500351905822754
75	320.4561948776245	pulse	1	t		73.0	2.5	/experiments/knapen_AOT/AOT_stimuli/rescaled_final/2145_rv.mp4	0.0	336.957799911499	
75	321.7727999687195	fix_post	2		12	73.0	2.5	/experiments/knapen_AOT/AOT_stimuli/rescaled_final/2145_rv.mp4	0.0	338.274405002594	0.10004806518554688
76	321.87284803390503	fix_pre	0		120	74.0	2.5	/experiments/knapen_AOT/AOT_stimuli/rescaled_final/0425_rv.mp4	0.0	338.37445306777954	1.00010085105896
76	322.05637788772583	pulse	0	t		74.0	2.5	/experiments/knapen_AOT/AOT_stimuli/rescaled_final/0425_rv.mp4	0.0	338.55798292160034	
76	322.872948884964	movie	1		243	74.0	2.5	/experiments/knapen_AOT/AOT_stimuli/rescaled_final/0425_rv.mp4	0.0	339.3745539188385	2.5004520416259766
76	323.65658593177795	pulse	1	t		74.0	2.5	/experiments/knapen_AOT/AOT_stimuli/rescaled_final/0425_rv.mp4	0.0	340.15819096565247	
76	325.256737947464	pulse	1	t		74.0	2.5	/experiments/knapen_AOT/AOT_stimuli/rescaled_final/0425_rv.mp4	0.0	341.7583429813385	
76	325.37340092658997	fix_post	2		12	74.0	2.5	/experiments/knapen_AOT/AOT_stimuli/rescaled_final/0425_rv.mp4	0.0	341.8750059604645	0.09996414184570312
77	325.47336506843567	fix_pre	0		119	75.0	2.5	/experiments/knapen_AOT/AOT_stimuli/rescaled_final/1796_rv.mp4	0.0	341.9749701023102	0.9917879104614258
77	326.4651529788971	movie	1		244	75.0	2.5	/experiments/knapen_AOT/AOT_stimuli/rescaled_final/1796_rv.mp4	0.0	342.9667580127716	2.5004401206970215
77	326.8571090698242	pulse	1	t		75.0	2.5	/experiments/knapen_AOT/AOT_stimuli/rescaled_final/1796_rv.mp4	0.0	343.35871410369873	
77	328.45730209350586	pulse	1	t		75.0	2.5	/experiments/knapen_AOT/AOT_stimuli/rescaled_final/1796_rv.mp4	0.0	344.95890712738037	
77	328.9655930995941	fix_post	2		12	75.0	2.5	/experiments/knapen_AOT/AOT_stimuli/rescaled_final/1796_rv.mp4	0.0	345.4671981334686	0.1000509262084961
78	329.0656440258026	fix_pre	0		120	76.0	2.5	/experiments/knapen_AOT/AOT_stimuli/rescaled_final/2145_fw.mp4	0.0	345.5672490596771	1.0001568794250488
78	330.05760192871094	pulse	0	t		76.0	2.5	/experiments/knapen_AOT/AOT_stimuli/rescaled_final/2145_fw.mp4	0.0	346.55920696258545	
78	330.06580090522766	movie	1		244	76.0	2.5	/experiments/knapen_AOT/AOT_stimuli/rescaled_final/2145_fw.mp4	0.0	346.5674059391022	2.508610963821411
78	331.66167092323303	pulse	1	t		76.0	2.5	/experiments/knapen_AOT/AOT_stimuli/rescaled_final/2145_fw.mp4	0.0	348.16327595710754	
78	332.5744118690491	fix_post	2		12	76.0	2.5	/experiments/knapen_AOT/AOT_stimuli/rescaled_final/2145_fw.mp4	0.0	349.0760169029236	0.1000831127166748
79	332.67449498176575	fix_pre	0		120	77.0	2.5	blank	1.0	349.17610001564026	1.0000970363616943
79	333.2581639289856	pulse	0	t		77.0	2.5	blank	1.0	349.7597689628601	
79	333.67459201812744	movie	1		300	77.0	2.5	blank	1.0	350.17619705200195	2.5004119873046875
79	334.8582909107208	pulse	1	t		77.0	2.5	blank	1.0	351.35989594459534	
79	336.17500400543213	fix_post	2		12	77.0	2.5	blank	1.0	352.67660903930664	0.09997892379760742
80	336.27498292922974	fix_pre	0		120	78.0	2.5	/experiments/knapen_AOT/AOT_stimuli/rescaled_final/0552_rv.mp4	0.0	352.77658796310425	1.0001189708709717
80	336.45852303504944	pulse	0	t		78.0	2.5	/experiments/knapen_AOT/AOT_stimuli/rescaled_final/0552_rv.mp4	0.0	352.96012806892395	
80	337.2751019001007	movie	1		243	78.0	2.5	/experiments/knapen_AOT/AOT_stimuli/rescaled_final/0552_rv.mp4	0.0	353.7767069339752	2.500549077987671
80	338.0589020252228	pulse	1	t		78.0	2.5	/experiments/knapen_AOT/AOT_stimuli/rescaled_final/0552_rv.mp4	0.0	354.5605070590973	
80	339.65899300575256	pulse	1	t		78.0	2.5	/experiments/knapen_AOT/AOT_stimuli/rescaled_final/0552_rv.mp4	0.0	356.1605980396271	
80	339.7756509780884	fix_post	2		12	78.0	2.5	/experiments/knapen_AOT/AOT_stimuli/rescaled_final/0552_rv.mp4	0.0	356.2772560119629	0.09989404678344727
81	339.8755450248718	fix_pre	0		120	79.0	2.5	/experiments/knapen_AOT/AOT_stimuli/rescaled_final/0893_fw.mp4	0.0	356.37715005874634	1.0001020431518555
81	340.8756470680237	movie	1		241	79.0	2.5	/experiments/knapen_AOT/AOT_stimuli/rescaled_final/0893_fw.mp4	0.0	357.3772521018982	2.492115020751953
81	341.25985193252563	pulse	1	t		79.0	2.5	/experiments/knapen_AOT/AOT_stimuli/rescaled_final/0893_fw.mp4	0.0	357.76145696640015	
81	342.8594238758087	pulse	1	t		79.0	2.5	/experiments/knapen_AOT/AOT_stimuli/rescaled_final/0893_fw.mp4	0.0	359.3610289096832	
81	343.36776208877563	fix_post	2		12	79.0	2.5	/experiments/knapen_AOT/AOT_stimuli/rescaled_final/0893_fw.mp4	0.0	359.86936712265015	0.09997677803039551
82	343.46773886680603	fix_pre	0		116	80.0	2.5	/experiments/knapen_AOT/AOT_stimuli/rescaled_final/1113_rv.mp4	0.0	359.96934390068054	1.0001120567321777
82	344.45978808403015	pulse	0	t		80.0	2.5	/experiments/knapen_AOT/AOT_stimuli/rescaled_final/1113_rv.mp4	0.0	360.96139311790466	
82	344.4678509235382	movie	1		243	80.0	2.5	/experiments/knapen_AOT/AOT_stimuli/rescaled_final/1113_rv.mp4	0.0	360.9694559574127	2.508716106414795
82	346.0603859424591	pulse	1	t		80.0	2.5	/experiments/knapen_AOT/AOT_stimuli/rescaled_final/1113_rv.mp4	0.0	362.5619909763336	
82	346.976567029953	fix_post	2		12	80.0	2.5	/experiments/knapen_AOT/AOT_stimuli/rescaled_final/1113_rv.mp4	0.0	363.4781720638275	0.10006594657897949
83	347.076632976532	fix_pre	0		120	81.0	2.5	/experiments/knapen_AOT/AOT_stimuli/rescaled_final/1044_fw.mp4	0.0	363.5782380104065	1.000201940536499
83	347.660208940506	pulse	0	t		81.0	2.5	/experiments/knapen_AOT/AOT_stimuli/rescaled_final/1044_fw.mp4	0.0	364.1618139743805	
83	348.0768349170685	movie	1		243	81.0	2.5	/experiments/knapen_AOT/AOT_stimuli/rescaled_final/1044_fw.mp4	0.0	364.578439950943	2.5003600120544434
83	349.26046895980835	pulse	1	t		81.0	2.5	/experiments/knapen_AOT/AOT_stimuli/rescaled_final/1044_fw.mp4	0.0	365.76207399368286	
83	350.5771949291229	fix_post	2		12	81.0	2.5	/experiments/knapen_AOT/AOT_stimuli/rescaled_final/1044_fw.mp4	0.0	367.07879996299744	0.09992313385009766
84	350.677118062973	fix_pre	0		120	82.0	2.5	blank	1.0	367.17872309684753	1.0001578330993652
84	350.8607919216156	pulse	0	t		82.0	2.5	blank	1.0	367.3623969554901	
84	351.6772758960724	movie	1		300	82.0	2.5	blank	1.0	368.1788809299469	2.5003511905670166
84	352.46100902557373	pulse	1	t		82.0	2.5	blank	1.0	368.96261405944824	
84	354.0612828731537	pulse	1	t		82.0	2.5	blank	1.0	370.5628879070282	
84	354.1776270866394	fix_post	2		12	82.0	2.5	blank	1.0	370.6792321205139	0.10018587112426758
85	354.2778129577637	fix_pre	0		120	83.0	2.5	/experiments/knapen_AOT/AOT_stimuli/rescaled_final/0414_rv.mp4	0.0	370.7794179916382	1.000011920928955
85	355.2778248786926	movie	1		241	83.0	2.5	/experiments/knapen_AOT/AOT_stimuli/rescaled_final/0414_rv.mp4	0.0	371.77942991256714	2.492248058319092
85	355.6626489162445	pulse	1	t		83.0	2.5	/experiments/knapen_AOT/AOT_stimuli/rescaled_final/0414_rv.mp4	0.0	372.164253950119	
85	357.2544310092926	pulse	1	t		83.0	2.5	/experiments/knapen_AOT/AOT_stimuli/rescaled_final/0414_rv.mp4	0.0	373.7560360431671	
85	357.7700729370117	fix_post	2		12	83.0	2.5	/experiments/knapen_AOT/AOT_stimuli/rescaled_final/0414_rv.mp4	0.0	374.27167797088623	0.09982895851135254
87	357.86990189552307	stim	0		1716					374.3715069293976	14.302179098129272
87	358.85443806648254	pulse	0	t						375.35604310035706	
87	360.45478200912476	pulse	0	t						376.95638704299927	
87	362.05406498908997	pulse	0	t						378.5556700229645	
87	363.6542298793793	pulse	0	t						380.1558349132538	
87	365.25434589385986	pulse	0	t						381.7559509277344	
87	366.85475397109985	pulse	0	t						383.35635900497437	
87	368.4549820423126	pulse	0	t						384.95658707618713	
87	370.05518794059753	pulse	0	t						386.55679297447205	
87	371.6553409099579	pulse	0	t						388.1569459438324	
