trial_nr	onset	event_type	phase	response	nr_frames	movie_index	movie_duration	movie_file	blank	onset_abs	duration
0	0.20814800262451172	stim	0		5					17.83595299720764	0.04167890548706055
0	0.24190497398376465	response	0	space						17.869709968566895	
1	0.24982690811157227	stim	0		4666					17.877631902694702	38.89877200126648
1	39.13904094696045	pulse	0	t						56.76684594154358	
1	39.14859890937805	stim	1		1715					56.77640390396118	14.300812005996704
1	40.731017112731934	pulse	1	t						58.35882210731506	
1	42.33137392997742	pulse	1	t						59.95917892456055	
1	43.93154311180115	pulse	1	t						61.55934810638428	
1	45.53176188468933	pulse	1	t						63.15956687927246	
1	47.13203811645508	pulse	1	t						64.75984311103821	
1	48.732136964797974	pulse	1	t						66.3599419593811	
1	50.332480907440186	pulse	1	t						67.96028590202332	
1	51.93266797065735	pulse	1	t						69.56047296524048	
2	53.449410915374756	fix_pre	0		11	0.0	2.5	/experiments/knapen_AOT/AOT_stimuli/rescaled_final/1915_fw.mp4	0.0	71.07721590995789	0.09169316291809082
2	53.53294396400452	pulse	0	t		0.0	2.5	/experiments/knapen_AOT/AOT_stimuli/rescaled_final/1915_fw.mp4	0.0	71.16074895858765	
2	53.54110407829285	movie	1		241	0.0	2.5	/experiments/knapen_AOT/AOT_stimuli/rescaled_final/1915_fw.mp4	0.0	71.16890907287598	2.508760929107666
2	55.13368010520935	pulse	1	t		0.0	2.5	/experiments/knapen_AOT/AOT_stimuli/rescaled_final/1915_fw.mp4	0.0	72.76148509979248	
2	56.04986500740051	fix_post	2		12	0.0	2.5	/experiments/knapen_AOT/AOT_stimuli/rescaled_final/1915_fw.mp4	0.0	73.67767000198364	0.09996604919433594
3	56.14983105659485	fix_pre	0		120	1.0	2.5	/experiments/knapen_AOT/AOT_stimuli/rescaled_final/0534_fw.mp4	0.0	73.77763605117798	1.0001208782196045
3	56.7335090637207	pulse	0	t		1.0	2.5	/experiments/knapen_AOT/AOT_stimuli/rescaled_final/0534_fw.mp4	0.0	74.36131405830383	
3	57.14995193481445	movie	1		244	1.0	2.5	/experiments/knapen_AOT/AOT_stimuli/rescaled_final/0534_fw.mp4	0.0	74.77775692939758	2.5004191398620605
3	58.33384108543396	pulse	1	t		1.0	2.5	/experiments/knapen_AOT/AOT_stimuli/rescaled_final/0534_fw.mp4	0.0	75.96164608001709	
3	59.650371074676514	fix_post	2		12	1.0	2.5	/experiments/knapen_AOT/AOT_stimuli/rescaled_final/0534_fw.mp4	0.0	77.27817606925964	0.09995484352111816
4	59.75032591819763	fix_pre	0		120	2.0	2.5	/experiments/knapen_AOT/AOT_stimuli/rescaled_final/2161_rv.mp4	0.0	77.37813091278076	1.0001931190490723
4	59.93395495414734	pulse	0	t		2.0	2.5	/experiments/knapen_AOT/AOT_stimuli/rescaled_final/2161_rv.mp4	0.0	77.56175994873047	
4	60.750519037246704	movie	1		243	2.0	2.5	/experiments/knapen_AOT/AOT_stimuli/rescaled_final/2161_rv.mp4	0.0	78.37832403182983	2.50034499168396
4	61.534132957458496	pulse	1	t		2.0	2.5	/experiments/knapen_AOT/AOT_stimuli/rescaled_final/2161_rv.mp4	0.0	79.16193795204163	
4	63.13437604904175	pulse	1	t		2.0	2.5	/experiments/knapen_AOT/AOT_stimuli/rescaled_final/2161_rv.mp4	0.0	80.76218104362488	
4	63.250864028930664	fix_post	2		12	2.0	2.5	/experiments/knapen_AOT/AOT_stimuli/rescaled_final/2161_rv.mp4	0.0	80.8786690235138	0.10001802444458008
5	63.350882053375244	fix_pre	0		120	3.0	2.5	/experiments/knapen_AOT/AOT_stimuli/rescaled_final/0358_rv.mp4	0.0	80.97868704795837	1.0001530647277832
5	64.35103511810303	movie	1		242	3.0	2.5	/experiments/knapen_AOT/AOT_stimuli/rescaled_final/0358_rv.mp4	0.0	81.97884011268616	2.492133855819702
5	64.73505592346191	pulse	1	t		3.0	2.5	/experiments/knapen_AOT/AOT_stimuli/rescaled_final/0358_rv.mp4	0.0	82.36286091804504	
5	66.33482193946838	pulse	1	t		3.0	2.5	/experiments/knapen_AOT/AOT_stimuli/rescaled_final/0358_rv.mp4	0.0	83.96262693405151	
5	66.84316897392273	fix_post	2		12	3.0	2.5	/experiments/knapen_AOT/AOT_stimuli/rescaled_final/0358_rv.mp4	0.0	84.47097396850586	0.09992313385009766
6	66.94309210777283	fix_pre	0		120	4.0	2.5	/experiments/knapen_AOT/AOT_stimuli/rescaled_final/0037_fw.mp4	0.0	84.57089710235596	1.000182867050171
6	67.93510007858276	pulse	0	t		4.0	2.5	/experiments/knapen_AOT/AOT_stimuli/rescaled_final/0037_fw.mp4	0.0	85.5629050731659	
6	67.943274974823	movie	1		246	4.0	2.5	/experiments/knapen_AOT/AOT_stimuli/rescaled_final/0037_fw.mp4	0.0	85.57107996940613	2.5086569786071777
6	69.53582406044006	pulse	1	t		4.0	2.5	/experiments/knapen_AOT/AOT_stimuli/rescaled_final/0037_fw.mp4	0.0	87.1636290550232	
6	70.45193195343018	fix_post	2		12	4.0	2.5	/experiments/knapen_AOT/AOT_stimuli/rescaled_final/0037_fw.mp4	0.0	88.0797369480133	0.10005402565002441
7	70.5519859790802	fix_pre	0		120	5.0	2.5	/experiments/knapen_AOT/AOT_stimuli/rescaled_final/0961_fw.mp4	0.0	88.17979097366333	1.0001580715179443
7	71.1356840133667	pulse	0	t		5.0	2.5	/experiments/knapen_AOT/AOT_stimuli/rescaled_final/0961_fw.mp4	0.0	88.76348900794983	
7	71.55214405059814	movie	1		242	5.0	2.5	/experiments/knapen_AOT/AOT_stimuli/rescaled_final/0961_fw.mp4	0.0	89.17994904518127	2.500540018081665
7	72.7359631061554	pulse	1	t		5.0	2.5	/experiments/knapen_AOT/AOT_stimuli/rescaled_final/0961_fw.mp4	0.0	90.36376810073853	
7	74.05268406867981	fix_post	2		12	5.0	2.5	/experiments/knapen_AOT/AOT_stimuli/rescaled_final/0961_fw.mp4	0.0	91.68048906326294	0.09982800483703613
8	74.15251207351685	fix_pre	0		120	6.0	2.5	/experiments/knapen_AOT/AOT_stimuli/rescaled_final/0713_fw.mp4	0.0	91.78031706809998	1.0001490116119385
8	74.32871389389038	pulse	0	t		6.0	2.5	/experiments/knapen_AOT/AOT_stimuli/rescaled_final/0713_fw.mp4	0.0	91.95651888847351	
8	75.15266108512878	movie	1		244	6.0	2.5	/experiments/knapen_AOT/AOT_stimuli/rescaled_final/0713_fw.mp4	0.0	92.78046607971191	2.500356912612915
8	75.92887210845947	pulse	1	t		6.0	2.5	/experiments/knapen_AOT/AOT_stimuli/rescaled_final/0713_fw.mp4	0.0	93.5566771030426	
8	77.53676295280457	pulse	1	t		6.0	2.5	/experiments/knapen_AOT/AOT_stimuli/rescaled_final/0713_fw.mp4	0.0	95.1645679473877	
8	77.6530179977417	fix_post	2		12	6.0	2.5	/experiments/knapen_AOT/AOT_stimuli/rescaled_final/0713_fw.mp4	0.0	95.28082299232483	0.09999895095825195
9	77.75301694869995	fix_pre	0		120	7.0	2.5	blank	1.0	95.38082194328308	1.0001420974731445
9	78.7531590461731	movie	1		299	7.0	2.5	blank	1.0	96.38096404075623	2.492116928100586
9	79.12928104400635	pulse	1	t		7.0	2.5	blank	1.0	96.75708603858948	
9	80.72946691513062	pulse	1	t		7.0	2.5	blank	1.0	98.35727190971375	
9	81.24527597427368	fix_post	2		12	7.0	2.5	blank	1.0	98.87308096885681	0.09993600845336914
10	81.34521198272705	fix_pre	0		119	8.0	2.5	/experiments/knapen_AOT/AOT_stimuli/rescaled_final/1438_fw.mp4	0.0	98.97301697731018	0.9918451309204102
10	82.32896995544434	pulse	0	t		8.0	2.5	/experiments/knapen_AOT/AOT_stimuli/rescaled_final/1438_fw.mp4	0.0	99.95677495002747	
10	82.33705711364746	movie	1		244	8.0	2.5	/experiments/knapen_AOT/AOT_stimuli/rescaled_final/1438_fw.mp4	0.0	99.96486210823059	2.508772850036621
10	83.9296190738678	pulse	1	t		8.0	2.5	/experiments/knapen_AOT/AOT_stimuli/rescaled_final/1438_fw.mp4	0.0	101.55742406845093	
10	84.84582996368408	fix_post	2		12	8.0	2.5	/experiments/knapen_AOT/AOT_stimuli/rescaled_final/1438_fw.mp4	0.0	102.47363495826721	0.09998297691345215
11	84.94581294059753	fix_pre	0		120	9.0	2.5	/experiments/knapen_AOT/AOT_stimuli/rescaled_final/1429_rv.mp4	0.0	102.57361793518066	1.0001220703125
11	85.52934002876282	pulse	0	t		9.0	2.5	/experiments/knapen_AOT/AOT_stimuli/rescaled_final/1429_rv.mp4	0.0	103.15714502334595	
11	85.94593501091003	movie	1		239	9.0	2.5	/experiments/knapen_AOT/AOT_stimuli/rescaled_final/1429_rv.mp4	0.0	103.57374000549316	2.5004889965057373
11	87.12977600097656	pulse	1	t		9.0	2.5	/experiments/knapen_AOT/AOT_stimuli/rescaled_final/1429_rv.mp4	0.0	104.75758099555969	
11	88.44642400741577	fix_post	2		12	9.0	2.5	/experiments/knapen_AOT/AOT_stimuli/rescaled_final/1429_rv.mp4	0.0	106.0742290019989	0.09994792938232422
12	88.5463719367981	fix_pre	0		120	10.0	2.5	/experiments/knapen_AOT/AOT_stimuli/rescaled_final/1878_rv.mp4	0.0	106.17417693138123	1.0001039505004883
12	88.72989296913147	pulse	0	t		10.0	2.5	/experiments/knapen_AOT/AOT_stimuli/rescaled_final/1878_rv.mp4	0.0	106.3576979637146	
12	89.54647588729858	movie	1		243	10.0	2.5	/experiments/knapen_AOT/AOT_stimuli/rescaled_final/1878_rv.mp4	0.0	107.17428088188171	2.50045108795166
12	90.33013796806335	pulse	1	t		10.0	2.5	/experiments/knapen_AOT/AOT_stimuli/rescaled_final/1878_rv.mp4	0.0	107.95794296264648	
12	91.93030095100403	pulse	1	t		10.0	2.5	/experiments/knapen_AOT/AOT_stimuli/rescaled_final/1878_rv.mp4	0.0	109.55810594558716	
12	92.04692697525024	fix_post	2		12	10.0	2.5	/experiments/knapen_AOT/AOT_stimuli/rescaled_final/1878_rv.mp4	0.0	109.67473196983337	0.0999290943145752
13	92.14685606956482	fix_pre	0		120	11.0	2.5	/experiments/knapen_AOT/AOT_stimuli/rescaled_final/0920_rv.mp4	0.0	109.77466106414795	1.00016188621521
13	93.14701795578003	movie	1		241	11.0	2.5	/experiments/knapen_AOT/AOT_stimuli/rescaled_final/0920_rv.mp4	0.0	110.77482295036316	2.492192029953003
13	93.53122091293335	pulse	1	t		11.0	2.5	/experiments/knapen_AOT/AOT_stimuli/rescaled_final/0920_rv.mp4	0.0	111.15902590751648	
13	95.13089394569397	pulse	1	t		11.0	2.5	/experiments/knapen_AOT/AOT_stimuli/rescaled_final/0920_rv.mp4	0.0	112.7586989402771	
13	95.63920998573303	fix_post	2		12	11.0	2.5	/experiments/knapen_AOT/AOT_stimuli/rescaled_final/0920_rv.mp4	0.0	113.26701498031616	0.09987711906433105
14	95.73908710479736	fix_pre	0		120	12.0	2.5	/experiments/knapen_AOT/AOT_stimuli/rescaled_final/1448_fw.mp4	0.0	113.3668920993805	1.0001678466796875
14	96.73107290267944	pulse	0	t		12.0	2.5	/experiments/knapen_AOT/AOT_stimuli/rescaled_final/1448_fw.mp4	0.0	114.35887789726257	
14	96.73925495147705	movie	1		244	12.0	2.5	/experiments/knapen_AOT/AOT_stimuli/rescaled_final/1448_fw.mp4	0.0	114.36705994606018	2.508660078048706
14	98.33184289932251	pulse	1	t		12.0	2.5	/experiments/knapen_AOT/AOT_stimuli/rescaled_final/1448_fw.mp4	0.0	115.95964789390564	
14	99.24791502952576	fix_post	2		12	12.0	2.5	/experiments/knapen_AOT/AOT_stimuli/rescaled_final/1448_fw.mp4	0.0	116.87572002410889	0.10001802444458008
15	99.34793305397034	fix_pre	0		120	13.0	2.5	/experiments/knapen_AOT/AOT_stimuli/rescaled_final/2128_rv.mp4	0.0	116.97573804855347	1.000128984451294
15	99.93162989616394	pulse	0	t		13.0	2.5	/experiments/knapen_AOT/AOT_stimuli/rescaled_final/2128_rv.mp4	0.0	117.55943489074707	
15	100.34806203842163	movie	1		243	13.0	2.5	/experiments/knapen_AOT/AOT_stimuli/rescaled_final/2128_rv.mp4	0.0	117.97586703300476	2.500562906265259
15	101.53191494941711	pulse	1	t		13.0	2.5	/experiments/knapen_AOT/AOT_stimuli/rescaled_final/2128_rv.mp4	0.0	119.15971994400024	
15	102.84862494468689	fix_post	2		12	13.0	2.5	/experiments/knapen_AOT/AOT_stimuli/rescaled_final/2128_rv.mp4	0.0	120.47642993927002	0.09983396530151367
16	102.9484589099884	fix_pre	0		120	14.0	2.5	blank	1.0	120.57626390457153	1.000148057937622
16	103.13209509849548	pulse	0	t		14.0	2.5	blank	1.0	120.75990009307861	
16	103.94860696792603	movie	1		300	14.0	2.5	blank	1.0	121.57641196250916	2.500385046005249
16	104.73229598999023	pulse	1	t		14.0	2.5	blank	1.0	122.36010098457336	
16	106.33249497413635	pulse	1	t		14.0	2.5	blank	1.0	123.96029996871948	
16	106.44899201393127	fix_post	2		12	14.0	2.5	blank	1.0	124.0767970085144	0.10000896453857422
17	106.54900097846985	fix_pre	0		120	15.0	2.5	/experiments/knapen_AOT/AOT_stimuli/rescaled_final/1166_rv.mp4	0.0	124.17680597305298	1.0001680850982666
17	107.54916906356812	movie	1		242	15.0	2.5	/experiments/knapen_AOT/AOT_stimuli/rescaled_final/1166_rv.mp4	0.0	125.17697405815125	2.4921510219573975
17	107.93339109420776	pulse	1	t		15.0	2.5	/experiments/knapen_AOT/AOT_stimuli/rescaled_final/1166_rv.mp4	0.0	125.5611960887909	
17	109.53294897079468	pulse	1	t		15.0	2.5	/experiments/knapen_AOT/AOT_stimuli/rescaled_final/1166_rv.mp4	0.0	127.16075396537781	
17	110.04132008552551	fix_post	2		12	15.0	2.5	/experiments/knapen_AOT/AOT_stimuli/rescaled_final/1166_rv.mp4	0.0	127.66912508010864	0.09991288185119629
18	110.14123296737671	fix_pre	0		120	16.0	2.5	/experiments/knapen_AOT/AOT_stimuli/rescaled_final/1438_rv.mp4	0.0	127.76903796195984	1.0001139640808105
18	111.13323211669922	pulse	0	t		16.0	2.5	/experiments/knapen_AOT/AOT_stimuli/rescaled_final/1438_rv.mp4	0.0	128.76103711128235	
18	111.14134693145752	movie	1		244	16.0	2.5	/experiments/knapen_AOT/AOT_stimuli/rescaled_final/1438_rv.mp4	0.0	128.76915192604065	2.508769989013672
18	112.734050989151	pulse	1	t		16.0	2.5	/experiments/knapen_AOT/AOT_stimuli/rescaled_final/1438_rv.mp4	0.0	130.36185598373413	
18	113.65011692047119	fix_post	2		12	16.0	2.5	/experiments/knapen_AOT/AOT_stimuli/rescaled_final/1438_rv.mp4	0.0	131.27792191505432	0.09996414184570312
19	113.7500810623169	fix_pre	0		120	17.0	2.5	/experiments/knapen_AOT/AOT_stimuli/rescaled_final/1685_fw.mp4	0.0	131.37788605690002	1.0001318454742432
19	114.33375692367554	pulse	0	t		17.0	2.5	/experiments/knapen_AOT/AOT_stimuli/rescaled_final/1685_fw.mp4	0.0	131.96156191825867	
19	114.75021290779114	movie	1		242	17.0	2.5	/experiments/knapen_AOT/AOT_stimuli/rescaled_final/1685_fw.mp4	0.0	132.37801790237427	2.5005671977996826
19	115.93410611152649	pulse	1	t		17.0	2.5	/experiments/knapen_AOT/AOT_stimuli/rescaled_final/1685_fw.mp4	0.0	133.56191110610962	
19	117.25078010559082	fix_post	2		12	17.0	2.5	/experiments/knapen_AOT/AOT_stimuli/rescaled_final/1685_fw.mp4	0.0	134.87858510017395	0.09984683990478516
20	117.3506269454956	fix_pre	0		120	18.0	2.5	/experiments/knapen_AOT/AOT_stimuli/rescaled_final/1429_rv.mp4	0.0	134.97843194007874	1.000190019607544
20	117.53413891792297	pulse	0	t		18.0	2.5	/experiments/knapen_AOT/AOT_stimuli/rescaled_final/1429_rv.mp4	0.0	135.1619439125061	
20	118.35081696510315	movie	1		242	18.0	2.5	/experiments/knapen_AOT/AOT_stimuli/rescaled_final/1429_rv.mp4	0.0	135.97862195968628	2.5003271102905273
20	119.13444995880127	pulse	1	t		18.0	2.5	/experiments/knapen_AOT/AOT_stimuli/rescaled_final/1429_rv.mp4	0.0	136.7622549533844	
20	120.73453211784363	pulse	1	t		18.0	2.5	/experiments/knapen_AOT/AOT_stimuli/rescaled_final/1429_rv.mp4	0.0	138.36233711242676	
20	120.85114407539368	fix_post	2		12	18.0	2.5	/experiments/knapen_AOT/AOT_stimuli/rescaled_final/1429_rv.mp4	0.0	138.4789490699768	0.10001802444458008
21	120.95116209983826	fix_pre	0		120	19.0	2.5	blank	1.0	138.5789670944214	1.0001189708709717
21	121.95128107070923	movie	1		299	19.0	2.5	blank	1.0	139.57908606529236	2.4920828342437744
21	122.33493304252625	pulse	1	t		19.0	2.5	blank	1.0	139.96273803710938	
21	123.93513107299805	pulse	1	t		19.0	2.5	blank	1.0	141.56293606758118	
21	124.443363904953	fix_post	2		12	19.0	2.5	blank	1.0	142.07116889953613	0.10001707077026367
22	124.54338097572327	fix_pre	0		120	20.0	2.5	/experiments/knapen_AOT/AOT_stimuli/rescaled_final/1221_rv.mp4	0.0	142.1711859703064	1.0001509189605713
22	125.53536605834961	pulse	0	t		20.0	2.5	/experiments/knapen_AOT/AOT_stimuli/rescaled_final/1221_rv.mp4	0.0	143.16317105293274	
22	125.54353189468384	movie	1		243	20.0	2.5	/experiments/knapen_AOT/AOT_stimuli/rescaled_final/1221_rv.mp4	0.0	143.17133688926697	2.5087461471557617
22	127.14011311531067	pulse	1	t		20.0	2.5	/experiments/knapen_AOT/AOT_stimuli/rescaled_final/1221_rv.mp4	0.0	144.7679181098938	
22	128.0522780418396	fix_post	2		12	20.0	2.5	/experiments/knapen_AOT/AOT_stimuli/rescaled_final/1221_rv.mp4	0.0	145.68008303642273	0.1000220775604248
23	128.15230011940002	fix_pre	0		120	21.0	2.5	/experiments/knapen_AOT/AOT_stimuli/rescaled_final/1015_rv.mp4	0.0	145.78010511398315	1.0000619888305664
23	128.7283070087433	pulse	0	t		21.0	2.5	/experiments/knapen_AOT/AOT_stimuli/rescaled_final/1015_rv.mp4	0.0	146.35611200332642	
23	129.1523621082306	movie	1		243	21.0	2.5	/experiments/knapen_AOT/AOT_stimuli/rescaled_final/1015_rv.mp4	0.0	146.78016710281372	2.500610828399658
23	130.32909893989563	pulse	1	t		21.0	2.5	/experiments/knapen_AOT/AOT_stimuli/rescaled_final/1015_rv.mp4	0.0	147.95690393447876	
23	131.65297293663025	fix_post	2		12	21.0	2.5	/experiments/knapen_AOT/AOT_stimuli/rescaled_final/1015_rv.mp4	0.0	149.28077793121338	0.09982705116271973
24	131.75279998779297	fix_pre	0		120	22.0	2.5	/experiments/knapen_AOT/AOT_stimuli/rescaled_final/1728_fw.mp4	0.0	149.3806049823761	1.000135898590088
24	131.9288010597229	pulse	0	t		22.0	2.5	/experiments/knapen_AOT/AOT_stimuli/rescaled_final/1728_fw.mp4	0.0	149.55660605430603	
24	132.75293588638306	movie	1		242	22.0	2.5	/experiments/knapen_AOT/AOT_stimuli/rescaled_final/1728_fw.mp4	0.0	150.3807408809662	2.500587224960327
24	133.52904200553894	pulse	1	t		22.0	2.5	/experiments/knapen_AOT/AOT_stimuli/rescaled_final/1728_fw.mp4	0.0	151.15684700012207	
24	135.12859988212585	pulse	1	t		22.0	2.5	/experiments/knapen_AOT/AOT_stimuli/rescaled_final/1728_fw.mp4	0.0	152.75640487670898	
24	135.25352311134338	fix_post	2		12	22.0	2.5	/experiments/knapen_AOT/AOT_stimuli/rescaled_final/1728_fw.mp4	0.0	152.8813281059265	0.09979081153869629
25	135.35331392288208	fix_pre	0		120	23.0	2.5	/experiments/knapen_AOT/AOT_stimuli/rescaled_final/0745_rv.mp4	0.0	152.9811189174652	1.000169038772583
25	136.35348296165466	movie	1		243	23.0	2.5	/experiments/knapen_AOT/AOT_stimuli/rescaled_final/0745_rv.mp4	0.0	153.9812879562378	2.4919919967651367
25	136.72862792015076	pulse	1	t		23.0	2.5	/experiments/knapen_AOT/AOT_stimuli/rescaled_final/0745_rv.mp4	0.0	154.3564329147339	
25	138.32897901535034	pulse	1	t		23.0	2.5	/experiments/knapen_AOT/AOT_stimuli/rescaled_final/0745_rv.mp4	0.0	155.95678400993347	
25	138.8454749584198	fix_post	2		12	23.0	2.5	/experiments/knapen_AOT/AOT_stimuli/rescaled_final/0745_rv.mp4	0.0	156.47327995300293	0.10001707077026367
26	138.94549202919006	fix_pre	0		119	24.0	2.5	/experiments/knapen_AOT/AOT_stimuli/rescaled_final/0565_fw.mp4	0.0	156.5732970237732	0.991865873336792
26	139.92913007736206	pulse	0	t		24.0	2.5	/experiments/knapen_AOT/AOT_stimuli/rescaled_final/0565_fw.mp4	0.0	157.5569350719452	
26	139.93735790252686	movie	1		243	24.0	2.5	/experiments/knapen_AOT/AOT_stimuli/rescaled_final/0565_fw.mp4	0.0	157.56516289710999	2.508730173110962
26	141.53016901016235	pulse	1	t		24.0	2.5	/experiments/knapen_AOT/AOT_stimuli/rescaled_final/0565_fw.mp4	0.0	159.15797400474548	
26	142.44608807563782	fix_post	2		12	24.0	2.5	/experiments/knapen_AOT/AOT_stimuli/rescaled_final/0565_fw.mp4	0.0	160.07389307022095	0.0999598503112793
27	142.5460479259491	fix_pre	0		116	25.0	2.5	/experiments/knapen_AOT/AOT_stimuli/rescaled_final/0576_rv.mp4	0.0	160.17385292053223	1.0001561641693115
27	143.1296730041504	pulse	0	t		25.0	2.5	/experiments/knapen_AOT/AOT_stimuli/rescaled_final/0576_rv.mp4	0.0	160.75747799873352	
27	143.5462040901184	movie	1		244	25.0	2.5	/experiments/knapen_AOT/AOT_stimuli/rescaled_final/0576_rv.mp4	0.0	161.17400908470154	2.5003719329833984
27	144.72996401786804	pulse	1	t		25.0	2.5	/experiments/knapen_AOT/AOT_stimuli/rescaled_final/0576_rv.mp4	0.0	162.35776901245117	
27	146.0465760231018	fix_post	2		12	25.0	2.5	/experiments/knapen_AOT/AOT_stimuli/rescaled_final/0576_rv.mp4	0.0	163.67438101768494	0.10001301765441895
28	146.14658904075623	fix_pre	0		120	26.0	2.5	blank	1.0	163.77439403533936	1.0001189708709717
28	146.33010292053223	pulse	0	t		26.0	2.5	blank	1.0	163.95790791511536	
28	147.1467080116272	movie	1		300	26.0	2.5	blank	1.0	164.77451300621033	2.500396966934204
28	147.93045806884766	pulse	1	t		26.0	2.5	blank	1.0	165.5582630634308	
28	149.53064703941345	pulse	1	t		26.0	2.5	blank	1.0	167.15845203399658	
28	149.6471049785614	fix_post	2		12	26.0	2.5	blank	1.0	167.27490997314453	0.10001206398010254
29	149.7471170425415	fix_pre	0		120	27.0	2.5	/experiments/knapen_AOT/AOT_stimuli/rescaled_final/1974_rv.mp4	0.0	167.37492203712463	1.000187873840332
29	150.74730491638184	movie	1		241	27.0	2.5	/experiments/knapen_AOT/AOT_stimuli/rescaled_final/1974_rv.mp4	0.0	168.37510991096497	2.492151975631714
29	151.1315701007843	pulse	1	t		27.0	2.5	/experiments/knapen_AOT/AOT_stimuli/rescaled_final/1974_rv.mp4	0.0	168.75937509536743	
29	152.73108005523682	pulse	1	t		27.0	2.5	/experiments/knapen_AOT/AOT_stimuli/rescaled_final/1974_rv.mp4	0.0	170.35888504981995	
29	153.23945689201355	fix_post	2		12	27.0	2.5	/experiments/knapen_AOT/AOT_stimuli/rescaled_final/1974_rv.mp4	0.0	170.86726188659668	0.09986400604248047
30	153.33932089805603	fix_pre	0		120	28.0	2.5	/experiments/knapen_AOT/AOT_stimuli/rescaled_final/1933_fw.mp4	0.0	170.96712589263916	1.000162124633789
30	154.33141207695007	pulse	0	t		28.0	2.5	/experiments/knapen_AOT/AOT_stimuli/rescaled_final/1933_fw.mp4	0.0	171.9592170715332	
30	154.33948302268982	movie	1		244	28.0	2.5	/experiments/knapen_AOT/AOT_stimuli/rescaled_final/1933_fw.mp4	0.0	171.96728801727295	2.5087459087371826
30	155.93281507492065	pulse	1	t		28.0	2.5	/experiments/knapen_AOT/AOT_stimuli/rescaled_final/1933_fw.mp4	0.0	173.56062006950378	
30	156.848228931427	fix_post	2		12	28.0	2.5	/experiments/knapen_AOT/AOT_stimuli/rescaled_final/1933_fw.mp4	0.0	174.47603392601013	0.1000370979309082
31	156.9482660293579	fix_pre	0		120	29.0	2.5	/experiments/knapen_AOT/AOT_stimuli/rescaled_final/0301_rv.mp4	0.0	174.57607102394104	1.0000779628753662
31	157.53182792663574	pulse	0	t		29.0	2.5	/experiments/knapen_AOT/AOT_stimuli/rescaled_final/0301_rv.mp4	0.0	175.15963292121887	
31	157.94834399223328	movie	1		242	29.0	2.5	/experiments/knapen_AOT/AOT_stimuli/rescaled_final/0301_rv.mp4	0.0	175.5761489868164	2.5005760192871094
31	159.13216590881348	pulse	1	t		29.0	2.5	/experiments/knapen_AOT/AOT_stimuli/rescaled_final/0301_rv.mp4	0.0	176.7599709033966	
31	160.44892001152039	fix_post	2		12	29.0	2.5	/experiments/knapen_AOT/AOT_stimuli/rescaled_final/0301_rv.mp4	0.0	178.07672500610352	0.09986400604248047
32	160.54878401756287	fix_pre	0		120	30.0	2.5	/experiments/knapen_AOT/AOT_stimuli/rescaled_final/0991_rv.mp4	0.0	178.176589012146	1.0001049041748047
32	160.7323489189148	pulse	0	t		30.0	2.5	/experiments/knapen_AOT/AOT_stimuli/rescaled_final/0991_rv.mp4	0.0	178.36015391349792	
32	161.54888892173767	movie	1		243	30.0	2.5	/experiments/knapen_AOT/AOT_stimuli/rescaled_final/0991_rv.mp4	0.0	179.1766939163208	2.5003609657287598
32	162.33263111114502	pulse	1	t		30.0	2.5	/experiments/knapen_AOT/AOT_stimuli/rescaled_final/0991_rv.mp4	0.0	179.96043610572815	
32	163.9326798915863	pulse	1	t		30.0	2.5	/experiments/knapen_AOT/AOT_stimuli/rescaled_final/0991_rv.mp4	0.0	181.56048488616943	
32	164.04924988746643	fix_post	2		12	30.0	2.5	/experiments/knapen_AOT/AOT_stimuli/rescaled_final/0991_rv.mp4	0.0	181.67705488204956	0.100006103515625
33	164.14925599098206	fix_pre	0		120	31.0	2.5	/experiments/knapen_AOT/AOT_stimuli/rescaled_final/0493_rv.mp4	0.0	181.77706098556519	1.0001869201660156
33	165.14944291114807	movie	1		241	31.0	2.5	/experiments/knapen_AOT/AOT_stimuli/rescaled_final/0493_rv.mp4	0.0	182.7772479057312	2.4921810626983643
33	165.5376899242401	pulse	1	t		31.0	2.5	/experiments/knapen_AOT/AOT_stimuli/rescaled_final/0493_rv.mp4	0.0	183.16549491882324	
33	167.13325309753418	pulse	1	t		31.0	2.5	/experiments/knapen_AOT/AOT_stimuli/rescaled_final/0493_rv.mp4	0.0	184.7610580921173	
33	167.64162397384644	fix_post	2		12	31.0	2.5	/experiments/knapen_AOT/AOT_stimuli/rescaled_final/0493_rv.mp4	0.0	185.26942896842957	0.09990096092224121
34	167.74152493476868	fix_pre	0		120	32.0	2.5	/experiments/knapen_AOT/AOT_stimuli/rescaled_final/1548_rv.mp4	0.0	185.3693299293518	1.000128984451294
34	168.7335340976715	pulse	0	t		32.0	2.5	/experiments/knapen_AOT/AOT_stimuli/rescaled_final/1548_rv.mp4	0.0	186.36133909225464	
34	168.74165391921997	movie	1		244	32.0	2.5	/experiments/knapen_AOT/AOT_stimuli/rescaled_final/1548_rv.mp4	0.0	186.3694589138031	2.5087530612945557
34	170.33442997932434	pulse	1	t		32.0	2.5	/experiments/knapen_AOT/AOT_stimuli/rescaled_final/1548_rv.mp4	0.0	187.96223497390747	
34	171.25040698051453	fix_post	2		12	32.0	2.5	/experiments/knapen_AOT/AOT_stimuli/rescaled_final/1548_rv.mp4	0.0	188.87821197509766	0.09992790222167969
35	171.3503348827362	fix_pre	0		120	33.0	2.5	/experiments/knapen_AOT/AOT_stimuli/rescaled_final/1748_rv.mp4	0.0	188.97813987731934	1.0001552104949951
35	171.9340009689331	pulse	0	t		33.0	2.5	/experiments/knapen_AOT/AOT_stimuli/rescaled_final/1748_rv.mp4	0.0	189.56180596351624	
35	172.3504900932312	movie	1		242	33.0	2.5	/experiments/knapen_AOT/AOT_stimuli/rescaled_final/1748_rv.mp4	0.0	189.97829508781433	2.5005369186401367
35	173.53430795669556	pulse	1	t		33.0	2.5	/experiments/knapen_AOT/AOT_stimuli/rescaled_final/1748_rv.mp4	0.0	191.1621129512787	
35	174.85102701187134	fix_post	2		12	33.0	2.5	/experiments/knapen_AOT/AOT_stimuli/rescaled_final/1748_rv.mp4	0.0	192.47883200645447	0.09984803199768066
36	174.95087504386902	fix_pre	0		120	34.0	2.5	blank	1.0	192.57868003845215	1.0001440048217773
36	175.13452792167664	pulse	0	t		34.0	2.5	blank	1.0	192.76233291625977	
36	175.9510190486908	movie	1		300	34.0	2.5	blank	1.0	193.57882404327393	2.5003979206085205
36	176.73480606079102	pulse	1	t		34.0	2.5	blank	1.0	194.36261105537415	
36	178.33495998382568	pulse	1	t		34.0	2.5	blank	1.0	195.9627649784088	
36	178.45141696929932	fix_post	2		12	34.0	2.5	blank	1.0	196.07922196388245	0.10003805160522461
37	178.55145502090454	fix_pre	0		120	35.0	2.5	/experiments/knapen_AOT/AOT_stimuli/rescaled_final/1028_fw.mp4	0.0	196.17926001548767	1.0001089572906494
37	179.5515639781952	movie	1		245	35.0	2.5	/experiments/knapen_AOT/AOT_stimuli/rescaled_final/1028_fw.mp4	0.0	197.17936897277832	2.4920361042022705
37	179.93646788597107	pulse	1	t		35.0	2.5	/experiments/knapen_AOT/AOT_stimuli/rescaled_final/1028_fw.mp4	0.0	197.5642728805542	
37	181.52810406684875	pulse	1	t		35.0	2.5	/experiments/knapen_AOT/AOT_stimuli/rescaled_final/1028_fw.mp4	0.0	199.15590906143188	
37	182.04360008239746	fix_post	2		12	35.0	2.5	/experiments/knapen_AOT/AOT_stimuli/rescaled_final/1028_fw.mp4	0.0	199.6714050769806	0.10000991821289062
38	182.14361000061035	fix_pre	0		120	36.0	2.5	/experiments/knapen_AOT/AOT_stimuli/rescaled_final/2128_fw.mp4	0.0	199.77141499519348	1.0001909732818604
38	183.1356430053711	pulse	0	t		36.0	2.5	/experiments/knapen_AOT/AOT_stimuli/rescaled_final/2128_fw.mp4	0.0	200.76344799995422	
38	183.1438009738922	movie	1		244	36.0	2.5	/experiments/knapen_AOT/AOT_stimuli/rescaled_final/2128_fw.mp4	0.0	200.77160596847534	2.5087599754333496
38	184.73726892471313	pulse	1	t		36.0	2.5	/experiments/knapen_AOT/AOT_stimuli/rescaled_final/2128_fw.mp4	0.0	202.36507391929626	
38	185.65256094932556	fix_post	2		12	36.0	2.5	/experiments/knapen_AOT/AOT_stimuli/rescaled_final/2128_fw.mp4	0.0	203.2803659439087	0.09997105598449707
39	185.75253200531006	fix_pre	0		120	37.0	2.5	/experiments/knapen_AOT/AOT_stimuli/rescaled_final/0227_fw.mp4	0.0	203.3803369998932	1.000108003616333
39	186.32873606681824	pulse	0	t		37.0	2.5	/experiments/knapen_AOT/AOT_stimuli/rescaled_final/0227_fw.mp4	0.0	203.95654106140137	
39	186.7526400089264	movie	1		242	37.0	2.5	/experiments/knapen_AOT/AOT_stimuli/rescaled_final/0227_fw.mp4	0.0	204.38044500350952	2.5005600452423096
39	187.92933988571167	pulse	1	t		37.0	2.5	/experiments/knapen_AOT/AOT_stimuli/rescaled_final/0227_fw.mp4	0.0	205.5571448802948	
39	189.2532000541687	fix_post	2		12	37.0	2.5	/experiments/knapen_AOT/AOT_stimuli/rescaled_final/0227_fw.mp4	0.0	206.88100504875183	0.09980988502502441
40	189.35300993919373	fix_pre	0		120	38.0	2.5	/experiments/knapen_AOT/AOT_stimuli/rescaled_final/0534_fw.mp4	0.0	206.98081493377686	1.0001790523529053
40	189.52818894386292	pulse	0	t		38.0	2.5	/experiments/knapen_AOT/AOT_stimuli/rescaled_final/0534_fw.mp4	0.0	207.15599393844604	
40	190.35318899154663	movie	1		244	38.0	2.5	/experiments/knapen_AOT/AOT_stimuli/rescaled_final/0534_fw.mp4	0.0	207.98099398612976	2.500386953353882
40	191.12844395637512	pulse	1	t		38.0	2.5	/experiments/knapen_AOT/AOT_stimuli/rescaled_final/0534_fw.mp4	0.0	208.75624895095825	
40	192.72878289222717	pulse	1	t		38.0	2.5	/experiments/knapen_AOT/AOT_stimuli/rescaled_final/0534_fw.mp4	0.0	210.3565878868103	
40	192.8535759449005	fix_post	2		12	38.0	2.5	/experiments/knapen_AOT/AOT_stimuli/rescaled_final/0534_fw.mp4	0.0	210.48138093948364	0.09999799728393555
41	192.95357394218445	fix_pre	0		120	39.0	2.5	/experiments/knapen_AOT/AOT_stimuli/rescaled_final/0703_rv.mp4	0.0	210.58137893676758	1.000162124633789
41	193.95373606681824	movie	1		242	39.0	2.5	/experiments/knapen_AOT/AOT_stimuli/rescaled_final/0703_rv.mp4	0.0	211.58154106140137	2.492219924926758
41	194.32904195785522	pulse	1	t		39.0	2.5	/experiments/knapen_AOT/AOT_stimuli/rescaled_final/0703_rv.mp4	0.0	211.95684695243835	
41	195.92937588691711	pulse	1	t		39.0	2.5	/experiments/knapen_AOT/AOT_stimuli/rescaled_final/0703_rv.mp4	0.0	213.55718088150024	
41	196.445955991745	fix_post	2		12	39.0	2.5	/experiments/knapen_AOT/AOT_stimuli/rescaled_final/0703_rv.mp4	0.0	214.07376098632812	0.09985208511352539
42	196.54580807685852	fix_pre	0		119	40.0	2.5	/experiments/knapen_AOT/AOT_stimuli/rescaled_final/1326_rv.mp4	0.0	214.17361307144165	0.9918420314788818
42	197.52948999404907	pulse	0	t		40.0	2.5	/experiments/knapen_AOT/AOT_stimuli/rescaled_final/1326_rv.mp4	0.0	215.1572949886322	
42	197.5376501083374	movie	1		243	40.0	2.5	/experiments/knapen_AOT/AOT_stimuli/rescaled_final/1326_rv.mp4	0.0	215.16545510292053	2.5087268352508545
42	199.1303129196167	pulse	1	t		40.0	2.5	/experiments/knapen_AOT/AOT_stimuli/rescaled_final/1326_rv.mp4	0.0	216.75811791419983	
42	200.04637694358826	fix_post	2		12	40.0	2.5	/experiments/knapen_AOT/AOT_stimuli/rescaled_final/1326_rv.mp4	0.0	217.6741819381714	0.09994912147521973
43	200.14632606506348	fix_pre	0		120	41.0	2.5	/experiments/knapen_AOT/AOT_stimuli/rescaled_final/0360_rv.mp4	0.0	217.7741310596466	1.000175952911377
43	200.72997903823853	pulse	0	t		41.0	2.5	/experiments/knapen_AOT/AOT_stimuli/rescaled_final/0360_rv.mp4	0.0	218.35778403282166	
43	201.14650201797485	movie	1		243	41.0	2.5	/experiments/knapen_AOT/AOT_stimuli/rescaled_final/0360_rv.mp4	0.0	218.77430701255798	2.500516891479492
43	202.33026909828186	pulse	1	t		41.0	2.5	/experiments/knapen_AOT/AOT_stimuli/rescaled_final/0360_rv.mp4	0.0	219.958074092865	
43	203.64701890945435	fix_post	2		12	41.0	2.5	/experiments/knapen_AOT/AOT_stimuli/rescaled_final/0360_rv.mp4	0.0	221.27482390403748	0.09987020492553711
44	203.74688911437988	fix_pre	0		120	42.0	2.5	blank	1.0	221.374694108963	1.0001440048217773
44	203.93037605285645	pulse	0	t		42.0	2.5	blank	1.0	221.55818104743958	
44	204.74703311920166	movie	1		300	42.0	2.5	blank	1.0	222.3748381137848	2.500358819961548
44	205.5306260585785	pulse	1	t		42.0	2.5	blank	1.0	223.15843105316162	
44	207.13084197044373	pulse	1	t		42.0	2.5	blank	1.0	224.75864696502686	
44	207.2473919391632	fix_post	2		12	42.0	2.5	blank	1.0	224.87519693374634	0.1000370979309082
45	207.34742903709412	fix_pre	0		120	43.0	2.5	/experiments/knapen_AOT/AOT_stimuli/rescaled_final/1563_fw.mp4	0.0	224.97523403167725	1.0001230239868164
45	208.34755206108093	movie	1		242	43.0	2.5	/experiments/knapen_AOT/AOT_stimuli/rescaled_final/1563_fw.mp4	0.0	225.97535705566406	2.492244005203247
45	208.73173689842224	pulse	1	t		43.0	2.5	/experiments/knapen_AOT/AOT_stimuli/rescaled_final/1563_fw.mp4	0.0	226.35954189300537	
45	210.33137011528015	pulse	1	t		43.0	2.5	/experiments/knapen_AOT/AOT_stimuli/rescaled_final/1563_fw.mp4	0.0	227.95917510986328	
45	210.83979606628418	fix_post	2		12	43.0	2.5	/experiments/knapen_AOT/AOT_stimuli/rescaled_final/1563_fw.mp4	0.0	228.4676010608673	0.09985589981079102
46	210.93965196609497	fix_pre	0		120	44.0	2.5	/experiments/knapen_AOT/AOT_stimuli/rescaled_final/1803_rv.mp4	0.0	228.5674569606781	1.0001060962677002
46	211.9315800666809	pulse	0	t		44.0	2.5	/experiments/knapen_AOT/AOT_stimuli/rescaled_final/1803_rv.mp4	0.0	229.55938506126404	
46	211.93975806236267	movie	1		243	44.0	2.5	/experiments/knapen_AOT/AOT_stimuli/rescaled_final/1803_rv.mp4	0.0	229.5675630569458	2.5088069438934326
46	213.53246688842773	pulse	1	t		44.0	2.5	/experiments/knapen_AOT/AOT_stimuli/rescaled_final/1803_rv.mp4	0.0	231.16027188301086	
46	214.4485650062561	fix_post	2		9	44.0	2.5	/experiments/knapen_AOT/AOT_stimuli/rescaled_final/1803_rv.mp4	0.0	232.07637000083923	0.09989595413208008
47	214.54846096038818	fix_pre	0		120	45.0	2.5	/experiments/knapen_AOT/AOT_stimuli/rescaled_final/0145_fw.mp4	0.0	232.1762659549713	1.0001540184020996
47	215.13211393356323	pulse	0	t		45.0	2.5	/experiments/knapen_AOT/AOT_stimuli/rescaled_final/0145_fw.mp4	0.0	232.75991892814636	
47	215.54861497879028	movie	1		243	45.0	2.5	/experiments/knapen_AOT/AOT_stimuli/rescaled_final/0145_fw.mp4	0.0	233.1764199733734	2.5003490447998047
47	216.73238611221313	pulse	1	t		45.0	2.5	/experiments/knapen_AOT/AOT_stimuli/rescaled_final/0145_fw.mp4	0.0	234.36019110679626	
47	218.0489640235901	fix_post	2		12	45.0	2.5	/experiments/knapen_AOT/AOT_stimuli/rescaled_final/0145_fw.mp4	0.0	235.67676901817322	0.10004401206970215
48	218.1490080356598	fix_pre	0		120	46.0	2.5	/experiments/knapen_AOT/AOT_stimuli/rescaled_final/0398_rv.mp4	0.0	235.77681303024292	1.000187873840332
48	218.33258605003357	pulse	0	t		46.0	2.5	/experiments/knapen_AOT/AOT_stimuli/rescaled_final/0398_rv.mp4	0.0	235.9603910446167	
48	219.14919590950012	movie	1		243	46.0	2.5	/experiments/knapen_AOT/AOT_stimuli/rescaled_final/0398_rv.mp4	0.0	236.77700090408325	2.500483989715576
48	219.93280410766602	pulse	1	t		46.0	2.5	/experiments/knapen_AOT/AOT_stimuli/rescaled_final/0398_rv.mp4	0.0	237.56060910224915	
48	221.53277707099915	pulse	1	t		46.0	2.5	/experiments/knapen_AOT/AOT_stimuli/rescaled_final/0398_rv.mp4	0.0	239.16058206558228	
48	221.6496798992157	fix_post	2		12	46.0	2.5	/experiments/knapen_AOT/AOT_stimuli/rescaled_final/0398_rv.mp4	0.0	239.27748489379883	0.09984612464904785
49	221.74952602386475	fix_pre	0		119	47.0	2.5	/experiments/knapen_AOT/AOT_stimuli/rescaled_final/1290_rv.mp4	0.0	239.37733101844788	0.9918150901794434
49	222.7413411140442	movie	1		243	47.0	2.5	/experiments/knapen_AOT/AOT_stimuli/rescaled_final/1290_rv.mp4	0.0	240.36914610862732	2.5006229877471924
49	223.13336896896362	pulse	1	t		47.0	2.5	/experiments/knapen_AOT/AOT_stimuli/rescaled_final/1290_rv.mp4	0.0	240.76117396354675	
49	224.73355293273926	pulse	1	t		47.0	2.5	/experiments/knapen_AOT/AOT_stimuli/rescaled_final/1290_rv.mp4	0.0	242.3613579273224	
49	225.24196410179138	fix_post	2		12	47.0	2.5	/experiments/knapen_AOT/AOT_stimuli/rescaled_final/1290_rv.mp4	0.0	242.8697690963745	0.09977984428405762
50	225.34174394607544	fix_pre	0		120	48.0	2.5	blank	1.0	242.96954894065857	1.0001490116119385
50	226.3337140083313	pulse	0	t		48.0	2.5	blank	1.0	243.96151900291443	
50	226.34189295768738	movie	1		301	48.0	2.5	blank	1.0	243.9696979522705	2.5087151527404785
50	227.9340100288391	pulse	1	t		48.0	2.5	blank	1.0	245.56181502342224	
50	228.85060811042786	fix_post	2		12	48.0	2.5	blank	1.0	246.478413105011	0.10001492500305176
51	228.9506230354309	fix_pre	0		120	49.0	2.5	/experiments/knapen_AOT/AOT_stimuli/rescaled_final/2128_rv.mp4	0.0	246.57842803001404	1.0001869201660156
51	229.53420209884644	pulse	0	t		49.0	2.5	/experiments/knapen_AOT/AOT_stimuli/rescaled_final/2128_rv.mp4	0.0	247.16200709342957	
51	229.95080995559692	movie	1		243	49.0	2.5	/experiments/knapen_AOT/AOT_stimuli/rescaled_final/2128_rv.mp4	0.0	247.57861495018005	2.5003349781036377
51	231.13459706306458	pulse	1	t		49.0	2.5	/experiments/knapen_AOT/AOT_stimuli/rescaled_final/2128_rv.mp4	0.0	248.7624020576477	
51	232.45114493370056	fix_post	2		12	49.0	2.5	/experiments/knapen_AOT/AOT_stimuli/rescaled_final/2128_rv.mp4	0.0	250.0789499282837	0.09999608993530273
52	232.55114102363586	fix_pre	0		120	50.0	2.5	/experiments/knapen_AOT/AOT_stimuli/rescaled_final/2092_fw.mp4	0.0	250.178946018219	1.0001680850982666
52	232.7347071170807	pulse	0	t		50.0	2.5	/experiments/knapen_AOT/AOT_stimuli/rescaled_final/2092_fw.mp4	0.0	250.36251211166382	
52	233.55130910873413	movie	1		244	50.0	2.5	/experiments/knapen_AOT/AOT_stimuli/rescaled_final/2092_fw.mp4	0.0	251.17911410331726	2.5003550052642822
52	234.3350179195404	pulse	1	t		50.0	2.5	/experiments/knapen_AOT/AOT_stimuli/rescaled_final/2092_fw.mp4	0.0	251.96282291412354	
52	235.9353199005127	pulse	1	t		50.0	2.5	/experiments/knapen_AOT/AOT_stimuli/rescaled_final/2092_fw.mp4	0.0	253.56312489509583	
52	236.0516641139984	fix_post	2		12	50.0	2.5	/experiments/knapen_AOT/AOT_stimuli/rescaled_final/2092_fw.mp4	0.0	253.67946910858154	0.10004091262817383
53	236.1517050266266	fix_pre	0		120	51.0	2.5	/experiments/knapen_AOT/AOT_stimuli/rescaled_final/1153_rv.mp4	0.0	253.77951002120972	1.0001299381256104
53	237.1518349647522	movie	1		243	51.0	2.5	/experiments/knapen_AOT/AOT_stimuli/rescaled_final/1153_rv.mp4	0.0	254.77963995933533	2.492039918899536
53	237.53584098815918	pulse	1	t		51.0	2.5	/experiments/knapen_AOT/AOT_stimuli/rescaled_final/1153_rv.mp4	0.0	255.1636459827423	
53	239.13574504852295	pulse	1	t		51.0	2.5	/experiments/knapen_AOT/AOT_stimuli/rescaled_final/1153_rv.mp4	0.0	256.7635500431061	
53	239.64387488365173	fix_post	2		12	51.0	2.5	/experiments/knapen_AOT/AOT_stimuli/rescaled_final/1153_rv.mp4	0.0	257.27167987823486	0.10002422332763672
54	239.74389910697937	fix_pre	0		120	52.0	2.5	/experiments/knapen_AOT/AOT_stimuli/rescaled_final/2019_fw.mp4	0.0	257.3717041015625	1.0001277923583984
54	240.73588490486145	pulse	0	t		52.0	2.5	/experiments/knapen_AOT/AOT_stimuli/rescaled_final/2019_fw.mp4	0.0	258.3636898994446	
54	240.74402689933777	movie	1		246	52.0	2.5	/experiments/knapen_AOT/AOT_stimuli/rescaled_final/2019_fw.mp4	0.0	258.3718318939209	2.5087602138519287
54	242.33658504486084	pulse	1	t		52.0	2.5	/experiments/knapen_AOT/AOT_stimuli/rescaled_final/2019_fw.mp4	0.0	259.96439003944397	
54	243.2527871131897	fix_post	2		12	52.0	2.5	/experiments/knapen_AOT/AOT_stimuli/rescaled_final/2019_fw.mp4	0.0	260.8805921077728	0.09998798370361328
55	243.3527750968933	fix_pre	0		120	53.0	2.5	/experiments/knapen_AOT/AOT_stimuli/rescaled_final/2077_rv.mp4	0.0	260.98058009147644	1.0001389980316162
55	243.92880511283875	pulse	0	t		53.0	2.5	/experiments/knapen_AOT/AOT_stimuli/rescaled_final/2077_rv.mp4	0.0	261.5566101074219	
55	244.35291409492493	movie	1		242	53.0	2.5	/experiments/knapen_AOT/AOT_stimuli/rescaled_final/2077_rv.mp4	0.0	261.98071908950806	2.500605821609497
55	245.5328290462494	pulse	1	t		53.0	2.5	/experiments/knapen_AOT/AOT_stimuli/rescaled_final/2077_rv.mp4	0.0	263.1606340408325	
55	246.85351991653442	fix_post	2		12	53.0	2.5	/experiments/knapen_AOT/AOT_stimuli/rescaled_final/2077_rv.mp4	0.0	264.48132491111755	0.09981298446655273
56	246.95333290100098	fix_pre	0		120	54.0	2.5	/experiments/knapen_AOT/AOT_stimuli/rescaled_final/2163_rv.mp4	0.0	264.5811378955841	1.0001211166381836
56	247.12939596176147	pulse	0	t		54.0	2.5	/experiments/knapen_AOT/AOT_stimuli/rescaled_final/2163_rv.mp4	0.0	264.7572009563446	
56	247.95345401763916	movie	1		244	54.0	2.5	/experiments/knapen_AOT/AOT_stimuli/rescaled_final/2163_rv.mp4	0.0	265.5812590122223	2.5003578662872314
56	248.72895693778992	pulse	1	t		54.0	2.5	/experiments/knapen_AOT/AOT_stimuli/rescaled_final/2163_rv.mp4	0.0	266.35676193237305	
56	250.32896900177002	pulse	1	t		54.0	2.5	/experiments/knapen_AOT/AOT_stimuli/rescaled_final/2163_rv.mp4	0.0	267.95677399635315	
56	250.4538118839264	fix_post	2		12	54.0	2.5	/experiments/knapen_AOT/AOT_stimuli/rescaled_final/2163_rv.mp4	0.0	268.0816168785095	0.1000821590423584
57	250.55389404296875	fix_pre	0		120	55.0	2.5	/experiments/knapen_AOT/AOT_stimuli/rescaled_final/0994_rv.mp4	0.0	268.1816990375519	1.000105857849121
57	251.55399990081787	movie	1		241	55.0	2.5	/experiments/knapen_AOT/AOT_stimuli/rescaled_final/0994_rv.mp4	0.0	269.181804895401	2.4920949935913086
57	251.92916202545166	pulse	1	t		55.0	2.5	/experiments/knapen_AOT/AOT_stimuli/rescaled_final/0994_rv.mp4	0.0	269.5569670200348	
57	253.52964305877686	pulse	1	t		55.0	2.5	/experiments/knapen_AOT/AOT_stimuli/rescaled_final/0994_rv.mp4	0.0	271.15744805336	
57	254.04609489440918	fix_post	2		12	55.0	2.5	/experiments/knapen_AOT/AOT_stimuli/rescaled_final/0994_rv.mp4	0.0	271.6738998889923	0.09993410110473633
58	254.14602899551392	fix_pre	0		119	56.0	2.5	blank	1.0	271.77383399009705	0.991844892501831
58	255.12982988357544	pulse	0	t		56.0	2.5	blank	1.0	272.75763487815857	
58	255.13787388801575	movie	1		301	56.0	2.5	blank	1.0	272.7656788825989	2.5086991786956787
58	256.73000502586365	pulse	1	t		56.0	2.5	blank	1.0	274.3578100204468	
58	257.6465730667114	fix_post	2		12	56.0	2.5	blank	1.0	275.27437806129456	0.10000491142272949
59	257.74657797813416	fix_pre	0		120	57.0	2.5	/experiments/knapen_AOT/AOT_stimuli/rescaled_final/0232_fw.mp4	0.0	275.3743829727173	1.0001049041748047
59	258.3301169872284	pulse	0	t		57.0	2.5	/experiments/knapen_AOT/AOT_stimuli/rescaled_final/0232_fw.mp4	0.0	275.9579219818115	
59	258.74668288230896	movie	1		242	57.0	2.5	/experiments/knapen_AOT/AOT_stimuli/rescaled_final/0232_fw.mp4	0.0	276.3744878768921	2.5006542205810547
59	259.93057203292847	pulse	1	t		57.0	2.5	/experiments/knapen_AOT/AOT_stimuli/rescaled_final/0232_fw.mp4	0.0	277.5583770275116	
59	261.24733710289	fix_post	2		12	57.0	2.5	/experiments/knapen_AOT/AOT_stimuli/rescaled_final/0232_fw.mp4	0.0	278.87514209747314	0.09980392456054688
60	261.34714102745056	fix_pre	0		120	58.0	2.5	/experiments/knapen_AOT/AOT_stimuli/rescaled_final/1857_rv.mp4	0.0	278.9749460220337	1.0001299381256104
60	261.5307710170746	pulse	0	t		58.0	2.5	/experiments/knapen_AOT/AOT_stimuli/rescaled_final/1857_rv.mp4	0.0	279.1585760116577	
60	262.3472709655762	movie	1		242	58.0	2.5	/experiments/knapen_AOT/AOT_stimuli/rescaled_final/1857_rv.mp4	0.0	279.9750759601593	2.500638008117676
60	263.13094902038574	pulse	1	t		58.0	2.5	/experiments/knapen_AOT/AOT_stimuli/rescaled_final/1857_rv.mp4	0.0	280.7587540149689	
60	264.73118591308594	pulse	1	t		58.0	2.5	/experiments/knapen_AOT/AOT_stimuli/rescaled_final/1857_rv.mp4	0.0	282.35899090766907	
60	264.84790897369385	fix_post	2		12	58.0	2.5	/experiments/knapen_AOT/AOT_stimuli/rescaled_final/1857_rv.mp4	0.0	282.475713968277	0.09978699684143066
61	264.9476959705353	fix_pre	0		120	59.0	2.5	/experiments/knapen_AOT/AOT_stimuli/rescaled_final/0920_rv.mp4	0.0	282.5755009651184	1.0001330375671387
61	265.9478290081024	movie	1		241	59.0	2.5	/experiments/knapen_AOT/AOT_stimuli/rescaled_final/0920_rv.mp4	0.0	283.57563400268555	2.4920098781585693
61	266.3319890499115	pulse	1	t		59.0	2.5	/experiments/knapen_AOT/AOT_stimuli/rescaled_final/0920_rv.mp4	0.0	283.95979404449463	
61	267.9317638874054	pulse	1	t		59.0	2.5	/experiments/knapen_AOT/AOT_stimuli/rescaled_final/0920_rv.mp4	0.0	285.5595688819885	
61	268.439838886261	fix_post	2		12	59.0	2.5	/experiments/knapen_AOT/AOT_stimuli/rescaled_final/0920_rv.mp4	0.0	286.0676438808441	0.10004401206970215
62	268.5398828983307	fix_pre	0		120	60.0	2.5	/experiments/knapen_AOT/AOT_stimuli/rescaled_final/0826_rv.mp4	0.0	286.1676878929138	1.0001111030578613
62	269.5319039821625	pulse	0	t		60.0	2.5	/experiments/knapen_AOT/AOT_stimuli/rescaled_final/0826_rv.mp4	0.0	287.1597089767456	
62	269.53999400138855	movie	1		244	60.0	2.5	/experiments/knapen_AOT/AOT_stimuli/rescaled_final/0826_rv.mp4	0.0	287.1677989959717	2.508781909942627
62	271.1329789161682	pulse	1	t		60.0	2.5	/experiments/knapen_AOT/AOT_stimuli/rescaled_final/0826_rv.mp4	0.0	288.76078391075134	
62	272.0487759113312	fix_post	2		12	60.0	2.5	/experiments/knapen_AOT/AOT_stimuli/rescaled_final/0826_rv.mp4	0.0	289.6765809059143	0.09997200965881348
63	272.14874792099	fix_pre	0		120	61.0	2.5	/experiments/knapen_AOT/AOT_stimuli/rescaled_final/0240_rv.mp4	0.0	289.7765529155731	1.0001451969146729
63	272.7323040962219	pulse	0	t		61.0	2.5	/experiments/knapen_AOT/AOT_stimuli/rescaled_final/0240_rv.mp4	0.0	290.36010909080505	
63	273.14889311790466	movie	1		243	61.0	2.5	/experiments/knapen_AOT/AOT_stimuli/rescaled_final/0240_rv.mp4	0.0	290.7766981124878	2.500553846359253
63	274.3326880931854	pulse	1	t		61.0	2.5	/experiments/knapen_AOT/AOT_stimuli/rescaled_final/0240_rv.mp4	0.0	291.96049308776855	
63	275.6494469642639	fix_post	2		12	61.0	2.5	/experiments/knapen_AOT/AOT_stimuli/rescaled_final/0240_rv.mp4	0.0	293.27725195884705	0.09976911544799805
64	275.7492160797119	fix_pre	0		117	62.0	2.5	blank	1.0	293.37702107429504	1.0002098083496094
64	275.93282890319824	pulse	0	t		62.0	2.5	blank	1.0	293.5606338977814	
64	276.7494258880615	movie	1		300	62.0	2.5	blank	1.0	294.37723088264465	2.5003821849823
64	277.5330550670624	pulse	1	t		62.0	2.5	blank	1.0	295.1608600616455	
64	279.13327503204346	pulse	1	t		62.0	2.5	blank	1.0	296.7610800266266	
64	279.2498080730438	fix_post	2		12	62.0	2.5	blank	1.0	296.87761306762695	0.10004281997680664
65	279.34985089302063	fix_pre	0		120	63.0	2.5	/experiments/knapen_AOT/AOT_stimuli/rescaled_final/0735_fw.mp4	0.0	296.97765588760376	1.0000700950622559
65	280.3499209880829	movie	1		244	63.0	2.5	/experiments/knapen_AOT/AOT_stimuli/rescaled_final/0735_fw.mp4	0.0	297.977725982666	2.4920599460601807
65	280.7347559928894	pulse	1	t		63.0	2.5	/experiments/knapen_AOT/AOT_stimuli/rescaled_final/0735_fw.mp4	0.0	298.36256098747253	
65	282.33376908302307	pulse	1	t		63.0	2.5	/experiments/knapen_AOT/AOT_stimuli/rescaled_final/0735_fw.mp4	0.0	299.9615740776062	
65	282.84198093414307	fix_post	2		12	63.0	2.5	/experiments/knapen_AOT/AOT_stimuli/rescaled_final/0735_fw.mp4	0.0	300.4697859287262	0.1000511646270752
66	282.94203209877014	fix_pre	0		120	64.0	2.5	/experiments/knapen_AOT/AOT_stimuli/rescaled_final/1825_fw.mp4	0.0	300.56983709335327	1.0001258850097656
66	283.93411111831665	pulse	0	t		64.0	2.5	/experiments/knapen_AOT/AOT_stimuli/rescaled_final/1825_fw.mp4	0.0	301.5619161128998	
66	283.9421579837799	movie	1		243	64.0	2.5	/experiments/knapen_AOT/AOT_stimuli/rescaled_final/1825_fw.mp4	0.0	301.56996297836304	2.508776903152466
66	285.53485107421875	pulse	1	t		64.0	2.5	/experiments/knapen_AOT/AOT_stimuli/rescaled_final/1825_fw.mp4	0.0	303.1626560688019	
66	286.4509348869324	fix_post	2		12	64.0	2.5	/experiments/knapen_AOT/AOT_stimuli/rescaled_final/1825_fw.mp4	0.0	304.0787398815155	0.09995102882385254
67	286.5508859157562	fix_pre	0		120	65.0	2.5	/experiments/knapen_AOT/AOT_stimuli/rescaled_final/0619_rv.mp4	0.0	304.17869091033936	1.000150203704834
67	287.1344630718231	pulse	0	t		65.0	2.5	/experiments/knapen_AOT/AOT_stimuli/rescaled_final/0619_rv.mp4	0.0	304.76226806640625	
67	287.55103611946106	movie	1		242	65.0	2.5	/experiments/knapen_AOT/AOT_stimuli/rescaled_final/0619_rv.mp4	0.0	305.1788411140442	2.500558853149414
67	288.7348759174347	pulse	1	t		65.0	2.5	/experiments/knapen_AOT/AOT_stimuli/rescaled_final/0619_rv.mp4	0.0	306.3626809120178	
67	290.0515949726105	fix_post	2		12	65.0	2.5	/experiments/knapen_AOT/AOT_stimuli/rescaled_final/0619_rv.mp4	0.0	307.6793999671936	0.09981513023376465
68	290.15141010284424	fix_pre	0		120	66.0	2.5	/experiments/knapen_AOT/AOT_stimuli/rescaled_final/1526_fw.mp4	0.0	307.77921509742737	1.0001988410949707
68	290.33504700660706	pulse	0	t		66.0	2.5	/experiments/knapen_AOT/AOT_stimuli/rescaled_final/1526_fw.mp4	0.0	307.9628520011902	
68	291.1516089439392	movie	1		244	66.0	2.5	/experiments/knapen_AOT/AOT_stimuli/rescaled_final/1526_fw.mp4	0.0	308.77941393852234	2.5003199577331543
68	291.9352469444275	pulse	1	t		66.0	2.5	/experiments/knapen_AOT/AOT_stimuli/rescaled_final/1526_fw.mp4	0.0	309.5630519390106	
68	293.5356709957123	pulse	1	t		66.0	2.5	/experiments/knapen_AOT/AOT_stimuli/rescaled_final/1526_fw.mp4	0.0	311.1634759902954	
68	293.65192890167236	fix_post	2		12	66.0	2.5	/experiments/knapen_AOT/AOT_stimuli/rescaled_final/1526_fw.mp4	0.0	311.2797338962555	0.1000211238861084
69	293.7519500255585	fix_pre	0		120	67.0	2.5	/experiments/knapen_AOT/AOT_stimuli/rescaled_final/0506_fw.mp4	0.0	311.3797550201416	1.000180959701538
69	294.75213098526	movie	1		242	67.0	2.5	/experiments/knapen_AOT/AOT_stimuli/rescaled_final/0506_fw.mp4	0.0	312.37993597984314	2.4920709133148193
69	295.13641810417175	pulse	1	t		67.0	2.5	/experiments/knapen_AOT/AOT_stimuli/rescaled_final/0506_fw.mp4	0.0	312.7642230987549	
69	296.7285931110382	pulse	1	t		67.0	2.5	/experiments/knapen_AOT/AOT_stimuli/rescaled_final/0506_fw.mp4	0.0	314.35639810562134	
69	297.24420189857483	fix_post	2		12	67.0	2.5	/experiments/knapen_AOT/AOT_stimuli/rescaled_final/0506_fw.mp4	0.0	314.87200689315796	0.0999901294708252
70	297.34419202804565	fix_pre	0		120	68.0	2.5	blank	1.0	314.9719970226288	1.000135898590088
70	298.32877588272095	pulse	0	t		68.0	2.5	blank	1.0	315.9565808773041	
70	298.34432792663574	movie	1		301	68.0	2.5	blank	1.0	315.9721329212189	2.50870418548584
70	299.92899990081787	pulse	1	t		68.0	2.5	blank	1.0	317.556804895401	
70	300.8530321121216	fix_post	2		12	68.0	2.5	blank	1.0	318.4808371067047	0.09997391700744629
71	300.953006029129	fix_pre	0		120	69.0	2.5	/experiments/knapen_AOT/AOT_stimuli/rescaled_final/0145_fw.mp4	0.0	318.58081102371216	1.000175952911377
71	301.5285050868988	pulse	0	t		69.0	2.5	/experiments/knapen_AOT/AOT_stimuli/rescaled_final/0145_fw.mp4	0.0	319.15631008148193	
71	301.9531819820404	movie	1		243	69.0	2.5	/experiments/knapen_AOT/AOT_stimuli/rescaled_final/0145_fw.mp4	0.0	319.58098697662354	2.500370979309082
71	303.1292040348053	pulse	1	t		69.0	2.5	/experiments/knapen_AOT/AOT_stimuli/rescaled_final/0145_fw.mp4	0.0	320.7570090293884	
71	304.4535529613495	fix_post	2		12	69.0	2.5	/experiments/knapen_AOT/AOT_stimuli/rescaled_final/0145_fw.mp4	0.0	322.0813579559326	0.10004210472106934
72	304.55359506607056	fix_pre	0		120	70.0	2.5	/experiments/knapen_AOT/AOT_stimuli/rescaled_final/1438_rv.mp4	0.0	322.1814000606537	1.000166893005371
72	304.7287640571594	pulse	0	t		70.0	2.5	/experiments/knapen_AOT/AOT_stimuli/rescaled_final/1438_rv.mp4	0.0	322.35656905174255	
72	305.5537619590759	movie	1		243	70.0	2.5	/experiments/knapen_AOT/AOT_stimuli/rescaled_final/1438_rv.mp4	0.0	323.18156695365906	2.5003409385681152
72	306.32896900177	pulse	1	t		70.0	2.5	/experiments/knapen_AOT/AOT_stimuli/rescaled_final/1438_rv.mp4	0.0	323.95677399635315	
72	307.9293029308319	pulse	1	t		70.0	2.5	/experiments/knapen_AOT/AOT_stimuli/rescaled_final/1438_rv.mp4	0.0	325.55710792541504	
72	308.05410289764404	fix_post	2		12	70.0	2.5	/experiments/knapen_AOT/AOT_stimuli/rescaled_final/1438_rv.mp4	0.0	325.6819078922272	0.100006103515625
73	308.15410900115967	fix_pre	0		119	71.0	2.5	/experiments/knapen_AOT/AOT_stimuli/rescaled_final/1425_fw.mp4	0.0	325.7819139957428	0.9918010234832764
73	309.14591002464294	movie	1		246	71.0	2.5	/experiments/knapen_AOT/AOT_stimuli/rescaled_final/1425_fw.mp4	0.0	326.7737150192261	2.5003960132598877
73	309.5336420536041	pulse	1	t		71.0	2.5	/experiments/knapen_AOT/AOT_stimuli/rescaled_final/1425_fw.mp4	0.0	327.16144704818726	
73	311.12971591949463	pulse	1	t		71.0	2.5	/experiments/knapen_AOT/AOT_stimuli/rescaled_final/1425_fw.mp4	0.0	328.75752091407776	
73	311.64630603790283	fix_post	2		12	71.0	2.5	/experiments/knapen_AOT/AOT_stimuli/rescaled_final/1425_fw.mp4	0.0	329.27411103248596	0.09998393058776855
74	311.7462899684906	fix_pre	0		119	72.0	2.5	/experiments/knapen_AOT/AOT_stimuli/rescaled_final/0238_fw.mp4	0.0	329.37409496307373	0.9918699264526367
74	312.73002004623413	pulse	0	t		72.0	2.5	/experiments/knapen_AOT/AOT_stimuli/rescaled_final/0238_fw.mp4	0.0	330.35782504081726	
74	312.73815989494324	movie	1		244	72.0	2.5	/experiments/knapen_AOT/AOT_stimuli/rescaled_final/0238_fw.mp4	0.0	330.36596488952637	2.5087850093841553
74	314.33148288726807	pulse	1	t		72.0	2.5	/experiments/knapen_AOT/AOT_stimuli/rescaled_final/0238_fw.mp4	0.0	331.9592878818512	
74	315.2469449043274	fix_post	2		12	72.0	2.5	/experiments/knapen_AOT/AOT_stimuli/rescaled_final/0238_fw.mp4	0.0	332.8747498989105	0.09991121292114258
75	315.34685611724854	fix_pre	0		120	73.0	2.5	/experiments/knapen_AOT/AOT_stimuli/rescaled_final/1221_fw.mp4	0.0	332.97466111183167	1.0001428127288818
75	315.93048191070557	pulse	0	t		73.0	2.5	/experiments/knapen_AOT/AOT_stimuli/rescaled_final/1221_fw.mp4	0.0	333.5582869052887	
75	316.3469989299774	movie	1		242	73.0	2.5	/experiments/knapen_AOT/AOT_stimuli/rescaled_final/1221_fw.mp4	0.0	333.97480392456055	2.5005719661712646
75	317.53075194358826	pulse	1	t		73.0	2.5	/experiments/knapen_AOT/AOT_stimuli/rescaled_final/1221_fw.mp4	0.0	335.1585569381714	
75	318.8475708961487	fix_post	2		12	73.0	2.5	/experiments/knapen_AOT/AOT_stimuli/rescaled_final/1221_fw.mp4	0.0	336.4753758907318	0.09983015060424805
76	318.94740104675293	fix_pre	0		120	74.0	2.5	/experiments/knapen_AOT/AOT_stimuli/rescaled_final/1678_rv.mp4	0.0	336.57520604133606	1.0001540184020996
76	319.1309950351715	pulse	0	t		74.0	2.5	/experiments/knapen_AOT/AOT_stimuli/rescaled_final/1678_rv.mp4	0.0	336.75880002975464	
76	319.94755506515503	movie	1		243	74.0	2.5	/experiments/knapen_AOT/AOT_stimuli/rescaled_final/1678_rv.mp4	0.0	337.57536005973816	2.5003440380096436
76	320.73138189315796	pulse	1	t		74.0	2.5	/experiments/knapen_AOT/AOT_stimuli/rescaled_final/1678_rv.mp4	0.0	338.3591868877411	
76	322.3312659263611	pulse	1	t		74.0	2.5	/experiments/knapen_AOT/AOT_stimuli/rescaled_final/1678_rv.mp4	0.0	339.9590709209442	
76	322.4478991031647	fix_post	2		12	74.0	2.5	/experiments/knapen_AOT/AOT_stimuli/rescaled_final/1678_rv.mp4	0.0	340.0757040977478	0.10002493858337402
77	322.54792404174805	fix_pre	0		120	75.0	2.5	/experiments/knapen_AOT/AOT_stimuli/rescaled_final/0706_rv.mp4	0.0	340.1757290363312	1.000140905380249
77	323.5480649471283	movie	1		243	75.0	2.5	/experiments/knapen_AOT/AOT_stimuli/rescaled_final/0706_rv.mp4	0.0	341.1758699417114	2.492077112197876
77	323.9321529865265	pulse	1	t		75.0	2.5	/experiments/knapen_AOT/AOT_stimuli/rescaled_final/0706_rv.mp4	0.0	341.5599579811096	
77	325.5319058895111	pulse	1	t		75.0	2.5	/experiments/knapen_AOT/AOT_stimuli/rescaled_final/0706_rv.mp4	0.0	343.15971088409424	
77	326.0401420593262	fix_post	2		12	75.0	2.5	/experiments/knapen_AOT/AOT_stimuli/rescaled_final/0706_rv.mp4	0.0	343.6679470539093	0.09998703002929688
78	326.14012908935547	fix_pre	0		120	76.0	2.5	/experiments/knapen_AOT/AOT_stimuli/rescaled_final/1039_fw.mp4	0.0	343.7679340839386	1.000182867050171
78	327.13210701942444	pulse	0	t		76.0	2.5	/experiments/knapen_AOT/AOT_stimuli/rescaled_final/1039_fw.mp4	0.0	344.75991201400757	
78	327.14031195640564	movie	1		243	76.0	2.5	/experiments/knapen_AOT/AOT_stimuli/rescaled_final/1039_fw.mp4	0.0	344.76811695098877	2.5087289810180664
78	328.73309111595154	pulse	1	t		76.0	2.5	/experiments/knapen_AOT/AOT_stimuli/rescaled_final/1039_fw.mp4	0.0	346.36089611053467	
78	329.6490409374237	fix_post	2		12	76.0	2.5	/experiments/knapen_AOT/AOT_stimuli/rescaled_final/1039_fw.mp4	0.0	347.27684593200684	0.099945068359375
79	329.7489860057831	fix_pre	0		120	77.0	2.5	blank	1.0	347.3767910003662	1.0001709461212158
79	330.3326940536499	pulse	0	t		77.0	2.5	blank	1.0	347.96049904823303	
79	330.7491569519043	movie	1		300	77.0	2.5	blank	1.0	348.3769619464874	2.500378131866455
79	331.9328820705414	pulse	1	t		77.0	2.5	blank	1.0	349.5606870651245	
79	333.24953508377075	fix_post	2		12	77.0	2.5	blank	1.0	350.8773400783539	0.10003185272216797
80	333.3495669364929	fix_pre	0		120	78.0	2.5	/experiments/knapen_AOT/AOT_stimuli/rescaled_final/0684_rv.mp4	0.0	350.97737193107605	1.0001461505889893
80	333.53302907943726	pulse	0	t		78.0	2.5	/experiments/knapen_AOT/AOT_stimuli/rescaled_final/0684_rv.mp4	0.0	351.1608340740204	
80	334.3497130870819	movie	1		242	78.0	2.5	/experiments/knapen_AOT/AOT_stimuli/rescaled_final/0684_rv.mp4	0.0	351.97751808166504	2.500450849533081
80	335.13335394859314	pulse	1	t		78.0	2.5	/experiments/knapen_AOT/AOT_stimuli/rescaled_final/0684_rv.mp4	0.0	352.76115894317627	
80	336.7334270477295	pulse	1	t		78.0	2.5	/experiments/knapen_AOT/AOT_stimuli/rescaled_final/0684_rv.mp4	0.0	354.3612320423126	
80	336.850163936615	fix_post	2		8	78.0	2.5	/experiments/knapen_AOT/AOT_stimuli/rescaled_final/0684_rv.mp4	0.0	354.4779689311981	0.09990906715393066
81	336.9500730037689	fix_pre	0		119	79.0	2.5	/experiments/knapen_AOT/AOT_stimuli/rescaled_final/0891_rv.mp4	0.0	354.57787799835205	0.991811990737915
81	337.94188499450684	movie	1		242	79.0	2.5	/experiments/knapen_AOT/AOT_stimuli/rescaled_final/0891_rv.mp4	0.0	355.56968998908997	2.5006110668182373
81	338.33388090133667	pulse	1	t		79.0	2.5	/experiments/knapen_AOT/AOT_stimuli/rescaled_final/0891_rv.mp4	0.0	355.9616858959198	
81	339.9341230392456	pulse	1	t		79.0	2.5	/experiments/knapen_AOT/AOT_stimuli/rescaled_final/0891_rv.mp4	0.0	357.56192803382874	
81	340.4424960613251	fix_post	2		12	79.0	2.5	/experiments/knapen_AOT/AOT_stimuli/rescaled_final/0891_rv.mp4	0.0	358.0703010559082	0.09976983070373535
82	340.5422658920288	fix_pre	0		120	80.0	2.5	/experiments/knapen_AOT/AOT_stimuli/rescaled_final/0148_fw.mp4	0.0	358.17007088661194	1.0001921653747559
82	341.5343520641327	pulse	0	t		80.0	2.5	/experiments/knapen_AOT/AOT_stimuli/rescaled_final/0148_fw.mp4	0.0	359.1621570587158	
82	341.54245805740356	movie	1		244	80.0	2.5	/experiments/knapen_AOT/AOT_stimuli/rescaled_final/0148_fw.mp4	0.0	359.1702630519867	2.5088629722595215
82	343.13589692115784	pulse	1	t		80.0	2.5	/experiments/knapen_AOT/AOT_stimuli/rescaled_final/0148_fw.mp4	0.0	360.76370191574097	
82	344.0513210296631	fix_post	2		12	80.0	2.5	/experiments/knapen_AOT/AOT_stimuli/rescaled_final/0148_fw.mp4	0.0	361.6791260242462	0.09983587265014648
83	344.15115690231323	fix_pre	0		120	81.0	2.5	/experiments/knapen_AOT/AOT_stimuli/rescaled_final/0480_rv.mp4	0.0	361.77896189689636	1.0001511573791504
83	344.73484110832214	pulse	0	t		81.0	2.5	/experiments/knapen_AOT/AOT_stimuli/rescaled_final/0480_rv.mp4	0.0	362.3626461029053	
83	345.1513080596924	movie	1		244	81.0	2.5	/experiments/knapen_AOT/AOT_stimuli/rescaled_final/0480_rv.mp4	0.0	362.7791130542755	2.50042986869812
83	346.33507108688354	pulse	1	t		81.0	2.5	/experiments/knapen_AOT/AOT_stimuli/rescaled_final/0480_rv.mp4	0.0	363.9628760814667	
83	347.6517379283905	fix_post	2		12	81.0	2.5	/experiments/knapen_AOT/AOT_stimuli/rescaled_final/0480_rv.mp4	0.0	365.27954292297363	0.09999418258666992
84	347.7517321109772	fix_pre	0		120	82.0	2.5	/experiments/knapen_AOT/AOT_stimuli/rescaled_final/2090_fw.mp4	0.0	365.3795371055603	1.0001099109649658
84	347.93522596359253	pulse	0	t		82.0	2.5	/experiments/knapen_AOT/AOT_stimuli/rescaled_final/2090_fw.mp4	0.0	365.56303095817566	
84	348.75184202194214	movie	1		244	82.0	2.5	/experiments/knapen_AOT/AOT_stimuli/rescaled_final/2090_fw.mp4	0.0	366.37964701652527	2.5003740787506104
84	349.5354890823364	pulse	1	t		82.0	2.5	/experiments/knapen_AOT/AOT_stimuli/rescaled_final/2090_fw.mp4	0.0	367.16329407691956	
84	351.1360991001129	pulse	1	t		82.0	2.5	/experiments/knapen_AOT/AOT_stimuli/rescaled_final/2090_fw.mp4	0.0	368.76390409469604	
84	351.25221610069275	fix_post	2		12	82.0	2.5	/experiments/knapen_AOT/AOT_stimuli/rescaled_final/2090_fw.mp4	0.0	368.8800210952759	0.09999489784240723
85	351.35221099853516	fix_pre	0		120	83.0	2.5	blank	1.0	368.9800159931183	1.0001559257507324
85	352.3523669242859	movie	1		299	83.0	2.5	blank	1.0	369.980171918869	2.4921000003814697
85	352.7360179424286	pulse	1	t		83.0	2.5	blank	1.0	370.3638229370117	
85	354.3362228870392	pulse	1	t		83.0	2.5	blank	1.0	371.9640278816223	
85	354.84446692466736	fix_post	2		12	83.0	2.5	blank	1.0	372.4722719192505	0.09995508193969727
87	354.94442200660706	stim	0		1716					372.5722270011902	14.30223298072815
87	355.92903995513916	pulse	0	t						373.5568449497223	
87	357.5293378829956	pulse	0	t						375.15714287757874	
87	359.12954211235046	pulse	0	t						376.7573471069336	
87	360.72978806495667	pulse	0	t						378.3575930595398	
87	362.32909297943115	pulse	0	t						379.9568979740143	
87	363.9292390346527	pulse	0	t						381.55704402923584	
87	365.52946305274963	pulse	0	t						383.15726804733276	
87	367.12968397140503	pulse	0	t						384.75748896598816	
87	368.7300260066986	pulse	0	t						386.35783100128174	
