trial_nr	onset	event_type	phase	response	nr_frames	movie_index	movie_duration	movie_file	blank	onset_abs	duration
0	0.12500309944152832	stim	0		35					37.427590131759644	0.2915768623352051
0	0.408581018447876	response	0	space						37.71116805076599	
1	0.4165799617767334	stim	0		4737					37.71916699409485	39.48310899734497
1	39.8883171081543	pulse	0	t						77.19090414047241	
1	39.899688959121704	stim	1		1716					77.20227599143982	14.299646139144897
1	41.483139991760254	pulse	1	t						78.78572702407837	
1	43.083165884017944	pulse	1	t						80.38575291633606	
1	44.68313694000244	pulse	1	t						81.98572397232056	
1	46.28321290016174	pulse	1	t						83.58579993247986	
1	47.88321089744568	pulse	1	t						85.1857979297638	
1	49.48318409919739	pulse	1	t						86.7857711315155	
1	51.083126068115234	pulse	1	t						88.38571310043335	
1	52.68340706825256	pulse	1	t						89.98599410057068	
2	54.1993350982666	fix_pre	0		11	0.0	2.5	/experiments/AOT/AOT_stimuli/rescaled_final/0868_fw.mp4	0.0	91.50192213058472	0.0917208194732666
2	54.282954931259155	pulse	0	t		0.0	2.5	/experiments/AOT/AOT_stimuli/rescaled_final/0868_fw.mp4	0.0	91.58554196357727	
2	54.29105591773987	movie	1		243	0.0	2.5	/experiments/AOT/AOT_stimuli/rescaled_final/0868_fw.mp4	0.0	91.59364295005798	2.5086941719055176
2	55.891480922698975	pulse	1	t		0.0	2.5	/experiments/AOT/AOT_stimuli/rescaled_final/0868_fw.mp4	0.0	93.19406795501709	
2	56.799750089645386	fix_post	2		12	0.0	2.5	/experiments/AOT/AOT_stimuli/rescaled_final/0868_fw.mp4	0.0	94.1023371219635	0.09987998008728027
3	56.899630069732666	fix_pre	0		120	1.0	2.5	/experiments/AOT/AOT_stimuli/rescaled_final/0565_rv.mp4	0.0	94.20221710205078	0.9995698928833008
3	57.48316311836243	pulse	0	t		1.0	2.5	/experiments/AOT/AOT_stimuli/rescaled_final/0565_rv.mp4	0.0	94.78575015068054	
3	57.89919996261597	movie	1		244	1.0	2.5	/experiments/AOT/AOT_stimuli/rescaled_final/0565_rv.mp4	0.0	95.20178699493408	2.5003271102905273
3	59.08312702178955	pulse	1	t		1.0	2.5	/experiments/AOT/AOT_stimuli/rescaled_final/0565_rv.mp4	0.0	96.38571405410767	
3	60.399527072906494	fix_post	2		12	1.0	2.5	/experiments/AOT/AOT_stimuli/rescaled_final/0565_rv.mp4	0.0	97.70211410522461	0.10020995140075684
4	60.49973702430725	fix_pre	0		120	2.0	2.5	/experiments/AOT/AOT_stimuli/rescaled_final/0880_rv.mp4	0.0	97.80232405662537	0.9998219013214111
4	60.683104038238525	pulse	0	t		2.0	2.5	/experiments/AOT/AOT_stimuli/rescaled_final/0880_rv.mp4	0.0	97.98569107055664	
4	61.49955892562866	movie	1		244	2.0	2.5	/experiments/AOT/AOT_stimuli/rescaled_final/0880_rv.mp4	0.0	98.80214595794678	2.499967098236084
4	62.2829749584198	pulse	1	t		2.0	2.5	/experiments/AOT/AOT_stimuli/rescaled_final/0880_rv.mp4	0.0	99.58556199073792	
4	63.8914520740509	pulse	1	t		2.0	2.5	/experiments/AOT/AOT_stimuli/rescaled_final/0880_rv.mp4	0.0	101.19403910636902	
4	63.999526023864746	fix_post	2		12	2.0	2.5	/experiments/AOT/AOT_stimuli/rescaled_final/0880_rv.mp4	0.0	101.30211305618286	0.09999203681945801
5	64.0995180606842	fix_pre	0		120	3.0	2.5	/experiments/AOT/AOT_stimuli/rescaled_final/1100_fw.mp4	0.0	101.40210509300232	0.9999749660491943
5	65.0994930267334	movie	1		243	3.0	2.5	/experiments/AOT/AOT_stimuli/rescaled_final/1100_fw.mp4	0.0	102.40208005905151	2.499650001525879
5	65.4914140701294	pulse	1	t		3.0	2.5	/experiments/AOT/AOT_stimuli/rescaled_final/1100_fw.mp4	0.0	102.79400110244751	
5	67.0830409526825	pulse	1	t		3.0	2.5	/experiments/AOT/AOT_stimuli/rescaled_final/1100_fw.mp4	0.0	104.38562798500061	
5	67.59914302825928	fix_post	2		12	3.0	2.5	/experiments/AOT/AOT_stimuli/rescaled_final/1100_fw.mp4	0.0	104.90173006057739	0.10036492347717285
6	67.69950795173645	fix_pre	0		119	4.0	2.5	/experiments/AOT/AOT_stimuli/rescaled_final/0015_rv.mp4	0.0	105.00209498405457	0.9916410446166992
6	68.68308997154236	pulse	0	t		4.0	2.5	/experiments/AOT/AOT_stimuli/rescaled_final/0015_rv.mp4	0.0	105.98567700386047	
6	68.69114899635315	movie	1		245	4.0	2.5	/experiments/AOT/AOT_stimuli/rescaled_final/0015_rv.mp4	0.0	105.99373602867126	2.508419990539551
6	70.29141902923584	pulse	1	t		4.0	2.5	/experiments/AOT/AOT_stimuli/rescaled_final/0015_rv.mp4	0.0	107.59400606155396	
6	71.1995689868927	fix_post	2		12	4.0	2.5	/experiments/AOT/AOT_stimuli/rescaled_final/0015_rv.mp4	0.0	108.50215601921082	0.09993410110473633
7	71.29950308799744	fix_pre	0		120	5.0	2.5	blank	1.0	108.60209012031555	1.0000088214874268
7	71.88305807113647	pulse	0	t		5.0	2.5	blank	1.0	109.18564510345459	
7	72.29951190948486	movie	1		300	5.0	2.5	blank	1.0	109.60209894180298	2.5000481605529785
7	73.48304390907288	pulse	1	t		5.0	2.5	blank	1.0	110.78563094139099	
7	74.79956007003784	fix_post	2		12	5.0	2.5	blank	1.0	112.10214710235596	0.09993791580200195
8	74.89949798583984	fix_pre	0		120	6.0	2.5	/experiments/AOT/AOT_stimuli/rescaled_final/1024_fw.mp4	0.0	112.20208501815796	1.000025987625122
8	75.08313703536987	pulse	0	t		6.0	2.5	/experiments/AOT/AOT_stimuli/rescaled_final/1024_fw.mp4	0.0	112.38572406768799	
8	75.89952397346497	movie	1		243	6.0	2.5	/experiments/AOT/AOT_stimuli/rescaled_final/1024_fw.mp4	0.0	113.20211100578308	2.49953293800354
8	76.68300795555115	pulse	1	t		6.0	2.5	/experiments/AOT/AOT_stimuli/rescaled_final/1024_fw.mp4	0.0	113.98559498786926	
8	78.29145002365112	pulse	1	t		6.0	2.5	/experiments/AOT/AOT_stimuli/rescaled_final/1024_fw.mp4	0.0	115.59403705596924	
8	78.3990569114685	fix_post	2		12	6.0	2.5	/experiments/AOT/AOT_stimuli/rescaled_final/1024_fw.mp4	0.0	115.70164394378662	0.1003561019897461
9	78.49941301345825	fix_pre	0		120	7.0	2.5	/experiments/AOT/AOT_stimuli/rescaled_final/1245_fw.mp4	0.0	115.80200004577637	0.9996728897094727
9	79.49908590316772	movie	1		242	7.0	2.5	/experiments/AOT/AOT_stimuli/rescaled_final/1245_fw.mp4	0.0	116.80167293548584	2.49997615814209
9	79.88286399841309	pulse	1	t		7.0	2.5	/experiments/AOT/AOT_stimuli/rescaled_final/1245_fw.mp4	0.0	117.1854510307312	
9	81.48397302627563	pulse	1	t		7.0	2.5	/experiments/AOT/AOT_stimuli/rescaled_final/1245_fw.mp4	0.0	118.78656005859375	
9	81.99906206130981	fix_post	2		12	7.0	2.5	/experiments/AOT/AOT_stimuli/rescaled_final/1245_fw.mp4	0.0	119.30164909362793	0.10040092468261719
10	82.09946298599243	fix_pre	0		120	8.0	2.5	/experiments/AOT/AOT_stimuli/rescaled_final/1069_rv.mp4	0.0	119.40205001831055	1.0001039505004883
10	83.08372092247009	pulse	0	t		8.0	2.5	/experiments/AOT/AOT_stimuli/rescaled_final/1069_rv.mp4	0.0	120.38630795478821	
10	83.09956693649292	movie	1		244	8.0	2.5	/experiments/AOT/AOT_stimuli/rescaled_final/1069_rv.mp4	0.0	120.40215396881104	2.5082101821899414
10	84.69100594520569	pulse	1	t		8.0	2.5	/experiments/AOT/AOT_stimuli/rescaled_final/1069_rv.mp4	0.0	121.9935929775238	
10	85.60777711868286	fix_post	2		12	8.0	2.5	/experiments/AOT/AOT_stimuli/rescaled_final/1069_rv.mp4	0.0	122.91036415100098	0.09999799728393555
11	85.7077751159668	fix_pre	0		120	9.0	2.5	/experiments/AOT/AOT_stimuli/rescaled_final/1924_rv.mp4	0.0	123.01036214828491	1.0000338554382324
11	86.282958984375	pulse	0	t		9.0	2.5	/experiments/AOT/AOT_stimuli/rescaled_final/1924_rv.mp4	0.0	123.58554601669312	
11	86.70780897140503	movie	1		244	9.0	2.5	/experiments/AOT/AOT_stimuli/rescaled_final/1924_rv.mp4	0.0	124.01039600372314	2.49993896484375
11	87.8842248916626	pulse	1	t		9.0	2.5	/experiments/AOT/AOT_stimuli/rescaled_final/1924_rv.mp4	0.0	125.18681192398071	
11	89.20774793624878	fix_post	2		12	9.0	2.5	/experiments/AOT/AOT_stimuli/rescaled_final/1924_rv.mp4	0.0	126.5103349685669	0.10001802444458008
12	89.30776596069336	fix_pre	0		120	10.0	2.5	/experiments/AOT/AOT_stimuli/rescaled_final/2118_rv.mp4	0.0	126.61035299301147	0.9999830722808838
12	89.48290300369263	pulse	0	t		10.0	2.5	/experiments/AOT/AOT_stimuli/rescaled_final/2118_rv.mp4	0.0	126.78549003601074	
12	90.30774903297424	movie	1		244	10.0	2.5	/experiments/AOT/AOT_stimuli/rescaled_final/2118_rv.mp4	0.0	127.61033606529236	2.500174045562744
12	91.08280992507935	pulse	1	t		10.0	2.5	/experiments/AOT/AOT_stimuli/rescaled_final/2118_rv.mp4	0.0	128.38539695739746	
12	92.68250489234924	pulse	1	t		10.0	2.5	/experiments/AOT/AOT_stimuli/rescaled_final/2118_rv.mp4	0.0	129.98509192466736	
12	92.80792307853699	fix_post	2		12	10.0	2.5	/experiments/AOT/AOT_stimuli/rescaled_final/2118_rv.mp4	0.0	130.1105101108551	0.09953784942626953
13	92.90746092796326	fix_pre	0		120	11.0	2.5	/experiments/AOT/AOT_stimuli/rescaled_final/1637_rv.mp4	0.0	130.21004796028137	0.9998700618743896
13	93.90733098983765	movie	1		244	11.0	2.5	/experiments/AOT/AOT_stimuli/rescaled_final/1637_rv.mp4	0.0	131.20991802215576	2.500401020050049
13	94.28294396400452	pulse	1	t		11.0	2.5	/experiments/AOT/AOT_stimuli/rescaled_final/1637_rv.mp4	0.0	131.58553099632263	
13	95.88297009468079	pulse	1	t		11.0	2.5	/experiments/AOT/AOT_stimuli/rescaled_final/1637_rv.mp4	0.0	133.1855571269989	
13	96.4077320098877	fix_post	2		12	11.0	2.5	/experiments/AOT/AOT_stimuli/rescaled_final/1637_rv.mp4	0.0	133.7103190422058	0.09999203681945801
14	96.50772404670715	fix_pre	0		119	12.0	2.5	/experiments/AOT/AOT_stimuli/rescaled_final/1118_rv.mp4	0.0	133.81031107902527	0.9916620254516602
14	97.4838330745697	pulse	0	t		12.0	2.5	/experiments/AOT/AOT_stimuli/rescaled_final/1118_rv.mp4	0.0	134.78642010688782	
14	97.49938607215881	movie	1		243	12.0	2.5	/experiments/AOT/AOT_stimuli/rescaled_final/1118_rv.mp4	0.0	134.80197310447693	2.5079569816589355
14	99.09254908561707	pulse	1	t		12.0	2.5	/experiments/AOT/AOT_stimuli/rescaled_final/1118_rv.mp4	0.0	136.39513611793518	
14	100.00734305381775	fix_post	2		12	12.0	2.5	/experiments/AOT/AOT_stimuli/rescaled_final/1118_rv.mp4	0.0	137.30993008613586	0.10036396980285645
15	100.1077070236206	fix_pre	0		120	13.0	2.5	blank	1.0	137.41029405593872	1.0001099109649658
15	100.68365907669067	pulse	0	t		13.0	2.5	blank	1.0	137.9862461090088	
15	101.10781693458557	movie	1		300	13.0	2.5	blank	1.0	138.4104039669037	2.499907970428467
15	102.28290700912476	pulse	1	t		13.0	2.5	blank	1.0	139.58549404144287	
15	103.60772490501404	fix_post	2		12	13.0	2.5	blank	1.0	140.91031193733215	0.09995102882385254
16	103.70767593383789	fix_pre	0		120	14.0	2.5	/experiments/AOT/AOT_stimuli/rescaled_final/1764_fw.mp4	0.0	141.010262966156	0.9999990463256836
16	103.88292598724365	pulse	0	t		14.0	2.5	/experiments/AOT/AOT_stimuli/rescaled_final/1764_fw.mp4	0.0	141.18551301956177	
16	104.70767498016357	movie	1		244	14.0	2.5	/experiments/AOT/AOT_stimuli/rescaled_final/1764_fw.mp4	0.0	142.0102620124817	2.4995789527893066
16	105.48286604881287	pulse	1	t		14.0	2.5	/experiments/AOT/AOT_stimuli/rescaled_final/1764_fw.mp4	0.0	142.78545308113098	
16	107.082839012146	pulse	1	t		14.0	2.5	/experiments/AOT/AOT_stimuli/rescaled_final/1764_fw.mp4	0.0	144.3854260444641	
16	107.20725393295288	fix_post	2		12	14.0	2.5	/experiments/AOT/AOT_stimuli/rescaled_final/1764_fw.mp4	0.0	144.509840965271	0.10006499290466309
17	107.30731892585754	fix_pre	0		120	15.0	2.5	/experiments/AOT/AOT_stimuli/rescaled_final/2113_rv.mp4	0.0	144.60990595817566	1.0003960132598877
17	108.30771493911743	movie	1		244	15.0	2.5	/experiments/AOT/AOT_stimuli/rescaled_final/2113_rv.mp4	0.0	145.61030197143555	2.5002691745758057
17	108.69027090072632	pulse	1	t		15.0	2.5	/experiments/AOT/AOT_stimuli/rescaled_final/2113_rv.mp4	0.0	145.99285793304443	
17	110.2830240726471	pulse	1	t		15.0	2.5	/experiments/AOT/AOT_stimuli/rescaled_final/2113_rv.mp4	0.0	147.5856111049652	
17	110.80798411369324	fix_post	2		12	15.0	2.5	/experiments/AOT/AOT_stimuli/rescaled_final/2113_rv.mp4	0.0	148.11057114601135	0.09963798522949219
18	110.90762209892273	fix_pre	0		118	16.0	2.5	/experiments/AOT/AOT_stimuli/rescaled_final/0087_rv.mp4	0.0	148.21020913124084	0.9834589958190918
18	111.8828010559082	pulse	0	t		16.0	2.5	/experiments/AOT/AOT_stimuli/rescaled_final/0087_rv.mp4	0.0	149.18538808822632	
18	111.89108109474182	movie	1		245	16.0	2.5	/experiments/AOT/AOT_stimuli/rescaled_final/0087_rv.mp4	0.0	149.19366812705994	2.508206844329834
18	113.49116611480713	pulse	1	t		16.0	2.5	/experiments/AOT/AOT_stimuli/rescaled_final/0087_rv.mp4	0.0	150.79375314712524	
18	114.39928793907166	fix_post	2		12	16.0	2.5	/experiments/AOT/AOT_stimuli/rescaled_final/0087_rv.mp4	0.0	151.70187497138977	0.10008907318115234
19	114.49937701225281	fix_pre	0		120	17.0	2.5	/experiments/AOT/AOT_stimuli/rescaled_final/0993_fw.mp4	0.0	151.80196404457092	0.9999408721923828
19	115.0837790966034	pulse	0	t		17.0	2.5	/experiments/AOT/AOT_stimuli/rescaled_final/0993_fw.mp4	0.0	152.3863661289215	
19	115.49931788444519	movie	1		245	17.0	2.5	/experiments/AOT/AOT_stimuli/rescaled_final/0993_fw.mp4	0.0	152.8019049167633	2.4998891353607178
19	116.68385601043701	pulse	1	t		17.0	2.5	/experiments/AOT/AOT_stimuli/rescaled_final/0993_fw.mp4	0.0	153.98644304275513	
19	117.99920701980591	fix_post	2		12	17.0	2.5	/experiments/AOT/AOT_stimuli/rescaled_final/0993_fw.mp4	0.0	155.30179405212402	0.10002899169921875
20	118.09923601150513	fix_pre	0		120	18.0	2.5	/experiments/AOT/AOT_stimuli/rescaled_final/1565_rv.mp4	0.0	155.40182304382324	0.9999520778656006
20	118.28354692459106	pulse	0	t		18.0	2.5	/experiments/AOT/AOT_stimuli/rescaled_final/1565_rv.mp4	0.0	155.58613395690918	
20	119.09918808937073	movie	1		246	18.0	2.5	/experiments/AOT/AOT_stimuli/rescaled_final/1565_rv.mp4	0.0	156.40177512168884	2.5000338554382324
20	119.88362002372742	pulse	1	t		18.0	2.5	/experiments/AOT/AOT_stimuli/rescaled_final/1565_rv.mp4	0.0	157.18620705604553	
20	121.49135398864746	pulse	1	t		18.0	2.5	/experiments/AOT/AOT_stimuli/rescaled_final/1565_rv.mp4	0.0	158.79394102096558	
20	121.59922194480896	fix_post	2		12	18.0	2.5	/experiments/AOT/AOT_stimuli/rescaled_final/1565_rv.mp4	0.0	158.90180897712708	0.09996414184570312
21	121.69918608665466	fix_pre	0		120	19.0	2.5	blank	1.0	159.00177311897278	1.000079870223999
21	122.69926595687866	movie	1		300	19.0	2.5	blank	1.0	160.00185298919678	2.499993085861206
21	123.08271408081055	pulse	1	t		19.0	2.5	blank	1.0	160.38530111312866	
21	124.68263792991638	pulse	1	t		19.0	2.5	blank	1.0	161.9852249622345	
21	125.19925904273987	fix_post	2		12	19.0	2.5	blank	1.0	162.50184607505798	0.10001206398010254
22	125.29927110671997	fix_pre	0		119	20.0	2.5	/experiments/AOT/AOT_stimuli/rescaled_final/1589_rv.mp4	0.0	162.6018581390381	0.9918298721313477
22	126.28277611732483	pulse	0	t		20.0	2.5	/experiments/AOT/AOT_stimuli/rescaled_final/1589_rv.mp4	0.0	163.58536314964294	
22	126.29110097885132	movie	1		245	20.0	2.5	/experiments/AOT/AOT_stimuli/rescaled_final/1589_rv.mp4	0.0	163.59368801116943	2.508134126663208
22	127.89114809036255	pulse	1	t		20.0	2.5	/experiments/AOT/AOT_stimuli/rescaled_final/1589_rv.mp4	0.0	165.19373512268066	
22	128.79923510551453	fix_post	2		12	20.0	2.5	/experiments/AOT/AOT_stimuli/rescaled_final/1589_rv.mp4	0.0	166.10182213783264	0.0999457836151123
23	128.89918088912964	fix_pre	0		120	21.0	2.5	/experiments/AOT/AOT_stimuli/rescaled_final/0031_rv.mp4	0.0	166.20176792144775	1.0000221729278564
23	129.48351311683655	pulse	0	t		21.0	2.5	/experiments/AOT/AOT_stimuli/rescaled_final/0031_rv.mp4	0.0	166.78610014915466	
23	129.8992030620575	movie	1		244	21.0	2.5	/experiments/AOT/AOT_stimuli/rescaled_final/0031_rv.mp4	0.0	167.2017900943756	2.4999899864196777
23	131.08365106582642	pulse	1	t		21.0	2.5	/experiments/AOT/AOT_stimuli/rescaled_final/0031_rv.mp4	0.0	168.38623809814453	
23	132.39919304847717	fix_post	2		12	21.0	2.5	/experiments/AOT/AOT_stimuli/rescaled_final/0031_rv.mp4	0.0	169.7017800807953	0.09960198402404785
24	132.49879503250122	fix_pre	0		120	22.0	2.5	/experiments/AOT/AOT_stimuli/rescaled_final/0930_fw.mp4	0.0	169.80138206481934	1.0003459453582764
24	132.68352103233337	pulse	0	t		22.0	2.5	/experiments/AOT/AOT_stimuli/rescaled_final/0930_fw.mp4	0.0	169.9861080646515	
24	133.4991409778595	movie	1		243	22.0	2.5	/experiments/AOT/AOT_stimuli/rescaled_final/0930_fw.mp4	0.0	170.8017280101776	2.4999899864196777
24	134.28355407714844	pulse	1	t		22.0	2.5	/experiments/AOT/AOT_stimuli/rescaled_final/0930_fw.mp4	0.0	171.58614110946655	
24	135.89105105400085	pulse	1	t		22.0	2.5	/experiments/AOT/AOT_stimuli/rescaled_final/0930_fw.mp4	0.0	173.19363808631897	
24	135.99913096427917	fix_post	2		12	22.0	2.5	/experiments/AOT/AOT_stimuli/rescaled_final/0930_fw.mp4	0.0	173.3017179965973	0.1000680923461914
25	136.09919905662537	fix_pre	0		120	23.0	2.5	/experiments/AOT/AOT_stimuli/rescaled_final/1320_fw.mp4	0.0	173.40178608894348	1.0000159740447998
25	137.09921503067017	movie	1		245	23.0	2.5	/experiments/AOT/AOT_stimuli/rescaled_final/1320_fw.mp4	0.0	174.40180206298828	2.4995439052581787
25	137.49107599258423	pulse	1	t		23.0	2.5	/experiments/AOT/AOT_stimuli/rescaled_final/1320_fw.mp4	0.0	174.79366302490234	
25	139.0826759338379	pulse	1	t		23.0	2.5	/experiments/AOT/AOT_stimuli/rescaled_final/1320_fw.mp4	0.0	176.385262966156	
25	139.59875893592834	fix_post	2		12	23.0	2.5	/experiments/AOT/AOT_stimuli/rescaled_final/1320_fw.mp4	0.0	176.90134596824646	0.10038018226623535
26	139.69913911819458	fix_pre	0		119	24.0	2.5	/experiments/AOT/AOT_stimuli/rescaled_final/0995_fw.mp4	0.0	177.0017261505127	0.9918029308319092
26	140.68279004096985	pulse	0	t		24.0	2.5	/experiments/AOT/AOT_stimuli/rescaled_final/0995_fw.mp4	0.0	177.98537707328796	
26	140.6909420490265	movie	1		247	24.0	2.5	/experiments/AOT/AOT_stimuli/rescaled_final/0995_fw.mp4	0.0	177.9935290813446	2.5078060626983643
26	142.2911078929901	pulse	1	t		24.0	2.5	/experiments/AOT/AOT_stimuli/rescaled_final/0995_fw.mp4	0.0	179.59369492530823	
26	143.19874811172485	fix_post	2		12	24.0	2.5	/experiments/AOT/AOT_stimuli/rescaled_final/0995_fw.mp4	0.0	180.50133514404297	0.10042691230773926
27	143.2991750240326	fix_pre	0		120	25.0	2.5	/experiments/AOT/AOT_stimuli/rescaled_final/0420_rv.mp4	0.0	180.6017620563507	1.0000379085540771
27	143.88270902633667	pulse	0	t		25.0	2.5	/experiments/AOT/AOT_stimuli/rescaled_final/0420_rv.mp4	0.0	181.18529605865479	
27	144.29921293258667	movie	1		246	25.0	2.5	/experiments/AOT/AOT_stimuli/rescaled_final/0420_rv.mp4	0.0	181.60179996490479	2.499955177307129
27	145.48380303382874	pulse	1	t		25.0	2.5	/experiments/AOT/AOT_stimuli/rescaled_final/0420_rv.mp4	0.0	182.78639006614685	
27	146.7991681098938	fix_post	2		12	25.0	2.5	/experiments/AOT/AOT_stimuli/rescaled_final/0420_rv.mp4	0.0	184.1017551422119	0.09998679161071777
28	146.89915490150452	fix_pre	0		120	26.0	2.5	/experiments/AOT/AOT_stimuli/rescaled_final/0827_rv.mp4	0.0	184.20174193382263	1.0000791549682617
28	147.08348608016968	pulse	0	t		26.0	2.5	/experiments/AOT/AOT_stimuli/rescaled_final/0827_rv.mp4	0.0	184.3860731124878	
28	147.89923405647278	movie	1		247	26.0	2.5	/experiments/AOT/AOT_stimuli/rescaled_final/0827_rv.mp4	0.0	185.2018210887909	2.499924898147583
28	148.68352389335632	pulse	1	t		26.0	2.5	/experiments/AOT/AOT_stimuli/rescaled_final/0827_rv.mp4	0.0	185.98611092567444	
28	150.2872519493103	pulse	1	t		26.0	2.5	/experiments/AOT/AOT_stimuli/rescaled_final/0827_rv.mp4	0.0	187.58983898162842	
28	150.39915895462036	fix_post	2		12	26.0	2.5	/experiments/AOT/AOT_stimuli/rescaled_final/0827_rv.mp4	0.0	187.70174598693848	0.09996700286865234
29	150.499125957489	fix_pre	0		120	27.0	2.5	/experiments/AOT/AOT_stimuli/rescaled_final/1546_rv.mp4	0.0	187.80171298980713	1.0000510215759277
29	151.49917697906494	movie	1		243	27.0	2.5	/experiments/AOT/AOT_stimuli/rescaled_final/1546_rv.mp4	0.0	188.80176401138306	2.4999759197235107
29	151.89110708236694	pulse	1	t		27.0	2.5	/experiments/AOT/AOT_stimuli/rescaled_final/1546_rv.mp4	0.0	189.19369411468506	
29	153.48339796066284	pulse	1	t		27.0	2.5	/experiments/AOT/AOT_stimuli/rescaled_final/1546_rv.mp4	0.0	190.78598499298096	
29	153.99915289878845	fix_post	2		12	27.0	2.5	/experiments/AOT/AOT_stimuli/rescaled_final/1546_rv.mp4	0.0	191.30173993110657	0.09995222091674805
30	154.0991051197052	fix_pre	0		120	28.0	2.5	blank	1.0	191.40169215202332	0.9999799728393555
30	155.0834150314331	pulse	0	t		28.0	2.5	blank	1.0	192.38600206375122	
30	155.09908509254456	movie	1		301	28.0	2.5	blank	1.0	192.40167212486267	2.5083158016204834
30	156.68263506889343	pulse	1	t		28.0	2.5	blank	1.0	193.98522210121155	
30	157.60740089416504	fix_post	2		12	28.0	2.5	blank	1.0	194.90998792648315	0.09962010383605957
31	157.7070209980011	fix_pre	0		120	29.0	2.5	/experiments/AOT/AOT_stimuli/rescaled_final/1999_fw.mp4	0.0	195.0096080303192	1.0003869533538818
31	158.28260588645935	pulse	0	t		29.0	2.5	/experiments/AOT/AOT_stimuli/rescaled_final/1999_fw.mp4	0.0	195.58519291877747	
31	158.70740795135498	movie	1		243	29.0	2.5	/experiments/AOT/AOT_stimuli/rescaled_final/1999_fw.mp4	0.0	196.0099949836731	2.4999730587005615
31	159.89098596572876	pulse	1	t		29.0	2.5	/experiments/AOT/AOT_stimuli/rescaled_final/1999_fw.mp4	0.0	197.19357299804688	
31	161.20738101005554	fix_post	2		12	29.0	2.5	/experiments/AOT/AOT_stimuli/rescaled_final/1999_fw.mp4	0.0	198.50996804237366	0.09995603561401367
32	161.30733704566956	fix_pre	0		120	30.0	2.5	/experiments/AOT/AOT_stimuli/rescaled_final/1319_fw.mp4	0.0	198.60992407798767	1.0000669956207275
32	161.4836390018463	pulse	0	t		30.0	2.5	/experiments/AOT/AOT_stimuli/rescaled_final/1319_fw.mp4	0.0	198.78622603416443	
32	162.30740404129028	movie	1		247	30.0	2.5	/experiments/AOT/AOT_stimuli/rescaled_final/1319_fw.mp4	0.0	199.6099910736084	2.4999780654907227
32	163.08331608772278	pulse	1	t		30.0	2.5	/experiments/AOT/AOT_stimuli/rescaled_final/1319_fw.mp4	0.0	200.3859031200409	
32	164.6864309310913	pulse	1	t		30.0	2.5	/experiments/AOT/AOT_stimuli/rescaled_final/1319_fw.mp4	0.0	201.98901796340942	
32	164.807382106781	fix_post	2		12	30.0	2.5	/experiments/AOT/AOT_stimuli/rescaled_final/1319_fw.mp4	0.0	202.10996913909912	0.09964680671691895
33	164.90702891349792	fix_pre	0		120	31.0	2.5	/experiments/AOT/AOT_stimuli/rescaled_final/0909_rv.mp4	0.0	202.20961594581604	1.0001611709594727
33	165.9071900844574	movie	1		248	31.0	2.5	/experiments/AOT/AOT_stimuli/rescaled_final/0909_rv.mp4	0.0	203.2097771167755	2.4997518062591553
33	166.29102301597595	pulse	1	t		31.0	2.5	/experiments/AOT/AOT_stimuli/rescaled_final/0909_rv.mp4	0.0	203.59361004829407	
33	167.88350701332092	pulse	1	t		31.0	2.5	/experiments/AOT/AOT_stimuli/rescaled_final/0909_rv.mp4	0.0	205.18609404563904	
33	168.40694189071655	fix_post	2		12	31.0	2.5	/experiments/AOT/AOT_stimuli/rescaled_final/0909_rv.mp4	0.0	205.70952892303467	0.10047006607055664
34	168.5074119567871	fix_pre	0		119	32.0	2.5	/experiments/AOT/AOT_stimuli/rescaled_final/0555_rv.mp4	0.0	205.80999898910522	0.9916880130767822
34	169.48335909843445	pulse	0	t		32.0	2.5	/experiments/AOT/AOT_stimuli/rescaled_final/0555_rv.mp4	0.0	206.78594613075256	
34	169.4990999698639	movie	1		246	32.0	2.5	/experiments/AOT/AOT_stimuli/rescaled_final/0555_rv.mp4	0.0	206.801687002182	2.5081961154937744
34	171.09057807922363	pulse	1	t		32.0	2.5	/experiments/AOT/AOT_stimuli/rescaled_final/0555_rv.mp4	0.0	208.39316511154175	
34	172.00729608535767	fix_post	2		12	32.0	2.5	/experiments/AOT/AOT_stimuli/rescaled_final/0555_rv.mp4	0.0	209.30988311767578	0.10003089904785156
35	172.10732698440552	fix_pre	0		120	33.0	2.5	/experiments/AOT/AOT_stimuli/rescaled_final/0830_fw.mp4	0.0	209.40991401672363	0.9999849796295166
35	172.6833119392395	pulse	0	t		33.0	2.5	/experiments/AOT/AOT_stimuli/rescaled_final/0830_fw.mp4	0.0	209.98589897155762	
35	173.10731196403503	movie	1		244	33.0	2.5	/experiments/AOT/AOT_stimuli/rescaled_final/0830_fw.mp4	0.0	210.40989899635315	2.499652147293091
35	174.29082894325256	pulse	1	t		33.0	2.5	/experiments/AOT/AOT_stimuli/rescaled_final/0830_fw.mp4	0.0	211.59341597557068	
35	175.60696411132812	fix_post	2		12	33.0	2.5	/experiments/AOT/AOT_stimuli/rescaled_final/0830_fw.mp4	0.0	212.90955114364624	0.10033178329467773
36	175.7072958946228	fix_pre	0		120	34.0	2.5	blank	1.0	213.00988292694092	1.0000572204589844
36	175.88249802589417	pulse	0	t		34.0	2.5	blank	1.0	213.18508505821228	
36	176.7073531150818	movie	1		300	34.0	2.5	blank	1.0	214.0099401473999	2.499929904937744
36	177.4833540916443	pulse	1	t		34.0	2.5	blank	1.0	214.7859411239624	
36	179.0832540988922	pulse	1	t		34.0	2.5	blank	1.0	216.38584113121033	
36	179.20728302001953	fix_post	2		12	34.0	2.5	blank	1.0	216.50987005233765	0.09999299049377441
37	179.3072760105133	fix_pre	0		120	35.0	2.5	/experiments/AOT/AOT_stimuli/rescaled_final/0869_rv.mp4	0.0	216.60986304283142	0.9995760917663574
37	180.30685210227966	movie	1		245	35.0	2.5	/experiments/AOT/AOT_stimuli/rescaled_final/0869_rv.mp4	0.0	217.60943913459778	2.5000228881835938
37	180.69045400619507	pulse	1	t		35.0	2.5	/experiments/AOT/AOT_stimuli/rescaled_final/0869_rv.mp4	0.0	217.99304103851318	
37	182.28340911865234	pulse	1	t		35.0	2.5	/experiments/AOT/AOT_stimuli/rescaled_final/0869_rv.mp4	0.0	219.58599615097046	
37	182.80687499046326	fix_post	2		12	35.0	2.5	/experiments/AOT/AOT_stimuli/rescaled_final/0869_rv.mp4	0.0	220.10946202278137	0.10006189346313477
38	182.9069368839264	fix_pre	0		119	36.0	2.5	/experiments/AOT/AOT_stimuli/rescaled_final/0667_fw.mp4	0.0	220.2095239162445	0.9919672012329102
38	183.8832631111145	pulse	0	t		36.0	2.5	/experiments/AOT/AOT_stimuli/rescaled_final/0667_fw.mp4	0.0	221.18585014343262	
38	183.8989040851593	movie	1		246	36.0	2.5	/experiments/AOT/AOT_stimuli/rescaled_final/0667_fw.mp4	0.0	221.20149111747742	2.508011817932129
38	185.49004888534546	pulse	1	t		36.0	2.5	/experiments/AOT/AOT_stimuli/rescaled_final/0667_fw.mp4	0.0	222.79263591766357	
38	186.40691590309143	fix_post	2		12	36.0	2.5	/experiments/AOT/AOT_stimuli/rescaled_final/0667_fw.mp4	0.0	223.70950293540955	0.10037899017333984
39	186.50729489326477	fix_pre	0		120	37.0	2.5	/experiments/AOT/AOT_stimuli/rescaled_final/0604_fw.mp4	0.0	223.80988192558289	1.0000221729278564
39	187.08337593078613	pulse	0	t		37.0	2.5	/experiments/AOT/AOT_stimuli/rescaled_final/0604_fw.mp4	0.0	224.38596296310425	
39	187.50731706619263	movie	1		245	37.0	2.5	/experiments/AOT/AOT_stimuli/rescaled_final/0604_fw.mp4	0.0	224.80990409851074	2.4999289512634277
39	188.69084310531616	pulse	1	t		37.0	2.5	/experiments/AOT/AOT_stimuli/rescaled_final/0604_fw.mp4	0.0	225.99343013763428	
39	190.00724601745605	fix_post	2		12	37.0	2.5	/experiments/AOT/AOT_stimuli/rescaled_final/0604_fw.mp4	0.0	227.30983304977417	0.10003900527954102
40	190.1072850227356	fix_pre	0		120	38.0	2.5	/experiments/AOT/AOT_stimuli/rescaled_final/0458_fw.mp4	0.0	227.4098720550537	0.9995300769805908
40	190.28325295448303	pulse	0	t		38.0	2.5	/experiments/AOT/AOT_stimuli/rescaled_final/0458_fw.mp4	0.0	227.58583998680115	
40	191.1068150997162	movie	1		245	38.0	2.5	/experiments/AOT/AOT_stimuli/rescaled_final/0458_fw.mp4	0.0	228.4094021320343	2.4999988079071045
40	191.88244199752808	pulse	1	t		38.0	2.5	/experiments/AOT/AOT_stimuli/rescaled_final/0458_fw.mp4	0.0	229.1850290298462	
40	193.48936295509338	pulse	1	t		38.0	2.5	/experiments/AOT/AOT_stimuli/rescaled_final/0458_fw.mp4	0.0	230.7919499874115	
40	193.6068139076233	fix_post	2		12	38.0	2.5	/experiments/AOT/AOT_stimuli/rescaled_final/0458_fw.mp4	0.0	230.9094009399414	0.10035109519958496
41	193.70716500282288	fix_pre	0		120	39.0	2.5	/experiments/AOT/AOT_stimuli/rescaled_final/0883_rv.mp4	0.0	231.009752035141	1.0000178813934326
41	194.7071828842163	movie	1		245	39.0	2.5	/experiments/AOT/AOT_stimuli/rescaled_final/0883_rv.mp4	0.0	232.00976991653442	2.500026226043701
41	195.090970993042	pulse	1	t		39.0	2.5	/experiments/AOT/AOT_stimuli/rescaled_final/0883_rv.mp4	0.0	232.3935580253601	
41	196.68337202072144	pulse	1	t		39.0	2.5	/experiments/AOT/AOT_stimuli/rescaled_final/0883_rv.mp4	0.0	233.98595905303955	
41	197.20720911026	fix_post	2		12	39.0	2.5	/experiments/AOT/AOT_stimuli/rescaled_final/0883_rv.mp4	0.0	234.50979614257812	0.09996390342712402
42	197.30717301368713	fix_pre	0		119	40.0	2.5	/experiments/AOT/AOT_stimuli/rescaled_final/1999_rv.mp4	0.0	234.60976004600525	0.9917500019073486
42	198.28323006629944	pulse	0	t		40.0	2.5	/experiments/AOT/AOT_stimuli/rescaled_final/1999_rv.mp4	0.0	235.58581709861755	
42	198.29892301559448	movie	1		243	40.0	2.5	/experiments/AOT/AOT_stimuli/rescaled_final/1999_rv.mp4	0.0	235.6015100479126	2.5078060626983643
42	199.89105701446533	pulse	1	t		40.0	2.5	/experiments/AOT/AOT_stimuli/rescaled_final/1999_rv.mp4	0.0	237.19364404678345	
42	200.80672907829285	fix_post	2		12	40.0	2.5	/experiments/AOT/AOT_stimuli/rescaled_final/1999_rv.mp4	0.0	238.10931611061096	0.10052680969238281
43	200.90725588798523	fix_pre	0		120	41.0	2.5	blank	1.0	238.20984292030334	0.9999911785125732
43	201.48319792747498	pulse	0	t		41.0	2.5	blank	1.0	238.7857849597931	
43	201.9072470664978	movie	1		300	41.0	2.5	blank	1.0	239.20983409881592	2.499511957168579
43	203.08317708969116	pulse	1	t		41.0	2.5	blank	1.0	240.38576412200928	
43	204.40675902366638	fix_post	2		12	41.0	2.5	blank	1.0	241.7093460559845	0.10035109519958496
44	204.50711011886597	fix_pre	0		120	42.0	2.5	/experiments/AOT/AOT_stimuli/rescaled_final/0897_fw.mp4	0.0	241.80969715118408	1.0001869201660156
44	204.68318891525269	pulse	0	t		42.0	2.5	/experiments/AOT/AOT_stimuli/rescaled_final/0897_fw.mp4	0.0	241.9857759475708	
44	205.50729703903198	movie	1		245	42.0	2.5	/experiments/AOT/AOT_stimuli/rescaled_final/0897_fw.mp4	0.0	242.8098840713501	2.4998040199279785
44	206.28323698043823	pulse	1	t		42.0	2.5	/experiments/AOT/AOT_stimuli/rescaled_final/0897_fw.mp4	0.0	243.58582401275635	
44	207.8893120288849	pulse	1	t		42.0	2.5	/experiments/AOT/AOT_stimuli/rescaled_final/0897_fw.mp4	0.0	245.191899061203	
44	208.00710105895996	fix_post	2		12	42.0	2.5	/experiments/AOT/AOT_stimuli/rescaled_final/0897_fw.mp4	0.0	245.30968809127808	0.10003805160522461
45	208.10713911056519	fix_pre	0		120	43.0	2.5	/experiments/AOT/AOT_stimuli/rescaled_final/1380_fw.mp4	0.0	245.4097261428833	0.9995489120483398
45	209.10668802261353	movie	1		243	43.0	2.5	/experiments/AOT/AOT_stimuli/rescaled_final/1380_fw.mp4	0.0	246.40927505493164	2.5004169940948486
45	209.49017310142517	pulse	1	t		43.0	2.5	/experiments/AOT/AOT_stimuli/rescaled_final/1380_fw.mp4	0.0	246.7927601337433	
45	211.09065508842468	pulse	1	t		43.0	2.5	/experiments/AOT/AOT_stimuli/rescaled_final/1380_fw.mp4	0.0	248.3932421207428	
45	211.60710501670837	fix_post	2		12	43.0	2.5	/experiments/AOT/AOT_stimuli/rescaled_final/1380_fw.mp4	0.0	248.9096920490265	0.10002303123474121
46	211.70712804794312	fix_pre	0		119	44.0	2.5	/experiments/AOT/AOT_stimuli/rescaled_final/1809_rv.mp4	0.0	249.00971508026123	0.9916999340057373
46	212.69073104858398	pulse	0	t		44.0	2.5	/experiments/AOT/AOT_stimuli/rescaled_final/1809_rv.mp4	0.0	249.9933180809021	
46	212.69882798194885	movie	1		245	44.0	2.5	/experiments/AOT/AOT_stimuli/rescaled_final/1809_rv.mp4	0.0	250.00141501426697	2.5083959102630615
46	214.29042291641235	pulse	1	t		44.0	2.5	/experiments/AOT/AOT_stimuli/rescaled_final/1809_rv.mp4	0.0	251.59300994873047	
46	215.2072238922119	fix_post	2		12	44.0	2.5	/experiments/AOT/AOT_stimuli/rescaled_final/1809_rv.mp4	0.0	252.50981092453003	0.0999150276184082
47	215.30713891983032	fix_pre	0		120	45.0	2.5	/experiments/AOT/AOT_stimuli/rescaled_final/1745_rv.mp4	0.0	252.60972595214844	1.000068187713623
47	215.8831160068512	pulse	0	t		45.0	2.5	/experiments/AOT/AOT_stimuli/rescaled_final/1745_rv.mp4	0.0	253.1857030391693	
47	216.30720710754395	movie	1		244	45.0	2.5	/experiments/AOT/AOT_stimuli/rescaled_final/1745_rv.mp4	0.0	253.60979413986206	2.4995229244232178
47	217.4908320903778	pulse	1	t		45.0	2.5	/experiments/AOT/AOT_stimuli/rescaled_final/1745_rv.mp4	0.0	254.79341912269592	
47	218.80673003196716	fix_post	2		12	45.0	2.5	/experiments/AOT/AOT_stimuli/rescaled_final/1745_rv.mp4	0.0	256.1093170642853	0.10044503211975098
48	218.9071750640869	fix_pre	0		120	46.0	2.5	/experiments/AOT/AOT_stimuli/rescaled_final/0935_fw.mp4	0.0	256.20976209640503	0.9999899864196777
48	219.0830581188202	pulse	0	t		46.0	2.5	/experiments/AOT/AOT_stimuli/rescaled_final/0935_fw.mp4	0.0	256.3856451511383	
48	219.9071650505066	movie	1		243	46.0	2.5	/experiments/AOT/AOT_stimuli/rescaled_final/0935_fw.mp4	0.0	257.2097520828247	2.5002939701080322
48	220.6831409931183	pulse	1	t		46.0	2.5	/experiments/AOT/AOT_stimuli/rescaled_final/0935_fw.mp4	0.0	257.9857280254364	
48	222.2891080379486	pulse	1	t		46.0	2.5	/experiments/AOT/AOT_stimuli/rescaled_final/0935_fw.mp4	0.0	259.5916950702667	
48	222.40745902061462	fix_post	2		12	46.0	2.5	/experiments/AOT/AOT_stimuli/rescaled_final/0935_fw.mp4	0.0	259.71004605293274	0.09997105598449707
49	222.50743007659912	fix_pre	0		120	47.0	2.5	blank	1.0	259.81001710891724	0.9998199939727783
49	223.5072500705719	movie	1		300	47.0	2.5	blank	1.0	260.80983710289	2.4998769760131836
49	223.8831489086151	pulse	1	t		47.0	2.5	blank	1.0	261.1857359409332	
49	225.49049711227417	pulse	1	t		47.0	2.5	blank	1.0	262.7930841445923	
49	226.00712704658508	fix_post	2		12	47.0	2.5	blank	1.0	263.3097140789032	0.09996795654296875
50	226.10709500312805	fix_pre	0		119	48.0	2.5	/experiments/AOT/AOT_stimuli/rescaled_final/1355_fw.mp4	0.0	263.40968203544617	0.9917869567871094
50	227.09053897857666	pulse	0	t		48.0	2.5	/experiments/AOT/AOT_stimuli/rescaled_final/1355_fw.mp4	0.0	264.3931260108948	
50	227.09888195991516	movie	1		246	48.0	2.5	/experiments/AOT/AOT_stimuli/rescaled_final/1355_fw.mp4	0.0	264.4014689922333	2.5077459812164307
50	228.69059896469116	pulse	1	t		48.0	2.5	/experiments/AOT/AOT_stimuli/rescaled_final/1355_fw.mp4	0.0	265.9931859970093	
50	229.6066279411316	fix_post	2		12	48.0	2.5	/experiments/AOT/AOT_stimuli/rescaled_final/1355_fw.mp4	0.0	266.9092149734497	0.10043501853942871
51	229.70706295967102	fix_pre	0		120	49.0	2.5	/experiments/AOT/AOT_stimuli/rescaled_final/0686_rv.mp4	0.0	267.00964999198914	0.9999620914459229
51	230.28315496444702	pulse	0	t		49.0	2.5	/experiments/AOT/AOT_stimuli/rescaled_final/0686_rv.mp4	0.0	267.58574199676514	
51	230.70702505111694	movie	1		247	49.0	2.5	/experiments/AOT/AOT_stimuli/rescaled_final/0686_rv.mp4	0.0	268.00961208343506	2.4999630451202393
51	231.89061307907104	pulse	1	t		49.0	2.5	/experiments/AOT/AOT_stimuli/rescaled_final/0686_rv.mp4	0.0	269.19320011138916	
51	233.20698809623718	fix_post	2		12	49.0	2.5	/experiments/AOT/AOT_stimuli/rescaled_final/0686_rv.mp4	0.0	270.5095751285553	0.1000819206237793
52	233.30707001686096	fix_pre	0		120	50.0	2.5	/experiments/AOT/AOT_stimuli/rescaled_final/1549_rv.mp4	0.0	270.6096570491791	0.9996180534362793
52	233.48298001289368	pulse	0	t		50.0	2.5	/experiments/AOT/AOT_stimuli/rescaled_final/1549_rv.mp4	0.0	270.7855670452118	
52	234.30668807029724	movie	1		246	50.0	2.5	/experiments/AOT/AOT_stimuli/rescaled_final/1549_rv.mp4	0.0	271.60927510261536	2.50020694732666
52	235.08308911323547	pulse	1	t		50.0	2.5	/experiments/AOT/AOT_stimuli/rescaled_final/1549_rv.mp4	0.0	272.3856761455536	
52	236.68903398513794	pulse	1	t		50.0	2.5	/experiments/AOT/AOT_stimuli/rescaled_final/1549_rv.mp4	0.0	273.99162101745605	
52	236.8068950176239	fix_post	2		12	50.0	2.5	/experiments/AOT/AOT_stimuli/rescaled_final/1549_rv.mp4	0.0	274.109482049942	0.10014510154724121
53	236.90704011917114	fix_pre	0		120	51.0	2.5	/experiments/AOT/AOT_stimuli/rescaled_final/0977_rv.mp4	0.0	274.20962715148926	1.0000498294830322
53	237.90708994865417	movie	1		246	51.0	2.5	/experiments/AOT/AOT_stimuli/rescaled_final/0977_rv.mp4	0.0	275.2096769809723	2.4999301433563232
53	238.29156804084778	pulse	1	t		51.0	2.5	/experiments/AOT/AOT_stimuli/rescaled_final/0977_rv.mp4	0.0	275.5941550731659	
53	239.88305807113647	pulse	1	t		51.0	2.5	/experiments/AOT/AOT_stimuli/rescaled_final/0977_rv.mp4	0.0	277.1856451034546	
53	240.4070200920105	fix_post	2		12	51.0	2.5	/experiments/AOT/AOT_stimuli/rescaled_final/0977_rv.mp4	0.0	277.7096071243286	0.10007882118225098
54	240.50709891319275	fix_pre	0		119	52.0	2.5	/experiments/AOT/AOT_stimuli/rescaled_final/1501_rv.mp4	0.0	277.80968594551086	0.9916269779205322
54	241.49050092697144	pulse	0	t		52.0	2.5	/experiments/AOT/AOT_stimuli/rescaled_final/1501_rv.mp4	0.0	278.79308795928955	
54	241.49872589111328	movie	1		246	52.0	2.5	/experiments/AOT/AOT_stimuli/rescaled_final/1501_rv.mp4	0.0	278.8013129234314	2.508244037628174
54	243.09013891220093	pulse	1	t		52.0	2.5	/experiments/AOT/AOT_stimuli/rescaled_final/1501_rv.mp4	0.0	280.39272594451904	
54	244.00696992874146	fix_post	2		12	52.0	2.5	/experiments/AOT/AOT_stimuli/rescaled_final/1501_rv.mp4	0.0	281.30955696105957	0.10001206398010254
55	244.10698199272156	fix_pre	0		120	53.0	2.5	/experiments/AOT/AOT_stimuli/rescaled_final/2057_rv.mp4	0.0	281.4095690250397	1.0000181198120117
55	244.69053602218628	pulse	0	t		53.0	2.5	/experiments/AOT/AOT_stimuli/rescaled_final/2057_rv.mp4	0.0	281.9931230545044	
55	245.10700011253357	movie	1		243	53.0	2.5	/experiments/AOT/AOT_stimuli/rescaled_final/2057_rv.mp4	0.0	282.4095871448517	2.4996469020843506
55	246.29045605659485	pulse	1	t		53.0	2.5	/experiments/AOT/AOT_stimuli/rescaled_final/2057_rv.mp4	0.0	283.59304308891296	
55	247.60664701461792	fix_post	2		12	53.0	2.5	/experiments/AOT/AOT_stimuli/rescaled_final/2057_rv.mp4	0.0	284.90923404693604	0.10032486915588379
56	247.7069718837738	fix_pre	0		120	54.0	2.5	/experiments/AOT/AOT_stimuli/rescaled_final/1242_rv.mp4	0.0	285.0095589160919	0.9999690055847168
56	247.89048790931702	pulse	0	t		54.0	2.5	/experiments/AOT/AOT_stimuli/rescaled_final/1242_rv.mp4	0.0	285.19307494163513	
56	248.70694088935852	movie	1		244	54.0	2.5	/experiments/AOT/AOT_stimuli/rescaled_final/1242_rv.mp4	0.0	286.00952792167664	2.5000431537628174
56	249.48299598693848	pulse	1	t		54.0	2.5	/experiments/AOT/AOT_stimuli/rescaled_final/1242_rv.mp4	0.0	286.7855830192566	
56	251.08900690078735	pulse	1	t		54.0	2.5	/experiments/AOT/AOT_stimuli/rescaled_final/1242_rv.mp4	0.0	288.39159393310547	
56	251.20698404312134	fix_post	2		12	54.0	2.5	/experiments/AOT/AOT_stimuli/rescaled_final/1242_rv.mp4	0.0	288.50957107543945	0.0998990535736084
57	251.30688309669495	fix_pre	0		120	55.0	2.5	/experiments/AOT/AOT_stimuli/rescaled_final/1049_rv.mp4	0.0	288.60947012901306	0.9996669292449951
57	252.30655002593994	movie	1		243	55.0	2.5	/experiments/AOT/AOT_stimuli/rescaled_final/1049_rv.mp4	0.0	289.60913705825806	2.5003669261932373
57	252.69165706634521	pulse	1	t		55.0	2.5	/experiments/AOT/AOT_stimuli/rescaled_final/1049_rv.mp4	0.0	289.99424409866333	
57	254.28311800956726	pulse	1	t		55.0	2.5	/experiments/AOT/AOT_stimuli/rescaled_final/1049_rv.mp4	0.0	291.5857050418854	
57	254.80691695213318	fix_post	2		12	55.0	2.5	/experiments/AOT/AOT_stimuli/rescaled_final/1049_rv.mp4	0.0	292.1095039844513	0.10006403923034668
58	254.90698099136353	fix_pre	0		119	56.0	2.5	blank	1.0	292.20956802368164	0.9916269779205322
58	255.8829529285431	pulse	0	t		56.0	2.5	blank	1.0	293.1855399608612	
58	255.89860796928406	movie	1		301	56.0	2.5	blank	1.0	293.2011950016022	2.508294105529785
58	257.4904520511627	pulse	1	t		56.0	2.5	blank	1.0	294.79303908348083	
58	258.40690207481384	fix_post	2		12	56.0	2.5	blank	1.0	295.70948910713196	0.09998798370361328
59	258.50689005851746	fix_pre	0		120	57.0	2.5	/experiments/AOT/AOT_stimuli/rescaled_final/1319_rv.mp4	0.0	295.80947709083557	0.9999940395355225
59	259.09046602249146	pulse	0	t		57.0	2.5	/experiments/AOT/AOT_stimuli/rescaled_final/1319_rv.mp4	0.0	296.39305305480957	
59	259.506884098053	movie	1		245	57.0	2.5	/experiments/AOT/AOT_stimuli/rescaled_final/1319_rv.mp4	0.0	296.8094711303711	2.5000228881835938
59	260.69050788879395	pulse	1	t		57.0	2.5	/experiments/AOT/AOT_stimuli/rescaled_final/1319_rv.mp4	0.0	297.99309492111206	
59	262.0069069862366	fix_post	2		12	57.0	2.5	/experiments/AOT/AOT_stimuli/rescaled_final/1319_rv.mp4	0.0	299.3094940185547	0.09955501556396484
60	262.10646200180054	fix_pre	0		120	58.0	2.5	/experiments/AOT/AOT_stimuli/rescaled_final/0888_rv.mp4	0.0	299.40904903411865	1.0005159378051758
60	262.2904438972473	pulse	0	t		58.0	2.5	/experiments/AOT/AOT_stimuli/rescaled_final/0888_rv.mp4	0.0	299.59303092956543	
60	263.1069779396057	movie	1		243	58.0	2.5	/experiments/AOT/AOT_stimuli/rescaled_final/0888_rv.mp4	0.0	300.4095649719238	2.4998559951782227
60	263.89042592048645	pulse	1	t		58.0	2.5	/experiments/AOT/AOT_stimuli/rescaled_final/0888_rv.mp4	0.0	301.19301295280457	
60	265.4889008998871	pulse	1	t		58.0	2.5	/experiments/AOT/AOT_stimuli/rescaled_final/0888_rv.mp4	0.0	302.7914879322052	
60	265.60683393478394	fix_post	2		12	58.0	2.5	/experiments/AOT/AOT_stimuli/rescaled_final/0888_rv.mp4	0.0	302.90942096710205	0.10010004043579102
61	265.7069339752197	fix_pre	0		120	59.0	2.5	/experiments/AOT/AOT_stimuli/rescaled_final/1300_rv.mp4	0.0	303.00952100753784	0.9998819828033447
61	266.70681595802307	movie	1		246	59.0	2.5	/experiments/AOT/AOT_stimuli/rescaled_final/1300_rv.mp4	0.0	304.0094029903412	2.500124931335449
61	267.0897569656372	pulse	1	t		59.0	2.5	/experiments/AOT/AOT_stimuli/rescaled_final/1300_rv.mp4	0.0	304.3923439979553	
61	268.68313789367676	pulse	1	t		59.0	2.5	/experiments/AOT/AOT_stimuli/rescaled_final/1300_rv.mp4	0.0	305.9857249259949	
61	269.2069408893585	fix_post	2		12	59.0	2.5	/experiments/AOT/AOT_stimuli/rescaled_final/1300_rv.mp4	0.0	306.50952792167664	0.09992814064025879
62	269.3068690299988	fix_pre	0		119	60.0	2.5	/experiments/AOT/AOT_stimuli/rescaled_final/0918_rv.mp4	0.0	306.6094560623169	0.9917740821838379
62	270.2828369140625	pulse	0	t		60.0	2.5	/experiments/AOT/AOT_stimuli/rescaled_final/0918_rv.mp4	0.0	307.5854239463806	
62	270.2986431121826	movie	1		244	60.0	2.5	/experiments/AOT/AOT_stimuli/rescaled_final/0918_rv.mp4	0.0	307.60123014450073	2.508192777633667
62	271.8903388977051	pulse	1	t		60.0	2.5	/experiments/AOT/AOT_stimuli/rescaled_final/0918_rv.mp4	0.0	309.1929259300232	
62	272.8068358898163	fix_post	2		12	60.0	2.5	/experiments/AOT/AOT_stimuli/rescaled_final/0918_rv.mp4	0.0	310.1094229221344	0.10005021095275879
63	272.90688610076904	fix_pre	0		120	61.0	2.5	/experiments/AOT/AOT_stimuli/rescaled_final/0604_rv.mp4	0.0	310.20947313308716	1.0000779628753662
63	273.4903259277344	pulse	0	t		61.0	2.5	/experiments/AOT/AOT_stimuli/rescaled_final/0604_rv.mp4	0.0	310.7929129600525	
63	273.9069640636444	movie	1		247	61.0	2.5	/experiments/AOT/AOT_stimuli/rescaled_final/0604_rv.mp4	0.0	311.2095510959625	2.4998929500579834
63	275.0904140472412	pulse	1	t		61.0	2.5	/experiments/AOT/AOT_stimuli/rescaled_final/0604_rv.mp4	0.0	312.3930010795593	
63	276.4068570137024	fix_post	2		12	61.0	2.5	/experiments/AOT/AOT_stimuli/rescaled_final/0604_rv.mp4	0.0	313.7094440460205	0.09963798522949219
64	276.5064949989319	fix_pre	0		120	62.0	2.5	blank	1.0	313.80908203125	1.0001139640808105
64	276.6899790763855	pulse	0	t		62.0	2.5	blank	1.0	313.9925661087036	
64	277.5066089630127	movie	1		300	62.0	2.5	blank	1.0	314.8091959953308	2.5003011226654053
64	278.2902319431305	pulse	1	t		62.0	2.5	blank	1.0	315.5928189754486	
64	279.89029908180237	pulse	1	t		62.0	2.5	blank	1.0	317.1928861141205	
64	280.0069100856781	fix_post	2		12	62.0	2.5	blank	1.0	317.3094971179962	0.09955692291259766
65	280.1064670085907	fix_pre	0		120	63.0	2.5	/experiments/AOT/AOT_stimuli/rescaled_final/1428_rv.mp4	0.0	317.4090540409088	1.0003890991210938
65	281.1068561077118	movie	1		248	63.0	2.5	/experiments/AOT/AOT_stimuli/rescaled_final/1428_rv.mp4	0.0	318.4094431400299	2.4999029636383057
65	281.4904320240021	pulse	1	t		63.0	2.5	/experiments/AOT/AOT_stimuli/rescaled_final/1428_rv.mp4	0.0	318.7930190563202	
65	283.0902729034424	pulse	1	t		63.0	2.5	/experiments/AOT/AOT_stimuli/rescaled_final/1428_rv.mp4	0.0	320.3928599357605	
65	283.6067590713501	fix_post	2		12	63.0	2.5	/experiments/AOT/AOT_stimuli/rescaled_final/1428_rv.mp4	0.0	320.9093461036682	0.10002589225769043
66	283.7067849636078	fix_pre	0		119	64.0	2.5	/experiments/AOT/AOT_stimuli/rescaled_final/0285_rv.mp4	0.0	321.0093719959259	0.9916040897369385
66	284.6902561187744	pulse	0	t		64.0	2.5	/experiments/AOT/AOT_stimuli/rescaled_final/0285_rv.mp4	0.0	321.99284315109253	
66	284.6983890533447	movie	1		245	64.0	2.5	/experiments/AOT/AOT_stimuli/rescaled_final/0285_rv.mp4	0.0	322.00097608566284	2.5079400539398193
66	286.2900879383087	pulse	1	t		64.0	2.5	/experiments/AOT/AOT_stimuli/rescaled_final/0285_rv.mp4	0.0	323.59267497062683	
66	287.20632910728455	fix_post	2		12	64.0	2.5	/experiments/AOT/AOT_stimuli/rescaled_final/0285_rv.mp4	0.0	324.50891613960266	0.10039877891540527
67	287.30672788619995	fix_pre	0		120	65.0	2.5	/experiments/AOT/AOT_stimuli/rescaled_final/0698_fw.mp4	0.0	324.60931491851807	0.9999761581420898
67	287.882936000824	pulse	0	t		65.0	2.5	/experiments/AOT/AOT_stimuli/rescaled_final/0698_fw.mp4	0.0	325.1855230331421	
67	288.30670404434204	movie	1		244	65.0	2.5	/experiments/AOT/AOT_stimuli/rescaled_final/0698_fw.mp4	0.0	325.60929107666016	2.499614953994751
67	289.49030900001526	pulse	1	t		65.0	2.5	/experiments/AOT/AOT_stimuli/rescaled_final/0698_fw.mp4	0.0	326.7928960323334	
67	290.8063189983368	fix_post	2		12	65.0	2.5	/experiments/AOT/AOT_stimuli/rescaled_final/0698_fw.mp4	0.0	328.1089060306549	0.10041594505310059
68	290.9067349433899	fix_pre	0		120	66.0	2.5	/experiments/AOT/AOT_stimuli/rescaled_final/1166_rv.mp4	0.0	328.209321975708	1.000035047531128
68	291.09036803245544	pulse	0	t		66.0	2.5	/experiments/AOT/AOT_stimuli/rescaled_final/1166_rv.mp4	0.0	328.39295506477356	
68	291.906769990921	movie	1		244	66.0	2.5	/experiments/AOT/AOT_stimuli/rescaled_final/1166_rv.mp4	0.0	329.20935702323914	2.5000200271606445
68	292.69015192985535	pulse	1	t		66.0	2.5	/experiments/AOT/AOT_stimuli/rescaled_final/1166_rv.mp4	0.0	329.99273896217346	
68	294.2888650894165	pulse	1	t		66.0	2.5	/experiments/AOT/AOT_stimuli/rescaled_final/1166_rv.mp4	0.0	331.5914521217346	
68	294.40679001808167	fix_post	2		12	66.0	2.5	/experiments/AOT/AOT_stimuli/rescaled_final/1166_rv.mp4	0.0	331.7093770503998	0.0995330810546875
69	294.50632309913635	fix_pre	0		120	67.0	2.5	/experiments/AOT/AOT_stimuli/rescaled_final/0944_rv.mp4	0.0	331.80891013145447	1.0004048347473145
69	295.50672793388367	movie	1		243	67.0	2.5	/experiments/AOT/AOT_stimuli/rescaled_final/0944_rv.mp4	0.0	332.8093149662018	2.5000381469726562
69	295.8898410797119	pulse	1	t		67.0	2.5	/experiments/AOT/AOT_stimuli/rescaled_final/0944_rv.mp4	0.0	333.19242811203003	
69	297.4902060031891	pulse	1	t		67.0	2.5	/experiments/AOT/AOT_stimuli/rescaled_final/0944_rv.mp4	0.0	334.7927930355072	
69	298.0067660808563	fix_post	2		12	67.0	2.5	/experiments/AOT/AOT_stimuli/rescaled_final/0944_rv.mp4	0.0	335.30935311317444	0.09989595413208008
70	298.1066620349884	fix_pre	0		119	68.0	2.5	blank	1.0	335.4092490673065	0.9916889667510986
70	299.09024810791016	pulse	0	t		68.0	2.5	blank	1.0	336.39283514022827	
70	299.0983510017395	movie	1		301	68.0	2.5	blank	1.0	336.4009380340576	2.5085020065307617
70	300.690181016922	pulse	1	t		68.0	2.5	blank	1.0	337.9927680492401	
70	301.60685300827026	fix_post	2		12	68.0	2.5	blank	1.0	338.9094400405884	0.099822998046875
71	301.70667600631714	fix_pre	0		120	69.0	2.5	/experiments/AOT/AOT_stimuli/rescaled_final/1919_rv.mp4	0.0	339.00926303863525	0.99965500831604
71	302.28268790245056	pulse	0	t		69.0	2.5	/experiments/AOT/AOT_stimuli/rescaled_final/1919_rv.mp4	0.0	339.5852749347687	
71	302.7063310146332	movie	1		245	69.0	2.5	/experiments/AOT/AOT_stimuli/rescaled_final/1919_rv.mp4	0.0	340.0089180469513	2.500319004058838
71	303.89024209976196	pulse	1	t		69.0	2.5	/experiments/AOT/AOT_stimuli/rescaled_final/1919_rv.mp4	0.0	341.1928291320801	
71	305.206650018692	fix_post	2		12	69.0	2.5	/experiments/AOT/AOT_stimuli/rescaled_final/1919_rv.mp4	0.0	342.50923705101013	0.10004401206970215
72	305.3066940307617	fix_pre	0		120	70.0	2.5	/experiments/AOT/AOT_stimuli/rescaled_final/0380_rv.mp4	0.0	342.60928106307983	0.9995660781860352
72	305.4902141094208	pulse	0	t		70.0	2.5	/experiments/AOT/AOT_stimuli/rescaled_final/0380_rv.mp4	0.0	342.7928011417389	
72	306.30626010894775	movie	1		243	70.0	2.5	/experiments/AOT/AOT_stimuli/rescaled_final/0380_rv.mp4	0.0	343.60884714126587	2.4999899864196777
72	307.090224981308	pulse	1	t		70.0	2.5	/experiments/AOT/AOT_stimuli/rescaled_final/0380_rv.mp4	0.0	344.3928120136261	
72	308.68848490715027	pulse	1	t		70.0	2.5	/experiments/AOT/AOT_stimuli/rescaled_final/0380_rv.mp4	0.0	345.9910719394684	
72	308.80625009536743	fix_post	2		11	70.0	2.5	/experiments/AOT/AOT_stimuli/rescaled_final/0380_rv.mp4	0.0	346.10883712768555	0.09993696212768555
73	308.9061870574951	fix_pre	0		120	71.0	2.5	/experiments/AOT/AOT_stimuli/rescaled_final/0995_rv.mp4	0.0	346.20877408981323	1.0004949569702148
73	309.90668201446533	movie	1		245	71.0	2.5	/experiments/AOT/AOT_stimuli/rescaled_final/0995_rv.mp4	0.0	347.20926904678345	2.499958038330078
73	310.2899959087372	pulse	1	t		71.0	2.5	/experiments/AOT/AOT_stimuli/rescaled_final/0995_rv.mp4	0.0	347.5925829410553	
73	311.8902359008789	pulse	1	t		71.0	2.5	/experiments/AOT/AOT_stimuli/rescaled_final/0995_rv.mp4	0.0	349.192822933197	
73	312.4066400527954	fix_post	2		12	71.0	2.5	/experiments/AOT/AOT_stimuli/rescaled_final/0995_rv.mp4	0.0	349.7092270851135	0.0995779037475586
74	312.50621795654297	fix_pre	0		119	72.0	2.5	/experiments/AOT/AOT_stimuli/rescaled_final/1918_rv.mp4	0.0	349.8088049888611	0.9921219348907471
74	313.4901559352875	pulse	0	t		72.0	2.5	/experiments/AOT/AOT_stimuli/rescaled_final/1918_rv.mp4	0.0	350.7927429676056	
74	313.4983398914337	movie	1		244	72.0	2.5	/experiments/AOT/AOT_stimuli/rescaled_final/1918_rv.mp4	0.0	350.80092692375183	2.508308172225952
74	315.08972692489624	pulse	1	t		72.0	2.5	/experiments/AOT/AOT_stimuli/rescaled_final/1918_rv.mp4	0.0	352.39231395721436	
74	316.00664806365967	fix_post	2		12	72.0	2.5	/experiments/AOT/AOT_stimuli/rescaled_final/1918_rv.mp4	0.0	353.3092350959778	0.0999908447265625
75	316.10663890838623	fix_pre	0		120	73.0	2.5	/experiments/AOT/AOT_stimuli/rescaled_final/1516_fw.mp4	0.0	353.40922594070435	0.9995582103729248
75	316.6901578903198	pulse	0	t		73.0	2.5	/experiments/AOT/AOT_stimuli/rescaled_final/1516_fw.mp4	0.0	353.99274492263794	
75	317.10619711875916	movie	1		244	73.0	2.5	/experiments/AOT/AOT_stimuli/rescaled_final/1516_fw.mp4	0.0	354.40878415107727	2.5004398822784424
75	318.2901430130005	pulse	1	t		73.0	2.5	/experiments/AOT/AOT_stimuli/rescaled_final/1516_fw.mp4	0.0	355.5927300453186	
75	319.6066370010376	fix_post	2		12	73.0	2.5	/experiments/AOT/AOT_stimuli/rescaled_final/1516_fw.mp4	0.0	356.9092240333557	0.10002303123474121
76	319.70666003227234	fix_pre	0		120	74.0	2.5	/experiments/AOT/AOT_stimuli/rescaled_final/0449_fw.mp4	0.0	357.00924706459045	1.0000169277191162
76	319.88262605667114	pulse	0	t		74.0	2.5	/experiments/AOT/AOT_stimuli/rescaled_final/0449_fw.mp4	0.0	357.18521308898926	
76	320.70667695999146	movie	1		244	74.0	2.5	/experiments/AOT/AOT_stimuli/rescaled_final/0449_fw.mp4	0.0	358.00926399230957	2.4999449253082275
76	321.4901440143585	pulse	1	t		74.0	2.5	/experiments/AOT/AOT_stimuli/rescaled_final/0449_fw.mp4	0.0	358.79273104667664	
76	323.08869194984436	pulse	1	t		74.0	2.5	/experiments/AOT/AOT_stimuli/rescaled_final/0449_fw.mp4	0.0	360.3912789821625	
76	323.2066218852997	fix_post	2		12	74.0	2.5	/experiments/AOT/AOT_stimuli/rescaled_final/0449_fw.mp4	0.0	360.5092089176178	0.1000211238861084
77	323.3066430091858	fix_pre	0		120	75.0	2.5	/experiments/AOT/AOT_stimuli/rescaled_final/0533_fw.mp4	0.0	360.6092300415039	0.9999299049377441
77	324.30657291412354	movie	1		244	75.0	2.5	/experiments/AOT/AOT_stimuli/rescaled_final/0533_fw.mp4	0.0	361.60915994644165	2.4995570182800293
77	324.6896650791168	pulse	1	t		75.0	2.5	/experiments/AOT/AOT_stimuli/rescaled_final/0533_fw.mp4	0.0	361.99225211143494	
77	326.2900469303131	pulse	1	t		75.0	2.5	/experiments/AOT/AOT_stimuli/rescaled_final/0533_fw.mp4	0.0	363.5926339626312	
77	326.80612993240356	fix_post	2		12	75.0	2.5	/experiments/AOT/AOT_stimuli/rescaled_final/0533_fw.mp4	0.0	364.1087169647217	0.10048699378967285
78	326.90661692619324	fix_pre	0		119	76.0	2.5	/experiments/AOT/AOT_stimuli/rescaled_final/0881_rv.mp4	0.0	364.20920395851135	0.9915530681610107
78	327.8901491165161	pulse	0	t		76.0	2.5	/experiments/AOT/AOT_stimuli/rescaled_final/0881_rv.mp4	0.0	365.19273614883423	
78	327.89816999435425	movie	1		247	76.0	2.5	/experiments/AOT/AOT_stimuli/rescaled_final/0881_rv.mp4	0.0	365.20075702667236	2.5083870887756348
78	329.48974800109863	pulse	1	t		76.0	2.5	/experiments/AOT/AOT_stimuli/rescaled_final/0881_rv.mp4	0.0	366.79233503341675	
78	330.4065570831299	fix_post	2		12	76.0	2.5	/experiments/AOT/AOT_stimuli/rescaled_final/0881_rv.mp4	0.0	367.709144115448	0.09958982467651367
79	330.5061469078064	fix_pre	0		120	77.0	2.5	blank	1.0	367.8087339401245	1.0003840923309326
79	331.0830879211426	pulse	0	t		77.0	2.5	blank	1.0	368.3856749534607	
79	331.50653100013733	movie	1		300	77.0	2.5	blank	1.0	368.80911803245544	2.499927043914795
79	332.68966603279114	pulse	1	t		77.0	2.5	blank	1.0	369.99225306510925	
79	334.0064580440521	fix_post	2		12	77.0	2.5	blank	1.0	371.30904507637024	0.10034704208374023
80	334.10680508613586	fix_pre	0		120	78.0	2.5	/experiments/AOT/AOT_stimuli/rescaled_final/0748_fw.mp4	0.0	371.409392118454	0.9998059272766113
80	334.2899429798126	pulse	0	t		78.0	2.5	/experiments/AOT/AOT_stimuli/rescaled_final/0748_fw.mp4	0.0	371.59253001213074	
80	335.1066110134125	movie	1		247	78.0	2.5	/experiments/AOT/AOT_stimuli/rescaled_final/0748_fw.mp4	0.0	372.4091980457306	2.4999139308929443
80	335.88997197151184	pulse	1	t		78.0	2.5	/experiments/AOT/AOT_stimuli/rescaled_final/0748_fw.mp4	0.0	373.19255900382996	
80	337.4901089668274	pulse	1	t		78.0	2.5	/experiments/AOT/AOT_stimuli/rescaled_final/0748_fw.mp4	0.0	374.7926959991455	
80	337.6065249443054	fix_post	2		12	78.0	2.5	/experiments/AOT/AOT_stimuli/rescaled_final/0748_fw.mp4	0.0	374.90911197662354	0.09960198402404785
81	337.70612692832947	fix_pre	0		120	79.0	2.5	/experiments/AOT/AOT_stimuli/rescaled_final/1325_rv.mp4	0.0	375.0087139606476	1.000441074371338
81	338.7065680027008	movie	1		243	79.0	2.5	/experiments/AOT/AOT_stimuli/rescaled_final/1325_rv.mp4	0.0	376.0091550350189	2.499880075454712
81	339.08961391448975	pulse	1	t		79.0	2.5	/experiments/AOT/AOT_stimuli/rescaled_final/1325_rv.mp4	0.0	376.39220094680786	
81	340.68992590904236	pulse	1	t		79.0	2.5	/experiments/AOT/AOT_stimuli/rescaled_final/1325_rv.mp4	0.0	377.9925129413605	
81	341.2064480781555	fix_post	2		12	79.0	2.5	/experiments/AOT/AOT_stimuli/rescaled_final/1325_rv.mp4	0.0	378.50903511047363	0.10016703605651855
82	341.30661511421204	fix_pre	0		119	80.0	2.5	/experiments/AOT/AOT_stimuli/rescaled_final/1745_fw.mp4	0.0	378.60920214653015	0.9915709495544434
82	342.2900741100311	pulse	0	t		80.0	2.5	/experiments/AOT/AOT_stimuli/rescaled_final/1745_fw.mp4	0.0	379.59266114234924	
82	342.2981860637665	movie	1		245	80.0	2.5	/experiments/AOT/AOT_stimuli/rescaled_final/1745_fw.mp4	0.0	379.6007730960846	2.5078630447387695
82	343.8899259567261	pulse	1	t		80.0	2.5	/experiments/AOT/AOT_stimuli/rescaled_final/1745_fw.mp4	0.0	381.1925129890442	
82	344.80604910850525	fix_post	2		12	80.0	2.5	/experiments/AOT/AOT_stimuli/rescaled_final/1745_fw.mp4	0.0	382.10863614082336	0.1004638671875
83	344.90651297569275	fix_pre	0		120	81.0	2.5	/experiments/AOT/AOT_stimuli/rescaled_final/1532_fw.mp4	0.0	382.20910000801086	0.99993896484375
83	345.49001693725586	pulse	0	t		81.0	2.5	/experiments/AOT/AOT_stimuli/rescaled_final/1532_fw.mp4	0.0	382.792603969574	
83	345.9064519405365	movie	1		246	81.0	2.5	/experiments/AOT/AOT_stimuli/rescaled_final/1532_fw.mp4	0.0	383.2090389728546	2.499664068222046
83	347.09007501602173	pulse	1	t		81.0	2.5	/experiments/AOT/AOT_stimuli/rescaled_final/1532_fw.mp4	0.0	384.39266204833984	
83	348.40611600875854	fix_post	2		12	81.0	2.5	/experiments/AOT/AOT_stimuli/rescaled_final/1532_fw.mp4	0.0	385.70870304107666	0.10029292106628418
84	348.50640892982483	fix_pre	0		120	82.0	2.5	/experiments/AOT/AOT_stimuli/rescaled_final/0881_rv.mp4	0.0	385.80899596214294	1.0000910758972168
84	348.68999195098877	pulse	0	t		82.0	2.5	/experiments/AOT/AOT_stimuli/rescaled_final/0881_rv.mp4	0.0	385.9925789833069	
84	349.50650000572205	movie	1		249	82.0	2.5	/experiments/AOT/AOT_stimuli/rescaled_final/0881_rv.mp4	0.0	386.80908703804016	2.499962091445923
84	350.2899489402771	pulse	1	t		82.0	2.5	/experiments/AOT/AOT_stimuli/rescaled_final/0881_rv.mp4	0.0	387.5925359725952	
84	351.889976978302	pulse	1	t		82.0	2.5	/experiments/AOT/AOT_stimuli/rescaled_final/0881_rv.mp4	0.0	389.1925640106201	
84	352.00646209716797	fix_post	2		12	82.0	2.5	/experiments/AOT/AOT_stimuli/rescaled_final/0881_rv.mp4	0.0	389.3090491294861	0.09994387626647949
85	352.10640597343445	fix_pre	0		120	83.0	2.5	blank	1.0	389.40899300575256	0.9999630451202393
85	353.1063690185547	movie	1		300	83.0	2.5	blank	1.0	390.4089560508728	2.5000340938568115
85	353.4899671077728	pulse	1	t		83.0	2.5	blank	1.0	390.79255414009094	
85	355.08987402915955	pulse	1	t		83.0	2.5	blank	1.0	392.39246106147766	
85	355.6064031124115	fix_post	2		12	83.0	2.5	blank	1.0	392.9089901447296	0.09997177124023438
87	355.70637488365173	stim	0		1716					393.00896191596985	14.300049066543579
87	356.6899380683899	pulse	0	t						393.992525100708	
87	358.2899739742279	pulse	0	t						395.592561006546	
87	359.88989901542664	pulse	0	t						397.19248604774475	
87	361.489933013916	pulse	0	t						398.79252004623413	
87	363.08988189697266	pulse	0	t						400.39246892929077	
87	364.6899220943451	pulse	0	t						401.9925091266632	
87	366.28980898857117	pulse	0	t						403.5923960208893	
87	367.88984394073486	pulse	0	t						405.192430973053	
87	369.4897949695587	pulse	0	t						406.79238200187683	
