trial_nr	onset	event_type	phase	response	nr_frames	movie_index	movie_duration	movie_file	blank	onset_abs	duration
0	0.2083420753479004	stim	0		105					29.53814697265625	0.8750200271606445
0	1.07517409324646	response	0	space						30.40497899055481	
1	1.083362102508545	stim	0		4071					30.413166999816895	33.94045090675354
1	35.013983964920044	pulse	0	t						64.3437888622284	
1	35.023813009262085	stim	1		1715					64.35361790657043	14.30003809928894
1	36.60565710067749	pulse	1	t						65.93546199798584	
1	38.205668926239014	pulse	1	t						67.53547382354736	
1	39.80592608451843	pulse	1	t						69.13573098182678	
1	41.406245946884155	pulse	1	t						70.7360508441925	
1	43.00652503967285	pulse	1	t						72.3363299369812	
1	44.606669902801514	pulse	1	t						73.93647480010986	
1	46.206867933273315	pulse	1	t						75.53667283058167	
1	47.80708909034729	pulse	1	t						77.13689398765564	
2	49.323851108551025	fix_pre	0		11	0.0	2.5	/experiments/knapen_AOT/AOT_stimuli/rescaled_final/1850_fw.mp4	0.0	78.65365600585938	0.09163379669189453
2	49.40744090080261	pulse	0	t		0.0	2.5	/experiments/knapen_AOT/AOT_stimuli/rescaled_final/1850_fw.mp4	0.0	78.73724579811096	
2	49.41548490524292	movie	1		242	0.0	2.5	/experiments/knapen_AOT/AOT_stimuli/rescaled_final/1850_fw.mp4	0.0	78.74528980255127	2.508824110031128
2	51.00818991661072	pulse	1	t		0.0	2.5	/experiments/knapen_AOT/AOT_stimuli/rescaled_final/1850_fw.mp4	0.0	80.33799481391907	
2	51.92430901527405	fix_post	2		12	0.0	2.5	/experiments/knapen_AOT/AOT_stimuli/rescaled_final/1850_fw.mp4	0.0	81.2541139125824	0.09996700286865234
3	52.0242760181427	fix_pre	0		120	1.0	2.5	/experiments/knapen_AOT/AOT_stimuli/rescaled_final/1178_rv.mp4	0.0	81.35408091545105	1.0001239776611328
3	52.60036897659302	pulse	0	t		1.0	2.5	/experiments/knapen_AOT/AOT_stimuli/rescaled_final/1178_rv.mp4	0.0	81.93017387390137	
3	53.02439999580383	movie	1		243	1.0	2.5	/experiments/knapen_AOT/AOT_stimuli/rescaled_final/1178_rv.mp4	0.0	82.35420489311218	2.5004119873046875
3	54.204209089279175	pulse	1	t		1.0	2.5	/experiments/knapen_AOT/AOT_stimuli/rescaled_final/1178_rv.mp4	0.0	83.53401398658752	
3	55.52481198310852	fix_post	2		12	1.0	2.5	/experiments/knapen_AOT/AOT_stimuli/rescaled_final/1178_rv.mp4	0.0	84.85461688041687	0.09999799728393555
4	55.624809980392456	fix_pre	0		120	2.0	2.5	/experiments/knapen_AOT/AOT_stimuli/rescaled_final/1185_fw.mp4	0.0	84.9546148777008	1.000154972076416
4	55.80082607269287	pulse	0	t		2.0	2.5	/experiments/knapen_AOT/AOT_stimuli/rescaled_final/1185_fw.mp4	0.0	85.13063097000122	
4	56.62496495246887	movie	1		244	2.0	2.5	/experiments/knapen_AOT/AOT_stimuli/rescaled_final/1185_fw.mp4	0.0	85.95476984977722	2.5003480911254883
4	57.40114903450012	pulse	1	t		2.0	2.5	/experiments/knapen_AOT/AOT_stimuli/rescaled_final/1185_fw.mp4	0.0	86.73095393180847	
4	59.000458002090454	pulse	1	t		2.0	2.5	/experiments/knapen_AOT/AOT_stimuli/rescaled_final/1185_fw.mp4	0.0	88.3302628993988	
4	59.12531304359436	fix_post	2		12	2.0	2.5	/experiments/knapen_AOT/AOT_stimuli/rescaled_final/1185_fw.mp4	0.0	88.45511794090271	0.10005903244018555
5	59.225372076034546	fix_pre	0		120	3.0	2.5	/experiments/knapen_AOT/AOT_stimuli/rescaled_final/0685_fw.mp4	0.0	88.5551769733429	1.0001249313354492
5	60.225497007369995	movie	1		243	3.0	2.5	/experiments/knapen_AOT/AOT_stimuli/rescaled_final/0685_fw.mp4	0.0	89.55530190467834	2.4920380115509033
5	60.60065293312073	pulse	1	t		3.0	2.5	/experiments/knapen_AOT/AOT_stimuli/rescaled_final/0685_fw.mp4	0.0	89.93045783042908	
5	62.20112895965576	pulse	1	t		3.0	2.5	/experiments/knapen_AOT/AOT_stimuli/rescaled_final/0685_fw.mp4	0.0	91.53093385696411	
5	62.7175350189209	fix_post	2		12	3.0	2.5	/experiments/knapen_AOT/AOT_stimuli/rescaled_final/0685_fw.mp4	0.0	92.04733991622925	0.10000109672546387
6	62.81753611564636	fix_pre	0		119	4.0	2.5	/experiments/knapen_AOT/AOT_stimuli/rescaled_final/1144_fw.mp4	0.0	92.14734101295471	0.9919278621673584
6	63.80125403404236	pulse	0	t		4.0	2.5	/experiments/knapen_AOT/AOT_stimuli/rescaled_final/1144_fw.mp4	0.0	93.13105893135071	
6	63.80946397781372	movie	1		244	4.0	2.5	/experiments/knapen_AOT/AOT_stimuli/rescaled_final/1144_fw.mp4	0.0	93.13926887512207	2.508592128753662
6	65.40640306472778	pulse	1	t		4.0	2.5	/experiments/knapen_AOT/AOT_stimuli/rescaled_final/1144_fw.mp4	0.0	94.73620796203613	
6	66.31805610656738	fix_post	2		12	4.0	2.5	/experiments/knapen_AOT/AOT_stimuli/rescaled_final/1144_fw.mp4	0.0	95.64786100387573	0.10006880760192871
7	66.41812491416931	fix_pre	0		120	5.0	2.5	blank	1.0	95.74792981147766	1.0001320838928223
7	67.00173997879028	pulse	0	t		5.0	2.5	blank	1.0	96.33154487609863	
7	67.41825699806213	movie	1		300	5.0	2.5	blank	1.0	96.74806189537048	2.500354051589966
7	68.60191798210144	pulse	1	t		5.0	2.5	blank	1.0	97.93172287940979	
7	69.9186110496521	fix_post	2		12	5.0	2.5	blank	1.0	99.24841594696045	0.10001707077026367
8	70.01862812042236	fix_pre	0		120	6.0	2.5	/experiments/knapen_AOT/AOT_stimuli/rescaled_final/1904_fw.mp4	0.0	99.34843301773071	1.0001518726348877
8	70.20221710205078	pulse	0	t		6.0	2.5	/experiments/knapen_AOT/AOT_stimuli/rescaled_final/1904_fw.mp4	0.0	99.53202199935913	
8	71.01877999305725	movie	1		243	6.0	2.5	/experiments/knapen_AOT/AOT_stimuli/rescaled_final/1904_fw.mp4	0.0	100.3485848903656	2.5003421306610107
8	71.80240106582642	pulse	1	t		6.0	2.5	/experiments/knapen_AOT/AOT_stimuli/rescaled_final/1904_fw.mp4	0.0	101.13220596313477	
8	73.40255403518677	pulse	1	t		6.0	2.5	/experiments/knapen_AOT/AOT_stimuli/rescaled_final/1904_fw.mp4	0.0	102.73235893249512	
8	73.51912212371826	fix_post	2		12	6.0	2.5	/experiments/knapen_AOT/AOT_stimuli/rescaled_final/1904_fw.mp4	0.0	102.84892702102661	0.1000669002532959
9	73.61918902397156	fix_pre	0		120	7.0	2.5	/experiments/knapen_AOT/AOT_stimuli/rescaled_final/1142_fw.mp4	0.0	102.94899392127991	1.0001869201660156
9	74.61937594413757	movie	1		244	7.0	2.5	/experiments/knapen_AOT/AOT_stimuli/rescaled_final/1142_fw.mp4	0.0	103.94918084144592	2.4919731616973877
9	75.00433897972107	pulse	1	t		7.0	2.5	/experiments/knapen_AOT/AOT_stimuli/rescaled_final/1142_fw.mp4	0.0	104.33414387702942	
9	76.60324907302856	pulse	1	t		7.0	2.5	/experiments/knapen_AOT/AOT_stimuli/rescaled_final/1142_fw.mp4	0.0	105.93305397033691	
9	77.11134910583496	fix_post	2		12	7.0	2.5	/experiments/knapen_AOT/AOT_stimuli/rescaled_final/1142_fw.mp4	0.0	106.44115400314331	0.10000395774841309
10	77.21135306358337	fix_pre	0		120	8.0	2.5	/experiments/knapen_AOT/AOT_stimuli/rescaled_final/0932_rv.mp4	0.0	106.54115796089172	1.0001459121704102
10	78.20345091819763	pulse	0	t		8.0	2.5	/experiments/knapen_AOT/AOT_stimuli/rescaled_final/0932_rv.mp4	0.0	107.53325581550598	
10	78.21149897575378	movie	1		245	8.0	2.5	/experiments/knapen_AOT/AOT_stimuli/rescaled_final/0932_rv.mp4	0.0	107.54130387306213	2.5087060928344727
10	79.80427503585815	pulse	1	t		8.0	2.5	/experiments/knapen_AOT/AOT_stimuli/rescaled_final/0932_rv.mp4	0.0	109.1340799331665	
10	80.72020506858826	fix_post	2		12	8.0	2.5	/experiments/knapen_AOT/AOT_stimuli/rescaled_final/0932_rv.mp4	0.0	110.0500099658966	0.10002493858337402
11	80.82023000717163	fix_pre	0		120	9.0	2.5	/experiments/knapen_AOT/AOT_stimuli/rescaled_final/1711_fw.mp4	0.0	110.15003490447998	1.0002028942108154
11	81.40385603904724	pulse	0	t		9.0	2.5	/experiments/knapen_AOT/AOT_stimuli/rescaled_final/1711_fw.mp4	0.0	110.73366093635559	
11	81.82043290138245	movie	1		240	9.0	2.5	/experiments/knapen_AOT/AOT_stimuli/rescaled_final/1711_fw.mp4	0.0	111.1502377986908	2.500335216522217
11	83.00419402122498	pulse	1	t		9.0	2.5	/experiments/knapen_AOT/AOT_stimuli/rescaled_final/1711_fw.mp4	0.0	112.33399891853333	
11	84.32076811790466	fix_post	2		12	9.0	2.5	/experiments/knapen_AOT/AOT_stimuli/rescaled_final/1711_fw.mp4	0.0	113.65057301521301	0.10001277923583984
12	84.4207808971405	fix_pre	0		120	10.0	2.5	/experiments/knapen_AOT/AOT_stimuli/rescaled_final/1713_rv.mp4	0.0	113.75058579444885	1.0001451969146729
12	84.60437107086182	pulse	0	t		10.0	2.5	/experiments/knapen_AOT/AOT_stimuli/rescaled_final/1713_rv.mp4	0.0	113.93417596817017	
12	85.42092609405518	movie	1		245	10.0	2.5	/experiments/knapen_AOT/AOT_stimuli/rescaled_final/1713_rv.mp4	0.0	114.75073099136353	2.5003650188446045
12	86.20458006858826	pulse	1	t		10.0	2.5	/experiments/knapen_AOT/AOT_stimuli/rescaled_final/1713_rv.mp4	0.0	115.5343849658966	
12	87.80483889579773	pulse	1	t		10.0	2.5	/experiments/knapen_AOT/AOT_stimuli/rescaled_final/1713_rv.mp4	0.0	117.13464379310608	
12	87.92129111289978	fix_post	2		12	10.0	2.5	/experiments/knapen_AOT/AOT_stimuli/rescaled_final/1713_rv.mp4	0.0	117.25109601020813	0.10001182556152344
13	88.0213029384613	fix_pre	0		120	11.0	2.5	/experiments/knapen_AOT/AOT_stimuli/rescaled_final/1768_rv.mp4	0.0	117.35110783576965	1.000148057937622
13	89.02145099639893	movie	1		242	11.0	2.5	/experiments/knapen_AOT/AOT_stimuli/rescaled_final/1768_rv.mp4	0.0	118.35125589370728	2.492042064666748
13	89.40558409690857	pulse	1	t		11.0	2.5	/experiments/knapen_AOT/AOT_stimuli/rescaled_final/1768_rv.mp4	0.0	118.73538899421692	
13	91.00541305541992	pulse	1	t		11.0	2.5	/experiments/knapen_AOT/AOT_stimuli/rescaled_final/1768_rv.mp4	0.0	120.33521795272827	
13	91.51349306106567	fix_post	2		12	11.0	2.5	/experiments/knapen_AOT/AOT_stimuli/rescaled_final/1768_rv.mp4	0.0	120.84329795837402	0.10000991821289062
14	91.61350297927856	fix_pre	0		120	12.0	2.5	blank	1.0	120.94330787658691	1.000162124633789
14	92.60554790496826	pulse	0	t		12.0	2.5	blank	1.0	121.93535280227661	
14	92.61366510391235	movie	1		301	12.0	2.5	blank	1.0	121.9434700012207	2.508776903152466
14	94.20573592185974	pulse	1	t		12.0	2.5	blank	1.0	123.53554081916809	
14	95.12244200706482	fix_post	2		12	12.0	2.5	blank	1.0	124.45224690437317	0.09996390342712402
15	95.22240591049194	fix_pre	0		120	13.0	2.5	/experiments/knapen_AOT/AOT_stimuli/rescaled_final/0585_fw.mp4	0.0	124.5522108078003	1.0001351833343506
15	95.80607604980469	pulse	0	t		13.0	2.5	/experiments/knapen_AOT/AOT_stimuli/rescaled_final/0585_fw.mp4	0.0	125.13588094711304	
15	96.2225410938263	movie	1		244	13.0	2.5	/experiments/knapen_AOT/AOT_stimuli/rescaled_final/0585_fw.mp4	0.0	125.55234599113464	2.50038480758667
15	97.4063560962677	pulse	1	t		13.0	2.5	/experiments/knapen_AOT/AOT_stimuli/rescaled_final/0585_fw.mp4	0.0	126.73616099357605	
15	98.72292590141296	fix_post	2		12	13.0	2.5	/experiments/knapen_AOT/AOT_stimuli/rescaled_final/0585_fw.mp4	0.0	128.0527307987213	0.1000361442565918
16	98.82296204566956	fix_pre	0		120	14.0	2.5	/experiments/knapen_AOT/AOT_stimuli/rescaled_final/1013_rv.mp4	0.0	128.1527669429779	1.0001089572906494
16	99.00656795501709	pulse	0	t		14.0	2.5	/experiments/knapen_AOT/AOT_stimuli/rescaled_final/1013_rv.mp4	0.0	128.33637285232544	
16	99.8230710029602	movie	1		244	14.0	2.5	/experiments/knapen_AOT/AOT_stimuli/rescaled_final/1013_rv.mp4	0.0	129.15287590026855	2.5003819465637207
16	100.60667204856873	pulse	1	t		14.0	2.5	/experiments/knapen_AOT/AOT_stimuli/rescaled_final/1013_rv.mp4	0.0	129.93647694587708	
16	102.20770502090454	pulse	1	t		14.0	2.5	/experiments/knapen_AOT/AOT_stimuli/rescaled_final/1013_rv.mp4	0.0	131.5375099182129	
16	102.32345294952393	fix_post	2		12	14.0	2.5	/experiments/knapen_AOT/AOT_stimuli/rescaled_final/1013_rv.mp4	0.0	131.65325784683228	0.1000070571899414
17	102.42346000671387	fix_pre	0		119	15.0	2.5	/experiments/knapen_AOT/AOT_stimuli/rescaled_final/1831_fw.mp4	0.0	131.75326490402222	0.9918320178985596
17	103.41529202461243	movie	1		243	15.0	2.5	/experiments/knapen_AOT/AOT_stimuli/rescaled_final/1831_fw.mp4	0.0	132.74509692192078	2.5003418922424316
17	103.80730295181274	pulse	1	t		15.0	2.5	/experiments/knapen_AOT/AOT_stimuli/rescaled_final/1831_fw.mp4	0.0	133.1371078491211	
17	105.40742492675781	pulse	1	t		15.0	2.5	/experiments/knapen_AOT/AOT_stimuli/rescaled_final/1831_fw.mp4	0.0	134.73722982406616	
17	105.91563391685486	fix_post	2		12	15.0	2.5	/experiments/knapen_AOT/AOT_stimuli/rescaled_final/1831_fw.mp4	0.0	135.2454388141632	0.10001611709594727
18	106.0156500339508	fix_pre	0		120	16.0	2.5	/experiments/knapen_AOT/AOT_stimuli/rescaled_final/1459_rv.mp4	0.0	135.34545493125916	1.0002620220184326
18	107.00771713256836	pulse	0	t		16.0	2.5	/experiments/knapen_AOT/AOT_stimuli/rescaled_final/1459_rv.mp4	0.0	136.3375220298767	
18	107.01591205596924	movie	1		246	16.0	2.5	/experiments/knapen_AOT/AOT_stimuli/rescaled_final/1459_rv.mp4	0.0	136.3457169532776	2.5085809230804443
18	108.60913896560669	pulse	1	t		16.0	2.5	/experiments/knapen_AOT/AOT_stimuli/rescaled_final/1459_rv.mp4	0.0	137.93894386291504	
18	109.52449297904968	fix_post	2		12	16.0	2.5	/experiments/knapen_AOT/AOT_stimuli/rescaled_final/1459_rv.mp4	0.0	138.85429787635803	0.10004210472106934
19	109.62453508377075	fix_pre	0		120	17.0	2.5	/experiments/knapen_AOT/AOT_stimuli/rescaled_final/1540_fw.mp4	0.0	138.9543399810791	1.0002079010009766
19	110.19988512992859	pulse	0	t		17.0	2.5	/experiments/knapen_AOT/AOT_stimuli/rescaled_final/1540_fw.mp4	0.0	139.52969002723694	
19	110.62474298477173	movie	1		245	17.0	2.5	/experiments/knapen_AOT/AOT_stimuli/rescaled_final/1540_fw.mp4	0.0	139.95454788208008	2.5003299713134766
19	111.80052208900452	pulse	1	t		17.0	2.5	/experiments/knapen_AOT/AOT_stimuli/rescaled_final/1540_fw.mp4	0.0	141.13032698631287	
19	113.1250729560852	fix_post	2		12	17.0	2.5	/experiments/knapen_AOT/AOT_stimuli/rescaled_final/1540_fw.mp4	0.0	142.45487785339355	0.09998416900634766
20	113.22505712509155	fix_pre	0		120	18.0	2.5	/experiments/knapen_AOT/AOT_stimuli/rescaled_final/1632_rv.mp4	0.0	142.5548620223999	1.0001499652862549
20	113.4002730846405	pulse	0	t		18.0	2.5	/experiments/knapen_AOT/AOT_stimuli/rescaled_final/1632_rv.mp4	0.0	142.73007798194885	
20	114.22520709037781	movie	1		245	18.0	2.5	/experiments/knapen_AOT/AOT_stimuli/rescaled_final/1632_rv.mp4	0.0	143.55501198768616	2.5003700256347656
20	115.00058603286743	pulse	1	t		18.0	2.5	/experiments/knapen_AOT/AOT_stimuli/rescaled_final/1632_rv.mp4	0.0	144.33039093017578	
20	116.60070490837097	pulse	1	t		18.0	2.5	/experiments/knapen_AOT/AOT_stimuli/rescaled_final/1632_rv.mp4	0.0	145.93050980567932	
20	116.72557711601257	fix_post	2		12	18.0	2.5	/experiments/knapen_AOT/AOT_stimuli/rescaled_final/1632_rv.mp4	0.0	146.05538201332092	0.10003900527954102
21	116.82561612129211	fix_pre	0		119	19.0	2.5	/experiments/knapen_AOT/AOT_stimuli/rescaled_final/1178_fw.mp4	0.0	146.15542101860046	0.9918258190155029
21	117.81744194030762	movie	1		243	19.0	2.5	/experiments/knapen_AOT/AOT_stimuli/rescaled_final/1178_fw.mp4	0.0	147.14724683761597	2.500359058380127
21	118.2014091014862	pulse	1	t		19.0	2.5	/experiments/knapen_AOT/AOT_stimuli/rescaled_final/1178_fw.mp4	0.0	147.53121399879456	
21	119.80129098892212	pulse	1	t		19.0	2.5	/experiments/knapen_AOT/AOT_stimuli/rescaled_final/1178_fw.mp4	0.0	149.13109588623047	
21	120.31780099868774	fix_post	2		12	19.0	2.5	/experiments/knapen_AOT/AOT_stimuli/rescaled_final/1178_fw.mp4	0.0	149.6476058959961	0.10011601448059082
22	120.41791701316833	fix_pre	0		119	20.0	2.5	/experiments/knapen_AOT/AOT_stimuli/rescaled_final/1262_fw.mp4	0.0	149.74772191047668	0.9917030334472656
22	121.4014949798584	pulse	0	t		20.0	2.5	/experiments/knapen_AOT/AOT_stimuli/rescaled_final/1262_fw.mp4	0.0	150.73129987716675	
22	121.4096200466156	movie	1		245	20.0	2.5	/experiments/knapen_AOT/AOT_stimuli/rescaled_final/1262_fw.mp4	0.0	150.73942494392395	2.508805990219116
22	123.00216507911682	pulse	1	t		20.0	2.5	/experiments/knapen_AOT/AOT_stimuli/rescaled_final/1262_fw.mp4	0.0	152.33196997642517	
22	123.91842603683472	fix_post	2		12	20.0	2.5	/experiments/knapen_AOT/AOT_stimuli/rescaled_final/1262_fw.mp4	0.0	153.24823093414307	0.09997701644897461
23	124.01840305328369	fix_pre	0		120	21.0	2.5	blank	1.0	153.34820795059204	1.0000910758972168
23	124.60195994377136	pulse	0	t		21.0	2.5	blank	1.0	153.9317648410797	
23	125.01849412918091	movie	1		300	21.0	2.5	blank	1.0	154.34829902648926	2.500394821166992
23	126.20224905014038	pulse	1	t		21.0	2.5	blank	1.0	155.53205394744873	
23	127.5188889503479	fix_post	2		12	21.0	2.5	blank	1.0	156.84869384765625	0.10008406639099121
24	127.61897301673889	fix_pre	0		120	22.0	2.5	/experiments/knapen_AOT/AOT_stimuli/rescaled_final/1623_fw.mp4	0.0	156.94877791404724	1.0000569820404053
24	127.8024549484253	pulse	0	t		22.0	2.5	/experiments/knapen_AOT/AOT_stimuli/rescaled_final/1623_fw.mp4	0.0	157.13225984573364	
24	128.6190299987793	movie	1		244	22.0	2.5	/experiments/knapen_AOT/AOT_stimuli/rescaled_final/1623_fw.mp4	0.0	157.94883489608765	2.5003910064697266
24	129.4027009010315	pulse	1	t		22.0	2.5	/experiments/knapen_AOT/AOT_stimuli/rescaled_final/1623_fw.mp4	0.0	158.73250579833984	
24	131.00459098815918	pulse	1	t		22.0	2.5	/experiments/knapen_AOT/AOT_stimuli/rescaled_final/1623_fw.mp4	0.0	160.33439588546753	
24	131.11942100524902	fix_post	2		12	22.0	2.5	/experiments/knapen_AOT/AOT_stimuli/rescaled_final/1623_fw.mp4	0.0	160.44922590255737	0.10001111030578613
25	131.2194321155548	fix_pre	0		120	23.0	2.5	/experiments/knapen_AOT/AOT_stimuli/rescaled_final/1643_fw.mp4	0.0	160.54923701286316	1.0001327991485596
25	132.21956491470337	movie	1		242	23.0	2.5	/experiments/knapen_AOT/AOT_stimuli/rescaled_final/1643_fw.mp4	0.0	161.54936981201172	2.492065191268921
25	132.6037459373474	pulse	1	t		23.0	2.5	/experiments/knapen_AOT/AOT_stimuli/rescaled_final/1643_fw.mp4	0.0	161.93355083465576	
25	134.20345902442932	pulse	1	t		23.0	2.5	/experiments/knapen_AOT/AOT_stimuli/rescaled_final/1643_fw.mp4	0.0	163.53326392173767	
25	134.7116301059723	fix_post	2		12	23.0	2.5	/experiments/knapen_AOT/AOT_stimuli/rescaled_final/1643_fw.mp4	0.0	164.04143500328064	0.10001683235168457
26	134.81164693832397	fix_pre	0		120	24.0	2.5	/experiments/knapen_AOT/AOT_stimuli/rescaled_final/1453_fw.mp4	0.0	164.14145183563232	1.0001411437988281
26	135.80371594429016	pulse	0	t		24.0	2.5	/experiments/knapen_AOT/AOT_stimuli/rescaled_final/1453_fw.mp4	0.0	165.1335208415985	
26	135.8117880821228	movie	1		245	24.0	2.5	/experiments/knapen_AOT/AOT_stimuli/rescaled_final/1453_fw.mp4	0.0	165.14159297943115	2.5086770057678223
26	137.40474104881287	pulse	1	t		24.0	2.5	/experiments/knapen_AOT/AOT_stimuli/rescaled_final/1453_fw.mp4	0.0	166.73454594612122	
26	138.32046508789062	fix_post	2		12	24.0	2.5	/experiments/knapen_AOT/AOT_stimuli/rescaled_final/1453_fw.mp4	0.0	167.65026998519897	0.10003495216369629
27	138.42050004005432	fix_pre	0		120	25.0	2.5	/experiments/knapen_AOT/AOT_stimuli/rescaled_final/2016_fw.mp4	0.0	167.75030493736267	1.000140905380249
27	139.00413298606873	pulse	0	t		25.0	2.5	/experiments/knapen_AOT/AOT_stimuli/rescaled_final/2016_fw.mp4	0.0	168.33393788337708	
27	139.42064094543457	movie	1		242	25.0	2.5	/experiments/knapen_AOT/AOT_stimuli/rescaled_final/2016_fw.mp4	0.0	168.75044584274292	2.5003981590270996
27	140.60441994667053	pulse	1	t		25.0	2.5	/experiments/knapen_AOT/AOT_stimuli/rescaled_final/2016_fw.mp4	0.0	169.93422484397888	
27	141.92103910446167	fix_post	2		12	25.0	2.5	/experiments/knapen_AOT/AOT_stimuli/rescaled_final/2016_fw.mp4	0.0	171.25084400177002	0.1000368595123291
28	142.021075963974	fix_pre	0		120	26.0	2.5	blank	1.0	171.35088086128235	1.0001120567321777
28	142.2046160697937	pulse	0	t		26.0	2.5	blank	1.0	171.53442096710205	
28	143.02118802070618	movie	1		300	26.0	2.5	blank	1.0	172.35099291801453	2.500386953353882
28	143.80479192733765	pulse	1	t		26.0	2.5	blank	1.0	173.134596824646	
28	145.40504813194275	pulse	1	t		26.0	2.5	blank	1.0	174.7348530292511	
28	145.52157497406006	fix_post	2		12	26.0	2.5	blank	1.0	174.8513798713684	0.10000801086425781
29	145.62158298492432	fix_pre	0		120	27.0	2.5	/experiments/knapen_AOT/AOT_stimuli/rescaled_final/0870_fw.mp4	0.0	174.95138788223267	1.000136137008667
29	146.62171912193298	movie	1		242	27.0	2.5	/experiments/knapen_AOT/AOT_stimuli/rescaled_final/0870_fw.mp4	0.0	175.95152401924133	2.492034912109375
29	147.00583696365356	pulse	1	t		27.0	2.5	/experiments/knapen_AOT/AOT_stimuli/rescaled_final/0870_fw.mp4	0.0	176.3356418609619	
29	148.60561394691467	pulse	1	t		27.0	2.5	/experiments/knapen_AOT/AOT_stimuli/rescaled_final/0870_fw.mp4	0.0	177.93541884422302	
29	149.11375403404236	fix_post	2		12	27.0	2.5	/experiments/knapen_AOT/AOT_stimuli/rescaled_final/0870_fw.mp4	0.0	178.4435589313507	0.10007309913635254
30	149.2138271331787	fix_pre	0		120	28.0	2.5	/experiments/knapen_AOT/AOT_stimuli/rescaled_final/0630_fw.mp4	0.0	178.54363203048706	1.0000979900360107
30	150.20572805404663	pulse	0	t		28.0	2.5	/experiments/knapen_AOT/AOT_stimuli/rescaled_final/0630_fw.mp4	0.0	179.53553295135498	
30	150.21392512321472	movie	1		245	28.0	2.5	/experiments/knapen_AOT/AOT_stimuli/rescaled_final/0630_fw.mp4	0.0	179.54373002052307	2.5086939334869385
30	151.8073799610138	pulse	1	t		28.0	2.5	/experiments/knapen_AOT/AOT_stimuli/rescaled_final/0630_fw.mp4	0.0	181.13718485832214	
30	152.72261905670166	fix_post	2		12	28.0	2.5	/experiments/knapen_AOT/AOT_stimuli/rescaled_final/0630_fw.mp4	0.0	182.05242395401	0.10004401206970215
31	152.82266306877136	fix_pre	0		120	29.0	2.5	/experiments/knapen_AOT/AOT_stimuli/rescaled_final/0088_rv.mp4	0.0	182.1524679660797	1.0001518726348877
31	153.40630793571472	pulse	0	t		29.0	2.5	/experiments/knapen_AOT/AOT_stimuli/rescaled_final/0088_rv.mp4	0.0	182.73611283302307	
31	153.82281494140625	movie	1		244	29.0	2.5	/experiments/knapen_AOT/AOT_stimuli/rescaled_final/0088_rv.mp4	0.0	183.1526198387146	2.5003671646118164
31	155.00659203529358	pulse	1	t		29.0	2.5	/experiments/knapen_AOT/AOT_stimuli/rescaled_final/0088_rv.mp4	0.0	184.33639693260193	
31	156.32318210601807	fix_post	2		12	29.0	2.5	/experiments/knapen_AOT/AOT_stimuli/rescaled_final/0088_rv.mp4	0.0	185.65298700332642	0.10009193420410156
32	156.42327404022217	fix_pre	0		120	30.0	2.5	/experiments/knapen_AOT/AOT_stimuli/rescaled_final/1613_rv.mp4	0.0	185.75307893753052	1.000114917755127
32	156.60673904418945	pulse	0	t		30.0	2.5	/experiments/knapen_AOT/AOT_stimuli/rescaled_final/1613_rv.mp4	0.0	185.9365439414978	
32	157.4233889579773	movie	1		245	30.0	2.5	/experiments/knapen_AOT/AOT_stimuli/rescaled_final/1613_rv.mp4	0.0	186.75319385528564	2.5003161430358887
32	158.20704007148743	pulse	1	t		30.0	2.5	/experiments/knapen_AOT/AOT_stimuli/rescaled_final/1613_rv.mp4	0.0	187.53684496879578	
32	159.8052179813385	pulse	1	t		30.0	2.5	/experiments/knapen_AOT/AOT_stimuli/rescaled_final/1613_rv.mp4	0.0	189.13502287864685	
32	159.92370510101318	fix_post	2		12	30.0	2.5	/experiments/knapen_AOT/AOT_stimuli/rescaled_final/1613_rv.mp4	0.0	189.25350999832153	0.1001589298248291
33	160.023864030838	fix_pre	0		120	31.0	2.5	/experiments/knapen_AOT/AOT_stimuli/rescaled_final/1899_fw.mp4	0.0	189.35366892814636	1.0000579357147217
33	161.02392196655273	movie	1		243	31.0	2.5	/experiments/knapen_AOT/AOT_stimuli/rescaled_final/1899_fw.mp4	0.0	190.35372686386108	2.4919941425323486
33	161.40806603431702	pulse	1	t		31.0	2.5	/experiments/knapen_AOT/AOT_stimuli/rescaled_final/1899_fw.mp4	0.0	190.73787093162537	
33	163.00763201713562	pulse	1	t		31.0	2.5	/experiments/knapen_AOT/AOT_stimuli/rescaled_final/1899_fw.mp4	0.0	192.33743691444397	
33	163.51591610908508	fix_post	2		12	31.0	2.5	/experiments/knapen_AOT/AOT_stimuli/rescaled_final/1899_fw.mp4	0.0	192.84572100639343	0.10001802444458008
34	163.61593413352966	fix_pre	0		120	32.0	2.5	/experiments/knapen_AOT/AOT_stimuli/rescaled_final/1851_fw.mp4	0.0	192.945739030838	1.000196933746338
34	164.60806798934937	pulse	0	t		32.0	2.5	/experiments/knapen_AOT/AOT_stimuli/rescaled_final/1851_fw.mp4	0.0	193.93787288665771	
34	164.616131067276	movie	1		246	32.0	2.5	/experiments/knapen_AOT/AOT_stimuli/rescaled_final/1851_fw.mp4	0.0	193.94593596458435	2.5087008476257324
34	166.20910096168518	pulse	1	t		32.0	2.5	/experiments/knapen_AOT/AOT_stimuli/rescaled_final/1851_fw.mp4	0.0	195.53890585899353	
34	167.12483191490173	fix_post	2		12	32.0	2.5	/experiments/knapen_AOT/AOT_stimuli/rescaled_final/1851_fw.mp4	0.0	196.45463681221008	0.09994006156921387
35	167.22477197647095	fix_pre	0		120	33.0	2.5	blank	1.0	196.5545768737793	1.0001859664916992
35	167.8008999824524	pulse	0	t		33.0	2.5	blank	1.0	197.13070487976074	
35	168.22495794296265	movie	1		300	33.0	2.5	blank	1.0	197.554762840271	2.5004169940948486
35	169.40108394622803	pulse	1	t		33.0	2.5	blank	1.0	198.73088884353638	
35	170.7253749370575	fix_post	2		12	33.0	2.5	blank	1.0	200.05517983436584	0.10006117820739746
36	170.8254361152649	fix_pre	0		120	34.0	2.5	/experiments/knapen_AOT/AOT_stimuli/rescaled_final/0704_rv.mp4	0.0	200.15524101257324	1.0000379085540771
36	171.00072598457336	pulse	0	t		34.0	2.5	/experiments/knapen_AOT/AOT_stimuli/rescaled_final/0704_rv.mp4	0.0	200.3305308818817	
36	171.82547402381897	movie	1		244	34.0	2.5	/experiments/knapen_AOT/AOT_stimuli/rescaled_final/0704_rv.mp4	0.0	201.15527892112732	2.500493049621582
36	172.60069394111633	pulse	1	t		34.0	2.5	/experiments/knapen_AOT/AOT_stimuli/rescaled_final/0704_rv.mp4	0.0	201.93049883842468	
36	174.2009470462799	pulse	1	t		34.0	2.5	/experiments/knapen_AOT/AOT_stimuli/rescaled_final/0704_rv.mp4	0.0	203.53075194358826	
36	174.32596707344055	fix_post	2		12	34.0	2.5	/experiments/knapen_AOT/AOT_stimuli/rescaled_final/0704_rv.mp4	0.0	203.6557719707489	0.09990501403808594
37	174.42587208747864	fix_pre	0		120	35.0	2.5	/experiments/knapen_AOT/AOT_stimuli/rescaled_final/0186_rv.mp4	0.0	203.755676984787	1.0002069473266602
37	175.4260790348053	movie	1		243	35.0	2.5	/experiments/knapen_AOT/AOT_stimuli/rescaled_final/0186_rv.mp4	0.0	204.75588393211365	2.4920029640197754
37	175.8013620376587	pulse	1	t		35.0	2.5	/experiments/knapen_AOT/AOT_stimuli/rescaled_final/0186_rv.mp4	0.0	205.13116693496704	
37	177.40177392959595	pulse	1	t		35.0	2.5	/experiments/knapen_AOT/AOT_stimuli/rescaled_final/0186_rv.mp4	0.0	206.7315788269043	
37	177.91808199882507	fix_post	2		12	35.0	2.5	/experiments/knapen_AOT/AOT_stimuli/rescaled_final/0186_rv.mp4	0.0	207.24788689613342	0.10003304481506348
38	178.01811504364014	fix_pre	0		119	36.0	2.5	/experiments/knapen_AOT/AOT_stimuli/rescaled_final/1899_rv.mp4	0.0	207.3479199409485	0.9918398857116699
38	179.0017020702362	pulse	0	t		36.0	2.5	/experiments/knapen_AOT/AOT_stimuli/rescaled_final/1899_rv.mp4	0.0	208.33150696754456	
38	179.0099549293518	movie	1		244	36.0	2.5	/experiments/knapen_AOT/AOT_stimuli/rescaled_final/1899_rv.mp4	0.0	208.33975982666016	2.5086591243743896
38	180.60259294509888	pulse	1	t		36.0	2.5	/experiments/knapen_AOT/AOT_stimuli/rescaled_final/1899_rv.mp4	0.0	209.93239784240723	
38	181.5186140537262	fix_post	2		12	36.0	2.5	/experiments/knapen_AOT/AOT_stimuli/rescaled_final/1899_rv.mp4	0.0	210.84841895103455	0.09998703002929688
39	181.6186010837555	fix_pre	0		120	37.0	2.5	/experiments/knapen_AOT/AOT_stimuli/rescaled_final/1632_rv.mp4	0.0	210.94840598106384	1.0001788139343262
39	182.2022099494934	pulse	0	t		37.0	2.5	/experiments/knapen_AOT/AOT_stimuli/rescaled_final/1632_rv.mp4	0.0	211.53201484680176	
39	182.61877989768982	movie	1		245	37.0	2.5	/experiments/knapen_AOT/AOT_stimuli/rescaled_final/1632_rv.mp4	0.0	211.94858479499817	2.5004091262817383
39	183.802570104599	pulse	1	t		37.0	2.5	/experiments/knapen_AOT/AOT_stimuli/rescaled_final/1632_rv.mp4	0.0	213.13237500190735	
39	185.11918902397156	fix_post	2		12	37.0	2.5	/experiments/knapen_AOT/AOT_stimuli/rescaled_final/1632_rv.mp4	0.0	214.4489939212799	0.10002493858337402
40	185.21921396255493	fix_pre	0		120	38.0	2.5	/experiments/knapen_AOT/AOT_stimuli/rescaled_final/1232_rv.mp4	0.0	214.54901885986328	1.0001201629638672
40	185.40269303321838	pulse	0	t		38.0	2.5	/experiments/knapen_AOT/AOT_stimuli/rescaled_final/1232_rv.mp4	0.0	214.73249793052673	
40	186.2193341255188	movie	1		244	38.0	2.5	/experiments/knapen_AOT/AOT_stimuli/rescaled_final/1232_rv.mp4	0.0	215.54913902282715	2.5003299713134766
40	187.00304412841797	pulse	1	t		38.0	2.5	/experiments/knapen_AOT/AOT_stimuli/rescaled_final/1232_rv.mp4	0.0	216.33284902572632	
40	188.60336589813232	pulse	1	t		38.0	2.5	/experiments/knapen_AOT/AOT_stimuli/rescaled_final/1232_rv.mp4	0.0	217.93317079544067	
40	188.71966409683228	fix_post	2		12	38.0	2.5	/experiments/knapen_AOT/AOT_stimuli/rescaled_final/1232_rv.mp4	0.0	218.04946899414062	0.10010099411010742
41	188.81976509094238	fix_pre	0		120	39.0	2.5	/experiments/knapen_AOT/AOT_stimuli/rescaled_final/0538_rv.mp4	0.0	218.14956998825073	1.0000779628753662
41	189.81984305381775	movie	1		243	39.0	2.5	/experiments/knapen_AOT/AOT_stimuli/rescaled_final/0538_rv.mp4	0.0	219.1496479511261	2.4920248985290527
41	190.20405507087708	pulse	1	t		39.0	2.5	/experiments/knapen_AOT/AOT_stimuli/rescaled_final/0538_rv.mp4	0.0	219.53385996818542	
41	191.80365300178528	pulse	1	t		39.0	2.5	/experiments/knapen_AOT/AOT_stimuli/rescaled_final/0538_rv.mp4	0.0	221.13345789909363	
41	192.3118679523468	fix_post	2		12	39.0	2.5	/experiments/knapen_AOT/AOT_stimuli/rescaled_final/0538_rv.mp4	0.0	221.64167284965515	0.09999895095825195
42	192.41186690330505	fix_pre	0		120	40.0	2.5	/experiments/knapen_AOT/AOT_stimuli/rescaled_final/0583_fw.mp4	0.0	221.7416718006134	1.000216007232666
42	193.40391612052917	pulse	0	t		40.0	2.5	/experiments/knapen_AOT/AOT_stimuli/rescaled_final/0583_fw.mp4	0.0	222.73372101783752	
42	193.41208291053772	movie	1		244	40.0	2.5	/experiments/knapen_AOT/AOT_stimuli/rescaled_final/0583_fw.mp4	0.0	222.74188780784607	2.508676052093506
42	195.00481009483337	pulse	1	t		40.0	2.5	/experiments/knapen_AOT/AOT_stimuli/rescaled_final/0583_fw.mp4	0.0	224.33461499214172	
42	195.92075896263123	fix_post	2		12	40.0	2.5	/experiments/knapen_AOT/AOT_stimuli/rescaled_final/0583_fw.mp4	0.0	225.25056385993958	0.10005998611450195
43	196.02081894874573	fix_pre	0		120	41.0	2.5	blank	1.0	225.35062384605408	1.0001020431518555
43	196.60452008247375	pulse	0	t		41.0	2.5	blank	1.0	225.9343249797821	
43	197.02092099189758	movie	1		300	41.0	2.5	blank	1.0	226.35072588920593	2.500396966934204
43	198.2046320438385	pulse	1	t		41.0	2.5	blank	1.0	227.53443694114685	
43	199.5213179588318	fix_post	2		9	41.0	2.5	blank	1.0	228.85112285614014	0.10001301765441895
44	199.6213309764862	fix_pre	0		120	42.0	2.5	/experiments/knapen_AOT/AOT_stimuli/rescaled_final/0993_fw.mp4	0.0	228.95113587379456	1.0001640319824219
44	199.80495405197144	pulse	0	t		42.0	2.5	/experiments/knapen_AOT/AOT_stimuli/rescaled_final/0993_fw.mp4	0.0	229.13475894927979	
44	200.62149500846863	movie	1		243	42.0	2.5	/experiments/knapen_AOT/AOT_stimuli/rescaled_final/0993_fw.mp4	0.0	229.95129990577698	2.500368118286133
44	201.40521097183228	pulse	1	t		42.0	2.5	/experiments/knapen_AOT/AOT_stimuli/rescaled_final/0993_fw.mp4	0.0	230.73501586914062	
44	203.00527596473694	pulse	1	t		42.0	2.5	/experiments/knapen_AOT/AOT_stimuli/rescaled_final/0993_fw.mp4	0.0	232.3350808620453	
44	203.12186312675476	fix_post	2		12	42.0	2.5	/experiments/knapen_AOT/AOT_stimuli/rescaled_final/0993_fw.mp4	0.0	232.4516680240631	0.09995579719543457
45	203.2218189239502	fix_pre	0		119	43.0	2.5	/experiments/knapen_AOT/AOT_stimuli/rescaled_final/0753_rv.mp4	0.0	232.55162382125854	0.9918291568756104
45	204.2136480808258	movie	1		244	43.0	2.5	/experiments/knapen_AOT/AOT_stimuli/rescaled_final/0753_rv.mp4	0.0	233.54345297813416	2.5003750324249268
45	204.60576391220093	pulse	1	t		43.0	2.5	/experiments/knapen_AOT/AOT_stimuli/rescaled_final/0753_rv.mp4	0.0	233.93556880950928	
45	206.20577001571655	pulse	1	t		43.0	2.5	/experiments/knapen_AOT/AOT_stimuli/rescaled_final/0753_rv.mp4	0.0	235.5355749130249	
45	206.71402311325073	fix_post	2		12	43.0	2.5	/experiments/knapen_AOT/AOT_stimuli/rescaled_final/0753_rv.mp4	0.0	236.04382801055908	0.10004782676696777
46	206.8140709400177	fix_pre	0		120	44.0	2.5	/experiments/knapen_AOT/AOT_stimuli/rescaled_final/0598_rv.mp4	0.0	236.14387583732605	1.0001561641693115
46	207.80604004859924	pulse	0	t		44.0	2.5	/experiments/knapen_AOT/AOT_stimuli/rescaled_final/0598_rv.mp4	0.0	237.1358449459076	
46	207.814227104187	movie	1		248	44.0	2.5	/experiments/knapen_AOT/AOT_stimuli/rescaled_final/0598_rv.mp4	0.0	237.14403200149536	2.5086669921875
46	209.40657901763916	pulse	1	t		44.0	2.5	/experiments/knapen_AOT/AOT_stimuli/rescaled_final/0598_rv.mp4	0.0	238.7363839149475	
46	210.3228940963745	fix_post	2		12	44.0	2.5	/experiments/knapen_AOT/AOT_stimuli/rescaled_final/0598_rv.mp4	0.0	239.65269899368286	0.10004091262817383
47	210.42293500900269	fix_pre	0		120	45.0	2.5	/experiments/knapen_AOT/AOT_stimuli/rescaled_final/0076_rv.mp4	0.0	239.75273990631104	1.0001959800720215
47	211.0066111087799	pulse	0	t		45.0	2.5	/experiments/knapen_AOT/AOT_stimuli/rescaled_final/0076_rv.mp4	0.0	240.33641600608826	
47	211.4231309890747	movie	1		244	45.0	2.5	/experiments/knapen_AOT/AOT_stimuli/rescaled_final/0076_rv.mp4	0.0	240.75293588638306	2.5002989768981934
47	212.60689496994019	pulse	1	t		45.0	2.5	/experiments/knapen_AOT/AOT_stimuli/rescaled_final/0076_rv.mp4	0.0	241.93669986724854	
47	213.9234299659729	fix_post	2		12	45.0	2.5	/experiments/knapen_AOT/AOT_stimuli/rescaled_final/0076_rv.mp4	0.0	243.25323486328125	0.10001111030578613
48	214.0234410762787	fix_pre	0		120	46.0	2.5	/experiments/knapen_AOT/AOT_stimuli/rescaled_final/1068_fw.mp4	0.0	243.35324597358704	1.0001938343048096
48	214.2070860862732	pulse	0	t		46.0	2.5	/experiments/knapen_AOT/AOT_stimuli/rescaled_final/1068_fw.mp4	0.0	243.53689098358154	
48	215.0236349105835	movie	1		244	46.0	2.5	/experiments/knapen_AOT/AOT_stimuli/rescaled_final/1068_fw.mp4	0.0	244.35343980789185	2.500349998474121
48	215.80735993385315	pulse	1	t		46.0	2.5	/experiments/knapen_AOT/AOT_stimuli/rescaled_final/1068_fw.mp4	0.0	245.1371648311615	
48	217.41073203086853	pulse	1	t		46.0	2.5	/experiments/knapen_AOT/AOT_stimuli/rescaled_final/1068_fw.mp4	0.0	246.74053692817688	
48	217.52398490905762	fix_post	2		12	46.0	2.5	/experiments/knapen_AOT/AOT_stimuli/rescaled_final/1068_fw.mp4	0.0	246.85378980636597	0.10005021095275879
49	217.62403512001038	fix_pre	0		119	47.0	2.5	/experiments/knapen_AOT/AOT_stimuli/rescaled_final/1602_fw.mp4	0.0	246.95384001731873	0.9917659759521484
49	218.61580109596252	movie	1		244	47.0	2.5	/experiments/knapen_AOT/AOT_stimuli/rescaled_final/1602_fw.mp4	0.0	247.94560599327087	2.5003678798675537
49	219.00778102874756	pulse	1	t		47.0	2.5	/experiments/knapen_AOT/AOT_stimuli/rescaled_final/1602_fw.mp4	0.0	248.3375859260559	
49	220.6005220413208	pulse	1	t		47.0	2.5	/experiments/knapen_AOT/AOT_stimuli/rescaled_final/1602_fw.mp4	0.0	249.93032693862915	
49	221.11616897583008	fix_post	2		12	47.0	2.5	/experiments/knapen_AOT/AOT_stimuli/rescaled_final/1602_fw.mp4	0.0	250.44597387313843	0.10004115104675293
50	221.21621012687683	fix_pre	0		120	48.0	2.5	/experiments/knapen_AOT/AOT_stimuli/rescaled_final/0676_fw.mp4	0.0	250.54601502418518	1.000180959701538
50	222.20061898231506	pulse	0	t		48.0	2.5	/experiments/knapen_AOT/AOT_stimuli/rescaled_final/0676_fw.mp4	0.0	251.5304238796234	
50	222.21639108657837	movie	1		244	48.0	2.5	/experiments/knapen_AOT/AOT_stimuli/rescaled_final/0676_fw.mp4	0.0	251.54619598388672	2.508652925491333
50	223.81346797943115	pulse	1	t		48.0	2.5	/experiments/knapen_AOT/AOT_stimuli/rescaled_final/0676_fw.mp4	0.0	253.1432728767395	
50	224.7250440120697	fix_post	2		12	48.0	2.5	/experiments/knapen_AOT/AOT_stimuli/rescaled_final/0676_fw.mp4	0.0	254.05484890937805	0.1000220775604248
51	224.82506608963013	fix_pre	0		120	49.0	2.5	blank	1.0	254.15487098693848	1.000213861465454
51	225.40029096603394	pulse	0	t		49.0	2.5	blank	1.0	254.73009586334229	
51	225.82527995109558	movie	1		300	49.0	2.5	blank	1.0	255.15508484840393	2.500310182571411
51	227.00047898292542	pulse	1	t		49.0	2.5	blank	1.0	256.33028388023376	
51	228.325590133667	fix_post	2		12	49.0	2.5	blank	1.0	257.65539503097534	0.09999489784240723
52	228.4255850315094	fix_pre	0		120	50.0	2.5	/experiments/knapen_AOT/AOT_stimuli/rescaled_final/1390_fw.mp4	0.0	257.75538992881775	1.000204086303711
52	228.60076689720154	pulse	0	t		50.0	2.5	/experiments/knapen_AOT/AOT_stimuli/rescaled_final/1390_fw.mp4	0.0	257.9305717945099	
52	229.4257891178131	movie	1		244	50.0	2.5	/experiments/knapen_AOT/AOT_stimuli/rescaled_final/1390_fw.mp4	0.0	258.75559401512146	2.5003647804260254
52	230.20106196403503	pulse	1	t		50.0	2.5	/experiments/knapen_AOT/AOT_stimuli/rescaled_final/1390_fw.mp4	0.0	259.5308668613434	
52	231.80134510993958	pulse	1	t		50.0	2.5	/experiments/knapen_AOT/AOT_stimuli/rescaled_final/1390_fw.mp4	0.0	261.1311500072479	
52	231.92615389823914	fix_post	2		12	50.0	2.5	/experiments/knapen_AOT/AOT_stimuli/rescaled_final/1390_fw.mp4	0.0	261.2559587955475	0.09996700286865234
53	232.0261209011078	fix_pre	0		120	51.0	2.5	/experiments/knapen_AOT/AOT_stimuli/rescaled_final/1938_rv.mp4	0.0	261.35592579841614	1.0002140998840332
53	233.02633500099182	movie	1		244	51.0	2.5	/experiments/knapen_AOT/AOT_stimuli/rescaled_final/1938_rv.mp4	0.0	262.35613989830017	2.4920120239257812
53	233.40157890319824	pulse	1	t		51.0	2.5	/experiments/knapen_AOT/AOT_stimuli/rescaled_final/1938_rv.mp4	0.0	262.7313838005066	
53	235.00183010101318	pulse	1	t		51.0	2.5	/experiments/knapen_AOT/AOT_stimuli/rescaled_final/1938_rv.mp4	0.0	264.33163499832153	
53	235.5183470249176	fix_post	2		12	51.0	2.5	/experiments/knapen_AOT/AOT_stimuli/rescaled_final/1938_rv.mp4	0.0	264.84815192222595	0.10003399848937988
54	235.61838102340698	fix_pre	0		119	52.0	2.5	/experiments/knapen_AOT/AOT_stimuli/rescaled_final/1472_rv.mp4	0.0	264.94818592071533	0.9917941093444824
54	236.6020839214325	pulse	0	t		52.0	2.5	/experiments/knapen_AOT/AOT_stimuli/rescaled_final/1472_rv.mp4	0.0	265.93188881874084	
54	236.61017513275146	movie	1		245	52.0	2.5	/experiments/knapen_AOT/AOT_stimuli/rescaled_final/1472_rv.mp4	0.0	265.9399800300598	2.5087080001831055
54	238.20372104644775	pulse	1	t		52.0	2.5	/experiments/knapen_AOT/AOT_stimuli/rescaled_final/1472_rv.mp4	0.0	267.5335259437561	
54	239.11888313293457	fix_post	2		12	52.0	2.5	/experiments/knapen_AOT/AOT_stimuli/rescaled_final/1472_rv.mp4	0.0	268.4486880302429	0.09998393058776855
55	239.21886706352234	fix_pre	0		120	53.0	2.5	/experiments/knapen_AOT/AOT_stimuli/rescaled_final/0532_rv.mp4	0.0	268.5486719608307	1.0001909732818604
55	239.80253100395203	pulse	0	t		53.0	2.5	/experiments/knapen_AOT/AOT_stimuli/rescaled_final/0532_rv.mp4	0.0	269.1323359012604	
55	240.2190580368042	movie	1		245	53.0	2.5	/experiments/knapen_AOT/AOT_stimuli/rescaled_final/0532_rv.mp4	0.0	269.54886293411255	2.5003409385681152
55	241.4029381275177	pulse	1	t		53.0	2.5	/experiments/knapen_AOT/AOT_stimuli/rescaled_final/0532_rv.mp4	0.0	270.73274302482605	
55	242.71939897537231	fix_post	2		12	53.0	2.5	/experiments/knapen_AOT/AOT_stimuli/rescaled_final/0532_rv.mp4	0.0	272.04920387268066	0.10004210472106934
56	242.81944108009338	fix_pre	0		120	54.0	2.5	/experiments/knapen_AOT/AOT_stimuli/rescaled_final/0924_rv.mp4	0.0	272.14924597740173	1.0001389980316162
56	243.003093957901	pulse	0	t		54.0	2.5	/experiments/knapen_AOT/AOT_stimuli/rescaled_final/0924_rv.mp4	0.0	272.33289885520935	
56	243.819580078125	movie	1		244	54.0	2.5	/experiments/knapen_AOT/AOT_stimuli/rescaled_final/0924_rv.mp4	0.0	273.14938497543335	2.5004169940948486
56	244.60331106185913	pulse	1	t		54.0	2.5	/experiments/knapen_AOT/AOT_stimuli/rescaled_final/0924_rv.mp4	0.0	273.9331159591675	
56	246.20346403121948	pulse	1	t		54.0	2.5	/experiments/knapen_AOT/AOT_stimuli/rescaled_final/0924_rv.mp4	0.0	275.53326892852783	
56	246.31999707221985	fix_post	2		12	54.0	2.5	/experiments/knapen_AOT/AOT_stimuli/rescaled_final/0924_rv.mp4	0.0	275.6498019695282	0.10002994537353516
57	246.42002701759338	fix_pre	0		120	55.0	2.5	blank	1.0	275.74983191490173	1.0000920295715332
57	247.42011904716492	movie	1		299	55.0	2.5	blank	1.0	276.74992394447327	2.4920198917388916
57	247.80371499061584	pulse	1	t		55.0	2.5	blank	1.0	277.1335198879242	
57	249.40400004386902	pulse	1	t		55.0	2.5	blank	1.0	278.73380494117737	
57	249.9121389389038	fix_post	2		12	55.0	2.5	blank	1.0	279.24194383621216	0.1000661849975586
58	250.01220512390137	fix_pre	0		120	56.0	2.5	/experiments/knapen_AOT/AOT_stimuli/rescaled_final/0189_fw.mp4	0.0	279.3420100212097	1.0000998973846436
58	251.00423502922058	pulse	0	t		56.0	2.5	/experiments/knapen_AOT/AOT_stimuli/rescaled_final/0189_fw.mp4	0.0	280.33403992652893	
58	251.012305021286	movie	1		244	56.0	2.5	/experiments/knapen_AOT/AOT_stimuli/rescaled_final/0189_fw.mp4	0.0	280.34210991859436	2.508737087249756
58	252.60924696922302	pulse	1	t		56.0	2.5	/experiments/knapen_AOT/AOT_stimuli/rescaled_final/0189_fw.mp4	0.0	281.9390518665314	
58	253.52104210853577	fix_post	2		12	56.0	2.5	/experiments/knapen_AOT/AOT_stimuli/rescaled_final/0189_fw.mp4	0.0	282.8508470058441	0.11671590805053711
59	253.6377580165863	fix_pre	0		118	57.0	2.5	/experiments/knapen_AOT/AOT_stimuli/rescaled_final/0749_rv.mp4	0.0	282.96756291389465	0.9834680557250977
59	254.2045829296112	pulse	0	t		57.0	2.5	/experiments/knapen_AOT/AOT_stimuli/rescaled_final/0749_rv.mp4	0.0	283.53438782691956	
59	254.6212260723114	movie	1		244	57.0	2.5	/experiments/knapen_AOT/AOT_stimuli/rescaled_final/0749_rv.mp4	0.0	283.95103096961975	2.500314950942993
59	255.80502891540527	pulse	1	t		57.0	2.5	/experiments/knapen_AOT/AOT_stimuli/rescaled_final/0749_rv.mp4	0.0	285.1348338127136	
59	257.1215410232544	fix_post	2		12	57.0	2.5	/experiments/knapen_AOT/AOT_stimuli/rescaled_final/0749_rv.mp4	0.0	286.45134592056274	0.10002899169921875
60	257.2215700149536	fix_pre	0		117	58.0	2.5	/experiments/knapen_AOT/AOT_stimuli/rescaled_final/1613_rv.mp4	0.0	286.55137491226196	1.0002210140228271
60	257.405268907547	pulse	0	t		58.0	2.5	/experiments/knapen_AOT/AOT_stimuli/rescaled_final/1613_rv.mp4	0.0	286.73507380485535	
60	258.22179102897644	movie	1		245	58.0	2.5	/experiments/knapen_AOT/AOT_stimuli/rescaled_final/1613_rv.mp4	0.0	287.5515959262848	2.5003879070281982
60	259.0054569244385	pulse	1	t		58.0	2.5	/experiments/knapen_AOT/AOT_stimuli/rescaled_final/1613_rv.mp4	0.0	288.3352618217468	
60	260.6030099391937	pulse	1	t		58.0	2.5	/experiments/knapen_AOT/AOT_stimuli/rescaled_final/1613_rv.mp4	0.0	289.9328148365021	
60	260.72217893600464	fix_post	2		12	58.0	2.5	/experiments/knapen_AOT/AOT_stimuli/rescaled_final/1613_rv.mp4	0.0	290.051983833313	0.09998798370361328
61	260.82216691970825	fix_pre	0		120	59.0	2.5	/experiments/knapen_AOT/AOT_stimuli/rescaled_final/1321_fw.mp4	0.0	290.1519718170166	1.0000832080841064
61	261.82225012779236	movie	1		244	59.0	2.5	/experiments/knapen_AOT/AOT_stimuli/rescaled_final/1321_fw.mp4	0.0	291.1520550251007	2.4920499324798584
61	262.20634508132935	pulse	1	t		59.0	2.5	/experiments/knapen_AOT/AOT_stimuli/rescaled_final/1321_fw.mp4	0.0	291.5361499786377	
61	263.80618500709534	pulse	1	t		59.0	2.5	/experiments/knapen_AOT/AOT_stimuli/rescaled_final/1321_fw.mp4	0.0	293.1359899044037	
61	264.3143000602722	fix_post	2		12	59.0	2.5	/experiments/knapen_AOT/AOT_stimuli/rescaled_final/1321_fw.mp4	0.0	293.64410495758057	0.10002398490905762
62	264.4143240451813	fix_pre	0		120	60.0	2.5	/experiments/knapen_AOT/AOT_stimuli/rescaled_final/1795_rv.mp4	0.0	293.7441289424896	1.0001308917999268
62	265.40633511543274	pulse	0	t		60.0	2.5	/experiments/knapen_AOT/AOT_stimuli/rescaled_final/1795_rv.mp4	0.0	294.7361400127411	
62	265.4144549369812	movie	1		245	60.0	2.5	/experiments/knapen_AOT/AOT_stimuli/rescaled_final/1795_rv.mp4	0.0	294.74425983428955	2.5087311267852783
62	267.00789403915405	pulse	1	t		60.0	2.5	/experiments/knapen_AOT/AOT_stimuli/rescaled_final/1795_rv.mp4	0.0	296.3376989364624	
62	267.9231860637665	fix_post	2		12	60.0	2.5	/experiments/knapen_AOT/AOT_stimuli/rescaled_final/1795_rv.mp4	0.0	297.25299096107483	0.10001897811889648
63	268.0232050418854	fix_pre	0		120	61.0	2.5	/experiments/knapen_AOT/AOT_stimuli/rescaled_final/1948_fw.mp4	0.0	297.3530099391937	1.00016188621521
63	268.60675501823425	pulse	0	t		61.0	2.5	/experiments/knapen_AOT/AOT_stimuli/rescaled_final/1948_fw.mp4	0.0	297.9365599155426	
63	269.0233669281006	movie	1		245	61.0	2.5	/experiments/knapen_AOT/AOT_stimuli/rescaled_final/1948_fw.mp4	0.0	298.35317182540894	2.500324010848999
63	270.2071650028229	pulse	1	t		61.0	2.5	/experiments/knapen_AOT/AOT_stimuli/rescaled_final/1948_fw.mp4	0.0	299.5369699001312	
63	271.5236909389496	fix_post	2		12	61.0	2.5	/experiments/knapen_AOT/AOT_stimuli/rescaled_final/1948_fw.mp4	0.0	300.85349583625793	0.10007810592651367
64	271.6237690448761	fix_pre	0		120	62.0	2.5	blank	1.0	300.95357394218445	1.000093936920166
64	271.80739307403564	pulse	0	t		62.0	2.5	blank	1.0	301.137197971344	
64	272.62386298179626	movie	1		300	62.0	2.5	blank	1.0	301.9536678791046	2.50040602684021
64	273.40754795074463	pulse	1	t		62.0	2.5	blank	1.0	302.737352848053	
64	275.0076858997345	pulse	1	t		62.0	2.5	blank	1.0	304.33749079704285	
64	275.1242690086365	fix_post	2		12	62.0	2.5	blank	1.0	304.4540739059448	0.10003399848937988
65	275.22430300712585	fix_pre	0		119	63.0	2.5	/experiments/knapen_AOT/AOT_stimuli/rescaled_final/0749_rv.mp4	0.0	304.5541079044342	0.9917960166931152
65	276.21609902381897	movie	1		244	63.0	2.5	/experiments/knapen_AOT/AOT_stimuli/rescaled_final/0749_rv.mp4	0.0	305.5459039211273	2.500317096710205
65	276.60805010795593	pulse	1	t		63.0	2.5	/experiments/knapen_AOT/AOT_stimuli/rescaled_final/0749_rv.mp4	0.0	305.9378550052643	
65	278.2009630203247	pulse	1	t		63.0	2.5	/experiments/knapen_AOT/AOT_stimuli/rescaled_final/0749_rv.mp4	0.0	307.53076791763306	
65	278.7164161205292	fix_post	2		12	63.0	2.5	/experiments/knapen_AOT/AOT_stimuli/rescaled_final/0749_rv.mp4	0.0	308.0462210178375	0.10003900527954102
66	278.8164551258087	fix_pre	0		120	64.0	2.5	/experiments/knapen_AOT/AOT_stimuli/rescaled_final/0538_fw.mp4	0.0	308.14626002311707	1.000147819519043
66	279.80099511146545	pulse	0	t		64.0	2.5	/experiments/knapen_AOT/AOT_stimuli/rescaled_final/0538_fw.mp4	0.0	309.1308000087738	
66	279.81660294532776	movie	1		245	64.0	2.5	/experiments/knapen_AOT/AOT_stimuli/rescaled_final/0538_fw.mp4	0.0	309.1464078426361	2.508692979812622
66	281.40921211242676	pulse	1	t		64.0	2.5	/experiments/knapen_AOT/AOT_stimuli/rescaled_final/0538_fw.mp4	0.0	310.7390170097351	
66	282.3252959251404	fix_post	2		12	64.0	2.5	/experiments/knapen_AOT/AOT_stimuli/rescaled_final/0538_fw.mp4	0.0	311.65510082244873	0.10008120536804199
67	282.4253771305084	fix_pre	0		120	65.0	2.5	/experiments/knapen_AOT/AOT_stimuli/rescaled_final/1496_rv.mp4	0.0	311.7551820278168	1.0001308917999268
67	283.0013840198517	pulse	0	t		65.0	2.5	/experiments/knapen_AOT/AOT_stimuli/rescaled_final/1496_rv.mp4	0.0	312.33118891716003	
67	283.42550802230835	movie	1		245	65.0	2.5	/experiments/knapen_AOT/AOT_stimuli/rescaled_final/1496_rv.mp4	0.0	312.7553129196167	2.5003409385681152
67	284.60134291648865	pulse	1	t		65.0	2.5	/experiments/knapen_AOT/AOT_stimuli/rescaled_final/1496_rv.mp4	0.0	313.931147813797	
67	285.92584896087646	fix_post	2		12	65.0	2.5	/experiments/knapen_AOT/AOT_stimuli/rescaled_final/1496_rv.mp4	0.0	315.2556538581848	0.1000370979309082
68	286.0258860588074	fix_pre	0		120	66.0	2.5	/experiments/knapen_AOT/AOT_stimuli/rescaled_final/1459_rv.mp4	0.0	315.3556909561157	1.0001389980316162
68	286.20107412338257	pulse	0	t		66.0	2.5	/experiments/knapen_AOT/AOT_stimuli/rescaled_final/1459_rv.mp4	0.0	315.5308790206909	
68	287.026025056839	movie	1		244	66.0	2.5	/experiments/knapen_AOT/AOT_stimuli/rescaled_final/1459_rv.mp4	0.0	316.35582995414734	2.5003719329833984
68	287.80147194862366	pulse	1	t		66.0	2.5	/experiments/knapen_AOT/AOT_stimuli/rescaled_final/1459_rv.mp4	0.0	317.131276845932	
68	289.40151596069336	pulse	1	t		66.0	2.5	/experiments/knapen_AOT/AOT_stimuli/rescaled_final/1459_rv.mp4	0.0	318.7313208580017	
68	289.5263969898224	fix_post	2		12	66.0	2.5	/experiments/knapen_AOT/AOT_stimuli/rescaled_final/1459_rv.mp4	0.0	318.85620188713074	0.10002613067626953
69	289.62642312049866	fix_pre	0		120	67.0	2.5	/experiments/knapen_AOT/AOT_stimuli/rescaled_final/1713_rv.mp4	0.0	318.956228017807	1.000126838684082
69	290.62654995918274	movie	1		244	67.0	2.5	/experiments/knapen_AOT/AOT_stimuli/rescaled_final/1713_rv.mp4	0.0	319.9563548564911	2.492047071456909
69	291.0016930103302	pulse	1	t		67.0	2.5	/experiments/knapen_AOT/AOT_stimuli/rescaled_final/1713_rv.mp4	0.0	320.33149790763855	
69	292.60209608078003	pulse	1	t		67.0	2.5	/experiments/knapen_AOT/AOT_stimuli/rescaled_final/1713_rv.mp4	0.0	321.9319009780884	
69	293.11859703063965	fix_post	2		12	67.0	2.5	/experiments/knapen_AOT/AOT_stimuli/rescaled_final/1713_rv.mp4	0.0	322.448401927948	0.09997391700744629
70	293.2185709476471	fix_pre	0		119	68.0	2.5	blank	1.0	322.54837584495544	0.9919180870056152
70	294.202269077301	pulse	0	t		68.0	2.5	blank	1.0	323.5320739746094	
70	294.2104890346527	movie	1		301	68.0	2.5	blank	1.0	323.54029393196106	2.5086309909820557
70	295.8024480342865	pulse	1	t		68.0	2.5	blank	1.0	325.13225293159485	
70	296.71912002563477	fix_post	2		12	68.0	2.5	blank	1.0	326.0489249229431	0.10006904602050781
71	296.8191890716553	fix_pre	0		120	69.0	2.5	/experiments/knapen_AOT/AOT_stimuli/rescaled_final/0922_fw.mp4	0.0	326.1489939689636	1.000108003616333
71	297.4026939868927	pulse	0	t		69.0	2.5	/experiments/knapen_AOT/AOT_stimuli/rescaled_final/0922_fw.mp4	0.0	326.73249888420105	
71	297.8192970752716	movie	1		245	69.0	2.5	/experiments/knapen_AOT/AOT_stimuli/rescaled_final/0922_fw.mp4	0.0	327.14910197257996	2.5003600120544434
71	299.0032000541687	pulse	1	t		69.0	2.5	/experiments/knapen_AOT/AOT_stimuli/rescaled_final/0922_fw.mp4	0.0	328.33300495147705	
71	300.31965708732605	fix_post	2		12	69.0	2.5	/experiments/knapen_AOT/AOT_stimuli/rescaled_final/0922_fw.mp4	0.0	329.6494619846344	0.10001587867736816
72	300.4196729660034	fix_pre	0		120	70.0	2.5	/experiments/knapen_AOT/AOT_stimuli/rescaled_final/0870_rv.mp4	0.0	329.74947786331177	1.0002050399780273
72	300.60333490371704	pulse	0	t		70.0	2.5	/experiments/knapen_AOT/AOT_stimuli/rescaled_final/0870_rv.mp4	0.0	329.9331398010254	
72	301.41987800598145	movie	1		243	70.0	2.5	/experiments/knapen_AOT/AOT_stimuli/rescaled_final/0870_rv.mp4	0.0	330.7496829032898	2.5003271102905273
72	302.2035150527954	pulse	1	t		70.0	2.5	/experiments/knapen_AOT/AOT_stimuli/rescaled_final/0870_rv.mp4	0.0	331.53331995010376	
72	303.8036570549011	pulse	1	t		70.0	2.5	/experiments/knapen_AOT/AOT_stimuli/rescaled_final/0870_rv.mp4	0.0	333.1334619522095	
72	303.920205116272	fix_post	2		12	70.0	2.5	/experiments/knapen_AOT/AOT_stimuli/rescaled_final/0870_rv.mp4	0.0	333.2500100135803	0.10003900527954102
73	304.0202441215515	fix_pre	0		120	71.0	2.5	/experiments/knapen_AOT/AOT_stimuli/rescaled_final/1562_rv.mp4	0.0	333.35004901885986	1.0001490116119385
73	305.02039313316345	movie	1		243	71.0	2.5	/experiments/knapen_AOT/AOT_stimuli/rescaled_final/1562_rv.mp4	0.0	334.3501980304718	2.4919979572296143
73	305.4052219390869	pulse	1	t		71.0	2.5	/experiments/knapen_AOT/AOT_stimuli/rescaled_final/1562_rv.mp4	0.0	334.73502683639526	
73	307.00427293777466	pulse	1	t		71.0	2.5	/experiments/knapen_AOT/AOT_stimuli/rescaled_final/1562_rv.mp4	0.0	336.334077835083	
73	307.51239109039307	fix_post	2		12	71.0	2.5	/experiments/knapen_AOT/AOT_stimuli/rescaled_final/1562_rv.mp4	0.0	336.8421959877014	0.10007596015930176
74	307.61246705055237	fix_pre	0		120	72.0	2.5	/experiments/knapen_AOT/AOT_stimuli/rescaled_final/2016_rv.mp4	0.0	336.9422719478607	1.0000848770141602
74	308.60453391075134	pulse	0	t		72.0	2.5	/experiments/knapen_AOT/AOT_stimuli/rescaled_final/2016_rv.mp4	0.0	337.9343388080597	
74	308.6125519275665	movie	1		245	72.0	2.5	/experiments/knapen_AOT/AOT_stimuli/rescaled_final/2016_rv.mp4	0.0	337.9423568248749	2.508756160736084
74	310.20522689819336	pulse	1	t		72.0	2.5	/experiments/knapen_AOT/AOT_stimuli/rescaled_final/2016_rv.mp4	0.0	339.5350317955017	
74	311.1213080883026	fix_post	2		12	72.0	2.5	/experiments/knapen_AOT/AOT_stimuli/rescaled_final/2016_rv.mp4	0.0	340.45111298561096	0.0999908447265625
75	311.2212989330292	fix_pre	0		120	73.0	2.5	/experiments/knapen_AOT/AOT_stimuli/rescaled_final/0685_rv.mp4	0.0	340.5511038303375	1.0001890659332275
75	311.80488300323486	pulse	0	t		73.0	2.5	/experiments/knapen_AOT/AOT_stimuli/rescaled_final/0685_rv.mp4	0.0	341.1346879005432	
75	312.2214879989624	movie	1		245	73.0	2.5	/experiments/knapen_AOT/AOT_stimuli/rescaled_final/0685_rv.mp4	0.0	341.55129289627075	2.50028395652771
75	313.4051949977875	pulse	1	t		73.0	2.5	/experiments/knapen_AOT/AOT_stimuli/rescaled_final/0685_rv.mp4	0.0	342.7349998950958	
75	314.7217719554901	fix_post	2		12	73.0	2.5	/experiments/knapen_AOT/AOT_stimuli/rescaled_final/0685_rv.mp4	0.0	344.05157685279846	0.10001206398010254
76	314.8217840194702	fix_pre	0		120	74.0	2.5	/experiments/knapen_AOT/AOT_stimuli/rescaled_final/1169_rv.mp4	0.0	344.15158891677856	1.0001819133758545
76	315.0054430961609	pulse	0	t		74.0	2.5	/experiments/knapen_AOT/AOT_stimuli/rescaled_final/1169_rv.mp4	0.0	344.33524799346924	
76	315.82196593284607	movie	1		244	74.0	2.5	/experiments/knapen_AOT/AOT_stimuli/rescaled_final/1169_rv.mp4	0.0	345.1517708301544	2.500432014465332
76	316.60563492774963	pulse	1	t		74.0	2.5	/experiments/knapen_AOT/AOT_stimuli/rescaled_final/1169_rv.mp4	0.0	345.935439825058	
76	318.203754901886	pulse	1	t		74.0	2.5	/experiments/knapen_AOT/AOT_stimuli/rescaled_final/1169_rv.mp4	0.0	347.53355979919434	
76	318.3223979473114	fix_post	2		12	74.0	2.5	/experiments/knapen_AOT/AOT_stimuli/rescaled_final/1169_rv.mp4	0.0	347.65220284461975	0.09996795654296875
77	318.42236590385437	fix_pre	0		117	75.0	2.5	blank	1.0	347.7521708011627	1.0001220703125
77	319.42248797416687	movie	1		299	75.0	2.5	blank	1.0	348.7522928714752	2.4920670986175537
77	319.8060939311981	pulse	1	t		75.0	2.5	blank	1.0	349.13589882850647	
77	321.4064071178436	pulse	1	t		75.0	2.5	blank	1.0	350.736212015152	
77	321.9145550727844	fix_post	2		12	75.0	2.5	blank	1.0	351.2443599700928	0.0999898910522461
78	322.01454496383667	fix_pre	0		120	76.0	2.5	/experiments/knapen_AOT/AOT_stimuli/rescaled_final/1911_fw.mp4	0.0	351.344349861145	1.0001800060272217
78	323.00659012794495	pulse	0	t		76.0	2.5	/experiments/knapen_AOT/AOT_stimuli/rescaled_final/1911_fw.mp4	0.0	352.3363950252533	
78	323.0147249698639	movie	1		245	76.0	2.5	/experiments/knapen_AOT/AOT_stimuli/rescaled_final/1911_fw.mp4	0.0	352.34452986717224	2.5086910724639893
78	324.60757303237915	pulse	1	t		76.0	2.5	/experiments/knapen_AOT/AOT_stimuli/rescaled_final/1911_fw.mp4	0.0	353.9373779296875	
78	325.5234160423279	fix_post	2		12	76.0	2.5	/experiments/knapen_AOT/AOT_stimuli/rescaled_final/1911_fw.mp4	0.0	354.85322093963623	0.10001206398010254
79	325.623428106308	fix_pre	0		120	77.0	2.5	/experiments/knapen_AOT/AOT_stimuli/rescaled_final/1972_fw.mp4	0.0	354.95323300361633	1.000152826309204
79	326.20711493492126	pulse	0	t		77.0	2.5	/experiments/knapen_AOT/AOT_stimuli/rescaled_final/1972_fw.mp4	0.0	355.5369198322296	
79	326.6235809326172	movie	1		246	77.0	2.5	/experiments/knapen_AOT/AOT_stimuli/rescaled_final/1972_fw.mp4	0.0	355.95338582992554	2.5003890991210938
79	327.8073499202728	pulse	1	t		77.0	2.5	/experiments/knapen_AOT/AOT_stimuli/rescaled_final/1972_fw.mp4	0.0	357.1371548175812	
79	329.1239700317383	fix_post	2		12	77.0	2.5	/experiments/knapen_AOT/AOT_stimuli/rescaled_final/1972_fw.mp4	0.0	358.45377492904663	0.10002398490905762
80	329.22399401664734	fix_pre	0		120	78.0	2.5	/experiments/knapen_AOT/AOT_stimuli/rescaled_final/0532_rv.mp4	0.0	358.5537989139557	1.0001370906829834
80	329.4076189994812	pulse	0	t		78.0	2.5	/experiments/knapen_AOT/AOT_stimuli/rescaled_final/0532_rv.mp4	0.0	358.73742389678955	
80	330.2241311073303	movie	1		245	78.0	2.5	/experiments/knapen_AOT/AOT_stimuli/rescaled_final/0532_rv.mp4	0.0	359.5539360046387	2.5003609657287598
80	331.0003569126129	pulse	1	t		78.0	2.5	/experiments/knapen_AOT/AOT_stimuli/rescaled_final/0532_rv.mp4	0.0	360.33016180992126	
80	332.6053879261017	pulse	1	t		78.0	2.5	/experiments/knapen_AOT/AOT_stimuli/rescaled_final/0532_rv.mp4	0.0	361.93519282341003	
80	332.7244920730591	fix_post	2		12	78.0	2.5	/experiments/knapen_AOT/AOT_stimuli/rescaled_final/0532_rv.mp4	0.0	362.05429697036743	0.10001301765441895
81	332.8245050907135	fix_pre	0		120	79.0	2.5	/experiments/knapen_AOT/AOT_stimuli/rescaled_final/0571_rv.mp4	0.0	362.15430998802185	1.0001468658447266
81	333.8246519565582	movie	1		243	79.0	2.5	/experiments/knapen_AOT/AOT_stimuli/rescaled_final/0571_rv.mp4	0.0	363.1544568538666	2.4920411109924316
81	334.20896100997925	pulse	1	t		79.0	2.5	/experiments/knapen_AOT/AOT_stimuli/rescaled_final/0571_rv.mp4	0.0	363.5387659072876	
81	335.8011839389801	pulse	1	t		79.0	2.5	/experiments/knapen_AOT/AOT_stimuli/rescaled_final/0571_rv.mp4	0.0	365.13098883628845	
81	336.31669306755066	fix_post	2		12	79.0	2.5	/experiments/knapen_AOT/AOT_stimuli/rescaled_final/0571_rv.mp4	0.0	365.646497964859	0.10003900527954102
82	336.4167320728302	fix_pre	0		120	80.0	2.5	/experiments/knapen_AOT/AOT_stimuli/rescaled_final/2052_rv.mp4	0.0	365.74653697013855	1.0001459121704102
82	337.4012269973755	pulse	0	t		80.0	2.5	/experiments/knapen_AOT/AOT_stimuli/rescaled_final/2052_rv.mp4	0.0	366.73103189468384	
82	337.4168779850006	movie	1		245	80.0	2.5	/experiments/knapen_AOT/AOT_stimuli/rescaled_final/2052_rv.mp4	0.0	366.74668288230896	2.5086560249328613
82	339.0006010532379	pulse	1	t		80.0	2.5	/experiments/knapen_AOT/AOT_stimuli/rescaled_final/2052_rv.mp4	0.0	368.33040595054626	
82	339.9255340099335	fix_post	2		12	80.0	2.5	/experiments/knapen_AOT/AOT_stimuli/rescaled_final/2052_rv.mp4	0.0	369.2553389072418	0.10002493858337402
83	340.02555894851685	fix_pre	0		120	81.0	2.5	/experiments/knapen_AOT/AOT_stimuli/rescaled_final/1032_rv.mp4	0.0	369.3553638458252	1.0001599788665771
83	340.60079312324524	pulse	0	t		81.0	2.5	/experiments/knapen_AOT/AOT_stimuli/rescaled_final/1032_rv.mp4	0.0	369.9305980205536	
83	341.0257189273834	movie	1		243	81.0	2.5	/experiments/knapen_AOT/AOT_stimuli/rescaled_final/1032_rv.mp4	0.0	370.3555238246918	2.5004031658172607
83	342.2016189098358	pulse	1	t		81.0	2.5	/experiments/knapen_AOT/AOT_stimuli/rescaled_final/1032_rv.mp4	0.0	371.53142380714417	
83	343.5261220932007	fix_post	2		12	81.0	2.5	/experiments/knapen_AOT/AOT_stimuli/rescaled_final/1032_rv.mp4	0.0	372.85592699050903	0.10000991821289062
84	343.6261320114136	fix_pre	0		120	82.0	2.5	blank	1.0	372.9559369087219	1.000133991241455
84	343.80131101608276	pulse	0	t		82.0	2.5	blank	1.0	373.1311159133911	
84	344.62626600265503	movie	1		300	82.0	2.5	blank	1.0	373.9560708999634	2.500343084335327
84	345.4015460014343	pulse	1	t		82.0	2.5	blank	1.0	374.7313508987427	
84	347.0017580986023	pulse	1	t		82.0	2.5	blank	1.0	376.33156299591064	
84	347.12660908699036	fix_post	2		12	82.0	2.5	blank	1.0	376.4564139842987	0.10003781318664551
85	347.226646900177	fix_pre	0		119	83.0	2.5	/experiments/knapen_AOT/AOT_stimuli/rescaled_final/0055_fw.mp4	0.0	376.55645179748535	0.9917972087860107
85	348.218444108963	movie	1		244	83.0	2.5	/experiments/knapen_AOT/AOT_stimuli/rescaled_final/0055_fw.mp4	0.0	377.54824900627136	2.500403881072998
85	348.6025400161743	pulse	1	t		83.0	2.5	/experiments/knapen_AOT/AOT_stimuli/rescaled_final/0055_fw.mp4	0.0	377.93234491348267	
85	350.2023079395294	pulse	1	t		83.0	2.5	/experiments/knapen_AOT/AOT_stimuli/rescaled_final/0055_fw.mp4	0.0	379.53211283683777	
85	350.718847990036	fix_post	2		12	83.0	2.5	/experiments/knapen_AOT/AOT_stimuli/rescaled_final/0055_fw.mp4	0.0	380.04865288734436	0.09998011589050293
87	350.8188281059265	stim	0		1716					380.14863300323486	14.302251815795898
87	351.8025119304657	pulse	0	t						381.13231682777405	
87	353.4026999473572	pulse	0	t						382.7325048446655	
87	355.00305700302124	pulse	0	t						384.3328619003296	
87	356.6032280921936	pulse	0	t						385.93303298950195	
87	358.20345997810364	pulse	0	t						387.533264875412	
87	359.80364513397217	pulse	0	t						389.1334500312805	
87	361.4039509296417	pulse	0	t						390.7337558269501	
87	363.0041871070862	pulse	0	t						392.33399200439453	
87	364.60442209243774	pulse	0	t						393.9342269897461	
