trial_nr	onset	event_type	phase	response	nr_frames	movie_index	movie_duration	movie_file	blank	onset_abs	duration
0	0.20816302299499512	stim	0		1					44.51234292984009	0.008310079574584961
0	0.20670390129089355	response	0	space						44.510883808135986	
1	0.21647310256958008	stim	0		4591					44.52065300941467	38.27422881126404
1	38.48096990585327	pulse	0	t						82.78514981269836	
1	38.49070191383362	stim	1		1715					82.79488182067871	14.30028510093689
1	40.072649002075195	pulse	1	t						84.37682890892029	
1	41.672930002212524	pulse	1	t						85.97710990905762	
1	43.27305197715759	pulse	1	t						87.57723188400269	
1	44.87328004837036	pulse	1	t						89.17745995521545	
1	46.47365093231201	pulse	1	t						90.7778308391571	
1	48.07379603385925	pulse	1	t						92.37797594070435	
1	49.673957109451294	pulse	1	t						93.97813701629639	
1	51.27424502372742	pulse	1	t						95.57842493057251	
2	52.79098701477051	fix_pre	0		11	0.0	2.5	/experiments/knapen_AOT/AOT_stimuli/rescaled_final/1405_fw.mp4	0.0	97.0951669216156	0.09166789054870605
2	52.8744900226593	pulse	0	t		0.0	2.5	/experiments/knapen_AOT/AOT_stimuli/rescaled_final/1405_fw.mp4	0.0	97.1786699295044	
2	52.882654905319214	movie	1		243	0.0	2.5	/experiments/knapen_AOT/AOT_stimuli/rescaled_final/1405_fw.mp4	0.0	97.1868348121643	2.508742094039917
2	54.4794979095459	pulse	1	t		0.0	2.5	/experiments/knapen_AOT/AOT_stimuli/rescaled_final/1405_fw.mp4	0.0	98.78367781639099	
2	55.39139699935913	fix_post	2		12	0.0	2.5	/experiments/knapen_AOT/AOT_stimuli/rescaled_final/1405_fw.mp4	0.0	99.69557690620422	0.10000395774841309
3	55.491400957107544	fix_pre	0		120	1.0	2.5	/experiments/knapen_AOT/AOT_stimuli/rescaled_final/0533_fw.mp4	0.0	99.79558086395264	1.0001211166381836
3	56.074949979782104	pulse	0	t		1.0	2.5	/experiments/knapen_AOT/AOT_stimuli/rescaled_final/0533_fw.mp4	0.0	100.3791298866272	
3	56.49152207374573	movie	1		243	1.0	2.5	/experiments/knapen_AOT/AOT_stimuli/rescaled_final/0533_fw.mp4	0.0	100.79570198059082	2.5003738403320312
3	57.675414085388184	pulse	1	t		1.0	2.5	/experiments/knapen_AOT/AOT_stimuli/rescaled_final/0533_fw.mp4	0.0	101.97959399223328	
3	58.99189591407776	fix_post	2		12	1.0	2.5	/experiments/knapen_AOT/AOT_stimuli/rescaled_final/0533_fw.mp4	0.0	103.29607582092285	0.09999418258666992
4	59.09189009666443	fix_pre	0		120	2.0	2.5	/experiments/knapen_AOT/AOT_stimuli/rescaled_final/0696_fw.mp4	0.0	103.39607000350952	1.0002169609069824
4	59.27543807029724	pulse	0	t		2.0	2.5	/experiments/knapen_AOT/AOT_stimuli/rescaled_final/0696_fw.mp4	0.0	103.57961797714233	
4	60.09210705757141	movie	1		242	2.0	2.5	/experiments/knapen_AOT/AOT_stimuli/rescaled_final/0696_fw.mp4	0.0	104.3962869644165	2.500478982925415
4	60.87574505805969	pulse	1	t		2.0	2.5	/experiments/knapen_AOT/AOT_stimuli/rescaled_final/0696_fw.mp4	0.0	105.17992496490479	
4	62.47617197036743	pulse	1	t		2.0	2.5	/experiments/knapen_AOT/AOT_stimuli/rescaled_final/0696_fw.mp4	0.0	106.78035187721252	
4	62.592586040496826	fix_post	2		12	2.0	2.5	/experiments/knapen_AOT/AOT_stimuli/rescaled_final/0696_fw.mp4	0.0	106.89676594734192	0.09985089302062988
5	62.692436933517456	fix_pre	0		120	3.0	2.5	/experiments/knapen_AOT/AOT_stimuli/rescaled_final/0611_rv.mp4	0.0	106.99661684036255	1.0001649856567383
5	63.692601919174194	movie	1		241	3.0	2.5	/experiments/knapen_AOT/AOT_stimuli/rescaled_final/0611_rv.mp4	0.0	107.99678182601929	2.4921560287475586
5	64.07661294937134	pulse	1	t		3.0	2.5	/experiments/knapen_AOT/AOT_stimuli/rescaled_final/0611_rv.mp4	0.0	108.38079285621643	
5	65.67641997337341	pulse	1	t		3.0	2.5	/experiments/knapen_AOT/AOT_stimuli/rescaled_final/0611_rv.mp4	0.0	109.9805998802185	
5	66.18475794792175	fix_post	2		12	3.0	2.5	/experiments/knapen_AOT/AOT_stimuli/rescaled_final/0611_rv.mp4	0.0	110.48893785476685	0.09990906715393066
6	66.28466701507568	fix_pre	0		120	4.0	2.5	/experiments/knapen_AOT/AOT_stimuli/rescaled_final/1219_rv.mp4	0.0	110.58884692192078	1.0001509189605713
6	67.27664303779602	pulse	0	t		4.0	2.5	/experiments/knapen_AOT/AOT_stimuli/rescaled_final/1219_rv.mp4	0.0	111.58082294464111	
6	67.28481793403625	movie	1		244	4.0	2.5	/experiments/knapen_AOT/AOT_stimuli/rescaled_final/1219_rv.mp4	0.0	111.58899784088135	2.5087170600891113
6	68.87808203697205	pulse	1	t		4.0	2.5	/experiments/knapen_AOT/AOT_stimuli/rescaled_final/1219_rv.mp4	0.0	113.18226194381714	
6	69.79353499412537	fix_post	2		12	4.0	2.5	/experiments/knapen_AOT/AOT_stimuli/rescaled_final/1219_rv.mp4	0.0	114.09771490097046	0.10000991821289062
7	69.89354491233826	fix_pre	0		120	5.0	2.5	/experiments/knapen_AOT/AOT_stimuli/rescaled_final/1036_rv.mp4	0.0	114.19772481918335	1.000143051147461
7	70.4771499633789	pulse	0	t		5.0	2.5	/experiments/knapen_AOT/AOT_stimuli/rescaled_final/1036_rv.mp4	0.0	114.781329870224	
7	70.89368796348572	movie	1		242	5.0	2.5	/experiments/knapen_AOT/AOT_stimuli/rescaled_final/1036_rv.mp4	0.0	115.19786787033081	2.500580072402954
7	72.07416296005249	pulse	1	t		5.0	2.5	/experiments/knapen_AOT/AOT_stimuli/rescaled_final/1036_rv.mp4	0.0	116.37834286689758	
7	73.39426803588867	fix_post	2		12	5.0	2.5	/experiments/knapen_AOT/AOT_stimuli/rescaled_final/1036_rv.mp4	0.0	117.69844794273376	0.09982895851135254
8	73.49409699440002	fix_pre	0		120	6.0	2.5	blank	1.0	117.79827690124512	1.0001161098480225
8	73.67765593528748	pulse	0	t		6.0	2.5	blank	1.0	117.98183584213257	
8	74.49421310424805	movie	1		300	6.0	2.5	blank	1.0	118.79839301109314	2.500351905822754
8	75.27039790153503	pulse	1	t		6.0	2.5	blank	1.0	119.57457780838013	
8	76.87047410011292	pulse	1	t		6.0	2.5	blank	1.0	121.17465400695801	
8	76.9945650100708	fix_post	2		12	6.0	2.5	blank	1.0	121.2987449169159	0.1000978946685791
9	77.09466290473938	fix_pre	0		119	7.0	2.5	/experiments/knapen_AOT/AOT_stimuli/rescaled_final/2037_fw.mp4	0.0	121.39884281158447	0.9917252063751221
9	78.0863881111145	movie	1		243	7.0	2.5	/experiments/knapen_AOT/AOT_stimuli/rescaled_final/2037_fw.mp4	0.0	122.3905680179596	2.500379800796509
9	78.4705719947815	pulse	1	t		7.0	2.5	/experiments/knapen_AOT/AOT_stimuli/rescaled_final/2037_fw.mp4	0.0	122.77475190162659	
9	80.0712480545044	pulse	1	t		7.0	2.5	/experiments/knapen_AOT/AOT_stimuli/rescaled_final/2037_fw.mp4	0.0	124.37542796134949	
9	80.58676791191101	fix_post	2		12	7.0	2.5	/experiments/knapen_AOT/AOT_stimuli/rescaled_final/2037_fw.mp4	0.0	124.8909478187561	0.10012102127075195
10	80.68688893318176	fix_pre	0		120	8.0	2.5	/experiments/knapen_AOT/AOT_stimuli/rescaled_final/1854_rv.mp4	0.0	124.99106884002686	1.0001399517059326
10	81.6712338924408	pulse	0	t		8.0	2.5	/experiments/knapen_AOT/AOT_stimuli/rescaled_final/1854_rv.mp4	0.0	125.97541379928589	
10	81.6870288848877	movie	1		243	8.0	2.5	/experiments/knapen_AOT/AOT_stimuli/rescaled_final/1854_rv.mp4	0.0	125.99120879173279	2.5086731910705566
10	83.27076411247253	pulse	1	t		8.0	2.5	/experiments/knapen_AOT/AOT_stimuli/rescaled_final/1854_rv.mp4	0.0	127.57494401931763	
10	84.19570207595825	fix_post	2		12	8.0	2.5	/experiments/knapen_AOT/AOT_stimuli/rescaled_final/1854_rv.mp4	0.0	128.49988198280334	0.09998488426208496
11	84.29568696022034	fix_pre	0		120	9.0	2.5	/experiments/knapen_AOT/AOT_stimuli/rescaled_final/0070_fw.mp4	0.0	128.59986686706543	1.0001540184020996
11	84.87085604667664	pulse	0	t		9.0	2.5	/experiments/knapen_AOT/AOT_stimuli/rescaled_final/0070_fw.mp4	0.0	129.17503595352173	
11	85.29584097862244	movie	1		245	9.0	2.5	/experiments/knapen_AOT/AOT_stimuli/rescaled_final/0070_fw.mp4	0.0	129.60002088546753	2.5003299713134766
11	86.47158288955688	pulse	1	t		9.0	2.5	/experiments/knapen_AOT/AOT_stimuli/rescaled_final/0070_fw.mp4	0.0	130.77576279640198	
11	87.79617094993591	fix_post	2		12	9.0	2.5	/experiments/knapen_AOT/AOT_stimuli/rescaled_final/0070_fw.mp4	0.0	132.100350856781	0.1000969409942627
12	87.89626789093018	fix_pre	0		120	10.0	2.5	/experiments/knapen_AOT/AOT_stimuli/rescaled_final/1416_rv.mp4	0.0	132.20044779777527	1.000096082687378
12	88.07152390480042	pulse	0	t		10.0	2.5	/experiments/knapen_AOT/AOT_stimuli/rescaled_final/1416_rv.mp4	0.0	132.3757038116455	
12	88.89636397361755	movie	1		242	10.0	2.5	/experiments/knapen_AOT/AOT_stimuli/rescaled_final/1416_rv.mp4	0.0	133.20054388046265	2.492279052734375
12	89.67178010940552	pulse	1	t		10.0	2.5	/experiments/knapen_AOT/AOT_stimuli/rescaled_final/1416_rv.mp4	0.0	133.9759600162506	
12	91.2718620300293	pulse	1	t		10.0	2.5	/experiments/knapen_AOT/AOT_stimuli/rescaled_final/1416_rv.mp4	0.0	135.5760419368744	
12	91.38864302635193	fix_post	2		12	10.0	2.5	/experiments/knapen_AOT/AOT_stimuli/rescaled_final/1416_rv.mp4	0.0	135.69282293319702	0.0998079776763916
13	91.48845100402832	fix_pre	0		120	11.0	2.5	/experiments/knapen_AOT/AOT_stimuli/rescaled_final/1238_fw.mp4	0.0	135.7926309108734	1.0000970363616943
13	92.48854804039001	movie	1		242	11.0	2.5	/experiments/knapen_AOT/AOT_stimuli/rescaled_final/1238_fw.mp4	0.0	136.7927279472351	2.500635862350464
13	92.87274408340454	pulse	1	t		11.0	2.5	/experiments/knapen_AOT/AOT_stimuli/rescaled_final/1238_fw.mp4	0.0	137.17692399024963	
13	94.47247004508972	pulse	1	t		11.0	2.5	/experiments/knapen_AOT/AOT_stimuli/rescaled_final/1238_fw.mp4	0.0	138.77664995193481	
13	94.98918390274048	fix_post	2		12	11.0	2.5	/experiments/knapen_AOT/AOT_stimuli/rescaled_final/1238_fw.mp4	0.0	139.29336380958557	0.09987998008728027
14	95.08906388282776	fix_pre	0		119	12.0	2.5	/experiments/knapen_AOT/AOT_stimuli/rescaled_final/1877_fw.mp4	0.0	139.39324378967285	0.991692066192627
14	96.07274389266968	pulse	0	t		12.0	2.5	/experiments/knapen_AOT/AOT_stimuli/rescaled_final/1877_fw.mp4	0.0	140.37692379951477	
14	96.08075594902039	movie	1		244	12.0	2.5	/experiments/knapen_AOT/AOT_stimuli/rescaled_final/1877_fw.mp4	0.0	140.38493585586548	2.5088040828704834
14	97.67716908454895	pulse	1	t		12.0	2.5	/experiments/knapen_AOT/AOT_stimuli/rescaled_final/1877_fw.mp4	0.0	141.98134899139404	
14	98.58956003189087	fix_post	2		12	12.0	2.5	/experiments/knapen_AOT/AOT_stimuli/rescaled_final/1877_fw.mp4	0.0	142.89373993873596	0.09990406036376953
15	98.68946409225464	fix_pre	0		120	13.0	2.5	blank	1.0	142.99364399909973	1.0001628398895264
15	99.27315902709961	pulse	0	t		13.0	2.5	blank	1.0	143.5773389339447	
15	99.68962693214417	movie	1		300	13.0	2.5	blank	1.0	143.99380683898926	2.5004260540008545
15	100.87343788146973	pulse	1	t		13.0	2.5	blank	1.0	145.17761778831482	
15	102.19005298614502	fix_post	2		12	13.0	2.5	blank	1.0	146.4942328929901	0.09999299049377441
16	102.2900459766388	fix_pre	0		120	14.0	2.5	/experiments/knapen_AOT/AOT_stimuli/rescaled_final/0325_rv.mp4	0.0	146.5942258834839	1.0001280307769775
16	102.47379994392395	pulse	0	t		14.0	2.5	/experiments/knapen_AOT/AOT_stimuli/rescaled_final/0325_rv.mp4	0.0	146.77797985076904	
16	103.29017400741577	movie	1		242	14.0	2.5	/experiments/knapen_AOT/AOT_stimuli/rescaled_final/0325_rv.mp4	0.0	147.59435391426086	2.50061297416687
16	104.07380604743958	pulse	1	t		14.0	2.5	/experiments/knapen_AOT/AOT_stimuli/rescaled_final/0325_rv.mp4	0.0	148.37798595428467	
16	105.67464590072632	pulse	1	t		14.0	2.5	/experiments/knapen_AOT/AOT_stimuli/rescaled_final/0325_rv.mp4	0.0	149.9788258075714	
16	105.79078698158264	fix_post	2		12	14.0	2.5	/experiments/knapen_AOT/AOT_stimuli/rescaled_final/0325_rv.mp4	0.0	150.09496688842773	0.09979701042175293
17	105.8905839920044	fix_pre	0		120	15.0	2.5	/experiments/knapen_AOT/AOT_stimuli/rescaled_final/1161_rv.mp4	0.0	150.1947638988495	1.0000979900360107
17	106.8906819820404	movie	1		241	15.0	2.5	/experiments/knapen_AOT/AOT_stimuli/rescaled_final/1161_rv.mp4	0.0	151.1948618888855	2.492108106613159
17	107.27894687652588	pulse	1	t		15.0	2.5	/experiments/knapen_AOT/AOT_stimuli/rescaled_final/1161_rv.mp4	0.0	151.58312678337097	
17	108.87451505661011	pulse	1	t		15.0	2.5	/experiments/knapen_AOT/AOT_stimuli/rescaled_final/1161_rv.mp4	0.0	153.1786949634552	
17	109.38279008865356	fix_post	2		12	15.0	2.5	/experiments/knapen_AOT/AOT_stimuli/rescaled_final/1161_rv.mp4	0.0	153.68696999549866	0.09995698928833008
18	109.4827470779419	fix_pre	0		119	16.0	2.5	/experiments/knapen_AOT/AOT_stimuli/rescaled_final/1236_rv.mp4	0.0	153.786926984787	1.0001718997955322
18	110.47481894493103	pulse	0	t		16.0	2.5	/experiments/knapen_AOT/AOT_stimuli/rescaled_final/1236_rv.mp4	0.0	154.77899885177612	
18	110.48291897773743	movie	1		243	16.0	2.5	/experiments/knapen_AOT/AOT_stimuli/rescaled_final/1236_rv.mp4	0.0	154.78709888458252	2.5087730884552
18	112.07631206512451	pulse	1	t		16.0	2.5	/experiments/knapen_AOT/AOT_stimuli/rescaled_final/1236_rv.mp4	0.0	156.3804919719696	
18	112.99169206619263	fix_post	2		12	16.0	2.5	/experiments/knapen_AOT/AOT_stimuli/rescaled_final/1236_rv.mp4	0.0	157.29587197303772	0.09994888305664062
19	113.09164094924927	fix_pre	0		120	17.0	2.5	/experiments/knapen_AOT/AOT_stimuli/rescaled_final/0368_rv.mp4	0.0	157.39582085609436	1.000108003616333
19	113.67528796195984	pulse	0	t		17.0	2.5	/experiments/knapen_AOT/AOT_stimuli/rescaled_final/0368_rv.mp4	0.0	157.97946786880493	
19	114.0917489528656	movie	1		243	17.0	2.5	/experiments/knapen_AOT/AOT_stimuli/rescaled_final/0368_rv.mp4	0.0	158.3959288597107	2.5004329681396484
19	115.27558207511902	pulse	1	t		17.0	2.5	/experiments/knapen_AOT/AOT_stimuli/rescaled_final/0368_rv.mp4	0.0	159.5797619819641	
19	116.59218192100525	fix_post	2		12	17.0	2.5	/experiments/knapen_AOT/AOT_stimuli/rescaled_final/0368_rv.mp4	0.0	160.89636182785034	0.10000109672546387
20	116.69218301773071	fix_pre	0		120	18.0	2.5	/experiments/knapen_AOT/AOT_stimuli/rescaled_final/1142_fw.mp4	0.0	160.9963629245758	1.0001070499420166
20	116.87583804130554	pulse	0	t		18.0	2.5	/experiments/knapen_AOT/AOT_stimuli/rescaled_final/1142_fw.mp4	0.0	161.18001794815063	
20	117.69229006767273	movie	1		243	18.0	2.5	/experiments/knapen_AOT/AOT_stimuli/rescaled_final/1142_fw.mp4	0.0	161.99646997451782	2.5005388259887695
20	118.47590589523315	pulse	1	t		18.0	2.5	/experiments/knapen_AOT/AOT_stimuli/rescaled_final/1142_fw.mp4	0.0	162.78008580207825	
20	120.07597589492798	pulse	1	t		18.0	2.5	/experiments/knapen_AOT/AOT_stimuli/rescaled_final/1142_fw.mp4	0.0	164.38015580177307	
20	120.1928288936615	fix_post	2		12	18.0	2.5	/experiments/knapen_AOT/AOT_stimuli/rescaled_final/1142_fw.mp4	0.0	164.4970088005066	0.09986114501953125
21	120.29269003868103	fix_pre	0		119	19.0	2.5	blank	1.0	164.59686994552612	0.991858959197998
21	121.28454899787903	movie	1		300	19.0	2.5	blank	1.0	165.58872890472412	2.5003340244293213
21	121.67656707763672	pulse	1	t		19.0	2.5	blank	1.0	165.9807469844818	
21	123.27673292160034	pulse	1	t		19.0	2.5	blank	1.0	167.58091282844543	
21	123.78488302230835	fix_post	2		12	19.0	2.5	blank	1.0	168.08906292915344	0.10002803802490234
22	123.88491106033325	fix_pre	0		120	20.0	2.5	/experiments/knapen_AOT/AOT_stimuli/rescaled_final/1594_fw.mp4	0.0	168.18909096717834	1.0001440048217773
22	124.87693405151367	pulse	0	t		20.0	2.5	/experiments/knapen_AOT/AOT_stimuli/rescaled_final/1594_fw.mp4	0.0	169.18111395835876	
22	124.88505506515503	movie	1		245	20.0	2.5	/experiments/knapen_AOT/AOT_stimuli/rescaled_final/1594_fw.mp4	0.0	169.18923497200012	2.5087239742279053
22	126.47772407531738	pulse	1	t		20.0	2.5	/experiments/knapen_AOT/AOT_stimuli/rescaled_final/1594_fw.mp4	0.0	170.78190398216248	
22	127.39377903938293	fix_post	2		12	20.0	2.5	/experiments/knapen_AOT/AOT_stimuli/rescaled_final/1594_fw.mp4	0.0	171.69795894622803	0.09998393058776855
23	127.4937629699707	fix_pre	0		120	21.0	2.5	/experiments/knapen_AOT/AOT_stimuli/rescaled_final/1607_rv.mp4	0.0	171.7979428768158	1.0001869201660156
23	128.07738399505615	pulse	0	t		21.0	2.5	/experiments/knapen_AOT/AOT_stimuli/rescaled_final/1607_rv.mp4	0.0	172.38156390190125	
23	128.49394989013672	movie	1		243	21.0	2.5	/experiments/knapen_AOT/AOT_stimuli/rescaled_final/1607_rv.mp4	0.0	172.7981297969818	2.5003881454467773
23	129.6706519126892	pulse	1	t		21.0	2.5	/experiments/knapen_AOT/AOT_stimuli/rescaled_final/1607_rv.mp4	0.0	173.9748318195343	
23	130.9943380355835	fix_post	2		12	21.0	2.5	/experiments/knapen_AOT/AOT_stimuli/rescaled_final/1607_rv.mp4	0.0	175.2985179424286	0.10003805160522461
24	131.09437608718872	fix_pre	0		120	22.0	2.5	/experiments/knapen_AOT/AOT_stimuli/rescaled_final/1521_fw.mp4	0.0	175.3985559940338	1.000091791152954
24	131.2704210281372	pulse	0	t		22.0	2.5	/experiments/knapen_AOT/AOT_stimuli/rescaled_final/1521_fw.mp4	0.0	175.5746009349823	
24	132.09446787834167	movie	1		244	22.0	2.5	/experiments/knapen_AOT/AOT_stimuli/rescaled_final/1521_fw.mp4	0.0	176.39864778518677	2.5003650188446045
24	132.8707389831543	pulse	1	t		22.0	2.5	/experiments/knapen_AOT/AOT_stimuli/rescaled_final/1521_fw.mp4	0.0	177.1749188899994	
24	134.47840094566345	pulse	1	t		22.0	2.5	/experiments/knapen_AOT/AOT_stimuli/rescaled_final/1521_fw.mp4	0.0	178.78258085250854	
24	134.59483289718628	fix_post	2		12	22.0	2.5	/experiments/knapen_AOT/AOT_stimuli/rescaled_final/1521_fw.mp4	0.0	178.89901280403137	0.10002708435058594
25	134.69485998153687	fix_pre	0		120	23.0	2.5	/experiments/knapen_AOT/AOT_stimuli/rescaled_final/1029_rv.mp4	0.0	178.99903988838196	1.0001919269561768
25	135.69505190849304	movie	1		241	23.0	2.5	/experiments/knapen_AOT/AOT_stimuli/rescaled_final/1029_rv.mp4	0.0	179.99923181533813	2.4921610355377197
25	136.0702519416809	pulse	1	t		23.0	2.5	/experiments/knapen_AOT/AOT_stimuli/rescaled_final/1029_rv.mp4	0.0	180.374431848526	
25	137.6705300807953	pulse	1	t		23.0	2.5	/experiments/knapen_AOT/AOT_stimuli/rescaled_final/1029_rv.mp4	0.0	181.97470998764038	
25	138.18721294403076	fix_post	2		12	23.0	2.5	/experiments/knapen_AOT/AOT_stimuli/rescaled_final/1029_rv.mp4	0.0	182.49139285087585	0.09984016418457031
26	138.28705310821533	fix_pre	0		119	24.0	2.5	/experiments/knapen_AOT/AOT_stimuli/rescaled_final/0469_fw.mp4	0.0	182.59123301506042	0.991818904876709
26	139.27073693275452	pulse	0	t		24.0	2.5	/experiments/knapen_AOT/AOT_stimuli/rescaled_final/0469_fw.mp4	0.0	183.5749168395996	
26	139.27887201309204	movie	1		243	24.0	2.5	/experiments/knapen_AOT/AOT_stimuli/rescaled_final/0469_fw.mp4	0.0	183.58305191993713	2.5087978839874268
26	140.8722050189972	pulse	1	t		24.0	2.5	/experiments/knapen_AOT/AOT_stimuli/rescaled_final/0469_fw.mp4	0.0	185.17638492584229	
26	141.78766989707947	fix_post	2		12	24.0	2.5	/experiments/knapen_AOT/AOT_stimuli/rescaled_final/0469_fw.mp4	0.0	186.09184980392456	0.0999460220336914
27	141.88761591911316	fix_pre	0		120	25.0	2.5	/experiments/knapen_AOT/AOT_stimuli/rescaled_final/1594_rv.mp4	0.0	186.19179582595825	1.0001201629638672
27	142.4712769985199	pulse	0	t		25.0	2.5	/experiments/knapen_AOT/AOT_stimuli/rescaled_final/1594_rv.mp4	0.0	186.775456905365	
27	142.88773608207703	movie	1		244	25.0	2.5	/experiments/knapen_AOT/AOT_stimuli/rescaled_final/1594_rv.mp4	0.0	187.19191598892212	2.500351905822754
27	144.07157707214355	pulse	1	t		25.0	2.5	/experiments/knapen_AOT/AOT_stimuli/rescaled_final/1594_rv.mp4	0.0	188.37575697898865	
27	145.38808798789978	fix_post	2		12	25.0	2.5	/experiments/knapen_AOT/AOT_stimuli/rescaled_final/1594_rv.mp4	0.0	189.69226789474487	0.10010790824890137
28	145.48819589614868	fix_pre	0		120	26.0	2.5	/experiments/knapen_AOT/AOT_stimuli/rescaled_final/1520_fw.mp4	0.0	189.79237580299377	1.0000810623168945
28	145.6717278957367	pulse	0	t		26.0	2.5	/experiments/knapen_AOT/AOT_stimuli/rescaled_final/1520_fw.mp4	0.0	189.9759078025818	
28	146.48827695846558	movie	1		243	26.0	2.5	/experiments/knapen_AOT/AOT_stimuli/rescaled_final/1520_fw.mp4	0.0	190.79245686531067	2.500509023666382
28	147.27187991142273	pulse	1	t		26.0	2.5	/experiments/knapen_AOT/AOT_stimuli/rescaled_final/1520_fw.mp4	0.0	191.57605981826782	
28	148.87331795692444	pulse	1	t		26.0	2.5	/experiments/knapen_AOT/AOT_stimuli/rescaled_final/1520_fw.mp4	0.0	193.17749786376953	
28	148.98878598213196	fix_post	2		12	26.0	2.5	/experiments/knapen_AOT/AOT_stimuli/rescaled_final/1520_fw.mp4	0.0	193.29296588897705	0.09988999366760254
29	149.08867597579956	fix_pre	0		120	27.0	2.5	/experiments/knapen_AOT/AOT_stimuli/rescaled_final/0246_fw.mp4	0.0	193.39285588264465	1.000133991241455
29	150.08880996704102	movie	1		242	27.0	2.5	/experiments/knapen_AOT/AOT_stimuli/rescaled_final/0246_fw.mp4	0.0	194.3929898738861	2.492244005203247
29	150.47438597679138	pulse	1	t		27.0	2.5	/experiments/knapen_AOT/AOT_stimuli/rescaled_final/0246_fw.mp4	0.0	194.77856588363647	
29	152.07263207435608	pulse	1	t		27.0	2.5	/experiments/knapen_AOT/AOT_stimuli/rescaled_final/0246_fw.mp4	0.0	196.37681198120117	
29	152.58105397224426	fix_post	2		12	27.0	2.5	/experiments/knapen_AOT/AOT_stimuli/rescaled_final/0246_fw.mp4	0.0	196.88523387908936	0.09983205795288086
30	152.68088603019714	fix_pre	0		120	28.0	2.5	blank	1.0	196.98506593704224	1.000230073928833
30	153.67286109924316	pulse	0	t		28.0	2.5	blank	1.0	197.97704100608826	
30	153.68111610412598	movie	1		301	28.0	2.5	blank	1.0	197.98529601097107	2.508563995361328
30	155.27315092086792	pulse	1	t		28.0	2.5	blank	1.0	199.577330827713	
30	156.1896800994873	fix_post	2		12	28.0	2.5	blank	1.0	200.4938600063324	0.1000509262084961
31	156.2897310256958	fix_pre	0		120	29.0	2.5	/experiments/knapen_AOT/AOT_stimuli/rescaled_final/1289_fw.mp4	0.0	200.5939109325409	1.0001440048217773
31	156.87343788146973	pulse	0	t		29.0	2.5	/experiments/knapen_AOT/AOT_stimuli/rescaled_final/1289_fw.mp4	0.0	201.17761778831482	
31	157.28987503051758	movie	1		242	29.0	2.5	/experiments/knapen_AOT/AOT_stimuli/rescaled_final/1289_fw.mp4	0.0	201.59405493736267	2.500580072402954
31	158.473650932312	pulse	1	t		29.0	2.5	/experiments/knapen_AOT/AOT_stimuli/rescaled_final/1289_fw.mp4	0.0	202.7778308391571	
31	159.79045510292053	fix_post	2		12	29.0	2.5	/experiments/knapen_AOT/AOT_stimuli/rescaled_final/1289_fw.mp4	0.0	204.09463500976562	0.09983682632446289
32	159.890291929245	fix_pre	0		120	30.0	2.5	/experiments/knapen_AOT/AOT_stimuli/rescaled_final/0325_fw.mp4	0.0	204.1944718360901	1.0001220703125
32	160.07389402389526	pulse	0	t		30.0	2.5	/experiments/knapen_AOT/AOT_stimuli/rescaled_final/0325_fw.mp4	0.0	204.37807393074036	
32	160.8904139995575	movie	1		242	30.0	2.5	/experiments/knapen_AOT/AOT_stimuli/rescaled_final/0325_fw.mp4	0.0	205.1945939064026	2.5005381107330322
32	161.67410802841187	pulse	1	t		30.0	2.5	/experiments/knapen_AOT/AOT_stimuli/rescaled_final/0325_fw.mp4	0.0	205.97828793525696	
32	163.2743330001831	pulse	1	t		30.0	2.5	/experiments/knapen_AOT/AOT_stimuli/rescaled_final/0325_fw.mp4	0.0	207.5785129070282	
32	163.39095211029053	fix_post	2		12	30.0	2.5	/experiments/knapen_AOT/AOT_stimuli/rescaled_final/0325_fw.mp4	0.0	207.69513201713562	0.09987998008728027
33	163.4908320903778	fix_pre	0		120	31.0	2.5	/experiments/knapen_AOT/AOT_stimuli/rescaled_final/1741_fw.mp4	0.0	207.7950119972229	1.0002038478851318
33	164.49103593826294	movie	1		241	31.0	2.5	/experiments/knapen_AOT/AOT_stimuli/rescaled_final/1741_fw.mp4	0.0	208.79521584510803	2.4920310974121094
33	164.87515306472778	pulse	1	t		31.0	2.5	/experiments/knapen_AOT/AOT_stimuli/rescaled_final/1741_fw.mp4	0.0	209.17933297157288	
33	166.47478604316711	pulse	1	t		31.0	2.5	/experiments/knapen_AOT/AOT_stimuli/rescaled_final/1741_fw.mp4	0.0	210.7789659500122	
33	166.98306703567505	fix_post	2		12	31.0	2.5	/experiments/knapen_AOT/AOT_stimuli/rescaled_final/1741_fw.mp4	0.0	211.28724694252014	0.10001802444458008
34	167.08308506011963	fix_pre	0		120	32.0	2.5	/experiments/knapen_AOT/AOT_stimuli/rescaled_final/0853_fw.mp4	0.0	211.38726496696472	1.0001380443572998
34	168.07497596740723	pulse	0	t		32.0	2.5	/experiments/knapen_AOT/AOT_stimuli/rescaled_final/0853_fw.mp4	0.0	212.37915587425232	
34	168.08322310447693	movie	1		244	32.0	2.5	/experiments/knapen_AOT/AOT_stimuli/rescaled_final/0853_fw.mp4	0.0	212.38740301132202	2.5087368488311768
34	169.67566299438477	pulse	1	t		32.0	2.5	/experiments/knapen_AOT/AOT_stimuli/rescaled_final/0853_fw.mp4	0.0	213.97984290122986	
34	170.5919599533081	fix_post	2		12	32.0	2.5	/experiments/knapen_AOT/AOT_stimuli/rescaled_final/0853_fw.mp4	0.0	214.8961398601532	0.09992694854736328
35	170.69188690185547	fix_pre	0		120	33.0	2.5	blank	1.0	214.99606680870056	1.0001230239868164
35	171.27562808990479	pulse	0	t		33.0	2.5	blank	1.0	215.57980799674988	
35	171.69200992584229	movie	1		300	33.0	2.5	blank	1.0	215.99618983268738	2.5003950595855713
35	172.87573289871216	pulse	1	t		33.0	2.5	blank	1.0	217.17991280555725	
35	174.19240498542786	fix_post	2		12	33.0	2.5	blank	1.0	218.49658489227295	0.10003995895385742
36	174.2924449443817	fix_pre	0		120	34.0	2.5	/experiments/knapen_AOT/AOT_stimuli/rescaled_final/0060_fw.mp4	0.0	218.5966248512268	1.0001380443572998
36	174.47613096237183	pulse	0	t		34.0	2.5	/experiments/knapen_AOT/AOT_stimuli/rescaled_final/0060_fw.mp4	0.0	218.78031086921692	
36	175.292582988739	movie	1		240	34.0	2.5	/experiments/knapen_AOT/AOT_stimuli/rescaled_final/0060_fw.mp4	0.0	219.5967628955841	2.4923059940338135
36	176.0763280391693	pulse	1	t		34.0	2.5	/experiments/knapen_AOT/AOT_stimuli/rescaled_final/0060_fw.mp4	0.0	220.3805079460144	
36	177.67637491226196	pulse	1	t		34.0	2.5	/experiments/knapen_AOT/AOT_stimuli/rescaled_final/0060_fw.mp4	0.0	221.98055481910706	
36	177.78488898277283	fix_post	2		13	34.0	2.5	/experiments/knapen_AOT/AOT_stimuli/rescaled_final/0060_fw.mp4	0.0	222.08906888961792	0.10812997817993164
37	177.89301896095276	fix_pre	0		120	35.0	2.5	/experiments/knapen_AOT/AOT_stimuli/rescaled_final/0052_fw.mp4	0.0	222.19719886779785	1.0001411437988281
37	178.8931601047516	movie	1		243	35.0	2.5	/experiments/knapen_AOT/AOT_stimuli/rescaled_final/0052_fw.mp4	0.0	223.19734001159668	2.49204683303833
37	179.28052806854248	pulse	1	t		35.0	2.5	/experiments/knapen_AOT/AOT_stimuli/rescaled_final/0052_fw.mp4	0.0	223.58470797538757	
37	180.87686610221863	pulse	1	t		35.0	2.5	/experiments/knapen_AOT/AOT_stimuli/rescaled_final/0052_fw.mp4	0.0	225.18104600906372	
37	181.38520693778992	fix_post	2		12	35.0	2.5	/experiments/knapen_AOT/AOT_stimuli/rescaled_final/0052_fw.mp4	0.0	225.689386844635	0.09993600845336914
38	181.4851429462433	fix_pre	0		120	36.0	2.5	/experiments/knapen_AOT/AOT_stimuli/rescaled_final/0660_rv.mp4	0.0	225.78932285308838	1.0002069473266602
38	182.47725296020508	pulse	0	t		36.0	2.5	/experiments/knapen_AOT/AOT_stimuli/rescaled_final/0660_rv.mp4	0.0	226.78143286705017	
38	182.48534989356995	movie	1		243	36.0	2.5	/experiments/knapen_AOT/AOT_stimuli/rescaled_final/0660_rv.mp4	0.0	226.78952980041504	2.5088071823120117
38	184.07803988456726	pulse	1	t		36.0	2.5	/experiments/knapen_AOT/AOT_stimuli/rescaled_final/0660_rv.mp4	0.0	228.38221979141235	
38	184.99415707588196	fix_post	2		12	36.0	2.5	/experiments/knapen_AOT/AOT_stimuli/rescaled_final/0660_rv.mp4	0.0	229.29833698272705	0.09997701644897461
39	185.09413409233093	fix_pre	0		120	37.0	2.5	/experiments/knapen_AOT/AOT_stimuli/rescaled_final/0246_fw.mp4	0.0	229.39831399917603	1.0000958442687988
39	185.677747964859	pulse	0	t		37.0	2.5	/experiments/knapen_AOT/AOT_stimuli/rescaled_final/0246_fw.mp4	0.0	229.9819278717041	
39	186.09422993659973	movie	1		243	37.0	2.5	/experiments/knapen_AOT/AOT_stimuli/rescaled_final/0246_fw.mp4	0.0	230.39840984344482	2.500422954559326
39	187.27799105644226	pulse	1	t		37.0	2.5	/experiments/knapen_AOT/AOT_stimuli/rescaled_final/0246_fw.mp4	0.0	231.58217096328735	
39	188.59465289115906	fix_post	2		12	37.0	2.5	/experiments/knapen_AOT/AOT_stimuli/rescaled_final/0246_fw.mp4	0.0	232.89883279800415	0.09997105598449707
40	188.69462394714355	fix_pre	0		120	38.0	2.5	/experiments/knapen_AOT/AOT_stimuli/rescaled_final/1716_rv.mp4	0.0	232.99880385398865	1.0000951290130615
40	188.87818002700806	pulse	0	t		38.0	2.5	/experiments/knapen_AOT/AOT_stimuli/rescaled_final/1716_rv.mp4	0.0	233.18235993385315	
40	189.69471907615662	movie	1		242	38.0	2.5	/experiments/knapen_AOT/AOT_stimuli/rescaled_final/1716_rv.mp4	0.0	233.9988989830017	2.5005710124969482
40	190.47091507911682	pulse	1	t		38.0	2.5	/experiments/knapen_AOT/AOT_stimuli/rescaled_final/1716_rv.mp4	0.0	234.7750949859619	
40	192.07837200164795	pulse	1	t		38.0	2.5	/experiments/knapen_AOT/AOT_stimuli/rescaled_final/1716_rv.mp4	0.0	236.38255190849304	
40	192.19529008865356	fix_post	2		12	38.0	2.5	/experiments/knapen_AOT/AOT_stimuli/rescaled_final/1716_rv.mp4	0.0	236.49946999549866	0.09980487823486328
41	192.29509496688843	fix_pre	0		120	39.0	2.5	/experiments/knapen_AOT/AOT_stimuli/rescaled_final/1238_rv.mp4	0.0	236.59927487373352	1.0001649856567383
41	193.29525995254517	movie	1		241	39.0	2.5	/experiments/knapen_AOT/AOT_stimuli/rescaled_final/1238_rv.mp4	0.0	237.59943985939026	2.4922139644622803
41	193.67935395240784	pulse	1	t		39.0	2.5	/experiments/knapen_AOT/AOT_stimuli/rescaled_final/1238_rv.mp4	0.0	237.98353385925293	
41	195.27178192138672	pulse	1	t		39.0	2.5	/experiments/knapen_AOT/AOT_stimuli/rescaled_final/1238_rv.mp4	0.0	239.5759618282318	
41	195.78747391700745	fix_post	2		12	39.0	2.5	/experiments/knapen_AOT/AOT_stimuli/rescaled_final/1238_rv.mp4	0.0	240.09165382385254	0.09989404678344727
42	195.8873679637909	fix_pre	0		119	40.0	2.5	/experiments/knapen_AOT/AOT_stimuli/rescaled_final/0716_fw.mp4	0.0	240.191547870636	0.9917569160461426
42	196.87103509902954	pulse	0	t		40.0	2.5	/experiments/knapen_AOT/AOT_stimuli/rescaled_final/0716_fw.mp4	0.0	241.17521500587463	
42	196.87912487983704	movie	1		243	40.0	2.5	/experiments/knapen_AOT/AOT_stimuli/rescaled_final/0716_fw.mp4	0.0	241.18330478668213	2.5087602138519287
42	198.47267198562622	pulse	1	t		40.0	2.5	/experiments/knapen_AOT/AOT_stimuli/rescaled_final/0716_fw.mp4	0.0	242.7768518924713	
42	199.38788509368896	fix_post	2		12	40.0	2.5	/experiments/knapen_AOT/AOT_stimuli/rescaled_final/0716_fw.mp4	0.0	243.69206500053406	0.09996199607849121
43	199.48784708976746	fix_pre	0		120	41.0	2.5	/experiments/knapen_AOT/AOT_stimuli/rescaled_final/1451_fw.mp4	0.0	243.79202699661255	1.0002648830413818
43	200.07156109809875	pulse	0	t		41.0	2.5	/experiments/knapen_AOT/AOT_stimuli/rescaled_final/1451_fw.mp4	0.0	244.37574100494385	
43	200.48811197280884	movie	1		242	41.0	2.5	/experiments/knapen_AOT/AOT_stimuli/rescaled_final/1451_fw.mp4	0.0	244.79229187965393	2.5004899501800537
43	201.671875	pulse	1	t		41.0	2.5	/experiments/knapen_AOT/AOT_stimuli/rescaled_final/1451_fw.mp4	0.0	245.9760549068451	
43	202.9886019229889	fix_post	2		12	41.0	2.5	/experiments/knapen_AOT/AOT_stimuli/rescaled_final/1451_fw.mp4	0.0	247.29278182983398	0.099822998046875
44	203.08842492103577	fix_pre	0		120	42.0	2.5	blank	1.0	247.39260482788086	1.0001671314239502
44	203.27186608314514	pulse	0	t		42.0	2.5	blank	1.0	247.57604598999023	
44	204.08859205245972	movie	1		300	42.0	2.5	blank	1.0	248.3927719593048	2.5003318786621094
44	204.8721959590912	pulse	1	t		42.0	2.5	blank	1.0	249.17637586593628	
44	206.47247505187988	pulse	1	t		42.0	2.5	blank	1.0	250.77665495872498	
44	206.58892393112183	fix_post	2		12	42.0	2.5	blank	1.0	250.89310383796692	0.10000801086425781
45	206.68893194198608	fix_pre	0		120	43.0	2.5	/experiments/knapen_AOT/AOT_stimuli/rescaled_final/0807_fw.mp4	0.0	250.99311184883118	1.0001821517944336
45	207.68911409378052	movie	1		241	43.0	2.5	/experiments/knapen_AOT/AOT_stimuli/rescaled_final/0807_fw.mp4	0.0	251.9932940006256	2.4920618534088135
45	208.07411408424377	pulse	1	t		43.0	2.5	/experiments/knapen_AOT/AOT_stimuli/rescaled_final/0807_fw.mp4	0.0	252.37829399108887	
45	209.67293906211853	pulse	1	t		43.0	2.5	/experiments/knapen_AOT/AOT_stimuli/rescaled_final/0807_fw.mp4	0.0	253.97711896896362	
45	210.18117594718933	fix_post	2		12	43.0	2.5	/experiments/knapen_AOT/AOT_stimuli/rescaled_final/0807_fw.mp4	0.0	254.48535585403442	0.10003209114074707
46	210.28120803833008	fix_pre	0		120	44.0	2.5	/experiments/knapen_AOT/AOT_stimuli/rescaled_final/1959_fw.mp4	0.0	254.58538794517517	1.0001389980316162
46	211.2731170654297	pulse	0	t		44.0	2.5	/experiments/knapen_AOT/AOT_stimuli/rescaled_final/1959_fw.mp4	0.0	255.57729697227478	
46	211.2813470363617	movie	1		243	44.0	2.5	/experiments/knapen_AOT/AOT_stimuli/rescaled_final/1959_fw.mp4	0.0	255.5855269432068	2.508734941482544
46	212.87377309799194	pulse	1	t		44.0	2.5	/experiments/knapen_AOT/AOT_stimuli/rescaled_final/1959_fw.mp4	0.0	257.17795300483704	
46	213.79008197784424	fix_post	2		12	44.0	2.5	/experiments/knapen_AOT/AOT_stimuli/rescaled_final/1959_fw.mp4	0.0	258.09426188468933	0.09993290901184082
47	213.89001488685608	fix_pre	0		120	45.0	2.5	/experiments/knapen_AOT/AOT_stimuli/rescaled_final/1026_rv.mp4	0.0	258.1941947937012	1.0001749992370605
47	214.4737138748169	pulse	0	t		45.0	2.5	/experiments/knapen_AOT/AOT_stimuli/rescaled_final/1026_rv.mp4	0.0	258.777893781662	
47	214.89018988609314	movie	1		243	45.0	2.5	/experiments/knapen_AOT/AOT_stimuli/rescaled_final/1026_rv.mp4	0.0	259.19436979293823	2.500596046447754
47	216.07393288612366	pulse	1	t		45.0	2.5	/experiments/knapen_AOT/AOT_stimuli/rescaled_final/1026_rv.mp4	0.0	260.37811279296875	
47	217.3907859325409	fix_post	2		12	45.0	2.5	/experiments/knapen_AOT/AOT_stimuli/rescaled_final/1026_rv.mp4	0.0	261.694965839386	0.09975600242614746
48	217.49054193496704	fix_pre	0		120	46.0	2.5	/experiments/knapen_AOT/AOT_stimuli/rescaled_final/1574_rv.mp4	0.0	261.79472184181213	1.0001320838928223
48	217.67404294013977	pulse	0	t		46.0	2.5	/experiments/knapen_AOT/AOT_stimuli/rescaled_final/1574_rv.mp4	0.0	261.97822284698486	
48	218.49067401885986	movie	1		243	46.0	2.5	/experiments/knapen_AOT/AOT_stimuli/rescaled_final/1574_rv.mp4	0.0	262.79485392570496	2.5005099773406982
48	219.27437090873718	pulse	1	t		46.0	2.5	/experiments/knapen_AOT/AOT_stimuli/rescaled_final/1574_rv.mp4	0.0	263.5785508155823	
48	220.87462496757507	pulse	1	t		46.0	2.5	/experiments/knapen_AOT/AOT_stimuli/rescaled_final/1574_rv.mp4	0.0	265.17880487442017	
48	220.99118399620056	fix_post	2		12	46.0	2.5	/experiments/knapen_AOT/AOT_stimuli/rescaled_final/1574_rv.mp4	0.0	265.29536390304565	0.09988188743591309
49	221.09106588363647	fix_pre	0		119	47.0	2.5	/experiments/knapen_AOT/AOT_stimuli/rescaled_final/2171_fw.mp4	0.0	265.39524579048157	0.9918160438537598
49	222.08288192749023	movie	1		242	47.0	2.5	/experiments/knapen_AOT/AOT_stimuli/rescaled_final/2171_fw.mp4	0.0	266.3870618343353	2.5005991458892822
49	222.47492504119873	pulse	1	t		47.0	2.5	/experiments/knapen_AOT/AOT_stimuli/rescaled_final/2171_fw.mp4	0.0	266.7791049480438	
49	224.07506108283997	pulse	1	t		47.0	2.5	/experiments/knapen_AOT/AOT_stimuli/rescaled_final/2171_fw.mp4	0.0	268.37924098968506	
49	224.58348107337952	fix_post	2		12	47.0	2.5	/experiments/knapen_AOT/AOT_stimuli/rescaled_final/2171_fw.mp4	0.0	268.8876609802246	0.09989690780639648
50	224.6833779811859	fix_pre	0		120	48.0	2.5	blank	1.0	268.987557888031	1.0000989437103271
50	225.67533493041992	pulse	0	t		48.0	2.5	blank	1.0	269.979514837265	
50	225.68347692489624	movie	1		301	48.0	2.5	blank	1.0	269.98765683174133	2.508681058883667
50	227.2756109237671	pulse	1	t		48.0	2.5	blank	1.0	271.5797908306122	
50	228.1921579837799	fix_post	2		12	48.0	2.5	blank	1.0	272.496337890625	0.09998893737792969
51	228.29214692115784	fix_pre	0		120	49.0	2.5	/experiments/knapen_AOT/AOT_stimuli/rescaled_final/1681_rv.mp4	0.0	272.59632682800293	1.000154972076416
51	228.87572288513184	pulse	0	t		49.0	2.5	/experiments/knapen_AOT/AOT_stimuli/rescaled_final/1681_rv.mp4	0.0	273.17990279197693	
51	229.29230189323425	movie	1		242	49.0	2.5	/experiments/knapen_AOT/AOT_stimuli/rescaled_final/1681_rv.mp4	0.0	273.59648180007935	2.5005180835723877
51	230.4761130809784	pulse	1	t		49.0	2.5	/experiments/knapen_AOT/AOT_stimuli/rescaled_final/1681_rv.mp4	0.0	274.7802929878235	
51	231.79281997680664	fix_post	2		12	49.0	2.5	/experiments/knapen_AOT/AOT_stimuli/rescaled_final/1681_rv.mp4	0.0	276.09699988365173	0.09987902641296387
52	231.8926990032196	fix_pre	0		120	50.0	2.5	/experiments/knapen_AOT/AOT_stimuli/rescaled_final/0575_rv.mp4	0.0	276.1968789100647	1.0001189708709717
52	232.0762960910797	pulse	0	t		50.0	2.5	/experiments/knapen_AOT/AOT_stimuli/rescaled_final/0575_rv.mp4	0.0	276.3804759979248	
52	232.89281797409058	movie	1		242	50.0	2.5	/experiments/knapen_AOT/AOT_stimuli/rescaled_final/0575_rv.mp4	0.0	277.19699788093567	2.50058913230896
52	233.67647504806519	pulse	1	t		50.0	2.5	/experiments/knapen_AOT/AOT_stimuli/rescaled_final/0575_rv.mp4	0.0	277.9806549549103	
52	235.2766149044037	pulse	1	t		50.0	2.5	/experiments/knapen_AOT/AOT_stimuli/rescaled_final/0575_rv.mp4	0.0	279.5807948112488	
52	235.39340710639954	fix_post	2		12	50.0	2.5	/experiments/knapen_AOT/AOT_stimuli/rescaled_final/0575_rv.mp4	0.0	279.69758701324463	0.09982085227966309
53	235.4932279586792	fix_pre	0		120	51.0	2.5	/experiments/knapen_AOT/AOT_stimuli/rescaled_final/0394_rv.mp4	0.0	279.7974078655243	1.0001189708709717
53	236.49334692955017	movie	1		241	51.0	2.5	/experiments/knapen_AOT/AOT_stimuli/rescaled_final/0394_rv.mp4	0.0	280.79752683639526	2.492138147354126
53	236.87833499908447	pulse	1	t		51.0	2.5	/experiments/knapen_AOT/AOT_stimuli/rescaled_final/0394_rv.mp4	0.0	281.18251490592957	
53	238.47722506523132	pulse	1	t		51.0	2.5	/experiments/knapen_AOT/AOT_stimuli/rescaled_final/0394_rv.mp4	0.0	282.7814049720764	
53	238.9854850769043	fix_post	2		12	51.0	2.5	/experiments/knapen_AOT/AOT_stimuli/rescaled_final/0394_rv.mp4	0.0	283.2896649837494	0.09995198249816895
54	239.08543705940247	fix_pre	0		120	52.0	2.5	/experiments/knapen_AOT/AOT_stimuli/rescaled_final/0642_rv.mp4	0.0	283.38961696624756	1.0001308917999268
54	240.07743310928345	pulse	0	t		52.0	2.5	/experiments/knapen_AOT/AOT_stimuli/rescaled_final/0642_rv.mp4	0.0	284.38161301612854	
54	240.0855679512024	movie	1		243	52.0	2.5	/experiments/knapen_AOT/AOT_stimuli/rescaled_final/0642_rv.mp4	0.0	284.3897478580475	2.508780002593994
54	241.6786789894104	pulse	1	t		52.0	2.5	/experiments/knapen_AOT/AOT_stimuli/rescaled_final/0642_rv.mp4	0.0	285.9828588962555	
54	242.5943479537964	fix_post	2		12	52.0	2.5	/experiments/knapen_AOT/AOT_stimuli/rescaled_final/0642_rv.mp4	0.0	286.8985278606415	0.0999600887298584
55	242.69430804252625	fix_pre	0		120	53.0	2.5	/experiments/knapen_AOT/AOT_stimuli/rescaled_final/1910_rv.mp4	0.0	286.99848794937134	1.0001449584960938
55	243.27786207199097	pulse	0	t		53.0	2.5	/experiments/knapen_AOT/AOT_stimuli/rescaled_final/1910_rv.mp4	0.0	287.58204197883606	
55	243.69445300102234	movie	1		244	53.0	2.5	/experiments/knapen_AOT/AOT_stimuli/rescaled_final/1910_rv.mp4	0.0	287.99863290786743	2.500356912612915
55	244.8782410621643	pulse	1	t		53.0	2.5	/experiments/knapen_AOT/AOT_stimuli/rescaled_final/1910_rv.mp4	0.0	289.1824209690094	
55	246.19480991363525	fix_post	2		12	53.0	2.5	/experiments/knapen_AOT/AOT_stimuli/rescaled_final/1910_rv.mp4	0.0	290.49898982048035	0.10004496574401855
56	246.29485487937927	fix_pre	0		116	54.0	2.5	blank	1.0	290.59903478622437	1.0001521110534668
56	246.47088599205017	pulse	0	t		54.0	2.5	blank	1.0	290.77506589889526	
56	247.29500699043274	movie	1		300	54.0	2.5	blank	1.0	291.59918689727783	2.5003790855407715
56	248.07113194465637	pulse	1	t		54.0	2.5	blank	1.0	292.37531185150146	
56	249.6714050769806	pulse	1	t		54.0	2.5	blank	1.0	293.9755849838257	
56	249.7953860759735	fix_post	2		12	54.0	2.5	blank	1.0	294.0995659828186	0.09999585151672363
57	249.89538192749023	fix_pre	0		120	55.0	2.5	/experiments/knapen_AOT/AOT_stimuli/rescaled_final/0022_rv.mp4	0.0	294.1995618343353	1.0001521110534668
57	250.8955340385437	movie	1		243	55.0	2.5	/experiments/knapen_AOT/AOT_stimuli/rescaled_final/0022_rv.mp4	0.0	295.1997139453888	2.492039918899536
57	251.2707760334015	pulse	1	t		55.0	2.5	/experiments/knapen_AOT/AOT_stimuli/rescaled_final/0022_rv.mp4	0.0	295.5749559402466	
57	252.87103009223938	pulse	1	t		55.0	2.5	/experiments/knapen_AOT/AOT_stimuli/rescaled_final/0022_rv.mp4	0.0	297.1752099990845	
57	253.38757395744324	fix_post	2		12	55.0	2.5	/experiments/knapen_AOT/AOT_stimuli/rescaled_final/0022_rv.mp4	0.0	297.69175386428833	0.10003995895385742
58	253.4876139163971	fix_pre	0		119	56.0	2.5	/experiments/knapen_AOT/AOT_stimuli/rescaled_final/1195_rv.mp4	0.0	297.7917938232422	0.9918310642242432
58	254.4713339805603	pulse	0	t		56.0	2.5	/experiments/knapen_AOT/AOT_stimuli/rescaled_final/1195_rv.mp4	0.0	298.7755138874054	
58	254.47944498062134	movie	1		244	56.0	2.5	/experiments/knapen_AOT/AOT_stimuli/rescaled_final/1195_rv.mp4	0.0	298.78362488746643	2.50872802734375
58	256.07195806503296	pulse	1	t		56.0	2.5	/experiments/knapen_AOT/AOT_stimuli/rescaled_final/1195_rv.mp4	0.0	300.37613797187805	
58	256.9881730079651	fix_post	2		12	56.0	2.5	/experiments/knapen_AOT/AOT_stimuli/rescaled_final/1195_rv.mp4	0.0	301.2923529148102	0.09997105598449707
59	257.0881440639496	fix_pre	0		120	57.0	2.5	/experiments/knapen_AOT/AOT_stimuli/rescaled_final/0892_fw.mp4	0.0	301.3923239707947	1.0001559257507324
59	257.6717119216919	pulse	0	t		57.0	2.5	/experiments/knapen_AOT/AOT_stimuli/rescaled_final/0892_fw.mp4	0.0	301.975891828537	
59	258.0882999897003	movie	1		242	57.0	2.5	/experiments/knapen_AOT/AOT_stimuli/rescaled_final/0892_fw.mp4	0.0	302.3924798965454	2.5004360675811768
59	259.272029876709	pulse	1	t		57.0	2.5	/experiments/knapen_AOT/AOT_stimuli/rescaled_final/0892_fw.mp4	0.0	303.5762097835541	
59	260.5887360572815	fix_post	2		12	57.0	2.5	/experiments/knapen_AOT/AOT_stimuli/rescaled_final/0892_fw.mp4	0.0	304.8929159641266	0.09990692138671875
60	260.6886429786682	fix_pre	0		120	58.0	2.5	/experiments/knapen_AOT/AOT_stimuli/rescaled_final/0022_fw.mp4	0.0	304.9928228855133	1.0001609325408936
60	260.8721580505371	pulse	0	t		58.0	2.5	/experiments/knapen_AOT/AOT_stimuli/rescaled_final/0022_fw.mp4	0.0	305.1763379573822	
60	261.6888039112091	movie	1		246	58.0	2.5	/experiments/knapen_AOT/AOT_stimuli/rescaled_final/0022_fw.mp4	0.0	305.9929838180542	2.5003981590270996
60	262.4724690914154	pulse	1	t		58.0	2.5	/experiments/knapen_AOT/AOT_stimuli/rescaled_final/0022_fw.mp4	0.0	306.7766489982605	
60	264.07279205322266	pulse	1	t		58.0	2.5	/experiments/knapen_AOT/AOT_stimuli/rescaled_final/0022_fw.mp4	0.0	308.37697196006775	
60	264.1892020702362	fix_post	2		12	58.0	2.5	/experiments/knapen_AOT/AOT_stimuli/rescaled_final/0022_fw.mp4	0.0	308.4933819770813	0.10002899169921875
61	264.2892310619354	fix_pre	0		120	59.0	2.5	/experiments/knapen_AOT/AOT_stimuli/rescaled_final/0856_fw.mp4	0.0	308.5934109687805	1.0001609325408936
61	265.2893919944763	movie	1		243	59.0	2.5	/experiments/knapen_AOT/AOT_stimuli/rescaled_final/0856_fw.mp4	0.0	309.5935719013214	2.5003209114074707
61	265.6740529537201	pulse	1	t		59.0	2.5	/experiments/knapen_AOT/AOT_stimuli/rescaled_final/0856_fw.mp4	0.0	309.9782328605652	
61	267.2732560634613	pulse	1	t		59.0	2.5	/experiments/knapen_AOT/AOT_stimuli/rescaled_final/0856_fw.mp4	0.0	311.5774359703064	
61	267.7897129058838	fix_post	2		11	59.0	2.5	/experiments/knapen_AOT/AOT_stimuli/rescaled_final/0856_fw.mp4	0.0	312.0938928127289	0.09168505668640137
62	267.8813979625702	fix_pre	0		120	60.0	2.5	/experiments/knapen_AOT/AOT_stimuli/rescaled_final/1852_rv.mp4	0.0	312.1855778694153	1.0001790523529053
62	268.8734109401703	pulse	0	t		60.0	2.5	/experiments/knapen_AOT/AOT_stimuli/rescaled_final/1852_rv.mp4	0.0	313.1775908470154	
62	268.8815770149231	movie	1		244	60.0	2.5	/experiments/knapen_AOT/AOT_stimuli/rescaled_final/1852_rv.mp4	0.0	313.1857569217682	2.5087180137634277
62	270.4776940345764	pulse	1	t		60.0	2.5	/experiments/knapen_AOT/AOT_stimuli/rescaled_final/1852_rv.mp4	0.0	314.7818739414215	
62	271.3902950286865	fix_post	2		12	60.0	2.5	/experiments/knapen_AOT/AOT_stimuli/rescaled_final/1852_rv.mp4	0.0	315.6944749355316	0.09999990463256836
63	271.4902949333191	fix_pre	0		120	61.0	2.5	blank	1.0	315.7944748401642	1.000115156173706
63	272.0738139152527	pulse	0	t		61.0	2.5	blank	1.0	316.3779938220978	
63	272.4904100894928	movie	1		300	61.0	2.5	blank	1.0	316.7945899963379	2.5004680156707764
63	273.67412209510803	pulse	1	t		61.0	2.5	blank	1.0	317.9783020019531	
63	274.9908781051636	fix_post	2		12	61.0	2.5	blank	1.0	319.29505801200867	0.09995293617248535
64	275.09083104133606	fix_pre	0		120	62.0	2.5	/experiments/knapen_AOT/AOT_stimuli/rescaled_final/0876_rv.mp4	0.0	319.39501094818115	1.0001089572906494
64	275.27445697784424	pulse	0	t		62.0	2.5	/experiments/knapen_AOT/AOT_stimuli/rescaled_final/0876_rv.mp4	0.0	319.57863688468933	
64	276.0909399986267	movie	1		242	62.0	2.5	/experiments/knapen_AOT/AOT_stimuli/rescaled_final/0876_rv.mp4	0.0	320.3951199054718	2.500525951385498
64	276.8746290206909	pulse	1	t		62.0	2.5	/experiments/knapen_AOT/AOT_stimuli/rescaled_final/0876_rv.mp4	0.0	321.178808927536	
64	278.4747951030731	pulse	1	t		62.0	2.5	/experiments/knapen_AOT/AOT_stimuli/rescaled_final/0876_rv.mp4	0.0	322.7789750099182	
64	278.5914659500122	fix_post	2		12	62.0	2.5	/experiments/knapen_AOT/AOT_stimuli/rescaled_final/0876_rv.mp4	0.0	322.8956458568573	0.09987711906433105
65	278.69134306907654	fix_pre	0		120	63.0	2.5	/experiments/knapen_AOT/AOT_stimuli/rescaled_final/0070_fw.mp4	0.0	322.99552297592163	1.000182867050171
65	279.6915259361267	movie	1		244	63.0	2.5	/experiments/knapen_AOT/AOT_stimuli/rescaled_final/0070_fw.mp4	0.0	323.9957058429718	2.492016077041626
65	280.0756690502167	pulse	1	t		63.0	2.5	/experiments/knapen_AOT/AOT_stimuli/rescaled_final/0070_fw.mp4	0.0	324.37984895706177	
65	281.67541909217834	pulse	1	t		63.0	2.5	/experiments/knapen_AOT/AOT_stimuli/rescaled_final/0070_fw.mp4	0.0	325.97959899902344	
65	282.18354201316833	fix_post	2		12	63.0	2.5	/experiments/knapen_AOT/AOT_stimuli/rescaled_final/0070_fw.mp4	0.0	326.4877219200134	0.10002803802490234
66	282.28357005119324	fix_pre	0		120	64.0	2.5	/experiments/knapen_AOT/AOT_stimuli/rescaled_final/0778_rv.mp4	0.0	326.58774995803833	1.0000958442687988
66	283.27566289901733	pulse	0	t		64.0	2.5	/experiments/knapen_AOT/AOT_stimuli/rescaled_final/0778_rv.mp4	0.0	327.5798428058624	
66	283.28366589546204	movie	1		245	64.0	2.5	/experiments/knapen_AOT/AOT_stimuli/rescaled_final/0778_rv.mp4	0.0	327.58784580230713	2.5087649822235107
66	284.87628507614136	pulse	1	t		64.0	2.5	/experiments/knapen_AOT/AOT_stimuli/rescaled_final/0778_rv.mp4	0.0	329.18046498298645	
66	285.79243087768555	fix_post	2		12	64.0	2.5	/experiments/knapen_AOT/AOT_stimuli/rescaled_final/0778_rv.mp4	0.0	330.09661078453064	0.09996604919433594
67	285.8923969268799	fix_pre	0		120	65.0	2.5	/experiments/knapen_AOT/AOT_stimuli/rescaled_final/1142_rv.mp4	0.0	330.196576833725	1.000157117843628
67	286.4759840965271	pulse	0	t		65.0	2.5	/experiments/knapen_AOT/AOT_stimuli/rescaled_final/1142_rv.mp4	0.0	330.7801640033722	
67	286.8925540447235	movie	1		243	65.0	2.5	/experiments/knapen_AOT/AOT_stimuli/rescaled_final/1142_rv.mp4	0.0	331.1967339515686	2.500459909439087
67	288.07647609710693	pulse	1	t		65.0	2.5	/experiments/knapen_AOT/AOT_stimuli/rescaled_final/1142_rv.mp4	0.0	332.380656003952	
67	289.3930139541626	fix_post	2		12	65.0	2.5	/experiments/knapen_AOT/AOT_stimuli/rescaled_final/1142_rv.mp4	0.0	333.6971938610077	0.09999203681945801
68	289.49300599098206	fix_pre	0		120	66.0	2.5	/experiments/knapen_AOT/AOT_stimuli/rescaled_final/1603_fw.mp4	0.0	333.79718589782715	1.0001370906829834
68	289.67656087875366	pulse	0	t		66.0	2.5	/experiments/knapen_AOT/AOT_stimuli/rescaled_final/1603_fw.mp4	0.0	333.98074078559875	
68	290.49314308166504	movie	1		242	66.0	2.5	/experiments/knapen_AOT/AOT_stimuli/rescaled_final/1603_fw.mp4	0.0	334.79732298851013	2.50055193901062
68	291.2767860889435	pulse	1	t		66.0	2.5	/experiments/knapen_AOT/AOT_stimuli/rescaled_final/1603_fw.mp4	0.0	335.5809659957886	
68	292.87707805633545	pulse	1	t		66.0	2.5	/experiments/knapen_AOT/AOT_stimuli/rescaled_final/1603_fw.mp4	0.0	337.18125796318054	
68	292.99369502067566	fix_post	2		12	66.0	2.5	/experiments/knapen_AOT/AOT_stimuli/rescaled_final/1603_fw.mp4	0.0	337.29787492752075	0.09981298446655273
69	293.0935080051422	fix_pre	0		120	67.0	2.5	/experiments/knapen_AOT/AOT_stimuli/rescaled_final/1238_rv.mp4	0.0	337.3976879119873	1.0001890659332275
69	294.09369707107544	movie	1		241	67.0	2.5	/experiments/knapen_AOT/AOT_stimuli/rescaled_final/1238_rv.mp4	0.0	338.39787697792053	2.4919638633728027
69	294.4777789115906	pulse	1	t		67.0	2.5	/experiments/knapen_AOT/AOT_stimuli/rescaled_final/1238_rv.mp4	0.0	338.78195881843567	
69	296.0775799751282	pulse	1	t		67.0	2.5	/experiments/knapen_AOT/AOT_stimuli/rescaled_final/1238_rv.mp4	0.0	340.38175988197327	
69	296.58566093444824	fix_post	2		12	67.0	2.5	/experiments/knapen_AOT/AOT_stimuli/rescaled_final/1238_rv.mp4	0.0	340.88984084129333	0.10001516342163086
70	296.6856760978699	fix_pre	0		120	68.0	2.5	/experiments/knapen_AOT/AOT_stimuli/rescaled_final/1504_rv.mp4	0.0	340.98985600471497	1.0001568794250488
70	297.67780900001526	pulse	0	t		68.0	2.5	/experiments/knapen_AOT/AOT_stimuli/rescaled_final/1504_rv.mp4	0.0	341.98198890686035	
70	297.6858329772949	movie	1		245	68.0	2.5	/experiments/knapen_AOT/AOT_stimuli/rescaled_final/1504_rv.mp4	0.0	341.99001288414	2.5087409019470215
70	299.2785439491272	pulse	1	t		68.0	2.5	/experiments/knapen_AOT/AOT_stimuli/rescaled_final/1504_rv.mp4	0.0	343.5827238559723	
70	300.19457387924194	fix_post	2		12	68.0	2.5	/experiments/knapen_AOT/AOT_stimuli/rescaled_final/1504_rv.mp4	0.0	344.49875378608704	0.10002803802490234
71	300.29460191726685	fix_pre	0		120	69.0	2.5	/experiments/knapen_AOT/AOT_stimuli/rescaled_final/1861_fw.mp4	0.0	344.59878182411194	1.0000801086425781
71	300.87066102027893	pulse	0	t		69.0	2.5	/experiments/knapen_AOT/AOT_stimuli/rescaled_final/1861_fw.mp4	0.0	345.174840927124	
71	301.2946820259094	movie	1		242	69.0	2.5	/experiments/knapen_AOT/AOT_stimuli/rescaled_final/1861_fw.mp4	0.0	345.5988619327545	2.500554084777832
71	302.4704620838165	pulse	1	t		69.0	2.5	/experiments/knapen_AOT/AOT_stimuli/rescaled_final/1861_fw.mp4	0.0	346.7746419906616	
71	303.79523611068726	fix_post	2		12	69.0	2.5	/experiments/knapen_AOT/AOT_stimuli/rescaled_final/1861_fw.mp4	0.0	348.09941601753235	0.09985589981079102
72	303.89509201049805	fix_pre	0		120	70.0	2.5	blank	1.0	348.19927191734314	1.0001890659332275
72	304.0702579021454	pulse	0	t		70.0	2.5	blank	1.0	348.3744378089905	
72	304.8952810764313	movie	1		300	70.0	2.5	blank	1.0	349.19946098327637	2.500337839126587
72	305.6705720424652	pulse	1	t		70.0	2.5	blank	1.0	349.9747519493103	
72	307.27080488204956	pulse	1	t		70.0	2.5	blank	1.0	351.57498478889465	
72	307.39561891555786	fix_post	2		12	70.0	2.5	blank	1.0	351.69979882240295	0.10002613067626953
73	307.49564504623413	fix_pre	0		120	71.0	2.5	/experiments/knapen_AOT/AOT_stimuli/rescaled_final/0337_rv.mp4	0.0	351.7998249530792	1.000154972076416
73	308.49580001831055	movie	1		242	71.0	2.5	/experiments/knapen_AOT/AOT_stimuli/rescaled_final/0337_rv.mp4	0.0	352.79997992515564	2.4920520782470703
73	308.8710050582886	pulse	1	t		71.0	2.5	/experiments/knapen_AOT/AOT_stimuli/rescaled_final/0337_rv.mp4	0.0	353.17518496513367	
73	310.47135305404663	pulse	1	t		71.0	2.5	/experiments/knapen_AOT/AOT_stimuli/rescaled_final/0337_rv.mp4	0.0	354.7755329608917	
73	310.9878520965576	fix_post	2		12	71.0	2.5	/experiments/knapen_AOT/AOT_stimuli/rescaled_final/0337_rv.mp4	0.0	355.2920320034027	0.10005378723144531
74	311.08790588378906	fix_pre	0		119	72.0	2.5	/experiments/knapen_AOT/AOT_stimuli/rescaled_final/0205_rv.mp4	0.0	355.39208579063416	0.9917631149291992
74	312.071585893631	pulse	0	t		72.0	2.5	/experiments/knapen_AOT/AOT_stimuli/rescaled_final/0205_rv.mp4	0.0	356.3757658004761	
74	312.07966899871826	movie	1		245	72.0	2.5	/experiments/knapen_AOT/AOT_stimuli/rescaled_final/0205_rv.mp4	0.0	356.38384890556335	2.5086898803710938
74	313.67303705215454	pulse	1	t		72.0	2.5	/experiments/knapen_AOT/AOT_stimuli/rescaled_final/0205_rv.mp4	0.0	357.97721695899963	
74	314.58835887908936	fix_post	2		12	72.0	2.5	/experiments/knapen_AOT/AOT_stimuli/rescaled_final/0205_rv.mp4	0.0	358.89253878593445	0.1001582145690918
75	314.68851709365845	fix_pre	0		116	73.0	2.5	/experiments/knapen_AOT/AOT_stimuli/rescaled_final/0060_rv.mp4	0.0	358.99269700050354	1.0000488758087158
75	315.2719359397888	pulse	0	t		73.0	2.5	/experiments/knapen_AOT/AOT_stimuli/rescaled_final/0060_rv.mp4	0.0	359.5761158466339	
75	315.68856596946716	movie	1		242	73.0	2.5	/experiments/knapen_AOT/AOT_stimuli/rescaled_final/0060_rv.mp4	0.0	359.99274587631226	2.500499963760376
75	316.8723909854889	pulse	1	t		73.0	2.5	/experiments/knapen_AOT/AOT_stimuli/rescaled_final/0060_rv.mp4	0.0	361.176570892334	
75	318.18906593322754	fix_post	2		12	73.0	2.5	/experiments/knapen_AOT/AOT_stimuli/rescaled_final/0060_rv.mp4	0.0	362.49324584007263	0.09989309310913086
76	318.28895902633667	fix_pre	0		120	74.0	2.5	/experiments/knapen_AOT/AOT_stimuli/rescaled_final/0230_rv.mp4	0.0	362.59313893318176	1.0001280307769775
76	318.4725110530853	pulse	0	t		74.0	2.5	/experiments/knapen_AOT/AOT_stimuli/rescaled_final/0230_rv.mp4	0.0	362.7766909599304	
76	319.28908705711365	movie	1		242	74.0	2.5	/experiments/knapen_AOT/AOT_stimuli/rescaled_final/0230_rv.mp4	0.0	363.59326696395874	2.500638961791992
76	320.0727529525757	pulse	1	t		74.0	2.5	/experiments/knapen_AOT/AOT_stimuli/rescaled_final/0230_rv.mp4	0.0	364.3769328594208	
76	321.672847032547	pulse	1	t		74.0	2.5	/experiments/knapen_AOT/AOT_stimuli/rescaled_final/0230_rv.mp4	0.0	365.9770269393921	
76	321.78972601890564	fix_post	2		12	74.0	2.5	/experiments/knapen_AOT/AOT_stimuli/rescaled_final/0230_rv.mp4	0.0	366.09390592575073	0.09980201721191406
77	321.88952803611755	fix_pre	0		120	75.0	2.5	/experiments/knapen_AOT/AOT_stimuli/rescaled_final/1164_fw.mp4	0.0	366.19370794296265	1.0000898838043213
77	322.8896179199219	movie	1		241	75.0	2.5	/experiments/knapen_AOT/AOT_stimuli/rescaled_final/1164_fw.mp4	0.0	367.19379782676697	2.4921681880950928
77	323.2740330696106	pulse	1	t		75.0	2.5	/experiments/knapen_AOT/AOT_stimuli/rescaled_final/1164_fw.mp4	0.0	367.5782129764557	
77	324.8734369277954	pulse	1	t		75.0	2.5	/experiments/knapen_AOT/AOT_stimuli/rescaled_final/1164_fw.mp4	0.0	369.1776168346405	
77	325.38178610801697	fix_post	2		12	75.0	2.5	/experiments/knapen_AOT/AOT_stimuli/rescaled_final/1164_fw.mp4	0.0	369.68596601486206	0.09987092018127441
78	325.48165702819824	fix_pre	0		120	76.0	2.5	/experiments/knapen_AOT/AOT_stimuli/rescaled_final/1572_rv.mp4	0.0	369.78583693504333	1.0001180171966553
78	326.4736669063568	pulse	0	t		76.0	2.5	/experiments/knapen_AOT/AOT_stimuli/rescaled_final/1572_rv.mp4	0.0	370.7778468132019	
78	326.4817750453949	movie	1		244	76.0	2.5	/experiments/knapen_AOT/AOT_stimuli/rescaled_final/1572_rv.mp4	0.0	370.78595495224	2.508847951889038
78	328.0781478881836	pulse	1	t		76.0	2.5	/experiments/knapen_AOT/AOT_stimuli/rescaled_final/1572_rv.mp4	0.0	372.3823277950287	
78	328.99062299728394	fix_post	2		12	76.0	2.5	/experiments/knapen_AOT/AOT_stimuli/rescaled_final/1572_rv.mp4	0.0	373.294802904129	0.09988903999328613
79	329.0905120372772	fix_pre	0		120	77.0	2.5	blank	1.0	373.3946919441223	1.000166893005371
79	329.67422699928284	pulse	0	t		77.0	2.5	blank	1.0	373.97840690612793	
79	330.0906789302826	movie	1		300	77.0	2.5	blank	1.0	374.3948588371277	2.5003750324249268
79	331.27442502975464	pulse	1	t		77.0	2.5	blank	1.0	375.57860493659973	
79	332.5910539627075	fix_post	2		12	77.0	2.5	blank	1.0	376.8952338695526	0.09997105598449707
80	332.691025018692	fix_pre	0		120	78.0	2.5	/experiments/knapen_AOT/AOT_stimuli/rescaled_final/1788_rv.mp4	0.0	376.9952049255371	1.0001790523529053
80	332.8746030330658	pulse	0	t		78.0	2.5	/experiments/knapen_AOT/AOT_stimuli/rescaled_final/1788_rv.mp4	0.0	377.1787829399109	
80	333.6912040710449	movie	1		243	78.0	2.5	/experiments/knapen_AOT/AOT_stimuli/rescaled_final/1788_rv.mp4	0.0	377.99538397789	2.500372886657715
80	334.4749000072479	pulse	1	t		78.0	2.5	/experiments/knapen_AOT/AOT_stimuli/rescaled_final/1788_rv.mp4	0.0	378.779079914093	
80	336.0751268863678	pulse	1	t		78.0	2.5	/experiments/knapen_AOT/AOT_stimuli/rescaled_final/1788_rv.mp4	0.0	380.3793067932129	
80	336.19157695770264	fix_post	2		12	78.0	2.5	/experiments/knapen_AOT/AOT_stimuli/rescaled_final/1788_rv.mp4	0.0	380.49575686454773	0.1000509262084961
81	336.29162788391113	fix_pre	0		120	79.0	2.5	/experiments/knapen_AOT/AOT_stimuli/rescaled_final/0807_rv.mp4	0.0	380.5958077907562	1.0001201629638672
81	337.291748046875	movie	1		241	79.0	2.5	/experiments/knapen_AOT/AOT_stimuli/rescaled_final/0807_rv.mp4	0.0	381.5959279537201	2.4920899868011475
81	337.6798150539398	pulse	1	t		79.0	2.5	/experiments/knapen_AOT/AOT_stimuli/rescaled_final/0807_rv.mp4	0.0	381.9839949607849	
81	339.27559089660645	pulse	1	t		79.0	2.5	/experiments/knapen_AOT/AOT_stimuli/rescaled_final/0807_rv.mp4	0.0	383.57977080345154	
81	339.78383803367615	fix_post	2		12	79.0	2.5	/experiments/knapen_AOT/AOT_stimuli/rescaled_final/0807_rv.mp4	0.0	384.08801794052124	0.09998393058776855
82	339.8838219642639	fix_pre	0		120	80.0	2.5	/experiments/knapen_AOT/AOT_stimuli/rescaled_final/0016_fw.mp4	0.0	384.188001871109	1.000133991241455
82	340.87580490112305	pulse	0	t		80.0	2.5	/experiments/knapen_AOT/AOT_stimuli/rescaled_final/0016_fw.mp4	0.0	385.17998480796814	
82	340.88395595550537	movie	1		244	80.0	2.5	/experiments/knapen_AOT/AOT_stimuli/rescaled_final/0016_fw.mp4	0.0	385.18813586235046	2.5086989402770996
82	342.4772870540619	pulse	1	t		80.0	2.5	/experiments/knapen_AOT/AOT_stimuli/rescaled_final/0016_fw.mp4	0.0	386.781466960907	
82	343.39265489578247	fix_post	2		12	80.0	2.5	/experiments/knapen_AOT/AOT_stimuli/rescaled_final/0016_fw.mp4	0.0	387.69683480262756	0.09998607635498047
83	343.49264097213745	fix_pre	0		120	81.0	2.5	/experiments/knapen_AOT/AOT_stimuli/rescaled_final/0570_rv.mp4	0.0	387.79682087898254	1.0001790523529053
83	344.0763370990753	pulse	0	t		81.0	2.5	/experiments/knapen_AOT/AOT_stimuli/rescaled_final/0570_rv.mp4	0.0	388.3805170059204	
83	344.49282002449036	movie	1		244	81.0	2.5	/experiments/knapen_AOT/AOT_stimuli/rescaled_final/0570_rv.mp4	0.0	388.79699993133545	2.500347852706909
83	345.676677942276	pulse	1	t		81.0	2.5	/experiments/knapen_AOT/AOT_stimuli/rescaled_final/0570_rv.mp4	0.0	389.9808578491211	
83	346.99316787719727	fix_post	2		12	81.0	2.5	/experiments/knapen_AOT/AOT_stimuli/rescaled_final/0570_rv.mp4	0.0	391.29734778404236	0.100067138671875
84	347.09323501586914	fix_pre	0		120	82.0	2.5	/experiments/knapen_AOT/AOT_stimuli/rescaled_final/1955_rv.mp4	0.0	391.39741492271423	1.0002238750457764
84	347.2767550945282	pulse	0	t		82.0	2.5	/experiments/knapen_AOT/AOT_stimuli/rescaled_final/1955_rv.mp4	0.0	391.5809350013733	
84	348.0934588909149	movie	1		243	82.0	2.5	/experiments/knapen_AOT/AOT_stimuli/rescaled_final/1955_rv.mp4	0.0	392.39763879776	2.500303030014038
84	348.8769669532776	pulse	1	t		82.0	2.5	/experiments/knapen_AOT/AOT_stimuli/rescaled_final/1955_rv.mp4	0.0	393.1811468601227	
84	350.4771010875702	pulse	1	t		82.0	2.5	/experiments/knapen_AOT/AOT_stimuli/rescaled_final/1955_rv.mp4	0.0	394.7812809944153	
84	350.59376192092896	fix_post	2		12	82.0	2.5	/experiments/knapen_AOT/AOT_stimuli/rescaled_final/1955_rv.mp4	0.0	394.89794182777405	0.10000014305114746
85	350.6937620639801	fix_pre	0		120	83.0	2.5	blank	1.0	394.9979419708252	1.0001440048217773
85	351.6939060688019	movie	1		299	83.0	2.5	blank	1.0	395.998085975647	2.492067813873291
85	352.0776090621948	pulse	1	t		83.0	2.5	blank	1.0	396.3817889690399	
85	353.6777250766754	pulse	1	t		83.0	2.5	blank	1.0	397.9819049835205	
85	354.18597388267517	fix_post	2		12	83.0	2.5	blank	1.0	398.49015378952026	0.09998321533203125
87	354.2859570980072	stim	0		1716					398.5901370048523	14.302214860916138
87	355.277930021286	pulse	0	t						399.5821099281311	
87	356.87078189849854	pulse	0	t						401.1749618053436	
87	358.4710431098938	pulse	0	t						402.7752230167389	
87	360.07136392593384	pulse	0	t						404.37554383277893	
87	361.67152404785156	pulse	0	t						405.97570395469666	
87	363.27172088623047	pulse	0	t						407.57590079307556	
87	364.87092089653015	pulse	0	t						409.17510080337524	
87	366.4712450504303	pulse	0	t						410.7754249572754	
87	368.07155108451843	pulse	0	t						412.3757309913635	
