trial_nr	onset	event_type	phase	response	nr_frames	movie_index	movie_duration	movie_file	blank	onset_abs	duration
0	0.20841002464294434	stim	0		46					53.82522487640381	0.38328003883361816
0	0.58349609375	response	0	space						54.200310945510864	
1	0.5916900634765625	stim	0		4268					54.20850491523743	35.583751916885376
1	36.16569995880127	pulse	0	t						89.78251481056213	
1	36.17544198036194	stim	1		1717					89.7922568321228	14.307006120681763
1	37.75579500198364	pulse	1	t						91.3726098537445	
1	39.35591506958008	pulse	1	t						92.97272992134094	
1	40.95635104179382	pulse	1	t						94.57316589355469	
1	42.55647897720337	pulse	1	t						96.17329382896423	
1	44.15665006637573	pulse	1	t						97.7734649181366	
1	45.756853103637695	pulse	1	t						99.37366795539856	
1	47.35716199874878	pulse	1	t						100.97397685050964	
1	48.95740103721619	pulse	1	t						102.57421588897705	
2	50.4824481010437	fix_pre	0		10	0.0	2.5	/experiments/knapen_AOT/AOT_stimuli/rescaled_final/1645_rv.mp4	0.0	104.09926295280457	0.08334898948669434
2	50.55768609046936	pulse	0	t		0.0	2.5	/experiments/knapen_AOT/AOT_stimuli/rescaled_final/1645_rv.mp4	0.0	104.17450094223022	
2	50.565797090530396	movie	1		246	0.0	2.5	/experiments/knapen_AOT/AOT_stimuli/rescaled_final/1645_rv.mp4	0.0	104.18261194229126	2.508749008178711
2	52.1586549282074	pulse	1	t		0.0	2.5	/experiments/knapen_AOT/AOT_stimuli/rescaled_final/1645_rv.mp4	0.0	105.77546977996826	
2	53.074546098709106	fix_post	2		12	0.0	2.5	/experiments/knapen_AOT/AOT_stimuli/rescaled_final/1645_rv.mp4	0.0	106.69136095046997	0.09997081756591797
3	53.174516916275024	fix_pre	0		120	1.0	2.5	/experiments/knapen_AOT/AOT_stimuli/rescaled_final/1188_rv.mp4	0.0	106.79133176803589	1.0001401901245117
3	53.75823712348938	pulse	0	t		1.0	2.5	/experiments/knapen_AOT/AOT_stimuli/rescaled_final/1188_rv.mp4	0.0	107.37505197525024	
3	54.174657106399536	movie	1		244	1.0	2.5	/experiments/knapen_AOT/AOT_stimuli/rescaled_final/1188_rv.mp4	0.0	107.7914719581604	2.5005218982696533
3	55.358587980270386	pulse	1	t		1.0	2.5	/experiments/knapen_AOT/AOT_stimuli/rescaled_final/1188_rv.mp4	0.0	108.97540283203125	
3	56.67517900466919	fix_post	2		12	1.0	2.5	/experiments/knapen_AOT/AOT_stimuli/rescaled_final/1188_rv.mp4	0.0	110.29199385643005	0.09989809989929199
4	56.77507710456848	fix_pre	0		120	2.0	2.5	/experiments/knapen_AOT/AOT_stimuli/rescaled_final/1054_rv.mp4	0.0	110.39189195632935	1.0001699924468994
4	56.958707094192505	pulse	0	t		2.0	2.5	/experiments/knapen_AOT/AOT_stimuli/rescaled_final/1054_rv.mp4	0.0	110.57552194595337	
4	57.77524709701538	movie	1		243	2.0	2.5	/experiments/knapen_AOT/AOT_stimuli/rescaled_final/1054_rv.mp4	0.0	111.39206194877625	2.500419855117798
4	58.55885291099548	pulse	1	t		2.0	2.5	/experiments/knapen_AOT/AOT_stimuli/rescaled_final/1054_rv.mp4	0.0	112.17566776275635	
4	60.15890097618103	pulse	1	t		2.0	2.5	/experiments/knapen_AOT/AOT_stimuli/rescaled_final/1054_rv.mp4	0.0	113.7757158279419	
4	60.27566695213318	fix_post	2		12	2.0	2.5	/experiments/knapen_AOT/AOT_stimuli/rescaled_final/1054_rv.mp4	0.0	113.89248180389404	0.09992599487304688
5	60.375592947006226	fix_pre	0		120	3.0	2.5	/experiments/knapen_AOT/AOT_stimuli/rescaled_final/1105_fw.mp4	0.0	113.99240779876709	1.000162124633789
5	61.375755071640015	movie	1		242	3.0	2.5	/experiments/knapen_AOT/AOT_stimuli/rescaled_final/1105_fw.mp4	0.0	114.99256992340088	2.4920148849487305
5	61.75986909866333	pulse	1	t		3.0	2.5	/experiments/knapen_AOT/AOT_stimuli/rescaled_final/1105_fw.mp4	0.0	115.3766839504242	
5	63.359663009643555	pulse	1	t		3.0	2.5	/experiments/knapen_AOT/AOT_stimuli/rescaled_final/1105_fw.mp4	0.0	116.97647786140442	
5	63.867769956588745	fix_post	2		12	3.0	2.5	/experiments/knapen_AOT/AOT_stimuli/rescaled_final/1105_fw.mp4	0.0	117.48458480834961	0.10003018379211426
6	63.96780014038086	fix_pre	0		120	4.0	2.5	/experiments/knapen_AOT/AOT_stimuli/rescaled_final/1658_fw.mp4	0.0	117.58461499214172	1.000213861465454
6	64.95983290672302	pulse	0	t		4.0	2.5	/experiments/knapen_AOT/AOT_stimuli/rescaled_final/1658_fw.mp4	0.0	118.57664775848389	
6	64.96801400184631	movie	1		246	4.0	2.5	/experiments/knapen_AOT/AOT_stimuli/rescaled_final/1658_fw.mp4	0.0	118.58482885360718	2.5086491107940674
6	66.5644690990448	pulse	1	t		4.0	2.5	/experiments/knapen_AOT/AOT_stimuli/rescaled_final/1658_fw.mp4	0.0	120.18128395080566	
6	67.47666311264038	fix_post	2		12	4.0	2.5	/experiments/knapen_AOT/AOT_stimuli/rescaled_final/1658_fw.mp4	0.0	121.09347796440125	0.10004091262817383
7	67.57670402526855	fix_pre	0		120	5.0	2.5	/experiments/knapen_AOT/AOT_stimuli/rescaled_final/1482_fw.mp4	0.0	121.19351887702942	1.0001189708709717
7	68.16038513183594	pulse	0	t		5.0	2.5	/experiments/knapen_AOT/AOT_stimuli/rescaled_final/1482_fw.mp4	0.0	121.7771999835968	
7	68.57682299613953	movie	1		243	5.0	2.5	/experiments/knapen_AOT/AOT_stimuli/rescaled_final/1482_fw.mp4	0.0	122.19363784790039	2.5003790855407715
7	69.7607479095459	pulse	1	t		5.0	2.5	/experiments/knapen_AOT/AOT_stimuli/rescaled_final/1482_fw.mp4	0.0	123.37756276130676	
7	71.0772020816803	fix_post	2		12	5.0	2.5	/experiments/knapen_AOT/AOT_stimuli/rescaled_final/1482_fw.mp4	0.0	124.69401693344116	0.10006499290466309
8	71.17726707458496	fix_pre	0		120	6.0	2.5	blank	1.0	124.79408192634583	1.000143051147461
8	71.36084914207458	pulse	0	t		6.0	2.5	blank	1.0	124.97766399383545	
8	72.17741012573242	movie	1		300	6.0	2.5	blank	1.0	125.79422497749329	2.5003509521484375
8	72.96096801757812	pulse	1	t		6.0	2.5	blank	1.0	126.57778286933899	
8	74.56125092506409	pulse	1	t		6.0	2.5	blank	1.0	128.17806577682495	
8	74.67776107788086	fix_post	2		9	6.0	2.5	blank	1.0	128.29457592964172	0.09997105598449707
9	74.77773213386536	fix_pre	0		120	7.0	2.5	/experiments/knapen_AOT/AOT_stimuli/rescaled_final/0811_rv.mp4	0.0	128.39454698562622	1.0001678466796875
9	75.77789998054504	movie	1		243	7.0	2.5	/experiments/knapen_AOT/AOT_stimuli/rescaled_final/0811_rv.mp4	0.0	129.3947148323059	2.4920380115509033
9	76.16595005989075	pulse	1	t		7.0	2.5	/experiments/knapen_AOT/AOT_stimuli/rescaled_final/0811_rv.mp4	0.0	129.7827649116516	
9	77.76180696487427	pulse	1	t		7.0	2.5	/experiments/knapen_AOT/AOT_stimuli/rescaled_final/0811_rv.mp4	0.0	131.37862181663513	
9	78.26993799209595	fix_post	2		12	7.0	2.5	/experiments/knapen_AOT/AOT_stimuli/rescaled_final/0811_rv.mp4	0.0	131.8867528438568	0.10000205039978027
10	78.36994004249573	fix_pre	0		120	8.0	2.5	/experiments/knapen_AOT/AOT_stimuli/rescaled_final/1498_rv.mp4	0.0	131.9867548942566	1.0002059936523438
10	79.35454893112183	pulse	0	t		8.0	2.5	/experiments/knapen_AOT/AOT_stimuli/rescaled_final/1498_rv.mp4	0.0	132.9713637828827	
10	79.37014603614807	movie	1		245	8.0	2.5	/experiments/knapen_AOT/AOT_stimuli/rescaled_final/1498_rv.mp4	0.0	132.98696088790894	2.508686065673828
10	80.9628279209137	pulse	1	t		8.0	2.5	/experiments/knapen_AOT/AOT_stimuli/rescaled_final/1498_rv.mp4	0.0	134.57964277267456	
10	81.8788321018219	fix_post	2		12	8.0	2.5	/experiments/knapen_AOT/AOT_stimuli/rescaled_final/1498_rv.mp4	0.0	135.49564695358276	0.09999680519104004
11	81.97882890701294	fix_pre	0		120	9.0	2.5	/experiments/knapen_AOT/AOT_stimuli/rescaled_final/0637_fw.mp4	0.0	135.5956437587738	1.0001461505889893
11	82.55486702919006	pulse	0	t		9.0	2.5	/experiments/knapen_AOT/AOT_stimuli/rescaled_final/0637_fw.mp4	0.0	136.17168188095093	
11	82.97897505760193	movie	1		244	9.0	2.5	/experiments/knapen_AOT/AOT_stimuli/rescaled_final/0637_fw.mp4	0.0	136.5957899093628	2.500422954559326
11	84.15828013420105	pulse	1	t		9.0	2.5	/experiments/knapen_AOT/AOT_stimuli/rescaled_final/0637_fw.mp4	0.0	137.7750949859619	
11	85.47939801216125	fix_post	2		12	9.0	2.5	/experiments/knapen_AOT/AOT_stimuli/rescaled_final/0637_fw.mp4	0.0	139.09621286392212	0.09995412826538086
12	85.57935214042664	fix_pre	0		120	10.0	2.5	/experiments/knapen_AOT/AOT_stimuli/rescaled_final/1829_rv.mp4	0.0	139.1961669921875	1.0001859664916992
12	85.75536513328552	pulse	0	t		10.0	2.5	/experiments/knapen_AOT/AOT_stimuli/rescaled_final/1829_rv.mp4	0.0	139.3721799850464	
12	86.57953810691833	movie	1		244	10.0	2.5	/experiments/knapen_AOT/AOT_stimuli/rescaled_final/1829_rv.mp4	0.0	140.1963529586792	2.492041826248169
12	87.35492396354675	pulse	1	t		10.0	2.5	/experiments/knapen_AOT/AOT_stimuli/rescaled_final/1829_rv.mp4	0.0	140.97173881530762	
12	88.95502305030823	pulse	1	t		10.0	2.5	/experiments/knapen_AOT/AOT_stimuli/rescaled_final/1829_rv.mp4	0.0	142.5718379020691	
12	89.0715799331665	fix_post	2		12	10.0	2.5	/experiments/knapen_AOT/AOT_stimuli/rescaled_final/1829_rv.mp4	0.0	142.68839478492737	0.09998798370361328
13	89.17156791687012	fix_pre	0		120	11.0	2.5	/experiments/knapen_AOT/AOT_stimuli/rescaled_final/0422_rv.mp4	0.0	142.78838276863098	1.0002059936523438
13	90.17177391052246	movie	1		244	11.0	2.5	/experiments/knapen_AOT/AOT_stimuli/rescaled_final/0422_rv.mp4	0.0	143.78858876228333	2.5003230571746826
13	90.55580711364746	pulse	1	t		11.0	2.5	/experiments/knapen_AOT/AOT_stimuli/rescaled_final/0422_rv.mp4	0.0	144.17262196540833	
13	92.15569496154785	pulse	1	t		11.0	2.5	/experiments/knapen_AOT/AOT_stimuli/rescaled_final/0422_rv.mp4	0.0	145.77250981330872	
13	92.67209696769714	fix_post	2		12	11.0	2.5	/experiments/knapen_AOT/AOT_stimuli/rescaled_final/0422_rv.mp4	0.0	146.288911819458	0.09999895095825195
14	92.7720959186554	fix_pre	0		119	12.0	2.5	blank	1.0	146.38891077041626	0.9918432235717773
14	93.75583910942078	pulse	0	t		12.0	2.5	blank	1.0	147.37265396118164	
14	93.76393914222717	movie	1		301	12.0	2.5	blank	1.0	147.38075399398804	2.5087177753448486
14	95.35596895217896	pulse	1	t		12.0	2.5	blank	1.0	148.97278380393982	
14	96.27265691757202	fix_post	2		12	12.0	2.5	blank	1.0	149.88947176933289	0.09999203681945801
15	96.37264895439148	fix_pre	0		120	13.0	2.5	/experiments/knapen_AOT/AOT_stimuli/rescaled_final/1857_rv.mp4	0.0	149.98946380615234	1.0001840591430664
15	96.95626401901245	pulse	0	t		13.0	2.5	/experiments/knapen_AOT/AOT_stimuli/rescaled_final/1857_rv.mp4	0.0	150.57307887077332	
15	97.37283301353455	movie	1		243	13.0	2.5	/experiments/knapen_AOT/AOT_stimuli/rescaled_final/1857_rv.mp4	0.0	150.9896478652954	2.5003340244293213
15	98.55664110183716	pulse	1	t		13.0	2.5	/experiments/knapen_AOT/AOT_stimuli/rescaled_final/1857_rv.mp4	0.0	152.17345595359802	
15	99.87316703796387	fix_post	2		12	13.0	2.5	/experiments/knapen_AOT/AOT_stimuli/rescaled_final/1857_rv.mp4	0.0	153.48998188972473	0.1000370979309082
16	99.97320413589478	fix_pre	0		120	14.0	2.5	/experiments/knapen_AOT/AOT_stimuli/rescaled_final/1525_rv.mp4	0.0	153.59001898765564	1.0001838207244873
16	100.15682911872864	pulse	0	t		14.0	2.5	/experiments/knapen_AOT/AOT_stimuli/rescaled_final/1525_rv.mp4	0.0	153.7736439704895	
16	100.97338795661926	movie	1		245	14.0	2.5	/experiments/knapen_AOT/AOT_stimuli/rescaled_final/1525_rv.mp4	0.0	154.59020280838013	2.5003411769866943
16	101.75694704055786	pulse	1	t		14.0	2.5	/experiments/knapen_AOT/AOT_stimuli/rescaled_final/1525_rv.mp4	0.0	155.37376189231873	
16	103.35731601715088	pulse	1	t		14.0	2.5	/experiments/knapen_AOT/AOT_stimuli/rescaled_final/1525_rv.mp4	0.0	156.97413086891174	
16	103.47372913360596	fix_post	2		12	14.0	2.5	/experiments/knapen_AOT/AOT_stimuli/rescaled_final/1525_rv.mp4	0.0	157.09054398536682	0.09998488426208496
17	103.57371401786804	fix_pre	0		120	15.0	2.5	/experiments/knapen_AOT/AOT_stimuli/rescaled_final/2093_fw.mp4	0.0	157.1905288696289	1.0001640319824219
17	104.57387804985046	movie	1		242	15.0	2.5	/experiments/knapen_AOT/AOT_stimuli/rescaled_final/2093_fw.mp4	0.0	158.19069290161133	2.492033004760742
17	104.95887994766235	pulse	1	t		15.0	2.5	/experiments/knapen_AOT/AOT_stimuli/rescaled_final/2093_fw.mp4	0.0	158.57569479942322	
17	106.55767297744751	pulse	1	t		15.0	2.5	/experiments/knapen_AOT/AOT_stimuli/rescaled_final/2093_fw.mp4	0.0	160.17448782920837	
17	107.0659110546112	fix_post	2		12	15.0	2.5	/experiments/knapen_AOT/AOT_stimuli/rescaled_final/2093_fw.mp4	0.0	160.68272590637207	0.10001492500305176
18	107.16592597961426	fix_pre	0		120	16.0	2.5	/experiments/knapen_AOT/AOT_stimuli/rescaled_final/0154_fw.mp4	0.0	160.78274083137512	1.0001981258392334
18	108.15789794921875	pulse	0	t		16.0	2.5	/experiments/knapen_AOT/AOT_stimuli/rescaled_final/0154_fw.mp4	0.0	161.77471280097961	
18	108.16612410545349	movie	1		246	16.0	2.5	/experiments/knapen_AOT/AOT_stimuli/rescaled_final/0154_fw.mp4	0.0	161.78293895721436	2.5086829662323
18	109.75869107246399	pulse	1	t		16.0	2.5	/experiments/knapen_AOT/AOT_stimuli/rescaled_final/0154_fw.mp4	0.0	163.37550592422485	
18	110.67480707168579	fix_post	2		12	16.0	2.5	/experiments/knapen_AOT/AOT_stimuli/rescaled_final/0154_fw.mp4	0.0	164.29162192344666	0.09996795654296875
19	110.77477502822876	fix_pre	0		120	17.0	2.5	/experiments/knapen_AOT/AOT_stimuli/rescaled_final/2169_rv.mp4	0.0	164.39158987998962	1.0003418922424316
19	111.35846996307373	pulse	0	t		17.0	2.5	/experiments/knapen_AOT/AOT_stimuli/rescaled_final/2169_rv.mp4	0.0	164.9752848148346	
19	111.77511692047119	movie	1		243	17.0	2.5	/experiments/knapen_AOT/AOT_stimuli/rescaled_final/2169_rv.mp4	0.0	165.39193177223206	2.500195026397705
19	112.95873594284058	pulse	1	t		17.0	2.5	/experiments/knapen_AOT/AOT_stimuli/rescaled_final/2169_rv.mp4	0.0	166.57555079460144	
19	114.2753119468689	fix_post	2		12	17.0	2.5	/experiments/knapen_AOT/AOT_stimuli/rescaled_final/2169_rv.mp4	0.0	167.89212679862976	0.10001611709594727
20	114.37532806396484	fix_pre	0		120	18.0	2.5	/experiments/knapen_AOT/AOT_stimuli/rescaled_final/0789_fw.mp4	0.0	167.9921429157257	1.000195026397705
20	114.55887508392334	pulse	0	t		18.0	2.5	/experiments/knapen_AOT/AOT_stimuli/rescaled_final/0789_fw.mp4	0.0	168.1756899356842	
20	115.37552309036255	movie	1		244	18.0	2.5	/experiments/knapen_AOT/AOT_stimuli/rescaled_final/0789_fw.mp4	0.0	168.9923379421234	2.5003418922424316
20	116.15912008285522	pulse	1	t		18.0	2.5	/experiments/knapen_AOT/AOT_stimuli/rescaled_final/0789_fw.mp4	0.0	169.7759349346161	
20	117.75950407981873	pulse	1	t		18.0	2.5	/experiments/knapen_AOT/AOT_stimuli/rescaled_final/0789_fw.mp4	0.0	171.3763189315796	
20	117.87586498260498	fix_post	2		12	18.0	2.5	/experiments/knapen_AOT/AOT_stimuli/rescaled_final/0789_fw.mp4	0.0	171.49267983436584	0.10004305839538574
21	117.97590804100037	fix_pre	0		120	19.0	2.5	blank	1.0	171.59272289276123	1.0002129077911377
21	118.9761209487915	movie	1		299	19.0	2.5	blank	1.0	172.59293580055237	2.491962194442749
21	119.35963606834412	pulse	1	t		19.0	2.5	blank	1.0	172.97645092010498	
21	120.9598879814148	pulse	1	t		19.0	2.5	blank	1.0	174.57670283317566	
21	121.46808314323425	fix_post	2		12	19.0	2.5	blank	1.0	175.08489799499512	0.10001587867736816
22	121.56809902191162	fix_pre	0		120	20.0	2.5	/experiments/knapen_AOT/AOT_stimuli/rescaled_final/2131_rv.mp4	0.0	175.18491387367249	1.0001749992370605
22	122.56008410453796	pulse	0	t		20.0	2.5	/experiments/knapen_AOT/AOT_stimuli/rescaled_final/2131_rv.mp4	0.0	176.17689895629883	
22	122.56827402114868	movie	1		245	20.0	2.5	/experiments/knapen_AOT/AOT_stimuli/rescaled_final/2131_rv.mp4	0.0	176.18508887290955	2.5086750984191895
22	124.16092300415039	pulse	1	t		20.0	2.5	/experiments/knapen_AOT/AOT_stimuli/rescaled_final/2131_rv.mp4	0.0	177.77773785591125	
22	125.07694911956787	fix_post	2		12	20.0	2.5	/experiments/knapen_AOT/AOT_stimuli/rescaled_final/2131_rv.mp4	0.0	178.69376397132874	0.10003900527954102
23	125.17698812484741	fix_pre	0		120	21.0	2.5	/experiments/knapen_AOT/AOT_stimuli/rescaled_final/1233_rv.mp4	0.0	178.79380297660828	1.000302791595459
23	125.76066303253174	pulse	0	t		21.0	2.5	/experiments/knapen_AOT/AOT_stimuli/rescaled_final/1233_rv.mp4	0.0	179.3774778842926	
23	126.17729091644287	movie	1		244	21.0	2.5	/experiments/knapen_AOT/AOT_stimuli/rescaled_final/1233_rv.mp4	0.0	179.79410576820374	2.500200033187866
23	127.36093997955322	pulse	1	t		21.0	2.5	/experiments/knapen_AOT/AOT_stimuli/rescaled_final/1233_rv.mp4	0.0	180.9777548313141	
23	128.67749094963074	fix_post	2		12	21.0	2.5	/experiments/knapen_AOT/AOT_stimuli/rescaled_final/1233_rv.mp4	0.0	182.2943058013916	0.100006103515625
24	128.77749705314636	fix_pre	0		120	22.0	2.5	/experiments/knapen_AOT/AOT_stimuli/rescaled_final/1663_rv.mp4	0.0	182.39431190490723	1.0001509189605713
24	128.96103501319885	pulse	0	t		22.0	2.5	/experiments/knapen_AOT/AOT_stimuli/rescaled_final/1663_rv.mp4	0.0	182.57784986495972	
24	129.77764797210693	movie	1		244	22.0	2.5	/experiments/knapen_AOT/AOT_stimuli/rescaled_final/1663_rv.mp4	0.0	183.3944628238678	2.5003421306610107
24	130.56133198738098	pulse	1	t		22.0	2.5	/experiments/knapen_AOT/AOT_stimuli/rescaled_final/1663_rv.mp4	0.0	184.17814683914185	
24	132.16154193878174	pulse	1	t		22.0	2.5	/experiments/knapen_AOT/AOT_stimuli/rescaled_final/1663_rv.mp4	0.0	185.7783567905426	
24	132.27799010276794	fix_post	2		12	22.0	2.5	/experiments/knapen_AOT/AOT_stimuli/rescaled_final/1663_rv.mp4	0.0	185.8948049545288	0.1000518798828125
25	132.37804198265076	fix_pre	0		117	23.0	2.5	/experiments/knapen_AOT/AOT_stimuli/rescaled_final/1952_rv.mp4	0.0	185.99485683441162	1.0001411437988281
25	133.37818312644958	movie	1		243	23.0	2.5	/experiments/knapen_AOT/AOT_stimuli/rescaled_final/1952_rv.mp4	0.0	186.99499797821045	2.492249011993408
25	133.7623109817505	pulse	1	t		23.0	2.5	/experiments/knapen_AOT/AOT_stimuli/rescaled_final/1952_rv.mp4	0.0	187.37912583351135	
25	135.36214113235474	pulse	1	t		23.0	2.5	/experiments/knapen_AOT/AOT_stimuli/rescaled_final/1952_rv.mp4	0.0	188.9789559841156	
25	135.870432138443	fix_post	2		12	23.0	2.5	/experiments/knapen_AOT/AOT_stimuli/rescaled_final/1952_rv.mp4	0.0	189.48724699020386	0.09983277320861816
26	135.9702649116516	fix_pre	0		120	24.0	2.5	/experiments/knapen_AOT/AOT_stimuli/rescaled_final/1470_rv.mp4	0.0	189.58707976341248	1.0001771450042725
26	136.96224212646484	pulse	0	t		24.0	2.5	/experiments/knapen_AOT/AOT_stimuli/rescaled_final/1470_rv.mp4	0.0	190.5790569782257	
26	136.97044205665588	movie	1		245	24.0	2.5	/experiments/knapen_AOT/AOT_stimuli/rescaled_final/1470_rv.mp4	0.0	190.58725690841675	2.5086300373077393
26	138.56365704536438	pulse	1	t		24.0	2.5	/experiments/knapen_AOT/AOT_stimuli/rescaled_final/1470_rv.mp4	0.0	192.18047189712524	
26	139.47907209396362	fix_post	2		12	24.0	2.5	/experiments/knapen_AOT/AOT_stimuli/rescaled_final/1470_rv.mp4	0.0	193.0958869457245	0.10001993179321289
27	139.57909202575684	fix_pre	0		120	25.0	2.5	/experiments/knapen_AOT/AOT_stimuli/rescaled_final/0813_fw.mp4	0.0	193.1959068775177	1.0002069473266602
27	140.15531992912292	pulse	0	t		25.0	2.5	/experiments/knapen_AOT/AOT_stimuli/rescaled_final/0813_fw.mp4	0.0	193.7721347808838	
27	140.5792989730835	movie	1		244	25.0	2.5	/experiments/knapen_AOT/AOT_stimuli/rescaled_final/0813_fw.mp4	0.0	194.19611382484436	2.5004050731658936
27	141.7556610107422	pulse	1	t		25.0	2.5	/experiments/knapen_AOT/AOT_stimuli/rescaled_final/0813_fw.mp4	0.0	195.37247586250305	
27	143.0797040462494	fix_post	2		12	25.0	2.5	/experiments/knapen_AOT/AOT_stimuli/rescaled_final/0813_fw.mp4	0.0	196.69651889801025	0.09996795654296875
28	143.17967200279236	fix_pre	0		120	26.0	2.5	/experiments/knapen_AOT/AOT_stimuli/rescaled_final/0558_rv.mp4	0.0	196.79648685455322	1.0001449584960938
28	143.35559105873108	pulse	0	t		26.0	2.5	/experiments/knapen_AOT/AOT_stimuli/rescaled_final/0558_rv.mp4	0.0	196.97240591049194	
28	144.17981696128845	movie	1		244	26.0	2.5	/experiments/knapen_AOT/AOT_stimuli/rescaled_final/0558_rv.mp4	0.0	197.79663181304932	2.5003509521484375
28	144.9559829235077	pulse	1	t		26.0	2.5	/experiments/knapen_AOT/AOT_stimuli/rescaled_final/0558_rv.mp4	0.0	198.57279777526855	
28	146.55547308921814	pulse	1	t		26.0	2.5	/experiments/knapen_AOT/AOT_stimuli/rescaled_final/0558_rv.mp4	0.0	200.172287940979	
28	146.6801679134369	fix_post	2		12	26.0	2.5	/experiments/knapen_AOT/AOT_stimuli/rescaled_final/0558_rv.mp4	0.0	200.29698276519775	0.10007214546203613
29	146.78024005889893	fix_pre	0		120	27.0	2.5	/experiments/knapen_AOT/AOT_stimuli/rescaled_final/0069_fw.mp4	0.0	200.3970549106598	1.0001180171966553
29	147.78035807609558	movie	1		245	27.0	2.5	/experiments/knapen_AOT/AOT_stimuli/rescaled_final/0069_fw.mp4	0.0	201.39717292785645	2.492015838623047
29	148.1556580066681	pulse	1	t		27.0	2.5	/experiments/knapen_AOT/AOT_stimuli/rescaled_final/0069_fw.mp4	0.0	201.77247285842896	
29	149.75587701797485	pulse	1	t		27.0	2.5	/experiments/knapen_AOT/AOT_stimuli/rescaled_final/0069_fw.mp4	0.0	203.37269186973572	
29	150.27237391471863	fix_post	2		12	27.0	2.5	/experiments/knapen_AOT/AOT_stimuli/rescaled_final/0069_fw.mp4	0.0	203.8891887664795	0.10009312629699707
30	150.37246704101562	fix_pre	0		119	28.0	2.5	blank	1.0	203.9892818927765	0.9918138980865479
30	151.35604810714722	pulse	0	t		28.0	2.5	blank	1.0	204.97286295890808	
30	151.36428093910217	movie	1		301	28.0	2.5	blank	1.0	204.98109579086304	2.5086681842803955
30	152.95639491081238	pulse	1	t		28.0	2.5	blank	1.0	206.57320976257324	
30	153.87294912338257	fix_post	2		12	28.0	2.5	blank	1.0	207.48976397514343	0.10000491142272949
31	153.9729540348053	fix_pre	0		120	29.0	2.5	/experiments/knapen_AOT/AOT_stimuli/rescaled_final/1360_fw.mp4	0.0	207.58976888656616	1.000187873840332
31	154.5566749572754	pulse	0	t		29.0	2.5	/experiments/knapen_AOT/AOT_stimuli/rescaled_final/1360_fw.mp4	0.0	208.17348980903625	
31	154.97314190864563	movie	1		244	29.0	2.5	/experiments/knapen_AOT/AOT_stimuli/rescaled_final/1360_fw.mp4	0.0	208.5899567604065	2.5003252029418945
31	156.15693712234497	pulse	1	t		29.0	2.5	/experiments/knapen_AOT/AOT_stimuli/rescaled_final/1360_fw.mp4	0.0	209.77375197410583	
31	157.47346711158752	fix_post	2		12	29.0	2.5	/experiments/knapen_AOT/AOT_stimuli/rescaled_final/1360_fw.mp4	0.0	211.0902819633484	0.10004091262817383
32	157.5735080242157	fix_pre	0		120	30.0	2.5	/experiments/knapen_AOT/AOT_stimuli/rescaled_final/0479_fw.mp4	0.0	211.19032287597656	1.0001559257507324
32	157.75695896148682	pulse	0	t		30.0	2.5	/experiments/knapen_AOT/AOT_stimuli/rescaled_final/0479_fw.mp4	0.0	211.37377381324768	
32	158.57366394996643	movie	1		243	30.0	2.5	/experiments/knapen_AOT/AOT_stimuli/rescaled_final/0479_fw.mp4	0.0	212.1904788017273	2.5003411769866943
32	159.35740208625793	pulse	1	t		30.0	2.5	/experiments/knapen_AOT/AOT_stimuli/rescaled_final/0479_fw.mp4	0.0	212.9742169380188	
32	160.9572560787201	pulse	1	t		30.0	2.5	/experiments/knapen_AOT/AOT_stimuli/rescaled_final/0479_fw.mp4	0.0	214.57407093048096	
32	161.07400512695312	fix_post	2		12	30.0	2.5	/experiments/knapen_AOT/AOT_stimuli/rescaled_final/0479_fw.mp4	0.0	214.690819978714	0.10003280639648438
33	161.1740379333496	fix_pre	0		119	31.0	2.5	/experiments/knapen_AOT/AOT_stimuli/rescaled_final/0735_rv.mp4	0.0	214.79085278511047	0.991828203201294
33	162.1658661365509	movie	1		246	31.0	2.5	/experiments/knapen_AOT/AOT_stimuli/rescaled_final/0735_rv.mp4	0.0	215.78268098831177	2.5003299713134766
33	162.55788207054138	pulse	1	t		31.0	2.5	/experiments/knapen_AOT/AOT_stimuli/rescaled_final/0735_rv.mp4	0.0	216.17469692230225	
33	164.15796899795532	pulse	1	t		31.0	2.5	/experiments/knapen_AOT/AOT_stimuli/rescaled_final/0735_rv.mp4	0.0	217.7747838497162	
33	164.66619610786438	fix_post	2		12	31.0	2.5	/experiments/knapen_AOT/AOT_stimuli/rescaled_final/0735_rv.mp4	0.0	218.28301095962524	0.10005402565002441
34	164.7662501335144	fix_pre	0		120	32.0	2.5	/experiments/knapen_AOT/AOT_stimuli/rescaled_final/1286_fw.mp4	0.0	218.38306498527527	1.000199794769287
34	165.75826597213745	pulse	0	t		32.0	2.5	/experiments/knapen_AOT/AOT_stimuli/rescaled_final/1286_fw.mp4	0.0	219.37508082389832	
34	165.7664499282837	movie	1		246	32.0	2.5	/experiments/knapen_AOT/AOT_stimuli/rescaled_final/1286_fw.mp4	0.0	219.38326478004456	2.508650064468384
34	167.35883712768555	pulse	1	t		32.0	2.5	/experiments/knapen_AOT/AOT_stimuli/rescaled_final/1286_fw.mp4	0.0	220.9756519794464	
34	168.27509999275208	fix_post	2		12	32.0	2.5	/experiments/knapen_AOT/AOT_stimuli/rescaled_final/1286_fw.mp4	0.0	221.89191484451294	0.10000991821289062
35	168.37510991096497	fix_pre	0		120	33.0	2.5	blank	1.0	221.99192476272583	1.0001511573791504
35	168.95881605148315	pulse	0	t		33.0	2.5	blank	1.0	222.57563090324402	
35	169.37526106834412	movie	1		300	33.0	2.5	blank	1.0	222.99207592010498	2.500380039215088
35	170.5589439868927	pulse	1	t		33.0	2.5	blank	1.0	224.17575883865356	
35	171.8756411075592	fix_post	2		12	33.0	2.5	blank	1.0	225.49245595932007	0.10001301765441895
36	171.97565412521362	fix_pre	0		120	34.0	2.5	/experiments/knapen_AOT/AOT_stimuli/rescaled_final/0126_fw.mp4	0.0	225.5924689769745	1.0001308917999268
36	172.1591920852661	pulse	0	t		34.0	2.5	/experiments/knapen_AOT/AOT_stimuli/rescaled_final/0126_fw.mp4	0.0	225.77600693702698	
36	172.97578501701355	movie	1		243	34.0	2.5	/experiments/knapen_AOT/AOT_stimuli/rescaled_final/0126_fw.mp4	0.0	226.5925998687744	2.500339984893799
36	173.75948691368103	pulse	1	t		34.0	2.5	/experiments/knapen_AOT/AOT_stimuli/rescaled_final/0126_fw.mp4	0.0	227.3763017654419	
36	175.35950303077698	pulse	1	t		34.0	2.5	/experiments/knapen_AOT/AOT_stimuli/rescaled_final/0126_fw.mp4	0.0	228.97631788253784	
36	175.47612500190735	fix_post	2		12	34.0	2.5	/experiments/knapen_AOT/AOT_stimuli/rescaled_final/0126_fw.mp4	0.0	229.0929398536682	0.10002994537353516
37	175.57615494728088	fix_pre	0		120	35.0	2.5	/experiments/knapen_AOT/AOT_stimuli/rescaled_final/1770_fw.mp4	0.0	229.19296979904175	1.000162124633789
37	176.57631707191467	movie	1		242	35.0	2.5	/experiments/knapen_AOT/AOT_stimuli/rescaled_final/1770_fw.mp4	0.0	230.19313192367554	2.492064952850342
37	176.96136713027954	pulse	1	t		35.0	2.5	/experiments/knapen_AOT/AOT_stimuli/rescaled_final/1770_fw.mp4	0.0	230.5781819820404	
37	178.56020498275757	pulse	1	t		35.0	2.5	/experiments/knapen_AOT/AOT_stimuli/rescaled_final/1770_fw.mp4	0.0	232.17701983451843	
37	179.06838202476501	fix_post	2		12	35.0	2.5	/experiments/knapen_AOT/AOT_stimuli/rescaled_final/1770_fw.mp4	0.0	232.68519687652588	0.10003805160522461
38	179.16842007637024	fix_pre	0		120	36.0	2.5	/experiments/knapen_AOT/AOT_stimuli/rescaled_final/0612_rv.mp4	0.0	232.7852349281311	1.0001330375671387
38	180.1604380607605	pulse	0	t		36.0	2.5	/experiments/knapen_AOT/AOT_stimuli/rescaled_final/0612_rv.mp4	0.0	233.77725291252136	
38	180.16855311393738	movie	1		245	36.0	2.5	/experiments/knapen_AOT/AOT_stimuli/rescaled_final/0612_rv.mp4	0.0	233.78536796569824	2.508671998977661
38	181.76117300987244	pulse	1	t		36.0	2.5	/experiments/knapen_AOT/AOT_stimuli/rescaled_final/0612_rv.mp4	0.0	235.3779878616333	
38	182.67722511291504	fix_post	2		12	36.0	2.5	/experiments/knapen_AOT/AOT_stimuli/rescaled_final/0612_rv.mp4	0.0	236.2940399646759	0.10007691383361816
39	182.77730202674866	fix_pre	0		120	37.0	2.5	/experiments/knapen_AOT/AOT_stimuli/rescaled_final/0356_fw.mp4	0.0	236.39411687850952	1.0001189708709717
39	183.36080694198608	pulse	0	t		37.0	2.5	/experiments/knapen_AOT/AOT_stimuli/rescaled_final/0356_fw.mp4	0.0	236.97762179374695	
39	183.77742099761963	movie	1		244	37.0	2.5	/experiments/knapen_AOT/AOT_stimuli/rescaled_final/0356_fw.mp4	0.0	237.3942358493805	2.50032901763916
39	184.9612159729004	pulse	1	t		37.0	2.5	/experiments/knapen_AOT/AOT_stimuli/rescaled_final/0356_fw.mp4	0.0	238.57803082466125	
39	186.2777500152588	fix_post	2		12	37.0	2.5	/experiments/knapen_AOT/AOT_stimuli/rescaled_final/0356_fw.mp4	0.0	239.89456486701965	0.10001397132873535
40	186.37776398658752	fix_pre	0		120	38.0	2.5	/experiments/knapen_AOT/AOT_stimuli/rescaled_final/0321_fw.mp4	0.0	239.9945788383484	1.000201940536499
40	186.5613489151001	pulse	0	t		38.0	2.5	/experiments/knapen_AOT/AOT_stimuli/rescaled_final/0321_fw.mp4	0.0	240.17816376686096	
40	187.37796592712402	movie	1		244	38.0	2.5	/experiments/knapen_AOT/AOT_stimuli/rescaled_final/0321_fw.mp4	0.0	240.9947807788849	2.5003530979156494
40	188.1616370677948	pulse	1	t		38.0	2.5	/experiments/knapen_AOT/AOT_stimuli/rescaled_final/0321_fw.mp4	0.0	241.77845191955566	
40	189.76200604438782	pulse	1	t		38.0	2.5	/experiments/knapen_AOT/AOT_stimuli/rescaled_final/0321_fw.mp4	0.0	243.37882089614868	
40	189.87831902503967	fix_post	2		12	38.0	2.5	/experiments/knapen_AOT/AOT_stimuli/rescaled_final/0321_fw.mp4	0.0	243.49513387680054	0.10001397132873535
41	189.9783329963684	fix_pre	0		120	39.0	2.5	/experiments/knapen_AOT/AOT_stimuli/rescaled_final/1812_rv.mp4	0.0	243.59514784812927	1.0001671314239502
41	190.97850012779236	movie	1		243	39.0	2.5	/experiments/knapen_AOT/AOT_stimuli/rescaled_final/1812_rv.mp4	0.0	244.59531497955322	2.4920578002929688
41	191.36275792121887	pulse	1	t		39.0	2.5	/experiments/knapen_AOT/AOT_stimuli/rescaled_final/1812_rv.mp4	0.0	244.97957277297974	
41	192.9550440311432	pulse	1	t		39.0	2.5	/experiments/knapen_AOT/AOT_stimuli/rescaled_final/1812_rv.mp4	0.0	246.57185888290405	
41	193.47055792808533	fix_post	2		12	39.0	2.5	/experiments/knapen_AOT/AOT_stimuli/rescaled_final/1812_rv.mp4	0.0	247.0873727798462	0.10024714469909668
42	193.57080507278442	fix_pre	0		117	40.0	2.5	/experiments/knapen_AOT/AOT_stimuli/rescaled_final/1362_rv.mp4	0.0	247.1876199245453	0.9998760223388672
42	194.55509901046753	pulse	0	t		40.0	2.5	/experiments/knapen_AOT/AOT_stimuli/rescaled_final/1362_rv.mp4	0.0	248.1719138622284	
42	194.5706810951233	movie	1		245	40.0	2.5	/experiments/knapen_AOT/AOT_stimuli/rescaled_final/1362_rv.mp4	0.0	248.18749594688416	2.508704900741577
42	196.16773200035095	pulse	1	t		40.0	2.5	/experiments/knapen_AOT/AOT_stimuli/rescaled_final/1362_rv.mp4	0.0	249.78454685211182	
42	197.07938599586487	fix_post	2		12	40.0	2.5	/experiments/knapen_AOT/AOT_stimuli/rescaled_final/1362_rv.mp4	0.0	250.69620084762573	0.10002803802490234
43	197.17941403388977	fix_pre	0		120	41.0	2.5	/experiments/knapen_AOT/AOT_stimuli/rescaled_final/1647_fw.mp4	0.0	250.79622888565063	1.0001730918884277
43	197.7554109096527	pulse	0	t		41.0	2.5	/experiments/knapen_AOT/AOT_stimuli/rescaled_final/1647_fw.mp4	0.0	251.37222576141357	
43	198.1795871257782	movie	1		244	41.0	2.5	/experiments/knapen_AOT/AOT_stimuli/rescaled_final/1647_fw.mp4	0.0	251.79640197753906	2.5003509521484375
43	199.35608911514282	pulse	1	t		41.0	2.5	/experiments/knapen_AOT/AOT_stimuli/rescaled_final/1647_fw.mp4	0.0	252.9729039669037	
43	200.67993807792664	fix_post	2		12	41.0	2.5	/experiments/knapen_AOT/AOT_stimuli/rescaled_final/1647_fw.mp4	0.0	254.2967529296875	0.10001897811889648
44	200.77995705604553	fix_pre	0		120	42.0	2.5	blank	1.0	254.3967719078064	1.000128984451294
44	200.95513200759888	pulse	0	t		42.0	2.5	blank	1.0	254.57194685935974	
44	201.78008604049683	movie	1		300	42.0	2.5	blank	1.0	255.3969008922577	2.5003480911254883
44	202.55536913871765	pulse	1	t		42.0	2.5	blank	1.0	256.1721839904785	
44	204.15561199188232	pulse	1	t		42.0	2.5	blank	1.0	257.7724268436432	
44	204.28043413162231	fix_post	2		12	42.0	2.5	blank	1.0	257.8972489833832	0.10004377365112305
45	204.38047790527344	fix_pre	0		119	43.0	2.5	/experiments/knapen_AOT/AOT_stimuli/rescaled_final/0345_fw.mp4	0.0	257.9972927570343	0.9918060302734375
45	205.37228393554688	movie	1		243	43.0	2.5	/experiments/knapen_AOT/AOT_stimuli/rescaled_final/0345_fw.mp4	0.0	258.98909878730774	2.5004031658172607
45	205.75653100013733	pulse	1	t		43.0	2.5	/experiments/knapen_AOT/AOT_stimuli/rescaled_final/0345_fw.mp4	0.0	259.3733458518982	
45	207.35611510276794	pulse	1	t		43.0	2.5	/experiments/knapen_AOT/AOT_stimuli/rescaled_final/0345_fw.mp4	0.0	260.9729299545288	
45	207.87268710136414	fix_post	2		12	43.0	2.5	/experiments/knapen_AOT/AOT_stimuli/rescaled_final/0345_fw.mp4	0.0	261.489501953125	0.09997987747192383
46	207.97266697883606	fix_pre	0		119	44.0	2.5	/experiments/knapen_AOT/AOT_stimuli/rescaled_final/1463_fw.mp4	0.0	261.5894818305969	0.9919109344482422
46	208.95638513565063	pulse	0	t		44.0	2.5	/experiments/knapen_AOT/AOT_stimuli/rescaled_final/1463_fw.mp4	0.0	262.5731999874115	
46	208.9645779132843	movie	1		245	44.0	2.5	/experiments/knapen_AOT/AOT_stimuli/rescaled_final/1463_fw.mp4	0.0	262.58139276504517	2.508596181869507
46	210.55718612670898	pulse	1	t		44.0	2.5	/experiments/knapen_AOT/AOT_stimuli/rescaled_final/1463_fw.mp4	0.0	264.17400097846985	
46	211.4731740951538	fix_post	2		12	44.0	2.5	/experiments/knapen_AOT/AOT_stimuli/rescaled_final/1463_fw.mp4	0.0	265.0899889469147	0.1000678539276123
47	211.57324194908142	fix_pre	0		120	45.0	2.5	/experiments/knapen_AOT/AOT_stimuli/rescaled_final/1647_rv.mp4	0.0	265.1900568008423	1.0001521110534668
47	212.1568500995636	pulse	0	t		45.0	2.5	/experiments/knapen_AOT/AOT_stimuli/rescaled_final/1647_rv.mp4	0.0	265.77366495132446	
47	212.5733940601349	movie	1		244	45.0	2.5	/experiments/knapen_AOT/AOT_stimuli/rescaled_final/1647_rv.mp4	0.0	266.19020891189575	2.500354051589966
47	213.75720596313477	pulse	1	t		45.0	2.5	/experiments/knapen_AOT/AOT_stimuli/rescaled_final/1647_rv.mp4	0.0	267.37402081489563	
47	215.07374811172485	fix_post	2		12	45.0	2.5	/experiments/knapen_AOT/AOT_stimuli/rescaled_final/1647_rv.mp4	0.0	268.6905629634857	0.10000395774841309
48	215.17375206947327	fix_pre	0		120	46.0	2.5	/experiments/knapen_AOT/AOT_stimuli/rescaled_final/1038_rv.mp4	0.0	268.79056692123413	1.0001909732818604
48	215.3573760986328	pulse	0	t		46.0	2.5	/experiments/knapen_AOT/AOT_stimuli/rescaled_final/1038_rv.mp4	0.0	268.9741909503937	
48	216.17394304275513	movie	1		243	46.0	2.5	/experiments/knapen_AOT/AOT_stimuli/rescaled_final/1038_rv.mp4	0.0	269.790757894516	2.5003280639648438
48	216.95763611793518	pulse	1	t		46.0	2.5	/experiments/knapen_AOT/AOT_stimuli/rescaled_final/1038_rv.mp4	0.0	270.57445096969604	
48	218.5576629638672	pulse	1	t		46.0	2.5	/experiments/knapen_AOT/AOT_stimuli/rescaled_final/1038_rv.mp4	0.0	272.17447781562805	
48	218.67427110671997	fix_post	2		12	46.0	2.5	/experiments/knapen_AOT/AOT_stimuli/rescaled_final/1038_rv.mp4	0.0	272.29108595848083	0.10001587867736816
49	218.77428698539734	fix_pre	0		120	47.0	2.5	blank	1.0	272.3911018371582	1.0002570152282715
49	219.7745440006256	movie	1		299	47.0	2.5	blank	1.0	273.3913588523865	2.49194598197937
49	220.1579830646515	pulse	1	t		47.0	2.5	blank	1.0	273.77479791641235	
49	221.75834393501282	pulse	1	t		47.0	2.5	blank	1.0	275.3751587867737	
49	222.26648998260498	fix_post	2		12	47.0	2.5	blank	1.0	275.88330483436584	0.10000896453857422
50	222.36649894714355	fix_pre	0		120	48.0	2.5	/experiments/knapen_AOT/AOT_stimuli/rescaled_final/1525_rv.mp4	0.0	275.9833137989044	1.0001449584960938
50	223.35865306854248	pulse	0	t		48.0	2.5	/experiments/knapen_AOT/AOT_stimuli/rescaled_final/1525_rv.mp4	0.0	276.97546792030334	
50	223.36664390563965	movie	1		246	48.0	2.5	/experiments/knapen_AOT/AOT_stimuli/rescaled_final/1525_rv.mp4	0.0	276.9834587574005	2.5087380409240723
50	224.96009397506714	pulse	1	t		48.0	2.5	/experiments/knapen_AOT/AOT_stimuli/rescaled_final/1525_rv.mp4	0.0	278.576908826828	
50	225.87538194656372	fix_post	2		12	48.0	2.5	/experiments/knapen_AOT/AOT_stimuli/rescaled_final/1525_rv.mp4	0.0	279.4921967983246	0.09999418258666992
51	225.9753761291504	fix_pre	0		120	49.0	2.5	/experiments/knapen_AOT/AOT_stimuli/rescaled_final/0608_rv.mp4	0.0	279.59219098091125	1.000182867050171
51	226.5589439868927	pulse	0	t		49.0	2.5	/experiments/knapen_AOT/AOT_stimuli/rescaled_final/0608_rv.mp4	0.0	280.17575883865356	
51	226.97555899620056	movie	1		244	49.0	2.5	/experiments/knapen_AOT/AOT_stimuli/rescaled_final/0608_rv.mp4	0.0	280.5923738479614	2.500304937362671
51	228.1594431400299	pulse	1	t		49.0	2.5	/experiments/knapen_AOT/AOT_stimuli/rescaled_final/0608_rv.mp4	0.0	281.77625799179077	
51	229.47586393356323	fix_post	2		12	49.0	2.5	/experiments/knapen_AOT/AOT_stimuli/rescaled_final/0608_rv.mp4	0.0	283.0926787853241	0.10002613067626953
52	229.5758900642395	fix_pre	0		120	50.0	2.5	/experiments/knapen_AOT/AOT_stimuli/rescaled_final/0964_fw.mp4	0.0	283.19270491600037	1.0001659393310547
52	229.75960397720337	pulse	0	t		50.0	2.5	/experiments/knapen_AOT/AOT_stimuli/rescaled_final/0964_fw.mp4	0.0	283.37641882896423	
52	230.57605600357056	movie	1		244	50.0	2.5	/experiments/knapen_AOT/AOT_stimuli/rescaled_final/0964_fw.mp4	0.0	284.1928708553314	2.500433921813965
52	231.35993599891663	pulse	1	t		50.0	2.5	/experiments/knapen_AOT/AOT_stimuli/rescaled_final/0964_fw.mp4	0.0	284.9767508506775	
52	232.96234512329102	pulse	1	t		50.0	2.5	/experiments/knapen_AOT/AOT_stimuli/rescaled_final/0964_fw.mp4	0.0	286.5791599750519	
52	233.07648992538452	fix_post	2		12	50.0	2.5	/experiments/knapen_AOT/AOT_stimuli/rescaled_final/0964_fw.mp4	0.0	286.6933047771454	0.0999600887298584
53	233.17645001411438	fix_pre	0		120	51.0	2.5	/experiments/knapen_AOT/AOT_stimuli/rescaled_final/1952_fw.mp4	0.0	286.79326486587524	1.000154972076416
53	234.1766049861908	movie	1		244	51.0	2.5	/experiments/knapen_AOT/AOT_stimuli/rescaled_final/1952_fw.mp4	0.0	287.79341983795166	2.4920310974121094
53	234.56426405906677	pulse	1	t		51.0	2.5	/experiments/knapen_AOT/AOT_stimuli/rescaled_final/1952_fw.mp4	0.0	288.18107891082764	
53	236.16053414344788	pulse	1	t		51.0	2.5	/experiments/knapen_AOT/AOT_stimuli/rescaled_final/1952_fw.mp4	0.0	289.77734899520874	
53	236.6686360836029	fix_post	2		12	51.0	2.5	/experiments/knapen_AOT/AOT_stimuli/rescaled_final/1952_fw.mp4	0.0	290.28545093536377	0.10000991821289062
54	236.7686460018158	fix_pre	0		120	52.0	2.5	/experiments/knapen_AOT/AOT_stimuli/rescaled_final/1569_rv.mp4	0.0	290.38546085357666	1.000133991241455
54	237.7607080936432	pulse	0	t		52.0	2.5	/experiments/knapen_AOT/AOT_stimuli/rescaled_final/1569_rv.mp4	0.0	291.37752294540405	
54	237.76877999305725	movie	1		245	52.0	2.5	/experiments/knapen_AOT/AOT_stimuli/rescaled_final/1569_rv.mp4	0.0	291.3855948448181	2.508708953857422
54	239.36573195457458	pulse	1	t		52.0	2.5	/experiments/knapen_AOT/AOT_stimuli/rescaled_final/1569_rv.mp4	0.0	292.98254680633545	
54	240.27748894691467	fix_post	2		12	52.0	2.5	/experiments/knapen_AOT/AOT_stimuli/rescaled_final/1569_rv.mp4	0.0	293.89430379867554	0.10004711151123047
55	240.3775360584259	fix_pre	0		120	53.0	2.5	/experiments/knapen_AOT/AOT_stimuli/rescaled_final/1839_fw.mp4	0.0	293.99435091018677	1.0001449584960938
55	240.9610710144043	pulse	0	t		53.0	2.5	/experiments/knapen_AOT/AOT_stimuli/rescaled_final/1839_fw.mp4	0.0	294.57788586616516	
55	241.377681016922	movie	1		244	53.0	2.5	/experiments/knapen_AOT/AOT_stimuli/rescaled_final/1839_fw.mp4	0.0	294.99449586868286	2.5003979206085205
55	242.5615029335022	pulse	1	t		53.0	2.5	/experiments/knapen_AOT/AOT_stimuli/rescaled_final/1839_fw.mp4	0.0	296.17831778526306	
55	243.87807893753052	fix_post	2		12	53.0	2.5	/experiments/knapen_AOT/AOT_stimuli/rescaled_final/1839_fw.mp4	0.0	297.4948937892914	0.09998202323913574
56	243.97806096076965	fix_pre	0		120	54.0	2.5	/experiments/knapen_AOT/AOT_stimuli/rescaled_final/1132_fw.mp4	0.0	297.5948758125305	1.00018310546875
56	244.16162490844727	pulse	0	t		54.0	2.5	/experiments/knapen_AOT/AOT_stimuli/rescaled_final/1132_fw.mp4	0.0	297.77843976020813	
56	244.9782440662384	movie	1		245	54.0	2.5	/experiments/knapen_AOT/AOT_stimuli/rescaled_final/1132_fw.mp4	0.0	298.59505891799927	2.5003628730773926
56	245.76197600364685	pulse	1	t		54.0	2.5	/experiments/knapen_AOT/AOT_stimuli/rescaled_final/1132_fw.mp4	0.0	299.3787908554077	
56	247.3595860004425	pulse	1	t		54.0	2.5	/experiments/knapen_AOT/AOT_stimuli/rescaled_final/1132_fw.mp4	0.0	300.97640085220337	
56	247.4786069393158	fix_post	2		12	54.0	2.5	/experiments/knapen_AOT/AOT_stimuli/rescaled_final/1132_fw.mp4	0.0	301.09542179107666	0.10005712509155273
57	247.57866406440735	fix_pre	0		120	55.0	2.5	/experiments/knapen_AOT/AOT_stimuli/rescaled_final/1427_rv.mp4	0.0	301.1954789161682	1.000074863433838
57	248.5787389278412	movie	1		247	55.0	2.5	/experiments/knapen_AOT/AOT_stimuli/rescaled_final/1427_rv.mp4	0.0	302.19555377960205	2.492037057876587
57	248.96349501609802	pulse	1	t		55.0	2.5	/experiments/knapen_AOT/AOT_stimuli/rescaled_final/1427_rv.mp4	0.0	302.5803098678589	
57	250.5625400543213	pulse	1	t		55.0	2.5	/experiments/knapen_AOT/AOT_stimuli/rescaled_final/1427_rv.mp4	0.0	304.17935490608215	
57	251.07077598571777	fix_post	2		12	55.0	2.5	/experiments/knapen_AOT/AOT_stimuli/rescaled_final/1427_rv.mp4	0.0	304.68759083747864	0.10002613067626953
58	251.17080211639404	fix_pre	0		120	56.0	2.5	blank	1.0	304.7876169681549	1.000140905380249
58	252.1629319190979	pulse	0	t		56.0	2.5	blank	1.0	305.77974677085876	
58	252.1709430217743	movie	1		301	56.0	2.5	blank	1.0	305.78775787353516	2.5087320804595947
58	253.76300692558289	pulse	1	t		56.0	2.5	blank	1.0	307.37982177734375	
58	254.6796751022339	fix_post	2		12	56.0	2.5	blank	1.0	308.29648995399475	0.10000491142272949
59	254.77968001365662	fix_pre	0		120	57.0	2.5	/experiments/knapen_AOT/AOT_stimuli/rescaled_final/0422_fw.mp4	0.0	308.3964948654175	1.0001330375671387
59	255.3557620048523	pulse	0	t		57.0	2.5	/experiments/knapen_AOT/AOT_stimuli/rescaled_final/0422_fw.mp4	0.0	308.97257685661316	
59	255.77981305122375	movie	1		241	57.0	2.5	/experiments/knapen_AOT/AOT_stimuli/rescaled_final/0422_fw.mp4	0.0	309.3966279029846	2.500364065170288
59	256.9593069553375	pulse	1	t		57.0	2.5	/experiments/knapen_AOT/AOT_stimuli/rescaled_final/0422_fw.mp4	0.0	310.5761218070984	
59	258.28017711639404	fix_post	2		12	57.0	2.5	/experiments/knapen_AOT/AOT_stimuli/rescaled_final/0422_fw.mp4	0.0	311.8969919681549	0.1000368595123291
60	258.3802139759064	fix_pre	0		120	58.0	2.5	/experiments/knapen_AOT/AOT_stimuli/rescaled_final/1436_rv.mp4	0.0	311.99702882766724	1.000169038772583
60	258.5566201210022	pulse	0	t		58.0	2.5	/experiments/knapen_AOT/AOT_stimuli/rescaled_final/1436_rv.mp4	0.0	312.17343497276306	
60	259.38038301467896	movie	1		244	58.0	2.5	/experiments/knapen_AOT/AOT_stimuli/rescaled_final/1436_rv.mp4	0.0	312.9971978664398	2.5003440380096436
60	260.15669202804565	pulse	1	t		58.0	2.5	/experiments/knapen_AOT/AOT_stimuli/rescaled_final/1436_rv.mp4	0.0	313.7735068798065	
60	261.7559230327606	pulse	1	t		58.0	2.5	/experiments/knapen_AOT/AOT_stimuli/rescaled_final/1436_rv.mp4	0.0	315.3727378845215	
60	261.8807270526886	fix_post	2		12	58.0	2.5	/experiments/knapen_AOT/AOT_stimuli/rescaled_final/1436_rv.mp4	0.0	315.49754190444946	0.10001707077026367
61	261.98074412345886	fix_pre	0		120	59.0	2.5	/experiments/knapen_AOT/AOT_stimuli/rescaled_final/1157_rv.mp4	0.0	315.5975589752197	1.0001568794250488
61	262.9809010028839	movie	1		244	59.0	2.5	/experiments/knapen_AOT/AOT_stimuli/rescaled_final/1157_rv.mp4	0.0	316.5977158546448	2.492021083831787
61	263.3560791015625	pulse	1	t		59.0	2.5	/experiments/knapen_AOT/AOT_stimuli/rescaled_final/1157_rv.mp4	0.0	316.97289395332336	
61	264.9564459323883	pulse	1	t		59.0	2.5	/experiments/knapen_AOT/AOT_stimuli/rescaled_final/1157_rv.mp4	0.0	318.57326078414917	
61	265.4729220867157	fix_post	2		12	59.0	2.5	/experiments/knapen_AOT/AOT_stimuli/rescaled_final/1157_rv.mp4	0.0	319.08973693847656	0.10003089904785156
62	265.57295298576355	fix_pre	0		119	60.0	2.5	/experiments/knapen_AOT/AOT_stimuli/rescaled_final/0642_rv.mp4	0.0	319.1897678375244	0.9918830394744873
62	266.55659914016724	pulse	0	t		60.0	2.5	/experiments/knapen_AOT/AOT_stimuli/rescaled_final/0642_rv.mp4	0.0	320.1734139919281	
62	266.56483602523804	movie	1		244	60.0	2.5	/experiments/knapen_AOT/AOT_stimuli/rescaled_final/0642_rv.mp4	0.0	320.1816508769989	2.508636951446533
62	268.15732502937317	pulse	1	t		60.0	2.5	/experiments/knapen_AOT/AOT_stimuli/rescaled_final/0642_rv.mp4	0.0	321.77413988113403	
62	269.07347297668457	fix_post	2		12	60.0	2.5	/experiments/knapen_AOT/AOT_stimuli/rescaled_final/0642_rv.mp4	0.0	322.69028782844543	0.10001301765441895
63	269.173485994339	fix_pre	0		120	61.0	2.5	blank	1.0	322.79030084609985	1.0001780986785889
63	269.75712513923645	pulse	0	t		61.0	2.5	blank	1.0	323.3739399909973	
63	270.1736640930176	movie	1		300	61.0	2.5	blank	1.0	323.79047894477844	2.500382900238037
63	271.3574061393738	pulse	1	t		61.0	2.5	blank	1.0	324.97422099113464	
63	272.6740469932556	fix_post	2		12	61.0	2.5	blank	1.0	326.2908618450165	0.10001492500305176
64	272.77406191825867	fix_pre	0		120	62.0	2.5	/experiments/knapen_AOT/AOT_stimuli/rescaled_final/1242_rv.mp4	0.0	326.39087677001953	1.0001611709594727
64	272.9577069282532	pulse	0	t		62.0	2.5	/experiments/knapen_AOT/AOT_stimuli/rescaled_final/1242_rv.mp4	0.0	326.57452178001404	
64	273.77422308921814	movie	1		244	62.0	2.5	/experiments/knapen_AOT/AOT_stimuli/rescaled_final/1242_rv.mp4	0.0	327.391037940979	2.5004520416259766
64	274.5579059123993	pulse	1	t		62.0	2.5	/experiments/knapen_AOT/AOT_stimuli/rescaled_final/1242_rv.mp4	0.0	328.17472076416016	
64	276.1581461429596	pulse	1	t		62.0	2.5	/experiments/knapen_AOT/AOT_stimuli/rescaled_final/1242_rv.mp4	0.0	329.77496099472046	
64	276.2746751308441	fix_post	2		12	62.0	2.5	/experiments/knapen_AOT/AOT_stimuli/rescaled_final/1242_rv.mp4	0.0	329.891489982605	0.09990191459655762
65	276.3745770454407	fix_pre	0		120	63.0	2.5	/experiments/knapen_AOT/AOT_stimuli/rescaled_final/1379_rv.mp4	0.0	329.99139189720154	1.0001659393310547
65	277.37474298477173	movie	1		244	63.0	2.5	/experiments/knapen_AOT/AOT_stimuli/rescaled_final/1379_rv.mp4	0.0	330.9915578365326	2.4920029640197754
65	277.7588400840759	pulse	1	t		63.0	2.5	/experiments/knapen_AOT/AOT_stimuli/rescaled_final/1379_rv.mp4	0.0	331.3756549358368	
65	279.3585901260376	pulse	1	t		63.0	2.5	/experiments/knapen_AOT/AOT_stimuli/rescaled_final/1379_rv.mp4	0.0	332.97540497779846	
65	279.8667459487915	fix_post	2		12	63.0	2.5	/experiments/knapen_AOT/AOT_stimuli/rescaled_final/1379_rv.mp4	0.0	333.48356080055237	0.1000220775604248
66	279.96676802635193	fix_pre	0		120	64.0	2.5	/experiments/knapen_AOT/AOT_stimuli/rescaled_final/0947_rv.mp4	0.0	333.5835828781128	1.000140905380249
66	280.95884108543396	pulse	0	t		64.0	2.5	/experiments/knapen_AOT/AOT_stimuli/rescaled_final/0947_rv.mp4	0.0	334.5756559371948	
66	280.9669089317322	movie	1		245	64.0	2.5	/experiments/knapen_AOT/AOT_stimuli/rescaled_final/0947_rv.mp4	0.0	334.58372378349304	2.5087010860443115
66	282.5596990585327	pulse	1	t		64.0	2.5	/experiments/knapen_AOT/AOT_stimuli/rescaled_final/0947_rv.mp4	0.0	336.1765139102936	
66	283.4756100177765	fix_post	2		12	64.0	2.5	/experiments/knapen_AOT/AOT_stimuli/rescaled_final/0947_rv.mp4	0.0	337.09242486953735	0.10002493858337402
67	283.57563495635986	fix_pre	0		120	65.0	2.5	/experiments/knapen_AOT/AOT_stimuli/rescaled_final/1457_fw.mp4	0.0	337.1924498081207	1.0001821517944336
67	284.1593770980835	pulse	0	t		65.0	2.5	/experiments/knapen_AOT/AOT_stimuli/rescaled_final/1457_fw.mp4	0.0	337.77619194984436	
67	284.5758171081543	movie	1		244	65.0	2.5	/experiments/knapen_AOT/AOT_stimuli/rescaled_final/1457_fw.mp4	0.0	338.19263195991516	2.5003960132598877
67	285.7595810890198	pulse	1	t		65.0	2.5	/experiments/knapen_AOT/AOT_stimuli/rescaled_final/1457_fw.mp4	0.0	339.37639594078064	
67	287.0762131214142	fix_post	2		12	65.0	2.5	/experiments/knapen_AOT/AOT_stimuli/rescaled_final/1457_fw.mp4	0.0	340.69302797317505	0.10001397132873535
68	287.1762270927429	fix_pre	0		120	66.0	2.5	/experiments/knapen_AOT/AOT_stimuli/rescaled_final/0137_rv.mp4	0.0	340.7930419445038	1.0001118183135986
68	287.3597500324249	pulse	0	t		66.0	2.5	/experiments/knapen_AOT/AOT_stimuli/rescaled_final/0137_rv.mp4	0.0	340.9765648841858	
68	288.1763389110565	movie	1		243	66.0	2.5	/experiments/knapen_AOT/AOT_stimuli/rescaled_final/0137_rv.mp4	0.0	341.7931537628174	2.5004210472106934
68	288.9601891040802	pulse	1	t		66.0	2.5	/experiments/knapen_AOT/AOT_stimuli/rescaled_final/0137_rv.mp4	0.0	342.57700395584106	
68	290.56033301353455	pulse	1	t		66.0	2.5	/experiments/knapen_AOT/AOT_stimuli/rescaled_final/0137_rv.mp4	0.0	344.1771478652954	
68	290.6767599582672	fix_post	2		12	66.0	2.5	/experiments/knapen_AOT/AOT_stimuli/rescaled_final/0137_rv.mp4	0.0	344.2935748100281	0.09998798370361328
69	290.7767479419708	fix_pre	0		120	67.0	2.5	/experiments/knapen_AOT/AOT_stimuli/rescaled_final/1782_rv.mp4	0.0	344.3935627937317	1.0001301765441895
69	291.776878118515	movie	1		243	67.0	2.5	/experiments/knapen_AOT/AOT_stimuli/rescaled_final/1782_rv.mp4	0.0	345.3936929702759	2.492036819458008
69	292.16542196273804	pulse	1	t		67.0	2.5	/experiments/knapen_AOT/AOT_stimuli/rescaled_final/1782_rv.mp4	0.0	345.7822368144989	
69	293.76069593429565	pulse	1	t		67.0	2.5	/experiments/knapen_AOT/AOT_stimuli/rescaled_final/1782_rv.mp4	0.0	347.3775107860565	
69	294.268914937973	fix_post	2		12	67.0	2.5	/experiments/knapen_AOT/AOT_stimuli/rescaled_final/1782_rv.mp4	0.0	347.8857297897339	0.10005497932434082
70	294.36896991729736	fix_pre	0		120	68.0	2.5	blank	1.0	347.9857847690582	1.0001780986785889
70	295.3608889579773	pulse	0	t		68.0	2.5	blank	1.0	348.97770380973816	
70	295.36914801597595	movie	1		301	68.0	2.5	blank	1.0	348.9859628677368	2.5086491107940674
70	296.9613039493561	pulse	1	t		68.0	2.5	blank	1.0	350.57811880111694	
70	297.87779712677	fix_post	2		12	68.0	2.5	blank	1.0	351.4946119785309	0.09998893737792969
71	297.97778606414795	fix_pre	0		120	69.0	2.5	/experiments/knapen_AOT/AOT_stimuli/rescaled_final/1046_fw.mp4	0.0	351.5946009159088	1.0002219676971436
71	298.56154108047485	pulse	0	t		69.0	2.5	/experiments/knapen_AOT/AOT_stimuli/rescaled_final/1046_fw.mp4	0.0	352.1783559322357	
71	298.9780080318451	movie	1		243	69.0	2.5	/experiments/knapen_AOT/AOT_stimuli/rescaled_final/1046_fw.mp4	0.0	352.59482288360596	2.500375986099243
71	300.1618449687958	pulse	1	t		69.0	2.5	/experiments/knapen_AOT/AOT_stimuli/rescaled_final/1046_fw.mp4	0.0	353.77865982055664	
71	301.47838401794434	fix_post	2		12	69.0	2.5	/experiments/knapen_AOT/AOT_stimuli/rescaled_final/1046_fw.mp4	0.0	355.0951988697052	0.1000211238861084
72	301.57840514183044	fix_pre	0		120	70.0	2.5	/experiments/knapen_AOT/AOT_stimuli/rescaled_final/1207_rv.mp4	0.0	355.1952199935913	1.0001678466796875
72	301.7618601322174	pulse	0	t		70.0	2.5	/experiments/knapen_AOT/AOT_stimuli/rescaled_final/1207_rv.mp4	0.0	355.37867498397827	
72	302.57857298851013	movie	1		244	70.0	2.5	/experiments/knapen_AOT/AOT_stimuli/rescaled_final/1207_rv.mp4	0.0	356.195387840271	2.5002710819244385
72	303.36230206489563	pulse	1	t		70.0	2.5	/experiments/knapen_AOT/AOT_stimuli/rescaled_final/1207_rv.mp4	0.0	356.9791169166565	
72	304.9622449874878	pulse	1	t		70.0	2.5	/experiments/knapen_AOT/AOT_stimuli/rescaled_final/1207_rv.mp4	0.0	358.57905983924866	
72	305.07884407043457	fix_post	2		12	70.0	2.5	/experiments/knapen_AOT/AOT_stimuli/rescaled_final/1207_rv.mp4	0.0	358.69565892219543	0.10006403923034668
73	305.1789081096649	fix_pre	0		119	71.0	2.5	/experiments/knapen_AOT/AOT_stimuli/rescaled_final/0743_rv.mp4	0.0	358.7957229614258	0.9918129444122314
73	306.17072105407715	movie	1		245	71.0	2.5	/experiments/knapen_AOT/AOT_stimuli/rescaled_final/0743_rv.mp4	0.0	359.787535905838	2.500335931777954
73	306.56269812583923	pulse	1	t		71.0	2.5	/experiments/knapen_AOT/AOT_stimuli/rescaled_final/0743_rv.mp4	0.0	360.1795129776001	
73	308.155690908432	pulse	1	t		71.0	2.5	/experiments/knapen_AOT/AOT_stimuli/rescaled_final/0743_rv.mp4	0.0	361.77250576019287	
73	308.6710569858551	fix_post	2		12	71.0	2.5	/experiments/knapen_AOT/AOT_stimuli/rescaled_final/0743_rv.mp4	0.0	362.28787183761597	0.10012292861938477
74	308.7711799144745	fix_pre	0		120	72.0	2.5	/experiments/knapen_AOT/AOT_stimuli/rescaled_final/0321_rv.mp4	0.0	362.38799476623535	1.0001490116119385
74	309.7555310726166	pulse	0	t		72.0	2.5	/experiments/knapen_AOT/AOT_stimuli/rescaled_final/0321_rv.mp4	0.0	363.37234592437744	
74	309.7713289260864	movie	1		245	72.0	2.5	/experiments/knapen_AOT/AOT_stimuli/rescaled_final/0321_rv.mp4	0.0	363.3881437778473	2.5086162090301514
74	311.36375093460083	pulse	1	t		72.0	2.5	/experiments/knapen_AOT/AOT_stimuli/rescaled_final/0321_rv.mp4	0.0	364.9805657863617	
74	312.2799451351166	fix_post	2		12	72.0	2.5	/experiments/knapen_AOT/AOT_stimuli/rescaled_final/0321_rv.mp4	0.0	365.89675998687744	0.10002279281616211
75	312.37996792793274	fix_pre	0		120	73.0	2.5	/experiments/knapen_AOT/AOT_stimuli/rescaled_final/1362_rv.mp4	0.0	365.9967827796936	1.000148057937622
75	312.95610308647156	pulse	0	t		73.0	2.5	/experiments/knapen_AOT/AOT_stimuli/rescaled_final/1362_rv.mp4	0.0	366.5729179382324	
75	313.38011598587036	movie	1		243	73.0	2.5	/experiments/knapen_AOT/AOT_stimuli/rescaled_final/1362_rv.mp4	0.0	366.9969308376312	2.500359058380127
75	314.55583810806274	pulse	1	t		73.0	2.5	/experiments/knapen_AOT/AOT_stimuli/rescaled_final/1362_rv.mp4	0.0	368.1726529598236	
75	315.8804750442505	fix_post	2		11	73.0	2.5	/experiments/knapen_AOT/AOT_stimuli/rescaled_final/1362_rv.mp4	0.0	369.49728989601135	0.10004186630249023
76	315.980516910553	fix_pre	0		120	74.0	2.5	/experiments/knapen_AOT/AOT_stimuli/rescaled_final/0167_fw.mp4	0.0	369.59733176231384	1.0001351833343506
76	316.1557869911194	pulse	0	t		74.0	2.5	/experiments/knapen_AOT/AOT_stimuli/rescaled_final/0167_fw.mp4	0.0	369.77260184288025	
76	316.98065209388733	movie	1		242	74.0	2.5	/experiments/knapen_AOT/AOT_stimuli/rescaled_final/0167_fw.mp4	0.0	370.5974669456482	2.4920270442962646
76	317.75585293769836	pulse	1	t		74.0	2.5	/experiments/knapen_AOT/AOT_stimuli/rescaled_final/0167_fw.mp4	0.0	371.37266778945923	
76	319.3562641143799	pulse	1	t		74.0	2.5	/experiments/knapen_AOT/AOT_stimuli/rescaled_final/0167_fw.mp4	0.0	372.97307896614075	
76	319.4726791381836	fix_post	2		12	74.0	2.5	/experiments/knapen_AOT/AOT_stimuli/rescaled_final/0167_fw.mp4	0.0	373.08949398994446	0.10003185272216797
77	319.57271099090576	fix_pre	0		120	75.0	2.5	/experiments/knapen_AOT/AOT_stimuli/rescaled_final/1580_rv.mp4	0.0	373.1895258426666	1.0001659393310547
77	320.5728769302368	movie	1		244	75.0	2.5	/experiments/knapen_AOT/AOT_stimuli/rescaled_final/1580_rv.mp4	0.0	374.1896917819977	2.500336170196533
77	320.9574599266052	pulse	1	t		75.0	2.5	/experiments/knapen_AOT/AOT_stimuli/rescaled_final/1580_rv.mp4	0.0	374.5742747783661	
77	322.5567479133606	pulse	1	t		75.0	2.5	/experiments/knapen_AOT/AOT_stimuli/rescaled_final/1580_rv.mp4	0.0	376.17356276512146	
77	323.07321310043335	fix_post	2		12	75.0	2.5	/experiments/knapen_AOT/AOT_stimuli/rescaled_final/1580_rv.mp4	0.0	376.6900279521942	0.10002398490905762
78	323.1732370853424	fix_pre	0		119	76.0	2.5	blank	1.0	376.79005193710327	0.9918479919433594
78	324.1568489074707	pulse	0	t		76.0	2.5	blank	1.0	377.77366375923157	
78	324.16508507728577	movie	1		301	76.0	2.5	blank	1.0	377.78189992904663	2.5086779594421387
78	325.7571051120758	pulse	1	t		76.0	2.5	blank	1.0	379.37391996383667	
78	326.6737630367279	fix_post	2		12	76.0	2.5	blank	1.0	380.29057788848877	0.09999799728393555
79	326.77376103401184	fix_pre	0		120	77.0	2.5	/experiments/knapen_AOT/AOT_stimuli/rescaled_final/2061_fw.mp4	0.0	380.3905758857727	1.0001699924468994
79	327.3575141429901	pulse	0	t		77.0	2.5	/experiments/knapen_AOT/AOT_stimuli/rescaled_final/2061_fw.mp4	0.0	380.974328994751	
79	327.77393102645874	movie	1		243	77.0	2.5	/experiments/knapen_AOT/AOT_stimuli/rescaled_final/2061_fw.mp4	0.0	381.3907458782196	2.500369071960449
79	328.95785307884216	pulse	1	t		77.0	2.5	/experiments/knapen_AOT/AOT_stimuli/rescaled_final/2061_fw.mp4	0.0	382.574667930603	
79	330.2743000984192	fix_post	2		12	77.0	2.5	/experiments/knapen_AOT/AOT_stimuli/rescaled_final/2061_fw.mp4	0.0	383.89111495018005	0.10006284713745117
80	330.37436294555664	fix_pre	0		120	78.0	2.5	/experiments/knapen_AOT/AOT_stimuli/rescaled_final/1578_fw.mp4	0.0	383.9911777973175	1.000176191329956
80	330.55785393714905	pulse	0	t		78.0	2.5	/experiments/knapen_AOT/AOT_stimuli/rescaled_final/1578_fw.mp4	0.0	384.1746687889099	
80	331.3745391368866	movie	1		247	78.0	2.5	/experiments/knapen_AOT/AOT_stimuli/rescaled_final/1578_fw.mp4	0.0	384.99135398864746	2.500281810760498
80	332.1580550670624	pulse	1	t		78.0	2.5	/experiments/knapen_AOT/AOT_stimuli/rescaled_final/1578_fw.mp4	0.0	385.77486991882324	
80	333.7584719657898	pulse	1	t		78.0	2.5	/experiments/knapen_AOT/AOT_stimuli/rescaled_final/1578_fw.mp4	0.0	387.37528681755066	
80	333.8748209476471	fix_post	2		12	78.0	2.5	/experiments/knapen_AOT/AOT_stimuli/rescaled_final/1578_fw.mp4	0.0	387.49163579940796	0.10001516342163086
81	333.9748361110687	fix_pre	0		119	79.0	2.5	/experiments/knapen_AOT/AOT_stimuli/rescaled_final/0612_fw.mp4	0.0	387.5916509628296	0.9918689727783203
81	334.96670508384705	movie	1		244	79.0	2.5	/experiments/knapen_AOT/AOT_stimuli/rescaled_final/0612_fw.mp4	0.0	388.5835199356079	2.5003130435943604
81	335.3586800098419	pulse	1	t		79.0	2.5	/experiments/knapen_AOT/AOT_stimuli/rescaled_final/0612_fw.mp4	0.0	388.9754948616028	
81	336.95885491371155	pulse	1	t		79.0	2.5	/experiments/knapen_AOT/AOT_stimuli/rescaled_final/0612_fw.mp4	0.0	390.5756697654724	
81	337.4670181274414	fix_post	2		12	79.0	2.5	/experiments/knapen_AOT/AOT_stimuli/rescaled_final/0612_fw.mp4	0.0	391.08383297920227	0.10005879402160645
82	337.567076921463	fix_pre	0		120	80.0	2.5	/experiments/knapen_AOT/AOT_stimuli/rescaled_final/0475_fw.mp4	0.0	391.1838917732239	1.0001261234283447
82	338.5590500831604	pulse	0	t		80.0	2.5	/experiments/knapen_AOT/AOT_stimuli/rescaled_final/0475_fw.mp4	0.0	392.17586493492126	
82	338.56720304489136	movie	1		244	80.0	2.5	/experiments/knapen_AOT/AOT_stimuli/rescaled_final/0475_fw.mp4	0.0	392.1840178966522	2.5087718963623047
82	340.16381192207336	pulse	1	t		80.0	2.5	/experiments/knapen_AOT/AOT_stimuli/rescaled_final/0475_fw.mp4	0.0	393.78062677383423	
82	341.07597494125366	fix_post	2		12	80.0	2.5	/experiments/knapen_AOT/AOT_stimuli/rescaled_final/0475_fw.mp4	0.0	394.6927897930145	0.09997320175170898
83	341.17594814300537	fix_pre	0		120	81.0	2.5	/experiments/knapen_AOT/AOT_stimuli/rescaled_final/1333_rv.mp4	0.0	394.79276299476624	1.0001487731933594
83	341.7597019672394	pulse	0	t		81.0	2.5	/experiments/knapen_AOT/AOT_stimuli/rescaled_final/1333_rv.mp4	0.0	395.37651681900024	
83	342.17609691619873	movie	1		245	81.0	2.5	/experiments/knapen_AOT/AOT_stimuli/rescaled_final/1333_rv.mp4	0.0	395.7929117679596	2.5004501342773438
83	343.3599100112915	pulse	1	t		81.0	2.5	/experiments/knapen_AOT/AOT_stimuli/rescaled_final/1333_rv.mp4	0.0	396.97672486305237	
83	344.6765470504761	fix_post	2		12	81.0	2.5	/experiments/knapen_AOT/AOT_stimuli/rescaled_final/1333_rv.mp4	0.0	398.29336190223694	0.09993100166320801
84	344.7764780521393	fix_pre	0		120	82.0	2.5	blank	1.0	398.39329290390015	1.0001709461212158
84	344.9600100517273	pulse	0	t		82.0	2.5	blank	1.0	398.57682490348816	
84	345.7766489982605	movie	1		300	82.0	2.5	blank	1.0	399.39346385002136	2.5003581047058105
84	346.56026697158813	pulse	1	t		82.0	2.5	blank	1.0	400.177081823349	
84	348.1606340408325	pulse	1	t		82.0	2.5	blank	1.0	401.7774488925934	
84	348.2770071029663	fix_post	2		12	82.0	2.5	blank	1.0	401.8938219547272	0.09999203681945801
85	348.37699913978577	fix_pre	0		120	83.0	2.5	/experiments/knapen_AOT/AOT_stimuli/rescaled_final/0453_rv.mp4	0.0	401.99381399154663	1.0001468658447266
85	349.3771460056305	movie	1		244	83.0	2.5	/experiments/knapen_AOT/AOT_stimuli/rescaled_final/0453_rv.mp4	0.0	402.99396085739136	2.4920101165771484
85	349.76130199432373	pulse	1	t		83.0	2.5	/experiments/knapen_AOT/AOT_stimuli/rescaled_final/0453_rv.mp4	0.0	403.3781168460846	
85	351.36098408699036	pulse	1	t		83.0	2.5	/experiments/knapen_AOT/AOT_stimuli/rescaled_final/0453_rv.mp4	0.0	404.9777989387512	
85	351.86915612220764	fix_post	2		12	83.0	2.5	/experiments/knapen_AOT/AOT_stimuli/rescaled_final/0453_rv.mp4	0.0	405.4859709739685	0.10011982917785645
87	351.9692759513855	stim	0		1716					405.58609080314636	14.302181005477905
87	352.96124601364136	pulse	0	t						406.5780608654022	
87	354.56150698661804	pulse	0	t						408.1783218383789	
87	356.16180300712585	pulse	0	t						409.7786178588867	
87	357.76191306114197	pulse	0	t						411.37872791290283	
87	359.36215710639954	pulse	0	t						412.9789719581604	
87	360.9549629688263	pulse	0	t						414.57177782058716	
87	362.5627019405365	pulse	0	t						416.17951679229736	
87	364.1554560661316	pulse	0	t						417.77227091789246	
87	365.75570607185364	pulse	0	t						419.3725209236145	
