trial_nr	onset	event_type	phase	response	nr_frames	movie_index	movie_duration	movie_file	blank	onset_abs	duration
0	0.1834559440612793	stim	0		33					58.40058708190918	0.27489399909973145
0	0.44306087493896484	response	0	space						58.660192012786865	
1	0.45834994316101074	stim	0		3787					58.67548108100891	31.575205087661743
1	32.01909589767456	pulse	0	t						90.23622703552246	
1	32.033555030822754	stim	1		1715					90.25068616867065	14.298321962356567
1	33.61353802680969	pulse	1	t						91.83066916465759	
1	35.21376991271973	pulse	1	t						93.43090105056763	
1	36.81407690048218	pulse	1	t						95.03120803833008	
1	38.414243936538696	pulse	1	t						96.6313750743866	
1	40.01443696022034	pulse	1	t						98.23156809806824	
1	41.614747047424316	pulse	1	t						99.83187818527222	
1	43.21499991416931	pulse	1	t						101.43213105201721	
1	44.815268993377686	pulse	1	t						103.03240013122559	
2	46.33187699317932	fix_pre	0		11	0.0	2.5	/experiments/knapen_AOT/AOT_stimuli/rescaled_final/1940_rv.mp4	0.0	104.54900813102722	0.09171795845031738
2	46.41541004180908	pulse	0	t		0.0	2.5	/experiments/knapen_AOT/AOT_stimuli/rescaled_final/1940_rv.mp4	0.0	104.63254117965698	
2	46.42359495162964	movie	1		244	0.0	2.5	/experiments/knapen_AOT/AOT_stimuli/rescaled_final/1940_rv.mp4	0.0	104.64072608947754	2.5086729526519775
2	48.016119956970215	pulse	1	t		0.0	2.5	/experiments/knapen_AOT/AOT_stimuli/rescaled_final/1940_rv.mp4	0.0	106.23325109481812	
2	48.932267904281616	fix_post	2		12	0.0	2.5	/experiments/knapen_AOT/AOT_stimuli/rescaled_final/1940_rv.mp4	0.0	107.14939904212952	0.100006103515625
3	49.03227400779724	fix_pre	0		120	1.0	2.5	/experiments/knapen_AOT/AOT_stimuli/rescaled_final/0523_fw.mp4	0.0	107.24940514564514	1.000196933746338
3	49.616020917892456	pulse	0	t		1.0	2.5	/experiments/knapen_AOT/AOT_stimuli/rescaled_final/0523_fw.mp4	0.0	107.83315205574036	
3	50.03247094154358	movie	1		244	1.0	2.5	/experiments/knapen_AOT/AOT_stimuli/rescaled_final/0523_fw.mp4	0.0	108.24960207939148	2.5003349781036377
3	51.21621799468994	pulse	1	t		1.0	2.5	/experiments/knapen_AOT/AOT_stimuli/rescaled_final/0523_fw.mp4	0.0	109.43334913253784	
3	52.53280591964722	fix_post	2		12	1.0	2.5	/experiments/knapen_AOT/AOT_stimuli/rescaled_final/0523_fw.mp4	0.0	110.74993705749512	0.1001119613647461
4	52.63291788101196	fix_pre	0		120	2.0	2.5	/experiments/knapen_AOT/AOT_stimuli/rescaled_final/0728_fw.mp4	0.0	110.85004901885986	1.0000791549682617
4	52.808943033218384	pulse	0	t		2.0	2.5	/experiments/knapen_AOT/AOT_stimuli/rescaled_final/0728_fw.mp4	0.0	111.02607417106628	
4	53.632997035980225	movie	1		244	2.0	2.5	/experiments/knapen_AOT/AOT_stimuli/rescaled_final/0728_fw.mp4	0.0	111.85012817382812	2.5003468990325928
4	54.40911388397217	pulse	1	t		2.0	2.5	/experiments/knapen_AOT/AOT_stimuli/rescaled_final/0728_fw.mp4	0.0	112.62624502182007	
4	56.019026041030884	pulse	1	t		2.0	2.5	/experiments/knapen_AOT/AOT_stimuli/rescaled_final/0728_fw.mp4	0.0	114.23615717887878	
4	56.13334393501282	fix_post	2		12	2.0	2.5	/experiments/knapen_AOT/AOT_stimuli/rescaled_final/0728_fw.mp4	0.0	114.35047507286072	0.0999898910522461
5	56.23333382606506	fix_pre	0		119	3.0	2.5	/experiments/knapen_AOT/AOT_stimuli/rescaled_final/2038_fw.mp4	0.0	114.45046496391296	0.9918231964111328
5	57.225157022476196	movie	1		248	3.0	2.5	/experiments/knapen_AOT/AOT_stimuli/rescaled_final/2038_fw.mp4	0.0	115.4422881603241	2.500393867492676
5	57.60931086540222	pulse	1	t		3.0	2.5	/experiments/knapen_AOT/AOT_stimuli/rescaled_final/2038_fw.mp4	0.0	115.82644200325012	
5	59.208921909332275	pulse	1	t		3.0	2.5	/experiments/knapen_AOT/AOT_stimuli/rescaled_final/2038_fw.mp4	0.0	117.42605304718018	
5	59.72555088996887	fix_post	2		12	3.0	2.5	/experiments/knapen_AOT/AOT_stimuli/rescaled_final/2038_fw.mp4	0.0	117.94268202781677	0.09999608993530273
6	59.825546979904175	fix_pre	0		119	4.0	2.5	/experiments/knapen_AOT/AOT_stimuli/rescaled_final/0431_rv.mp4	0.0	118.04267811775208	0.9918339252471924
6	60.8092098236084	pulse	0	t		4.0	2.5	/experiments/knapen_AOT/AOT_stimuli/rescaled_final/0431_rv.mp4	0.0	119.0263409614563	
6	60.81738090515137	movie	1		244	4.0	2.5	/experiments/knapen_AOT/AOT_stimuli/rescaled_final/0431_rv.mp4	0.0	119.03451204299927	2.508686065673828
6	62.410979986190796	pulse	1	t		4.0	2.5	/experiments/knapen_AOT/AOT_stimuli/rescaled_final/0431_rv.mp4	0.0	120.6281111240387	
6	63.326066970825195	fix_post	2		12	4.0	2.5	/experiments/knapen_AOT/AOT_stimuli/rescaled_final/0431_rv.mp4	0.0	121.5431981086731	0.10008788108825684
7	63.42615485191345	fix_pre	0		120	5.0	2.5	/experiments/knapen_AOT/AOT_stimuli/rescaled_final/1326_rv.mp4	0.0	121.64328598976135	1.0000860691070557
7	64.00975799560547	pulse	0	t		5.0	2.5	/experiments/knapen_AOT/AOT_stimuli/rescaled_final/1326_rv.mp4	0.0	122.22688913345337	
7	64.42624092102051	movie	1		243	5.0	2.5	/experiments/knapen_AOT/AOT_stimuli/rescaled_final/1326_rv.mp4	0.0	122.64337205886841	2.500368118286133
7	65.61004900932312	pulse	1	t		5.0	2.5	/experiments/knapen_AOT/AOT_stimuli/rescaled_final/1326_rv.mp4	0.0	123.82718014717102	
7	66.92660903930664	fix_post	2		12	5.0	2.5	/experiments/knapen_AOT/AOT_stimuli/rescaled_final/1326_rv.mp4	0.0	125.14374017715454	0.10001087188720703
8	67.02661991119385	fix_pre	0		120	6.0	2.5	/experiments/knapen_AOT/AOT_stimuli/rescaled_final/0097_rv.mp4	0.0	125.24375104904175	1.0001609325408936
8	67.21019196510315	pulse	0	t		6.0	2.5	/experiments/knapen_AOT/AOT_stimuli/rescaled_final/0097_rv.mp4	0.0	125.42732310295105	
8	68.02678084373474	movie	1		245	6.0	2.5	/experiments/knapen_AOT/AOT_stimuli/rescaled_final/0097_rv.mp4	0.0	126.24391198158264	2.5003671646118164
8	68.81053185462952	pulse	1	t		6.0	2.5	/experiments/knapen_AOT/AOT_stimuli/rescaled_final/0097_rv.mp4	0.0	127.02766299247742	
8	70.41076302528381	pulse	1	t		6.0	2.5	/experiments/knapen_AOT/AOT_stimuli/rescaled_final/0097_rv.mp4	0.0	128.6278941631317	
8	70.52714800834656	fix_post	2		12	6.0	2.5	/experiments/knapen_AOT/AOT_stimuli/rescaled_final/0097_rv.mp4	0.0	128.74427914619446	0.10002398490905762
9	70.62717199325562	fix_pre	0		120	7.0	2.5	blank	1.0	128.84430313110352	1.0002188682556152
9	71.62739086151123	movie	1		299	7.0	2.5	blank	1.0	129.84452199935913	2.4919650554656982
9	72.01088500022888	pulse	1	t		7.0	2.5	blank	1.0	130.22801613807678	
9	73.61125898361206	pulse	1	t		7.0	2.5	blank	1.0	131.82839012145996	
9	74.11935591697693	fix_post	2		12	7.0	2.5	blank	1.0	132.33648705482483	0.10011005401611328
10	74.21946597099304	fix_pre	0		120	8.0	2.5	/experiments/knapen_AOT/AOT_stimuli/rescaled_final/0222_fw.mp4	0.0	132.43659710884094	1.0000450611114502
10	75.21138787269592	pulse	0	t		8.0	2.5	/experiments/knapen_AOT/AOT_stimuli/rescaled_final/0222_fw.mp4	0.0	133.42851901054382	
10	75.21951103210449	movie	1		246	8.0	2.5	/experiments/knapen_AOT/AOT_stimuli/rescaled_final/0222_fw.mp4	0.0	133.4366421699524	2.5087008476257324
10	76.81573104858398	pulse	1	t		8.0	2.5	/experiments/knapen_AOT/AOT_stimuli/rescaled_final/0222_fw.mp4	0.0	135.03286218643188	
10	77.72821187973022	fix_post	2		12	8.0	2.5	/experiments/knapen_AOT/AOT_stimuli/rescaled_final/0222_fw.mp4	0.0	135.94534301757812	0.1000220775604248
11	77.82823395729065	fix_pre	0		120	9.0	2.5	/experiments/knapen_AOT/AOT_stimuli/rescaled_final/1612_rv.mp4	0.0	136.04536509513855	1.0001649856567383
11	78.41190099716187	pulse	0	t		9.0	2.5	/experiments/knapen_AOT/AOT_stimuli/rescaled_final/1612_rv.mp4	0.0	136.62903213500977	
11	78.82839894294739	movie	1		244	9.0	2.5	/experiments/knapen_AOT/AOT_stimuli/rescaled_final/1612_rv.mp4	0.0	137.0455300807953	2.5003809928894043
11	80.01226687431335	pulse	1	t		9.0	2.5	/experiments/knapen_AOT/AOT_stimuli/rescaled_final/1612_rv.mp4	0.0	138.22939801216125	
11	81.32877993583679	fix_post	2		12	9.0	2.5	/experiments/knapen_AOT/AOT_stimuli/rescaled_final/1612_rv.mp4	0.0	139.5459110736847	0.10000395774841309
12	81.4287838935852	fix_pre	0		120	10.0	2.5	/experiments/knapen_AOT/AOT_stimuli/rescaled_final/1650_rv.mp4	0.0	139.6459150314331	1.0001599788665771
12	81.61230683326721	pulse	0	t		10.0	2.5	/experiments/knapen_AOT/AOT_stimuli/rescaled_final/1650_rv.mp4	0.0	139.8294379711151	
12	82.42894387245178	movie	1		244	10.0	2.5	/experiments/knapen_AOT/AOT_stimuli/rescaled_final/1650_rv.mp4	0.0	140.64607501029968	2.5003621578216553
12	83.21271586418152	pulse	1	t		10.0	2.5	/experiments/knapen_AOT/AOT_stimuli/rescaled_final/1650_rv.mp4	0.0	141.42984700202942	
12	84.81307291984558	pulse	1	t		10.0	2.5	/experiments/knapen_AOT/AOT_stimuli/rescaled_final/1650_rv.mp4	0.0	143.03020405769348	
12	84.92930603027344	fix_post	2		12	10.0	2.5	/experiments/knapen_AOT/AOT_stimuli/rescaled_final/1650_rv.mp4	0.0	143.14643716812134	0.10000896453857422
13	85.02931499481201	fix_pre	0		120	11.0	2.5	/experiments/knapen_AOT/AOT_stimuli/rescaled_final/1727_rv.mp4	0.0	143.2464461326599	1.0001540184020996
13	86.02946901321411	movie	1		240	11.0	2.5	/experiments/knapen_AOT/AOT_stimuli/rescaled_final/1727_rv.mp4	0.0	144.246600151062	2.492055892944336
13	86.41380000114441	pulse	1	t		11.0	2.5	/experiments/knapen_AOT/AOT_stimuli/rescaled_final/1727_rv.mp4	0.0	144.6309311389923	
13	88.01345086097717	pulse	1	t		11.0	2.5	/experiments/knapen_AOT/AOT_stimuli/rescaled_final/1727_rv.mp4	0.0	146.23058199882507	
13	88.52152490615845	fix_post	2		12	11.0	2.5	/experiments/knapen_AOT/AOT_stimuli/rescaled_final/1727_rv.mp4	0.0	146.73865604400635	0.10000991821289062
14	88.62153482437134	fix_pre	0		120	12.0	2.5	/experiments/knapen_AOT/AOT_stimuli/rescaled_final/1811_fw.mp4	0.0	146.83866596221924	1.0001661777496338
14	89.61356687545776	pulse	0	t		12.0	2.5	/experiments/knapen_AOT/AOT_stimuli/rescaled_final/1811_fw.mp4	0.0	147.83069801330566	
14	89.62170100212097	movie	1		246	12.0	2.5	/experiments/knapen_AOT/AOT_stimuli/rescaled_final/1811_fw.mp4	0.0	147.83883213996887	2.5086588859558105
14	91.21454381942749	pulse	1	t		12.0	2.5	/experiments/knapen_AOT/AOT_stimuli/rescaled_final/1811_fw.mp4	0.0	149.4316749572754	
14	92.13035988807678	fix_post	2		12	12.0	2.5	/experiments/knapen_AOT/AOT_stimuli/rescaled_final/1811_fw.mp4	0.0	150.34749102592468	0.10005307197570801
15	92.23041296005249	fix_pre	0		120	13.0	2.5	/experiments/knapen_AOT/AOT_stimuli/rescaled_final/1095_rv.mp4	0.0	150.4475440979004	1.0001530647277832
15	92.81404399871826	pulse	0	t		13.0	2.5	/experiments/knapen_AOT/AOT_stimuli/rescaled_final/1095_rv.mp4	0.0	151.03117513656616	
15	93.23056602478027	movie	1		245	13.0	2.5	/experiments/knapen_AOT/AOT_stimuli/rescaled_final/1095_rv.mp4	0.0	151.44769716262817	2.500332832336426
15	94.41435194015503	pulse	1	t		13.0	2.5	/experiments/knapen_AOT/AOT_stimuli/rescaled_final/1095_rv.mp4	0.0	152.63148307800293	
15	95.7308988571167	fix_post	2		12	13.0	2.5	/experiments/knapen_AOT/AOT_stimuli/rescaled_final/1095_rv.mp4	0.0	153.9480299949646	0.1000361442565918
16	95.83093500137329	fix_pre	0		120	14.0	2.5	blank	1.0	154.0480661392212	1.0001349449157715
16	96.01459503173828	pulse	0	t		14.0	2.5	blank	1.0	154.23172616958618	
16	96.83106994628906	movie	1		300	14.0	2.5	blank	1.0	155.04820108413696	2.500417947769165
16	97.61481595039368	pulse	1	t		14.0	2.5	blank	1.0	155.83194708824158	
16	99.21501398086548	pulse	1	t		14.0	2.5	blank	1.0	157.43214511871338	
16	99.33148789405823	fix_post	2		12	14.0	2.5	blank	1.0	157.54861903190613	0.09995794296264648
17	99.43144583702087	fix_pre	0		120	15.0	2.5	/experiments/knapen_AOT/AOT_stimuli/rescaled_final/0134_rv.mp4	0.0	157.64857697486877	1.0001602172851562
17	100.43160605430603	movie	1		243	15.0	2.5	/experiments/knapen_AOT/AOT_stimuli/rescaled_final/0134_rv.mp4	0.0	158.64873719215393	2.4920787811279297
17	100.81592202186584	pulse	1	t		15.0	2.5	/experiments/knapen_AOT/AOT_stimuli/rescaled_final/0134_rv.mp4	0.0	159.03305315971375	
17	102.40820693969727	pulse	1	t		15.0	2.5	/experiments/knapen_AOT/AOT_stimuli/rescaled_final/0134_rv.mp4	0.0	160.62533807754517	
17	102.92368483543396	fix_post	2		12	15.0	2.5	/experiments/knapen_AOT/AOT_stimuli/rescaled_final/0134_rv.mp4	0.0	161.14081597328186	0.10000920295715332
18	103.02369403839111	fix_pre	0		120	16.0	2.5	/experiments/knapen_AOT/AOT_stimuli/rescaled_final/0781_rv.mp4	0.0	161.240825176239	1.0001709461212158
18	104.00812292098999	pulse	0	t		16.0	2.5	/experiments/knapen_AOT/AOT_stimuli/rescaled_final/0781_rv.mp4	0.0	162.2252540588379	
18	104.02386498451233	movie	1		246	16.0	2.5	/experiments/knapen_AOT/AOT_stimuli/rescaled_final/0781_rv.mp4	0.0	162.24099612236023	2.5087080001831055
18	105.61666584014893	pulse	1	t		16.0	2.5	/experiments/knapen_AOT/AOT_stimuli/rescaled_final/0781_rv.mp4	0.0	163.83379697799683	
18	106.53257298469543	fix_post	2		12	16.0	2.5	/experiments/knapen_AOT/AOT_stimuli/rescaled_final/0781_rv.mp4	0.0	164.74970412254333	0.09995889663696289
19	106.6325318813324	fix_pre	0		120	17.0	2.5	/experiments/knapen_AOT/AOT_stimuli/rescaled_final/1992_fw.mp4	0.0	164.8496630191803	1.0001740455627441
19	107.20865488052368	pulse	0	t		17.0	2.5	/experiments/knapen_AOT/AOT_stimuli/rescaled_final/1992_fw.mp4	0.0	165.42578601837158	
19	107.63270592689514	movie	1		245	17.0	2.5	/experiments/knapen_AOT/AOT_stimuli/rescaled_final/1992_fw.mp4	0.0	165.84983706474304	2.500349998474121
19	108.80868792533875	pulse	1	t		17.0	2.5	/experiments/knapen_AOT/AOT_stimuli/rescaled_final/1992_fw.mp4	0.0	167.02581906318665	
19	110.13305592536926	fix_post	2		12	17.0	2.5	/experiments/knapen_AOT/AOT_stimuli/rescaled_final/1992_fw.mp4	0.0	168.35018706321716	0.10005712509155273
20	110.23311305046082	fix_pre	0		120	18.0	2.5	/experiments/knapen_AOT/AOT_stimuli/rescaled_final/1438_rv.mp4	0.0	168.45024418830872	1.0001068115234375
20	110.40837001800537	pulse	0	t		18.0	2.5	/experiments/knapen_AOT/AOT_stimuli/rescaled_final/1438_rv.mp4	0.0	168.62550115585327	
20	111.23321986198425	movie	1		245	18.0	2.5	/experiments/knapen_AOT/AOT_stimuli/rescaled_final/1438_rv.mp4	0.0	169.45035099983215	2.500370979309082
20	112.00854802131653	pulse	1	t		18.0	2.5	/experiments/knapen_AOT/AOT_stimuli/rescaled_final/1438_rv.mp4	0.0	170.22567915916443	
20	113.60872983932495	pulse	1	t		18.0	2.5	/experiments/knapen_AOT/AOT_stimuli/rescaled_final/1438_rv.mp4	0.0	171.82586097717285	
20	113.73359084129333	fix_post	2		12	18.0	2.5	/experiments/knapen_AOT/AOT_stimuli/rescaled_final/1438_rv.mp4	0.0	171.95072197914124	0.10003209114074707
21	113.83362293243408	fix_pre	0		120	19.0	2.5	/experiments/knapen_AOT/AOT_stimuli/rescaled_final/0033_fw.mp4	0.0	172.05075407028198	1.0001680850982666
21	114.83379101753235	movie	1		245	19.0	2.5	/experiments/knapen_AOT/AOT_stimuli/rescaled_final/0033_fw.mp4	0.0	173.05092215538025	2.4919989109039307
21	115.20908498764038	pulse	1	t		19.0	2.5	/experiments/knapen_AOT/AOT_stimuli/rescaled_final/0033_fw.mp4	0.0	173.42621612548828	
21	116.80928683280945	pulse	1	t		19.0	2.5	/experiments/knapen_AOT/AOT_stimuli/rescaled_final/0033_fw.mp4	0.0	175.02641797065735	
21	117.32578992843628	fix_post	2		12	19.0	2.5	/experiments/knapen_AOT/AOT_stimuli/rescaled_final/0033_fw.mp4	0.0	175.54292106628418	0.10008406639099121
22	117.42587399482727	fix_pre	0		119	20.0	2.5	blank	1.0	175.64300513267517	0.9917588233947754
22	118.40954399108887	pulse	0	t		20.0	2.5	blank	1.0	176.62667512893677	
22	118.41763281822205	movie	1		301	20.0	2.5	blank	1.0	176.63476395606995	2.5086960792541504
22	120.00973796844482	pulse	1	t		20.0	2.5	blank	1.0	178.22686910629272	
22	120.9263288974762	fix_post	2		12	20.0	2.5	blank	1.0	179.1434600353241	0.10001301765441895
23	121.02634191513062	fix_pre	0		120	21.0	2.5	/experiments/knapen_AOT/AOT_stimuli/rescaled_final/1685_rv.mp4	0.0	179.24347305297852	1.0001559257507324
23	121.61006498336792	pulse	0	t		21.0	2.5	/experiments/knapen_AOT/AOT_stimuli/rescaled_final/1685_rv.mp4	0.0	179.82719612121582	
23	122.02649784088135	movie	1		243	21.0	2.5	/experiments/knapen_AOT/AOT_stimuli/rescaled_final/1685_rv.mp4	0.0	180.24362897872925	2.5003840923309326
23	123.21032404899597	pulse	1	t		21.0	2.5	/experiments/knapen_AOT/AOT_stimuli/rescaled_final/1685_rv.mp4	0.0	181.42745518684387	
23	124.52688193321228	fix_post	2		12	21.0	2.5	/experiments/knapen_AOT/AOT_stimuli/rescaled_final/1685_rv.mp4	0.0	182.74401307106018	0.10001301765441895
24	124.6268949508667	fix_pre	0		120	22.0	2.5	/experiments/knapen_AOT/AOT_stimuli/rescaled_final/0153_fw.mp4	0.0	182.8440260887146	1.0001499652862549
24	124.81041097640991	pulse	0	t		22.0	2.5	/experiments/knapen_AOT/AOT_stimuli/rescaled_final/0153_fw.mp4	0.0	183.0275421142578	
24	125.62704491615295	movie	1		245	22.0	2.5	/experiments/knapen_AOT/AOT_stimuli/rescaled_final/0153_fw.mp4	0.0	183.84417605400085	2.500427007675171
24	126.41077184677124	pulse	1	t		22.0	2.5	/experiments/knapen_AOT/AOT_stimuli/rescaled_final/0153_fw.mp4	0.0	184.62790298461914	
24	128.0084729194641	pulse	1	t		22.0	2.5	/experiments/knapen_AOT/AOT_stimuli/rescaled_final/0153_fw.mp4	0.0	186.225604057312	
24	128.12747192382812	fix_post	2		12	22.0	2.5	/experiments/knapen_AOT/AOT_stimuli/rescaled_final/0153_fw.mp4	0.0	186.34460306167603	0.09997892379760742
25	128.22745084762573	fix_pre	0		120	23.0	2.5	/experiments/knapen_AOT/AOT_stimuli/rescaled_final/0365_fw.mp4	0.0	186.44458198547363	1.0001301765441895
25	129.22758102416992	movie	1		244	23.0	2.5	/experiments/knapen_AOT/AOT_stimuli/rescaled_final/0365_fw.mp4	0.0	187.44471216201782	2.4920248985290527
25	129.6125659942627	pulse	1	t		23.0	2.5	/experiments/knapen_AOT/AOT_stimuli/rescaled_final/0365_fw.mp4	0.0	187.8296971321106	
25	131.21146202087402	pulse	1	t		23.0	2.5	/experiments/knapen_AOT/AOT_stimuli/rescaled_final/0365_fw.mp4	0.0	189.42859315872192	
25	131.71960592269897	fix_post	2		12	23.0	2.5	/experiments/knapen_AOT/AOT_stimuli/rescaled_final/0365_fw.mp4	0.0	189.93673706054688	0.10002398490905762
26	131.81962990760803	fix_pre	0		120	24.0	2.5	/experiments/knapen_AOT/AOT_stimuli/rescaled_final/1438_fw.mp4	0.0	190.03676104545593	1.0001640319824219
26	132.81166887283325	pulse	0	t		24.0	2.5	/experiments/knapen_AOT/AOT_stimuli/rescaled_final/1438_fw.mp4	0.0	191.02880001068115	
26	132.81979393959045	movie	1		246	24.0	2.5	/experiments/knapen_AOT/AOT_stimuli/rescaled_final/1438_fw.mp4	0.0	191.03692507743835	2.508697986602783
26	134.41233682632446	pulse	1	t		24.0	2.5	/experiments/knapen_AOT/AOT_stimuli/rescaled_final/1438_fw.mp4	0.0	192.62946796417236	
26	135.32849192619324	fix_post	2		12	24.0	2.5	/experiments/knapen_AOT/AOT_stimuli/rescaled_final/1438_fw.mp4	0.0	193.54562306404114	0.10002899169921875
27	135.42852091789246	fix_pre	0		120	25.0	2.5	/experiments/knapen_AOT/AOT_stimuli/rescaled_final/0891_rv.mp4	0.0	193.64565205574036	1.0001239776611328
27	136.01218700408936	pulse	0	t		25.0	2.5	/experiments/knapen_AOT/AOT_stimuli/rescaled_final/0891_rv.mp4	0.0	194.22931814193726	
27	136.4286448955536	movie	1		244	25.0	2.5	/experiments/knapen_AOT/AOT_stimuli/rescaled_final/0891_rv.mp4	0.0	194.6457760334015	2.5003890991210938
27	137.61245489120483	pulse	1	t		25.0	2.5	/experiments/knapen_AOT/AOT_stimuli/rescaled_final/0891_rv.mp4	0.0	195.82958602905273	
27	138.92903399467468	fix_post	2		12	25.0	2.5	/experiments/knapen_AOT/AOT_stimuli/rescaled_final/0891_rv.mp4	0.0	197.14616513252258	0.10000801086425781
28	139.02904200553894	fix_pre	0		120	26.0	2.5	/experiments/knapen_AOT/AOT_stimuli/rescaled_final/1811_rv.mp4	0.0	197.24617314338684	1.0001449584960938
28	139.2126009464264	pulse	0	t		26.0	2.5	/experiments/knapen_AOT/AOT_stimuli/rescaled_final/1811_rv.mp4	0.0	197.4297320842743	
28	140.02918696403503	movie	1		244	26.0	2.5	/experiments/knapen_AOT/AOT_stimuli/rescaled_final/1811_rv.mp4	0.0	198.24631810188293	2.5003838539123535
28	140.8130259513855	pulse	1	t		26.0	2.5	/experiments/knapen_AOT/AOT_stimuli/rescaled_final/1811_rv.mp4	0.0	199.0301570892334	
28	142.41406989097595	pulse	1	t		26.0	2.5	/experiments/knapen_AOT/AOT_stimuli/rescaled_final/1811_rv.mp4	0.0	200.63120102882385	
28	142.5295708179474	fix_post	2		12	26.0	2.5	/experiments/knapen_AOT/AOT_stimuli/rescaled_final/1811_rv.mp4	0.0	200.7467019557953	0.10000801086425781
29	142.62957882881165	fix_pre	0		120	27.0	2.5	/experiments/knapen_AOT/AOT_stimuli/rescaled_final/0728_rv.mp4	0.0	200.84670996665955	1.0001540184020996
29	143.62973284721375	movie	1		243	27.0	2.5	/experiments/knapen_AOT/AOT_stimuli/rescaled_final/0728_rv.mp4	0.0	201.84686398506165	2.492065191268921
29	144.0176339149475	pulse	1	t		27.0	2.5	/experiments/knapen_AOT/AOT_stimuli/rescaled_final/0728_rv.mp4	0.0	202.2347650527954	
29	145.6135709285736	pulse	1	t		27.0	2.5	/experiments/knapen_AOT/AOT_stimuli/rescaled_final/0728_rv.mp4	0.0	203.8307020664215	
29	146.12179803848267	fix_post	2		9	27.0	2.5	/experiments/knapen_AOT/AOT_stimuli/rescaled_final/0728_rv.mp4	0.0	204.33892917633057	0.10000896453857422
30	146.22180700302124	fix_pre	0		120	28.0	2.5	blank	1.0	204.43893814086914	1.0001718997955322
30	147.21382403373718	pulse	0	t		28.0	2.5	blank	1.0	205.43095517158508	
30	147.22197890281677	movie	1		301	28.0	2.5	blank	1.0	205.43911004066467	2.5086960792541504
30	148.81412196159363	pulse	1	t		28.0	2.5	blank	1.0	207.03125309944153	
30	149.73067498207092	fix_post	2		12	28.0	2.5	blank	1.0	207.94780611991882	0.09999799728393555
31	149.83067297935486	fix_pre	0		120	29.0	2.5	/experiments/knapen_AOT/AOT_stimuli/rescaled_final/1069_fw.mp4	0.0	208.04780411720276	1.0001490116119385
31	150.41432189941406	pulse	0	t		29.0	2.5	/experiments/knapen_AOT/AOT_stimuli/rescaled_final/1069_fw.mp4	0.0	208.63145303726196	
31	150.8308219909668	movie	1		243	29.0	2.5	/experiments/knapen_AOT/AOT_stimuli/rescaled_final/1069_fw.mp4	0.0	209.0479531288147	2.5003600120544434
31	152.01467490196228	pulse	1	t		29.0	2.5	/experiments/knapen_AOT/AOT_stimuli/rescaled_final/1069_fw.mp4	0.0	210.23180603981018	
31	153.33118200302124	fix_post	2		12	29.0	2.5	/experiments/knapen_AOT/AOT_stimuli/rescaled_final/1069_fw.mp4	0.0	211.54831314086914	0.10005784034729004
32	153.43123984336853	fix_pre	0		120	30.0	2.5	/experiments/knapen_AOT/AOT_stimuli/rescaled_final/1884_rv.mp4	0.0	211.64837098121643	1.0001170635223389
32	153.614737033844	pulse	0	t		30.0	2.5	/experiments/knapen_AOT/AOT_stimuli/rescaled_final/1884_rv.mp4	0.0	211.8318681716919	
32	154.43135690689087	movie	1		244	30.0	2.5	/experiments/knapen_AOT/AOT_stimuli/rescaled_final/1884_rv.mp4	0.0	212.64848804473877	2.500411033630371
32	155.2151288986206	pulse	1	t		30.0	2.5	/experiments/knapen_AOT/AOT_stimuli/rescaled_final/1884_rv.mp4	0.0	213.4322600364685	
32	156.8154158592224	pulse	1	t		30.0	2.5	/experiments/knapen_AOT/AOT_stimuli/rescaled_final/1884_rv.mp4	0.0	215.0325469970703	
32	156.93176794052124	fix_post	2		12	30.0	2.5	/experiments/knapen_AOT/AOT_stimuli/rescaled_final/1884_rv.mp4	0.0	215.14889907836914	0.09997200965881348
33	157.03173995018005	fix_pre	0		120	31.0	2.5	/experiments/knapen_AOT/AOT_stimuli/rescaled_final/0539_rv.mp4	0.0	215.24887108802795	1.0001990795135498
33	158.0319390296936	movie	1		243	31.0	2.5	/experiments/knapen_AOT/AOT_stimuli/rescaled_final/0539_rv.mp4	0.0	216.2490701675415	2.4920120239257812
33	158.41693592071533	pulse	1	t		31.0	2.5	/experiments/knapen_AOT/AOT_stimuli/rescaled_final/0539_rv.mp4	0.0	216.63406705856323	
33	160.01573586463928	pulse	1	t		31.0	2.5	/experiments/knapen_AOT/AOT_stimuli/rescaled_final/0539_rv.mp4	0.0	218.23286700248718	
33	160.52395105361938	fix_post	2		12	31.0	2.5	/experiments/knapen_AOT/AOT_stimuli/rescaled_final/0539_rv.mp4	0.0	218.74108219146729	0.09999394416809082
34	160.62394499778748	fix_pre	0		120	32.0	2.5	/experiments/knapen_AOT/AOT_stimuli/rescaled_final/1619_rv.mp4	0.0	218.84107613563538	1.000135898590088
34	161.61598801612854	pulse	0	t		32.0	2.5	/experiments/knapen_AOT/AOT_stimuli/rescaled_final/1619_rv.mp4	0.0	219.83311915397644	
34	161.62408089637756	movie	1		246	32.0	2.5	/experiments/knapen_AOT/AOT_stimuli/rescaled_final/1619_rv.mp4	0.0	219.84121203422546	2.508819103240967
34	163.21695184707642	pulse	1	t		32.0	2.5	/experiments/knapen_AOT/AOT_stimuli/rescaled_final/1619_rv.mp4	0.0	221.43408298492432	
34	164.13289999961853	fix_post	2		12	32.0	2.5	/experiments/knapen_AOT/AOT_stimuli/rescaled_final/1619_rv.mp4	0.0	222.35003113746643	0.09990596771240234
35	164.23280596733093	fix_pre	0		120	33.0	2.5	/experiments/knapen_AOT/AOT_stimuli/rescaled_final/1949_fw.mp4	0.0	222.44993710517883	1.000154972076416
35	164.8089120388031	pulse	0	t		33.0	2.5	/experiments/knapen_AOT/AOT_stimuli/rescaled_final/1949_fw.mp4	0.0	223.026043176651	
35	165.23296093940735	movie	1		244	33.0	2.5	/experiments/knapen_AOT/AOT_stimuli/rescaled_final/1949_fw.mp4	0.0	223.45009207725525	2.5004100799560547
35	166.40953588485718	pulse	1	t		33.0	2.5	/experiments/knapen_AOT/AOT_stimuli/rescaled_final/1949_fw.mp4	0.0	224.62666702270508	
35	167.7333710193634	fix_post	2		12	33.0	2.5	/experiments/knapen_AOT/AOT_stimuli/rescaled_final/1949_fw.mp4	0.0	225.9505021572113	0.10001087188720703
36	167.8333818912506	fix_pre	0		120	34.0	2.5	blank	1.0	226.0505130290985	1.000143051147461
36	168.00950288772583	pulse	0	t		34.0	2.5	blank	1.0	226.22663402557373	
36	168.83352494239807	movie	1		300	34.0	2.5	blank	1.0	227.05065608024597	2.500415086746216
36	169.6096019744873	pulse	1	t		34.0	2.5	blank	1.0	227.8267331123352	
36	171.20896697044373	pulse	1	t		34.0	2.5	blank	1.0	229.42609810829163	
36	171.3339400291443	fix_post	2		12	34.0	2.5	blank	1.0	229.5510711669922	0.09994888305664062
37	171.43388891220093	fix_pre	0		120	35.0	2.5	/experiments/knapen_AOT/AOT_stimuli/rescaled_final/0216_fw.mp4	0.0	229.65102005004883	1.0001559257507324
37	172.43404483795166	movie	1		243	35.0	2.5	/experiments/knapen_AOT/AOT_stimuli/rescaled_final/0216_fw.mp4	0.0	230.65117597579956	2.4920310974121094
37	172.80918097496033	pulse	1	t		35.0	2.5	/experiments/knapen_AOT/AOT_stimuli/rescaled_final/0216_fw.mp4	0.0	231.02631211280823	
37	174.40955996513367	pulse	1	t		35.0	2.5	/experiments/knapen_AOT/AOT_stimuli/rescaled_final/0216_fw.mp4	0.0	232.62669110298157	
37	174.92607593536377	fix_post	2		12	35.0	2.5	/experiments/knapen_AOT/AOT_stimuli/rescaled_final/0216_fw.mp4	0.0	233.14320707321167	0.09999799728393555
38	175.0260739326477	fix_pre	0		119	36.0	2.5	/experiments/knapen_AOT/AOT_stimuli/rescaled_final/1617_fw.mp4	0.0	233.2432050704956	0.9918630123138428
38	176.00981092453003	pulse	0	t		36.0	2.5	/experiments/knapen_AOT/AOT_stimuli/rescaled_final/1617_fw.mp4	0.0	234.22694206237793	
38	176.01793694496155	movie	1		244	36.0	2.5	/experiments/knapen_AOT/AOT_stimuli/rescaled_final/1617_fw.mp4	0.0	234.23506808280945	2.5086820125579834
38	177.61075401306152	pulse	1	t		36.0	2.5	/experiments/knapen_AOT/AOT_stimuli/rescaled_final/1617_fw.mp4	0.0	235.82788515090942	
38	178.52661895751953	fix_post	2		12	36.0	2.5	/experiments/knapen_AOT/AOT_stimuli/rescaled_final/1617_fw.mp4	0.0	236.74375009536743	0.10004186630249023
39	178.62666082382202	fix_pre	0		120	37.0	2.5	/experiments/knapen_AOT/AOT_stimuli/rescaled_final/1809_rv.mp4	0.0	236.84379196166992	1.0000910758972168
39	179.210294008255	pulse	0	t		37.0	2.5	/experiments/knapen_AOT/AOT_stimuli/rescaled_final/1809_rv.mp4	0.0	237.4274251461029	
39	179.62675189971924	movie	1		244	37.0	2.5	/experiments/knapen_AOT/AOT_stimuli/rescaled_final/1809_rv.mp4	0.0	237.84388303756714	2.500394105911255
39	180.81051683425903	pulse	1	t		37.0	2.5	/experiments/knapen_AOT/AOT_stimuli/rescaled_final/1809_rv.mp4	0.0	239.02764797210693	
39	182.1271460056305	fix_post	2		12	37.0	2.5	/experiments/knapen_AOT/AOT_stimuli/rescaled_final/1809_rv.mp4	0.0	240.3442771434784	0.1000218391418457
40	182.22716784477234	fix_pre	0		120	38.0	2.5	/experiments/knapen_AOT/AOT_stimuli/rescaled_final/0528_fw.mp4	0.0	240.44429898262024	1.0001630783081055
40	182.410747051239	pulse	0	t		38.0	2.5	/experiments/knapen_AOT/AOT_stimuli/rescaled_final/0528_fw.mp4	0.0	240.6278781890869	
40	183.22733092308044	movie	1		245	38.0	2.5	/experiments/knapen_AOT/AOT_stimuli/rescaled_final/0528_fw.mp4	0.0	241.44446206092834	2.5003609657287598
40	184.01099300384521	pulse	1	t		38.0	2.5	/experiments/knapen_AOT/AOT_stimuli/rescaled_final/0528_fw.mp4	0.0	242.22812414169312	
40	185.61123704910278	pulse	1	t		38.0	2.5	/experiments/knapen_AOT/AOT_stimuli/rescaled_final/0528_fw.mp4	0.0	243.82836818695068	
40	185.7276918888092	fix_post	2		12	38.0	2.5	/experiments/knapen_AOT/AOT_stimuli/rescaled_final/0528_fw.mp4	0.0	243.9448230266571	0.10001015663146973
41	185.82770204544067	fix_pre	0		120	39.0	2.5	/experiments/knapen_AOT/AOT_stimuli/rescaled_final/0624_fw.mp4	0.0	244.04483318328857	1.0001537799835205
41	186.8278558254242	movie	1		243	39.0	2.5	/experiments/knapen_AOT/AOT_stimuli/rescaled_final/0624_fw.mp4	0.0	245.0449869632721	2.492039203643799
41	187.21266388893127	pulse	1	t		39.0	2.5	/experiments/knapen_AOT/AOT_stimuli/rescaled_final/0624_fw.mp4	0.0	245.42979502677917	
41	188.8117799758911	pulse	1	t		39.0	2.5	/experiments/knapen_AOT/AOT_stimuli/rescaled_final/0624_fw.mp4	0.0	247.028911113739	
41	189.319895029068	fix_post	2		12	39.0	2.5	/experiments/knapen_AOT/AOT_stimuli/rescaled_final/0624_fw.mp4	0.0	247.5370261669159	0.1000208854675293
42	189.41991591453552	fix_pre	0		120	40.0	2.5	/experiments/knapen_AOT/AOT_stimuli/rescaled_final/1617_rv.mp4	0.0	247.63704705238342	1.000148057937622
42	190.41193389892578	pulse	0	t		40.0	2.5	/experiments/knapen_AOT/AOT_stimuli/rescaled_final/1617_rv.mp4	0.0	248.62906503677368	
42	190.42006397247314	movie	1		244	40.0	2.5	/experiments/knapen_AOT/AOT_stimuli/rescaled_final/1617_rv.mp4	0.0	248.63719511032104	2.5087130069732666
42	192.01708984375	pulse	1	t		40.0	2.5	/experiments/knapen_AOT/AOT_stimuli/rescaled_final/1617_rv.mp4	0.0	250.2342209815979	
42	192.9287769794464	fix_post	2		12	40.0	2.5	/experiments/knapen_AOT/AOT_stimuli/rescaled_final/1617_rv.mp4	0.0	251.1459081172943	0.10001993179321289
43	193.02879691123962	fix_pre	0		120	41.0	2.5	/experiments/knapen_AOT/AOT_stimuli/rescaled_final/0786_rv.mp4	0.0	251.24592804908752	1.0001559257507324
43	193.61250591278076	pulse	0	t		41.0	2.5	/experiments/knapen_AOT/AOT_stimuli/rescaled_final/0786_rv.mp4	0.0	251.82963705062866	
43	194.02895283699036	movie	1		244	41.0	2.5	/experiments/knapen_AOT/AOT_stimuli/rescaled_final/0786_rv.mp4	0.0	252.24608397483826	2.500420093536377
43	195.21271395683289	pulse	1	t		41.0	2.5	/experiments/knapen_AOT/AOT_stimuli/rescaled_final/0786_rv.mp4	0.0	253.4298450946808	
43	196.52937293052673	fix_post	2		12	41.0	2.5	/experiments/knapen_AOT/AOT_stimuli/rescaled_final/0786_rv.mp4	0.0	254.74650406837463	0.09995293617248535
44	196.62932586669922	fix_pre	0		120	42.0	2.5	blank	1.0	254.84645700454712	1.0001490116119385
44	196.8129529953003	pulse	0	t		42.0	2.5	blank	1.0	255.0300841331482	
44	197.62947487831116	movie	1		300	42.0	2.5	blank	1.0	255.84660601615906	2.500378131866455
44	198.4131109714508	pulse	1	t		42.0	2.5	blank	1.0	256.6302421092987	
44	200.01333093643188	pulse	1	t		42.0	2.5	blank	1.0	258.2304620742798	
44	200.1298530101776	fix_post	2		12	42.0	2.5	blank	1.0	258.3469841480255	0.10004281997680664
45	200.22989583015442	fix_pre	0		119	43.0	2.5	/experiments/knapen_AOT/AOT_stimuli/rescaled_final/1683_fw.mp4	0.0	258.4470269680023	0.9917972087860107
45	201.22169303894043	movie	1		243	43.0	2.5	/experiments/knapen_AOT/AOT_stimuli/rescaled_final/1683_fw.mp4	0.0	259.43882417678833	2.5003488063812256
45	201.6137969493866	pulse	1	t		43.0	2.5	/experiments/knapen_AOT/AOT_stimuli/rescaled_final/1683_fw.mp4	0.0	259.8309280872345	
45	203.21392798423767	pulse	1	t		43.0	2.5	/experiments/knapen_AOT/AOT_stimuli/rescaled_final/1683_fw.mp4	0.0	261.43105912208557	
45	203.72204184532166	fix_post	2		12	43.0	2.5	/experiments/knapen_AOT/AOT_stimuli/rescaled_final/1683_fw.mp4	0.0	261.93917298316956	0.10002303123474121
46	203.8220648765564	fix_pre	0		116	44.0	2.5	/experiments/knapen_AOT/AOT_stimuli/rescaled_final/0542_fw.mp4	0.0	262.0391960144043	1.0001511573791504
46	204.8141758441925	pulse	0	t		44.0	2.5	/experiments/knapen_AOT/AOT_stimuli/rescaled_final/0542_fw.mp4	0.0	263.0313069820404	
46	204.82221603393555	movie	1		248	44.0	2.5	/experiments/knapen_AOT/AOT_stimuli/rescaled_final/0542_fw.mp4	0.0	263.03934717178345	2.508720874786377
46	206.41487789154053	pulse	1	t		44.0	2.5	/experiments/knapen_AOT/AOT_stimuli/rescaled_final/0542_fw.mp4	0.0	264.6320090293884	
46	207.33093690872192	fix_post	2		12	44.0	2.5	/experiments/knapen_AOT/AOT_stimuli/rescaled_final/0542_fw.mp4	0.0	265.5480680465698	0.10003995895385742
47	207.43097686767578	fix_pre	0		120	45.0	2.5	/experiments/knapen_AOT/AOT_stimuli/rescaled_final/1588_rv.mp4	0.0	265.6481080055237	1.0001399517059326
47	208.01472187042236	pulse	0	t		45.0	2.5	/experiments/knapen_AOT/AOT_stimuli/rescaled_final/1588_rv.mp4	0.0	266.23185300827026	
47	208.4311168193817	movie	1		246	45.0	2.5	/experiments/knapen_AOT/AOT_stimuli/rescaled_final/1588_rv.mp4	0.0	266.6482479572296	2.5003321170806885
47	209.61496305465698	pulse	1	t		45.0	2.5	/experiments/knapen_AOT/AOT_stimuli/rescaled_final/1588_rv.mp4	0.0	267.8320941925049	
47	210.9314489364624	fix_post	2		12	45.0	2.5	/experiments/knapen_AOT/AOT_stimuli/rescaled_final/1588_rv.mp4	0.0	269.1485800743103	0.10002899169921875
48	211.03147792816162	fix_pre	0		120	46.0	2.5	/experiments/knapen_AOT/AOT_stimuli/rescaled_final/1757_rv.mp4	0.0	269.2486090660095	1.0001630783081055
48	211.2151379585266	pulse	0	t		46.0	2.5	/experiments/knapen_AOT/AOT_stimuli/rescaled_final/1757_rv.mp4	0.0	269.4322690963745	
48	212.03164100646973	movie	1		244	46.0	2.5	/experiments/knapen_AOT/AOT_stimuli/rescaled_final/1757_rv.mp4	0.0	270.2487721443176	2.500370979309082
48	212.81529688835144	pulse	1	t		46.0	2.5	/experiments/knapen_AOT/AOT_stimuli/rescaled_final/1757_rv.mp4	0.0	271.03242802619934	
48	214.41548085212708	pulse	1	t		46.0	2.5	/experiments/knapen_AOT/AOT_stimuli/rescaled_final/1757_rv.mp4	0.0	272.632611989975	
48	214.5320119857788	fix_post	2		12	46.0	2.5	/experiments/knapen_AOT/AOT_stimuli/rescaled_final/1757_rv.mp4	0.0	272.7491431236267	0.10000491142272949
49	214.63201689720154	fix_pre	0		119	47.0	2.5	/experiments/knapen_AOT/AOT_stimuli/rescaled_final/0539_fw.mp4	0.0	272.84914803504944	0.9918179512023926
49	215.62383484840393	movie	1		244	47.0	2.5	/experiments/knapen_AOT/AOT_stimuli/rescaled_final/0539_fw.mp4	0.0	273.84096598625183	2.5003581047058105
49	216.01595783233643	pulse	1	t		47.0	2.5	/experiments/knapen_AOT/AOT_stimuli/rescaled_final/0539_fw.mp4	0.0	274.2330889701843	
49	217.60866689682007	pulse	1	t		47.0	2.5	/experiments/knapen_AOT/AOT_stimuli/rescaled_final/0539_fw.mp4	0.0	275.82579803466797	
49	218.12419295310974	fix_post	2		12	47.0	2.5	/experiments/knapen_AOT/AOT_stimuli/rescaled_final/0539_fw.mp4	0.0	276.34132409095764	0.10002708435058594
50	218.22422003746033	fix_pre	0		120	48.0	2.5	/experiments/knapen_AOT/AOT_stimuli/rescaled_final/2135_rv.mp4	0.0	276.4413511753082	1.0001418590545654
50	219.20880889892578	pulse	0	t		48.0	2.5	/experiments/knapen_AOT/AOT_stimuli/rescaled_final/2135_rv.mp4	0.0	277.4259400367737	
50	219.2243618965149	movie	1		247	48.0	2.5	/experiments/knapen_AOT/AOT_stimuli/rescaled_final/2135_rv.mp4	0.0	277.4414930343628	2.5087411403656006
50	220.81693291664124	pulse	1	t		48.0	2.5	/experiments/knapen_AOT/AOT_stimuli/rescaled_final/2135_rv.mp4	0.0	279.03406405448914	
50	221.7331030368805	fix_post	2		12	48.0	2.5	/experiments/knapen_AOT/AOT_stimuli/rescaled_final/2135_rv.mp4	0.0	279.9502341747284	0.09999394416809082
51	221.83309698104858	fix_pre	0		120	49.0	2.5	blank	1.0	280.0502281188965	1.0001559257507324
51	222.40912890434265	pulse	0	t		49.0	2.5	blank	1.0	280.62626004219055	
51	222.83325290679932	movie	1		300	49.0	2.5	blank	1.0	281.0503840446472	2.5003960132598877
51	224.009379863739	pulse	1	t		49.0	2.5	blank	1.0	282.2265110015869	
51	225.3336489200592	fix_post	2		12	49.0	2.5	blank	1.0	283.5507800579071	0.09998798370361328
52	225.43363690376282	fix_pre	0		120	50.0	2.5	/experiments/knapen_AOT/AOT_stimuli/rescaled_final/0153_rv.mp4	0.0	283.6507680416107	1.0001509189605713
52	225.60880088806152	pulse	0	t		50.0	2.5	/experiments/knapen_AOT/AOT_stimuli/rescaled_final/0153_rv.mp4	0.0	283.8259320259094	
52	226.4337878227234	movie	1		245	50.0	2.5	/experiments/knapen_AOT/AOT_stimuli/rescaled_final/0153_rv.mp4	0.0	284.6509189605713	2.5003561973571777
52	227.20904183387756	pulse	1	t		50.0	2.5	/experiments/knapen_AOT/AOT_stimuli/rescaled_final/0153_rv.mp4	0.0	285.42617297172546	
52	228.80927395820618	pulse	1	t		50.0	2.5	/experiments/knapen_AOT/AOT_stimuli/rescaled_final/0153_rv.mp4	0.0	287.0264050960541	
52	228.93414402008057	fix_post	2		12	50.0	2.5	/experiments/knapen_AOT/AOT_stimuli/rescaled_final/0153_rv.mp4	0.0	287.15127515792847	0.10002684593200684
53	229.03417086601257	fix_pre	0		119	51.0	2.5	/experiments/knapen_AOT/AOT_stimuli/rescaled_final/1619_rv.mp4	0.0	287.2513020038605	0.9917960166931152
53	230.0259668827057	movie	1		244	51.0	2.5	/experiments/knapen_AOT/AOT_stimuli/rescaled_final/1619_rv.mp4	0.0	288.2430980205536	2.5003881454467773
53	230.4099838733673	pulse	1	t		51.0	2.5	/experiments/knapen_AOT/AOT_stimuli/rescaled_final/1619_rv.mp4	0.0	288.6271150112152	
53	232.00981998443604	pulse	1	t		51.0	2.5	/experiments/knapen_AOT/AOT_stimuli/rescaled_final/1619_rv.mp4	0.0	290.22695112228394	
53	232.52635502815247	fix_post	2		12	51.0	2.5	/experiments/knapen_AOT/AOT_stimuli/rescaled_final/1619_rv.mp4	0.0	290.74348616600037	0.10001087188720703
54	232.62636590003967	fix_pre	0		119	52.0	2.5	/experiments/knapen_AOT/AOT_stimuli/rescaled_final/0283_fw.mp4	0.0	290.8434970378876	0.9918150901794434
54	233.6100718975067	pulse	0	t		52.0	2.5	/experiments/knapen_AOT/AOT_stimuli/rescaled_final/0283_fw.mp4	0.0	291.8272030353546	
54	233.61818099021912	movie	1		245	52.0	2.5	/experiments/knapen_AOT/AOT_stimuli/rescaled_final/0283_fw.mp4	0.0	291.835312128067	2.508730888366699
54	235.21105289459229	pulse	1	t		52.0	2.5	/experiments/knapen_AOT/AOT_stimuli/rescaled_final/0283_fw.mp4	0.0	293.4281840324402	
54	236.12691187858582	fix_post	2		12	52.0	2.5	/experiments/knapen_AOT/AOT_stimuli/rescaled_final/0283_fw.mp4	0.0	294.3440430164337	0.10002899169921875
55	236.22694087028503	fix_pre	0		120	53.0	2.5	/experiments/knapen_AOT/AOT_stimuli/rescaled_final/1842_rv.mp4	0.0	294.44407200813293	1.000110149383545
55	236.81059288978577	pulse	0	t		53.0	2.5	/experiments/knapen_AOT/AOT_stimuli/rescaled_final/1842_rv.mp4	0.0	295.02772402763367	
55	237.22705101966858	movie	1		243	53.0	2.5	/experiments/knapen_AOT/AOT_stimuli/rescaled_final/1842_rv.mp4	0.0	295.4441821575165	2.5003788471221924
55	238.4108510017395	pulse	1	t		53.0	2.5	/experiments/knapen_AOT/AOT_stimuli/rescaled_final/1842_rv.mp4	0.0	296.6279821395874	
55	239.72742986679077	fix_post	2		12	53.0	2.5	/experiments/knapen_AOT/AOT_stimuli/rescaled_final/1842_rv.mp4	0.0	297.9445610046387	0.1000070571899414
56	239.8274369239807	fix_pre	0		120	54.0	2.5	/experiments/knapen_AOT/AOT_stimuli/rescaled_final/0828_rv.mp4	0.0	298.0445680618286	1.0002429485321045
56	240.01106595993042	pulse	0	t		54.0	2.5	/experiments/knapen_AOT/AOT_stimuli/rescaled_final/0828_rv.mp4	0.0	298.2281970977783	
56	240.82767987251282	movie	1		244	54.0	2.5	/experiments/knapen_AOT/AOT_stimuli/rescaled_final/0828_rv.mp4	0.0	299.0448110103607	2.50032901763916
56	241.61122798919678	pulse	1	t		54.0	2.5	/experiments/knapen_AOT/AOT_stimuli/rescaled_final/0828_rv.mp4	0.0	299.8283591270447	
56	243.2118649482727	pulse	1	t		54.0	2.5	/experiments/knapen_AOT/AOT_stimuli/rescaled_final/0828_rv.mp4	0.0	301.4289960861206	
56	243.32800889015198	fix_post	2		12	54.0	2.5	/experiments/knapen_AOT/AOT_stimuli/rescaled_final/0828_rv.mp4	0.0	301.5451400279999	0.09996914863586426
57	243.42797803878784	fix_pre	0		120	55.0	2.5	/experiments/knapen_AOT/AOT_stimuli/rescaled_final/0101_fw.mp4	0.0	301.64510917663574	1.0001649856567383
57	244.42814302444458	movie	1		243	55.0	2.5	/experiments/knapen_AOT/AOT_stimuli/rescaled_final/0101_fw.mp4	0.0	302.6452741622925	2.4920339584350586
57	244.81650805473328	pulse	1	t		55.0	2.5	/experiments/knapen_AOT/AOT_stimuli/rescaled_final/0101_fw.mp4	0.0	303.0336391925812	
57	246.41201496124268	pulse	1	t		55.0	2.5	/experiments/knapen_AOT/AOT_stimuli/rescaled_final/0101_fw.mp4	0.0	304.6291460990906	
57	246.92017698287964	fix_post	2		12	55.0	2.5	/experiments/knapen_AOT/AOT_stimuli/rescaled_final/0101_fw.mp4	0.0	305.13730812072754	0.10003089904785156
58	247.0202078819275	fix_pre	0		120	56.0	2.5	blank	1.0	305.2373390197754	1.000133991241455
58	248.01214289665222	pulse	0	t		56.0	2.5	blank	1.0	306.2292740345001	
58	248.02034187316895	movie	1		301	56.0	2.5	blank	1.0	306.23747301101685	2.5088350772857666
58	249.61244082450867	pulse	1	t		56.0	2.5	blank	1.0	307.82957196235657	
58	250.5291769504547	fix_post	2		12	56.0	2.5	blank	1.0	308.7463080883026	0.09991693496704102
59	250.62909388542175	fix_pre	0		120	57.0	2.5	/experiments/knapen_AOT/AOT_stimuli/rescaled_final/1576_rv.mp4	0.0	308.84622502326965	1.0002491474151611
59	251.2126748561859	pulse	0	t		57.0	2.5	/experiments/knapen_AOT/AOT_stimuli/rescaled_final/1576_rv.mp4	0.0	309.4298059940338	
59	251.6293430328369	movie	1		245	57.0	2.5	/experiments/knapen_AOT/AOT_stimuli/rescaled_final/1576_rv.mp4	0.0	309.8464741706848	2.5002338886260986
59	252.81309986114502	pulse	1	t		57.0	2.5	/experiments/knapen_AOT/AOT_stimuli/rescaled_final/1576_rv.mp4	0.0	311.0302309989929	
59	254.129576921463	fix_post	2		12	57.0	2.5	/experiments/knapen_AOT/AOT_stimuli/rescaled_final/1576_rv.mp4	0.0	312.3467080593109	0.10001993179321289
60	254.22959685325623	fix_pre	0		120	58.0	2.5	/experiments/knapen_AOT/AOT_stimuli/rescaled_final/0712_fw.mp4	0.0	312.4467279911041	1.0001611709594727
60	254.41316294670105	pulse	0	t		58.0	2.5	/experiments/knapen_AOT/AOT_stimuli/rescaled_final/0712_fw.mp4	0.0	312.63029408454895	
60	255.2297580242157	movie	1		246	58.0	2.5	/experiments/knapen_AOT/AOT_stimuli/rescaled_final/0712_fw.mp4	0.0	313.4468891620636	2.5003538131713867
60	256.01335883140564	pulse	1	t		58.0	2.5	/experiments/knapen_AOT/AOT_stimuli/rescaled_final/0712_fw.mp4	0.0	314.23048996925354	
60	257.613737821579	pulse	1	t		58.0	2.5	/experiments/knapen_AOT/AOT_stimuli/rescaled_final/0712_fw.mp4	0.0	315.8308689594269	
60	257.7301118373871	fix_post	2		12	58.0	2.5	/experiments/knapen_AOT/AOT_stimuli/rescaled_final/0712_fw.mp4	0.0	315.947242975235	0.10000300407409668
61	257.8301148414612	fix_pre	0		120	59.0	2.5	/experiments/knapen_AOT/AOT_stimuli/rescaled_final/0352_rv.mp4	0.0	316.0472459793091	1.0001749992370605
61	258.83028984069824	movie	1		243	59.0	2.5	/experiments/knapen_AOT/AOT_stimuli/rescaled_final/0352_rv.mp4	0.0	317.04742097854614	2.4921391010284424
61	259.2147719860077	pulse	1	t		59.0	2.5	/experiments/knapen_AOT/AOT_stimuli/rescaled_final/0352_rv.mp4	0.0	317.4319031238556	
61	260.8141100406647	pulse	1	t		59.0	2.5	/experiments/knapen_AOT/AOT_stimuli/rescaled_final/0352_rv.mp4	0.0	319.0312411785126	
61	261.3224289417267	fix_post	2		12	59.0	2.5	/experiments/knapen_AOT/AOT_stimuli/rescaled_final/0352_rv.mp4	0.0	319.5395600795746	0.10001397132873535
62	261.4224429130554	fix_pre	0		120	60.0	2.5	/experiments/knapen_AOT/AOT_stimuli/rescaled_final/0911_rv.mp4	0.0	319.6395740509033	1.0000340938568115
62	262.4143068790436	pulse	0	t		60.0	2.5	/experiments/knapen_AOT/AOT_stimuli/rescaled_final/0911_rv.mp4	0.0	320.6314380168915	
62	262.42247700691223	movie	1		246	60.0	2.5	/experiments/knapen_AOT/AOT_stimuli/rescaled_final/0911_rv.mp4	0.0	320.63960814476013	2.5087430477142334
62	264.0149869918823	pulse	1	t		60.0	2.5	/experiments/knapen_AOT/AOT_stimuli/rescaled_final/0911_rv.mp4	0.0	322.2321181297302	
62	264.93122005462646	fix_post	2		11	60.0	2.5	/experiments/knapen_AOT/AOT_stimuli/rescaled_final/0911_rv.mp4	0.0	323.14835119247437	0.10007596015930176
63	265.03129601478577	fix_pre	0		120	61.0	2.5	blank	1.0	323.24842715263367	1.0001089572906494
63	265.61490082740784	pulse	0	t		61.0	2.5	blank	1.0	323.83203196525574	
63	266.0314049720764	movie	1		300	61.0	2.5	blank	1.0	324.2485361099243	2.5003628730773926
63	267.21508502960205	pulse	1	t		61.0	2.5	blank	1.0	325.43221616744995	
63	268.5317678451538	fix_post	2		12	61.0	2.5	blank	1.0	326.7488989830017	0.09995603561401367
64	268.6317238807678	fix_pre	0		120	62.0	2.5	/experiments/knapen_AOT/AOT_stimuli/rescaled_final/2017_fw.mp4	0.0	326.8488550186157	1.0001611709594727
64	268.81527185440063	pulse	0	t		62.0	2.5	/experiments/knapen_AOT/AOT_stimuli/rescaled_final/2017_fw.mp4	0.0	327.03240299224854	
64	269.6318850517273	movie	1		245	62.0	2.5	/experiments/knapen_AOT/AOT_stimuli/rescaled_final/2017_fw.mp4	0.0	327.8490161895752	2.5003907680511475
64	270.415638923645	pulse	1	t		62.0	2.5	/experiments/knapen_AOT/AOT_stimuli/rescaled_final/2017_fw.mp4	0.0	328.6327700614929	
64	272.01592683792114	pulse	1	t		62.0	2.5	/experiments/knapen_AOT/AOT_stimuli/rescaled_final/2017_fw.mp4	0.0	330.23305797576904	
64	272.13227581977844	fix_post	2		12	62.0	2.5	/experiments/knapen_AOT/AOT_stimuli/rescaled_final/2017_fw.mp4	0.0	330.34940695762634	0.10001516342163086
65	272.2322909832001	fix_pre	0		120	63.0	2.5	/experiments/knapen_AOT/AOT_stimuli/rescaled_final/1255_fw.mp4	0.0	330.449422121048	1.0001580715179443
65	273.232449054718	movie	1		243	63.0	2.5	/experiments/knapen_AOT/AOT_stimuli/rescaled_final/1255_fw.mp4	0.0	331.4495801925659	2.492011785507202
65	273.6209008693695	pulse	1	t		63.0	2.5	/experiments/knapen_AOT/AOT_stimuli/rescaled_final/1255_fw.mp4	0.0	331.8380320072174	
65	275.21625685691833	pulse	1	t		63.0	2.5	/experiments/knapen_AOT/AOT_stimuli/rescaled_final/1255_fw.mp4	0.0	333.43338799476624	
65	275.7244608402252	fix_post	2		12	63.0	2.5	/experiments/knapen_AOT/AOT_stimuli/rescaled_final/1255_fw.mp4	0.0	333.9415919780731	0.10003304481506348
66	275.8244938850403	fix_pre	0		120	64.0	2.5	/experiments/knapen_AOT/AOT_stimuli/rescaled_final/1744_fw.mp4	0.0	334.0416250228882	1.0001280307769775
66	276.8166069984436	pulse	0	t		64.0	2.5	/experiments/knapen_AOT/AOT_stimuli/rescaled_final/1744_fw.mp4	0.0	335.0337381362915	
66	276.82462191581726	movie	1		245	64.0	2.5	/experiments/knapen_AOT/AOT_stimuli/rescaled_final/1744_fw.mp4	0.0	335.04175305366516	2.508721113204956
66	278.4181158542633	pulse	1	t		64.0	2.5	/experiments/knapen_AOT/AOT_stimuli/rescaled_final/1744_fw.mp4	0.0	336.6352469921112	
66	279.3333430290222	fix_post	2		12	64.0	2.5	/experiments/knapen_AOT/AOT_stimuli/rescaled_final/1744_fw.mp4	0.0	337.5504741668701	0.10002684593200684
67	279.4333698749542	fix_pre	0		120	65.0	2.5	/experiments/knapen_AOT/AOT_stimuli/rescaled_final/0236_fw.mp4	0.0	337.6505010128021	1.0001239776611328
67	280.0095708370209	pulse	0	t		65.0	2.5	/experiments/knapen_AOT/AOT_stimuli/rescaled_final/0236_fw.mp4	0.0	338.2267019748688	
67	280.43349385261536	movie	1		246	65.0	2.5	/experiments/knapen_AOT/AOT_stimuli/rescaled_final/0236_fw.mp4	0.0	338.65062499046326	2.500394105911255
67	281.60928988456726	pulse	1	t		65.0	2.5	/experiments/knapen_AOT/AOT_stimuli/rescaled_final/0236_fw.mp4	0.0	339.82642102241516	
67	282.9338879585266	fix_post	2		12	65.0	2.5	/experiments/knapen_AOT/AOT_stimuli/rescaled_final/0236_fw.mp4	0.0	341.1510190963745	0.1000208854675293
68	283.03390884399414	fix_pre	0		120	66.0	2.5	/experiments/knapen_AOT/AOT_stimuli/rescaled_final/0308_fw.mp4	0.0	341.25103998184204	1.0001511573791504
68	283.2099368572235	pulse	0	t		66.0	2.5	/experiments/knapen_AOT/AOT_stimuli/rescaled_final/0308_fw.mp4	0.0	341.4270679950714	
68	284.0340600013733	movie	1		245	66.0	2.5	/experiments/knapen_AOT/AOT_stimuli/rescaled_final/0308_fw.mp4	0.0	342.2511911392212	2.5003609657287598
68	284.809476852417	pulse	1	t		66.0	2.5	/experiments/knapen_AOT/AOT_stimuli/rescaled_final/0308_fw.mp4	0.0	343.0266079902649	
68	286.4096460342407	pulse	1	t		66.0	2.5	/experiments/knapen_AOT/AOT_stimuli/rescaled_final/0308_fw.mp4	0.0	344.6267771720886	
68	286.53442096710205	fix_post	2		12	66.0	2.5	/experiments/knapen_AOT/AOT_stimuli/rescaled_final/0308_fw.mp4	0.0	344.75155210494995	0.10001587867736816
69	286.6344368457794	fix_pre	0		120	67.0	2.5	/experiments/knapen_AOT/AOT_stimuli/rescaled_final/1633_rv.mp4	0.0	344.8515679836273	1.0001590251922607
69	287.6345958709717	movie	1		244	67.0	2.5	/experiments/knapen_AOT/AOT_stimuli/rescaled_final/1633_rv.mp4	0.0	345.8517270088196	2.4920551776885986
69	288.0099048614502	pulse	1	t		67.0	2.5	/experiments/knapen_AOT/AOT_stimuli/rescaled_final/1633_rv.mp4	0.0	346.2270359992981	
69	289.6101830005646	pulse	1	t		67.0	2.5	/experiments/knapen_AOT/AOT_stimuli/rescaled_final/1633_rv.mp4	0.0	347.8273141384125	
69	290.1266510486603	fix_post	2		12	67.0	2.5	/experiments/knapen_AOT/AOT_stimuli/rescaled_final/1633_rv.mp4	0.0	348.3437821865082	0.09997177124023438
70	290.2266228199005	fix_pre	0		119	68.0	2.5	blank	1.0	348.4437539577484	0.9918251037597656
70	291.21027183532715	pulse	0	t		68.0	2.5	blank	1.0	349.42740297317505	
70	291.2184479236603	movie	1		301	68.0	2.5	blank	1.0	349.4355790615082	2.50871205329895
70	292.8106060028076	pulse	1	t		68.0	2.5	blank	1.0	351.0277371406555	
70	293.72715997695923	fix_post	2		12	68.0	2.5	blank	1.0	351.94429111480713	0.10000491142272949
71	293.82716488838196	fix_pre	0		120	69.0	2.5	/experiments/knapen_AOT/AOT_stimuli/rescaled_final/0038_fw.mp4	0.0	352.04429602622986	1.0001590251922607
71	294.41085982322693	pulse	0	t		69.0	2.5	/experiments/knapen_AOT/AOT_stimuli/rescaled_final/0038_fw.mp4	0.0	352.62799096107483	
71	294.8273239135742	movie	1		244	69.0	2.5	/experiments/knapen_AOT/AOT_stimuli/rescaled_final/0038_fw.mp4	0.0	353.0444550514221	2.500386953353882
71	296.01110792160034	pulse	1	t		69.0	2.5	/experiments/knapen_AOT/AOT_stimuli/rescaled_final/0038_fw.mp4	0.0	354.22823905944824	
71	297.3277108669281	fix_post	2		12	69.0	2.5	/experiments/knapen_AOT/AOT_stimuli/rescaled_final/0038_fw.mp4	0.0	355.544842004776	0.10004305839538574
72	297.4277539253235	fix_pre	0		120	70.0	2.5	/experiments/knapen_AOT/AOT_stimuli/rescaled_final/0503_fw.mp4	0.0	355.6448850631714	1.0001580715179443
72	297.61126804351807	pulse	0	t		70.0	2.5	/experiments/knapen_AOT/AOT_stimuli/rescaled_final/0503_fw.mp4	0.0	355.82839918136597	
72	298.42791199684143	movie	1		244	70.0	2.5	/experiments/knapen_AOT/AOT_stimuli/rescaled_final/0503_fw.mp4	0.0	356.64504313468933	2.50034499168396
72	299.2116060256958	pulse	1	t		70.0	2.5	/experiments/knapen_AOT/AOT_stimuli/rescaled_final/0503_fw.mp4	0.0	357.4287371635437	
72	300.81161999702454	pulse	1	t		70.0	2.5	/experiments/knapen_AOT/AOT_stimuli/rescaled_final/0503_fw.mp4	0.0	359.02875113487244	
72	300.9282569885254	fix_post	2		12	70.0	2.5	/experiments/knapen_AOT/AOT_stimuli/rescaled_final/0503_fw.mp4	0.0	359.1453881263733	0.09999990463256836
73	301.02825689315796	fix_pre	0		119	71.0	2.5	/experiments/knapen_AOT/AOT_stimuli/rescaled_final/2125_rv.mp4	0.0	359.24538803100586	0.9918010234832764
73	302.02005791664124	movie	1		245	71.0	2.5	/experiments/knapen_AOT/AOT_stimuli/rescaled_final/2125_rv.mp4	0.0	360.23718905448914	2.5003769397735596
73	302.41206097602844	pulse	1	t		71.0	2.5	/experiments/knapen_AOT/AOT_stimuli/rescaled_final/2125_rv.mp4	0.0	360.62919211387634	
73	304.01223492622375	pulse	1	t		71.0	2.5	/experiments/knapen_AOT/AOT_stimuli/rescaled_final/2125_rv.mp4	0.0	362.22936606407166	
73	304.5204348564148	fix_post	2		12	71.0	2.5	/experiments/knapen_AOT/AOT_stimuli/rescaled_final/2125_rv.mp4	0.0	362.7375659942627	0.09998917579650879
74	304.6204240322113	fix_pre	0		120	72.0	2.5	/experiments/knapen_AOT/AOT_stimuli/rescaled_final/1351_fw.mp4	0.0	362.8375551700592	1.0002338886260986
74	305.61254382133484	pulse	0	t		72.0	2.5	/experiments/knapen_AOT/AOT_stimuli/rescaled_final/1351_fw.mp4	0.0	363.82967495918274	
74	305.6206579208374	movie	1		245	72.0	2.5	/experiments/knapen_AOT/AOT_stimuli/rescaled_final/1351_fw.mp4	0.0	363.8377890586853	2.5086669921875
74	307.21378898620605	pulse	1	t		72.0	2.5	/experiments/knapen_AOT/AOT_stimuli/rescaled_final/1351_fw.mp4	0.0	365.43092012405396	
74	308.1293249130249	fix_post	2		12	72.0	2.5	/experiments/knapen_AOT/AOT_stimuli/rescaled_final/1351_fw.mp4	0.0	366.3464560508728	0.10002398490905762
75	308.22934889793396	fix_pre	0		120	73.0	2.5	/experiments/knapen_AOT/AOT_stimuli/rescaled_final/0051_fw.mp4	0.0	366.44648003578186	1.0001280307769775
75	308.8130760192871	pulse	0	t		73.0	2.5	/experiments/knapen_AOT/AOT_stimuli/rescaled_final/0051_fw.mp4	0.0	367.030207157135	
75	309.22947692871094	movie	1		245	73.0	2.5	/experiments/knapen_AOT/AOT_stimuli/rescaled_final/0051_fw.mp4	0.0	367.44660806655884	2.5003879070281982
75	310.4133608341217	pulse	1	t		73.0	2.5	/experiments/knapen_AOT/AOT_stimuli/rescaled_final/0051_fw.mp4	0.0	368.6304919719696	
75	311.72986483573914	fix_post	2		12	73.0	2.5	/experiments/knapen_AOT/AOT_stimuli/rescaled_final/0051_fw.mp4	0.0	369.94699597358704	0.10006117820739746
76	311.82992601394653	fix_pre	0		120	74.0	2.5	/experiments/knapen_AOT/AOT_stimuli/rescaled_final/2027_fw.mp4	0.0	370.04705715179443	1.0000979900360107
76	312.013375043869	pulse	0	t		74.0	2.5	/experiments/knapen_AOT/AOT_stimuli/rescaled_final/2027_fw.mp4	0.0	370.2305061817169	
76	312.83002400398254	movie	1		244	74.0	2.5	/experiments/knapen_AOT/AOT_stimuli/rescaled_final/2027_fw.mp4	0.0	371.04715514183044	2.5003669261932373
76	313.61371994018555	pulse	1	t		74.0	2.5	/experiments/knapen_AOT/AOT_stimuli/rescaled_final/2027_fw.mp4	0.0	371.83085107803345	
76	315.2141718864441	pulse	1	t		74.0	2.5	/experiments/knapen_AOT/AOT_stimuli/rescaled_final/2027_fw.mp4	0.0	373.431303024292	
76	315.3303909301758	fix_post	2		12	74.0	2.5	/experiments/knapen_AOT/AOT_stimuli/rescaled_final/2027_fw.mp4	0.0	373.5475220680237	0.09998297691345215
77	315.43037390708923	fix_pre	0		120	75.0	2.5	/experiments/knapen_AOT/AOT_stimuli/rescaled_final/1224_rv.mp4	0.0	373.64750504493713	1.000196933746338
77	316.43057084083557	movie	1		243	75.0	2.5	/experiments/knapen_AOT/AOT_stimuli/rescaled_final/1224_rv.mp4	0.0	374.6477019786835	2.492025136947632
77	316.8147859573364	pulse	1	t		75.0	2.5	/experiments/knapen_AOT/AOT_stimuli/rescaled_final/1224_rv.mp4	0.0	375.0319170951843	
77	318.41438484191895	pulse	1	t		75.0	2.5	/experiments/knapen_AOT/AOT_stimuli/rescaled_final/1224_rv.mp4	0.0	376.63151597976685	
77	318.9225959777832	fix_post	2		12	75.0	2.5	/experiments/knapen_AOT/AOT_stimuli/rescaled_final/1224_rv.mp4	0.0	377.1397271156311	0.10000991821289062
78	319.0226058959961	fix_pre	0		120	76.0	2.5	/experiments/knapen_AOT/AOT_stimuli/rescaled_final/1252_fw.mp4	0.0	377.239737033844	1.000143051147461
78	320.0146360397339	pulse	0	t		76.0	2.5	/experiments/knapen_AOT/AOT_stimuli/rescaled_final/1252_fw.mp4	0.0	378.2317671775818	
78	320.02274894714355	movie	1		244	76.0	2.5	/experiments/knapen_AOT/AOT_stimuli/rescaled_final/1252_fw.mp4	0.0	378.23988008499146	2.508708953857422
78	321.6159918308258	pulse	1	t		76.0	2.5	/experiments/knapen_AOT/AOT_stimuli/rescaled_final/1252_fw.mp4	0.0	379.8331229686737	
78	322.531457901001	fix_post	2		12	76.0	2.5	/experiments/knapen_AOT/AOT_stimuli/rescaled_final/1252_fw.mp4	0.0	380.7485890388489	0.10000991821289062
79	322.63146781921387	fix_pre	0		120	77.0	2.5	blank	1.0	380.84859895706177	1.0002400875091553
79	323.21510887145996	pulse	0	t		77.0	2.5	blank	1.0	381.43224000930786	
79	323.631707906723	movie	1		300	77.0	2.5	blank	1.0	381.8488390445709	2.500317096710205
79	324.8152849674225	pulse	1	t		77.0	2.5	blank	1.0	383.0324161052704	
79	326.1320250034332	fix_post	2		10	77.0	2.5	blank	1.0	384.3491561412811	0.09999489784240723
80	326.23201990127563	fix_pre	0		120	78.0	2.5	/experiments/knapen_AOT/AOT_stimuli/rescaled_final/1617_rv.mp4	0.0	384.44915103912354	1.0001609325408936
80	326.41560101509094	pulse	0	t		78.0	2.5	/experiments/knapen_AOT/AOT_stimuli/rescaled_final/1617_rv.mp4	0.0	384.63273215293884	
80	327.2321808338165	movie	1		243	78.0	2.5	/experiments/knapen_AOT/AOT_stimuli/rescaled_final/1617_rv.mp4	0.0	385.44931197166443	2.50039005279541
80	328.0158808231354	pulse	1	t		78.0	2.5	/experiments/knapen_AOT/AOT_stimuli/rescaled_final/1617_rv.mp4	0.0	386.2330119609833	
80	329.61601400375366	pulse	1	t		78.0	2.5	/experiments/knapen_AOT/AOT_stimuli/rescaled_final/1617_rv.mp4	0.0	387.83314514160156	
80	329.73257088661194	fix_post	2		12	78.0	2.5	/experiments/knapen_AOT/AOT_stimuli/rescaled_final/1617_rv.mp4	0.0	387.94970202445984	0.10001397132873535
81	329.8325848579407	fix_pre	0		120	79.0	2.5	/experiments/knapen_AOT/AOT_stimuli/rescaled_final/0762_fw.mp4	0.0	388.0497159957886	1.0000951290130615
81	330.83267998695374	movie	1		245	79.0	2.5	/experiments/knapen_AOT/AOT_stimuli/rescaled_final/0762_fw.mp4	0.0	389.04981112480164	2.4920618534088135
81	331.220871925354	pulse	1	t		79.0	2.5	/experiments/knapen_AOT/AOT_stimuli/rescaled_final/0762_fw.mp4	0.0	389.4380030632019	
81	332.80917096138	pulse	1	t		79.0	2.5	/experiments/knapen_AOT/AOT_stimuli/rescaled_final/0762_fw.mp4	0.0	391.0263020992279	
81	333.32474184036255	fix_post	2		12	79.0	2.5	/experiments/knapen_AOT/AOT_stimuli/rescaled_final/0762_fw.mp4	0.0	391.54187297821045	0.1000220775604248
82	333.424763917923	fix_pre	0		120	80.0	2.5	/experiments/knapen_AOT/AOT_stimuli/rescaled_final/1979_fw.mp4	0.0	391.6418950557709	1.0001499652862549
82	334.40928387641907	pulse	0	t		80.0	2.5	/experiments/knapen_AOT/AOT_stimuli/rescaled_final/1979_fw.mp4	0.0	392.62641501426697	
82	334.42491388320923	movie	1		245	80.0	2.5	/experiments/knapen_AOT/AOT_stimuli/rescaled_final/1979_fw.mp4	0.0	392.64204502105713	2.508687973022461
82	336.01826882362366	pulse	1	t		80.0	2.5	/experiments/knapen_AOT/AOT_stimuli/rescaled_final/1979_fw.mp4	0.0	394.23539996147156	
82	336.9336018562317	fix_post	2		12	80.0	2.5	/experiments/knapen_AOT/AOT_stimuli/rescaled_final/1979_fw.mp4	0.0	395.1507329940796	0.10001897811889648
83	337.0336208343506	fix_pre	0		120	81.0	2.5	/experiments/knapen_AOT/AOT_stimuli/rescaled_final/0731_rv.mp4	0.0	395.2507519721985	1.000216007232666
83	337.60966086387634	pulse	0	t		81.0	2.5	/experiments/knapen_AOT/AOT_stimuli/rescaled_final/0731_rv.mp4	0.0	395.82679200172424	
83	338.03383684158325	movie	1		246	81.0	2.5	/experiments/knapen_AOT/AOT_stimuli/rescaled_final/0731_rv.mp4	0.0	396.25096797943115	2.5003139972686768
83	339.2096600532532	pulse	1	t		81.0	2.5	/experiments/knapen_AOT/AOT_stimuli/rescaled_final/0731_rv.mp4	0.0	397.4267911911011	
83	340.53415083885193	fix_post	2		12	81.0	2.5	/experiments/knapen_AOT/AOT_stimuli/rescaled_final/0731_rv.mp4	0.0	398.75128197669983	0.10001301765441895
84	340.63416385650635	fix_pre	0		120	82.0	2.5	/experiments/knapen_AOT/AOT_stimuli/rescaled_final/1818_fw.mp4	0.0	398.85129499435425	1.0001471042633057
84	340.80934405326843	pulse	0	t		82.0	2.5	/experiments/knapen_AOT/AOT_stimuli/rescaled_final/1818_fw.mp4	0.0	399.02647519111633	
84	341.63431096076965	movie	1		244	82.0	2.5	/experiments/knapen_AOT/AOT_stimuli/rescaled_final/1818_fw.mp4	0.0	399.85144209861755	2.5003750324249268
84	342.4096179008484	pulse	1	t		82.0	2.5	/experiments/knapen_AOT/AOT_stimuli/rescaled_final/1818_fw.mp4	0.0	400.6267490386963	
84	344.0098628997803	pulse	1	t		82.0	2.5	/experiments/knapen_AOT/AOT_stimuli/rescaled_final/1818_fw.mp4	0.0	402.2269940376282	
84	344.1346859931946	fix_post	2		12	82.0	2.5	/experiments/knapen_AOT/AOT_stimuli/rescaled_final/1818_fw.mp4	0.0	402.3518171310425	0.1000058650970459
85	344.2346918582916	fix_pre	0		120	83.0	2.5	blank	1.0	402.4518229961395	1.0001680850982666
85	345.2348599433899	movie	1		299	83.0	2.5	blank	1.0	403.4519910812378	2.4920361042022705
85	345.6101830005646	pulse	1	t		83.0	2.5	blank	1.0	403.8273141384125	
85	347.2102859020233	pulse	1	t		83.0	2.5	blank	1.0	405.4274170398712	
85	347.72689604759216	fix_post	2		12	83.0	2.5	blank	1.0	405.94402718544006	0.10004281997680664
87	347.82693886756897	stim	0		1716					406.04407000541687	14.302123069763184
87	348.8105549812317	pulse	0	t						407.0276861190796	
87	350.4108018875122	pulse	0	t						408.6279330253601	
87	352.01102590560913	pulse	0	t						410.22815704345703	
87	353.61125683784485	pulse	0	t						411.82838797569275	
87	355.2115569114685	pulse	0	t						413.4286880493164	
87	356.8118019104004	pulse	0	t						415.0289330482483	
87	358.41195797920227	pulse	0	t						416.62908911705017	
87	360.0121970176697	pulse	0	t						418.2293281555176	
87	361.6125428676605	pulse	0	t						419.8296740055084	
