trial_nr	onset	event_type	phase	response	nr_frames	movie_index	movie_duration	movie_file	blank	onset_abs	duration
0	0.16649913787841797	stim	0		4					16.330406665802002	0.03321695327758789
0	0.19176554679870605	response	0	space						16.35567307472229	
1	0.19971609115600586	stim	0		4692					16.36362361907959	39.116127729415894
1	39.30580973625183	pulse	0	t						55.469717264175415	
1	39.3158438205719	stim	1		1715					55.47975134849548	14.300278186798096
1	40.8981237411499	pulse	1	t						57.062031269073486	
1	42.490262508392334	pulse	1	t						58.65417003631592	
1	44.09038591384888	pulse	1	t						60.25429344177246	
1	45.69022583961487	pulse	1	t						61.85413336753845	
1	47.290382862091064	pulse	1	t						63.45429039001465	
1	48.89092993736267	pulse	1	t						65.05483746528625	
1	50.49083924293518	pulse	1	t						66.65474677085876	
1	52.09116458892822	pulse	1	t						68.2550721168518	
2	53.616122007369995	fix_pre	0		10	0.0	2.5	/experiments/knapen_AOT/AOT_stimuli/rescaled_final/0512_rv.mp4	0.0	69.78002953529358	0.10002470016479492
2	53.69137907028198	pulse	0	t		0.0	2.5	/experiments/knapen_AOT/AOT_stimuli/rescaled_final/0512_rv.mp4	0.0	69.85528659820557	
2	53.71614670753479	movie	1		279	0.0	2.5	/experiments/knapen_AOT/AOT_stimuli/rescaled_final/0512_rv.mp4	0.0	69.88005423545837	2.492043972015381
2	55.29152226448059	pulse	1	t		0.0	2.5	/experiments/knapen_AOT/AOT_stimuli/rescaled_final/0512_rv.mp4	0.0	71.45542979240417	
2	56.20819067955017	fix_post	2		12	0.0	2.5	/experiments/knapen_AOT/AOT_stimuli/rescaled_final/0512_rv.mp4	0.0	72.37209820747375	0.10002875328063965
3	56.30821943283081	fix_pre	0		120	1.0	2.5	/experiments/knapen_AOT/AOT_stimuli/rescaled_final/1207_fw.mp4	0.0	72.4721269607544	1.0084528923034668
3	56.89182114601135	pulse	0	t		1.0	2.5	/experiments/knapen_AOT/AOT_stimuli/rescaled_final/1207_fw.mp4	0.0	73.05572867393494	
3	57.31667232513428	movie	1		281	1.0	2.5	/experiments/knapen_AOT/AOT_stimuli/rescaled_final/1207_fw.mp4	0.0	73.48057985305786	2.4920265674591064
3	58.49215078353882	pulse	1	t		1.0	2.5	/experiments/knapen_AOT/AOT_stimuli/rescaled_final/1207_fw.mp4	0.0	74.6560583114624	
3	59.808698892593384	fix_post	2		12	1.0	2.5	/experiments/knapen_AOT/AOT_stimuli/rescaled_final/1207_fw.mp4	0.0	75.97260642051697	0.10003328323364258
4	59.908732175827026	fix_pre	0		120	2.0	2.5	/experiments/knapen_AOT/AOT_stimuli/rescaled_final/1711_fw.mp4	0.0	76.07263970375061	1.0084855556488037
4	60.09235739707947	pulse	0	t		2.0	2.5	/experiments/knapen_AOT/AOT_stimuli/rescaled_final/1711_fw.mp4	0.0	76.25626492500305	
4	60.91721773147583	movie	1		270	2.0	2.5	/experiments/knapen_AOT/AOT_stimuli/rescaled_final/1711_fw.mp4	0.0	77.08112525939941	2.4920170307159424
4	61.69048714637756	pulse	1	t		2.0	2.5	/experiments/knapen_AOT/AOT_stimuli/rescaled_final/1711_fw.mp4	0.0	77.85439467430115	
4	63.29062056541443	pulse	1	t		2.0	2.5	/experiments/knapen_AOT/AOT_stimuli/rescaled_final/1711_fw.mp4	0.0	79.45452809333801	
4	63.40923476219177	fix_post	2		12	2.0	2.5	/experiments/knapen_AOT/AOT_stimuli/rescaled_final/1711_fw.mp4	0.0	79.57314229011536	0.10001611709594727
5	63.50925087928772	fix_pre	0		120	3.0	2.5	/experiments/knapen_AOT/AOT_stimuli/rescaled_final/0694_fw.mp4	0.0	79.6731584072113	1.0085344314575195
5	64.51778531074524	movie	1		264	3.0	2.5	/experiments/knapen_AOT/AOT_stimuli/rescaled_final/0694_fw.mp4	0.0	80.68169283866882	2.4919943809509277
5	64.89140748977661	pulse	1	t		3.0	2.5	/experiments/knapen_AOT/AOT_stimuli/rescaled_final/0694_fw.mp4	0.0	81.0553150177002	
5	66.4910979270935	pulse	1	t		3.0	2.5	/experiments/knapen_AOT/AOT_stimuli/rescaled_final/0694_fw.mp4	0.0	82.65500545501709	
5	67.00977969169617	fix_post	2		12	3.0	2.5	/experiments/knapen_AOT/AOT_stimuli/rescaled_final/0694_fw.mp4	0.0	83.17368721961975	0.10003495216369629
6	67.10981464385986	fix_pre	0		119	4.0	2.5	/experiments/knapen_AOT/AOT_stimuli/rescaled_final/1958_fw.mp4	0.0	83.27372217178345	1.0001678466796875
6	68.09357643127441	pulse	0	t		4.0	2.5	/experiments/knapen_AOT/AOT_stimuli/rescaled_final/1958_fw.mp4	0.0	84.257483959198	
6	68.10998249053955	movie	1		274	4.0	2.5	/experiments/knapen_AOT/AOT_stimuli/rescaled_final/1958_fw.mp4	0.0	84.27389001846313	2.500351667404175
6	69.69217300415039	pulse	1	t		4.0	2.5	/experiments/knapen_AOT/AOT_stimuli/rescaled_final/1958_fw.mp4	0.0	85.85608053207397	
6	70.61033415794373	fix_post	2		12	4.0	2.5	/experiments/knapen_AOT/AOT_stimuli/rescaled_final/1958_fw.mp4	0.0	86.77424168586731	0.10002398490905762
7	70.71035814285278	fix_pre	0		120	5.0	2.5	/experiments/knapen_AOT/AOT_stimuli/rescaled_final/0847_rv.mp4	0.0	86.87426567077637	1.0085108280181885
7	71.29411578178406	pulse	0	t		5.0	2.5	/experiments/knapen_AOT/AOT_stimuli/rescaled_final/0847_rv.mp4	0.0	87.45802330970764	
7	71.71886897087097	movie	1		271	5.0	2.5	/experiments/knapen_AOT/AOT_stimuli/rescaled_final/0847_rv.mp4	0.0	87.88277649879456	2.4920170307159424
7	72.89207077026367	pulse	1	t		5.0	2.5	/experiments/knapen_AOT/AOT_stimuli/rescaled_final/0847_rv.mp4	0.0	89.05597829818726	
7	74.21088600158691	fix_post	2		12	5.0	2.5	/experiments/knapen_AOT/AOT_stimuli/rescaled_final/0847_rv.mp4	0.0	90.3747935295105	0.10000896453857422
8	74.31089496612549	fix_pre	0		120	6.0	2.5	blank	1.0	90.47480249404907	1.0001637935638428
8	74.49448561668396	pulse	0	t		6.0	2.5	blank	1.0	90.65839314460754	
8	75.31105875968933	movie	1		300	6.0	2.5	blank	1.0	91.47496628761292	2.5003457069396973
8	76.09468507766724	pulse	1	t		6.0	2.5	blank	1.0	92.25859260559082	
8	77.69499039649963	pulse	1	t		6.0	2.5	blank	1.0	93.85889792442322	
8	77.81140446662903	fix_post	2		12	6.0	2.5	blank	1.0	93.97531199455261	0.1000664234161377
9	77.91147089004517	fix_pre	0		120	7.0	2.5	/experiments/knapen_AOT/AOT_stimuli/rescaled_final/1602_rv.mp4	0.0	94.07537841796875	1.0084750652313232
9	78.91994595527649	movie	1		270	7.0	2.5	/experiments/knapen_AOT/AOT_stimuli/rescaled_final/1602_rv.mp4	0.0	95.08385348320007	2.4920051097869873
9	79.29393339157104	pulse	1	t		7.0	2.5	/experiments/knapen_AOT/AOT_stimuli/rescaled_final/1602_rv.mp4	0.0	95.45784091949463	
9	80.89307284355164	pulse	1	t		7.0	2.5	/experiments/knapen_AOT/AOT_stimuli/rescaled_final/1602_rv.mp4	0.0	97.05698037147522	
9	81.41195106506348	fix_post	2		12	7.0	2.5	/experiments/knapen_AOT/AOT_stimuli/rescaled_final/1602_rv.mp4	0.0	97.57585859298706	0.10001945495605469
10	81.51197052001953	fix_pre	0		119	8.0	2.5	/experiments/knapen_AOT/AOT_stimuli/rescaled_final/1442_rv.mp4	0.0	97.67587804794312	1.0001800060272217
10	82.49575233459473	pulse	0	t		8.0	2.5	/experiments/knapen_AOT/AOT_stimuli/rescaled_final/1442_rv.mp4	0.0	98.65965986251831	
10	82.51215052604675	movie	1		270	8.0	2.5	/experiments/knapen_AOT/AOT_stimuli/rescaled_final/1442_rv.mp4	0.0	98.67605805397034	2.5003654956817627
10	84.0940420627594	pulse	1	t		8.0	2.5	/experiments/knapen_AOT/AOT_stimuli/rescaled_final/1442_rv.mp4	0.0	100.25794959068298	
10	85.01251602172852	fix_post	2		12	8.0	2.5	/experiments/knapen_AOT/AOT_stimuli/rescaled_final/1442_rv.mp4	0.0	101.1764235496521	0.09998703002929688
11	85.11250305175781	fix_pre	0		120	9.0	2.5	/experiments/knapen_AOT/AOT_stimuli/rescaled_final/0685_rv.mp4	0.0	101.2764105796814	1.0085070133209229
11	85.69616508483887	pulse	0	t		9.0	2.5	/experiments/knapen_AOT/AOT_stimuli/rescaled_final/0685_rv.mp4	0.0	101.86007261276245	
11	86.12101006507874	movie	1		276	9.0	2.5	/experiments/knapen_AOT/AOT_stimuli/rescaled_final/0685_rv.mp4	0.0	102.28491759300232	2.4921000003814697
11	87.29427409172058	pulse	1	t		9.0	2.5	/experiments/knapen_AOT/AOT_stimuli/rescaled_final/0685_rv.mp4	0.0	103.45818161964417	
11	88.6131100654602	fix_post	2		12	9.0	2.5	/experiments/knapen_AOT/AOT_stimuli/rescaled_final/0685_rv.mp4	0.0	104.77701759338379	0.09995365142822266
12	88.71306371688843	fix_pre	0		120	10.0	2.5	/experiments/knapen_AOT/AOT_stimuli/rescaled_final/1016_fw.mp4	0.0	104.87697124481201	1.0085303783416748
12	88.89668393135071	pulse	0	t		10.0	2.5	/experiments/knapen_AOT/AOT_stimuli/rescaled_final/1016_fw.mp4	0.0	105.06059145927429	
12	89.7215940952301	movie	1		287	10.0	2.5	/experiments/knapen_AOT/AOT_stimuli/rescaled_final/1016_fw.mp4	0.0	105.88550162315369	2.4919826984405518
12	90.49449515342712	pulse	1	t		10.0	2.5	/experiments/knapen_AOT/AOT_stimuli/rescaled_final/1016_fw.mp4	0.0	106.65840268135071	
12	92.09569668769836	pulse	1	t		10.0	2.5	/experiments/knapen_AOT/AOT_stimuli/rescaled_final/1016_fw.mp4	0.0	108.25960421562195	
12	92.21357679367065	fix_post	2		12	10.0	2.5	/experiments/knapen_AOT/AOT_stimuli/rescaled_final/1016_fw.mp4	0.0	108.37748432159424	0.1000206470489502
13	92.3135974407196	fix_pre	0		120	11.0	2.5	/experiments/knapen_AOT/AOT_stimuli/rescaled_final/1391_fw.mp4	0.0	108.47750496864319	1.0085067749023438
13	93.32210421562195	movie	1		276	11.0	2.5	/experiments/knapen_AOT/AOT_stimuli/rescaled_final/1391_fw.mp4	0.0	109.48601174354553	2.492032766342163
13	93.6966278553009	pulse	1	t		11.0	2.5	/experiments/knapen_AOT/AOT_stimuli/rescaled_final/1391_fw.mp4	0.0	109.86053538322449	
13	95.29777526855469	pulse	1	t		11.0	2.5	/experiments/knapen_AOT/AOT_stimuli/rescaled_final/1391_fw.mp4	0.0	111.46168279647827	
13	95.81413698196411	fix_post	2		12	11.0	2.5	/experiments/knapen_AOT/AOT_stimuli/rescaled_final/1391_fw.mp4	0.0	111.9780445098877	0.10001111030578613
14	95.9141480922699	fix_pre	0		118	12.0	2.5	/experiments/knapen_AOT/AOT_stimuli/rescaled_final/1759_rv.mp4	0.0	112.07805562019348	0.9918251037597656
14	96.89003920555115	pulse	0	t		12.0	2.5	/experiments/knapen_AOT/AOT_stimuli/rescaled_final/1759_rv.mp4	0.0	113.05394673347473	
14	96.90597319602966	movie	1		277	12.0	2.5	/experiments/knapen_AOT/AOT_stimuli/rescaled_final/1759_rv.mp4	0.0	113.06988072395325	2.5003817081451416
14	98.48991012573242	pulse	1	t		12.0	2.5	/experiments/knapen_AOT/AOT_stimuli/rescaled_final/1759_rv.mp4	0.0	114.653817653656	
14	99.4063549041748	fix_post	2		12	12.0	2.5	/experiments/knapen_AOT/AOT_stimuli/rescaled_final/1759_rv.mp4	0.0	115.57026243209839	0.09998774528503418
15	99.50634264945984	fix_pre	0		120	13.0	2.5	blank	1.0	115.67025017738342	1.0001535415649414
15	100.0899908542633	pulse	0	t		13.0	2.5	blank	1.0	116.25389838218689	
15	100.50649619102478	movie	1		300	13.0	2.5	blank	1.0	116.67040371894836	2.500365734100342
15	101.6903669834137	pulse	1	t		13.0	2.5	blank	1.0	117.85427451133728	
15	103.00686192512512	fix_post	2		12	13.0	2.5	blank	1.0	119.1707694530487	0.10002684593200684
16	103.10688877105713	fix_pre	0		120	14.0	2.5	/experiments/knapen_AOT/AOT_stimuli/rescaled_final/0512_fw.mp4	0.0	119.27079629898071	1.0084786415100098
16	103.2906060218811	pulse	0	t		14.0	2.5	/experiments/knapen_AOT/AOT_stimuli/rescaled_final/0512_fw.mp4	0.0	119.45451354980469	
16	104.11536741256714	movie	1		280	14.0	2.5	/experiments/knapen_AOT/AOT_stimuli/rescaled_final/0512_fw.mp4	0.0	120.27927494049072	2.492133140563965
16	104.8907356262207	pulse	1	t		14.0	2.5	/experiments/knapen_AOT/AOT_stimuli/rescaled_final/0512_fw.mp4	0.0	121.05464315414429	
16	106.49091362953186	pulse	1	t		14.0	2.5	/experiments/knapen_AOT/AOT_stimuli/rescaled_final/0512_fw.mp4	0.0	122.65482115745544	
16	106.6075005531311	fix_post	2		12	14.0	2.5	/experiments/knapen_AOT/AOT_stimuli/rescaled_final/0512_fw.mp4	0.0	122.77140808105469	0.09996867179870605
17	106.70746922492981	fix_pre	0		120	15.0	2.5	/experiments/knapen_AOT/AOT_stimuli/rescaled_final/1722_rv.mp4	0.0	122.8713767528534	1.008446455001831
17	107.71591567993164	movie	1		276	15.0	2.5	/experiments/knapen_AOT/AOT_stimuli/rescaled_final/1722_rv.mp4	0.0	123.87982320785522	2.492027521133423
17	108.09084105491638	pulse	1	t		15.0	2.5	/experiments/knapen_AOT/AOT_stimuli/rescaled_final/1722_rv.mp4	0.0	124.25474858283997	
17	109.69143080711365	pulse	1	t		15.0	2.5	/experiments/knapen_AOT/AOT_stimuli/rescaled_final/1722_rv.mp4	0.0	125.85533833503723	
17	110.20794320106506	fix_post	2		12	15.0	2.5	/experiments/knapen_AOT/AOT_stimuli/rescaled_final/1722_rv.mp4	0.0	126.37185072898865	0.1000223159790039
18	110.30796551704407	fix_pre	0		119	16.0	2.5	/experiments/knapen_AOT/AOT_stimuli/rescaled_final/1433_rv.mp4	0.0	126.47187304496765	1.0002062320709229
18	111.29175400733948	pulse	0	t		16.0	2.5	/experiments/knapen_AOT/AOT_stimuli/rescaled_final/1433_rv.mp4	0.0	127.45566153526306	
18	111.30817174911499	movie	1		277	16.0	2.5	/experiments/knapen_AOT/AOT_stimuli/rescaled_final/1433_rv.mp4	0.0	127.47207927703857	2.50036358833313
18	112.89008498191833	pulse	1	t		16.0	2.5	/experiments/knapen_AOT/AOT_stimuli/rescaled_final/1433_rv.mp4	0.0	129.05399250984192	
18	113.80853533744812	fix_post	2		12	16.0	2.5	/experiments/knapen_AOT/AOT_stimuli/rescaled_final/1433_rv.mp4	0.0	129.9724428653717	0.09997820854187012
19	113.90851354598999	fix_pre	0		120	17.0	2.5	/experiments/knapen_AOT/AOT_stimuli/rescaled_final/0592_rv.mp4	0.0	130.07242107391357	1.0084950923919678
19	114.49219417572021	pulse	0	t		17.0	2.5	/experiments/knapen_AOT/AOT_stimuli/rescaled_final/0592_rv.mp4	0.0	130.6561017036438	
19	114.91700863838196	movie	1		283	17.0	2.5	/experiments/knapen_AOT/AOT_stimuli/rescaled_final/0592_rv.mp4	0.0	131.08091616630554	2.4920315742492676
19	116.0902943611145	pulse	1	t		17.0	2.5	/experiments/knapen_AOT/AOT_stimuli/rescaled_final/0592_rv.mp4	0.0	132.2542018890381	
19	117.40904021263123	fix_post	2		12	17.0	2.5	/experiments/knapen_AOT/AOT_stimuli/rescaled_final/0592_rv.mp4	0.0	133.5729477405548	0.09999537467956543
20	117.50903558731079	fix_pre	0		120	18.0	2.5	/experiments/knapen_AOT/AOT_stimuli/rescaled_final/1774_rv.mp4	0.0	133.67294311523438	1.008507490158081
20	117.69306087493896	pulse	0	t		18.0	2.5	/experiments/knapen_AOT/AOT_stimuli/rescaled_final/1774_rv.mp4	0.0	133.85696840286255	
20	118.51754307746887	movie	1		277	18.0	2.5	/experiments/knapen_AOT/AOT_stimuli/rescaled_final/1774_rv.mp4	0.0	134.68145060539246	2.4920613765716553
20	119.29071998596191	pulse	1	t		18.0	2.5	/experiments/knapen_AOT/AOT_stimuli/rescaled_final/1774_rv.mp4	0.0	135.4546275138855	
20	120.89133596420288	pulse	1	t		18.0	2.5	/experiments/knapen_AOT/AOT_stimuli/rescaled_final/1774_rv.mp4	0.0	137.05524349212646	
20	121.00960445404053	fix_post	2		12	18.0	2.5	/experiments/knapen_AOT/AOT_stimuli/rescaled_final/1774_rv.mp4	0.0	137.1735119819641	0.09998035430908203
21	121.10958480834961	fix_pre	0		120	19.0	2.5	/experiments/knapen_AOT/AOT_stimuli/rescaled_final/2119_fw.mp4	0.0	137.2734923362732	1.0085299015045166
21	122.11811470985413	movie	1		270	19.0	2.5	/experiments/knapen_AOT/AOT_stimuli/rescaled_final/2119_fw.mp4	0.0	138.2820222377777	2.4920058250427246
21	122.49203300476074	pulse	1	t		19.0	2.5	/experiments/knapen_AOT/AOT_stimuli/rescaled_final/2119_fw.mp4	0.0	138.65594053268433	
21	124.09363913536072	pulse	1	t		19.0	2.5	/experiments/knapen_AOT/AOT_stimuli/rescaled_final/2119_fw.mp4	0.0	140.2575466632843	
21	124.61012053489685	fix_post	2		12	19.0	2.5	/experiments/knapen_AOT/AOT_stimuli/rescaled_final/2119_fw.mp4	0.0	140.77402806282043	0.10005569458007812
22	124.71017622947693	fix_pre	0		119	20.0	2.5	/experiments/knapen_AOT/AOT_stimuli/rescaled_final/1150_fw.mp4	0.0	140.8740837574005	1.0001070499420166
22	125.69381833076477	pulse	0	t		20.0	2.5	/experiments/knapen_AOT/AOT_stimuli/rescaled_final/1150_fw.mp4	0.0	141.85772585868835	
22	125.71028327941895	movie	1		276	20.0	2.5	/experiments/knapen_AOT/AOT_stimuli/rescaled_final/1150_fw.mp4	0.0	141.87419080734253	2.5003671646118164
22	127.29313278198242	pulse	1	t		20.0	2.5	/experiments/knapen_AOT/AOT_stimuli/rescaled_final/1150_fw.mp4	0.0	143.457040309906	
22	128.21065044403076	fix_post	2		12	20.0	2.5	/experiments/knapen_AOT/AOT_stimuli/rescaled_final/1150_fw.mp4	0.0	144.37455797195435	0.10002994537353516
23	128.3106803894043	fix_pre	0		120	21.0	2.5	blank	1.0	144.47458791732788	1.0001516342163086
23	128.89430975914001	pulse	0	t		21.0	2.5	blank	1.0	145.0582172870636	
23	129.3108320236206	movie	1		300	21.0	2.5	blank	1.0	145.4747395515442	2.5003716945648193
23	130.49453043937683	pulse	1	t		21.0	2.5	blank	1.0	146.65843796730042	
23	131.81120371818542	fix_post	2		12	21.0	2.5	blank	1.0	147.975111246109	0.10004925727844238
24	131.91125297546387	fix_pre	0		120	22.0	2.5	/experiments/knapen_AOT/AOT_stimuli/rescaled_final/0827_fw.mp4	0.0	148.07516050338745	1.0084781646728516
24	132.0947825908661	pulse	0	t		22.0	2.5	/experiments/knapen_AOT/AOT_stimuli/rescaled_final/0827_fw.mp4	0.0	148.25869011878967	
24	132.91973114013672	movie	1		268	22.0	2.5	/experiments/knapen_AOT/AOT_stimuli/rescaled_final/0827_fw.mp4	0.0	149.0836386680603	2.49200439453125
24	133.69297695159912	pulse	1	t		22.0	2.5	/experiments/knapen_AOT/AOT_stimuli/rescaled_final/0827_fw.mp4	0.0	149.8568844795227	
24	135.29321146011353	pulse	1	t		22.0	2.5	/experiments/knapen_AOT/AOT_stimuli/rescaled_final/0827_fw.mp4	0.0	151.4571189880371	
24	135.41173553466797	fix_post	2		12	22.0	2.5	/experiments/knapen_AOT/AOT_stimuli/rescaled_final/0827_fw.mp4	0.0	151.57564306259155	0.10002470016479492
25	135.51176023483276	fix_pre	0		120	23.0	2.5	/experiments/knapen_AOT/AOT_stimuli/rescaled_final/0595_rv.mp4	0.0	151.67566776275635	1.0085031986236572
25	136.52026343345642	movie	1		275	23.0	2.5	/experiments/knapen_AOT/AOT_stimuli/rescaled_final/0595_rv.mp4	0.0	152.68417096138	2.492002010345459
25	136.8956699371338	pulse	1	t		23.0	2.5	/experiments/knapen_AOT/AOT_stimuli/rescaled_final/0595_rv.mp4	0.0	153.05957746505737	
25	138.49352288246155	pulse	1	t		23.0	2.5	/experiments/knapen_AOT/AOT_stimuli/rescaled_final/0595_rv.mp4	0.0	154.65743041038513	
25	139.01226544380188	fix_post	2		12	23.0	2.5	/experiments/knapen_AOT/AOT_stimuli/rescaled_final/0595_rv.mp4	0.0	155.17617297172546	0.1000218391418457
26	139.11228728294373	fix_pre	0		119	24.0	2.5	/experiments/knapen_AOT/AOT_stimuli/rescaled_final/0359_fw.mp4	0.0	155.2761948108673	1.000173568725586
26	140.09596633911133	pulse	0	t		24.0	2.5	/experiments/knapen_AOT/AOT_stimuli/rescaled_final/0359_fw.mp4	0.0	156.2598738670349	
26	140.1124608516693	movie	1		278	24.0	2.5	/experiments/knapen_AOT/AOT_stimuli/rescaled_final/0359_fw.mp4	0.0	156.2763683795929	2.5003464221954346
26	141.69449996948242	pulse	1	t		24.0	2.5	/experiments/knapen_AOT/AOT_stimuli/rescaled_final/0359_fw.mp4	0.0	157.858407497406	
26	142.61280727386475	fix_post	2		12	24.0	2.5	/experiments/knapen_AOT/AOT_stimuli/rescaled_final/0359_fw.mp4	0.0	158.77671480178833	0.10008120536804199
27	142.7128884792328	fix_pre	0		120	25.0	2.5	/experiments/knapen_AOT/AOT_stimuli/rescaled_final/0799_rv.mp4	0.0	158.87679600715637	1.008443832397461
27	143.2964596748352	pulse	0	t		25.0	2.5	/experiments/knapen_AOT/AOT_stimuli/rescaled_final/0799_rv.mp4	0.0	159.4603672027588	
27	143.72133231163025	movie	1		272	25.0	2.5	/experiments/knapen_AOT/AOT_stimuli/rescaled_final/0799_rv.mp4	0.0	159.88523983955383	2.492042303085327
27	144.89528799057007	pulse	1	t		25.0	2.5	/experiments/knapen_AOT/AOT_stimuli/rescaled_final/0799_rv.mp4	0.0	161.05919551849365	
27	146.21337461471558	fix_post	2		12	25.0	2.5	/experiments/knapen_AOT/AOT_stimuli/rescaled_final/0799_rv.mp4	0.0	162.37728214263916	0.10000467300415039
28	146.31337928771973	fix_pre	0		120	26.0	2.5	/experiments/knapen_AOT/AOT_stimuli/rescaled_final/2116_fw.mp4	0.0	162.4772868156433	1.0085251331329346
28	146.48999667167664	pulse	0	t		26.0	2.5	/experiments/knapen_AOT/AOT_stimuli/rescaled_final/2116_fw.mp4	0.0	162.65390419960022	
28	147.32190442085266	movie	1		285	26.0	2.5	/experiments/knapen_AOT/AOT_stimuli/rescaled_final/2116_fw.mp4	0.0	163.48581194877625	2.491992235183716
28	148.0949923992157	pulse	1	t		26.0	2.5	/experiments/knapen_AOT/AOT_stimuli/rescaled_final/2116_fw.mp4	0.0	164.25889992713928	
28	149.69521641731262	pulse	1	t		26.0	2.5	/experiments/knapen_AOT/AOT_stimuli/rescaled_final/2116_fw.mp4	0.0	165.8591239452362	
28	149.81389665603638	fix_post	2		12	26.0	2.5	/experiments/knapen_AOT/AOT_stimuli/rescaled_final/2116_fw.mp4	0.0	165.97780418395996	0.10005044937133789
29	149.91394710540771	fix_pre	0		120	27.0	2.5	blank	1.0	166.0778546333313	1.00016450881958
29	150.9141116142273	movie	1		300	27.0	2.5	blank	1.0	167.07801914215088	2.5003108978271484
29	151.297837972641	pulse	1	t		27.0	2.5	blank	1.0	167.46174550056458	
29	152.89006781578064	pulse	1	t		27.0	2.5	blank	1.0	169.05397534370422	
29	153.41442251205444	fix_post	2		12	27.0	2.5	blank	1.0	169.57833003997803	0.10004448890686035
30	153.5144670009613	fix_pre	0		118	28.0	2.5	/experiments/knapen_AOT/AOT_stimuli/rescaled_final/1016_rv.mp4	0.0	169.6783745288849	0.9918186664581299
30	154.49010372161865	pulse	0	t		28.0	2.5	/experiments/knapen_AOT/AOT_stimuli/rescaled_final/1016_rv.mp4	0.0	170.65401124954224	
30	154.50628566741943	movie	1		276	28.0	2.5	/experiments/knapen_AOT/AOT_stimuli/rescaled_final/1016_rv.mp4	0.0	170.67019319534302	2.500354528427124
30	156.09008526802063	pulse	1	t		28.0	2.5	/experiments/knapen_AOT/AOT_stimuli/rescaled_final/1016_rv.mp4	0.0	172.2539927959442	
30	157.00664019584656	fix_post	2		12	28.0	2.5	/experiments/knapen_AOT/AOT_stimuli/rescaled_final/1016_rv.mp4	0.0	173.17054772377014	0.10003137588500977
31	157.10667157173157	fix_pre	0		120	29.0	2.5	/experiments/knapen_AOT/AOT_stimuli/rescaled_final/1100_rv.mp4	0.0	173.27057909965515	1.008502721786499
31	157.6906967163086	pulse	0	t		29.0	2.5	/experiments/knapen_AOT/AOT_stimuli/rescaled_final/1100_rv.mp4	0.0	173.85460424423218	
31	158.11517429351807	movie	1		280	29.0	2.5	/experiments/knapen_AOT/AOT_stimuli/rescaled_final/1100_rv.mp4	0.0	174.27908182144165	2.4920358657836914
31	159.29082870483398	pulse	1	t		29.0	2.5	/experiments/knapen_AOT/AOT_stimuli/rescaled_final/1100_rv.mp4	0.0	175.45473623275757	
31	160.60721015930176	fix_post	2		12	29.0	2.5	/experiments/knapen_AOT/AOT_stimuli/rescaled_final/1100_rv.mp4	0.0	176.77111768722534	0.09999585151672363
32	160.70720601081848	fix_pre	0		120	30.0	2.5	/experiments/knapen_AOT/AOT_stimuli/rescaled_final/0196_fw.mp4	0.0	176.87111353874207	1.008500337600708
32	160.8908507823944	pulse	0	t		30.0	2.5	/experiments/knapen_AOT/AOT_stimuli/rescaled_final/0196_fw.mp4	0.0	177.054758310318	
32	161.7157063484192	movie	1		269	30.0	2.5	/experiments/knapen_AOT/AOT_stimuli/rescaled_final/0196_fw.mp4	0.0	177.87961387634277	2.500579595565796
32	162.49105525016785	pulse	1	t		30.0	2.5	/experiments/knapen_AOT/AOT_stimuli/rescaled_final/0196_fw.mp4	0.0	178.65496277809143	
32	164.09152173995972	pulse	1	t		30.0	2.5	/experiments/knapen_AOT/AOT_stimuli/rescaled_final/0196_fw.mp4	0.0	180.2554292678833	
32	164.21628594398499	fix_post	2		11	30.0	2.5	/experiments/knapen_AOT/AOT_stimuli/rescaled_final/0196_fw.mp4	0.0	180.38019347190857	0.091461181640625
33	164.3077471256256	fix_pre	0		120	31.0	2.5	/experiments/knapen_AOT/AOT_stimuli/rescaled_final/1148_rv.mp4	0.0	180.4716546535492	1.0084915161132812
33	165.3162386417389	movie	1		273	31.0	2.5	/experiments/knapen_AOT/AOT_stimuli/rescaled_final/1148_rv.mp4	0.0	181.48014616966248	2.4920597076416016
33	165.6904993057251	pulse	1	t		31.0	2.5	/experiments/knapen_AOT/AOT_stimuli/rescaled_final/1148_rv.mp4	0.0	181.85440683364868	
33	167.29143524169922	pulse	1	t		31.0	2.5	/experiments/knapen_AOT/AOT_stimuli/rescaled_final/1148_rv.mp4	0.0	183.4553427696228	
33	167.8082983493805	fix_post	2		12	31.0	2.5	/experiments/knapen_AOT/AOT_stimuli/rescaled_final/1148_rv.mp4	0.0	183.97220587730408	0.0999903678894043
34	167.9082887172699	fix_pre	0		119	32.0	2.5	/experiments/knapen_AOT/AOT_stimuli/rescaled_final/0536_fw.mp4	0.0	184.07219624519348	1.0001471042633057
34	168.89227175712585	pulse	0	t		32.0	2.5	/experiments/knapen_AOT/AOT_stimuli/rescaled_final/0536_fw.mp4	0.0	185.05617928504944	
34	168.9084358215332	movie	1		266	32.0	2.5	/experiments/knapen_AOT/AOT_stimuli/rescaled_final/0536_fw.mp4	0.0	185.0723433494568	2.5005109310150146
34	170.49148178100586	pulse	1	t		32.0	2.5	/experiments/knapen_AOT/AOT_stimuli/rescaled_final/0536_fw.mp4	0.0	186.65538930892944	
34	171.40894675254822	fix_post	2		12	32.0	2.5	/experiments/knapen_AOT/AOT_stimuli/rescaled_final/0536_fw.mp4	0.0	187.5728542804718	0.09986996650695801
35	171.50881671905518	fix_pre	0		120	33.0	2.5	/experiments/knapen_AOT/AOT_stimuli/rescaled_final/1453_fw.mp4	0.0	187.67272424697876	1.0084998607635498
35	172.09250140190125	pulse	0	t		33.0	2.5	/experiments/knapen_AOT/AOT_stimuli/rescaled_final/1453_fw.mp4	0.0	188.25640892982483	
35	172.51731657981873	movie	1		277	33.0	2.5	/experiments/knapen_AOT/AOT_stimuli/rescaled_final/1453_fw.mp4	0.0	188.6812241077423	2.492048978805542
35	173.69091606140137	pulse	1	t		33.0	2.5	/experiments/knapen_AOT/AOT_stimuli/rescaled_final/1453_fw.mp4	0.0	189.85482358932495	
35	175.00936555862427	fix_post	2		12	33.0	2.5	/experiments/knapen_AOT/AOT_stimuli/rescaled_final/1453_fw.mp4	0.0	191.17327308654785	0.10005903244018555
36	175.10942459106445	fix_pre	0		120	34.0	2.5	/experiments/knapen_AOT/AOT_stimuli/rescaled_final/1041_rv.mp4	0.0	191.27333211898804	1.0084800720214844
36	175.29297614097595	pulse	0	t		34.0	2.5	/experiments/knapen_AOT/AOT_stimuli/rescaled_final/1041_rv.mp4	0.0	191.45688366889954	
36	176.11790466308594	movie	1		272	34.0	2.5	/experiments/knapen_AOT/AOT_stimuli/rescaled_final/1041_rv.mp4	0.0	192.28181219100952	2.491992950439453
36	176.89090156555176	pulse	1	t		34.0	2.5	/experiments/knapen_AOT/AOT_stimuli/rescaled_final/1041_rv.mp4	0.0	193.05480909347534	
36	178.49281191825867	pulse	1	t		34.0	2.5	/experiments/knapen_AOT/AOT_stimuli/rescaled_final/1041_rv.mp4	0.0	194.65671944618225	
36	178.6098976135254	fix_post	2		12	34.0	2.5	/experiments/knapen_AOT/AOT_stimuli/rescaled_final/1041_rv.mp4	0.0	194.77380514144897	0.10001540184020996
37	178.7099130153656	fix_pre	0		120	35.0	2.5	blank	1.0	194.87382054328918	1.0001425743103027
37	179.7100555896759	movie	1		300	35.0	2.5	blank	1.0	195.8739631175995	2.5003747940063477
37	180.09366488456726	pulse	1	t		35.0	2.5	blank	1.0	196.25757241249084	
37	181.69392657279968	pulse	1	t		35.0	2.5	blank	1.0	197.85783410072327	
37	182.21043038368225	fix_post	2		12	35.0	2.5	blank	1.0	198.37433791160583	0.10002708435058594
38	182.31045746803284	fix_pre	0		119	36.0	2.5	/experiments/knapen_AOT/AOT_stimuli/rescaled_final/1755_rv.mp4	0.0	198.47436499595642	1.0001258850097656
38	183.29429626464844	pulse	0	t		36.0	2.5	/experiments/knapen_AOT/AOT_stimuli/rescaled_final/1755_rv.mp4	0.0	199.45820379257202	
38	183.3105833530426	movie	1		281	36.0	2.5	/experiments/knapen_AOT/AOT_stimuli/rescaled_final/1755_rv.mp4	0.0	199.4744908809662	2.500403881072998
38	184.89367389678955	pulse	1	t		36.0	2.5	/experiments/knapen_AOT/AOT_stimuli/rescaled_final/1755_rv.mp4	0.0	201.05758142471313	
38	185.8109872341156	fix_post	2		12	36.0	2.5	/experiments/knapen_AOT/AOT_stimuli/rescaled_final/1755_rv.mp4	0.0	201.97489476203918	0.10010910034179688
39	185.9110963344574	fix_pre	0		120	37.0	2.5	/experiments/knapen_AOT/AOT_stimuli/rescaled_final/1562_fw.mp4	0.0	202.07500386238098	1.008432149887085
39	186.4946255683899	pulse	0	t		37.0	2.5	/experiments/knapen_AOT/AOT_stimuli/rescaled_final/1562_fw.mp4	0.0	202.65853309631348	
39	186.91952848434448	movie	1		276	37.0	2.5	/experiments/knapen_AOT/AOT_stimuli/rescaled_final/1562_fw.mp4	0.0	203.08343601226807	2.491997241973877
39	188.09315848350525	pulse	1	t		37.0	2.5	/experiments/knapen_AOT/AOT_stimuli/rescaled_final/1562_fw.mp4	0.0	204.25706601142883	
39	189.41152572631836	fix_post	2		12	37.0	2.5	/experiments/knapen_AOT/AOT_stimuli/rescaled_final/1562_fw.mp4	0.0	205.57543325424194	0.1000213623046875
40	189.51154708862305	fix_pre	0		120	38.0	2.5	/experiments/knapen_AOT/AOT_stimuli/rescaled_final/2141_rv.mp4	0.0	205.67545461654663	1.008490800857544
40	189.69518518447876	pulse	0	t		38.0	2.5	/experiments/knapen_AOT/AOT_stimuli/rescaled_final/2141_rv.mp4	0.0	205.85909271240234	
40	190.5200378894806	movie	1		274	38.0	2.5	/experiments/knapen_AOT/AOT_stimuli/rescaled_final/2141_rv.mp4	0.0	206.68394541740417	2.4920337200164795
40	191.29342222213745	pulse	1	t		38.0	2.5	/experiments/knapen_AOT/AOT_stimuli/rescaled_final/2141_rv.mp4	0.0	207.45732975006104	
40	192.89356541633606	pulse	1	t		38.0	2.5	/experiments/knapen_AOT/AOT_stimuli/rescaled_final/2141_rv.mp4	0.0	209.05747294425964	
40	193.01207160949707	fix_post	2		12	38.0	2.5	/experiments/knapen_AOT/AOT_stimuli/rescaled_final/2141_rv.mp4	0.0	209.17597913742065	0.10001921653747559
41	193.11209082603455	fix_pre	0		120	39.0	2.5	/experiments/knapen_AOT/AOT_stimuli/rescaled_final/1289_rv.mp4	0.0	209.27599835395813	1.0084724426269531
41	194.1205632686615	movie	1		269	39.0	2.5	/experiments/knapen_AOT/AOT_stimuli/rescaled_final/1289_rv.mp4	0.0	210.28447079658508	2.4920690059661865
41	194.49439978599548	pulse	1	t		39.0	2.5	/experiments/knapen_AOT/AOT_stimuli/rescaled_final/1289_rv.mp4	0.0	210.65830731391907	
41	196.09407496452332	pulse	1	t		39.0	2.5	/experiments/knapen_AOT/AOT_stimuli/rescaled_final/1289_rv.mp4	0.0	212.2579824924469	
41	196.61263227462769	fix_post	2		12	39.0	2.5	/experiments/knapen_AOT/AOT_stimuli/rescaled_final/1289_rv.mp4	0.0	212.77653980255127	0.10004878044128418
42	196.71268105506897	fix_pre	0		119	40.0	2.5	/experiments/knapen_AOT/AOT_stimuli/rescaled_final/0492_rv.mp4	0.0	212.87658858299255	1.0001211166381836
42	197.6963505744934	pulse	0	t		40.0	2.5	/experiments/knapen_AOT/AOT_stimuli/rescaled_final/0492_rv.mp4	0.0	213.860258102417	
42	197.71280217170715	movie	1		265	40.0	2.5	/experiments/knapen_AOT/AOT_stimuli/rescaled_final/0492_rv.mp4	0.0	213.87670969963074	2.5003719329833984
42	199.2969672679901	pulse	1	t		40.0	2.5	/experiments/knapen_AOT/AOT_stimuli/rescaled_final/0492_rv.mp4	0.0	215.4608747959137	
42	200.21317410469055	fix_post	2		12	40.0	2.5	/experiments/knapen_AOT/AOT_stimuli/rescaled_final/0492_rv.mp4	0.0	216.37708163261414	0.10001397132873535
43	200.3131880760193	fix_pre	0		120	41.0	2.5	/experiments/knapen_AOT/AOT_stimuli/rescaled_final/1759_fw.mp4	0.0	216.47709560394287	1.0084664821624756
43	200.89052438735962	pulse	0	t		41.0	2.5	/experiments/knapen_AOT/AOT_stimuli/rescaled_final/1759_fw.mp4	0.0	217.0544319152832	
43	201.32165455818176	movie	1		265	41.0	2.5	/experiments/knapen_AOT/AOT_stimuli/rescaled_final/1759_fw.mp4	0.0	217.48556208610535	2.4920403957366943
43	202.49516820907593	pulse	1	t		41.0	2.5	/experiments/knapen_AOT/AOT_stimuli/rescaled_final/1759_fw.mp4	0.0	218.6590757369995	
43	203.81369495391846	fix_post	2		12	41.0	2.5	/experiments/knapen_AOT/AOT_stimuli/rescaled_final/1759_fw.mp4	0.0	219.97760248184204	0.10001397132873535
44	203.9137089252472	fix_pre	0		120	42.0	2.5	blank	1.0	220.07761645317078	1.0001275539398193
44	204.09720945358276	pulse	0	t		42.0	2.5	blank	1.0	220.26111698150635	
44	204.913836479187	movie	1		300	42.0	2.5	blank	1.0	221.0777440071106	2.500441551208496
44	205.6975815296173	pulse	1	t		42.0	2.5	blank	1.0	221.8614890575409	
44	207.29779982566833	pulse	1	t		42.0	2.5	blank	1.0	223.46170735359192	
44	207.4142780303955	fix_post	2		12	42.0	2.5	blank	1.0	223.5781855583191	0.09996175765991211
45	207.51423978805542	fix_pre	0		120	43.0	2.5	/experiments/knapen_AOT/AOT_stimuli/rescaled_final/1726_rv.mp4	0.0	223.678147315979	1.008549451828003
45	208.52278923988342	movie	1		271	43.0	2.5	/experiments/knapen_AOT/AOT_stimuli/rescaled_final/1726_rv.mp4	0.0	224.686696767807	2.4920027256011963
45	208.89594960212708	pulse	1	t		43.0	2.5	/experiments/knapen_AOT/AOT_stimuli/rescaled_final/1726_rv.mp4	0.0	225.05985713005066	
45	210.4969699382782	pulse	1	t		43.0	2.5	/experiments/knapen_AOT/AOT_stimuli/rescaled_final/1726_rv.mp4	0.0	226.66087746620178	
45	211.01479196548462	fix_post	2		12	43.0	2.5	/experiments/knapen_AOT/AOT_stimuli/rescaled_final/1726_rv.mp4	0.0	227.1786994934082	0.09998559951782227
46	211.11477756500244	fix_pre	0		118	44.0	2.5	/experiments/knapen_AOT/AOT_stimuli/rescaled_final/1461_fw.mp4	0.0	227.27868509292603	0.9918453693389893
46	212.09053444862366	pulse	0	t		44.0	2.5	/experiments/knapen_AOT/AOT_stimuli/rescaled_final/1461_fw.mp4	0.0	228.25444197654724	
46	212.10662293434143	movie	1		279	44.0	2.5	/experiments/knapen_AOT/AOT_stimuli/rescaled_final/1461_fw.mp4	0.0	228.27053046226501	2.5004963874816895
46	213.6989941596985	pulse	1	t		44.0	2.5	/experiments/knapen_AOT/AOT_stimuli/rescaled_final/1461_fw.mp4	0.0	229.86290168762207	
46	214.60711932182312	fix_post	2		12	44.0	2.5	/experiments/knapen_AOT/AOT_stimuli/rescaled_final/1461_fw.mp4	0.0	230.7710268497467	0.09987115859985352
47	214.70699048042297	fix_pre	0		120	45.0	2.5	/experiments/knapen_AOT/AOT_stimuli/rescaled_final/0555_fw.mp4	0.0	230.87089800834656	1.008502721786499
47	215.2907314300537	pulse	0	t		45.0	2.5	/experiments/knapen_AOT/AOT_stimuli/rescaled_final/0555_fw.mp4	0.0	231.4546389579773	
47	215.71549320220947	movie	1		279	45.0	2.5	/experiments/knapen_AOT/AOT_stimuli/rescaled_final/0555_fw.mp4	0.0	231.87940073013306	2.4920196533203125
47	216.89091658592224	pulse	1	t		45.0	2.5	/experiments/knapen_AOT/AOT_stimuli/rescaled_final/0555_fw.mp4	0.0	233.05482411384583	
47	218.20751285552979	fix_post	2		12	45.0	2.5	/experiments/knapen_AOT/AOT_stimuli/rescaled_final/0555_fw.mp4	0.0	234.37142038345337	0.10003209114074707
48	218.30754494667053	fix_pre	0		120	46.0	2.5	/experiments/knapen_AOT/AOT_stimuli/rescaled_final/1835_rv.mp4	0.0	234.47145247459412	1.0085115432739258
48	218.49114775657654	pulse	0	t		46.0	2.5	/experiments/knapen_AOT/AOT_stimuli/rescaled_final/1835_rv.mp4	0.0	234.65505528450012	
48	219.31605648994446	movie	1		251	46.0	2.5	/experiments/knapen_AOT/AOT_stimuli/rescaled_final/1835_rv.mp4	0.0	235.47996401786804	2.491999387741089
48	220.09137558937073	pulse	1	t		46.0	2.5	/experiments/knapen_AOT/AOT_stimuli/rescaled_final/1835_rv.mp4	0.0	236.2552831172943	
48	221.69219875335693	pulse	1	t		46.0	2.5	/experiments/knapen_AOT/AOT_stimuli/rescaled_final/1835_rv.mp4	0.0	237.85610628128052	
48	221.80805587768555	fix_post	2		12	46.0	2.5	/experiments/knapen_AOT/AOT_stimuli/rescaled_final/1835_rv.mp4	0.0	237.97196340560913	0.10006427764892578
49	221.90812015533447	fix_pre	0		120	47.0	2.5	blank	1.0	238.07202768325806	1.000119924545288
49	222.90824007987976	movie	1		300	47.0	2.5	blank	1.0	239.07214760780334	2.5003645420074463
49	223.29192805290222	pulse	1	t		47.0	2.5	blank	1.0	239.4558355808258	
49	224.89237713813782	pulse	1	t		47.0	2.5	blank	1.0	241.0562846660614	
49	225.4086046218872	fix_post	2		12	47.0	2.5	blank	1.0	241.5725121498108	0.10000967979431152
50	225.50861430168152	fix_pre	0		119	48.0	2.5	/experiments/knapen_AOT/AOT_stimuli/rescaled_final/1690_rv.mp4	0.0	241.6725218296051	1.000119924545288
50	226.49239206314087	pulse	0	t		48.0	2.5	/experiments/knapen_AOT/AOT_stimuli/rescaled_final/1690_rv.mp4	0.0	242.65629959106445	
50	226.5087342262268	movie	1		287	48.0	2.5	/experiments/knapen_AOT/AOT_stimuli/rescaled_final/1690_rv.mp4	0.0	242.6726417541504	2.500432252883911
50	228.09110975265503	pulse	1	t		48.0	2.5	/experiments/knapen_AOT/AOT_stimuli/rescaled_final/1690_rv.mp4	0.0	244.2550172805786	
50	229.00916647911072	fix_post	2		12	48.0	2.5	/experiments/knapen_AOT/AOT_stimuli/rescaled_final/1690_rv.mp4	0.0	245.1730740070343	0.09999251365661621
51	229.10915899276733	fix_pre	0		120	49.0	2.5	/experiments/knapen_AOT/AOT_stimuli/rescaled_final/0244_rv.mp4	0.0	245.27306652069092	1.0085039138793945
51	229.6928517818451	pulse	0	t		49.0	2.5	/experiments/knapen_AOT/AOT_stimuli/rescaled_final/0244_rv.mp4	0.0	245.85675930976868	
51	230.11766290664673	movie	1		276	49.0	2.5	/experiments/knapen_AOT/AOT_stimuli/rescaled_final/0244_rv.mp4	0.0	246.2815704345703	2.492015838623047
51	231.29138088226318	pulse	1	t		49.0	2.5	/experiments/knapen_AOT/AOT_stimuli/rescaled_final/0244_rv.mp4	0.0	247.45528841018677	
51	232.60967874526978	fix_post	2		12	49.0	2.5	/experiments/knapen_AOT/AOT_stimuli/rescaled_final/0244_rv.mp4	0.0	248.77358627319336	0.10001969337463379
52	232.7096984386444	fix_pre	0		120	50.0	2.5	/experiments/knapen_AOT/AOT_stimuli/rescaled_final/1274_rv.mp4	0.0	248.873605966568	1.0084998607635498
52	232.89328956604004	pulse	0	t		50.0	2.5	/experiments/knapen_AOT/AOT_stimuli/rescaled_final/1274_rv.mp4	0.0	249.05719709396362	
52	233.71819829940796	movie	1		287	50.0	2.5	/experiments/knapen_AOT/AOT_stimuli/rescaled_final/1274_rv.mp4	0.0	249.88210582733154	2.4920260906219482
52	234.49158000946045	pulse	1	t		50.0	2.5	/experiments/knapen_AOT/AOT_stimuli/rescaled_final/1274_rv.mp4	0.0	250.65548753738403	
52	236.09196209907532	pulse	1	t		50.0	2.5	/experiments/knapen_AOT/AOT_stimuli/rescaled_final/1274_rv.mp4	0.0	252.2558696269989	
52	236.2102243900299	fix_post	2		12	50.0	2.5	/experiments/knapen_AOT/AOT_stimuli/rescaled_final/1274_rv.mp4	0.0	252.3741319179535	0.10000467300415039
53	236.31022906303406	fix_pre	0		120	51.0	2.5	/experiments/knapen_AOT/AOT_stimuli/rescaled_final/0045_rv.mp4	0.0	252.47413659095764	1.0085248947143555
53	237.3187539577484	movie	1		279	51.0	2.5	/experiments/knapen_AOT/AOT_stimuli/rescaled_final/0045_rv.mp4	0.0	253.482661485672	2.4919936656951904
53	237.6924331188202	pulse	1	t		51.0	2.5	/experiments/knapen_AOT/AOT_stimuli/rescaled_final/0045_rv.mp4	0.0	253.85634064674377	
53	239.2920277118683	pulse	1	t		51.0	2.5	/experiments/knapen_AOT/AOT_stimuli/rescaled_final/0045_rv.mp4	0.0	255.45593523979187	
53	239.8107476234436	fix_post	2		12	51.0	2.5	/experiments/knapen_AOT/AOT_stimuli/rescaled_final/0045_rv.mp4	0.0	255.9746551513672	0.1000373363494873
54	239.9107849597931	fix_pre	0		119	52.0	2.5	/experiments/knapen_AOT/AOT_stimuli/rescaled_final/1426_rv.mp4	0.0	256.0746924877167	1.0001816749572754
54	240.89471673965454	pulse	0	t		52.0	2.5	/experiments/knapen_AOT/AOT_stimuli/rescaled_final/1426_rv.mp4	0.0	257.0586242675781	
54	240.91096663475037	movie	1		279	52.0	2.5	/experiments/knapen_AOT/AOT_stimuli/rescaled_final/1426_rv.mp4	0.0	257.07487416267395	2.5003936290740967
54	242.4930055141449	pulse	1	t		52.0	2.5	/experiments/knapen_AOT/AOT_stimuli/rescaled_final/1426_rv.mp4	0.0	258.6569130420685	
54	243.41136026382446	fix_post	2		12	52.0	2.5	/experiments/knapen_AOT/AOT_stimuli/rescaled_final/1426_rv.mp4	0.0	259.57526779174805	0.09995341300964355
55	243.5113136768341	fix_pre	0		120	53.0	2.5	/experiments/knapen_AOT/AOT_stimuli/rescaled_final/0901_fw.mp4	0.0	259.6752212047577	1.0084896087646484
55	244.0952570438385	pulse	0	t		53.0	2.5	/experiments/knapen_AOT/AOT_stimuli/rescaled_final/0901_fw.mp4	0.0	260.2591645717621	
55	244.51980328559875	movie	1		284	53.0	2.5	/experiments/knapen_AOT/AOT_stimuli/rescaled_final/0901_fw.mp4	0.0	260.68371081352234	2.4920735359191895
55	245.69397163391113	pulse	1	t		53.0	2.5	/experiments/knapen_AOT/AOT_stimuli/rescaled_final/0901_fw.mp4	0.0	261.8578791618347	
55	247.01187682151794	fix_post	2		12	53.0	2.5	/experiments/knapen_AOT/AOT_stimuli/rescaled_final/0901_fw.mp4	0.0	263.1757843494415	0.09997200965881348
56	247.11184883117676	fix_pre	0		120	54.0	2.5	/experiments/knapen_AOT/AOT_stimuli/rescaled_final/1093_fw.mp4	0.0	263.27575635910034	1.0085093975067139
56	247.29544949531555	pulse	0	t		54.0	2.5	/experiments/knapen_AOT/AOT_stimuli/rescaled_final/1093_fw.mp4	0.0	263.45935702323914	
56	248.12035822868347	movie	1		275	54.0	2.5	/experiments/knapen_AOT/AOT_stimuli/rescaled_final/1093_fw.mp4	0.0	264.28426575660706	2.492047071456909
56	248.89509105682373	pulse	1	t		54.0	2.5	/experiments/knapen_AOT/AOT_stimuli/rescaled_final/1093_fw.mp4	0.0	265.0589985847473	
56	250.49623799324036	pulse	1	t		54.0	2.5	/experiments/knapen_AOT/AOT_stimuli/rescaled_final/1093_fw.mp4	0.0	266.66014552116394	
56	250.61240530014038	fix_post	2		12	54.0	2.5	/experiments/knapen_AOT/AOT_stimuli/rescaled_final/1093_fw.mp4	0.0	266.77631282806396	0.10006451606750488
57	250.71246981620789	fix_pre	0		120	55.0	2.5	/experiments/knapen_AOT/AOT_stimuli/rescaled_final/1011_fw.mp4	0.0	266.87637734413147	1.0084128379821777
57	251.72088265419006	movie	1		295	55.0	2.5	/experiments/knapen_AOT/AOT_stimuli/rescaled_final/1011_fw.mp4	0.0	267.88479018211365	2.492013931274414
57	252.09436631202698	pulse	1	t		55.0	2.5	/experiments/knapen_AOT/AOT_stimuli/rescaled_final/1011_fw.mp4	0.0	268.25827383995056	
57	253.69438862800598	pulse	1	t		55.0	2.5	/experiments/knapen_AOT/AOT_stimuli/rescaled_final/1011_fw.mp4	0.0	269.85829615592957	
57	254.21289658546448	fix_post	2		12	55.0	2.5	/experiments/knapen_AOT/AOT_stimuli/rescaled_final/1011_fw.mp4	0.0	270.37680411338806	0.10002923011779785
58	254.31292581558228	fix_pre	0		119	56.0	2.5	blank	1.0	270.47683334350586	0.9918301105499268
58	255.2966628074646	pulse	0	t		56.0	2.5	blank	1.0	271.4605703353882	
58	255.3047559261322	movie	1		301	56.0	2.5	blank	1.0	271.4686634540558	2.508725881576538
58	256.8969166278839	pulse	1	t		56.0	2.5	blank	1.0	273.0608241558075	
58	257.81348180770874	fix_post	2		12	56.0	2.5	blank	1.0	273.9773893356323	0.10000205039978027
59	257.9134838581085	fix_pre	0		120	57.0	2.5	/experiments/knapen_AOT/AOT_stimuli/rescaled_final/2158_fw.mp4	0.0	274.0773913860321	1.000117540359497
59	258.49710965156555	pulse	0	t		57.0	2.5	/experiments/knapen_AOT/AOT_stimuli/rescaled_final/2158_fw.mp4	0.0	274.66101717948914	
59	258.913601398468	movie	1		298	57.0	2.5	/experiments/knapen_AOT/AOT_stimuli/rescaled_final/2158_fw.mp4	0.0	275.0775089263916	2.500385046005249
59	260.0929985046387	pulse	1	t		57.0	2.5	/experiments/knapen_AOT/AOT_stimuli/rescaled_final/2158_fw.mp4	0.0	276.25690603256226	
59	261.41398644447327	fix_post	2		12	57.0	2.5	/experiments/knapen_AOT/AOT_stimuli/rescaled_final/2158_fw.mp4	0.0	277.57789397239685	0.1000068187713623
60	261.51399326324463	fix_pre	0		120	58.0	2.5	/experiments/knapen_AOT/AOT_stimuli/rescaled_final/1286_rv.mp4	0.0	277.6779007911682	1.008495807647705
60	261.69749546051025	pulse	0	t		58.0	2.5	/experiments/knapen_AOT/AOT_stimuli/rescaled_final/1286_rv.mp4	0.0	277.86140298843384	
60	262.52248907089233	movie	1		297	58.0	2.5	/experiments/knapen_AOT/AOT_stimuli/rescaled_final/1286_rv.mp4	0.0	278.6863965988159	2.4920413494110107
60	263.2933418750763	pulse	1	t		58.0	2.5	/experiments/knapen_AOT/AOT_stimuli/rescaled_final/1286_rv.mp4	0.0	279.4572494029999	
60	264.8936767578125	pulse	1	t		58.0	2.5	/experiments/knapen_AOT/AOT_stimuli/rescaled_final/1286_rv.mp4	0.0	281.0575842857361	
60	265.01453042030334	fix_post	2		12	58.0	2.5	/experiments/knapen_AOT/AOT_stimuli/rescaled_final/1286_rv.mp4	0.0	281.17843794822693	0.10002899169921875
61	265.11455941200256	fix_pre	0		120	59.0	2.5	/experiments/knapen_AOT/AOT_stimuli/rescaled_final/1930_fw.mp4	0.0	281.27846693992615	1.0084986686706543
61	266.1230580806732	movie	1		291	59.0	2.5	/experiments/knapen_AOT/AOT_stimuli/rescaled_final/1930_fw.mp4	0.0	282.2869656085968	2.4920520782470703
61	266.49585127830505	pulse	1	t		59.0	2.5	/experiments/knapen_AOT/AOT_stimuli/rescaled_final/1930_fw.mp4	0.0	282.65975880622864	
61	268.0987055301666	pulse	1	t		59.0	2.5	/experiments/knapen_AOT/AOT_stimuli/rescaled_final/1930_fw.mp4	0.0	284.2626130580902	
61	268.6151101589203	fix_post	2		12	59.0	2.5	/experiments/knapen_AOT/AOT_stimuli/rescaled_final/1930_fw.mp4	0.0	284.7790176868439	0.09998464584350586
62	268.7150948047638	fix_pre	0		118	60.0	2.5	/experiments/knapen_AOT/AOT_stimuli/rescaled_final/1755_rv.mp4	0.0	284.8790023326874	0.9918174743652344
62	269.6904327869415	pulse	0	t		60.0	2.5	/experiments/knapen_AOT/AOT_stimuli/rescaled_final/1755_rv.mp4	0.0	285.8543403148651	
62	269.706912279129	movie	1		298	60.0	2.5	/experiments/knapen_AOT/AOT_stimuli/rescaled_final/1755_rv.mp4	0.0	285.8708198070526	2.500358819961548
62	271.2907774448395	pulse	1	t		60.0	2.5	/experiments/knapen_AOT/AOT_stimuli/rescaled_final/1755_rv.mp4	0.0	287.45468497276306	
62	272.2072710990906	fix_post	2		12	60.0	2.5	/experiments/knapen_AOT/AOT_stimuli/rescaled_final/1755_rv.mp4	0.0	288.37117862701416	0.10000109672546387
63	272.30727219581604	fix_pre	0		120	61.0	2.5	/experiments/knapen_AOT/AOT_stimuli/rescaled_final/2171_rv.mp4	0.0	288.4711797237396	1.0001585483551025
63	272.8908944129944	pulse	0	t		61.0	2.5	/experiments/knapen_AOT/AOT_stimuli/rescaled_final/2171_rv.mp4	0.0	289.05480194091797	
63	273.30743074417114	movie	1		297	61.0	2.5	/experiments/knapen_AOT/AOT_stimuli/rescaled_final/2171_rv.mp4	0.0	289.4713382720947	2.500399589538574
63	274.4910707473755	pulse	1	t		61.0	2.5	/experiments/knapen_AOT/AOT_stimuli/rescaled_final/2171_rv.mp4	0.0	290.6549782752991	
63	275.8078303337097	fix_post	2		12	61.0	2.5	/experiments/knapen_AOT/AOT_stimuli/rescaled_final/2171_rv.mp4	0.0	291.9717378616333	0.10003113746643066
64	275.90786147117615	fix_pre	0		120	62.0	2.5	/experiments/knapen_AOT/AOT_stimuli/rescaled_final/2106_fw.mp4	0.0	292.07176899909973	1.0003159046173096
64	276.0913324356079	pulse	0	t		62.0	2.5	/experiments/knapen_AOT/AOT_stimuli/rescaled_final/2106_fw.mp4	0.0	292.2552399635315	
64	276.90817737579346	movie	1		297	62.0	2.5	/experiments/knapen_AOT/AOT_stimuli/rescaled_final/2106_fw.mp4	0.0	293.07208490371704	2.500166654586792
64	277.6915590763092	pulse	1	t		62.0	2.5	/experiments/knapen_AOT/AOT_stimuli/rescaled_final/2106_fw.mp4	0.0	293.8554666042328	
64	279.29177808761597	pulse	1	t		62.0	2.5	/experiments/knapen_AOT/AOT_stimuli/rescaled_final/2106_fw.mp4	0.0	295.45568561553955	
64	279.40834403038025	fix_post	2		12	62.0	2.5	/experiments/knapen_AOT/AOT_stimuli/rescaled_final/2106_fw.mp4	0.0	295.57225155830383	0.09999275207519531
65	279.50833678245544	fix_pre	0		120	63.0	2.5	blank	1.0	295.672244310379	1.0001842975616455
65	280.5085210800171	movie	1		300	63.0	2.5	blank	1.0	296.6724286079407	2.500394821166992
65	280.8922703266144	pulse	1	t		63.0	2.5	blank	1.0	297.05617785453796	
65	282.4923994541168	pulse	1	t		63.0	2.5	blank	1.0	298.6563069820404	
65	283.0089159011841	fix_post	2		12	63.0	2.5	blank	1.0	299.17282342910767	0.10000896453857422
66	283.10892486572266	fix_pre	0		119	64.0	2.5	/experiments/knapen_AOT/AOT_stimuli/rescaled_final/1207_fw.mp4	0.0	299.27283239364624	1.0002977848052979
66	284.09261536598206	pulse	0	t		64.0	2.5	/experiments/knapen_AOT/AOT_stimuli/rescaled_final/1207_fw.mp4	0.0	300.25652289390564	
66	284.10922265052795	movie	1		277	64.0	2.5	/experiments/knapen_AOT/AOT_stimuli/rescaled_final/1207_fw.mp4	0.0	300.27313017845154	2.500243902206421
66	285.69163489341736	pulse	1	t		64.0	2.5	/experiments/knapen_AOT/AOT_stimuli/rescaled_final/1207_fw.mp4	0.0	301.85554242134094	
66	286.6094665527344	fix_post	2		12	64.0	2.5	/experiments/knapen_AOT/AOT_stimuli/rescaled_final/1207_fw.mp4	0.0	302.77337408065796	0.10005736351013184
67	286.7095239162445	fix_pre	0		120	65.0	2.5	/experiments/knapen_AOT/AOT_stimuli/rescaled_final/0617_fw.mp4	0.0	302.8734314441681	1.008446455001831
67	287.29311323165894	pulse	0	t		65.0	2.5	/experiments/knapen_AOT/AOT_stimuli/rescaled_final/0617_fw.mp4	0.0	303.4570207595825	
67	287.71797037124634	movie	1		290	65.0	2.5	/experiments/knapen_AOT/AOT_stimuli/rescaled_final/0617_fw.mp4	0.0	303.8818778991699	2.492058515548706
67	288.8915054798126	pulse	1	t		65.0	2.5	/experiments/knapen_AOT/AOT_stimuli/rescaled_final/0617_fw.mp4	0.0	305.0554130077362	
67	290.21002888679504	fix_post	2		12	65.0	2.5	/experiments/knapen_AOT/AOT_stimuli/rescaled_final/0617_fw.mp4	0.0	306.3739364147186	0.0999746322631836
68	290.3100035190582	fix_pre	0		120	66.0	2.5	/experiments/knapen_AOT/AOT_stimuli/rescaled_final/0492_fw.mp4	0.0	306.4739110469818	1.0085070133209229
68	290.49366569519043	pulse	0	t		66.0	2.5	/experiments/knapen_AOT/AOT_stimuli/rescaled_final/0492_fw.mp4	0.0	306.657573223114	
68	291.31851053237915	movie	1		280	66.0	2.5	/experiments/knapen_AOT/AOT_stimuli/rescaled_final/0492_fw.mp4	0.0	307.48241806030273	2.492065668106079
68	292.091570854187	pulse	1	t		66.0	2.5	/experiments/knapen_AOT/AOT_stimuli/rescaled_final/0492_fw.mp4	0.0	308.2554783821106	
68	293.691987991333	pulse	1	t		66.0	2.5	/experiments/knapen_AOT/AOT_stimuli/rescaled_final/0492_fw.mp4	0.0	309.8558955192566	
68	293.81057620048523	fix_post	2		12	66.0	2.5	/experiments/knapen_AOT/AOT_stimuli/rescaled_final/0492_fw.mp4	0.0	309.9744837284088	0.10001778602600098
69	293.91059398651123	fix_pre	0		120	67.0	2.5	/experiments/knapen_AOT/AOT_stimuli/rescaled_final/1114_fw.mp4	0.0	310.0745015144348	1.0084633827209473
69	294.9190573692322	movie	1		284	67.0	2.5	/experiments/knapen_AOT/AOT_stimuli/rescaled_final/1114_fw.mp4	0.0	311.08296489715576	2.4921717643737793
69	295.29242730140686	pulse	1	t		67.0	2.5	/experiments/knapen_AOT/AOT_stimuli/rescaled_final/1114_fw.mp4	0.0	311.45633482933044	
69	296.8934862613678	pulse	1	t		67.0	2.5	/experiments/knapen_AOT/AOT_stimuli/rescaled_final/1114_fw.mp4	0.0	313.0573937892914	
69	297.41122913360596	fix_post	2		12	67.0	2.5	/experiments/knapen_AOT/AOT_stimuli/rescaled_final/1114_fw.mp4	0.0	313.57513666152954	0.09993720054626465
70	297.5111663341522	fix_pre	0		119	68.0	2.5	/experiments/knapen_AOT/AOT_stimuli/rescaled_final/1426_rv.mp4	0.0	313.6750738620758	1.0000941753387451
70	298.4948272705078	pulse	0	t		68.0	2.5	/experiments/knapen_AOT/AOT_stimuli/rescaled_final/1426_rv.mp4	0.0	314.6587347984314	
70	298.51126050949097	movie	1		276	68.0	2.5	/experiments/knapen_AOT/AOT_stimuli/rescaled_final/1426_rv.mp4	0.0	314.67516803741455	2.500370740890503
70	300.09521770477295	pulse	1	t		68.0	2.5	/experiments/knapen_AOT/AOT_stimuli/rescaled_final/1426_rv.mp4	0.0	316.25912523269653	
70	301.01163125038147	fix_post	2		12	68.0	2.5	/experiments/knapen_AOT/AOT_stimuli/rescaled_final/1426_rv.mp4	0.0	317.17553877830505	0.10001301765441895
71	301.1116442680359	fix_pre	0		120	69.0	2.5	blank	1.0	317.2755517959595	1.0001320838928223
71	301.69523549079895	pulse	0	t		69.0	2.5	blank	1.0	317.85914301872253	
71	302.1117763519287	movie	1		300	69.0	2.5	blank	1.0	318.2756838798523	2.5003786087036133
71	303.29550886154175	pulse	1	t		69.0	2.5	blank	1.0	319.45941638946533	
71	304.6121549606323	fix_post	2		12	69.0	2.5	blank	1.0	320.7760624885559	0.10008454322814941
72	304.7122395038605	fix_pre	0		120	70.0	2.5	/experiments/knapen_AOT/AOT_stimuli/rescaled_final/1222_rv.mp4	0.0	320.87614703178406	1.0084319114685059
72	304.895751953125	pulse	0	t		70.0	2.5	/experiments/knapen_AOT/AOT_stimuli/rescaled_final/1222_rv.mp4	0.0	321.0596594810486	
72	305.720671415329	movie	1		269	70.0	2.5	/experiments/knapen_AOT/AOT_stimuli/rescaled_final/1222_rv.mp4	0.0	321.88457894325256	2.4922220706939697
72	306.4939761161804	pulse	1	t		70.0	2.5	/experiments/knapen_AOT/AOT_stimuli/rescaled_final/1222_rv.mp4	0.0	322.657883644104	
72	308.0942258834839	pulse	1	t		70.0	2.5	/experiments/knapen_AOT/AOT_stimuli/rescaled_final/1222_rv.mp4	0.0	324.25813341140747	
72	308.21289348602295	fix_post	2		12	70.0	2.5	/experiments/knapen_AOT/AOT_stimuli/rescaled_final/1222_rv.mp4	0.0	324.37680101394653	0.09982466697692871
73	308.3127181529999	fix_pre	0		120	71.0	2.5	/experiments/knapen_AOT/AOT_stimuli/rescaled_final/0092_rv.mp4	0.0	324.47662568092346	1.0084993839263916
73	309.32121753692627	movie	1		281	71.0	2.5	/experiments/knapen_AOT/AOT_stimuli/rescaled_final/0092_rv.mp4	0.0	325.48512506484985	2.4920389652252197
73	309.69517254829407	pulse	1	t		71.0	2.5	/experiments/knapen_AOT/AOT_stimuli/rescaled_final/0092_rv.mp4	0.0	325.85908007621765	
73	311.29545760154724	pulse	1	t		71.0	2.5	/experiments/knapen_AOT/AOT_stimuli/rescaled_final/0092_rv.mp4	0.0	327.4593651294708	
73	311.8132565021515	fix_post	2		12	71.0	2.5	/experiments/knapen_AOT/AOT_stimuli/rescaled_final/0092_rv.mp4	0.0	327.9771640300751	0.10000967979431152
74	311.9132661819458	fix_pre	0		119	72.0	2.5	/experiments/knapen_AOT/AOT_stimuli/rescaled_final/1759_fw.mp4	0.0	328.0771737098694	1.000128984451294
74	312.89703488349915	pulse	0	t		72.0	2.5	/experiments/knapen_AOT/AOT_stimuli/rescaled_final/1759_fw.mp4	0.0	329.06094241142273	
74	312.9133951663971	movie	1		283	72.0	2.5	/experiments/knapen_AOT/AOT_stimuli/rescaled_final/1759_fw.mp4	0.0	329.0773026943207	2.500394344329834
74	314.49543833732605	pulse	1	t		72.0	2.5	/experiments/knapen_AOT/AOT_stimuli/rescaled_final/1759_fw.mp4	0.0	330.65934586524963	
74	315.41378951072693	fix_post	2		12	72.0	2.5	/experiments/knapen_AOT/AOT_stimuli/rescaled_final/1759_fw.mp4	0.0	331.5776970386505	0.1000204086303711
75	315.5138099193573	fix_pre	0		120	73.0	2.5	/experiments/knapen_AOT/AOT_stimuli/rescaled_final/1468_rv.mp4	0.0	331.6777174472809	1.0084853172302246
75	316.0976424217224	pulse	0	t		73.0	2.5	/experiments/knapen_AOT/AOT_stimuli/rescaled_final/1468_rv.mp4	0.0	332.261549949646	
75	316.5222952365875	movie	1		284	73.0	2.5	/experiments/knapen_AOT/AOT_stimuli/rescaled_final/1468_rv.mp4	0.0	332.6862027645111	2.492058038711548
75	317.69591093063354	pulse	1	t		73.0	2.5	/experiments/knapen_AOT/AOT_stimuli/rescaled_final/1468_rv.mp4	0.0	333.85981845855713	
75	319.0143532752991	fix_post	2		12	73.0	2.5	/experiments/knapen_AOT/AOT_stimuli/rescaled_final/1468_rv.mp4	0.0	335.17826080322266	0.1001129150390625
76	319.11446619033813	fix_pre	0		120	74.0	2.5	/experiments/knapen_AOT/AOT_stimuli/rescaled_final/0436_rv.mp4	0.0	335.2783737182617	1.0084068775177002
76	319.29024839401245	pulse	0	t		74.0	2.5	/experiments/knapen_AOT/AOT_stimuli/rescaled_final/0436_rv.mp4	0.0	335.45415592193604	
76	320.12287306785583	movie	1		283	74.0	2.5	/experiments/knapen_AOT/AOT_stimuli/rescaled_final/0436_rv.mp4	0.0	336.2867805957794	2.4920265674591064
76	320.8962061405182	pulse	1	t		74.0	2.5	/experiments/knapen_AOT/AOT_stimuli/rescaled_final/0436_rv.mp4	0.0	337.0601136684418	
76	322.49038791656494	pulse	1	t		74.0	2.5	/experiments/knapen_AOT/AOT_stimuli/rescaled_final/0436_rv.mp4	0.0	338.6542954444885	
76	322.61489963531494	fix_post	2		12	74.0	2.5	/experiments/knapen_AOT/AOT_stimuli/rescaled_final/0436_rv.mp4	0.0	338.7788071632385	0.10002374649047852
77	322.7149233818054	fix_pre	0		120	75.0	2.5	/experiments/knapen_AOT/AOT_stimuli/rescaled_final/0860_fw.mp4	0.0	338.878830909729	1.0084729194641113
77	323.72339630126953	movie	1		273	75.0	2.5	/experiments/knapen_AOT/AOT_stimuli/rescaled_final/0860_fw.mp4	0.0	339.8873038291931	2.492020606994629
77	324.090567111969	pulse	1	t		75.0	2.5	/experiments/knapen_AOT/AOT_stimuli/rescaled_final/0860_fw.mp4	0.0	340.2544746398926	
77	325.690545797348	pulse	1	t		75.0	2.5	/experiments/knapen_AOT/AOT_stimuli/rescaled_final/0860_fw.mp4	0.0	341.8544533252716	
77	326.21541690826416	fix_post	2		12	75.0	2.5	/experiments/knapen_AOT/AOT_stimuli/rescaled_final/0860_fw.mp4	0.0	342.37932443618774	0.10002446174621582
78	326.3154413700104	fix_pre	0		118	76.0	2.5	blank	1.0	342.47934889793396	0.9834282398223877
78	327.2908492088318	pulse	0	t		76.0	2.5	blank	1.0	343.45475673675537	
78	327.29886960983276	movie	1		301	76.0	2.5	blank	1.0	343.46277713775635	2.50874924659729
78	328.89102935791016	pulse	1	t		76.0	2.5	blank	1.0	345.05493688583374	
78	329.80761885643005	fix_post	2		12	76.0	2.5	blank	1.0	345.97152638435364	0.10010743141174316
79	329.9077262878418	fix_pre	0		120	77.0	2.5	/experiments/knapen_AOT/AOT_stimuli/rescaled_final/1789_fw.mp4	0.0	346.0716338157654	1.0084364414215088
79	330.49140644073486	pulse	0	t		77.0	2.5	/experiments/knapen_AOT/AOT_stimuli/rescaled_final/1789_fw.mp4	0.0	346.65531396865845	
79	330.9161627292633	movie	1		283	77.0	2.5	/experiments/knapen_AOT/AOT_stimuli/rescaled_final/1789_fw.mp4	0.0	347.0800702571869	2.492004871368408
79	332.0920035839081	pulse	1	t		77.0	2.5	/experiments/knapen_AOT/AOT_stimuli/rescaled_final/1789_fw.mp4	0.0	348.25591111183167	
79	333.4081676006317	fix_post	2		12	77.0	2.5	/experiments/knapen_AOT/AOT_stimuli/rescaled_final/1789_fw.mp4	0.0	349.5720751285553	0.10001611709594727
80	333.50818371772766	fix_pre	0		120	78.0	2.5	/experiments/knapen_AOT/AOT_stimuli/rescaled_final/0536_rv.mp4	0.0	349.67209124565125	1.0084903240203857
80	333.69168519973755	pulse	0	t		78.0	2.5	/experiments/knapen_AOT/AOT_stimuli/rescaled_final/0536_rv.mp4	0.0	349.85559272766113	
80	334.51667404174805	movie	1		279	78.0	2.5	/experiments/knapen_AOT/AOT_stimuli/rescaled_final/0536_rv.mp4	0.0	350.68058156967163	2.4920284748077393
80	335.2919247150421	pulse	1	t		78.0	2.5	/experiments/knapen_AOT/AOT_stimuli/rescaled_final/0536_rv.mp4	0.0	351.4558322429657	
80	336.8921892642975	pulse	1	t		78.0	2.5	/experiments/knapen_AOT/AOT_stimuli/rescaled_final/0536_rv.mp4	0.0	353.05609679222107	
80	337.0087025165558	fix_post	2		12	78.0	2.5	/experiments/knapen_AOT/AOT_stimuli/rescaled_final/0536_rv.mp4	0.0	353.17261004447937	0.10001420974731445
81	337.1087167263031	fix_pre	0		120	79.0	2.5	/experiments/knapen_AOT/AOT_stimuli/rescaled_final/0912_rv.mp4	0.0	353.2726242542267	1.0085084438323975
81	338.1172251701355	movie	1		279	79.0	2.5	/experiments/knapen_AOT/AOT_stimuli/rescaled_final/0912_rv.mp4	0.0	354.2811326980591	2.492053508758545
81	338.49071645736694	pulse	1	t		79.0	2.5	/experiments/knapen_AOT/AOT_stimuli/rescaled_final/0912_rv.mp4	0.0	354.6546239852905	
81	340.09092354774475	pulse	1	t		79.0	2.5	/experiments/knapen_AOT/AOT_stimuli/rescaled_final/0912_rv.mp4	0.0	356.25483107566833	
81	340.60927867889404	fix_post	2		12	79.0	2.5	/experiments/knapen_AOT/AOT_stimuli/rescaled_final/0912_rv.mp4	0.0	356.7731862068176	0.10002756118774414
82	340.7093062400818	fix_pre	0		119	80.0	2.5	/experiments/knapen_AOT/AOT_stimuli/rescaled_final/1978_rv.mp4	0.0	356.87321376800537	1.0001060962677002
82	341.6929669380188	pulse	0	t		80.0	2.5	/experiments/knapen_AOT/AOT_stimuli/rescaled_final/1978_rv.mp4	0.0	357.8568744659424	
82	341.7094123363495	movie	1		285	80.0	2.5	/experiments/knapen_AOT/AOT_stimuli/rescaled_final/1978_rv.mp4	0.0	357.87331986427307	2.5003581047058105
82	343.2926986217499	pulse	1	t		80.0	2.5	/experiments/knapen_AOT/AOT_stimuli/rescaled_final/1978_rv.mp4	0.0	359.45660614967346	
82	344.2097704410553	fix_post	2		12	80.0	2.5	/experiments/knapen_AOT/AOT_stimuli/rescaled_final/1978_rv.mp4	0.0	360.3736779689789	0.10003399848937988
83	344.3098044395447	fix_pre	0		120	81.0	2.5	/experiments/knapen_AOT/AOT_stimuli/rescaled_final/0622_rv.mp4	0.0	360.47371196746826	1.008509635925293
83	344.89355993270874	pulse	0	t		81.0	2.5	/experiments/knapen_AOT/AOT_stimuli/rescaled_final/0622_rv.mp4	0.0	361.0574674606323	
83	345.31831407546997	movie	1		269	81.0	2.5	/experiments/knapen_AOT/AOT_stimuli/rescaled_final/0622_rv.mp4	0.0	361.48222160339355	2.492034673690796
83	346.4935681819916	pulse	1	t		81.0	2.5	/experiments/knapen_AOT/AOT_stimuli/rescaled_final/0622_rv.mp4	0.0	362.65747570991516	
83	347.81034874916077	fix_post	2		12	81.0	2.5	/experiments/knapen_AOT/AOT_stimuli/rescaled_final/0622_rv.mp4	0.0	363.97425627708435	0.1000211238861084
84	347.9103698730469	fix_pre	0		120	82.0	2.5	blank	1.0	364.07427740097046	1.0002388954162598
84	348.09391713142395	pulse	0	t		82.0	2.5	blank	1.0	364.25782465934753	
84	348.91060876846313	movie	1		300	82.0	2.5	blank	1.0	365.0745162963867	2.5003058910369873
84	349.69415378570557	pulse	1	t		82.0	2.5	blank	1.0	365.85806131362915	
84	351.2945237159729	pulse	1	t		82.0	2.5	blank	1.0	367.4584312438965	
84	351.4109146595001	fix_post	2		12	82.0	2.5	blank	1.0	367.5748221874237	0.09996676445007324
85	351.5108814239502	fix_pre	0		120	83.0	2.5	/experiments/knapen_AOT/AOT_stimuli/rescaled_final/1836_fw.mp4	0.0	367.6747889518738	1.0084846019744873
85	352.5193660259247	movie	1		277	83.0	2.5	/experiments/knapen_AOT/AOT_stimuli/rescaled_final/1836_fw.mp4	0.0	368.68327355384827	2.492060661315918
85	352.8934075832367	pulse	1	t		83.0	2.5	/experiments/knapen_AOT/AOT_stimuli/rescaled_final/1836_fw.mp4	0.0	369.0573151111603	
85	354.493328332901	pulse	1	t		83.0	2.5	/experiments/knapen_AOT/AOT_stimuli/rescaled_final/1836_fw.mp4	0.0	370.6572358608246	
85	355.0114266872406	fix_post	2		12	83.0	2.5	/experiments/knapen_AOT/AOT_stimuli/rescaled_final/1836_fw.mp4	0.0	371.1753342151642	0.10001492500305176
87	355.11144161224365	stim	0		1716					371.27534914016724	14.302150011062622
87	356.09520149230957	pulse	0	t						372.25910902023315	
87	357.695339679718	pulse	0	t						373.8592472076416	
87	359.2955973148346	pulse	0	t						375.4595048427582	
87	360.89600348472595	pulse	0	t						377.05991101264954	
87	362.4960746765137	pulse	0	t						378.65998220443726	
87	364.09632086753845	pulse	0	t						380.26022839546204	
87	365.6966087818146	pulse	0	t						381.86051630973816	
87	367.29680919647217	pulse	0	t						383.46071672439575	
87	368.8971257209778	pulse	0	t						385.06103324890137	
