trial_nr	onset	event_type	phase	response	nr_frames	movie_index	movie_duration	movie_file	blank	onset_abs	duration
0	0.15001201629638672	stim	0		1126					49.44999313354492	9.382848024368286
0	9.524893045425415	response	0	space						58.82487416267395	
1	9.532860040664673	stim	0		12964					58.83284115791321	108.03317499160767
1	117.55592608451843	pulse	0	t						166.85590720176697	
1	117.56603503227234	stim	1		1717					166.86601614952087	14.308341026306152
1	119.15044808387756	pulse	1	t						168.4504292011261	
1	120.74959993362427	pulse	1	t						170.0495810508728	
1	122.3499219417572	pulse	1	t						171.64990305900574	
1	123.94942903518677	pulse	1	t						173.2494101524353	
1	125.5504539012909	pulse	1	t						174.85043501853943	
1	127.15027403831482	pulse	1	t						176.45025515556335	
1	128.75030994415283	pulse	1	t						178.05029106140137	
1	130.35018491744995	pulse	1	t						179.6501660346985	
2	131.8743760585785	fix_pre	0		11	0.0	2.5	/experiments/AOT/AOT_stimuli/rescaled_final/0308_rv.mp4	0.0	181.17435717582703	0.0915989875793457
2	131.95029497146606	pulse	0	t		0.0	2.5	/experiments/AOT/AOT_stimuli/rescaled_final/0308_rv.mp4	0.0	181.2502760887146	
2	131.96597504615784	movie	1		245	0.0	2.5	/experiments/AOT/AOT_stimuli/rescaled_final/0308_rv.mp4	0.0	181.26595616340637	2.508373975753784
2	133.55742597579956	pulse	1	t		0.0	2.5	/experiments/AOT/AOT_stimuli/rescaled_final/0308_rv.mp4	0.0	182.8574070930481	
2	134.47434902191162	fix_post	2		12	0.0	2.5	/experiments/AOT/AOT_stimuli/rescaled_final/0308_rv.mp4	0.0	183.77433013916016	0.10002899169921875
3	134.57437801361084	fix_pre	0		120	1.0	2.5	/experiments/AOT/AOT_stimuli/rescaled_final/1669_fw.mp4	0.0	183.87435913085938	0.999906063079834
3	135.15022706985474	pulse	0	t		1.0	2.5	/experiments/AOT/AOT_stimuli/rescaled_final/1669_fw.mp4	0.0	184.45020818710327	
3	135.57428407669067	movie	1		244	1.0	2.5	/experiments/AOT/AOT_stimuli/rescaled_final/1669_fw.mp4	0.0	184.8742651939392	2.500123977661133
3	136.75780987739563	pulse	1	t		1.0	2.5	/experiments/AOT/AOT_stimuli/rescaled_final/1669_fw.mp4	0.0	186.05779099464417	
3	138.0744080543518	fix_post	2		12	1.0	2.5	/experiments/AOT/AOT_stimuli/rescaled_final/1669_fw.mp4	0.0	187.37438917160034	0.09984993934631348
4	138.17425799369812	fix_pre	0		120	2.0	2.5	/experiments/AOT/AOT_stimuli/rescaled_final/1233_fw.mp4	0.0	187.47423911094666	1.0000391006469727
4	138.34946990013123	pulse	0	t		2.0	2.5	/experiments/AOT/AOT_stimuli/rescaled_final/1233_fw.mp4	0.0	187.64945101737976	
4	139.1742970943451	movie	1		243	2.0	2.5	/experiments/AOT/AOT_stimuli/rescaled_final/1233_fw.mp4	0.0	188.47427821159363	2.50003981590271
4	139.94941806793213	pulse	1	t		2.0	2.5	/experiments/AOT/AOT_stimuli/rescaled_final/1233_fw.mp4	0.0	189.24939918518066	
4	141.5564830303192	pulse	1	t		2.0	2.5	/experiments/AOT/AOT_stimuli/rescaled_final/1233_fw.mp4	0.0	190.85646414756775	
4	141.6743369102478	fix_post	2		12	2.0	2.5	/experiments/AOT/AOT_stimuli/rescaled_final/1233_fw.mp4	0.0	190.97431802749634	0.09996795654296875
5	141.77430486679077	fix_pre	0		120	3.0	2.5	/experiments/AOT/AOT_stimuli/rescaled_final/1347_fw.mp4	0.0	191.0742859840393	0.9999120235443115
5	142.77421689033508	movie	1		245	3.0	2.5	/experiments/AOT/AOT_stimuli/rescaled_final/1347_fw.mp4	0.0	192.07419800758362	2.5000531673431396
5	143.15740609169006	pulse	1	t		3.0	2.5	/experiments/AOT/AOT_stimuli/rescaled_final/1347_fw.mp4	0.0	192.4573872089386	
5	144.75045490264893	pulse	1	t		3.0	2.5	/experiments/AOT/AOT_stimuli/rescaled_final/1347_fw.mp4	0.0	194.05043601989746	
5	145.27427005767822	fix_post	2		12	3.0	2.5	/experiments/AOT/AOT_stimuli/rescaled_final/1347_fw.mp4	0.0	194.57425117492676	0.0999460220336914
6	145.3742160797119	fix_pre	0		119	4.0	2.5	/experiments/AOT/AOT_stimuli/rescaled_final/1956_rv.mp4	0.0	194.67419719696045	0.9917268753051758
6	146.3502140045166	pulse	0	t		4.0	2.5	/experiments/AOT/AOT_stimuli/rescaled_final/1956_rv.mp4	0.0	195.65019512176514	
6	146.3659429550171	movie	1		244	4.0	2.5	/experiments/AOT/AOT_stimuli/rescaled_final/1956_rv.mp4	0.0	195.66592407226562	2.508347988128662
6	147.95804595947266	pulse	1	t		4.0	2.5	/experiments/AOT/AOT_stimuli/rescaled_final/1956_rv.mp4	0.0	197.2580270767212	
6	148.87429094314575	fix_post	2		12	4.0	2.5	/experiments/AOT/AOT_stimuli/rescaled_final/1956_rv.mp4	0.0	198.1742720603943	0.09997296333312988
7	148.97426390647888	fix_pre	0		120	5.0	2.5	/experiments/AOT/AOT_stimuli/rescaled_final/1351_fw.mp4	0.0	198.27424502372742	0.9999721050262451
7	149.55023288726807	pulse	0	t		5.0	2.5	/experiments/AOT/AOT_stimuli/rescaled_final/1351_fw.mp4	0.0	198.8502140045166	
7	149.97423601150513	movie	1		243	5.0	2.5	/experiments/AOT/AOT_stimuli/rescaled_final/1351_fw.mp4	0.0	199.27421712875366	2.4999709129333496
7	151.15786600112915	pulse	1	t		5.0	2.5	/experiments/AOT/AOT_stimuli/rescaled_final/1351_fw.mp4	0.0	200.45784711837769	
7	152.47420692443848	fix_post	2		12	5.0	2.5	/experiments/AOT/AOT_stimuli/rescaled_final/1351_fw.mp4	0.0	201.774188041687	0.10011696815490723
8	152.57432389259338	fix_pre	0		120	6.0	2.5	/experiments/AOT/AOT_stimuli/rescaled_final/1004_rv.mp4	0.0	201.87430500984192	0.9998860359191895
8	152.75029397010803	pulse	0	t		6.0	2.5	/experiments/AOT/AOT_stimuli/rescaled_final/1004_rv.mp4	0.0	202.05027508735657	
8	153.57420992851257	movie	1		244	6.0	2.5	/experiments/AOT/AOT_stimuli/rescaled_final/1004_rv.mp4	0.0	202.8741910457611	2.5000369548797607
8	154.35032486915588	pulse	1	t		6.0	2.5	/experiments/AOT/AOT_stimuli/rescaled_final/1004_rv.mp4	0.0	203.65030598640442	
8	155.9561870098114	pulse	1	t		6.0	2.5	/experiments/AOT/AOT_stimuli/rescaled_final/1004_rv.mp4	0.0	205.25616812705994	
8	156.07424688339233	fix_post	2		12	6.0	2.5	/experiments/AOT/AOT_stimuli/rescaled_final/1004_rv.mp4	0.0	205.37422800064087	0.09996199607849121
9	156.17420887947083	fix_pre	0		120	7.0	2.5	blank	1.0	205.47418999671936	1.000014066696167
9	157.174222946167	movie	1		300	7.0	2.5	blank	1.0	206.47420406341553	2.499925136566162
9	157.55770206451416	pulse	1	t		7.0	2.5	blank	1.0	206.8576831817627	
9	159.15772604942322	pulse	1	t		7.0	2.5	blank	1.0	208.45770716667175	
9	159.67414808273315	fix_post	2		12	7.0	2.5	blank	1.0	208.9741291999817	0.10001301765441895
10	159.77416110038757	fix_pre	0		119	8.0	2.5	/experiments/AOT/AOT_stimuli/rescaled_final/1108_rv.mp4	0.0	209.0741422176361	0.9917237758636475
10	160.75025486946106	pulse	0	t		8.0	2.5	/experiments/AOT/AOT_stimuli/rescaled_final/1108_rv.mp4	0.0	210.0502359867096	
10	160.76588487625122	movie	1		244	8.0	2.5	/experiments/AOT/AOT_stimuli/rescaled_final/1108_rv.mp4	0.0	210.06586599349976	2.508352041244507
10	162.3586709499359	pulse	1	t		8.0	2.5	/experiments/AOT/AOT_stimuli/rescaled_final/1108_rv.mp4	0.0	211.65865206718445	
10	163.27423691749573	fix_post	2		12	8.0	2.5	/experiments/AOT/AOT_stimuli/rescaled_final/1108_rv.mp4	0.0	212.57421803474426	0.09991812705993652
11	163.37415504455566	fix_pre	0		120	9.0	2.5	/experiments/AOT/AOT_stimuli/rescaled_final/0276_fw.mp4	0.0	212.6741361618042	1.0000128746032715
11	163.95024609565735	pulse	0	t		9.0	2.5	/experiments/AOT/AOT_stimuli/rescaled_final/0276_fw.mp4	0.0	213.25022721290588	
11	164.37416791915894	movie	1		243	9.0	2.5	/experiments/AOT/AOT_stimuli/rescaled_final/0276_fw.mp4	0.0	213.67414903640747	2.5000059604644775
11	165.55775499343872	pulse	1	t		9.0	2.5	/experiments/AOT/AOT_stimuli/rescaled_final/0276_fw.mp4	0.0	214.85773611068726	
11	166.8741738796234	fix_post	2		12	9.0	2.5	/experiments/AOT/AOT_stimuli/rescaled_final/0276_fw.mp4	0.0	216.17415499687195	0.09996199607849121
12	166.9741358757019	fix_pre	0		120	10.0	2.5	/experiments/AOT/AOT_stimuli/rescaled_final/1363_rv.mp4	0.0	216.27411699295044	0.9999921321868896
12	167.15016198158264	pulse	0	t		10.0	2.5	/experiments/AOT/AOT_stimuli/rescaled_final/1363_rv.mp4	0.0	216.45014309883118	
12	167.9741280078888	movie	1		243	10.0	2.5	/experiments/AOT/AOT_stimuli/rescaled_final/1363_rv.mp4	0.0	217.27410912513733	2.4999849796295166
12	168.7501139640808	pulse	1	t		10.0	2.5	/experiments/AOT/AOT_stimuli/rescaled_final/1363_rv.mp4	0.0	218.05009508132935	
12	170.35603594779968	pulse	1	t		10.0	2.5	/experiments/AOT/AOT_stimuli/rescaled_final/1363_rv.mp4	0.0	219.65601706504822	
12	170.4741129875183	fix_post	2		12	10.0	2.5	/experiments/AOT/AOT_stimuli/rescaled_final/1363_rv.mp4	0.0	219.77409410476685	0.10000491142272949
13	170.57411789894104	fix_pre	0		120	11.0	2.5	/experiments/AOT/AOT_stimuli/rescaled_final/0428_rv.mp4	0.0	219.87409901618958	0.9999291896820068
13	171.57404708862305	movie	1		245	11.0	2.5	/experiments/AOT/AOT_stimuli/rescaled_final/0428_rv.mp4	0.0	220.87402820587158	2.500098943710327
13	171.95725107192993	pulse	1	t		11.0	2.5	/experiments/AOT/AOT_stimuli/rescaled_final/0428_rv.mp4	0.0	221.25723218917847	
13	173.55762791633606	pulse	1	t		11.0	2.5	/experiments/AOT/AOT_stimuli/rescaled_final/0428_rv.mp4	0.0	222.8576090335846	
13	174.07414603233337	fix_post	2		12	11.0	2.5	/experiments/AOT/AOT_stimuli/rescaled_final/0428_rv.mp4	0.0	223.3741271495819	0.09992289543151855
14	174.1740689277649	fix_pre	0		119	12.0	2.5	blank	1.0	223.47405004501343	0.9917490482330322
14	175.15761804580688	pulse	0	t		12.0	2.5	blank	1.0	224.45759916305542	
14	175.16581797599792	movie	1		301	12.0	2.5	blank	1.0	224.46579909324646	2.5079190731048584
14	176.75013089179993	pulse	1	t		12.0	2.5	blank	1.0	226.05011200904846	
14	177.67373704910278	fix_post	2		12	12.0	2.5	blank	1.0	226.97371816635132	0.09996294975280762
15	177.7736999988556	fix_pre	0		120	13.0	2.5	/experiments/AOT/AOT_stimuli/rescaled_final/1115_rv.mp4	0.0	227.07368111610413	1.0001449584960938
15	178.35728788375854	pulse	0	t		13.0	2.5	/experiments/AOT/AOT_stimuli/rescaled_final/1115_rv.mp4	0.0	227.65726900100708	
15	178.77384495735168	movie	1		243	13.0	2.5	/experiments/AOT/AOT_stimuli/rescaled_final/1115_rv.mp4	0.0	228.07382607460022	2.5002529621124268
15	179.95065593719482	pulse	1	t		13.0	2.5	/experiments/AOT/AOT_stimuli/rescaled_final/1115_rv.mp4	0.0	229.25063705444336	
15	181.2740979194641	fix_post	2		12	13.0	2.5	/experiments/AOT/AOT_stimuli/rescaled_final/1115_rv.mp4	0.0	230.57407903671265	0.10000205039978027
16	181.3740999698639	fix_pre	0		120	14.0	2.5	/experiments/AOT/AOT_stimuli/rescaled_final/1351_fw.mp4	0.0	230.67408108711243	0.9999990463256836
16	181.55009198188782	pulse	0	t		14.0	2.5	/experiments/AOT/AOT_stimuli/rescaled_final/1351_fw.mp4	0.0	230.85007309913635	
16	182.37409901618958	movie	1		243	14.0	2.5	/experiments/AOT/AOT_stimuli/rescaled_final/1351_fw.mp4	0.0	231.6740801334381	2.4999258518218994
16	183.15016794204712	pulse	1	t		14.0	2.5	/experiments/AOT/AOT_stimuli/rescaled_final/1351_fw.mp4	0.0	232.45014905929565	
16	184.7559380531311	pulse	1	t		14.0	2.5	/experiments/AOT/AOT_stimuli/rescaled_final/1351_fw.mp4	0.0	234.05591917037964	
16	184.87402486801147	fix_post	2		12	14.0	2.5	/experiments/AOT/AOT_stimuli/rescaled_final/1351_fw.mp4	0.0	234.17400598526	0.10001707077026367
17	184.97404193878174	fix_pre	0		120	15.0	2.5	/experiments/AOT/AOT_stimuli/rescaled_final/1779_rv.mp4	0.0	234.27402305603027	1.0000309944152832
17	185.97407293319702	movie	1		243	15.0	2.5	/experiments/AOT/AOT_stimuli/rescaled_final/1779_rv.mp4	0.0	235.27405405044556	2.5000009536743164
17	186.35771203041077	pulse	1	t		15.0	2.5	/experiments/AOT/AOT_stimuli/rescaled_final/1779_rv.mp4	0.0	235.6576931476593	
17	187.95004796981812	pulse	1	t		15.0	2.5	/experiments/AOT/AOT_stimuli/rescaled_final/1779_rv.mp4	0.0	237.25002908706665	
17	188.47407388687134	fix_post	2		12	15.0	2.5	/experiments/AOT/AOT_stimuli/rescaled_final/1779_rv.mp4	0.0	237.77405500411987	0.09993100166320801
18	188.57400488853455	fix_pre	0		119	16.0	2.5	/experiments/AOT/AOT_stimuli/rescaled_final/0106_fw.mp4	0.0	237.87398600578308	0.9916942119598389
18	189.55760502815247	pulse	0	t		16.0	2.5	/experiments/AOT/AOT_stimuli/rescaled_final/0106_fw.mp4	0.0	238.857586145401	
18	189.56569910049438	movie	1		244	16.0	2.5	/experiments/AOT/AOT_stimuli/rescaled_final/0106_fw.mp4	0.0	238.86568021774292	2.508293867111206
18	191.15860891342163	pulse	1	t		16.0	2.5	/experiments/AOT/AOT_stimuli/rescaled_final/0106_fw.mp4	0.0	240.45859003067017	
18	192.0739929676056	fix_post	2		12	16.0	2.5	/experiments/AOT/AOT_stimuli/rescaled_final/0106_fw.mp4	0.0	241.37397408485413	0.10005807876586914
19	192.17405104637146	fix_pre	0		120	17.0	2.5	/experiments/AOT/AOT_stimuli/rescaled_final/0349_fw.mp4	0.0	241.47403216362	0.9999699592590332
19	192.75752806663513	pulse	0	t		17.0	2.5	/experiments/AOT/AOT_stimuli/rescaled_final/0349_fw.mp4	0.0	242.05750918388367	
19	193.1740210056305	movie	1		242	17.0	2.5	/experiments/AOT/AOT_stimuli/rescaled_final/0349_fw.mp4	0.0	242.47400212287903	2.5013630390167236
19	194.35758090019226	pulse	1	t		17.0	2.5	/experiments/AOT/AOT_stimuli/rescaled_final/0349_fw.mp4	0.0	243.6575620174408	
19	195.67538404464722	fix_post	2		12	17.0	2.5	/experiments/AOT/AOT_stimuli/rescaled_final/0349_fw.mp4	0.0	244.97536516189575	0.09859490394592285
20	195.77397894859314	fix_pre	0		120	18.0	2.5	/experiments/AOT/AOT_stimuli/rescaled_final/1191_rv.mp4	0.0	245.07396006584167	1.0000660419464111
20	195.94997596740723	pulse	0	t		18.0	2.5	/experiments/AOT/AOT_stimuli/rescaled_final/1191_rv.mp4	0.0	245.24995708465576	
20	196.77404499053955	movie	1		245	18.0	2.5	/experiments/AOT/AOT_stimuli/rescaled_final/1191_rv.mp4	0.0	246.0740261077881	2.4995460510253906
20	197.55018186569214	pulse	1	t		18.0	2.5	/experiments/AOT/AOT_stimuli/rescaled_final/1191_rv.mp4	0.0	246.85016298294067	
20	199.15583205223083	pulse	1	t		18.0	2.5	/experiments/AOT/AOT_stimuli/rescaled_final/1191_rv.mp4	0.0	248.45581316947937	
20	199.27359104156494	fix_post	2		12	18.0	2.5	/experiments/AOT/AOT_stimuli/rescaled_final/1191_rv.mp4	0.0	248.57357215881348	0.10036492347717285
21	199.37395596504211	fix_pre	0		120	19.0	2.5	/experiments/AOT/AOT_stimuli/rescaled_final/0349_rv.mp4	0.0	248.67393708229065	1.0000250339508057
21	200.37398099899292	movie	1		244	19.0	2.5	/experiments/AOT/AOT_stimuli/rescaled_final/0349_rv.mp4	0.0	249.67396211624146	2.4997310638427734
21	200.75775408744812	pulse	1	t		19.0	2.5	/experiments/AOT/AOT_stimuli/rescaled_final/0349_rv.mp4	0.0	250.05773520469666	
21	202.35018396377563	pulse	1	t		19.0	2.5	/experiments/AOT/AOT_stimuli/rescaled_final/0349_rv.mp4	0.0	251.65016508102417	
21	202.8737120628357	fix_post	2		12	19.0	2.5	/experiments/AOT/AOT_stimuli/rescaled_final/0349_rv.mp4	0.0	252.17369318008423	0.1002969741821289
22	202.97400903701782	fix_pre	0		119	20.0	2.5	blank	1.0	252.27399015426636	0.99155592918396
22	203.94988894462585	pulse	0	t		20.0	2.5	blank	1.0	253.2498700618744	
22	203.96556496620178	movie	1		301	20.0	2.5	blank	1.0	253.26554608345032	2.5084240436553955
22	205.55749797821045	pulse	1	t		20.0	2.5	blank	1.0	254.85747909545898	
22	206.47398900985718	fix_post	2		12	20.0	2.5	blank	1.0	255.7739701271057	0.09998798370361328
23	206.5739769935608	fix_pre	0		120	21.0	2.5	/experiments/AOT/AOT_stimuli/rescaled_final/1363_fw.mp4	0.0	255.87395811080933	1.0000391006469727
23	207.15751695632935	pulse	0	t		21.0	2.5	/experiments/AOT/AOT_stimuli/rescaled_final/1363_fw.mp4	0.0	256.4574980735779	
23	207.57401609420776	movie	1		243	21.0	2.5	/experiments/AOT/AOT_stimuli/rescaled_final/1363_fw.mp4	0.0	256.8739972114563	2.4999489784240723
23	208.75050592422485	pulse	1	t		21.0	2.5	/experiments/AOT/AOT_stimuli/rescaled_final/1363_fw.mp4	0.0	258.0504870414734	
23	210.07396507263184	fix_post	2		12	21.0	2.5	/experiments/AOT/AOT_stimuli/rescaled_final/1363_fw.mp4	0.0	259.37394618988037	0.10012984275817871
24	210.17409491539001	fix_pre	0		120	22.0	2.5	/experiments/AOT/AOT_stimuli/rescaled_final/1233_rv.mp4	0.0	259.47407603263855	0.9998531341552734
24	210.35751008987427	pulse	0	t		22.0	2.5	/experiments/AOT/AOT_stimuli/rescaled_final/1233_rv.mp4	0.0	259.6574912071228	
24	211.1739480495453	movie	1		244	22.0	2.5	/experiments/AOT/AOT_stimuli/rescaled_final/1233_rv.mp4	0.0	260.4739291667938	2.5000948905944824
24	211.95002698898315	pulse	1	t		22.0	2.5	/experiments/AOT/AOT_stimuli/rescaled_final/1233_rv.mp4	0.0	261.2500081062317	
24	213.5559480190277	pulse	1	t		22.0	2.5	/experiments/AOT/AOT_stimuli/rescaled_final/1233_rv.mp4	0.0	262.85592913627625	
24	213.67404294013977	fix_post	2		12	22.0	2.5	/experiments/AOT/AOT_stimuli/rescaled_final/1233_rv.mp4	0.0	262.9740240573883	0.0998990535736084
25	213.77394199371338	fix_pre	0		120	23.0	2.5	/experiments/AOT/AOT_stimuli/rescaled_final/1271_rv.mp4	0.0	263.0739231109619	1.0001089572906494
25	214.77405095100403	movie	1		244	23.0	2.5	/experiments/AOT/AOT_stimuli/rescaled_final/1271_rv.mp4	0.0	264.07403206825256	2.4998340606689453
25	215.15689492225647	pulse	1	t		23.0	2.5	/experiments/AOT/AOT_stimuli/rescaled_final/1271_rv.mp4	0.0	264.456876039505	
25	216.75013089179993	pulse	1	t		23.0	2.5	/experiments/AOT/AOT_stimuli/rescaled_final/1271_rv.mp4	0.0	266.05011200904846	
25	217.27388501167297	fix_post	2		12	23.0	2.5	/experiments/AOT/AOT_stimuli/rescaled_final/1271_rv.mp4	0.0	266.5738661289215	0.10004305839538574
26	217.37392807006836	fix_pre	0		119	24.0	2.5	/experiments/AOT/AOT_stimuli/rescaled_final/0927_fw.mp4	0.0	266.6739091873169	0.9915909767150879
26	218.34998106956482	pulse	0	t		24.0	2.5	/experiments/AOT/AOT_stimuli/rescaled_final/0927_fw.mp4	0.0	267.64996218681335	
26	218.36551904678345	movie	1		243	24.0	2.5	/experiments/AOT/AOT_stimuli/rescaled_final/0927_fw.mp4	0.0	267.665500164032	2.507948875427246
26	219.95721793174744	pulse	1	t		24.0	2.5	/experiments/AOT/AOT_stimuli/rescaled_final/0927_fw.mp4	0.0	269.257199048996	
26	220.8734679222107	fix_post	2		12	24.0	2.5	/experiments/AOT/AOT_stimuli/rescaled_final/0927_fw.mp4	0.0	270.17344903945923	0.10041499137878418
27	220.97388291358948	fix_pre	0		120	25.0	2.5	/experiments/AOT/AOT_stimuli/rescaled_final/0118_fw.mp4	0.0	270.273864030838	1.0000271797180176
27	221.55744290351868	pulse	0	t		25.0	2.5	/experiments/AOT/AOT_stimuli/rescaled_final/0118_fw.mp4	0.0	270.8574240207672	
27	221.9739100933075	movie	1		243	25.0	2.5	/experiments/AOT/AOT_stimuli/rescaled_final/0118_fw.mp4	0.0	271.27389121055603	2.5000288486480713
27	223.15759086608887	pulse	1	t		25.0	2.5	/experiments/AOT/AOT_stimuli/rescaled_final/0118_fw.mp4	0.0	272.4575719833374	
27	224.47393894195557	fix_post	2		12	25.0	2.5	/experiments/AOT/AOT_stimuli/rescaled_final/0118_fw.mp4	0.0	273.7739200592041	0.09997010231018066
28	224.57390904426575	fix_pre	0		120	26.0	2.5	blank	1.0	273.8738901615143	1.000006914138794
28	224.75740098953247	pulse	0	t		26.0	2.5	blank	1.0	274.057382106781	
28	225.57391595840454	movie	1		300	26.0	2.5	blank	1.0	274.8738970756531	2.499997138977051
28	226.3574628829956	pulse	1	t		26.0	2.5	blank	1.0	275.65744400024414	
28	227.95005202293396	pulse	1	t		26.0	2.5	blank	1.0	277.2500331401825	
28	228.0739130973816	fix_post	2		12	26.0	2.5	blank	1.0	277.3738942146301	0.09998893737792969
29	228.17390203475952	fix_pre	0		120	27.0	2.5	/experiments/AOT/AOT_stimuli/rescaled_final/0157_fw.mp4	0.0	277.47388315200806	1.000053882598877
29	229.1739559173584	movie	1		243	27.0	2.5	/experiments/AOT/AOT_stimuli/rescaled_final/0157_fw.mp4	0.0	278.47393703460693	2.499981164932251
29	229.55694198608398	pulse	1	t		27.0	2.5	/experiments/AOT/AOT_stimuli/rescaled_final/0157_fw.mp4	0.0	278.8569231033325	
29	231.15008687973022	pulse	1	t		27.0	2.5	/experiments/AOT/AOT_stimuli/rescaled_final/0157_fw.mp4	0.0	280.45006799697876	
29	231.67393708229065	fix_post	2		12	27.0	2.5	/experiments/AOT/AOT_stimuli/rescaled_final/0157_fw.mp4	0.0	280.9739181995392	0.09990692138671875
30	231.77384400367737	fix_pre	0		119	28.0	2.5	/experiments/AOT/AOT_stimuli/rescaled_final/0566_rv.mp4	0.0	281.0738251209259	0.9916830062866211
30	232.75742888450623	pulse	0	t		28.0	2.5	/experiments/AOT/AOT_stimuli/rescaled_final/0566_rv.mp4	0.0	282.05741000175476	
30	232.765527009964	movie	1		245	28.0	2.5	/experiments/AOT/AOT_stimuli/rescaled_final/0566_rv.mp4	0.0	282.0655081272125	2.5081779956817627
30	234.35662698745728	pulse	1	t		28.0	2.5	/experiments/AOT/AOT_stimuli/rescaled_final/0566_rv.mp4	0.0	283.6566081047058	
30	235.27370500564575	fix_post	2		12	28.0	2.5	/experiments/AOT/AOT_stimuli/rescaled_final/0566_rv.mp4	0.0	284.5736861228943	0.0999300479888916
31	235.37363505363464	fix_pre	0		120	29.0	2.5	/experiments/AOT/AOT_stimuli/rescaled_final/1552_fw.mp4	0.0	284.6736161708832	1.0002148151397705
31	235.95721888542175	pulse	0	t		29.0	2.5	/experiments/AOT/AOT_stimuli/rescaled_final/1552_fw.mp4	0.0	285.2572000026703	
31	236.3738498687744	movie	1		244	29.0	2.5	/experiments/AOT/AOT_stimuli/rescaled_final/1552_fw.mp4	0.0	285.67383098602295	2.500153064727783
31	237.55741596221924	pulse	1	t		29.0	2.5	/experiments/AOT/AOT_stimuli/rescaled_final/1552_fw.mp4	0.0	286.8573970794678	
31	238.8740029335022	fix_post	2		12	29.0	2.5	/experiments/AOT/AOT_stimuli/rescaled_final/1552_fw.mp4	0.0	288.17398405075073	0.09986305236816406
32	238.97386598587036	fix_pre	0		120	30.0	2.5	/experiments/AOT/AOT_stimuli/rescaled_final/0958_rv.mp4	0.0	288.2738471031189	0.9999849796295166
32	239.15734004974365	pulse	0	t		30.0	2.5	/experiments/AOT/AOT_stimuli/rescaled_final/0958_rv.mp4	0.0	288.4573211669922	
32	239.97385096549988	movie	1		245	30.0	2.5	/experiments/AOT/AOT_stimuli/rescaled_final/0958_rv.mp4	0.0	289.2738320827484	2.499906063079834
32	240.7572500705719	pulse	1	t		30.0	2.5	/experiments/AOT/AOT_stimuli/rescaled_final/0958_rv.mp4	0.0	290.05723118782043	
32	242.3554539680481	pulse	1	t		30.0	2.5	/experiments/AOT/AOT_stimuli/rescaled_final/0958_rv.mp4	0.0	291.65543508529663	
32	242.4737570285797	fix_post	2		12	30.0	2.5	/experiments/AOT/AOT_stimuli/rescaled_final/0958_rv.mp4	0.0	291.77373814582825	0.1000518798828125
33	242.57380890846252	fix_pre	0		120	31.0	2.5	/experiments/AOT/AOT_stimuli/rescaled_final/1889_rv.mp4	0.0	291.87379002571106	0.9999971389770508
33	243.57380604743958	movie	1		247	31.0	2.5	/experiments/AOT/AOT_stimuli/rescaled_final/1889_rv.mp4	0.0	292.8737871646881	2.499577045440674
33	243.95829105377197	pulse	1	t		31.0	2.5	/experiments/AOT/AOT_stimuli/rescaled_final/1889_rv.mp4	0.0	293.2582721710205	
33	245.5572690963745	pulse	1	t		31.0	2.5	/experiments/AOT/AOT_stimuli/rescaled_final/1889_rv.mp4	0.0	294.85725021362305	
33	246.07338309288025	fix_post	2		12	31.0	2.5	/experiments/AOT/AOT_stimuli/rescaled_final/1889_rv.mp4	0.0	295.3733642101288	0.1004188060760498
34	246.1738018989563	fix_pre	0		119	32.0	2.5	/experiments/AOT/AOT_stimuli/rescaled_final/1184_fw.mp4	0.0	295.47378301620483	0.9916281700134277
34	247.15723299980164	pulse	0	t		32.0	2.5	/experiments/AOT/AOT_stimuli/rescaled_final/1184_fw.mp4	0.0	296.45721411705017	
34	247.16543006896973	movie	1		248	32.0	2.5	/experiments/AOT/AOT_stimuli/rescaled_final/1184_fw.mp4	0.0	296.46541118621826	2.5083329677581787
34	248.75678491592407	pulse	1	t		32.0	2.5	/experiments/AOT/AOT_stimuli/rescaled_final/1184_fw.mp4	0.0	298.0567660331726	
34	249.6737630367279	fix_post	2		12	32.0	2.5	/experiments/AOT/AOT_stimuli/rescaled_final/1184_fw.mp4	0.0	298.97374415397644	0.09992504119873047
35	249.77368807792664	fix_pre	0		120	33.0	2.5	/experiments/AOT/AOT_stimuli/rescaled_final/0677_rv.mp4	0.0	299.07366919517517	1.0001258850097656
35	250.34993505477905	pulse	0	t		33.0	2.5	/experiments/AOT/AOT_stimuli/rescaled_final/0677_rv.mp4	0.0	299.6499161720276	
35	250.7738139629364	movie	1		245	33.0	2.5	/experiments/AOT/AOT_stimuli/rescaled_final/0677_rv.mp4	0.0	300.07379508018494	2.499903917312622
35	251.95735001564026	pulse	1	t		33.0	2.5	/experiments/AOT/AOT_stimuli/rescaled_final/0677_rv.mp4	0.0	301.2573311328888	
35	253.27371788024902	fix_post	2		12	33.0	2.5	/experiments/AOT/AOT_stimuli/rescaled_final/0677_rv.mp4	0.0	302.57369899749756	0.10001707077026367
36	253.3737349510193	fix_pre	0		120	34.0	2.5	/experiments/AOT/AOT_stimuli/rescaled_final/0515_rv.mp4	0.0	302.6737160682678	1.0000629425048828
36	253.55722188949585	pulse	0	t		34.0	2.5	/experiments/AOT/AOT_stimuli/rescaled_final/0515_rv.mp4	0.0	302.8572030067444	
36	254.37379789352417	movie	1		243	34.0	2.5	/experiments/AOT/AOT_stimuli/rescaled_final/0515_rv.mp4	0.0	303.6737790107727	2.499983072280884
36	255.15725302696228	pulse	1	t		34.0	2.5	/experiments/AOT/AOT_stimuli/rescaled_final/0515_rv.mp4	0.0	304.4572341442108	
36	256.75637006759644	pulse	1	t		34.0	2.5	/experiments/AOT/AOT_stimuli/rescaled_final/0515_rv.mp4	0.0	306.05635118484497	
36	256.87378096580505	fix_post	2		12	34.0	2.5	/experiments/AOT/AOT_stimuli/rescaled_final/0515_rv.mp4	0.0	306.1737620830536	0.09991812705993652
37	256.973699092865	fix_pre	0		120	35.0	2.5	blank	1.0	306.2736802101135	1.0000238418579102
37	257.9737229347229	movie	1		300	35.0	2.5	blank	1.0	307.27370405197144	2.4999840259552
37	258.3572590351105	pulse	1	t		35.0	2.5	blank	1.0	307.657240152359	
37	259.9572730064392	pulse	1	t		35.0	2.5	blank	1.0	309.25725412368774	
37	260.4737069606781	fix_post	2		12	35.0	2.5	blank	1.0	309.77368807792664	0.0999610424041748
38	260.5736680030823	fix_pre	0		119	36.0	2.5	/experiments/AOT/AOT_stimuli/rescaled_final/1334_fw.mp4	0.0	309.8736491203308	0.9917020797729492
38	261.5572259426117	pulse	0	t		36.0	2.5	/experiments/AOT/AOT_stimuli/rescaled_final/1334_fw.mp4	0.0	310.85720705986023	
38	261.5653700828552	movie	1		246	36.0	2.5	/experiments/AOT/AOT_stimuli/rescaled_final/1334_fw.mp4	0.0	310.86535120010376	2.5084128379821777
38	263.1570670604706	pulse	1	t		36.0	2.5	/experiments/AOT/AOT_stimuli/rescaled_final/1334_fw.mp4	0.0	312.4570481777191	
38	264.0737829208374	fix_post	2		12	36.0	2.5	/experiments/AOT/AOT_stimuli/rescaled_final/1334_fw.mp4	0.0	313.37376403808594	0.10001015663146973
39	264.1737930774689	fix_pre	0		120	37.0	2.5	/experiments/AOT/AOT_stimuli/rescaled_final/1718_fw.mp4	0.0	313.4737741947174	0.9999899864196777
39	264.7498219013214	pulse	0	t		37.0	2.5	/experiments/AOT/AOT_stimuli/rescaled_final/1718_fw.mp4	0.0	314.04980301856995	
39	265.17378306388855	movie	1		245	37.0	2.5	/experiments/AOT/AOT_stimuli/rescaled_final/1718_fw.mp4	0.0	314.4737641811371	2.499924898147583
39	266.3572759628296	pulse	1	t		37.0	2.5	/experiments/AOT/AOT_stimuli/rescaled_final/1718_fw.mp4	0.0	315.6572570800781	
39	267.67370796203613	fix_post	2		12	37.0	2.5	/experiments/AOT/AOT_stimuli/rescaled_final/1718_fw.mp4	0.0	316.97368907928467	0.09997701644897461
40	267.7736849784851	fix_pre	0		120	38.0	2.5	/experiments/AOT/AOT_stimuli/rescaled_final/1827_rv.mp4	0.0	317.07366609573364	0.9999909400939941
40	267.9571199417114	pulse	0	t		38.0	2.5	/experiments/AOT/AOT_stimuli/rescaled_final/1827_rv.mp4	0.0	317.25710105895996	
40	268.7736759185791	movie	1		244	38.0	2.5	/experiments/AOT/AOT_stimuli/rescaled_final/1827_rv.mp4	0.0	318.07365703582764	2.4999890327453613
40	269.55723690986633	pulse	1	t		38.0	2.5	/experiments/AOT/AOT_stimuli/rescaled_final/1827_rv.mp4	0.0	318.85721802711487	
40	271.1557490825653	pulse	1	t		38.0	2.5	/experiments/AOT/AOT_stimuli/rescaled_final/1827_rv.mp4	0.0	320.45573019981384	
40	271.27366495132446	fix_post	2		12	38.0	2.5	/experiments/AOT/AOT_stimuli/rescaled_final/1827_rv.mp4	0.0	320.573646068573	0.10004401206970215
41	271.37370896339417	fix_pre	0		120	39.0	2.5	/experiments/AOT/AOT_stimuli/rescaled_final/1619_fw.mp4	0.0	320.6736900806427	1.0000560283660889
41	272.37376499176025	movie	1		245	39.0	2.5	/experiments/AOT/AOT_stimuli/rescaled_final/1619_fw.mp4	0.0	321.6737461090088	2.499924898147583
41	272.75658798217773	pulse	1	t		39.0	2.5	/experiments/AOT/AOT_stimuli/rescaled_final/1619_fw.mp4	0.0	322.05656909942627	
41	274.3571789264679	pulse	1	t		39.0	2.5	/experiments/AOT/AOT_stimuli/rescaled_final/1619_fw.mp4	0.0	323.65716004371643	
41	274.87368988990784	fix_post	2		12	39.0	2.5	/experiments/AOT/AOT_stimuli/rescaled_final/1619_fw.mp4	0.0	324.1736710071564	0.09997820854187012
42	274.9736680984497	fix_pre	0		119	40.0	2.5	blank	1.0	324.27364921569824	0.9916157722473145
42	275.95717692375183	pulse	0	t		40.0	2.5	blank	1.0	325.25715804100037	
42	275.965283870697	movie	1		301	40.0	2.5	blank	1.0	325.26526498794556	2.5083720684051514
42	277.5571930408478	pulse	1	t		40.0	2.5	blank	1.0	326.8571741580963	
42	278.4736559391022	fix_post	2		12	40.0	2.5	blank	1.0	327.7736370563507	0.09996700286865234
43	278.5736229419708	fix_pre	0		120	41.0	2.5	/experiments/AOT/AOT_stimuli/rescaled_final/0114_rv.mp4	0.0	327.87360405921936	1.0000579357147217
43	279.1571509838104	pulse	0	t		41.0	2.5	/experiments/AOT/AOT_stimuli/rescaled_final/0114_rv.mp4	0.0	328.45713210105896	
43	279.57368087768555	movie	1		244	41.0	2.5	/experiments/AOT/AOT_stimuli/rescaled_final/0114_rv.mp4	0.0	328.8736619949341	2.499936103820801
43	280.75722002983093	pulse	1	t		41.0	2.5	/experiments/AOT/AOT_stimuli/rescaled_final/0114_rv.mp4	0.0	330.05720114707947	
43	282.07361698150635	fix_post	2		12	41.0	2.5	/experiments/AOT/AOT_stimuli/rescaled_final/0114_rv.mp4	0.0	331.3735980987549	0.10001707077026367
44	282.1736340522766	fix_pre	0		120	42.0	2.5	/experiments/AOT/AOT_stimuli/rescaled_final/0805_fw.mp4	0.0	331.47361516952515	1.0000309944152832
44	282.35723900794983	pulse	0	t		42.0	2.5	/experiments/AOT/AOT_stimuli/rescaled_final/0805_fw.mp4	0.0	331.65722012519836	
44	283.1736650466919	movie	1		244	42.0	2.5	/experiments/AOT/AOT_stimuli/rescaled_final/0805_fw.mp4	0.0	332.47364616394043	2.500478982925415
44	283.95034098625183	pulse	1	t		42.0	2.5	/experiments/AOT/AOT_stimuli/rescaled_final/0805_fw.mp4	0.0	333.25032210350037	
44	285.5557510852814	pulse	1	t		42.0	2.5	/experiments/AOT/AOT_stimuli/rescaled_final/0805_fw.mp4	0.0	334.8557322025299	
44	285.6741440296173	fix_post	2		12	42.0	2.5	/experiments/AOT/AOT_stimuli/rescaled_final/0805_fw.mp4	0.0	334.97412514686584	0.09941792488098145
45	285.7735619544983	fix_pre	0		120	43.0	2.5	/experiments/AOT/AOT_stimuli/rescaled_final/1971_rv.mp4	0.0	335.0735430717468	1.0001099109649658
45	286.77367186546326	movie	1		246	43.0	2.5	/experiments/AOT/AOT_stimuli/rescaled_final/1971_rv.mp4	0.0	336.0736529827118	2.499908208847046
45	287.15656304359436	pulse	1	t		43.0	2.5	/experiments/AOT/AOT_stimuli/rescaled_final/1971_rv.mp4	0.0	336.4565441608429	
45	288.7567250728607	pulse	1	t		43.0	2.5	/experiments/AOT/AOT_stimuli/rescaled_final/1971_rv.mp4	0.0	338.05670619010925	
45	289.2735800743103	fix_post	2		12	43.0	2.5	/experiments/AOT/AOT_stimuli/rescaled_final/1971_rv.mp4	0.0	338.57356119155884	0.10005998611450195
46	289.3736400604248	fix_pre	0		119	44.0	2.5	/experiments/AOT/AOT_stimuli/rescaled_final/1974_rv.mp4	0.0	338.67362117767334	0.9917500019073486
46	290.3568580150604	pulse	0	t		44.0	2.5	/experiments/AOT/AOT_stimuli/rescaled_final/1974_rv.mp4	0.0	339.65683913230896	
46	290.36539006233215	movie	1		245	44.0	2.5	/experiments/AOT/AOT_stimuli/rescaled_final/1974_rv.mp4	0.0	339.6653711795807	2.5082578659057617
46	291.9574279785156	pulse	1	t		44.0	2.5	/experiments/AOT/AOT_stimuli/rescaled_final/1974_rv.mp4	0.0	341.25740909576416	
46	292.8736479282379	fix_post	2		12	44.0	2.5	/experiments/AOT/AOT_stimuli/rescaled_final/1974_rv.mp4	0.0	342.17362904548645	0.09994196891784668
47	292.97358989715576	fix_pre	0		120	45.0	2.5	/experiments/AOT/AOT_stimuli/rescaled_final/1347_rv.mp4	0.0	342.2735710144043	1.0000951290130615
47	293.5570640563965	pulse	0	t		45.0	2.5	/experiments/AOT/AOT_stimuli/rescaled_final/1347_rv.mp4	0.0	342.857045173645	
47	293.9736850261688	movie	1		244	45.0	2.5	/experiments/AOT/AOT_stimuli/rescaled_final/1347_rv.mp4	0.0	343.27366614341736	2.4999029636383057
47	295.1571559906006	pulse	1	t		45.0	2.5	/experiments/AOT/AOT_stimuli/rescaled_final/1347_rv.mp4	0.0	344.4571371078491	
47	296.47358798980713	fix_post	2		12	45.0	2.5	/experiments/AOT/AOT_stimuli/rescaled_final/1347_rv.mp4	0.0	345.77356910705566	0.1001129150390625
48	296.5737009048462	fix_pre	0		120	46.0	2.5	/experiments/AOT/AOT_stimuli/rescaled_final/0041_fw.mp4	0.0	345.8736820220947	0.9998540878295898
48	296.75701808929443	pulse	0	t		46.0	2.5	/experiments/AOT/AOT_stimuli/rescaled_final/0041_fw.mp4	0.0	346.05699920654297	
48	297.5735549926758	movie	1		248	46.0	2.5	/experiments/AOT/AOT_stimuli/rescaled_final/0041_fw.mp4	0.0	346.8735361099243	2.5000228881835938
48	298.35699486732483	pulse	1	t		46.0	2.5	/experiments/AOT/AOT_stimuli/rescaled_final/0041_fw.mp4	0.0	347.65697598457336	
48	299.9570119380951	pulse	1	t		46.0	2.5	/experiments/AOT/AOT_stimuli/rescaled_final/0041_fw.mp4	0.0	349.2569930553436	
48	300.0735778808594	fix_post	2		12	46.0	2.5	/experiments/AOT/AOT_stimuli/rescaled_final/0041_fw.mp4	0.0	349.3735589981079	0.09992718696594238
49	300.1735050678253	fix_pre	0		120	47.0	2.5	/experiments/AOT/AOT_stimuli/rescaled_final/1826_rv.mp4	0.0	349.47348618507385	1.0000419616699219
49	301.17354702949524	movie	1		245	47.0	2.5	/experiments/AOT/AOT_stimuli/rescaled_final/1826_rv.mp4	0.0	350.4735281467438	2.4999940395355225
49	301.5567409992218	pulse	1	t		47.0	2.5	/experiments/AOT/AOT_stimuli/rescaled_final/1826_rv.mp4	0.0	350.85672211647034	
49	303.1569359302521	pulse	1	t		47.0	2.5	/experiments/AOT/AOT_stimuli/rescaled_final/1826_rv.mp4	0.0	352.4569170475006	
49	303.67354106903076	fix_post	2		12	47.0	2.5	/experiments/AOT/AOT_stimuli/rescaled_final/1826_rv.mp4	0.0	352.9735221862793	0.10008001327514648
50	303.7736210823059	fix_pre	0		119	48.0	2.5	blank	1.0	353.07360219955444	0.9915390014648438
50	304.7570068836212	pulse	0	t		48.0	2.5	blank	1.0	354.05698800086975	
50	304.76516008377075	movie	1		301	48.0	2.5	blank	1.0	354.0651412010193	2.5083858966827393
50	306.35696291923523	pulse	1	t		48.0	2.5	blank	1.0	355.65694403648376	
50	307.2735459804535	fix_post	2		12	48.0	2.5	blank	1.0	356.573527097702	0.09992194175720215
51	307.3734679222107	fix_pre	0		120	49.0	2.5	/experiments/AOT/AOT_stimuli/rescaled_final/1826_fw.mp4	0.0	356.67344903945923	1.000162124633789
51	307.95692586898804	pulse	0	t		49.0	2.5	/experiments/AOT/AOT_stimuli/rescaled_final/1826_fw.mp4	0.0	357.2569069862366	
51	308.3736300468445	movie	1		247	49.0	2.5	/experiments/AOT/AOT_stimuli/rescaled_final/1826_fw.mp4	0.0	357.673611164093	2.4998619556427
51	309.5570020675659	pulse	1	t		49.0	2.5	/experiments/AOT/AOT_stimuli/rescaled_final/1826_fw.mp4	0.0	358.85698318481445	
51	310.8734920024872	fix_post	2		12	49.0	2.5	/experiments/AOT/AOT_stimuli/rescaled_final/1826_fw.mp4	0.0	360.1734731197357	0.1001129150390625
52	310.97360491752625	fix_pre	0		120	50.0	2.5	/experiments/AOT/AOT_stimuli/rescaled_final/1519_fw.mp4	0.0	360.2735860347748	0.9999380111694336
52	311.1569800376892	pulse	0	t		50.0	2.5	/experiments/AOT/AOT_stimuli/rescaled_final/1519_fw.mp4	0.0	360.45696115493774	
52	311.9735429286957	movie	1		246	50.0	2.5	/experiments/AOT/AOT_stimuli/rescaled_final/1519_fw.mp4	0.0	361.2735240459442	2.4999589920043945
52	312.7569749355316	pulse	1	t		50.0	2.5	/experiments/AOT/AOT_stimuli/rescaled_final/1519_fw.mp4	0.0	362.05695605278015	
52	314.3557450771332	pulse	1	t		50.0	2.5	/experiments/AOT/AOT_stimuli/rescaled_final/1519_fw.mp4	0.0	363.6557261943817	
52	314.4735019207001	fix_post	2		12	50.0	2.5	/experiments/AOT/AOT_stimuli/rescaled_final/1519_fw.mp4	0.0	363.7734830379486	0.09997701644897461
53	314.57347893714905	fix_pre	0		120	51.0	2.5	/experiments/AOT/AOT_stimuli/rescaled_final/1974_fw.mp4	0.0	363.8734600543976	1.000035047531128
53	315.5735139846802	movie	1		243	51.0	2.5	/experiments/AOT/AOT_stimuli/rescaled_final/1974_fw.mp4	0.0	364.8734951019287	2.5000529289245605
53	315.9564139842987	pulse	1	t		51.0	2.5	/experiments/AOT/AOT_stimuli/rescaled_final/1974_fw.mp4	0.0	365.25639510154724	
53	317.55691599845886	pulse	1	t		51.0	2.5	/experiments/AOT/AOT_stimuli/rescaled_final/1974_fw.mp4	0.0	366.8568971157074	
53	318.07356691360474	fix_post	2		12	51.0	2.5	/experiments/AOT/AOT_stimuli/rescaled_final/1974_fw.mp4	0.0	367.37354803085327	0.09993195533752441
54	318.17349886894226	fix_pre	0		119	52.0	2.5	/experiments/AOT/AOT_stimuli/rescaled_final/0691_fw.mp4	0.0	367.4734799861908	0.9915311336517334
54	319.1569058895111	pulse	0	t		52.0	2.5	/experiments/AOT/AOT_stimuli/rescaled_final/0691_fw.mp4	0.0	368.45688700675964	
54	319.165030002594	movie	1		244	52.0	2.5	/experiments/AOT/AOT_stimuli/rescaled_final/0691_fw.mp4	0.0	368.46501111984253	2.5084080696105957
54	320.7567570209503	pulse	1	t		52.0	2.5	/experiments/AOT/AOT_stimuli/rescaled_final/0691_fw.mp4	0.0	370.05673813819885	
54	321.6734380722046	fix_post	2		12	52.0	2.5	/experiments/AOT/AOT_stimuli/rescaled_final/0691_fw.mp4	0.0	370.9734191894531	0.10000491142272949
55	321.7734429836273	fix_pre	0		120	53.0	2.5	/experiments/AOT/AOT_stimuli/rescaled_final/0982_rv.mp4	0.0	371.07342410087585	1.0000650882720947
55	322.3569769859314	pulse	0	t		53.0	2.5	/experiments/AOT/AOT_stimuli/rescaled_final/0982_rv.mp4	0.0	371.65695810317993	
55	322.7735080718994	movie	1		243	53.0	2.5	/experiments/AOT/AOT_stimuli/rescaled_final/0982_rv.mp4	0.0	372.07348918914795	2.5000128746032715
55	323.9569978713989	pulse	1	t		53.0	2.5	/experiments/AOT/AOT_stimuli/rescaled_final/0982_rv.mp4	0.0	373.25697898864746	
55	325.2735209465027	fix_post	2		12	53.0	2.5	/experiments/AOT/AOT_stimuli/rescaled_final/0982_rv.mp4	0.0	374.5735020637512	0.09991097450256348
56	325.37343192100525	fix_pre	0		120	54.0	2.5	/experiments/AOT/AOT_stimuli/rescaled_final/0691_rv.mp4	0.0	374.6734130382538	1.0000941753387451
56	325.55693006515503	pulse	0	t		54.0	2.5	/experiments/AOT/AOT_stimuli/rescaled_final/0691_rv.mp4	0.0	374.85691118240356	
56	326.373526096344	movie	1		242	54.0	2.5	/experiments/AOT/AOT_stimuli/rescaled_final/0691_rv.mp4	0.0	375.67350721359253	2.499898910522461
56	327.15693402290344	pulse	1	t		54.0	2.5	/experiments/AOT/AOT_stimuli/rescaled_final/0691_rv.mp4	0.0	376.456915140152	
56	328.7554030418396	pulse	1	t		54.0	2.5	/experiments/AOT/AOT_stimuli/rescaled_final/0691_rv.mp4	0.0	378.05538415908813	
56	328.87342500686646	fix_post	2		12	54.0	2.5	/experiments/AOT/AOT_stimuli/rescaled_final/0691_rv.mp4	0.0	378.173406124115	0.10007500648498535
57	328.97350001335144	fix_pre	0		120	55.0	2.5	blank	1.0	378.2734811306	0.9999749660491943
57	329.97347497940063	movie	1		300	55.0	2.5	blank	1.0	379.27345609664917	2.49992299079895
57	330.3569278717041	pulse	1	t		55.0	2.5	blank	1.0	379.65690898895264	
57	331.95686197280884	pulse	1	t		55.0	2.5	blank	1.0	381.2568430900574	
57	332.4733979701996	fix_post	2		12	55.0	2.5	blank	1.0	381.7733790874481	0.10000801086425781
58	332.57340598106384	fix_pre	0		119	56.0	2.5	/experiments/AOT/AOT_stimuli/rescaled_final/0778_fw.mp4	0.0	381.8733870983124	0.9916119575500488
58	333.5569279193878	pulse	0	t		56.0	2.5	/experiments/AOT/AOT_stimuli/rescaled_final/0778_fw.mp4	0.0	382.85690903663635	
58	333.5650179386139	movie	1		245	56.0	2.5	/experiments/AOT/AOT_stimuli/rescaled_final/0778_fw.mp4	0.0	382.8649990558624	2.5083861351013184
58	335.1567690372467	pulse	1	t		56.0	2.5	/experiments/AOT/AOT_stimuli/rescaled_final/0778_fw.mp4	0.0	384.45675015449524	
58	336.0734040737152	fix_post	2		12	56.0	2.5	/experiments/AOT/AOT_stimuli/rescaled_final/0778_fw.mp4	0.0	385.37338519096375	0.09996581077575684
59	336.17336988449097	fix_pre	0		120	57.0	2.5	/experiments/AOT/AOT_stimuli/rescaled_final/0842_fw.mp4	0.0	385.4733510017395	1.000075101852417
59	336.7568619251251	pulse	0	t		57.0	2.5	/experiments/AOT/AOT_stimuli/rescaled_final/0842_fw.mp4	0.0	386.05684304237366	
59	337.1734449863434	movie	1		244	57.0	2.5	/experiments/AOT/AOT_stimuli/rescaled_final/0842_fw.mp4	0.0	386.4734261035919	2.499936103820801
59	338.3569390773773	pulse	1	t		57.0	2.5	/experiments/AOT/AOT_stimuli/rescaled_final/0842_fw.mp4	0.0	387.65692019462585	
59	339.6733810901642	fix_post	2		12	57.0	2.5	/experiments/AOT/AOT_stimuli/rescaled_final/0842_fw.mp4	0.0	388.9733622074127	0.10005593299865723
60	339.77343702316284	fix_pre	0		120	58.0	2.5	/experiments/AOT/AOT_stimuli/rescaled_final/0118_fw.mp4	0.0	389.0734181404114	1.0
60	339.95687794685364	pulse	0	t		58.0	2.5	/experiments/AOT/AOT_stimuli/rescaled_final/0118_fw.mp4	0.0	389.2568590641022	
60	340.77343702316284	movie	1		243	58.0	2.5	/experiments/AOT/AOT_stimuli/rescaled_final/0118_fw.mp4	0.0	390.0734181404114	2.500041961669922
60	341.55684208869934	pulse	1	t		58.0	2.5	/experiments/AOT/AOT_stimuli/rescaled_final/0118_fw.mp4	0.0	390.8568232059479	
60	343.1554219722748	pulse	1	t		58.0	2.5	/experiments/AOT/AOT_stimuli/rescaled_final/0118_fw.mp4	0.0	392.4554030895233	
60	343.27347898483276	fix_post	2		12	58.0	2.5	/experiments/AOT/AOT_stimuli/rescaled_final/0118_fw.mp4	0.0	392.5734601020813	0.09996294975280762
61	343.37344193458557	fix_pre	0		120	59.0	2.5	/experiments/AOT/AOT_stimuli/rescaled_final/0509_rv.mp4	0.0	392.6734230518341	0.9999849796295166
61	344.3734269142151	movie	1		248	59.0	2.5	/experiments/AOT/AOT_stimuli/rescaled_final/0509_rv.mp4	0.0	393.6734080314636	2.5001111030578613
61	344.7559759616852	pulse	1	t		59.0	2.5	/experiments/AOT/AOT_stimuli/rescaled_final/0509_rv.mp4	0.0	394.0559570789337	
61	346.356467962265	pulse	1	t		59.0	2.5	/experiments/AOT/AOT_stimuli/rescaled_final/0509_rv.mp4	0.0	395.65644907951355	
61	346.87353801727295	fix_post	2		12	59.0	2.5	/experiments/AOT/AOT_stimuli/rescaled_final/0509_rv.mp4	0.0	396.1735191345215	0.09999799728393555
62	346.9735360145569	fix_pre	0		119	60.0	2.5	/experiments/AOT/AOT_stimuli/rescaled_final/0963_fw.mp4	0.0	396.2735171318054	0.9914159774780273
62	347.9567220211029	pulse	0	t		60.0	2.5	/experiments/AOT/AOT_stimuli/rescaled_final/0963_fw.mp4	0.0	397.25670313835144	
62	347.9649519920349	movie	1		244	60.0	2.5	/experiments/AOT/AOT_stimuli/rescaled_final/0963_fw.mp4	0.0	397.26493310928345	2.5083398818969727
62	349.5560390949249	pulse	1	t		60.0	2.5	/experiments/AOT/AOT_stimuli/rescaled_final/0963_fw.mp4	0.0	398.85602021217346	
62	350.4732918739319	fix_post	2		12	60.0	2.5	/experiments/AOT/AOT_stimuli/rescaled_final/0963_fw.mp4	0.0	399.7732729911804	0.10000419616699219
63	350.5732960700989	fix_pre	0		120	61.0	2.5	/experiments/AOT/AOT_stimuli/rescaled_final/1114_rv.mp4	0.0	399.8732771873474	1.000079870223999
63	351.1567759513855	pulse	0	t		61.0	2.5	/experiments/AOT/AOT_stimuli/rescaled_final/1114_rv.mp4	0.0	400.45675706863403	
63	351.5733759403229	movie	1		242	61.0	2.5	/experiments/AOT/AOT_stimuli/rescaled_final/1114_rv.mp4	0.0	400.8733570575714	2.499871015548706
63	352.7567548751831	pulse	1	t		61.0	2.5	/experiments/AOT/AOT_stimuli/rescaled_final/1114_rv.mp4	0.0	402.05673599243164	
63	354.0732469558716	fix_post	2		12	61.0	2.5	/experiments/AOT/AOT_stimuli/rescaled_final/1114_rv.mp4	0.0	403.3732280731201	0.10001993179321289
64	354.1732668876648	fix_pre	0		120	62.0	2.5	/experiments/AOT/AOT_stimuli/rescaled_final/0169_rv.mp4	0.0	403.47324800491333	1.0000410079956055
64	354.35677003860474	pulse	0	t		62.0	2.5	/experiments/AOT/AOT_stimuli/rescaled_final/0169_rv.mp4	0.0	403.65675115585327	
64	355.1733078956604	movie	1		243	62.0	2.5	/experiments/AOT/AOT_stimuli/rescaled_final/0169_rv.mp4	0.0	404.47328901290894	2.4999051094055176
64	355.9567229747772	pulse	1	t		62.0	2.5	/experiments/AOT/AOT_stimuli/rescaled_final/0169_rv.mp4	0.0	405.25670409202576	
64	357.5553538799286	pulse	1	t		62.0	2.5	/experiments/AOT/AOT_stimuli/rescaled_final/0169_rv.mp4	0.0	406.8553349971771	
64	357.6732130050659	fix_post	2		12	62.0	2.5	/experiments/AOT/AOT_stimuli/rescaled_final/0169_rv.mp4	0.0	406.97319412231445	0.10004186630249023
65	357.7732548713684	fix_pre	0		120	63.0	2.5	blank	1.0	407.07323598861694	0.9999501705169678
65	358.7732050418854	movie	1		300	63.0	2.5	blank	1.0	408.0731861591339	2.4999890327453613
65	359.1568729877472	pulse	1	t		63.0	2.5	blank	1.0	408.4568541049957	
65	360.7567849159241	pulse	1	t		63.0	2.5	blank	1.0	410.0567660331726	
65	361.27319407463074	fix_post	2		12	63.0	2.5	blank	1.0	410.5731751918793	0.10002684593200684
66	361.37322092056274	fix_pre	0		119	64.0	2.5	/experiments/AOT/AOT_stimuli/rescaled_final/0350_rv.mp4	0.0	410.6732020378113	0.9917111396789551
66	362.35676193237305	pulse	0	t		64.0	2.5	/experiments/AOT/AOT_stimuli/rescaled_final/0350_rv.mp4	0.0	411.6567430496216	
66	362.3649320602417	movie	1		245	64.0	2.5	/experiments/AOT/AOT_stimuli/rescaled_final/0350_rv.mp4	0.0	411.66491317749023	2.508314847946167
66	363.95654702186584	pulse	1	t		64.0	2.5	/experiments/AOT/AOT_stimuli/rescaled_final/0350_rv.mp4	0.0	413.2565281391144	
66	364.87324690818787	fix_post	2		12	64.0	2.5	/experiments/AOT/AOT_stimuli/rescaled_final/0350_rv.mp4	0.0	414.1732280254364	0.09996414184570312
67	364.97321105003357	fix_pre	0		120	65.0	2.5	/experiments/AOT/AOT_stimuli/rescaled_final/1718_rv.mp4	0.0	414.2731921672821	1.000006914138794
67	365.5567560195923	pulse	0	t		65.0	2.5	/experiments/AOT/AOT_stimuli/rescaled_final/1718_rv.mp4	0.0	414.8567371368408	
67	365.97321796417236	movie	1		244	65.0	2.5	/experiments/AOT/AOT_stimuli/rescaled_final/1718_rv.mp4	0.0	415.2731990814209	2.5001559257507324
67	367.15673303604126	pulse	1	t		65.0	2.5	/experiments/AOT/AOT_stimuli/rescaled_final/1718_rv.mp4	0.0	416.4567141532898	
67	368.4733738899231	fix_post	2		12	65.0	2.5	/experiments/AOT/AOT_stimuli/rescaled_final/1718_rv.mp4	0.0	417.77335500717163	0.09979510307312012
68	368.5731689929962	fix_pre	0		120	66.0	2.5	/experiments/AOT/AOT_stimuli/rescaled_final/0691_rv.mp4	0.0	417.87315011024475	0.9999840259552002
68	368.75668597221375	pulse	0	t		66.0	2.5	/experiments/AOT/AOT_stimuli/rescaled_final/0691_rv.mp4	0.0	418.0566670894623	
68	369.5731530189514	movie	1		242	66.0	2.5	/experiments/AOT/AOT_stimuli/rescaled_final/0691_rv.mp4	0.0	418.87313413619995	2.5000250339508057
68	370.35686898231506	pulse	1	t		66.0	2.5	/experiments/AOT/AOT_stimuli/rescaled_final/0691_rv.mp4	0.0	419.6568500995636	
68	371.95534205436707	pulse	1	t		66.0	2.5	/experiments/AOT/AOT_stimuli/rescaled_final/0691_rv.mp4	0.0	421.2553231716156	
68	372.0731780529022	fix_post	2		12	66.0	2.5	/experiments/AOT/AOT_stimuli/rescaled_final/0691_rv.mp4	0.0	421.37315917015076	0.10000991821289062
69	372.1731879711151	fix_pre	0		120	67.0	2.5	/experiments/AOT/AOT_stimuli/rescaled_final/0894_rv.mp4	0.0	421.47316908836365	1.000049114227295
69	373.1732370853424	movie	1		243	67.0	2.5	/experiments/AOT/AOT_stimuli/rescaled_final/0894_rv.mp4	0.0	422.47321820259094	2.4999568462371826
69	373.55646896362305	pulse	1	t		67.0	2.5	/experiments/AOT/AOT_stimuli/rescaled_final/0894_rv.mp4	0.0	422.8564500808716	
69	375.15663290023804	pulse	1	t		67.0	2.5	/experiments/AOT/AOT_stimuli/rescaled_final/0894_rv.mp4	0.0	424.4566140174866	
69	375.6731939315796	fix_post	2		12	67.0	2.5	/experiments/AOT/AOT_stimuli/rescaled_final/0894_rv.mp4	0.0	424.9731750488281	0.09992313385009766
70	375.7731170654297	fix_pre	0		119	68.0	2.5	/experiments/AOT/AOT_stimuli/rescaled_final/0426_fw.mp4	0.0	425.0730981826782	0.9916918277740479
70	376.75661396980286	pulse	0	t		68.0	2.5	/experiments/AOT/AOT_stimuli/rescaled_final/0426_fw.mp4	0.0	426.0565950870514	
70	376.76480889320374	movie	1		246	68.0	2.5	/experiments/AOT/AOT_stimuli/rescaled_final/0426_fw.mp4	0.0	426.06479001045227	2.5083529949188232
70	378.3567478656769	pulse	1	t		68.0	2.5	/experiments/AOT/AOT_stimuli/rescaled_final/0426_fw.mp4	0.0	427.6567289829254	
70	379.27316188812256	fix_post	2		12	68.0	2.5	/experiments/AOT/AOT_stimuli/rescaled_final/0426_fw.mp4	0.0	428.5731430053711	0.100006103515625
71	379.3731679916382	fix_pre	0		120	69.0	2.5	blank	1.0	428.6731491088867	0.9999749660491943
71	379.95666909217834	pulse	0	t		69.0	2.5	blank	1.0	429.2566502094269	
71	380.3731429576874	movie	1		300	69.0	2.5	blank	1.0	429.6731240749359	2.500049114227295
71	381.55671405792236	pulse	1	t		69.0	2.5	blank	1.0	430.8566951751709	
71	382.8731920719147	fix_post	2		12	69.0	2.5	blank	1.0	432.1731731891632	0.09994196891784668
72	382.9731340408325	fix_pre	0		120	70.0	2.5	/experiments/AOT/AOT_stimuli/rescaled_final/0264_fw.mp4	0.0	432.27311515808105	1.000128984451294
72	383.1566309928894	pulse	0	t		70.0	2.5	/experiments/AOT/AOT_stimuli/rescaled_final/0264_fw.mp4	0.0	432.45661211013794	
72	383.9732630252838	movie	1		245	70.0	2.5	/experiments/AOT/AOT_stimuli/rescaled_final/0264_fw.mp4	0.0	433.27324414253235	2.499845027923584
72	384.7566978931427	pulse	1	t		70.0	2.5	/experiments/AOT/AOT_stimuli/rescaled_final/0264_fw.mp4	0.0	434.05667901039124	
72	386.3552689552307	pulse	1	t		70.0	2.5	/experiments/AOT/AOT_stimuli/rescaled_final/0264_fw.mp4	0.0	435.65525007247925	
72	386.4731080532074	fix_post	2		12	70.0	2.5	/experiments/AOT/AOT_stimuli/rescaled_final/0264_fw.mp4	0.0	435.77308917045593	0.10003304481506348
73	386.57314109802246	fix_pre	0		120	71.0	2.5	/experiments/AOT/AOT_stimuli/rescaled_final/1686_rv.mp4	0.0	435.873122215271	0.9999868869781494
73	387.5731279850006	movie	1		244	71.0	2.5	/experiments/AOT/AOT_stimuli/rescaled_final/1686_rv.mp4	0.0	436.87310910224915	2.5000529289245605
73	387.95694303512573	pulse	1	t		71.0	2.5	/experiments/AOT/AOT_stimuli/rescaled_final/1686_rv.mp4	0.0	437.25692415237427	
73	389.55664587020874	pulse	1	t		71.0	2.5	/experiments/AOT/AOT_stimuli/rescaled_final/1686_rv.mp4	0.0	438.8566269874573	
73	390.07318091392517	fix_post	2		12	71.0	2.5	/experiments/AOT/AOT_stimuli/rescaled_final/1686_rv.mp4	0.0	439.3731620311737	0.09992408752441406
74	390.1731050014496	fix_pre	0		119	72.0	2.5	/experiments/AOT/AOT_stimuli/rescaled_final/1323_fw.mp4	0.0	439.4730861186981	0.9916079044342041
74	391.15665006637573	pulse	0	t		72.0	2.5	/experiments/AOT/AOT_stimuli/rescaled_final/1323_fw.mp4	0.0	440.45663118362427	
74	391.1647129058838	movie	1		244	72.0	2.5	/experiments/AOT/AOT_stimuli/rescaled_final/1323_fw.mp4	0.0	440.4646940231323	2.5083069801330566
74	392.7561249732971	pulse	1	t		72.0	2.5	/experiments/AOT/AOT_stimuli/rescaled_final/1323_fw.mp4	0.0	442.05610609054565	
74	393.67301988601685	fix_post	2		12	72.0	2.5	/experiments/AOT/AOT_stimuli/rescaled_final/1323_fw.mp4	0.0	442.9730010032654	0.10006499290466309
75	393.7730848789215	fix_pre	0		120	73.0	2.5	/experiments/AOT/AOT_stimuli/rescaled_final/1444_rv.mp4	0.0	443.07306599617004	0.9999690055847168
75	394.3566150665283	pulse	0	t		73.0	2.5	/experiments/AOT/AOT_stimuli/rescaled_final/1444_rv.mp4	0.0	443.65659618377686	
75	394.7730538845062	movie	1		243	73.0	2.5	/experiments/AOT/AOT_stimuli/rescaled_final/1444_rv.mp4	0.0	444.07303500175476	2.5001649856567383
75	395.956661939621	pulse	1	t		73.0	2.5	/experiments/AOT/AOT_stimuli/rescaled_final/1444_rv.mp4	0.0	445.2566430568695	
75	397.27321887016296	fix_post	2		12	73.0	2.5	/experiments/AOT/AOT_stimuli/rescaled_final/1444_rv.mp4	0.0	446.5731999874115	0.09982109069824219
76	397.3730399608612	fix_pre	0		120	74.0	2.5	/experiments/AOT/AOT_stimuli/rescaled_final/0721_fw.mp4	0.0	446.67302107810974	1.0001909732818604
76	397.5565779209137	pulse	0	t		74.0	2.5	/experiments/AOT/AOT_stimuli/rescaled_final/0721_fw.mp4	0.0	446.85655903816223	
76	398.37323093414307	movie	1		246	74.0	2.5	/experiments/AOT/AOT_stimuli/rescaled_final/0721_fw.mp4	0.0	447.6732120513916	2.4998700618743896
76	399.1565959453583	pulse	1	t		74.0	2.5	/experiments/AOT/AOT_stimuli/rescaled_final/0721_fw.mp4	0.0	448.4565770626068	
76	400.7521789073944	pulse	1	t		74.0	2.5	/experiments/AOT/AOT_stimuli/rescaled_final/0721_fw.mp4	0.0	450.05216002464294	
76	400.87310099601746	fix_post	2		12	74.0	2.5	/experiments/AOT/AOT_stimuli/rescaled_final/0721_fw.mp4	0.0	450.173082113266	0.0996088981628418
77	400.9727098941803	fix_pre	0		120	75.0	2.5	blank	1.0	450.27269101142883	1.0004901885986328
77	401.97320008277893	movie	1		300	75.0	2.5	blank	1.0	451.27318120002747	2.499856948852539
77	402.35668992996216	pulse	1	t		75.0	2.5	blank	1.0	451.6566710472107	
77	403.9565770626068	pulse	1	t		75.0	2.5	blank	1.0	453.25655817985535	
77	404.47305703163147	fix_post	2		12	75.0	2.5	blank	1.0	453.77303814888	0.10000896453857422
78	404.57306599617004	fix_pre	0		119	76.0	2.5	/experiments/AOT/AOT_stimuli/rescaled_final/0927_fw.mp4	0.0	453.8730471134186	0.9916839599609375
78	405.55661702156067	pulse	0	t		76.0	2.5	/experiments/AOT/AOT_stimuli/rescaled_final/0927_fw.mp4	0.0	454.8565981388092	
78	405.564749956131	movie	1		245	76.0	2.5	/experiments/AOT/AOT_stimuli/rescaled_final/0927_fw.mp4	0.0	454.8647310733795	2.5082499980926514
78	407.1561789512634	pulse	1	t		76.0	2.5	/experiments/AOT/AOT_stimuli/rescaled_final/0927_fw.mp4	0.0	456.45616006851196	
78	408.07299995422363	fix_post	2		12	76.0	2.5	/experiments/AOT/AOT_stimuli/rescaled_final/0927_fw.mp4	0.0	457.37298107147217	0.1000370979309082
79	408.17303705215454	fix_pre	0		120	77.0	2.5	/experiments/AOT/AOT_stimuli/rescaled_final/0198_rv.mp4	0.0	457.4730181694031	0.9999558925628662
79	408.75647807121277	pulse	0	t		77.0	2.5	/experiments/AOT/AOT_stimuli/rescaled_final/0198_rv.mp4	0.0	458.0564591884613	
79	409.1729929447174	movie	1		246	77.0	2.5	/experiments/AOT/AOT_stimuli/rescaled_final/0198_rv.mp4	0.0	458.47297406196594	2.5000369548797607
79	410.35661792755127	pulse	1	t		77.0	2.5	/experiments/AOT/AOT_stimuli/rescaled_final/0198_rv.mp4	0.0	459.6565990447998	
79	411.67302989959717	fix_post	2		12	77.0	2.5	/experiments/AOT/AOT_stimuli/rescaled_final/0198_rv.mp4	0.0	460.9730110168457	0.09996914863586426
80	411.77299904823303	fix_pre	0		120	78.0	2.5	/experiments/AOT/AOT_stimuli/rescaled_final/0784_fw.mp4	0.0	461.07298016548157	0.9999630451202393
80	411.95649909973145	pulse	0	t		78.0	2.5	/experiments/AOT/AOT_stimuli/rescaled_final/0784_fw.mp4	0.0	461.25648021698	
80	412.77296209335327	movie	1		244	78.0	2.5	/experiments/AOT/AOT_stimuli/rescaled_final/0784_fw.mp4	0.0	462.0729432106018	2.5000178813934326
80	413.5565059185028	pulse	1	t		78.0	2.5	/experiments/AOT/AOT_stimuli/rescaled_final/0784_fw.mp4	0.0	462.85648703575134	
80	415.1551830768585	pulse	1	t		78.0	2.5	/experiments/AOT/AOT_stimuli/rescaled_final/0784_fw.mp4	0.0	464.45516419410706	
80	415.2729799747467	fix_post	2		12	78.0	2.5	/experiments/AOT/AOT_stimuli/rescaled_final/0784_fw.mp4	0.0	464.57296109199524	0.09995293617248535
81	415.3729329109192	fix_pre	0		120	79.0	2.5	/experiments/AOT/AOT_stimuli/rescaled_final/0891_fw.mp4	0.0	464.6729140281677	1.0001201629638672
81	416.37305307388306	movie	1		244	79.0	2.5	/experiments/AOT/AOT_stimuli/rescaled_final/0891_fw.mp4	0.0	465.6730341911316	2.4998679161071777
81	416.7558500766754	pulse	1	t		79.0	2.5	/experiments/AOT/AOT_stimuli/rescaled_final/0891_fw.mp4	0.0	466.05583119392395	
81	418.3564291000366	pulse	1	t		79.0	2.5	/experiments/AOT/AOT_stimuli/rescaled_final/0891_fw.mp4	0.0	467.65641021728516	
81	418.87292098999023	fix_post	2		12	79.0	2.5	/experiments/AOT/AOT_stimuli/rescaled_final/0891_fw.mp4	0.0	468.17290210723877	0.10006499290466309
82	418.9729859828949	fix_pre	0		119	80.0	2.5	/experiments/AOT/AOT_stimuli/rescaled_final/0194_fw.mp4	0.0	468.27296710014343	0.9916319847106934
82	419.95649099349976	pulse	0	t		80.0	2.5	/experiments/AOT/AOT_stimuli/rescaled_final/0194_fw.mp4	0.0	469.2564721107483	
82	419.9646179676056	movie	1		249	80.0	2.5	/experiments/AOT/AOT_stimuli/rescaled_final/0194_fw.mp4	0.0	469.2645990848541	2.508418083190918
82	421.5561740398407	pulse	1	t		80.0	2.5	/experiments/AOT/AOT_stimuli/rescaled_final/0194_fw.mp4	0.0	470.85615515708923	
82	422.4730360507965	fix_post	2		12	80.0	2.5	/experiments/AOT/AOT_stimuli/rescaled_final/0194_fw.mp4	0.0	471.77301716804504	0.09991288185119629
83	422.5729489326477	fix_pre	0		120	81.0	2.5	/experiments/AOT/AOT_stimuli/rescaled_final/0264_rv.mp4	0.0	471.87293004989624	1.000020980834961
83	423.1565589904785	pulse	0	t		81.0	2.5	/experiments/AOT/AOT_stimuli/rescaled_final/0264_rv.mp4	0.0	472.45654010772705	
83	423.57296991348267	movie	1		243	81.0	2.5	/experiments/AOT/AOT_stimuli/rescaled_final/0264_rv.mp4	0.0	472.8729510307312	2.499875068664551
83	424.75649905204773	pulse	1	t		81.0	2.5	/experiments/AOT/AOT_stimuli/rescaled_final/0264_rv.mp4	0.0	474.05648016929626	
83	426.0728449821472	fix_post	2		12	81.0	2.5	/experiments/AOT/AOT_stimuli/rescaled_final/0264_rv.mp4	0.0	475.37282609939575	0.10006308555603027
84	426.17290806770325	fix_pre	0		120	82.0	2.5	blank	1.0	475.4728891849518	1.000013828277588
84	426.3565020561218	pulse	0	t		82.0	2.5	blank	1.0	475.65648317337036	
84	427.17292189598083	movie	1		300	82.0	2.5	blank	1.0	476.47290301322937	2.500110149383545
84	427.9564199447632	pulse	1	t		82.0	2.5	blank	1.0	477.2564010620117	
84	429.55637192726135	pulse	1	t		82.0	2.5	blank	1.0	478.8563530445099	
84	429.6730320453644	fix_post	2		12	82.0	2.5	blank	1.0	478.9730131626129	0.0999898910522461
85	429.7730219364166	fix_pre	0		120	83.0	2.5	/experiments/AOT/AOT_stimuli/rescaled_final/1577_fw.mp4	0.0	479.07300305366516	0.9999649524688721
85	430.7729868888855	movie	1		245	83.0	2.5	/experiments/AOT/AOT_stimuli/rescaled_final/1577_fw.mp4	0.0	480.07296800613403	2.500030994415283
85	431.15601897239685	pulse	1	t		83.0	2.5	/experiments/AOT/AOT_stimuli/rescaled_final/1577_fw.mp4	0.0	480.4560000896454	
85	432.75643706321716	pulse	1	t		83.0	2.5	/experiments/AOT/AOT_stimuli/rescaled_final/1577_fw.mp4	0.0	482.0564181804657	
85	433.2730178833008	fix_post	2		12	83.0	2.5	/experiments/AOT/AOT_stimuli/rescaled_final/1577_fw.mp4	0.0	482.5729990005493	0.09995698928833008
87	433.3729748725891	stim	0		1716					482.67295598983765	14.299937009811401
87	434.35633993148804	pulse	0	t						483.6563210487366	
87	435.9563009738922	pulse	0	t						485.25628209114075	
87	437.5562958717346	pulse	0	t						486.85627698898315	
87	439.1564259529114	pulse	0	t						488.4564070701599	
87	440.7562999725342	pulse	0	t						490.0562810897827	
87	442.3562788963318	pulse	0	t						491.6562600135803	
87	443.95635199546814	pulse	0	t						493.2563331127167	
87	445.5563099384308	pulse	0	t						494.8562910556793	
87	447.1563980579376	pulse	0	t						496.45637917518616	
