trial_nr	onset	event_type	phase	response	nr_frames	movie_index	movie_duration	movie_file	blank	onset_abs	duration
0	0.208298921585083	stim	0		1					20.184446096420288	0.008247852325439453
0	0.19952082633972168	response	0	space						20.175668001174927	
1	0.21654677391052246	stim	0		4786					20.192693948745728	39.89974117279053
1	40.106618881225586	pulse	0	t						60.08276605606079	
1	40.11628794670105	stim	1		1715					60.092435121536255	14.300053834915161
1	41.69795489311218	pulse	1	t						61.67410206794739	
1	43.29823184013367	pulse	1	t						63.27437901496887	
1	44.8983519077301	pulse	1	t						64.87449908256531	
1	46.498679876327515	pulse	1	t						66.47482705116272	
1	48.09884786605835	pulse	1	t						68.07499504089355	
1	49.6991708278656	pulse	1	t						69.6753180027008	
1	51.2994339466095	pulse	1	t						71.2755811214447	
1	52.8996639251709	pulse	1	t						72.8758111000061	
2	54.41634178161621	fix_pre	0		11	0.0	2.5	/experiments/knapen_AOT/AOT_stimuli/rescaled_final/0462_rv.mp4	0.0	74.39248895645142	0.10019207000732422
2	54.499812841415405	pulse	0	t		0.0	2.5	/experiments/knapen_AOT/AOT_stimuli/rescaled_final/0462_rv.mp4	0.0	74.47596001625061	
2	54.516533851623535	movie	1		244	0.0	2.5	/experiments/knapen_AOT/AOT_stimuli/rescaled_final/0462_rv.mp4	0.0	74.49268102645874	2.5001330375671387
2	56.10062289237976	pulse	1	t		0.0	2.5	/experiments/knapen_AOT/AOT_stimuli/rescaled_final/0462_rv.mp4	0.0	76.07677006721497	
2	57.016666889190674	fix_post	2		12	0.0	2.5	/experiments/knapen_AOT/AOT_stimuli/rescaled_final/0462_rv.mp4	0.0	76.99281406402588	0.10006499290466309
3	57.11673188209534	fix_pre	0		120	1.0	2.5	/experiments/knapen_AOT/AOT_stimuli/rescaled_final/1489_fw.mp4	0.0	77.09287905693054	1.000108003616333
3	57.70042395591736	pulse	0	t		1.0	2.5	/experiments/knapen_AOT/AOT_stimuli/rescaled_final/1489_fw.mp4	0.0	77.67657113075256	
3	58.11683988571167	movie	1		243	1.0	2.5	/experiments/knapen_AOT/AOT_stimuli/rescaled_final/1489_fw.mp4	0.0	78.09298706054688	2.5003609657287598
3	59.30066895484924	pulse	1	t		1.0	2.5	/experiments/knapen_AOT/AOT_stimuli/rescaled_final/1489_fw.mp4	0.0	79.27681612968445	
3	60.61720085144043	fix_post	2		12	1.0	2.5	/experiments/knapen_AOT/AOT_stimuli/rescaled_final/1489_fw.mp4	0.0	80.59334802627563	0.10005998611450195
4	60.71726083755493	fix_pre	0		120	2.0	2.5	/experiments/knapen_AOT/AOT_stimuli/rescaled_final/0224_rv.mp4	0.0	80.69340801239014	1.000148057937622
4	60.90076994895935	pulse	0	t		2.0	2.5	/experiments/knapen_AOT/AOT_stimuli/rescaled_final/0224_rv.mp4	0.0	80.87691712379456	
4	61.717408895492554	movie	1		244	2.0	2.5	/experiments/knapen_AOT/AOT_stimuli/rescaled_final/0224_rv.mp4	0.0	81.69355607032776	2.5003530979156494
4	62.50114178657532	pulse	1	t		2.0	2.5	/experiments/knapen_AOT/AOT_stimuli/rescaled_final/0224_rv.mp4	0.0	82.47728896141052	
4	64.10147190093994	pulse	1	t		2.0	2.5	/experiments/knapen_AOT/AOT_stimuli/rescaled_final/0224_rv.mp4	0.0	84.07761907577515	
4	64.2177619934082	fix_post	2		12	2.0	2.5	/experiments/knapen_AOT/AOT_stimuli/rescaled_final/0224_rv.mp4	0.0	84.19390916824341	0.10004401206970215
5	64.3178060054779	fix_pre	0		119	3.0	2.5	/experiments/knapen_AOT/AOT_stimuli/rescaled_final/1917_fw.mp4	0.0	84.29395318031311	0.991783857345581
5	65.30958986282349	movie	1		245	3.0	2.5	/experiments/knapen_AOT/AOT_stimuli/rescaled_final/1917_fw.mp4	0.0	85.28573703765869	2.5003459453582764
5	65.70162892341614	pulse	1	t		3.0	2.5	/experiments/knapen_AOT/AOT_stimuli/rescaled_final/1917_fw.mp4	0.0	85.67777609825134	
5	67.30177283287048	pulse	1	t		3.0	2.5	/experiments/knapen_AOT/AOT_stimuli/rescaled_final/1917_fw.mp4	0.0	87.27792000770569	
5	67.80993580818176	fix_post	2		12	3.0	2.5	/experiments/knapen_AOT/AOT_stimuli/rescaled_final/1917_fw.mp4	0.0	87.78608298301697	0.10004210472106934
6	67.90997791290283	fix_pre	0		120	4.0	2.5	/experiments/knapen_AOT/AOT_stimuli/rescaled_final/0498_fw.mp4	0.0	87.88612508773804	1.0001819133758545
6	68.90203499794006	pulse	0	t		4.0	2.5	/experiments/knapen_AOT/AOT_stimuli/rescaled_final/0498_fw.mp4	0.0	88.87818217277527	
6	68.91015982627869	movie	1		245	4.0	2.5	/experiments/knapen_AOT/AOT_stimuli/rescaled_final/0498_fw.mp4	0.0	88.88630700111389	2.508711099624634
6	70.50649690628052	pulse	1	t		4.0	2.5	/experiments/knapen_AOT/AOT_stimuli/rescaled_final/0498_fw.mp4	0.0	90.48264408111572	
6	71.41887092590332	fix_post	2		12	4.0	2.5	/experiments/knapen_AOT/AOT_stimuli/rescaled_final/0498_fw.mp4	0.0	91.39501810073853	0.10000395774841309
7	71.51887488365173	fix_pre	0		120	5.0	2.5	blank	1.0	91.49502205848694	1.0001380443572998
7	72.10249185562134	pulse	0	t		5.0	2.5	blank	1.0	92.07863903045654	
7	72.51901292800903	movie	1		300	5.0	2.5	blank	1.0	92.49516010284424	2.500324010848999
7	73.70270299911499	pulse	1	t		5.0	2.5	blank	1.0	93.6788501739502	
7	75.01933693885803	fix_post	2		12	5.0	2.5	blank	1.0	94.99548411369324	0.10004401206970215
8	75.11938095092773	fix_pre	0		120	6.0	2.5	/experiments/knapen_AOT/AOT_stimuli/rescaled_final/0444_fw.mp4	0.0	95.09552812576294	1.0001590251922607
8	75.3028929233551	pulse	0	t		6.0	2.5	/experiments/knapen_AOT/AOT_stimuli/rescaled_final/0444_fw.mp4	0.0	95.27904009819031	
8	76.11953997612	movie	1		243	6.0	2.5	/experiments/knapen_AOT/AOT_stimuli/rescaled_final/0444_fw.mp4	0.0	96.0956871509552	2.5003559589385986
8	76.90320777893066	pulse	1	t		6.0	2.5	/experiments/knapen_AOT/AOT_stimuli/rescaled_final/0444_fw.mp4	0.0	96.87935495376587	
8	78.50342583656311	pulse	1	t		6.0	2.5	/experiments/knapen_AOT/AOT_stimuli/rescaled_final/0444_fw.mp4	0.0	98.47957301139832	
8	78.6198959350586	fix_post	2		12	6.0	2.5	/experiments/knapen_AOT/AOT_stimuli/rescaled_final/0444_fw.mp4	0.0	98.5960431098938	0.10003495216369629
9	78.71993088722229	fix_pre	0		120	7.0	2.5	/experiments/knapen_AOT/AOT_stimuli/rescaled_final/1467_rv.mp4	0.0	98.6960780620575	1.0001099109649658
9	79.72004079818726	movie	1		243	7.0	2.5	/experiments/knapen_AOT/AOT_stimuli/rescaled_final/1467_rv.mp4	0.0	99.69618797302246	2.492079973220825
9	80.10506582260132	pulse	1	t		7.0	2.5	/experiments/knapen_AOT/AOT_stimuli/rescaled_final/1467_rv.mp4	0.0	100.08121299743652	
9	81.69654178619385	pulse	1	t		7.0	2.5	/experiments/knapen_AOT/AOT_stimuli/rescaled_final/1467_rv.mp4	0.0	101.67268896102905	
9	82.21212077140808	fix_post	2		12	7.0	2.5	/experiments/knapen_AOT/AOT_stimuli/rescaled_final/1467_rv.mp4	0.0	102.18826794624329	0.10001516342163086
10	82.31213593482971	fix_pre	0		120	8.0	2.5	/experiments/knapen_AOT/AOT_stimuli/rescaled_final/1190_rv.mp4	0.0	102.28828310966492	1.0001649856567383
10	83.2965099811554	pulse	0	t		8.0	2.5	/experiments/knapen_AOT/AOT_stimuli/rescaled_final/1190_rv.mp4	0.0	103.2726571559906	
10	83.31230092048645	movie	1		244	8.0	2.5	/experiments/knapen_AOT/AOT_stimuli/rescaled_final/1190_rv.mp4	0.0	103.28844809532166	2.508652925491333
10	84.90925693511963	pulse	1	t		8.0	2.5	/experiments/knapen_AOT/AOT_stimuli/rescaled_final/1190_rv.mp4	0.0	104.88540410995483	
10	85.82095384597778	fix_post	2		12	8.0	2.5	/experiments/knapen_AOT/AOT_stimuli/rescaled_final/1190_rv.mp4	0.0	105.79710102081299	0.10002493858337402
11	85.92097878456116	fix_pre	0		120	9.0	2.5	/experiments/knapen_AOT/AOT_stimuli/rescaled_final/1190_fw.mp4	0.0	105.89712595939636	1.0001921653747559
11	86.49723100662231	pulse	0	t		9.0	2.5	/experiments/knapen_AOT/AOT_stimuli/rescaled_final/1190_fw.mp4	0.0	106.47337818145752	
11	86.92117094993591	movie	1		243	9.0	2.5	/experiments/knapen_AOT/AOT_stimuli/rescaled_final/1190_fw.mp4	0.0	106.89731812477112	2.5003368854522705
11	88.09699392318726	pulse	1	t		9.0	2.5	/experiments/knapen_AOT/AOT_stimuli/rescaled_final/1190_fw.mp4	0.0	108.07314109802246	
11	89.42150783538818	fix_post	2		12	9.0	2.5	/experiments/knapen_AOT/AOT_stimuli/rescaled_final/1190_fw.mp4	0.0	109.39765501022339	0.10004496574401855
12	89.5215528011322	fix_pre	0		120	10.0	2.5	/experiments/knapen_AOT/AOT_stimuli/rescaled_final/1467_rv.mp4	0.0	109.49769997596741	1.0001420974731445
12	89.69668984413147	pulse	0	t		10.0	2.5	/experiments/knapen_AOT/AOT_stimuli/rescaled_final/1467_rv.mp4	0.0	109.67283701896667	
12	90.52169489860535	movie	1		243	10.0	2.5	/experiments/knapen_AOT/AOT_stimuli/rescaled_final/1467_rv.mp4	0.0	110.49784207344055	2.5003750324249268
12	91.2970039844513	pulse	1	t		10.0	2.5	/experiments/knapen_AOT/AOT_stimuli/rescaled_final/1467_rv.mp4	0.0	111.2731511592865	
12	92.89737296104431	pulse	1	t		10.0	2.5	/experiments/knapen_AOT/AOT_stimuli/rescaled_final/1467_rv.mp4	0.0	112.87352013587952	
12	93.02206993103027	fix_post	2		12	10.0	2.5	/experiments/knapen_AOT/AOT_stimuli/rescaled_final/1467_rv.mp4	0.0	112.99821710586548	0.1000359058380127
13	93.12210583686829	fix_pre	0		120	11.0	2.5	/experiments/knapen_AOT/AOT_stimuli/rescaled_final/1118_fw.mp4	0.0	113.09825301170349	1.0001921653747559
13	94.12229800224304	movie	1		242	11.0	2.5	/experiments/knapen_AOT/AOT_stimuli/rescaled_final/1118_fw.mp4	0.0	114.09844517707825	2.492076873779297
13	94.49749279022217	pulse	1	t		11.0	2.5	/experiments/knapen_AOT/AOT_stimuli/rescaled_final/1118_fw.mp4	0.0	114.47363996505737	
13	96.09789681434631	pulse	1	t		11.0	2.5	/experiments/knapen_AOT/AOT_stimuli/rescaled_final/1118_fw.mp4	0.0	116.07404398918152	
13	96.61437487602234	fix_post	2		12	11.0	2.5	/experiments/knapen_AOT/AOT_stimuli/rescaled_final/1118_fw.mp4	0.0	116.59052205085754	0.09990811347961426
14	96.71428298950195	fix_pre	0		119	12.0	2.5	/experiments/knapen_AOT/AOT_stimuli/rescaled_final/0546_rv.mp4	0.0	116.69043016433716	0.9918379783630371
14	97.697988986969	pulse	0	t		12.0	2.5	/experiments/knapen_AOT/AOT_stimuli/rescaled_final/0546_rv.mp4	0.0	117.6741361618042	
14	97.70612096786499	movie	1		241	12.0	2.5	/experiments/knapen_AOT/AOT_stimuli/rescaled_final/0546_rv.mp4	0.0	117.6822681427002	2.5086498260498047
14	99.30261492729187	pulse	1	t		12.0	2.5	/experiments/knapen_AOT/AOT_stimuli/rescaled_final/0546_rv.mp4	0.0	119.27876210212708	
14	100.2147707939148	fix_post	2		12	12.0	2.5	/experiments/knapen_AOT/AOT_stimuli/rescaled_final/0546_rv.mp4	0.0	120.19091796875	0.10002398490905762
15	100.31479477882385	fix_pre	0		120	13.0	2.5	blank	1.0	120.29094195365906	1.0001771450042725
15	100.89858293533325	pulse	0	t		13.0	2.5	blank	1.0	120.87473011016846	
15	101.31497192382812	movie	1		300	13.0	2.5	blank	1.0	121.29111909866333	2.500372886657715
15	102.49868679046631	pulse	1	t		13.0	2.5	blank	1.0	122.47483396530151	
15	103.81534481048584	fix_post	2		12	13.0	2.5	blank	1.0	123.79149198532104	0.10000205039978027
16	103.91534686088562	fix_pre	0		120	14.0	2.5	/experiments/knapen_AOT/AOT_stimuli/rescaled_final/1518_fw.mp4	0.0	123.89149403572083	1.0001721382141113
16	104.09891986846924	pulse	0	t		14.0	2.5	/experiments/knapen_AOT/AOT_stimuli/rescaled_final/1518_fw.mp4	0.0	124.07506704330444	
16	104.91551899909973	movie	1		243	14.0	2.5	/experiments/knapen_AOT/AOT_stimuli/rescaled_final/1518_fw.mp4	0.0	124.89166617393494	2.5003299713134766
16	105.69924187660217	pulse	1	t		14.0	2.5	/experiments/knapen_AOT/AOT_stimuli/rescaled_final/1518_fw.mp4	0.0	125.67538905143738	
16	107.29932999610901	pulse	1	t		14.0	2.5	/experiments/knapen_AOT/AOT_stimuli/rescaled_final/1518_fw.mp4	0.0	127.27547717094421	
16	107.41584897041321	fix_post	2		12	14.0	2.5	/experiments/knapen_AOT/AOT_stimuli/rescaled_final/1518_fw.mp4	0.0	127.39199614524841	0.10004591941833496
17	107.51589488983154	fix_pre	0		120	15.0	2.5	/experiments/knapen_AOT/AOT_stimuli/rescaled_final/1660_fw.mp4	0.0	127.49204206466675	1.0001609325408936
17	108.51605582237244	movie	1		243	15.0	2.5	/experiments/knapen_AOT/AOT_stimuli/rescaled_final/1660_fw.mp4	0.0	128.49220299720764	2.4920361042022705
17	108.90095591545105	pulse	1	t		15.0	2.5	/experiments/knapen_AOT/AOT_stimuli/rescaled_final/1660_fw.mp4	0.0	128.87710309028625	
17	110.4998049736023	pulse	1	t		15.0	2.5	/experiments/knapen_AOT/AOT_stimuli/rescaled_final/1660_fw.mp4	0.0	130.4759521484375	
17	111.0080919265747	fix_post	2		12	15.0	2.5	/experiments/knapen_AOT/AOT_stimuli/rescaled_final/1660_fw.mp4	0.0	130.9842391014099	0.09996891021728516
18	111.10806083679199	fix_pre	0		120	16.0	2.5	/experiments/knapen_AOT/AOT_stimuli/rescaled_final/0283_rv.mp4	0.0	131.0842080116272	1.0002870559692383
18	112.10019087791443	pulse	0	t		16.0	2.5	/experiments/knapen_AOT/AOT_stimuli/rescaled_final/0283_rv.mp4	0.0	132.07633805274963	
18	112.10834789276123	movie	1		245	16.0	2.5	/experiments/knapen_AOT/AOT_stimuli/rescaled_final/0283_rv.mp4	0.0	132.08449506759644	2.5085930824279785
18	113.70089197158813	pulse	1	t		16.0	2.5	/experiments/knapen_AOT/AOT_stimuli/rescaled_final/0283_rv.mp4	0.0	133.67703914642334	
18	114.61694097518921	fix_post	2		12	16.0	2.5	/experiments/knapen_AOT/AOT_stimuli/rescaled_final/0283_rv.mp4	0.0	134.5930881500244	0.1000218391418457
19	114.71696281433105	fix_pre	0		120	17.0	2.5	/experiments/knapen_AOT/AOT_stimuli/rescaled_final/1487_rv.mp4	0.0	134.69310998916626	1.000143051147461
19	115.30063891410828	pulse	0	t		17.0	2.5	/experiments/knapen_AOT/AOT_stimuli/rescaled_final/1487_rv.mp4	0.0	135.27678608894348	
19	115.71710586547852	movie	1		244	17.0	2.5	/experiments/knapen_AOT/AOT_stimuli/rescaled_final/1487_rv.mp4	0.0	135.69325304031372	2.500365972518921
19	116.90083885192871	pulse	1	t		17.0	2.5	/experiments/knapen_AOT/AOT_stimuli/rescaled_final/1487_rv.mp4	0.0	136.87698602676392	
19	118.21747183799744	fix_post	2		12	17.0	2.5	/experiments/knapen_AOT/AOT_stimuli/rescaled_final/1487_rv.mp4	0.0	138.19361901283264	0.10002303123474121
20	118.31749486923218	fix_pre	0		120	18.0	2.5	/experiments/knapen_AOT/AOT_stimuli/rescaled_final/0429_rv.mp4	0.0	138.29364204406738	1.0001640319824219
20	118.50118398666382	pulse	0	t		18.0	2.5	/experiments/knapen_AOT/AOT_stimuli/rescaled_final/0429_rv.mp4	0.0	138.47733116149902	
20	119.3176589012146	movie	1		243	18.0	2.5	/experiments/knapen_AOT/AOT_stimuli/rescaled_final/0429_rv.mp4	0.0	139.2938060760498	2.500515937805176
20	120.10157990455627	pulse	1	t		18.0	2.5	/experiments/knapen_AOT/AOT_stimuli/rescaled_final/0429_rv.mp4	0.0	140.07772707939148	
20	121.70135879516602	pulse	1	t		18.0	2.5	/experiments/knapen_AOT/AOT_stimuli/rescaled_final/0429_rv.mp4	0.0	141.67750597000122	
20	121.81817483901978	fix_post	2		12	18.0	2.5	/experiments/knapen_AOT/AOT_stimuli/rescaled_final/0429_rv.mp4	0.0	141.79432201385498	0.09985494613647461
21	121.91802978515625	fix_pre	0		120	19.0	2.5	/experiments/knapen_AOT/AOT_stimuli/rescaled_final/1040_fw.mp4	0.0	141.89417695999146	1.0001780986785889
21	122.91820788383484	movie	1		243	19.0	2.5	/experiments/knapen_AOT/AOT_stimuli/rescaled_final/1040_fw.mp4	0.0	142.89435505867004	2.491992950439453
21	123.30296492576599	pulse	1	t		19.0	2.5	/experiments/knapen_AOT/AOT_stimuli/rescaled_final/1040_fw.mp4	0.0	143.2791121006012	
21	124.9020447731018	pulse	1	t		19.0	2.5	/experiments/knapen_AOT/AOT_stimuli/rescaled_final/1040_fw.mp4	0.0	144.878191947937	
21	125.41020083427429	fix_post	2		12	19.0	2.5	/experiments/knapen_AOT/AOT_stimuli/rescaled_final/1040_fw.mp4	0.0	145.3863480091095	0.10007214546203613
22	125.51027297973633	fix_pre	0		120	20.0	2.5	/experiments/knapen_AOT/AOT_stimuli/rescaled_final/1250_fw.mp4	0.0	145.48642015457153	1.0001440048217773
22	126.50237584114075	pulse	0	t		20.0	2.5	/experiments/knapen_AOT/AOT_stimuli/rescaled_final/1250_fw.mp4	0.0	146.47852301597595	
22	126.5104169845581	movie	1		246	20.0	2.5	/experiments/knapen_AOT/AOT_stimuli/rescaled_final/1250_fw.mp4	0.0	146.4865641593933	2.508652925491333
22	128.1029019355774	pulse	1	t		20.0	2.5	/experiments/knapen_AOT/AOT_stimuli/rescaled_final/1250_fw.mp4	0.0	148.0790491104126	
22	129.01906991004944	fix_post	2		12	20.0	2.5	/experiments/knapen_AOT/AOT_stimuli/rescaled_final/1250_fw.mp4	0.0	148.99521708488464	0.1000370979309082
23	129.11910700798035	fix_pre	0		120	21.0	2.5	blank	1.0	149.09525418281555	1.0001437664031982
23	129.7027509212494	pulse	0	t		21.0	2.5	blank	1.0	149.6788980960846	
23	130.11925077438354	movie	1		300	21.0	2.5	blank	1.0	150.09539794921875	2.5003840923309326
23	131.30295777320862	pulse	1	t		21.0	2.5	blank	1.0	151.27910494804382	
23	132.61963486671448	fix_post	2		12	21.0	2.5	blank	1.0	152.59578204154968	0.10002398490905762
24	132.71965885162354	fix_pre	0		120	22.0	2.5	/experiments/knapen_AOT/AOT_stimuli/rescaled_final/1433_rv.mp4	0.0	152.69580602645874	1.0001349449157715
24	132.9033079147339	pulse	0	t		22.0	2.5	/experiments/knapen_AOT/AOT_stimuli/rescaled_final/1433_rv.mp4	0.0	152.8794550895691	
24	133.7197937965393	movie	1		243	22.0	2.5	/experiments/knapen_AOT/AOT_stimuli/rescaled_final/1433_rv.mp4	0.0	153.6959409713745	2.500354051589966
24	134.49606084823608	pulse	1	t		22.0	2.5	/experiments/knapen_AOT/AOT_stimuli/rescaled_final/1433_rv.mp4	0.0	154.4722080230713	
24	136.10370588302612	pulse	1	t		22.0	2.5	/experiments/knapen_AOT/AOT_stimuli/rescaled_final/1433_rv.mp4	0.0	156.07985305786133	
24	136.22014784812927	fix_post	2		12	22.0	2.5	/experiments/knapen_AOT/AOT_stimuli/rescaled_final/1433_rv.mp4	0.0	156.19629502296448	0.10001707077026367
25	136.32016491889954	fix_pre	0		120	23.0	2.5	/experiments/knapen_AOT/AOT_stimuli/rescaled_final/1817_rv.mp4	0.0	156.29631209373474	1.0001590251922607
25	137.3203239440918	movie	1		244	23.0	2.5	/experiments/knapen_AOT/AOT_stimuli/rescaled_final/1817_rv.mp4	0.0	157.296471118927	2.492058038711548
25	137.7044858932495	pulse	1	t		23.0	2.5	/experiments/knapen_AOT/AOT_stimuli/rescaled_final/1817_rv.mp4	0.0	157.68063306808472	
25	139.29680180549622	pulse	1	t		23.0	2.5	/experiments/knapen_AOT/AOT_stimuli/rescaled_final/1817_rv.mp4	0.0	159.27294898033142	
25	139.81238198280334	fix_post	2		12	23.0	2.5	/experiments/knapen_AOT/AOT_stimuli/rescaled_final/1817_rv.mp4	0.0	159.78852915763855	0.10000085830688477
26	139.91238284111023	fix_pre	0		119	24.0	2.5	/experiments/knapen_AOT/AOT_stimuli/rescaled_final/0662_fw.mp4	0.0	159.88853001594543	0.9918279647827148
26	140.89619398117065	pulse	0	t		24.0	2.5	/experiments/knapen_AOT/AOT_stimuli/rescaled_final/0662_fw.mp4	0.0	160.87234115600586	
26	140.90421080589294	movie	1		244	24.0	2.5	/experiments/knapen_AOT/AOT_stimuli/rescaled_final/0662_fw.mp4	0.0	160.88035798072815	2.508695125579834
26	142.49672293663025	pulse	1	t		24.0	2.5	/experiments/knapen_AOT/AOT_stimuli/rescaled_final/0662_fw.mp4	0.0	162.47287011146545	
26	143.41290593147278	fix_post	2		12	24.0	2.5	/experiments/knapen_AOT/AOT_stimuli/rescaled_final/0662_fw.mp4	0.0	163.38905310630798	0.10000896453857422
27	143.51291489601135	fix_pre	0		120	25.0	2.5	/experiments/knapen_AOT/AOT_stimuli/rescaled_final/0715_rv.mp4	0.0	163.48906207084656	1.0002360343933105
27	144.09657382965088	pulse	0	t		25.0	2.5	/experiments/knapen_AOT/AOT_stimuli/rescaled_final/0715_rv.mp4	0.0	164.07272100448608	
27	144.51315093040466	movie	1		244	25.0	2.5	/experiments/knapen_AOT/AOT_stimuli/rescaled_final/0715_rv.mp4	0.0	164.48929810523987	2.5002670288085938
27	145.69684982299805	pulse	1	t		25.0	2.5	/experiments/knapen_AOT/AOT_stimuli/rescaled_final/0715_rv.mp4	0.0	165.67299699783325	
27	147.01341795921326	fix_post	2		12	25.0	2.5	/experiments/knapen_AOT/AOT_stimuli/rescaled_final/0715_rv.mp4	0.0	166.98956513404846	0.1000359058380127
28	147.11345386505127	fix_pre	0		120	26.0	2.5	/experiments/knapen_AOT/AOT_stimuli/rescaled_final/1518_rv.mp4	0.0	167.08960103988647	1.0001671314239502
28	147.2969868183136	pulse	0	t		26.0	2.5	/experiments/knapen_AOT/AOT_stimuli/rescaled_final/1518_rv.mp4	0.0	167.2731339931488	
28	148.11362099647522	movie	1		243	26.0	2.5	/experiments/knapen_AOT/AOT_stimuli/rescaled_final/1518_rv.mp4	0.0	168.08976817131042	2.5003538131713867
28	148.89731192588806	pulse	1	t		26.0	2.5	/experiments/knapen_AOT/AOT_stimuli/rescaled_final/1518_rv.mp4	0.0	168.87345910072327	
28	150.49752688407898	pulse	1	t		26.0	2.5	/experiments/knapen_AOT/AOT_stimuli/rescaled_final/1518_rv.mp4	0.0	170.47367405891418	
28	150.6139748096466	fix_post	2		12	26.0	2.5	/experiments/knapen_AOT/AOT_stimuli/rescaled_final/1518_rv.mp4	0.0	170.5901219844818	0.10001206398010254
29	150.7139868736267	fix_pre	0		120	27.0	2.5	blank	1.0	170.6901340484619	1.0001800060272217
29	151.71416687965393	movie	1		299	27.0	2.5	blank	1.0	171.69031405448914	2.4920430183410645
29	152.0977268218994	pulse	1	t		27.0	2.5	blank	1.0	172.07387399673462	
29	153.69795680046082	pulse	1	t		27.0	2.5	blank	1.0	173.67410397529602	
29	154.206209897995	fix_post	2		12	27.0	2.5	blank	1.0	174.1823570728302	0.09998393058776855
30	154.30619382858276	fix_pre	0		120	28.0	2.5	/experiments/knapen_AOT/AOT_stimuli/rescaled_final/1969_rv.mp4	0.0	174.28234100341797	1.0001850128173828
30	155.2982017993927	pulse	0	t		28.0	2.5	/experiments/knapen_AOT/AOT_stimuli/rescaled_final/1969_rv.mp4	0.0	175.2743489742279	
30	155.30637884140015	movie	1		241	28.0	2.5	/experiments/knapen_AOT/AOT_stimuli/rescaled_final/1969_rv.mp4	0.0	175.28252601623535	2.508661985397339
30	156.89917278289795	pulse	1	t		28.0	2.5	/experiments/knapen_AOT/AOT_stimuli/rescaled_final/1969_rv.mp4	0.0	176.87531995773315	
30	157.81504082679749	fix_post	2		12	28.0	2.5	/experiments/knapen_AOT/AOT_stimuli/rescaled_final/1969_rv.mp4	0.0	177.7911880016327	0.10002994537353516
31	157.91507077217102	fix_pre	0		120	29.0	2.5	/experiments/knapen_AOT/AOT_stimuli/rescaled_final/0044_rv.mp4	0.0	177.89121794700623	1.0001640319824219
31	158.49876594543457	pulse	0	t		29.0	2.5	/experiments/knapen_AOT/AOT_stimuli/rescaled_final/0044_rv.mp4	0.0	178.47491312026978	
31	158.91523480415344	movie	1		243	29.0	2.5	/experiments/knapen_AOT/AOT_stimuli/rescaled_final/0044_rv.mp4	0.0	178.89138197898865	2.500338077545166
31	160.0990447998047	pulse	1	t		29.0	2.5	/experiments/knapen_AOT/AOT_stimuli/rescaled_final/0044_rv.mp4	0.0	180.0751919746399	
31	161.4155728816986	fix_post	2		12	29.0	2.5	/experiments/knapen_AOT/AOT_stimuli/rescaled_final/0044_rv.mp4	0.0	181.3917200565338	0.10010194778442383
32	161.51567482948303	fix_pre	0		120	30.0	2.5	/experiments/knapen_AOT/AOT_stimuli/rescaled_final/1249_rv.mp4	0.0	181.49182200431824	1.000087022781372
32	161.69916200637817	pulse	0	t		30.0	2.5	/experiments/knapen_AOT/AOT_stimuli/rescaled_final/1249_rv.mp4	0.0	181.67530918121338	
32	162.5157618522644	movie	1		244	30.0	2.5	/experiments/knapen_AOT/AOT_stimuli/rescaled_final/1249_rv.mp4	0.0	182.4919090270996	2.5003859996795654
32	163.29940390586853	pulse	1	t		30.0	2.5	/experiments/knapen_AOT/AOT_stimuli/rescaled_final/1249_rv.mp4	0.0	183.27555108070374	
32	164.89970588684082	pulse	1	t		30.0	2.5	/experiments/knapen_AOT/AOT_stimuli/rescaled_final/1249_rv.mp4	0.0	184.87585306167603	
32	165.01614785194397	fix_post	2		12	30.0	2.5	/experiments/knapen_AOT/AOT_stimuli/rescaled_final/1249_rv.mp4	0.0	184.99229502677917	0.1000361442565918
33	165.11618399620056	fix_pre	0		120	31.0	2.5	/experiments/knapen_AOT/AOT_stimuli/rescaled_final/0849_fw.mp4	0.0	185.09233117103577	1.0000879764556885
33	166.11627197265625	movie	1		243	31.0	2.5	/experiments/knapen_AOT/AOT_stimuli/rescaled_final/0849_fw.mp4	0.0	186.09241914749146	2.492033004760742
33	166.50056791305542	pulse	1	t		31.0	2.5	/experiments/knapen_AOT/AOT_stimuli/rescaled_final/0849_fw.mp4	0.0	186.47671508789062	
33	168.10019183158875	pulse	1	t		31.0	2.5	/experiments/knapen_AOT/AOT_stimuli/rescaled_final/0849_fw.mp4	0.0	188.07633900642395	
33	168.608304977417	fix_post	2		12	31.0	2.5	/experiments/knapen_AOT/AOT_stimuli/rescaled_final/0849_fw.mp4	0.0	188.5844521522522	0.10004782676696777
34	168.70835280418396	fix_pre	0		120	32.0	2.5	/experiments/knapen_AOT/AOT_stimuli/rescaled_final/0361_rv.mp4	0.0	188.68449997901917	1.0002460479736328
34	169.7004199028015	pulse	0	t		32.0	2.5	/experiments/knapen_AOT/AOT_stimuli/rescaled_final/0361_rv.mp4	0.0	189.67656707763672	
34	169.7085988521576	movie	1		246	32.0	2.5	/experiments/knapen_AOT/AOT_stimuli/rescaled_final/0361_rv.mp4	0.0	189.6847460269928	2.5085830688476562
34	171.30133700370789	pulse	1	t		32.0	2.5	/experiments/knapen_AOT/AOT_stimuli/rescaled_final/0361_rv.mp4	0.0	191.2774841785431	
34	172.21718192100525	fix_post	2		12	32.0	2.5	/experiments/knapen_AOT/AOT_stimuli/rescaled_final/0361_rv.mp4	0.0	192.19332909584045	0.10002803802490234
35	172.31720995903015	fix_pre	0		120	33.0	2.5	/experiments/knapen_AOT/AOT_stimuli/rescaled_final/0444_rv.mp4	0.0	192.29335713386536	1.00016188621521
35	172.90085577964783	pulse	0	t		33.0	2.5	/experiments/knapen_AOT/AOT_stimuli/rescaled_final/0444_rv.mp4	0.0	192.87700295448303	
35	173.31737184524536	movie	1		244	33.0	2.5	/experiments/knapen_AOT/AOT_stimuli/rescaled_final/0444_rv.mp4	0.0	193.29351902008057	2.500333070755005
35	174.50124096870422	pulse	1	t		33.0	2.5	/experiments/knapen_AOT/AOT_stimuli/rescaled_final/0444_rv.mp4	0.0	194.47738814353943	
35	175.81770491600037	fix_post	2		12	33.0	2.5	/experiments/knapen_AOT/AOT_stimuli/rescaled_final/0444_rv.mp4	0.0	195.79385209083557	0.10003399848937988
36	175.91773891448975	fix_pre	0		120	34.0	2.5	blank	1.0	195.89388608932495	1.0001769065856934
36	176.10137295722961	pulse	0	t		34.0	2.5	blank	1.0	196.07752013206482	
36	176.91791582107544	movie	1		300	34.0	2.5	blank	1.0	196.89406299591064	2.500380039215088
36	177.70154190063477	pulse	1	t		34.0	2.5	blank	1.0	197.67768907546997	
36	179.30173587799072	pulse	1	t		34.0	2.5	blank	1.0	199.27788305282593	
36	179.41829586029053	fix_post	2		12	34.0	2.5	blank	1.0	199.39444303512573	0.10002303123474121
37	179.51831889152527	fix_pre	0		120	35.0	2.5	/experiments/knapen_AOT/AOT_stimuli/rescaled_final/2010_rv.mp4	0.0	199.49446606636047	1.000143051147461
37	180.51846194267273	movie	1		244	35.0	2.5	/experiments/knapen_AOT/AOT_stimuli/rescaled_final/2010_rv.mp4	0.0	200.49460911750793	2.4919910430908203
37	180.9025797843933	pulse	1	t		35.0	2.5	/experiments/knapen_AOT/AOT_stimuli/rescaled_final/2010_rv.mp4	0.0	200.87872695922852	
37	182.50240778923035	pulse	1	t		35.0	2.5	/experiments/knapen_AOT/AOT_stimuli/rescaled_final/2010_rv.mp4	0.0	202.47855496406555	
37	183.01045298576355	fix_post	2		12	35.0	2.5	/experiments/knapen_AOT/AOT_stimuli/rescaled_final/2010_rv.mp4	0.0	202.98660016059875	0.10003900527954102
38	183.1104919910431	fix_pre	0		120	36.0	2.5	/experiments/knapen_AOT/AOT_stimuli/rescaled_final/1714_rv.mp4	0.0	203.0866391658783	1.0001509189605713
38	184.10254883766174	pulse	0	t		36.0	2.5	/experiments/knapen_AOT/AOT_stimuli/rescaled_final/1714_rv.mp4	0.0	204.07869601249695	
38	184.11064291000366	movie	1		244	36.0	2.5	/experiments/knapen_AOT/AOT_stimuli/rescaled_final/1714_rv.mp4	0.0	204.08679008483887	2.508763074874878
38	185.7032699584961	pulse	1	t		36.0	2.5	/experiments/knapen_AOT/AOT_stimuli/rescaled_final/1714_rv.mp4	0.0	205.6794171333313	
38	186.61940598487854	fix_post	2		12	36.0	2.5	/experiments/knapen_AOT/AOT_stimuli/rescaled_final/1714_rv.mp4	0.0	206.59555315971375	0.0999460220336914
39	186.71935200691223	fix_pre	0		120	37.0	2.5	/experiments/knapen_AOT/AOT_stimuli/rescaled_final/0365_fw.mp4	0.0	206.69549918174744	1.0001728534698486
39	187.30310988426208	pulse	0	t		37.0	2.5	/experiments/knapen_AOT/AOT_stimuli/rescaled_final/0365_fw.mp4	0.0	207.2792570590973	
39	187.71952486038208	movie	1		245	37.0	2.5	/experiments/knapen_AOT/AOT_stimuli/rescaled_final/0365_fw.mp4	0.0	207.69567203521729	2.5003650188446045
39	188.90331077575684	pulse	1	t		37.0	2.5	/experiments/knapen_AOT/AOT_stimuli/rescaled_final/0365_fw.mp4	0.0	208.87945795059204	
39	190.21988987922668	fix_post	2		12	37.0	2.5	/experiments/knapen_AOT/AOT_stimuli/rescaled_final/0365_fw.mp4	0.0	210.1960370540619	0.10003495216369629
40	190.31992483139038	fix_pre	0		120	38.0	2.5	/experiments/knapen_AOT/AOT_stimuli/rescaled_final/1374_fw.mp4	0.0	210.2960720062256	1.0001490116119385
40	190.4958679676056	pulse	0	t		38.0	2.5	/experiments/knapen_AOT/AOT_stimuli/rescaled_final/1374_fw.mp4	0.0	210.4720151424408	
40	191.32007384300232	movie	1		243	38.0	2.5	/experiments/knapen_AOT/AOT_stimuli/rescaled_final/1374_fw.mp4	0.0	211.29622101783752	2.5003459453582764
40	192.09635996818542	pulse	1	t		38.0	2.5	/experiments/knapen_AOT/AOT_stimuli/rescaled_final/1374_fw.mp4	0.0	212.07250714302063	
40	193.70358395576477	pulse	1	t		38.0	2.5	/experiments/knapen_AOT/AOT_stimuli/rescaled_final/1374_fw.mp4	0.0	213.67973113059998	
40	193.8204197883606	fix_post	2		12	38.0	2.5	/experiments/knapen_AOT/AOT_stimuli/rescaled_final/1374_fw.mp4	0.0	213.7965669631958	0.10004901885986328
41	193.92046880722046	fix_pre	0		119	39.0	2.5	/experiments/knapen_AOT/AOT_stimuli/rescaled_final/0561_fw.mp4	0.0	213.89661598205566	0.9917690753936768
41	194.91223788261414	movie	1		243	39.0	2.5	/experiments/knapen_AOT/AOT_stimuli/rescaled_final/0561_fw.mp4	0.0	214.88838505744934	2.5003840923309326
41	195.29643893241882	pulse	1	t		39.0	2.5	/experiments/knapen_AOT/AOT_stimuli/rescaled_final/0561_fw.mp4	0.0	215.27258610725403	
41	196.89604091644287	pulse	1	t		39.0	2.5	/experiments/knapen_AOT/AOT_stimuli/rescaled_final/0561_fw.mp4	0.0	216.87218809127808	
41	197.41262197494507	fix_post	2		12	39.0	2.5	/experiments/knapen_AOT/AOT_stimuli/rescaled_final/0561_fw.mp4	0.0	217.38876914978027	0.10001802444458008
42	197.51263999938965	fix_pre	0		119	40.0	2.5	/experiments/knapen_AOT/AOT_stimuli/rescaled_final/1925_fw.mp4	0.0	217.48878717422485	0.9918348789215088
42	198.49645495414734	pulse	0	t		40.0	2.5	/experiments/knapen_AOT/AOT_stimuli/rescaled_final/1925_fw.mp4	0.0	218.47260212898254	
42	198.50447487831116	movie	1		245	40.0	2.5	/experiments/knapen_AOT/AOT_stimuli/rescaled_final/1925_fw.mp4	0.0	218.48062205314636	2.508749008178711
42	200.0971748828888	pulse	1	t		40.0	2.5	/experiments/knapen_AOT/AOT_stimuli/rescaled_final/1925_fw.mp4	0.0	220.073322057724	
42	201.01322388648987	fix_post	2		12	40.0	2.5	/experiments/knapen_AOT/AOT_stimuli/rescaled_final/1925_fw.mp4	0.0	220.98937106132507	0.09995102882385254
43	201.11317491531372	fix_pre	0		120	41.0	2.5	blank	1.0	221.08932209014893	1.0001909732818604
43	201.6967329978943	pulse	0	t		41.0	2.5	blank	1.0	221.6728801727295	
43	202.11336588859558	movie	1		300	41.0	2.5	blank	1.0	222.0895130634308	2.50034499168396
43	203.29705691337585	pulse	1	t		41.0	2.5	blank	1.0	223.27320408821106	
43	204.61371088027954	fix_post	2		12	41.0	2.5	blank	1.0	224.58985805511475	0.0999910831451416
44	204.71370196342468	fix_pre	0		120	42.0	2.5	/experiments/knapen_AOT/AOT_stimuli/rescaled_final/1837_fw.mp4	0.0	224.6898491382599	1.000180959701538
44	204.89728784561157	pulse	0	t		42.0	2.5	/experiments/knapen_AOT/AOT_stimuli/rescaled_final/1837_fw.mp4	0.0	224.87343502044678	
44	205.71388292312622	movie	1		243	42.0	2.5	/experiments/knapen_AOT/AOT_stimuli/rescaled_final/1837_fw.mp4	0.0	225.69003009796143	2.500354051589966
44	206.49752378463745	pulse	1	t		42.0	2.5	/experiments/knapen_AOT/AOT_stimuli/rescaled_final/1837_fw.mp4	0.0	226.47367095947266	
44	208.09767079353333	pulse	1	t		42.0	2.5	/experiments/knapen_AOT/AOT_stimuli/rescaled_final/1837_fw.mp4	0.0	228.07381796836853	
44	208.2142369747162	fix_post	2		12	42.0	2.5	/experiments/knapen_AOT/AOT_stimuli/rescaled_final/1837_fw.mp4	0.0	228.1903841495514	0.1000368595123291
45	208.31427383422852	fix_pre	0		120	43.0	2.5	/experiments/knapen_AOT/AOT_stimuli/rescaled_final/0447_fw.mp4	0.0	228.29042100906372	1.0001709461212158
45	209.31444478034973	movie	1		244	43.0	2.5	/experiments/knapen_AOT/AOT_stimuli/rescaled_final/0447_fw.mp4	0.0	229.29059195518494	2.4919700622558594
45	209.70245099067688	pulse	1	t		43.0	2.5	/experiments/knapen_AOT/AOT_stimuli/rescaled_final/0447_fw.mp4	0.0	229.67859816551208	
45	211.29829096794128	pulse	1	t		43.0	2.5	/experiments/knapen_AOT/AOT_stimuli/rescaled_final/0447_fw.mp4	0.0	231.2744381427765	
45	211.8064148426056	fix_post	2		12	43.0	2.5	/experiments/knapen_AOT/AOT_stimuli/rescaled_final/0447_fw.mp4	0.0	231.7825620174408	0.10004615783691406
46	211.9064610004425	fix_pre	0		120	44.0	2.5	/experiments/knapen_AOT/AOT_stimuli/rescaled_final/0124_fw.mp4	0.0	231.8826081752777	1.0001568794250488
46	212.89846396446228	pulse	0	t		44.0	2.5	/experiments/knapen_AOT/AOT_stimuli/rescaled_final/0124_fw.mp4	0.0	232.87461113929749	
46	212.90661787986755	movie	1		244	44.0	2.5	/experiments/knapen_AOT/AOT_stimuli/rescaled_final/0124_fw.mp4	0.0	232.88276505470276	2.5086870193481445
46	214.5025749206543	pulse	1	t		44.0	2.5	/experiments/knapen_AOT/AOT_stimuli/rescaled_final/0124_fw.mp4	0.0	234.4787220954895	
46	215.4153048992157	fix_post	2		12	44.0	2.5	/experiments/knapen_AOT/AOT_stimuli/rescaled_final/0124_fw.mp4	0.0	235.3914520740509	0.10004997253417969
47	215.51535487174988	fix_pre	0		118	45.0	2.5	/experiments/knapen_AOT/AOT_stimuli/rescaled_final/0514_fw.mp4	0.0	235.49150204658508	1.0001890659332275
47	216.0989089012146	pulse	0	t		45.0	2.5	/experiments/knapen_AOT/AOT_stimuli/rescaled_final/0514_fw.mp4	0.0	236.0750560760498	
47	216.5155439376831	movie	1		244	45.0	2.5	/experiments/knapen_AOT/AOT_stimuli/rescaled_final/0514_fw.mp4	0.0	236.4916911125183	2.5003018379211426
47	217.69929695129395	pulse	1	t		45.0	2.5	/experiments/knapen_AOT/AOT_stimuli/rescaled_final/0514_fw.mp4	0.0	237.67544412612915	
47	219.01584577560425	fix_post	2		12	45.0	2.5	/experiments/knapen_AOT/AOT_stimuli/rescaled_final/0514_fw.mp4	0.0	238.99199295043945	0.10000205039978027
48	219.11584782600403	fix_pre	0		120	46.0	2.5	/experiments/knapen_AOT/AOT_stimuli/rescaled_final/0671_fw.mp4	0.0	239.09199500083923	1.0001530647277832
48	219.29950380325317	pulse	0	t		46.0	2.5	/experiments/knapen_AOT/AOT_stimuli/rescaled_final/0671_fw.mp4	0.0	239.27565097808838	
48	220.1160008907318	movie	1		244	46.0	2.5	/experiments/knapen_AOT/AOT_stimuli/rescaled_final/0671_fw.mp4	0.0	240.09214806556702	2.500504970550537
48	220.89974880218506	pulse	1	t		46.0	2.5	/experiments/knapen_AOT/AOT_stimuli/rescaled_final/0671_fw.mp4	0.0	240.87589597702026	
48	222.50010085105896	pulse	1	t		46.0	2.5	/experiments/knapen_AOT/AOT_stimuli/rescaled_final/0671_fw.mp4	0.0	242.47624802589417	
48	222.61650586128235	fix_post	2		12	46.0	2.5	/experiments/knapen_AOT/AOT_stimuli/rescaled_final/0671_fw.mp4	0.0	242.59265303611755	0.09990096092224121
49	222.7164068222046	fix_pre	0		120	47.0	2.5	/experiments/knapen_AOT/AOT_stimuli/rescaled_final/1162_rv.mp4	0.0	242.6925539970398	1.000175952911377
49	223.71658277511597	movie	1		243	47.0	2.5	/experiments/knapen_AOT/AOT_stimuli/rescaled_final/1162_rv.mp4	0.0	243.69272994995117	2.4919800758361816
49	224.1011929512024	pulse	1	t		47.0	2.5	/experiments/knapen_AOT/AOT_stimuli/rescaled_final/1162_rv.mp4	0.0	244.0773401260376	
49	225.70052981376648	pulse	1	t		47.0	2.5	/experiments/knapen_AOT/AOT_stimuli/rescaled_final/1162_rv.mp4	0.0	245.67667698860168	
49	226.20856285095215	fix_post	2		12	47.0	2.5	/experiments/knapen_AOT/AOT_stimuli/rescaled_final/1162_rv.mp4	0.0	246.18471002578735	0.10003113746643066
50	226.30859398841858	fix_pre	0		120	48.0	2.5	/experiments/knapen_AOT/AOT_stimuli/rescaled_final/0574_fw.mp4	0.0	246.28474116325378	1.0001587867736816
50	227.30069494247437	pulse	0	t		48.0	2.5	/experiments/knapen_AOT/AOT_stimuli/rescaled_final/0574_fw.mp4	0.0	247.27684211730957	
50	227.30875277519226	movie	1		247	48.0	2.5	/experiments/knapen_AOT/AOT_stimuli/rescaled_final/0574_fw.mp4	0.0	247.28489995002747	2.508676052093506
50	228.90469479560852	pulse	1	t		48.0	2.5	/experiments/knapen_AOT/AOT_stimuli/rescaled_final/0574_fw.mp4	0.0	248.88084197044373	
50	229.81742882728577	fix_post	2		12	48.0	2.5	/experiments/knapen_AOT/AOT_stimuli/rescaled_final/0574_fw.mp4	0.0	249.79357600212097	0.10004615783691406
51	229.91747498512268	fix_pre	0		120	49.0	2.5	blank	1.0	249.89362215995789	1.0001568794250488
51	230.5010268688202	pulse	0	t		49.0	2.5	blank	1.0	250.4771740436554	
51	230.91763186454773	movie	1		300	49.0	2.5	blank	1.0	250.89377903938293	2.5003669261932373
51	232.1014518737793	pulse	1	t		49.0	2.5	blank	1.0	252.0775990486145	
51	233.41799879074097	fix_post	2		12	49.0	2.5	blank	1.0	253.39414596557617	0.1000370979309082
52	233.51803588867188	fix_pre	0		120	50.0	2.5	/experiments/knapen_AOT/AOT_stimuli/rescaled_final/0429_rv.mp4	0.0	253.49418306350708	1.0001420974731445
52	233.70163893699646	pulse	0	t		50.0	2.5	/experiments/knapen_AOT/AOT_stimuli/rescaled_final/0429_rv.mp4	0.0	253.67778611183167	
52	234.51817798614502	movie	1		243	50.0	2.5	/experiments/knapen_AOT/AOT_stimuli/rescaled_final/0429_rv.mp4	0.0	254.49432516098022	2.50036883354187
52	235.3017499446869	pulse	1	t		50.0	2.5	/experiments/knapen_AOT/AOT_stimuli/rescaled_final/0429_rv.mp4	0.0	255.2778971195221	
52	236.90197491645813	pulse	1	t		50.0	2.5	/experiments/knapen_AOT/AOT_stimuli/rescaled_final/0429_rv.mp4	0.0	256.87812209129333	
52	237.0185468196869	fix_post	2		12	50.0	2.5	/experiments/knapen_AOT/AOT_stimuli/rescaled_final/0429_rv.mp4	0.0	256.9946939945221	0.10005402565002441
53	237.1186008453369	fix_pre	0		120	51.0	2.5	/experiments/knapen_AOT/AOT_stimuli/rescaled_final/0237_rv.mp4	0.0	257.0947480201721	1.0001130104064941
53	238.1187138557434	movie	1		243	51.0	2.5	/experiments/knapen_AOT/AOT_stimuli/rescaled_final/0237_rv.mp4	0.0	258.0948610305786	2.492016077041626
53	238.50291800498962	pulse	1	t		51.0	2.5	/experiments/knapen_AOT/AOT_stimuli/rescaled_final/0237_rv.mp4	0.0	258.47906517982483	
53	240.1027147769928	pulse	1	t		51.0	2.5	/experiments/knapen_AOT/AOT_stimuli/rescaled_final/0237_rv.mp4	0.0	260.078861951828	
53	240.61072993278503	fix_post	2		12	51.0	2.5	/experiments/knapen_AOT/AOT_stimuli/rescaled_final/0237_rv.mp4	0.0	260.58687710762024	0.10001206398010254
54	240.71074199676514	fix_pre	0		120	52.0	2.5	/experiments/knapen_AOT/AOT_stimuli/rescaled_final/1562_rv.mp4	0.0	260.68688917160034	1.0001509189605713
54	241.7028729915619	pulse	0	t		52.0	2.5	/experiments/knapen_AOT/AOT_stimuli/rescaled_final/1562_rv.mp4	0.0	261.6790201663971	
54	241.7108929157257	movie	1		245	52.0	2.5	/experiments/knapen_AOT/AOT_stimuli/rescaled_final/1562_rv.mp4	0.0	261.6870400905609	2.5087149143218994
54	243.30358982086182	pulse	1	t		52.0	2.5	/experiments/knapen_AOT/AOT_stimuli/rescaled_final/1562_rv.mp4	0.0	263.279736995697	
54	244.2196078300476	fix_post	2		12	52.0	2.5	/experiments/knapen_AOT/AOT_stimuli/rescaled_final/1562_rv.mp4	0.0	264.1957550048828	0.09996294975280762
55	244.31957077980042	fix_pre	0		120	53.0	2.5	/experiments/knapen_AOT/AOT_stimuli/rescaled_final/1639_fw.mp4	0.0	264.2957179546356	1.0002570152282715
55	244.9032678604126	pulse	0	t		53.0	2.5	/experiments/knapen_AOT/AOT_stimuli/rescaled_final/1639_fw.mp4	0.0	264.8794150352478	
55	245.3198277950287	movie	1		243	53.0	2.5	/experiments/knapen_AOT/AOT_stimuli/rescaled_final/1639_fw.mp4	0.0	265.2959749698639	2.500401020050049
55	246.49641799926758	pulse	1	t		53.0	2.5	/experiments/knapen_AOT/AOT_stimuli/rescaled_final/1639_fw.mp4	0.0	266.4725651741028	
55	247.82022881507874	fix_post	2		12	53.0	2.5	/experiments/knapen_AOT/AOT_stimuli/rescaled_final/1639_fw.mp4	0.0	267.79637598991394	0.0999300479888916
56	247.92015886306763	fix_pre	0		120	54.0	2.5	blank	1.0	267.89630603790283	1.0001699924468994
56	248.10372495651245	pulse	0	t		54.0	2.5	blank	1.0	268.07987213134766	
56	248.92032885551453	movie	1		300	54.0	2.5	blank	1.0	268.89647603034973	2.500375986099243
56	249.69645595550537	pulse	1	t		54.0	2.5	blank	1.0	269.6726031303406	
56	251.29676699638367	pulse	1	t		54.0	2.5	blank	1.0	271.2729141712189	
56	251.42070484161377	fix_post	2		12	54.0	2.5	blank	1.0	271.396852016449	0.09998893737792969
57	251.5206937789917	fix_pre	0		120	55.0	2.5	/experiments/knapen_AOT/AOT_stimuli/rescaled_final/0212_fw.mp4	0.0	271.4968409538269	1.0001940727233887
57	252.5208878517151	movie	1		243	55.0	2.5	/experiments/knapen_AOT/AOT_stimuli/rescaled_final/0212_fw.mp4	0.0	272.4970350265503	2.4920809268951416
57	252.90943098068237	pulse	1	t		55.0	2.5	/experiments/knapen_AOT/AOT_stimuli/rescaled_final/0212_fw.mp4	0.0	272.8855781555176	
57	254.49659895896912	pulse	1	t		55.0	2.5	/experiments/knapen_AOT/AOT_stimuli/rescaled_final/0212_fw.mp4	0.0	274.4727461338043	
57	255.01296877861023	fix_post	2		12	55.0	2.5	/experiments/knapen_AOT/AOT_stimuli/rescaled_final/0212_fw.mp4	0.0	274.98911595344543	0.09991312026977539
58	255.11288189888	fix_pre	0		119	56.0	2.5	/experiments/knapen_AOT/AOT_stimuli/rescaled_final/2080_fw.mp4	0.0	275.0890290737152	0.9918429851531982
58	256.09652185440063	pulse	0	t		56.0	2.5	/experiments/knapen_AOT/AOT_stimuli/rescaled_final/2080_fw.mp4	0.0	276.07266902923584	
58	256.1047248840332	movie	1		245	56.0	2.5	/experiments/knapen_AOT/AOT_stimuli/rescaled_final/2080_fw.mp4	0.0	276.0808720588684	2.50881290435791
58	257.6979978084564	pulse	1	t		56.0	2.5	/experiments/knapen_AOT/AOT_stimuli/rescaled_final/2080_fw.mp4	0.0	277.6741449832916	
58	258.6135377883911	fix_post	2		12	56.0	2.5	/experiments/knapen_AOT/AOT_stimuli/rescaled_final/2080_fw.mp4	0.0	278.5896849632263	0.09990119934082031
59	258.71343898773193	fix_pre	0		120	57.0	2.5	/experiments/knapen_AOT/AOT_stimuli/rescaled_final/1996_rv.mp4	0.0	278.68958616256714	1.0001509189605713
59	259.2970938682556	pulse	0	t		57.0	2.5	/experiments/knapen_AOT/AOT_stimuli/rescaled_final/1996_rv.mp4	0.0	279.2732410430908	
59	259.7135899066925	movie	1		243	57.0	2.5	/experiments/knapen_AOT/AOT_stimuli/rescaled_final/1996_rv.mp4	0.0	279.6897370815277	2.5003418922424316
59	260.8974189758301	pulse	1	t		57.0	2.5	/experiments/knapen_AOT/AOT_stimuli/rescaled_final/1996_rv.mp4	0.0	280.8735661506653	
59	262.21393179893494	fix_post	2		12	57.0	2.5	/experiments/knapen_AOT/AOT_stimuli/rescaled_final/1996_rv.mp4	0.0	282.19007897377014	0.10005402565002441
60	262.31398582458496	fix_pre	0		120	58.0	2.5	/experiments/knapen_AOT/AOT_stimuli/rescaled_final/0462_fw.mp4	0.0	282.29013299942017	1.0001251697540283
60	262.4975309371948	pulse	0	t		58.0	2.5	/experiments/knapen_AOT/AOT_stimuli/rescaled_final/0462_fw.mp4	0.0	282.47367811203003	
60	263.314110994339	movie	1		244	58.0	2.5	/experiments/knapen_AOT/AOT_stimuli/rescaled_final/0462_fw.mp4	0.0	283.2902581691742	2.5003879070281982
60	264.0978708267212	pulse	1	t		58.0	2.5	/experiments/knapen_AOT/AOT_stimuli/rescaled_final/0462_fw.mp4	0.0	284.0740180015564	
60	265.698077917099	pulse	1	t		58.0	2.5	/experiments/knapen_AOT/AOT_stimuli/rescaled_final/0462_fw.mp4	0.0	285.6742250919342	
60	265.8144989013672	fix_post	2		12	58.0	2.5	/experiments/knapen_AOT/AOT_stimuli/rescaled_final/0462_fw.mp4	0.0	285.7906460762024	0.10003995895385742
61	265.91453886032104	fix_pre	0		119	59.0	2.5	/experiments/knapen_AOT/AOT_stimuli/rescaled_final/1682_rv.mp4	0.0	285.89068603515625	0.9918820858001709
61	266.9064209461212	movie	1		244	59.0	2.5	/experiments/knapen_AOT/AOT_stimuli/rescaled_final/1682_rv.mp4	0.0	286.8825681209564	2.5002498626708984
61	267.29832887649536	pulse	1	t		59.0	2.5	/experiments/knapen_AOT/AOT_stimuli/rescaled_final/1682_rv.mp4	0.0	287.27447605133057	
61	268.89854097366333	pulse	1	t		59.0	2.5	/experiments/knapen_AOT/AOT_stimuli/rescaled_final/1682_rv.mp4	0.0	288.87468814849854	
61	269.4066708087921	fix_post	2		12	59.0	2.5	/experiments/knapen_AOT/AOT_stimuli/rescaled_final/1682_rv.mp4	0.0	289.3828179836273	0.10002303123474121
62	269.50669384002686	fix_pre	0		120	60.0	2.5	/experiments/knapen_AOT/AOT_stimuli/rescaled_final/1884_fw.mp4	0.0	289.48284101486206	1.000175952911377
62	270.49875593185425	pulse	0	t		60.0	2.5	/experiments/knapen_AOT/AOT_stimuli/rescaled_final/1884_fw.mp4	0.0	290.47490310668945	
62	270.50686979293823	movie	1		245	60.0	2.5	/experiments/knapen_AOT/AOT_stimuli/rescaled_final/1884_fw.mp4	0.0	290.48301696777344	2.508669137954712
62	272.09934091567993	pulse	1	t		60.0	2.5	/experiments/knapen_AOT/AOT_stimuli/rescaled_final/1884_fw.mp4	0.0	292.07548809051514	
62	273.01553893089294	fix_post	2		12	60.0	2.5	/experiments/knapen_AOT/AOT_stimuli/rescaled_final/1884_fw.mp4	0.0	292.99168610572815	0.10005402565002441
63	273.11559295654297	fix_pre	0		120	61.0	2.5	/experiments/knapen_AOT/AOT_stimuli/rescaled_final/0134_fw.mp4	0.0	293.0917401313782	1.0001459121704102
63	273.699343919754	pulse	0	t		61.0	2.5	/experiments/knapen_AOT/AOT_stimuli/rescaled_final/0134_fw.mp4	0.0	293.67549109458923	
63	274.1157388687134	movie	1		241	61.0	2.5	/experiments/knapen_AOT/AOT_stimuli/rescaled_final/0134_fw.mp4	0.0	294.0918860435486	2.5004079341888428
63	275.29961585998535	pulse	1	t		61.0	2.5	/experiments/knapen_AOT/AOT_stimuli/rescaled_final/0134_fw.mp4	0.0	295.27576303482056	
63	276.6161468029022	fix_post	2		12	61.0	2.5	/experiments/knapen_AOT/AOT_stimuli/rescaled_final/0134_fw.mp4	0.0	296.5922939777374	0.0999901294708252
64	276.71613693237305	fix_pre	0		120	62.0	2.5	blank	1.0	296.69228410720825	1.000119924545288
64	276.89973187446594	pulse	0	t		62.0	2.5	blank	1.0	296.87587904930115	
64	277.71625685691833	movie	1		300	62.0	2.5	blank	1.0	297.69240403175354	2.5003859996795654
64	278.50007486343384	pulse	1	t		62.0	2.5	blank	1.0	298.47622203826904	
64	280.1002428531647	pulse	1	t		62.0	2.5	blank	1.0	300.0763900279999	
64	280.2166428565979	fix_post	2		12	62.0	2.5	blank	1.0	300.1927900314331	0.10007500648498535
65	280.3167178630829	fix_pre	0		120	63.0	2.5	/experiments/knapen_AOT/AOT_stimuli/rescaled_final/0411_fw.mp4	0.0	300.2928650379181	1.000087022781372
65	281.31680488586426	movie	1		243	63.0	2.5	/experiments/knapen_AOT/AOT_stimuli/rescaled_final/0411_fw.mp4	0.0	301.29295206069946	2.4920029640197754
65	281.70166087150574	pulse	1	t		63.0	2.5	/experiments/knapen_AOT/AOT_stimuli/rescaled_final/0411_fw.mp4	0.0	301.67780804634094	
65	283.30062890052795	pulse	1	t		63.0	2.5	/experiments/knapen_AOT/AOT_stimuli/rescaled_final/0411_fw.mp4	0.0	303.27677607536316	
65	283.80880784988403	fix_post	2		12	63.0	2.5	/experiments/knapen_AOT/AOT_stimuli/rescaled_final/0411_fw.mp4	0.0	303.78495502471924	0.10005998611450195
66	283.90886783599854	fix_pre	0		120	64.0	2.5	/experiments/knapen_AOT/AOT_stimuli/rescaled_final/1591_fw.mp4	0.0	303.88501501083374	1.0001659393310547
66	284.90086579322815	pulse	0	t		64.0	2.5	/experiments/knapen_AOT/AOT_stimuli/rescaled_final/1591_fw.mp4	0.0	304.87701296806335	
66	284.9090337753296	movie	1		245	64.0	2.5	/experiments/knapen_AOT/AOT_stimuli/rescaled_final/1591_fw.mp4	0.0	304.8851809501648	2.5086441040039062
66	286.50232195854187	pulse	1	t		64.0	2.5	/experiments/knapen_AOT/AOT_stimuli/rescaled_final/1591_fw.mp4	0.0	306.4784691333771	
66	287.4176778793335	fix_post	2		12	64.0	2.5	/experiments/knapen_AOT/AOT_stimuli/rescaled_final/1591_fw.mp4	0.0	307.3938250541687	0.10004591941833496
67	287.51772379875183	fix_pre	0		120	65.0	2.5	/experiments/knapen_AOT/AOT_stimuli/rescaled_final/0114_rv.mp4	0.0	307.49387097358704	1.0001611709594727
67	288.10143184661865	pulse	0	t		65.0	2.5	/experiments/knapen_AOT/AOT_stimuli/rescaled_final/0114_rv.mp4	0.0	308.07757902145386	
67	288.5178849697113	movie	1		245	65.0	2.5	/experiments/knapen_AOT/AOT_stimuli/rescaled_final/0114_rv.mp4	0.0	308.4940321445465	2.5004308223724365
67	289.70167994499207	pulse	1	t		65.0	2.5	/experiments/knapen_AOT/AOT_stimuli/rescaled_final/0114_rv.mp4	0.0	309.67782711982727	
67	291.01831579208374	fix_post	2		12	65.0	2.5	/experiments/knapen_AOT/AOT_stimuli/rescaled_final/0114_rv.mp4	0.0	310.99446296691895	0.09993314743041992
68	291.11824893951416	fix_pre	0		120	66.0	2.5	/experiments/knapen_AOT/AOT_stimuli/rescaled_final/1474_rv.mp4	0.0	311.09439611434937	1.0001718997955322
68	291.3018047809601	pulse	0	t		66.0	2.5	/experiments/knapen_AOT/AOT_stimuli/rescaled_final/1474_rv.mp4	0.0	311.2779519557953	
68	292.1184208393097	movie	1		244	66.0	2.5	/experiments/knapen_AOT/AOT_stimuli/rescaled_final/1474_rv.mp4	0.0	312.0945680141449	2.500369071960449
68	292.90212178230286	pulse	1	t		66.0	2.5	/experiments/knapen_AOT/AOT_stimuli/rescaled_final/1474_rv.mp4	0.0	312.87826895713806	
68	294.5021619796753	pulse	1	t		66.0	2.5	/experiments/knapen_AOT/AOT_stimuli/rescaled_final/1474_rv.mp4	0.0	314.4783091545105	
68	294.61878991127014	fix_post	2		12	66.0	2.5	/experiments/knapen_AOT/AOT_stimuli/rescaled_final/1474_rv.mp4	0.0	314.59493708610535	0.10001087188720703
69	294.71880078315735	fix_pre	0		119	67.0	2.5	/experiments/knapen_AOT/AOT_stimuli/rescaled_final/1177_rv.mp4	0.0	314.69494795799255	0.9918060302734375
69	295.7106068134308	movie	1		243	67.0	2.5	/experiments/knapen_AOT/AOT_stimuli/rescaled_final/1177_rv.mp4	0.0	315.686753988266	2.5004220008850098
69	296.10271191596985	pulse	1	t		67.0	2.5	/experiments/knapen_AOT/AOT_stimuli/rescaled_final/1177_rv.mp4	0.0	316.07885909080505	
69	297.7027499675751	pulse	1	t		67.0	2.5	/experiments/knapen_AOT/AOT_stimuli/rescaled_final/1177_rv.mp4	0.0	317.6788971424103	
69	298.2110288143158	fix_post	2		12	67.0	2.5	/experiments/knapen_AOT/AOT_stimuli/rescaled_final/1177_rv.mp4	0.0	318.187175989151	0.09998011589050293
70	298.3110089302063	fix_pre	0		120	68.0	2.5	/experiments/knapen_AOT/AOT_stimuli/rescaled_final/0056_rv.mp4	0.0	318.2871561050415	1.0001800060272217
70	299.30308985710144	pulse	0	t		68.0	2.5	/experiments/knapen_AOT/AOT_stimuli/rescaled_final/0056_rv.mp4	0.0	319.27923703193665	
70	299.3111889362335	movie	1		246	68.0	2.5	/experiments/knapen_AOT/AOT_stimuli/rescaled_final/0056_rv.mp4	0.0	319.2873361110687	2.508633852005005
70	300.9037938117981	pulse	1	t		68.0	2.5	/experiments/knapen_AOT/AOT_stimuli/rescaled_final/0056_rv.mp4	0.0	320.8799409866333	
70	301.8198227882385	fix_post	2		12	68.0	2.5	/experiments/knapen_AOT/AOT_stimuli/rescaled_final/0056_rv.mp4	0.0	321.79596996307373	0.10004401206970215
71	301.9198668003082	fix_pre	0		120	69.0	2.5	/experiments/knapen_AOT/AOT_stimuli/rescaled_final/0659_fw.mp4	0.0	321.89601397514343	1.000143051147461
71	302.49598598480225	pulse	0	t		69.0	2.5	/experiments/knapen_AOT/AOT_stimuli/rescaled_final/0659_fw.mp4	0.0	322.47213315963745	
71	302.9200098514557	movie	1		244	69.0	2.5	/experiments/knapen_AOT/AOT_stimuli/rescaled_final/0659_fw.mp4	0.0	322.8961570262909	2.5005011558532715
71	304.0966827869415	pulse	1	t		69.0	2.5	/experiments/knapen_AOT/AOT_stimuli/rescaled_final/0659_fw.mp4	0.0	324.07282996177673	
71	305.42051100730896	fix_post	2		12	69.0	2.5	/experiments/knapen_AOT/AOT_stimuli/rescaled_final/0659_fw.mp4	0.0	325.39665818214417	0.09995794296264648
72	305.5204689502716	fix_pre	0		120	70.0	2.5	blank	1.0	325.4966161251068	1.0001449584960938
72	305.6964318752289	pulse	0	t		70.0	2.5	blank	1.0	325.6725790500641	
72	306.5206139087677	movie	1		300	70.0	2.5	blank	1.0	326.4967610836029	2.500359058380127
72	307.29665184020996	pulse	1	t		70.0	2.5	blank	1.0	327.27279901504517	
72	308.8960700035095	pulse	1	t		70.0	2.5	blank	1.0	328.8722171783447	
72	309.0209729671478	fix_post	2		12	70.0	2.5	blank	1.0	328.99712014198303	0.09996294975280762
73	309.12093591690063	fix_pre	0		120	71.0	2.5	/experiments/knapen_AOT/AOT_stimuli/rescaled_final/0898_fw.mp4	0.0	329.09708309173584	1.0001649856567383
73	310.1211009025574	movie	1		242	71.0	2.5	/experiments/knapen_AOT/AOT_stimuli/rescaled_final/0898_fw.mp4	0.0	330.0972480773926	2.4920458793640137
73	310.4963068962097	pulse	1	t		71.0	2.5	/experiments/knapen_AOT/AOT_stimuli/rescaled_final/0898_fw.mp4	0.0	330.4724540710449	
73	312.0966799259186	pulse	1	t		71.0	2.5	/experiments/knapen_AOT/AOT_stimuli/rescaled_final/0898_fw.mp4	0.0	332.0728271007538	
73	312.6131467819214	fix_post	2		12	71.0	2.5	/experiments/knapen_AOT/AOT_stimuli/rescaled_final/0898_fw.mp4	0.0	332.5892939567566	0.10000801086425781
74	312.71315479278564	fix_pre	0		119	72.0	2.5	/experiments/knapen_AOT/AOT_stimuli/rescaled_final/1917_rv.mp4	0.0	332.68930196762085	0.9918410778045654
74	313.69682097435	pulse	0	t		72.0	2.5	/experiments/knapen_AOT/AOT_stimuli/rescaled_final/1917_rv.mp4	0.0	333.6729681491852	
74	313.7049958705902	movie	1		246	72.0	2.5	/experiments/knapen_AOT/AOT_stimuli/rescaled_final/1917_rv.mp4	0.0	333.6811430454254	2.508660078048706
74	315.29758977890015	pulse	1	t		72.0	2.5	/experiments/knapen_AOT/AOT_stimuli/rescaled_final/1917_rv.mp4	0.0	335.27373695373535	
74	316.2136559486389	fix_post	2		12	72.0	2.5	/experiments/knapen_AOT/AOT_stimuli/rescaled_final/1917_rv.mp4	0.0	336.1898031234741	0.10002994537353516
75	316.31368589401245	fix_pre	0		120	73.0	2.5	/experiments/knapen_AOT/AOT_stimuli/rescaled_final/0514_fw.mp4	0.0	336.28983306884766	1.0001568794250488
75	316.8973948955536	pulse	0	t		73.0	2.5	/experiments/knapen_AOT/AOT_stimuli/rescaled_final/0514_fw.mp4	0.0	336.8735420703888	
75	317.3138427734375	movie	1		244	73.0	2.5	/experiments/knapen_AOT/AOT_stimuli/rescaled_final/0514_fw.mp4	0.0	337.2899899482727	2.500380039215088
75	318.49766778945923	pulse	1	t		73.0	2.5	/experiments/knapen_AOT/AOT_stimuli/rescaled_final/0514_fw.mp4	0.0	338.47381496429443	
75	319.8142228126526	fix_post	2		12	73.0	2.5	/experiments/knapen_AOT/AOT_stimuli/rescaled_final/0514_fw.mp4	0.0	339.7903699874878	0.10000801086425781
76	319.91423082351685	fix_pre	0		120	74.0	2.5	/experiments/knapen_AOT/AOT_stimuli/rescaled_final/0237_fw.mp4	0.0	339.89037799835205	1.000136137008667
76	320.0977568626404	pulse	0	t		74.0	2.5	/experiments/knapen_AOT/AOT_stimuli/rescaled_final/0237_fw.mp4	0.0	340.0739040374756	
76	320.9143669605255	movie	1		244	74.0	2.5	/experiments/knapen_AOT/AOT_stimuli/rescaled_final/0237_fw.mp4	0.0	340.8905141353607	2.500438928604126
76	321.6980628967285	pulse	1	t		74.0	2.5	/experiments/knapen_AOT/AOT_stimuli/rescaled_final/0237_fw.mp4	0.0	341.6742100715637	
76	323.29815793037415	pulse	1	t		74.0	2.5	/experiments/knapen_AOT/AOT_stimuli/rescaled_final/0237_fw.mp4	0.0	343.27430510520935	
76	323.41480588912964	fix_post	2		12	74.0	2.5	/experiments/knapen_AOT/AOT_stimuli/rescaled_final/0237_fw.mp4	0.0	343.39095306396484	0.09996795654296875
77	323.5147738456726	fix_pre	0		119	75.0	2.5	blank	1.0	343.4909210205078	0.9917690753936768
77	324.5065429210663	movie	1		300	75.0	2.5	blank	1.0	344.4826900959015	2.500419855117798
77	324.89857482910156	pulse	1	t		75.0	2.5	blank	1.0	344.87472200393677	
77	326.49869894981384	pulse	1	t		75.0	2.5	blank	1.0	346.47484612464905	
77	327.0069627761841	fix_post	2		12	75.0	2.5	blank	1.0	346.9831099510193	0.10001921653747559
78	327.10698199272156	fix_pre	0		120	76.0	2.5	/experiments/knapen_AOT/AOT_stimuli/rescaled_final/1639_rv.mp4	0.0	347.08312916755676	1.000199794769287
78	328.0989418029785	pulse	0	t		76.0	2.5	/experiments/knapen_AOT/AOT_stimuli/rescaled_final/1639_rv.mp4	0.0	348.0750889778137	
78	328.10718178749084	movie	1		244	76.0	2.5	/experiments/knapen_AOT/AOT_stimuli/rescaled_final/1639_rv.mp4	0.0	348.08332896232605	2.5086522102355957
78	329.6999177932739	pulse	1	t		76.0	2.5	/experiments/knapen_AOT/AOT_stimuli/rescaled_final/1639_rv.mp4	0.0	349.67606496810913	
78	330.61583399772644	fix_post	2		12	76.0	2.5	/experiments/knapen_AOT/AOT_stimuli/rescaled_final/1639_rv.mp4	0.0	350.59198117256165	0.10003781318664551
79	330.7158718109131	fix_pre	0		120	77.0	2.5	/experiments/knapen_AOT/AOT_stimuli/rescaled_final/1315_fw.mp4	0.0	350.6920189857483	1.0001301765441895
79	331.29958987236023	pulse	0	t		77.0	2.5	/experiments/knapen_AOT/AOT_stimuli/rescaled_final/1315_fw.mp4	0.0	351.27573704719543	
79	331.7160019874573	movie	1		244	77.0	2.5	/experiments/knapen_AOT/AOT_stimuli/rescaled_final/1315_fw.mp4	0.0	351.6921491622925	2.5003578662872314
79	332.89986085891724	pulse	1	t		77.0	2.5	/experiments/knapen_AOT/AOT_stimuli/rescaled_final/1315_fw.mp4	0.0	352.87600803375244	
79	334.2163598537445	fix_post	2		12	77.0	2.5	/experiments/knapen_AOT/AOT_stimuli/rescaled_final/1315_fw.mp4	0.0	354.1925070285797	0.10000896453857422
80	334.3163688182831	fix_pre	0		120	78.0	2.5	/experiments/knapen_AOT/AOT_stimuli/rescaled_final/0498_rv.mp4	0.0	354.2925159931183	1.000136137008667
80	334.5000228881836	pulse	0	t		78.0	2.5	/experiments/knapen_AOT/AOT_stimuli/rescaled_final/0498_rv.mp4	0.0	354.4761700630188	
80	335.31650495529175	movie	1		241	78.0	2.5	/experiments/knapen_AOT/AOT_stimuli/rescaled_final/0498_rv.mp4	0.0	355.29265213012695	2.5003859996795654
80	336.10022592544556	pulse	1	t		78.0	2.5	/experiments/knapen_AOT/AOT_stimuli/rescaled_final/0498_rv.mp4	0.0	356.07637310028076	
80	337.7025899887085	pulse	1	t		78.0	2.5	/experiments/knapen_AOT/AOT_stimuli/rescaled_final/0498_rv.mp4	0.0	357.6787371635437	
80	337.8168909549713	fix_post	2		12	78.0	2.5	/experiments/knapen_AOT/AOT_stimuli/rescaled_final/0498_rv.mp4	0.0	357.7930381298065	0.10002684593200684
81	337.9169178009033	fix_pre	0		119	79.0	2.5	/experiments/knapen_AOT/AOT_stimuli/rescaled_final/0447_rv.mp4	0.0	357.8930649757385	0.9917871952056885
81	338.908704996109	movie	1		245	79.0	2.5	/experiments/knapen_AOT/AOT_stimuli/rescaled_final/0447_rv.mp4	0.0	358.8848521709442	2.500480890274048
81	339.3008508682251	pulse	1	t		79.0	2.5	/experiments/knapen_AOT/AOT_stimuli/rescaled_final/0447_rv.mp4	0.0	359.2769980430603	
81	340.90087389945984	pulse	1	t		79.0	2.5	/experiments/knapen_AOT/AOT_stimuli/rescaled_final/0447_rv.mp4	0.0	360.87702107429504	
81	341.40918588638306	fix_post	2		12	79.0	2.5	/experiments/knapen_AOT/AOT_stimuli/rescaled_final/0447_rv.mp4	0.0	361.38533306121826	0.0999150276184082
82	341.50910091400146	fix_pre	0		120	80.0	2.5	/experiments/knapen_AOT/AOT_stimuli/rescaled_final/1767_rv.mp4	0.0	361.48524808883667	1.0001709461212158
82	342.50120782852173	pulse	0	t		80.0	2.5	/experiments/knapen_AOT/AOT_stimuli/rescaled_final/1767_rv.mp4	0.0	362.47735500335693	
82	342.5092718601227	movie	1		246	80.0	2.5	/experiments/knapen_AOT/AOT_stimuli/rescaled_final/1767_rv.mp4	0.0	362.4854190349579	2.5088090896606445
82	344.1018898487091	pulse	1	t		80.0	2.5	/experiments/knapen_AOT/AOT_stimuli/rescaled_final/1767_rv.mp4	0.0	364.0780370235443	
82	345.0180809497833	fix_post	2		12	80.0	2.5	/experiments/knapen_AOT/AOT_stimuli/rescaled_final/1767_rv.mp4	0.0	364.99422812461853	0.09992098808288574
83	345.1180019378662	fix_pre	0		120	81.0	2.5	/experiments/knapen_AOT/AOT_stimuli/rescaled_final/1973_fw.mp4	0.0	365.0941491127014	1.0001459121704102
83	345.7016489505768	pulse	0	t		81.0	2.5	/experiments/knapen_AOT/AOT_stimuli/rescaled_final/1973_fw.mp4	0.0	365.677796125412	
83	346.1181478500366	movie	1		244	81.0	2.5	/experiments/knapen_AOT/AOT_stimuli/rescaled_final/1973_fw.mp4	0.0	366.0942950248718	2.5002989768981934
83	347.3020079135895	pulse	1	t		81.0	2.5	/experiments/knapen_AOT/AOT_stimuli/rescaled_final/1973_fw.mp4	0.0	367.2781550884247	
83	348.6184468269348	fix_post	2		12	81.0	2.5	/experiments/knapen_AOT/AOT_stimuli/rescaled_final/1973_fw.mp4	0.0	368.59459400177	0.10007810592651367
84	348.7185249328613	fix_pre	0		120	82.0	2.5	/experiments/knapen_AOT/AOT_stimuli/rescaled_final/1129_rv.mp4	0.0	368.69467210769653	1.0001840591430664
84	348.9021809101105	pulse	0	t		82.0	2.5	/experiments/knapen_AOT/AOT_stimuli/rescaled_final/1129_rv.mp4	0.0	368.8783280849457	
84	349.7187089920044	movie	1		243	82.0	2.5	/experiments/knapen_AOT/AOT_stimuli/rescaled_final/1129_rv.mp4	0.0	369.6948561668396	2.5004708766937256
84	350.50230288505554	pulse	1	t		82.0	2.5	/experiments/knapen_AOT/AOT_stimuli/rescaled_final/1129_rv.mp4	0.0	370.47845005989075	
84	352.10272097587585	pulse	1	t		82.0	2.5	/experiments/knapen_AOT/AOT_stimuli/rescaled_final/1129_rv.mp4	0.0	372.07886815071106	
84	352.2191798686981	fix_post	2		12	82.0	2.5	/experiments/knapen_AOT/AOT_stimuli/rescaled_final/1129_rv.mp4	0.0	372.1953270435333	0.09987902641296387
85	352.3190588951111	fix_pre	0		120	83.0	2.5	blank	1.0	372.2952060699463	1.0001630783081055
85	353.3192219734192	movie	1		299	83.0	2.5	blank	1.0	373.2953691482544	2.4920578002929688
85	353.7027988433838	pulse	1	t		83.0	2.5	blank	1.0	373.678946018219	
85	355.30309796333313	pulse	1	t		83.0	2.5	blank	1.0	375.27924513816833	
85	355.81127977371216	fix_post	2		12	83.0	2.5	blank	1.0	375.78742694854736	0.0999751091003418
87	355.9112548828125	stim	0		1716					375.8874020576477	14.30220890045166
87	356.90336298942566	pulse	0	t						376.87951016426086	
87	358.5035238265991	pulse	0	t						378.4796710014343	
87	360.10373187065125	pulse	0	t						380.07987904548645	
87	361.69658398628235	pulse	0	t						381.67273116111755	
87	363.2967348098755	pulse	0	t						383.2728819847107	
87	364.89710688591003	pulse	0	t						384.87325406074524	
87	366.49729681015015	pulse	0	t						386.47344398498535	
87	368.09748888015747	pulse	0	t						388.0736360549927	
87	369.6968238353729	pulse	0	t						389.67297101020813	
