trial_nr	onset	event_type	phase	response	nr_frames	movie_index	movie_duration	movie_file	blank	onset_abs	duration
0	0.19987893104553223	stim	0		158					29.397594928741455	1.3167779445648193
0	1.5085399150848389	response	0	space						30.70625591278076	
1	1.5166568756103516	stim	0		6949					30.714372873306274	57.92792320251465
1	59.434452056884766	pulse	0	t						88.63216805458069	
1	59.444580078125	stim	1		1715					88.64229607582092	14.299606800079346
1	61.025887966156006	pulse	1	t						90.22360396385193	
1	62.62613892555237	pulse	1	t						91.82385492324829	
1	64.22631597518921	pulse	1	t						93.42403197288513	
1	65.82643985748291	pulse	1	t						95.02415585517883	
1	67.42668986320496	pulse	1	t						96.62440586090088	
1	69.02699899673462	pulse	1	t						98.22471499443054	
1	70.6272349357605	pulse	1	t						99.82495093345642	
1	72.22744798660278	pulse	1	t						101.4251639842987	
2	73.74418687820435	fix_pre	0		11	0.0	2.5	/experiments/knapen_AOT/AOT_stimuli/rescaled_final/0895_rv.mp4	0.0	102.94190287590027	0.1000370979309082
2	73.82766389846802	pulse	0	t		0.0	2.5	/experiments/knapen_AOT/AOT_stimuli/rescaled_final/0895_rv.mp4	0.0	103.02537989616394	
2	73.84422397613525	movie	1		242	0.0	2.5	/experiments/knapen_AOT/AOT_stimuli/rescaled_final/0895_rv.mp4	0.0	103.04193997383118	2.5003039836883545
2	75.42899990081787	pulse	1	t		0.0	2.5	/experiments/knapen_AOT/AOT_stimuli/rescaled_final/0895_rv.mp4	0.0	104.6267158985138	
2	76.34452795982361	fix_post	2		12	0.0	2.5	/experiments/knapen_AOT/AOT_stimuli/rescaled_final/0895_rv.mp4	0.0	105.54224395751953	0.10000300407409668
3	76.4445309638977	fix_pre	0		120	1.0	2.5	/experiments/knapen_AOT/AOT_stimuli/rescaled_final/0920_fw.mp4	0.0	105.64224696159363	1.0001530647277832
3	77.0282769203186	pulse	0	t		1.0	2.5	/experiments/knapen_AOT/AOT_stimuli/rescaled_final/0920_fw.mp4	0.0	106.22599291801453	
3	77.44468402862549	movie	1		243	1.0	2.5	/experiments/knapen_AOT/AOT_stimuli/rescaled_final/0920_fw.mp4	0.0	106.64240002632141	2.5003769397735596
3	78.62842297554016	pulse	1	t		1.0	2.5	/experiments/knapen_AOT/AOT_stimuli/rescaled_final/0920_fw.mp4	0.0	107.82613897323608	
3	79.94506096839905	fix_post	2		12	1.0	2.5	/experiments/knapen_AOT/AOT_stimuli/rescaled_final/0920_fw.mp4	0.0	109.14277696609497	0.09998798370361328
4	80.04504895210266	fix_pre	0		120	2.0	2.5	/experiments/knapen_AOT/AOT_stimuli/rescaled_final/0272_rv.mp4	0.0	109.24276494979858	1.000162124633789
4	80.22865891456604	pulse	0	t		2.0	2.5	/experiments/knapen_AOT/AOT_stimuli/rescaled_final/0272_rv.mp4	0.0	109.42637491226196	
4	81.04521107673645	movie	1		243	2.0	2.5	/experiments/knapen_AOT/AOT_stimuli/rescaled_final/0272_rv.mp4	0.0	110.24292707443237	2.5003819465637207
4	81.82895994186401	pulse	1	t		2.0	2.5	/experiments/knapen_AOT/AOT_stimuli/rescaled_final/0272_rv.mp4	0.0	111.02667593955994	
4	83.4296019077301	pulse	1	t		2.0	2.5	/experiments/knapen_AOT/AOT_stimuli/rescaled_final/0272_rv.mp4	0.0	112.62731790542603	
4	83.54559302330017	fix_post	2		12	2.0	2.5	/experiments/knapen_AOT/AOT_stimuli/rescaled_final/0272_rv.mp4	0.0	112.7433090209961	0.10000896453857422
5	83.64560198783875	fix_pre	0		120	3.0	2.5	/experiments/knapen_AOT/AOT_stimuli/rescaled_final/1347_fw.mp4	0.0	112.84331798553467	1.0001239776611328
5	84.64572596549988	movie	1		244	3.0	2.5	/experiments/knapen_AOT/AOT_stimuli/rescaled_final/1347_fw.mp4	0.0	113.8434419631958	2.4920480251312256
5	85.02987599372864	pulse	1	t		3.0	2.5	/experiments/knapen_AOT/AOT_stimuli/rescaled_final/1347_fw.mp4	0.0	114.22759199142456	
5	86.62956500053406	pulse	1	t		3.0	2.5	/experiments/knapen_AOT/AOT_stimuli/rescaled_final/1347_fw.mp4	0.0	115.82728099822998	
5	87.1377739906311	fix_post	2		12	3.0	2.5	/experiments/knapen_AOT/AOT_stimuli/rescaled_final/1347_fw.mp4	0.0	116.33548998832703	0.10002803802490234
6	87.237802028656	fix_pre	0		120	4.0	2.5	/experiments/knapen_AOT/AOT_stimuli/rescaled_final/0730_fw.mp4	0.0	116.43551802635193	1.000180959701538
6	88.22981405258179	pulse	0	t		4.0	2.5	/experiments/knapen_AOT/AOT_stimuli/rescaled_final/0730_fw.mp4	0.0	117.42753005027771	
6	88.23798298835754	movie	1		245	4.0	2.5	/experiments/knapen_AOT/AOT_stimuli/rescaled_final/0730_fw.mp4	0.0	117.43569898605347	2.5086729526519775
6	89.83058500289917	pulse	1	t		4.0	2.5	/experiments/knapen_AOT/AOT_stimuli/rescaled_final/0730_fw.mp4	0.0	119.02830100059509	
6	90.74665594100952	fix_post	2		12	4.0	2.5	/experiments/knapen_AOT/AOT_stimuli/rescaled_final/0730_fw.mp4	0.0	119.94437193870544	0.10007214546203613
7	90.84672808647156	fix_pre	0		120	5.0	2.5	/experiments/knapen_AOT/AOT_stimuli/rescaled_final/0471_rv.mp4	0.0	120.04444408416748	1.0001499652862549
7	91.43038487434387	pulse	0	t		5.0	2.5	/experiments/knapen_AOT/AOT_stimuli/rescaled_final/0471_rv.mp4	0.0	120.6281008720398	
7	91.84687805175781	movie	1		244	5.0	2.5	/experiments/knapen_AOT/AOT_stimuli/rescaled_final/0471_rv.mp4	0.0	121.04459404945374	2.5003268718719482
7	93.0306339263916	pulse	1	t		5.0	2.5	/experiments/knapen_AOT/AOT_stimuli/rescaled_final/0471_rv.mp4	0.0	122.22834992408752	
7	94.34720492362976	fix_post	2		12	5.0	2.5	/experiments/knapen_AOT/AOT_stimuli/rescaled_final/0471_rv.mp4	0.0	123.54492092132568	0.10000801086425781
8	94.44721293449402	fix_pre	0		120	6.0	2.5	/experiments/knapen_AOT/AOT_stimuli/rescaled_final/0840_rv.mp4	0.0	123.64492893218994	1.0001490116119385
8	94.63078308105469	pulse	0	t		6.0	2.5	/experiments/knapen_AOT/AOT_stimuli/rescaled_final/0840_rv.mp4	0.0	123.82849907875061	
8	95.44736194610596	movie	1		244	6.0	2.5	/experiments/knapen_AOT/AOT_stimuli/rescaled_final/0840_rv.mp4	0.0	124.64507794380188	2.500359058380127
8	96.22352290153503	pulse	1	t		6.0	2.5	/experiments/knapen_AOT/AOT_stimuli/rescaled_final/0840_rv.mp4	0.0	125.42123889923096	
8	97.83202600479126	pulse	1	t		6.0	2.5	/experiments/knapen_AOT/AOT_stimuli/rescaled_final/0840_rv.mp4	0.0	127.02974200248718	
8	97.94772100448608	fix_post	2		12	6.0	2.5	/experiments/knapen_AOT/AOT_stimuli/rescaled_final/0840_rv.mp4	0.0	127.145437002182	0.10001087188720703
9	98.04773187637329	fix_pre	0		120	7.0	2.5	blank	1.0	127.24544787406921	1.0001590251922607
9	99.04789090156555	movie	1		299	7.0	2.5	blank	1.0	128.24560689926147	2.4920380115509033
9	99.42400789260864	pulse	1	t		7.0	2.5	blank	1.0	128.62172389030457	
9	101.02427697181702	pulse	1	t		7.0	2.5	blank	1.0	130.22199296951294	
9	101.53992891311646	fix_post	2		8	7.0	2.5	blank	1.0	130.73764491081238	0.1000969409942627
10	101.64002585411072	fix_pre	0		119	8.0	2.5	/experiments/knapen_AOT/AOT_stimuli/rescaled_final/0868_rv.mp4	0.0	130.83774185180664	0.9917500019073486
10	102.62356185913086	pulse	0	t		8.0	2.5	/experiments/knapen_AOT/AOT_stimuli/rescaled_final/0868_rv.mp4	0.0	131.82127785682678	
10	102.63177585601807	movie	1		245	8.0	2.5	/experiments/knapen_AOT/AOT_stimuli/rescaled_final/0868_rv.mp4	0.0	131.829491853714	2.5086870193481445
10	104.22848391532898	pulse	1	t		8.0	2.5	/experiments/knapen_AOT/AOT_stimuli/rescaled_final/0868_rv.mp4	0.0	133.4261999130249	
10	105.14046287536621	fix_post	2		12	8.0	2.5	/experiments/knapen_AOT/AOT_stimuli/rescaled_final/0868_rv.mp4	0.0	134.33817887306213	0.10001516342163086
11	105.24047803878784	fix_pre	0		120	9.0	2.5	/experiments/knapen_AOT/AOT_stimuli/rescaled_final/1267_fw.mp4	0.0	134.43819403648376	1.0001740455627441
11	105.82419991493225	pulse	0	t		9.0	2.5	/experiments/knapen_AOT/AOT_stimuli/rescaled_final/1267_fw.mp4	0.0	135.02191591262817	
11	106.24065208435059	movie	1		245	9.0	2.5	/experiments/knapen_AOT/AOT_stimuli/rescaled_final/1267_fw.mp4	0.0	135.4383680820465	2.500342845916748
11	107.42450308799744	pulse	1	t		9.0	2.5	/experiments/knapen_AOT/AOT_stimuli/rescaled_final/1267_fw.mp4	0.0	136.62221908569336	
11	108.74099493026733	fix_post	2		12	9.0	2.5	/experiments/knapen_AOT/AOT_stimuli/rescaled_final/1267_fw.mp4	0.0	137.93871092796326	0.10002708435058594
12	108.84102201461792	fix_pre	0		120	10.0	2.5	/experiments/knapen_AOT/AOT_stimuli/rescaled_final/0253_rv.mp4	0.0	138.03873801231384	1.0001530647277832
12	109.02457094192505	pulse	0	t		10.0	2.5	/experiments/knapen_AOT/AOT_stimuli/rescaled_final/0253_rv.mp4	0.0	138.22228693962097	
12	109.8411750793457	movie	1		244	10.0	2.5	/experiments/knapen_AOT/AOT_stimuli/rescaled_final/0253_rv.mp4	0.0	139.03889107704163	2.5005099773406982
12	110.62482404708862	pulse	1	t		10.0	2.5	/experiments/knapen_AOT/AOT_stimuli/rescaled_final/0253_rv.mp4	0.0	139.82254004478455	
12	112.22504305839539	pulse	1	t		10.0	2.5	/experiments/knapen_AOT/AOT_stimuli/rescaled_final/0253_rv.mp4	0.0	141.4227590560913	
12	112.3416850566864	fix_post	2		12	10.0	2.5	/experiments/knapen_AOT/AOT_stimuli/rescaled_final/0253_rv.mp4	0.0	141.53940105438232	0.0999150276184082
13	112.44160008430481	fix_pre	0		120	11.0	2.5	/experiments/knapen_AOT/AOT_stimuli/rescaled_final/0391_rv.mp4	0.0	141.63931608200073	1.0001158714294434
13	113.44171595573425	movie	1		243	11.0	2.5	/experiments/knapen_AOT/AOT_stimuli/rescaled_final/0391_rv.mp4	0.0	142.63943195343018	2.4920411109924316
13	113.82673692703247	pulse	1	t		11.0	2.5	/experiments/knapen_AOT/AOT_stimuli/rescaled_final/0391_rv.mp4	0.0	143.0244529247284	
13	115.42551493644714	pulse	1	t		11.0	2.5	/experiments/knapen_AOT/AOT_stimuli/rescaled_final/0391_rv.mp4	0.0	144.62323093414307	
13	115.93375706672668	fix_post	2		12	11.0	2.5	/experiments/knapen_AOT/AOT_stimuli/rescaled_final/0391_rv.mp4	0.0	145.1314730644226	0.10002684593200684
14	116.03378391265869	fix_pre	0		120	12.0	2.5	blank	1.0	145.23149991035461	1.000154972076416
14	117.02589201927185	pulse	0	t		12.0	2.5	blank	1.0	146.22360801696777	
14	117.03393888473511	movie	1		301	12.0	2.5	blank	1.0	146.23165488243103	2.5087411403656006
14	118.62601590156555	pulse	1	t		12.0	2.5	blank	1.0	147.82373189926147	
14	119.54268002510071	fix_post	2		12	12.0	2.5	blank	1.0	148.74039602279663	0.09999895095825195
15	119.64267897605896	fix_pre	0		120	13.0	2.5	/experiments/knapen_AOT/AOT_stimuli/rescaled_final/1714_rv.mp4	0.0	148.84039497375488	1.000128984451294
15	120.22627091407776	pulse	0	t		13.0	2.5	/experiments/knapen_AOT/AOT_stimuli/rescaled_final/1714_rv.mp4	0.0	149.42398691177368	
15	120.64280796051025	movie	1		243	13.0	2.5	/experiments/knapen_AOT/AOT_stimuli/rescaled_final/1714_rv.mp4	0.0	149.84052395820618	2.5003769397735596
15	121.82655596733093	pulse	1	t		13.0	2.5	/experiments/knapen_AOT/AOT_stimuli/rescaled_final/1714_rv.mp4	0.0	151.02427196502686	
15	123.14318490028381	fix_post	2		12	13.0	2.5	/experiments/knapen_AOT/AOT_stimuli/rescaled_final/1714_rv.mp4	0.0	152.34090089797974	0.0999760627746582
16	123.24316096305847	fix_pre	0		120	14.0	2.5	/experiments/knapen_AOT/AOT_stimuli/rescaled_final/0370_fw.mp4	0.0	152.4408769607544	1.000154972076416
16	123.42684388160706	pulse	0	t		14.0	2.5	/experiments/knapen_AOT/AOT_stimuli/rescaled_final/0370_fw.mp4	0.0	152.62455987930298	
16	124.24331593513489	movie	1		244	14.0	2.5	/experiments/knapen_AOT/AOT_stimuli/rescaled_final/0370_fw.mp4	0.0	153.4410319328308	2.500396966934204
16	125.0270369052887	pulse	1	t		14.0	2.5	/experiments/knapen_AOT/AOT_stimuli/rescaled_final/0370_fw.mp4	0.0	154.22475290298462	
16	126.62728595733643	pulse	1	t		14.0	2.5	/experiments/knapen_AOT/AOT_stimuli/rescaled_final/0370_fw.mp4	0.0	155.82500195503235	
16	126.74371290206909	fix_post	2		12	14.0	2.5	/experiments/knapen_AOT/AOT_stimuli/rescaled_final/0370_fw.mp4	0.0	155.94142889976501	0.09999895095825195
17	126.84371185302734	fix_pre	0		120	15.0	2.5	/experiments/knapen_AOT/AOT_stimuli/rescaled_final/1257_rv.mp4	0.0	156.04142785072327	1.0001342296600342
17	127.84384608268738	movie	1		245	15.0	2.5	/experiments/knapen_AOT/AOT_stimuli/rescaled_final/1257_rv.mp4	0.0	157.0415620803833	2.492034912109375
17	128.22869896888733	pulse	1	t		15.0	2.5	/experiments/knapen_AOT/AOT_stimuli/rescaled_final/1257_rv.mp4	0.0	157.42641496658325	
17	129.82769107818604	pulse	1	t		15.0	2.5	/experiments/knapen_AOT/AOT_stimuli/rescaled_final/1257_rv.mp4	0.0	159.02540707588196	
17	130.33588099479675	fix_post	2		12	15.0	2.5	/experiments/knapen_AOT/AOT_stimuli/rescaled_final/1257_rv.mp4	0.0	159.53359699249268	0.10002803802490234
18	130.43590903282166	fix_pre	0		120	16.0	2.5	/experiments/knapen_AOT/AOT_stimuli/rescaled_final/1665_fw.mp4	0.0	159.63362503051758	1.000126838684082
18	131.42806386947632	pulse	0	t		16.0	2.5	/experiments/knapen_AOT/AOT_stimuli/rescaled_final/1665_fw.mp4	0.0	160.62577986717224	
18	131.43603587150574	movie	1		244	16.0	2.5	/experiments/knapen_AOT/AOT_stimuli/rescaled_final/1665_fw.mp4	0.0	160.63375186920166	2.5087521076202393
18	133.02879905700684	pulse	1	t		16.0	2.5	/experiments/knapen_AOT/AOT_stimuli/rescaled_final/1665_fw.mp4	0.0	162.22651505470276	
18	133.94478797912598	fix_post	2		12	16.0	2.5	/experiments/knapen_AOT/AOT_stimuli/rescaled_final/1665_fw.mp4	0.0	163.1425039768219	0.09999704360961914
19	134.0447850227356	fix_pre	0		120	17.0	2.5	/experiments/knapen_AOT/AOT_stimuli/rescaled_final/2025_rv.mp4	0.0	163.24250102043152	1.000216007232666
19	134.6283459663391	pulse	0	t		17.0	2.5	/experiments/knapen_AOT/AOT_stimuli/rescaled_final/2025_rv.mp4	0.0	163.82606196403503	
19	135.04500102996826	movie	1		244	17.0	2.5	/experiments/knapen_AOT/AOT_stimuli/rescaled_final/2025_rv.mp4	0.0	164.24271702766418	2.500308036804199
19	136.2286958694458	pulse	1	t		17.0	2.5	/experiments/knapen_AOT/AOT_stimuli/rescaled_final/2025_rv.mp4	0.0	165.42641186714172	
19	137.54530906677246	fix_post	2		12	17.0	2.5	/experiments/knapen_AOT/AOT_stimuli/rescaled_final/2025_rv.mp4	0.0	166.74302506446838	0.10000896453857422
20	137.64531803131104	fix_pre	0		120	18.0	2.5	/experiments/knapen_AOT/AOT_stimuli/rescaled_final/1987_fw.mp4	0.0	166.84303402900696	1.0001769065856934
20	137.8289759159088	pulse	0	t		18.0	2.5	/experiments/knapen_AOT/AOT_stimuli/rescaled_final/1987_fw.mp4	0.0	167.02669191360474	
20	138.64549493789673	movie	1		243	18.0	2.5	/experiments/knapen_AOT/AOT_stimuli/rescaled_final/1987_fw.mp4	0.0	167.84321093559265	2.5003769397735596
20	139.4292049407959	pulse	1	t		18.0	2.5	/experiments/knapen_AOT/AOT_stimuli/rescaled_final/1987_fw.mp4	0.0	168.62692093849182	
20	141.02939295768738	pulse	1	t		18.0	2.5	/experiments/knapen_AOT/AOT_stimuli/rescaled_final/1987_fw.mp4	0.0	170.2271089553833	
20	141.1458718776703	fix_post	2		12	18.0	2.5	/experiments/knapen_AOT/AOT_stimuli/rescaled_final/1987_fw.mp4	0.0	170.3435878753662	0.09999299049377441
21	141.24586486816406	fix_pre	0		120	19.0	2.5	/experiments/knapen_AOT/AOT_stimuli/rescaled_final/1162_fw.mp4	0.0	170.44358086585999	1.0001540184020996
21	142.24601888656616	movie	1		243	19.0	2.5	/experiments/knapen_AOT/AOT_stimuli/rescaled_final/1162_fw.mp4	0.0	171.44373488426208	2.4920501708984375
21	142.63420295715332	pulse	1	t		19.0	2.5	/experiments/knapen_AOT/AOT_stimuli/rescaled_final/1162_fw.mp4	0.0	171.83191895484924	
21	144.22984194755554	pulse	1	t		19.0	2.5	/experiments/knapen_AOT/AOT_stimuli/rescaled_final/1162_fw.mp4	0.0	173.42755794525146	
21	144.7380690574646	fix_post	2		13	19.0	2.5	/experiments/knapen_AOT/AOT_stimuli/rescaled_final/1162_fw.mp4	0.0	173.93578505516052	0.10835981369018555
22	144.84642887115479	fix_pre	0		119	20.0	2.5	/experiments/knapen_AOT/AOT_stimuli/rescaled_final/1563_rv.mp4	0.0	174.0441448688507	0.9918031692504883
22	145.83008003234863	pulse	0	t		20.0	2.5	/experiments/knapen_AOT/AOT_stimuli/rescaled_final/1563_rv.mp4	0.0	175.02779603004456	
22	145.83823204040527	movie	1		245	20.0	2.5	/experiments/knapen_AOT/AOT_stimuli/rescaled_final/1563_rv.mp4	0.0	175.0359480381012	2.5087549686431885
22	147.4316599369049	pulse	1	t		20.0	2.5	/experiments/knapen_AOT/AOT_stimuli/rescaled_final/1563_rv.mp4	0.0	176.62937593460083	
22	148.34698700904846	fix_post	2		12	20.0	2.5	/experiments/knapen_AOT/AOT_stimuli/rescaled_final/1563_rv.mp4	0.0	177.54470300674438	0.09998297691345215
23	148.4469699859619	fix_pre	0		120	21.0	2.5	blank	1.0	177.64468598365784	1.0001609325408936
23	149.03062796592712	pulse	0	t		21.0	2.5	blank	1.0	178.22834396362305	
23	149.4471309185028	movie	1		300	21.0	2.5	blank	1.0	178.64484691619873	2.5004191398620605
23	150.63090896606445	pulse	1	t		21.0	2.5	blank	1.0	179.82862496376038	
23	151.94755005836487	fix_post	2		12	21.0	2.5	blank	1.0	181.1452660560608	0.09994292259216309
24	152.04749298095703	fix_pre	0		120	22.0	2.5	/experiments/knapen_AOT/AOT_stimuli/rescaled_final/0923_rv.mp4	0.0	181.24520897865295	1.000143051147461
24	152.23114395141602	pulse	0	t		22.0	2.5	/experiments/knapen_AOT/AOT_stimuli/rescaled_final/0923_rv.mp4	0.0	181.42885994911194	
24	153.0476360321045	movie	1		243	22.0	2.5	/experiments/knapen_AOT/AOT_stimuli/rescaled_final/0923_rv.mp4	0.0	182.24535202980042	2.500375986099243
24	153.8313410282135	pulse	1	t		22.0	2.5	/experiments/knapen_AOT/AOT_stimuli/rescaled_final/0923_rv.mp4	0.0	183.02905702590942	
24	155.43142795562744	pulse	1	t		22.0	2.5	/experiments/knapen_AOT/AOT_stimuli/rescaled_final/0923_rv.mp4	0.0	184.62914395332336	
24	155.54801201820374	fix_post	2		12	22.0	2.5	/experiments/knapen_AOT/AOT_stimuli/rescaled_final/0923_rv.mp4	0.0	184.74572801589966	0.09999299049377441
25	155.6480050086975	fix_pre	0		120	23.0	2.5	/experiments/knapen_AOT/AOT_stimuli/rescaled_final/1439_rv.mp4	0.0	184.84572100639343	1.0001580715179443
25	156.64816308021545	movie	1		239	23.0	2.5	/experiments/knapen_AOT/AOT_stimuli/rescaled_final/1439_rv.mp4	0.0	185.84587907791138	2.492025852203369
25	157.03223395347595	pulse	1	t		23.0	2.5	/experiments/knapen_AOT/AOT_stimuli/rescaled_final/1439_rv.mp4	0.0	186.22994995117188	
25	158.62374305725098	pulse	1	t		23.0	2.5	/experiments/knapen_AOT/AOT_stimuli/rescaled_final/1439_rv.mp4	0.0	187.8214590549469	
25	159.14018893241882	fix_post	2		12	23.0	2.5	/experiments/knapen_AOT/AOT_stimuli/rescaled_final/1439_rv.mp4	0.0	188.33790493011475	0.1000370979309082
26	159.24022603034973	fix_pre	0		120	24.0	2.5	/experiments/knapen_AOT/AOT_stimuli/rescaled_final/1896_fw.mp4	0.0	188.43794202804565	1.0001389980316162
26	160.22470593452454	pulse	0	t		24.0	2.5	/experiments/knapen_AOT/AOT_stimuli/rescaled_final/1896_fw.mp4	0.0	189.42242193222046	
26	160.24036502838135	movie	1		245	24.0	2.5	/experiments/knapen_AOT/AOT_stimuli/rescaled_final/1896_fw.mp4	0.0	189.43808102607727	2.508702039718628
26	161.82423090934753	pulse	1	t		24.0	2.5	/experiments/knapen_AOT/AOT_stimuli/rescaled_final/1896_fw.mp4	0.0	191.02194690704346	
26	162.74906706809998	fix_post	2		12	24.0	2.5	/experiments/knapen_AOT/AOT_stimuli/rescaled_final/1896_fw.mp4	0.0	191.9467830657959	0.10001897811889648
27	162.84908604621887	fix_pre	0		120	25.0	2.5	/experiments/knapen_AOT/AOT_stimuli/rescaled_final/1803_rv.mp4	0.0	192.0468020439148	1.00016188621521
27	163.42439603805542	pulse	0	t		25.0	2.5	/experiments/knapen_AOT/AOT_stimuli/rescaled_final/1803_rv.mp4	0.0	192.62211203575134	
27	163.84924793243408	movie	1		243	25.0	2.5	/experiments/knapen_AOT/AOT_stimuli/rescaled_final/1803_rv.mp4	0.0	193.04696393013	2.500343084335327
27	165.0259130001068	pulse	1	t		25.0	2.5	/experiments/knapen_AOT/AOT_stimuli/rescaled_final/1803_rv.mp4	0.0	194.22362899780273	
27	166.3495910167694	fix_post	2		12	25.0	2.5	/experiments/knapen_AOT/AOT_stimuli/rescaled_final/1803_rv.mp4	0.0	195.54730701446533	0.10009503364562988
28	166.44968605041504	fix_pre	0		120	26.0	2.5	/experiments/knapen_AOT/AOT_stimuli/rescaled_final/1479_rv.mp4	0.0	195.64740204811096	1.0000698566436768
28	166.62482690811157	pulse	0	t		26.0	2.5	/experiments/knapen_AOT/AOT_stimuli/rescaled_final/1479_rv.mp4	0.0	195.8225429058075	
28	167.44975590705872	movie	1		243	26.0	2.5	/experiments/knapen_AOT/AOT_stimuli/rescaled_final/1479_rv.mp4	0.0	196.64747190475464	2.500411033630371
28	168.22522592544556	pulse	1	t		26.0	2.5	/experiments/knapen_AOT/AOT_stimuli/rescaled_final/1479_rv.mp4	0.0	197.42294192314148	
28	169.8253209590912	pulse	1	t		26.0	2.5	/experiments/knapen_AOT/AOT_stimuli/rescaled_final/1479_rv.mp4	0.0	199.0230369567871	
28	169.9501669406891	fix_post	2		12	26.0	2.5	/experiments/knapen_AOT/AOT_stimuli/rescaled_final/1479_rv.mp4	0.0	199.147882938385	0.09998393058776855
29	170.05015087127686	fix_pre	0		119	27.0	2.5	blank	1.0	199.24786686897278	0.9918441772460938
29	171.04199504852295	movie	1		300	27.0	2.5	blank	1.0	200.23971104621887	2.5003600120544434
29	171.42556405067444	pulse	1	t		27.0	2.5	blank	1.0	200.62328004837036	
29	173.0257589817047	pulse	1	t		27.0	2.5	blank	1.0	202.22347497940063	
29	173.5423550605774	fix_post	2		12	27.0	2.5	blank	1.0	202.74007105827332	0.10000896453857422
30	173.64236402511597	fix_pre	0		119	28.0	2.5	/experiments/knapen_AOT/AOT_stimuli/rescaled_final/0531_fw.mp4	0.0	202.8400800228119	0.9918880462646484
30	174.62618398666382	pulse	0	t		28.0	2.5	/experiments/knapen_AOT/AOT_stimuli/rescaled_final/0531_fw.mp4	0.0	203.82389998435974	
30	174.63425207138062	movie	1		245	28.0	2.5	/experiments/knapen_AOT/AOT_stimuli/rescaled_final/0531_fw.mp4	0.0	203.83196806907654	2.5086309909820557
30	176.2275390625	pulse	1	t		28.0	2.5	/experiments/knapen_AOT/AOT_stimuli/rescaled_final/0531_fw.mp4	0.0	205.42525506019592	
30	177.14288306236267	fix_post	2		12	28.0	2.5	/experiments/knapen_AOT/AOT_stimuli/rescaled_final/0531_fw.mp4	0.0	206.3405990600586	0.10002589225769043
31	177.24290895462036	fix_pre	0		120	29.0	2.5	/experiments/knapen_AOT/AOT_stimuli/rescaled_final/1315_fw.mp4	0.0	206.44062495231628	1.0001399517059326
31	177.82649207115173	pulse	0	t		29.0	2.5	/experiments/knapen_AOT/AOT_stimuli/rescaled_final/1315_fw.mp4	0.0	207.02420806884766	
31	178.2430489063263	movie	1		244	29.0	2.5	/experiments/knapen_AOT/AOT_stimuli/rescaled_final/1315_fw.mp4	0.0	207.44076490402222	2.5003790855407715
31	179.42689108848572	pulse	1	t		29.0	2.5	/experiments/knapen_AOT/AOT_stimuli/rescaled_final/1315_fw.mp4	0.0	208.62460708618164	
31	180.74342799186707	fix_post	2		12	29.0	2.5	/experiments/knapen_AOT/AOT_stimuli/rescaled_final/1315_fw.mp4	0.0	209.941143989563	0.10003805160522461
32	180.8434660434723	fix_pre	0		120	30.0	2.5	/experiments/knapen_AOT/AOT_stimuli/rescaled_final/1771_fw.mp4	0.0	210.0411820411682	1.0001318454742432
32	181.0271179676056	pulse	0	t		30.0	2.5	/experiments/knapen_AOT/AOT_stimuli/rescaled_final/1771_fw.mp4	0.0	210.2248339653015	
32	181.84359788894653	movie	1		244	30.0	2.5	/experiments/knapen_AOT/AOT_stimuli/rescaled_final/1771_fw.mp4	0.0	211.04131388664246	2.5003609657287598
32	182.62734007835388	pulse	1	t		30.0	2.5	/experiments/knapen_AOT/AOT_stimuli/rescaled_final/1771_fw.mp4	0.0	211.8250560760498	
32	184.22745490074158	pulse	1	t		30.0	2.5	/experiments/knapen_AOT/AOT_stimuli/rescaled_final/1771_fw.mp4	0.0	213.4251708984375	
32	184.3439588546753	fix_post	2		12	30.0	2.5	/experiments/knapen_AOT/AOT_stimuli/rescaled_final/1771_fw.mp4	0.0	213.54167485237122	0.10005402565002441
33	184.44401288032532	fix_pre	0		120	31.0	2.5	/experiments/knapen_AOT/AOT_stimuli/rescaled_final/1665_rv.mp4	0.0	213.64172887802124	1.0001461505889893
33	185.4441590309143	movie	1		242	31.0	2.5	/experiments/knapen_AOT/AOT_stimuli/rescaled_final/1665_rv.mp4	0.0	214.64187502861023	2.4919939041137695
33	185.8318989276886	pulse	1	t		31.0	2.5	/experiments/knapen_AOT/AOT_stimuli/rescaled_final/1665_rv.mp4	0.0	215.02961492538452	
33	187.42794489860535	pulse	1	t		31.0	2.5	/experiments/knapen_AOT/AOT_stimuli/rescaled_final/1665_rv.mp4	0.0	216.62566089630127	
33	187.93615293502808	fix_post	2		12	31.0	2.5	/experiments/knapen_AOT/AOT_stimuli/rescaled_final/1665_rv.mp4	0.0	217.133868932724	0.10003399848937988
34	188.03618693351746	fix_pre	0		120	32.0	2.5	/experiments/knapen_AOT/AOT_stimuli/rescaled_final/0923_rv.mp4	0.0	217.23390293121338	1.0001540184020996
34	189.02824592590332	pulse	0	t		32.0	2.5	/experiments/knapen_AOT/AOT_stimuli/rescaled_final/0923_rv.mp4	0.0	218.22596192359924	
34	189.03634095191956	movie	1		244	32.0	2.5	/experiments/knapen_AOT/AOT_stimuli/rescaled_final/0923_rv.mp4	0.0	218.23405694961548	2.5087249279022217
34	190.62921905517578	pulse	1	t		32.0	2.5	/experiments/knapen_AOT/AOT_stimuli/rescaled_final/0923_rv.mp4	0.0	219.8269350528717	
34	191.54506587982178	fix_post	2		12	32.0	2.5	/experiments/knapen_AOT/AOT_stimuli/rescaled_final/0923_rv.mp4	0.0	220.7427818775177	0.0999610424041748
35	191.64502692222595	fix_pre	0		120	33.0	2.5	blank	1.0	220.84274291992188	1.0001590251922607
35	192.2287199497223	pulse	0	t		33.0	2.5	blank	1.0	221.4264359474182	
35	192.6451859474182	movie	1		300	33.0	2.5	blank	1.0	221.84290194511414	2.5004069805145264
35	193.82891297340393	pulse	1	t		33.0	2.5	blank	1.0	223.02662897109985	
35	195.14559292793274	fix_post	2		12	33.0	2.5	blank	1.0	224.34330892562866	0.09999895095825195
36	195.245591878891	fix_pre	0		120	34.0	2.5	/experiments/knapen_AOT/AOT_stimuli/rescaled_final/0174_rv.mp4	0.0	224.4433078765869	1.000154972076416
36	195.42921996116638	pulse	0	t		34.0	2.5	/experiments/knapen_AOT/AOT_stimuli/rescaled_final/0174_rv.mp4	0.0	224.6269359588623	
36	196.2457468509674	movie	1		244	34.0	2.5	/experiments/knapen_AOT/AOT_stimuli/rescaled_final/0174_rv.mp4	0.0	225.44346284866333	2.5004000663757324
36	197.02939891815186	pulse	1	t		34.0	2.5	/experiments/knapen_AOT/AOT_stimuli/rescaled_final/0174_rv.mp4	0.0	226.22711491584778	
36	198.6275589466095	pulse	1	t		34.0	2.5	/experiments/knapen_AOT/AOT_stimuli/rescaled_final/0174_rv.mp4	0.0	227.82527494430542	
36	198.74614691734314	fix_post	2		12	34.0	2.5	/experiments/knapen_AOT/AOT_stimuli/rescaled_final/0174_rv.mp4	0.0	227.94386291503906	0.10001897811889648
37	198.84616589546204	fix_pre	0		120	35.0	2.5	/experiments/knapen_AOT/AOT_stimuli/rescaled_final/1872_fw.mp4	0.0	228.04388189315796	1.0001120567321777
37	199.8462779521942	movie	1		242	35.0	2.5	/experiments/knapen_AOT/AOT_stimuli/rescaled_final/1872_fw.mp4	0.0	229.04399394989014	2.4920809268951416
37	200.23030495643616	pulse	1	t		35.0	2.5	/experiments/knapen_AOT/AOT_stimuli/rescaled_final/1872_fw.mp4	0.0	229.42802095413208	
37	201.83020687103271	pulse	1	t		35.0	2.5	/experiments/knapen_AOT/AOT_stimuli/rescaled_final/1872_fw.mp4	0.0	231.02792286872864	
37	202.33835887908936	fix_post	2		12	35.0	2.5	/experiments/knapen_AOT/AOT_stimuli/rescaled_final/1872_fw.mp4	0.0	231.53607487678528	0.09996819496154785
38	202.4383270740509	fix_pre	0		120	36.0	2.5	/experiments/knapen_AOT/AOT_stimuli/rescaled_final/0106_fw.mp4	0.0	231.63604307174683	1.0001418590545654
38	203.43040108680725	pulse	0	t		36.0	2.5	/experiments/knapen_AOT/AOT_stimuli/rescaled_final/0106_fw.mp4	0.0	232.62811708450317	
38	203.43846893310547	movie	1		244	36.0	2.5	/experiments/knapen_AOT/AOT_stimuli/rescaled_final/0106_fw.mp4	0.0	232.6361849308014	2.508692979812622
38	205.03194499015808	pulse	1	t		36.0	2.5	/experiments/knapen_AOT/AOT_stimuli/rescaled_final/0106_fw.mp4	0.0	234.229660987854	
38	205.9471619129181	fix_post	2		12	36.0	2.5	/experiments/knapen_AOT/AOT_stimuli/rescaled_final/0106_fw.mp4	0.0	235.144877910614	0.10005402565002441
39	206.04721593856812	fix_pre	0		120	37.0	2.5	/experiments/knapen_AOT/AOT_stimuli/rescaled_final/0369_rv.mp4	0.0	235.24493193626404	1.0001411437988281
39	206.63088607788086	pulse	0	t		37.0	2.5	/experiments/knapen_AOT/AOT_stimuli/rescaled_final/0369_rv.mp4	0.0	235.82860207557678	
39	207.04735708236694	movie	1		244	37.0	2.5	/experiments/knapen_AOT/AOT_stimuli/rescaled_final/0369_rv.mp4	0.0	236.24507308006287	2.500410795211792
39	208.2311429977417	pulse	1	t		37.0	2.5	/experiments/knapen_AOT/AOT_stimuli/rescaled_final/0369_rv.mp4	0.0	237.42885899543762	
39	209.54776787757874	fix_post	2		12	37.0	2.5	/experiments/knapen_AOT/AOT_stimuli/rescaled_final/0369_rv.mp4	0.0	238.74548387527466	0.09994697570800781
40	209.64771485328674	fix_pre	0		120	38.0	2.5	/experiments/knapen_AOT/AOT_stimuli/rescaled_final/1943_rv.mp4	0.0	238.84543085098267	1.0002012252807617
40	209.823716878891	pulse	0	t		38.0	2.5	/experiments/knapen_AOT/AOT_stimuli/rescaled_final/1943_rv.mp4	0.0	239.0214328765869	
40	210.6479160785675	movie	1		243	38.0	2.5	/experiments/knapen_AOT/AOT_stimuli/rescaled_final/1943_rv.mp4	0.0	239.84563207626343	2.500328779220581
40	211.424085855484	pulse	1	t		38.0	2.5	/experiments/knapen_AOT/AOT_stimuli/rescaled_final/1943_rv.mp4	0.0	240.62180185317993	
40	213.03162503242493	pulse	1	t		38.0	2.5	/experiments/knapen_AOT/AOT_stimuli/rescaled_final/1943_rv.mp4	0.0	242.22934103012085	
40	213.1482448577881	fix_post	2		12	38.0	2.5	/experiments/knapen_AOT/AOT_stimuli/rescaled_final/1943_rv.mp4	0.0	242.345960855484	0.10001301765441895
41	213.2482578754425	fix_pre	0		120	39.0	2.5	/experiments/knapen_AOT/AOT_stimuli/rescaled_final/1714_rv.mp4	0.0	242.44597387313843	1.0001850128173828
41	214.2484428882599	movie	1		242	39.0	2.5	/experiments/knapen_AOT/AOT_stimuli/rescaled_final/1714_rv.mp4	0.0	243.4461588859558	2.492017984390259
41	214.62387585639954	pulse	1	t		39.0	2.5	/experiments/knapen_AOT/AOT_stimuli/rescaled_final/1714_rv.mp4	0.0	243.82159185409546	
41	216.2240219116211	pulse	1	t		39.0	2.5	/experiments/knapen_AOT/AOT_stimuli/rescaled_final/1714_rv.mp4	0.0	245.42173790931702	
41	216.74046087265015	fix_post	2		12	39.0	2.5	/experiments/knapen_AOT/AOT_stimuli/rescaled_final/1714_rv.mp4	0.0	245.93817687034607	0.10000419616699219
42	216.84046506881714	fix_pre	0		119	40.0	2.5	/experiments/knapen_AOT/AOT_stimuli/rescaled_final/0621_rv.mp4	0.0	246.03818106651306	0.9918079376220703
42	217.8240828514099	pulse	0	t		40.0	2.5	/experiments/knapen_AOT/AOT_stimuli/rescaled_final/0621_rv.mp4	0.0	247.02179884910583	
42	217.8322730064392	movie	1		244	40.0	2.5	/experiments/knapen_AOT/AOT_stimuli/rescaled_final/0621_rv.mp4	0.0	247.02998900413513	2.508725881576538
42	219.42518496513367	pulse	1	t		40.0	2.5	/experiments/knapen_AOT/AOT_stimuli/rescaled_final/0621_rv.mp4	0.0	248.6229009628296	
42	220.34099888801575	fix_post	2		12	40.0	2.5	/experiments/knapen_AOT/AOT_stimuli/rescaled_final/0621_rv.mp4	0.0	249.53871488571167	0.100067138671875
43	220.44106602668762	fix_pre	0		120	41.0	2.5	/experiments/knapen_AOT/AOT_stimuli/rescaled_final/1736_rv.mp4	0.0	249.63878202438354	1.00010085105896
43	221.0246250629425	pulse	0	t		41.0	2.5	/experiments/knapen_AOT/AOT_stimuli/rescaled_final/1736_rv.mp4	0.0	250.22234106063843	
43	221.44116687774658	movie	1		243	41.0	2.5	/experiments/knapen_AOT/AOT_stimuli/rescaled_final/1736_rv.mp4	0.0	250.6388828754425	2.5004491806030273
43	222.62506699562073	pulse	1	t		41.0	2.5	/experiments/knapen_AOT/AOT_stimuli/rescaled_final/1736_rv.mp4	0.0	251.82278299331665	
43	223.9416160583496	fix_post	2		12	41.0	2.5	/experiments/knapen_AOT/AOT_stimuli/rescaled_final/1736_rv.mp4	0.0	253.13933205604553	0.09993886947631836
44	224.04155492782593	fix_pre	0		120	42.0	2.5	blank	1.0	253.23927092552185	1.0001699924468994
44	224.2251579761505	pulse	0	t		42.0	2.5	blank	1.0	253.42287397384644	
44	225.04172492027283	movie	1		300	42.0	2.5	blank	1.0	254.23944091796875	2.500777006149292
44	225.82534289360046	pulse	1	t		42.0	2.5	blank	1.0	255.0230588912964	
44	227.42557191848755	pulse	1	t		42.0	2.5	blank	1.0	256.6232879161835	
44	227.54250192642212	fix_post	2		9	42.0	2.5	blank	1.0	256.74021792411804	0.09958410263061523
45	227.64208602905273	fix_pre	0		119	43.0	2.5	/experiments/knapen_AOT/AOT_stimuli/rescaled_final/1394_rv.mp4	0.0	256.83980202674866	0.9918029308319092
45	228.63388895988464	movie	1		244	43.0	2.5	/experiments/knapen_AOT/AOT_stimuli/rescaled_final/1394_rv.mp4	0.0	257.83160495758057	2.50039005279541
45	229.02600002288818	pulse	1	t		43.0	2.5	/experiments/knapen_AOT/AOT_stimuli/rescaled_final/1394_rv.mp4	0.0	258.2237160205841	
45	230.62611889839172	pulse	1	t		43.0	2.5	/experiments/knapen_AOT/AOT_stimuli/rescaled_final/1394_rv.mp4	0.0	259.82383489608765	
45	231.13427901268005	fix_post	2		12	43.0	2.5	/experiments/knapen_AOT/AOT_stimuli/rescaled_final/1394_rv.mp4	0.0	260.331995010376	0.1000058650970459
46	231.2342848777771	fix_pre	0		120	44.0	2.5	/experiments/knapen_AOT/AOT_stimuli/rescaled_final/0840_rv.mp4	0.0	260.432000875473	1.0001380443572998
46	232.22629308700562	pulse	0	t		44.0	2.5	/experiments/knapen_AOT/AOT_stimuli/rescaled_final/0840_rv.mp4	0.0	261.42400908470154	
46	232.2344229221344	movie	1		245	44.0	2.5	/experiments/knapen_AOT/AOT_stimuli/rescaled_final/0840_rv.mp4	0.0	261.4321389198303	2.508733034133911
46	233.82727003097534	pulse	1	t		44.0	2.5	/experiments/knapen_AOT/AOT_stimuli/rescaled_final/0840_rv.mp4	0.0	263.02498602867126	
46	234.7431559562683	fix_post	2		12	44.0	2.5	/experiments/knapen_AOT/AOT_stimuli/rescaled_final/0840_rv.mp4	0.0	263.94087195396423	0.10001993179321289
47	234.84317588806152	fix_pre	0		120	45.0	2.5	/experiments/knapen_AOT/AOT_stimuli/rescaled_final/1746_rv.mp4	0.0	264.04089188575745	1.000148057937622
47	235.4268879890442	pulse	0	t		45.0	2.5	/experiments/knapen_AOT/AOT_stimuli/rescaled_final/1746_rv.mp4	0.0	264.6246039867401	
47	235.84332394599915	movie	1		244	45.0	2.5	/experiments/knapen_AOT/AOT_stimuli/rescaled_final/1746_rv.mp4	0.0	265.04103994369507	2.5003530979156494
47	237.02714085578918	pulse	1	t		45.0	2.5	/experiments/knapen_AOT/AOT_stimuli/rescaled_final/1746_rv.mp4	0.0	266.2248568534851	
47	238.3436770439148	fix_post	2		12	45.0	2.5	/experiments/knapen_AOT/AOT_stimuli/rescaled_final/1746_rv.mp4	0.0	267.5413930416107	0.1000528335571289
48	238.44372987747192	fix_pre	0		120	46.0	2.5	/experiments/knapen_AOT/AOT_stimuli/rescaled_final/0621_fw.mp4	0.0	267.64144587516785	1.0001142024993896
48	238.62723398208618	pulse	0	t		46.0	2.5	/experiments/knapen_AOT/AOT_stimuli/rescaled_final/0621_fw.mp4	0.0	267.8249499797821	
48	239.4438440799713	movie	1		244	46.0	2.5	/experiments/knapen_AOT/AOT_stimuli/rescaled_final/0621_fw.mp4	0.0	268.64156007766724	2.5003678798675537
48	240.22744607925415	pulse	1	t		46.0	2.5	/experiments/knapen_AOT/AOT_stimuli/rescaled_final/0621_fw.mp4	0.0	269.4251620769501	
48	241.82770586013794	pulse	1	t		46.0	2.5	/experiments/knapen_AOT/AOT_stimuli/rescaled_final/0621_fw.mp4	0.0	271.02542185783386	
48	241.94421195983887	fix_post	2		12	46.0	2.5	/experiments/knapen_AOT/AOT_stimuli/rescaled_final/0621_fw.mp4	0.0	271.1419279575348	0.10001111030578613
49	242.04422307014465	fix_pre	0		119	47.0	2.5	/experiments/knapen_AOT/AOT_stimuli/rescaled_final/0174_fw.mp4	0.0	271.2419390678406	0.9918398857116699
49	243.03606295585632	movie	1		244	47.0	2.5	/experiments/knapen_AOT/AOT_stimuli/rescaled_final/0174_fw.mp4	0.0	272.23377895355225	2.5004351139068604
49	243.4281449317932	pulse	1	t		47.0	2.5	/experiments/knapen_AOT/AOT_stimuli/rescaled_final/0174_fw.mp4	0.0	272.62586092948914	
49	245.0282850265503	pulse	1	t		47.0	2.5	/experiments/knapen_AOT/AOT_stimuli/rescaled_final/0174_fw.mp4	0.0	274.2260010242462	
49	245.53649806976318	fix_post	2		12	47.0	2.5	/experiments/knapen_AOT/AOT_stimuli/rescaled_final/0174_fw.mp4	0.0	274.7342140674591	0.09993100166320801
50	245.6364290714264	fix_pre	0		120	48.0	2.5	blank	1.0	274.8341450691223	1.0001649856567383
50	246.62841391563416	pulse	0	t		48.0	2.5	blank	1.0	275.8261299133301	
50	246.63659405708313	movie	1		301	48.0	2.5	blank	1.0	275.83431005477905	2.5087039470672607
50	248.22867703437805	pulse	1	t		48.0	2.5	blank	1.0	277.426393032074	
50	249.1452980041504	fix_post	2		12	48.0	2.5	blank	1.0	278.3430140018463	0.10000896453857422
51	249.24530696868896	fix_pre	0		120	49.0	2.5	/experiments/knapen_AOT/AOT_stimuli/rescaled_final/0741_rv.mp4	0.0	278.4430229663849	1.0002219676971436
51	249.82889890670776	pulse	0	t		49.0	2.5	/experiments/knapen_AOT/AOT_stimuli/rescaled_final/0741_rv.mp4	0.0	279.0266149044037	
51	250.2455289363861	movie	1		244	49.0	2.5	/experiments/knapen_AOT/AOT_stimuli/rescaled_final/0741_rv.mp4	0.0	279.44324493408203	2.5002970695495605
51	251.42933702468872	pulse	1	t		49.0	2.5	/experiments/knapen_AOT/AOT_stimuli/rescaled_final/0741_rv.mp4	0.0	280.62705302238464	
51	252.74582600593567	fix_post	2		12	49.0	2.5	/experiments/knapen_AOT/AOT_stimuli/rescaled_final/0741_rv.mp4	0.0	281.9435420036316	0.10002899169921875
52	252.8458549976349	fix_pre	0		120	50.0	2.5	/experiments/knapen_AOT/AOT_stimuli/rescaled_final/0180_fw.mp4	0.0	282.0435709953308	1.0001940727233887
52	253.0294098854065	pulse	0	t		50.0	2.5	/experiments/knapen_AOT/AOT_stimuli/rescaled_final/0180_fw.mp4	0.0	282.2271258831024	
52	253.84604907035828	movie	1		243	50.0	2.5	/experiments/knapen_AOT/AOT_stimuli/rescaled_final/0180_fw.mp4	0.0	283.0437650680542	2.500304937362671
52	254.62957191467285	pulse	1	t		50.0	2.5	/experiments/knapen_AOT/AOT_stimuli/rescaled_final/0180_fw.mp4	0.0	283.8272879123688	
52	256.2303419113159	pulse	1	t		50.0	2.5	/experiments/knapen_AOT/AOT_stimuli/rescaled_final/0180_fw.mp4	0.0	285.42805790901184	
52	256.34635400772095	fix_post	2		12	50.0	2.5	/experiments/knapen_AOT/AOT_stimuli/rescaled_final/0180_fw.mp4	0.0	285.54407000541687	0.10007500648498535
53	256.44642901420593	fix_pre	0		119	51.0	2.5	/experiments/knapen_AOT/AOT_stimuli/rescaled_final/2055_rv.mp4	0.0	285.64414501190186	0.9917809963226318
53	257.43821001052856	movie	1		244	51.0	2.5	/experiments/knapen_AOT/AOT_stimuli/rescaled_final/2055_rv.mp4	0.0	286.6359260082245	2.500359058380127
53	257.8303120136261	pulse	1	t		51.0	2.5	/experiments/knapen_AOT/AOT_stimuli/rescaled_final/2055_rv.mp4	0.0	287.028028011322	
53	259.43045592308044	pulse	1	t		51.0	2.5	/experiments/knapen_AOT/AOT_stimuli/rescaled_final/2055_rv.mp4	0.0	288.62817192077637	
53	259.9385690689087	fix_post	2		12	51.0	2.5	/experiments/knapen_AOT/AOT_stimuli/rescaled_final/2055_rv.mp4	0.0	289.1362850666046	0.10004687309265137
54	260.03861594200134	fix_pre	0		120	52.0	2.5	/experiments/knapen_AOT/AOT_stimuli/rescaled_final/0693_rv.mp4	0.0	289.23633193969727	1.000148057937622
54	261.0306499004364	pulse	0	t		52.0	2.5	/experiments/knapen_AOT/AOT_stimuli/rescaled_final/0693_rv.mp4	0.0	290.2283658981323	
54	261.03876399993896	movie	1		244	52.0	2.5	/experiments/knapen_AOT/AOT_stimuli/rescaled_final/0693_rv.mp4	0.0	290.2364799976349	2.508671998977661
54	262.63130402565	pulse	1	t		52.0	2.5	/experiments/knapen_AOT/AOT_stimuli/rescaled_final/0693_rv.mp4	0.0	291.82902002334595	
54	263.5474359989166	fix_post	2		12	52.0	2.5	/experiments/knapen_AOT/AOT_stimuli/rescaled_final/0693_rv.mp4	0.0	292.74515199661255	0.10004401206970215
55	263.6474800109863	fix_pre	0		120	53.0	2.5	/experiments/knapen_AOT/AOT_stimuli/rescaled_final/1399_rv.mp4	0.0	292.84519600868225	1.0001070499420166
55	264.22367691993713	pulse	0	t		53.0	2.5	/experiments/knapen_AOT/AOT_stimuli/rescaled_final/1399_rv.mp4	0.0	293.42139291763306	
55	264.64758706092834	movie	1		244	53.0	2.5	/experiments/knapen_AOT/AOT_stimuli/rescaled_final/1399_rv.mp4	0.0	293.84530305862427	2.500401020050049
55	265.823392868042	pulse	1	t		53.0	2.5	/experiments/knapen_AOT/AOT_stimuli/rescaled_final/1399_rv.mp4	0.0	295.0211088657379	
55	267.1479880809784	fix_post	2		12	53.0	2.5	/experiments/knapen_AOT/AOT_stimuli/rescaled_final/1399_rv.mp4	0.0	296.3457040786743	0.09997081756591797
56	267.2479588985443	fix_pre	0		120	54.0	2.5	blank	1.0	296.44567489624023	1.0001821517944336
56	267.4241750240326	pulse	0	t		54.0	2.5	blank	1.0	296.6218910217285	
56	268.24814105033875	movie	1		300	54.0	2.5	blank	1.0	297.44585704803467	2.500487804412842
56	269.024188041687	pulse	1	t		54.0	2.5	blank	1.0	298.22190403938293	
56	270.6236660480499	pulse	1	t		54.0	2.5	blank	1.0	299.82138204574585	
56	270.7486288547516	fix_post	2		12	54.0	2.5	blank	1.0	299.9463448524475	0.09994101524353027
57	270.8485698699951	fix_pre	0		120	55.0	2.5	/experiments/knapen_AOT/AOT_stimuli/rescaled_final/1315_fw.mp4	0.0	300.04628586769104	1.0000951290130615
57	271.8486649990082	movie	1		243	55.0	2.5	/experiments/knapen_AOT/AOT_stimuli/rescaled_final/1315_fw.mp4	0.0	301.0463809967041	2.4922139644622803
57	272.22388195991516	pulse	1	t		55.0	2.5	/experiments/knapen_AOT/AOT_stimuli/rescaled_final/1315_fw.mp4	0.0	301.4215979576111	
57	273.8242290019989	pulse	1	t		55.0	2.5	/experiments/knapen_AOT/AOT_stimuli/rescaled_final/1315_fw.mp4	0.0	303.0219449996948	
57	274.34087896347046	fix_post	2		12	55.0	2.5	/experiments/knapen_AOT/AOT_stimuli/rescaled_final/1315_fw.mp4	0.0	303.5385949611664	0.0998690128326416
58	274.4407479763031	fix_pre	0		119	56.0	2.5	/experiments/knapen_AOT/AOT_stimuli/rescaled_final/1216_rv.mp4	0.0	303.638463973999	0.9918360710144043
58	275.42436385154724	pulse	0	t		56.0	2.5	/experiments/knapen_AOT/AOT_stimuli/rescaled_final/1216_rv.mp4	0.0	304.62207984924316	
58	275.4325840473175	movie	1		244	56.0	2.5	/experiments/knapen_AOT/AOT_stimuli/rescaled_final/1216_rv.mp4	0.0	304.6303000450134	2.5086629390716553
58	277.0253050327301	pulse	1	t		56.0	2.5	/experiments/knapen_AOT/AOT_stimuli/rescaled_final/1216_rv.mp4	0.0	306.223021030426	
58	277.94124698638916	fix_post	2		12	56.0	2.5	/experiments/knapen_AOT/AOT_stimuli/rescaled_final/1216_rv.mp4	0.0	307.1389629840851	0.10001587867736816
59	278.0412628650665	fix_pre	0		120	57.0	2.5	/experiments/knapen_AOT/AOT_stimuli/rescaled_final/2007_fw.mp4	0.0	307.23897886276245	1.0001521110534668
59	278.62485694885254	pulse	0	t		57.0	2.5	/experiments/knapen_AOT/AOT_stimuli/rescaled_final/2007_fw.mp4	0.0	307.82257294654846	
59	279.04141497612	movie	1		244	57.0	2.5	/experiments/knapen_AOT/AOT_stimuli/rescaled_final/2007_fw.mp4	0.0	308.2391309738159	2.500437021255493
59	280.22519087791443	pulse	1	t		57.0	2.5	/experiments/knapen_AOT/AOT_stimuli/rescaled_final/2007_fw.mp4	0.0	309.42290687561035	
59	281.5418519973755	fix_post	2		12	57.0	2.5	/experiments/knapen_AOT/AOT_stimuli/rescaled_final/2007_fw.mp4	0.0	310.7395679950714	0.10000395774841309
60	281.6418559551239	fix_pre	0		120	58.0	2.5	/experiments/knapen_AOT/AOT_stimuli/rescaled_final/2088_rv.mp4	0.0	310.8395719528198	1.0001099109649658
60	281.8254020214081	pulse	0	t		58.0	2.5	/experiments/knapen_AOT/AOT_stimuli/rescaled_final/2088_rv.mp4	0.0	311.023118019104	
60	282.64196586608887	movie	1		244	58.0	2.5	/experiments/knapen_AOT/AOT_stimuli/rescaled_final/2088_rv.mp4	0.0	311.8396818637848	2.500347137451172
60	283.42556285858154	pulse	1	t		58.0	2.5	/experiments/knapen_AOT/AOT_stimuli/rescaled_final/2088_rv.mp4	0.0	312.62327885627747	
60	285.02583408355713	pulse	1	t		58.0	2.5	/experiments/knapen_AOT/AOT_stimuli/rescaled_final/2088_rv.mp4	0.0	314.22355008125305	
60	285.14231300354004	fix_post	2		12	58.0	2.5	/experiments/knapen_AOT/AOT_stimuli/rescaled_final/2088_rv.mp4	0.0	314.34002900123596	0.10002303123474121
61	285.2423360347748	fix_pre	0		119	59.0	2.5	/experiments/knapen_AOT/AOT_stimuli/rescaled_final/0971_fw.mp4	0.0	314.4400520324707	0.991811990737915
61	286.2341480255127	movie	1		244	59.0	2.5	/experiments/knapen_AOT/AOT_stimuli/rescaled_final/0971_fw.mp4	0.0	315.4318640232086	2.500380039215088
61	286.626168012619	pulse	1	t		59.0	2.5	/experiments/knapen_AOT/AOT_stimuli/rescaled_final/0971_fw.mp4	0.0	315.82388401031494	
61	288.2264139652252	pulse	1	t		59.0	2.5	/experiments/knapen_AOT/AOT_stimuli/rescaled_final/0971_fw.mp4	0.0	317.42412996292114	
61	288.7345280647278	fix_post	2		10	59.0	2.5	/experiments/knapen_AOT/AOT_stimuli/rescaled_final/0971_fw.mp4	0.0	317.9322440624237	0.10002779960632324
62	288.8345558643341	fix_pre	0		120	60.0	2.5	/experiments/knapen_AOT/AOT_stimuli/rescaled_final/0997_rv.mp4	0.0	318.03227186203003	1.0001840591430664
62	289.82650685310364	pulse	0	t		60.0	2.5	/experiments/knapen_AOT/AOT_stimuli/rescaled_final/0997_rv.mp4	0.0	319.02422285079956	
62	289.8347399234772	movie	1		246	60.0	2.5	/experiments/knapen_AOT/AOT_stimuli/rescaled_final/0997_rv.mp4	0.0	319.0324559211731	2.5086441040039062
62	291.4284279346466	pulse	1	t		60.0	2.5	/experiments/knapen_AOT/AOT_stimuli/rescaled_final/0997_rv.mp4	0.0	320.62614393234253	
62	292.3433840274811	fix_post	2		12	60.0	2.5	/experiments/knapen_AOT/AOT_stimuli/rescaled_final/0997_rv.mp4	0.0	321.541100025177	0.10006999969482422
63	292.4434540271759	fix_pre	0		120	61.0	2.5	/experiments/knapen_AOT/AOT_stimuli/rescaled_final/1717_fw.mp4	0.0	321.6411700248718	1.0001509189605713
63	293.0269989967346	pulse	0	t		61.0	2.5	/experiments/knapen_AOT/AOT_stimuli/rescaled_final/1717_fw.mp4	0.0	322.22471499443054	
63	293.4436049461365	movie	1		244	61.0	2.5	/experiments/knapen_AOT/AOT_stimuli/rescaled_final/1717_fw.mp4	0.0	322.6413209438324	2.500330924987793
63	294.6274690628052	pulse	1	t		61.0	2.5	/experiments/knapen_AOT/AOT_stimuli/rescaled_final/1717_fw.mp4	0.0	323.8251850605011	
63	295.94393587112427	fix_post	2		12	61.0	2.5	/experiments/knapen_AOT/AOT_stimuli/rescaled_final/1717_fw.mp4	0.0	325.1416518688202	0.1000051498413086
64	296.0439410209656	fix_pre	0		120	62.0	2.5	/experiments/knapen_AOT/AOT_stimuli/rescaled_final/1945_fw.mp4	0.0	325.2416570186615	1.0001609325408936
64	296.22751688957214	pulse	0	t		62.0	2.5	/experiments/knapen_AOT/AOT_stimuli/rescaled_final/1945_fw.mp4	0.0	325.42523288726807	
64	297.04410195350647	movie	1		244	62.0	2.5	/experiments/knapen_AOT/AOT_stimuli/rescaled_final/1945_fw.mp4	0.0	326.2418179512024	2.500380039215088
64	297.8278419971466	pulse	1	t		62.0	2.5	/experiments/knapen_AOT/AOT_stimuli/rescaled_final/1945_fw.mp4	0.0	327.02555799484253	
64	299.42800307273865	pulse	1	t		62.0	2.5	/experiments/knapen_AOT/AOT_stimuli/rescaled_final/1945_fw.mp4	0.0	328.62571907043457	
64	299.54448199272156	fix_post	2		12	62.0	2.5	/experiments/knapen_AOT/AOT_stimuli/rescaled_final/1945_fw.mp4	0.0	328.7421979904175	0.10003805160522461
65	299.6445200443268	fix_pre	0		120	63.0	2.5	blank	1.0	328.8422360420227	1.0001769065856934
65	300.6446969509125	movie	1		299	63.0	2.5	blank	1.0	329.8424129486084	2.4919919967651367
65	301.028244972229	pulse	1	t		63.0	2.5	blank	1.0	330.2259609699249	
65	302.6284599304199	pulse	1	t		63.0	2.5	blank	1.0	331.82617592811584	
65	303.1366889476776	fix_post	2		12	63.0	2.5	blank	1.0	332.33440494537354	0.10004901885986328
66	303.2367379665375	fix_pre	0		120	64.0	2.5	/experiments/knapen_AOT/AOT_stimuli/rescaled_final/1437_rv.mp4	0.0	332.4344539642334	1.000119924545288
66	304.22882986068726	pulse	0	t		64.0	2.5	/experiments/knapen_AOT/AOT_stimuli/rescaled_final/1437_rv.mp4	0.0	333.4265458583832	
66	304.23685789108276	movie	1		244	64.0	2.5	/experiments/knapen_AOT/AOT_stimuli/rescaled_final/1437_rv.mp4	0.0	333.4345738887787	2.5086669921875
66	305.8296089172363	pulse	1	t		64.0	2.5	/experiments/knapen_AOT/AOT_stimuli/rescaled_final/1437_rv.mp4	0.0	335.02732491493225	
66	306.74552488327026	fix_post	2		12	64.0	2.5	/experiments/knapen_AOT/AOT_stimuli/rescaled_final/1437_rv.mp4	0.0	335.9432408809662	0.1000370979309082
67	306.8455619812012	fix_pre	0		120	65.0	2.5	/experiments/knapen_AOT/AOT_stimuli/rescaled_final/0235_rv.mp4	0.0	336.0432779788971	1.0001659393310547
67	307.4292118549347	pulse	0	t		65.0	2.5	/experiments/knapen_AOT/AOT_stimuli/rescaled_final/0235_rv.mp4	0.0	336.6269278526306	
67	307.8457279205322	movie	1		245	65.0	2.5	/experiments/knapen_AOT/AOT_stimuli/rescaled_final/0235_rv.mp4	0.0	337.04344391822815	2.500365972518921
67	309.02948904037476	pulse	1	t		65.0	2.5	/experiments/knapen_AOT/AOT_stimuli/rescaled_final/0235_rv.mp4	0.0	338.2272050380707	
67	310.34609389305115	fix_post	2		12	65.0	2.5	/experiments/knapen_AOT/AOT_stimuli/rescaled_final/0235_rv.mp4	0.0	339.54380989074707	0.10001111030578613
68	310.44610500335693	fix_pre	0		120	66.0	2.5	/experiments/knapen_AOT/AOT_stimuli/rescaled_final/0323_rv.mp4	0.0	339.64382100105286	1.0001380443572998
68	310.6297628879547	pulse	0	t		66.0	2.5	/experiments/knapen_AOT/AOT_stimuli/rescaled_final/0323_rv.mp4	0.0	339.82747888565063	
68	311.44624304771423	movie	1		244	66.0	2.5	/experiments/knapen_AOT/AOT_stimuli/rescaled_final/0323_rv.mp4	0.0	340.64395904541016	2.500361919403076
68	312.2300510406494	pulse	1	t		66.0	2.5	/experiments/knapen_AOT/AOT_stimuli/rescaled_final/0323_rv.mp4	0.0	341.42776703834534	
68	313.8301479816437	pulse	1	t		66.0	2.5	/experiments/knapen_AOT/AOT_stimuli/rescaled_final/0323_rv.mp4	0.0	343.0278639793396	
68	313.9466049671173	fix_post	2		12	66.0	2.5	/experiments/knapen_AOT/AOT_stimuli/rescaled_final/0323_rv.mp4	0.0	343.14432096481323	0.0999898910522461
69	314.04659485816956	fix_pre	0		120	67.0	2.5	/experiments/knapen_AOT/AOT_stimuli/rescaled_final/0904_fw.mp4	0.0	343.2443108558655	1.0002381801605225
69	315.0468330383301	movie	1		244	67.0	2.5	/experiments/knapen_AOT/AOT_stimuli/rescaled_final/0904_fw.mp4	0.0	344.244549036026	2.4920170307159424
69	315.4317560195923	pulse	1	t		67.0	2.5	/experiments/knapen_AOT/AOT_stimuli/rescaled_final/0904_fw.mp4	0.0	344.6294720172882	
69	317.0306329727173	pulse	1	t		67.0	2.5	/experiments/knapen_AOT/AOT_stimuli/rescaled_final/0904_fw.mp4	0.0	346.2283489704132	
69	317.538850069046	fix_post	2		12	67.0	2.5	/experiments/knapen_AOT/AOT_stimuli/rescaled_final/0904_fw.mp4	0.0	346.73656606674194	0.10002279281616211
70	317.6388728618622	fix_pre	0		120	68.0	2.5	/experiments/knapen_AOT/AOT_stimuli/rescaled_final/1398_fw.mp4	0.0	346.8365888595581	1.000101089477539
70	318.63098096847534	pulse	0	t		68.0	2.5	/experiments/knapen_AOT/AOT_stimuli/rescaled_final/1398_fw.mp4	0.0	347.82869696617126	
70	318.6389739513397	movie	1		246	68.0	2.5	/experiments/knapen_AOT/AOT_stimuli/rescaled_final/1398_fw.mp4	0.0	347.83668994903564	2.5087311267852783
70	320.23159193992615	pulse	1	t		68.0	2.5	/experiments/knapen_AOT/AOT_stimuli/rescaled_final/1398_fw.mp4	0.0	349.42930793762207	
70	321.147705078125	fix_post	2		12	68.0	2.5	/experiments/knapen_AOT/AOT_stimuli/rescaled_final/1398_fw.mp4	0.0	350.3454210758209	0.10001778602600098
71	321.247722864151	fix_pre	0		120	69.0	2.5	blank	1.0	350.4454388618469	1.000157117843628
71	321.831307888031	pulse	0	t		69.0	2.5	blank	1.0	351.02902388572693	
71	322.24787998199463	movie	1		300	69.0	2.5	blank	1.0	351.44559597969055	2.5003628730773926
71	323.424085855484	pulse	1	t		69.0	2.5	blank	1.0	352.62180185317993	
71	324.748242855072	fix_post	2		12	69.0	2.5	blank	1.0	353.94595885276794	0.1000070571899414
72	324.84824991226196	fix_pre	0		120	70.0	2.5	/experiments/knapen_AOT/AOT_stimuli/rescaled_final/1804_fw.mp4	0.0	354.0459659099579	1.0001871585845947
72	325.02429389953613	pulse	0	t		70.0	2.5	/experiments/knapen_AOT/AOT_stimuli/rescaled_final/1804_fw.mp4	0.0	354.22200989723206	
72	325.84843707084656	movie	1		246	70.0	2.5	/experiments/knapen_AOT/AOT_stimuli/rescaled_final/1804_fw.mp4	0.0	355.0461530685425	2.500293016433716
72	326.6246440410614	pulse	1	t		70.0	2.5	/experiments/knapen_AOT/AOT_stimuli/rescaled_final/1804_fw.mp4	0.0	355.8223600387573	
72	328.2249119281769	pulse	1	t		70.0	2.5	/experiments/knapen_AOT/AOT_stimuli/rescaled_final/1804_fw.mp4	0.0	357.4226279258728	
72	328.3487300872803	fix_post	2		12	70.0	2.5	/experiments/knapen_AOT/AOT_stimuli/rescaled_final/1804_fw.mp4	0.0	357.5464460849762	0.1000969409942627
73	328.44882702827454	fix_pre	0		120	71.0	2.5	/experiments/knapen_AOT/AOT_stimuli/rescaled_final/0845_rv.mp4	0.0	357.64654302597046	1.0000929832458496
73	329.4489200115204	movie	1		244	71.0	2.5	/experiments/knapen_AOT/AOT_stimuli/rescaled_final/0845_rv.mp4	0.0	358.6466360092163	2.4920928478240967
73	329.8242290019989	pulse	1	t		71.0	2.5	/experiments/knapen_AOT/AOT_stimuli/rescaled_final/0845_rv.mp4	0.0	359.0219449996948	
73	331.42447304725647	pulse	1	t		71.0	2.5	/experiments/knapen_AOT/AOT_stimuli/rescaled_final/0845_rv.mp4	0.0	360.6221890449524	
73	331.9410128593445	fix_post	2		12	71.0	2.5	/experiments/knapen_AOT/AOT_stimuli/rescaled_final/0845_rv.mp4	0.0	361.1387288570404	0.10004115104675293
74	332.04105401039124	fix_pre	0		119	72.0	2.5	/experiments/knapen_AOT/AOT_stimuli/rescaled_final/1804_rv.mp4	0.0	361.23877000808716	0.9917619228363037
74	333.0246078968048	pulse	0	t		72.0	2.5	/experiments/knapen_AOT/AOT_stimuli/rescaled_final/1804_rv.mp4	0.0	362.22232389450073	
74	333.03281593322754	movie	1		247	72.0	2.5	/experiments/knapen_AOT/AOT_stimuli/rescaled_final/1804_rv.mp4	0.0	362.23053193092346	2.508687973022461
74	334.6290018558502	pulse	1	t		72.0	2.5	/experiments/knapen_AOT/AOT_stimuli/rescaled_final/1804_rv.mp4	0.0	363.82671785354614	
74	335.54150390625	fix_post	2		12	72.0	2.5	/experiments/knapen_AOT/AOT_stimuli/rescaled_final/1804_rv.mp4	0.0	364.7392199039459	0.10000801086425781
75	335.64151191711426	fix_pre	0		120	73.0	2.5	/experiments/knapen_AOT/AOT_stimuli/rescaled_final/1111_rv.mp4	0.0	364.8392279148102	1.000162124633789
75	336.22524905204773	pulse	0	t		73.0	2.5	/experiments/knapen_AOT/AOT_stimuli/rescaled_final/1111_rv.mp4	0.0	365.42296504974365	
75	336.64167404174805	movie	1		244	73.0	2.5	/experiments/knapen_AOT/AOT_stimuli/rescaled_final/1111_rv.mp4	0.0	365.83939003944397	2.5004308223724365
75	337.82543992996216	pulse	1	t		73.0	2.5	/experiments/knapen_AOT/AOT_stimuli/rescaled_final/1111_rv.mp4	0.0	367.0231559276581	
75	339.1421048641205	fix_post	2		12	73.0	2.5	/experiments/knapen_AOT/AOT_stimuli/rescaled_final/1111_rv.mp4	0.0	368.3398208618164	0.10000014305114746
76	339.24210500717163	fix_pre	0		120	74.0	2.5	/experiments/knapen_AOT/AOT_stimuli/rescaled_final/0766_rv.mp4	0.0	368.43982100486755	1.0000929832458496
76	339.42559599876404	pulse	0	t		74.0	2.5	/experiments/knapen_AOT/AOT_stimuli/rescaled_final/0766_rv.mp4	0.0	368.62331199645996	
76	340.2421979904175	movie	1		245	74.0	2.5	/experiments/knapen_AOT/AOT_stimuli/rescaled_final/0766_rv.mp4	0.0	369.4399139881134	2.5004160404205322
76	341.02584195137024	pulse	1	t		74.0	2.5	/experiments/knapen_AOT/AOT_stimuli/rescaled_final/0766_rv.mp4	0.0	370.22355794906616	
76	342.6261188983917	pulse	1	t		74.0	2.5	/experiments/knapen_AOT/AOT_stimuli/rescaled_final/0766_rv.mp4	0.0	371.82383489608765	
76	342.742614030838	fix_post	2		12	74.0	2.5	/experiments/knapen_AOT/AOT_stimuli/rescaled_final/0766_rv.mp4	0.0	371.94033002853394	0.09999203681945801
77	342.84260606765747	fix_pre	0		120	75.0	2.5	/experiments/knapen_AOT/AOT_stimuli/rescaled_final/0988_fw.mp4	0.0	372.0403220653534	1.0001709461212158
77	343.8427770137787	movie	1		242	75.0	2.5	/experiments/knapen_AOT/AOT_stimuli/rescaled_final/0988_fw.mp4	0.0	373.0404930114746	2.492025852203369
77	344.22683787345886	pulse	1	t		75.0	2.5	/experiments/knapen_AOT/AOT_stimuli/rescaled_final/0988_fw.mp4	0.0	373.4245538711548	
77	345.82650995254517	pulse	1	t		75.0	2.5	/experiments/knapen_AOT/AOT_stimuli/rescaled_final/0988_fw.mp4	0.0	375.0242259502411	
77	346.33480286598206	fix_post	2		12	75.0	2.5	/experiments/knapen_AOT/AOT_stimuli/rescaled_final/0988_fw.mp4	0.0	375.532518863678	0.10005617141723633
78	346.4348590373993	fix_pre	0		118	76.0	2.5	blank	1.0	375.6325750350952	1.0001399517059326
78	347.4269070625305	pulse	0	t		76.0	2.5	blank	1.0	376.62462306022644	
78	347.4349989891052	movie	1		301	76.0	2.5	blank	1.0	376.63271498680115	2.5086848735809326
78	349.0271899700165	pulse	1	t		76.0	2.5	blank	1.0	378.2249059677124	
78	349.94368386268616	fix_post	2		12	76.0	2.5	blank	1.0	379.1413998603821	0.09999704360961914
79	350.0436809062958	fix_pre	0		120	77.0	2.5	/experiments/knapen_AOT/AOT_stimuli/rescaled_final/1803_fw.mp4	0.0	379.2413969039917	1.000133991241455
79	350.62732100486755	pulse	0	t		77.0	2.5	/experiments/knapen_AOT/AOT_stimuli/rescaled_final/1803_fw.mp4	0.0	379.8250370025635	
79	351.04381489753723	movie	1		244	77.0	2.5	/experiments/knapen_AOT/AOT_stimuli/rescaled_final/1803_fw.mp4	0.0	380.24153089523315	2.500369071960449
79	352.22759199142456	pulse	1	t		77.0	2.5	/experiments/knapen_AOT/AOT_stimuli/rescaled_final/1803_fw.mp4	0.0	381.4253079891205	
79	353.5441839694977	fix_post	2		12	77.0	2.5	/experiments/knapen_AOT/AOT_stimuli/rescaled_final/1803_fw.mp4	0.0	382.7418999671936	0.10004496574401855
80	353.6442289352417	fix_pre	0		120	78.0	2.5	/experiments/knapen_AOT/AOT_stimuli/rescaled_final/1111_rv.mp4	0.0	382.8419449329376	1.0001299381256104
80	353.82781887054443	pulse	0	t		78.0	2.5	/experiments/knapen_AOT/AOT_stimuli/rescaled_final/1111_rv.mp4	0.0	383.02553486824036	
80	354.6443588733673	movie	1		244	78.0	2.5	/experiments/knapen_AOT/AOT_stimuli/rescaled_final/1111_rv.mp4	0.0	383.84207487106323	2.50058913230896
80	355.42813992500305	pulse	1	t		78.0	2.5	/experiments/knapen_AOT/AOT_stimuli/rescaled_final/1111_rv.mp4	0.0	384.625855922699	
80	357.0284230709076	pulse	1	t		78.0	2.5	/experiments/knapen_AOT/AOT_stimuli/rescaled_final/1111_rv.mp4	0.0	386.2261390686035	
80	357.14494800567627	fix_post	2		12	78.0	2.5	/experiments/knapen_AOT/AOT_stimuli/rescaled_final/1111_rv.mp4	0.0	386.3426640033722	0.09980201721191406
81	357.2447500228882	fix_pre	0		120	79.0	2.5	/experiments/knapen_AOT/AOT_stimuli/rescaled_final/1216_fw.mp4	0.0	386.4424660205841	1.000143051147461
81	358.24489307403564	movie	1		243	79.0	2.5	/experiments/knapen_AOT/AOT_stimuli/rescaled_final/1216_fw.mp4	0.0	387.44260907173157	2.4920458793640137
81	358.6292450428009	pulse	1	t		79.0	2.5	/experiments/knapen_AOT/AOT_stimuli/rescaled_final/1216_fw.mp4	0.0	387.8269610404968	
81	360.2288110256195	pulse	1	t		79.0	2.5	/experiments/knapen_AOT/AOT_stimuli/rescaled_final/1216_fw.mp4	0.0	389.42652702331543	
81	360.73693895339966	fix_post	2		12	79.0	2.5	/experiments/knapen_AOT/AOT_stimuli/rescaled_final/1216_fw.mp4	0.0	389.9346549510956	0.10002708435058594
82	360.83696603775024	fix_pre	0		120	80.0	2.5	/experiments/knapen_AOT/AOT_stimuli/rescaled_final/1604_fw.mp4	0.0	390.03468203544617	1.000128984451294
82	361.82903599739075	pulse	0	t		80.0	2.5	/experiments/knapen_AOT/AOT_stimuli/rescaled_final/1604_fw.mp4	0.0	391.02675199508667	
82	361.83709502220154	movie	1		244	80.0	2.5	/experiments/knapen_AOT/AOT_stimuli/rescaled_final/1604_fw.mp4	0.0	391.03481101989746	2.508697986602783
82	363.4303889274597	pulse	1	t		80.0	2.5	/experiments/knapen_AOT/AOT_stimuli/rescaled_final/1604_fw.mp4	0.0	392.62810492515564	
82	364.3457930088043	fix_post	2		12	80.0	2.5	/experiments/knapen_AOT/AOT_stimuli/rescaled_final/1604_fw.mp4	0.0	393.54350900650024	0.10004496574401855
83	364.44583797454834	fix_pre	0		120	81.0	2.5	/experiments/knapen_AOT/AOT_stimuli/rescaled_final/0549_rv.mp4	0.0	393.64355397224426	1.0001349449157715
83	365.02940702438354	pulse	0	t		81.0	2.5	/experiments/knapen_AOT/AOT_stimuli/rescaled_final/0549_rv.mp4	0.0	394.22712302207947	
83	365.4459729194641	movie	1		243	81.0	2.5	/experiments/knapen_AOT/AOT_stimuli/rescaled_final/0549_rv.mp4	0.0	394.64368891716003	2.5003600120544434
83	366.62970900535583	pulse	1	t		81.0	2.5	/experiments/knapen_AOT/AOT_stimuli/rescaled_final/0549_rv.mp4	0.0	395.82742500305176	
83	367.94633293151855	fix_post	2		12	81.0	2.5	/experiments/knapen_AOT/AOT_stimuli/rescaled_final/0549_rv.mp4	0.0	397.1440489292145	0.10005402565002441
84	368.0463869571686	fix_pre	0		120	82.0	2.5	blank	1.0	397.2441029548645	1.0001261234283447
84	368.2299590110779	pulse	0	t		82.0	2.5	blank	1.0	397.4276750087738	
84	369.0465130805969	movie	1		300	82.0	2.5	blank	1.0	398.24422907829285	2.5004098415374756
84	369.8301570415497	pulse	1	t		82.0	2.5	blank	1.0	399.0278730392456	
84	371.43044900894165	pulse	1	t		82.0	2.5	blank	1.0	400.6281650066376	
84	371.5469229221344	fix_post	2		12	82.0	2.5	blank	1.0	400.7446389198303	0.09999704360961914
85	371.646919965744	fix_pre	0		120	83.0	2.5	/experiments/knapen_AOT/AOT_stimuli/rescaled_final/1257_fw.mp4	0.0	400.84463596343994	1.0001299381256104
85	372.64704990386963	movie	1		245	83.0	2.5	/experiments/knapen_AOT/AOT_stimuli/rescaled_final/1257_fw.mp4	0.0	401.84476590156555	2.4920849800109863
85	373.0312440395355	pulse	1	t		83.0	2.5	/experiments/knapen_AOT/AOT_stimuli/rescaled_final/1257_fw.mp4	0.0	402.22896003723145	
85	374.63084602355957	pulse	1	t		83.0	2.5	/experiments/knapen_AOT/AOT_stimuli/rescaled_final/1257_fw.mp4	0.0	403.8285620212555	
85	375.1391348838806	fix_post	2		12	83.0	2.5	/experiments/knapen_AOT/AOT_stimuli/rescaled_final/1257_fw.mp4	0.0	404.33685088157654	0.09995913505554199
87	375.23909401893616	stim	0		1716					404.4368100166321	14.302196025848389
87	376.2237470149994	pulse	0	t						405.4214630126953	
87	377.82390308380127	pulse	0	t						407.0216190814972	
87	379.42429399490356	pulse	0	t						408.6220099925995	
87	381.02453899383545	pulse	0	t						410.2222549915314	
87	382.6237280368805	pulse	0	t						411.8214440345764	
87	384.2238759994507	pulse	0	t						413.4215919971466	
87	385.824334859848	pulse	0	t						415.02205085754395	
87	387.4243619441986	pulse	0	t						416.62207794189453	
87	389.0247058868408	pulse	0	t						418.22242188453674	
