trial_nr	onset	event_type	phase	response	nr_frames	movie_index	movie_duration	movie_file	blank	onset_abs	duration
0	0.16660714149475098	stim	0		1					16.459378719329834	0.008322715759277344
0	0.12640094757080078	response	0	space						16.419172525405884	
1	0.17492985725402832	stim	0		4791					16.46770143508911	39.942346811294556
1	40.10726833343506	pulse	0	t						56.40003991127014	
1	40.117276668548584	stim	1		1715					56.41004824638367	14.307390451431274
1	41.697919845581055	pulse	1	t						57.99069142341614	
1	43.29830288887024	pulse	1	t						59.59107446670532	
1	44.89849090576172	pulse	1	t						61.1912624835968	
1	46.49862027168274	pulse	1	t						62.79139184951782	
1	48.09885001182556	pulse	1	t						64.39162158966064	
1	49.69941306114197	pulse	1	t						65.99218463897705	
1	51.299375772476196	pulse	1	t						67.59214735031128	
1	52.899561643600464	pulse	1	t						69.19233322143555	
2	54.42466711997986	fix_pre	0		10	0.0	2.5	/experiments/Knapen_AOT/AOT_stimuli/rescaled_final/1436_fw.mp4	0.0	70.71743869781494	0.12516093254089355
2	54.4998517036438	pulse	0	t		0.0	2.5	/experiments/Knapen_AOT/AOT_stimuli/rescaled_final/1436_fw.mp4	0.0	70.79262328147888	
2	54.54982805252075	movie	1		284	0.0	2.5	/experiments/Knapen_AOT/AOT_stimuli/rescaled_final/1436_fw.mp4	0.0	70.84259963035583	2.466846227645874
2	56.09845018386841	pulse	1	t		0.0	2.5	/experiments/Knapen_AOT/AOT_stimuli/rescaled_final/1436_fw.mp4	0.0	72.39122176170349	
2	57.016674280166626	fix_post	2		12	0.0	2.5	/experiments/Knapen_AOT/AOT_stimuli/rescaled_final/1436_fw.mp4	0.0	73.30944585800171	0.10005640983581543
3	57.11673069000244	fix_pre	0		120	1.0	2.5	/experiments/Knapen_AOT/AOT_stimuli/rescaled_final/0800_fw.mp4	0.0	73.40950226783752	1.0084648132324219
3	57.7005717754364	pulse	0	t		1.0	2.5	/experiments/Knapen_AOT/AOT_stimuli/rescaled_final/0800_fw.mp4	0.0	73.99334335327148	
3	58.12519550323486	movie	1		294	1.0	2.5	/experiments/Knapen_AOT/AOT_stimuli/rescaled_final/0800_fw.mp4	0.0	74.41796708106995	2.492053747177124
3	59.29853105545044	pulse	1	t		1.0	2.5	/experiments/Knapen_AOT/AOT_stimuli/rescaled_final/0800_fw.mp4	0.0	75.59130263328552	
3	60.61724925041199	fix_post	2		12	1.0	2.5	/experiments/Knapen_AOT/AOT_stimuli/rescaled_final/0800_fw.mp4	0.0	76.91002082824707	0.10002827644348145
4	60.71727752685547	fix_pre	0		120	2.0	2.5	/experiments/Knapen_AOT/AOT_stimuli/rescaled_final/0207_rv.mp4	0.0	77.01004910469055	1.0084631443023682
4	60.9008104801178	pulse	0	t		2.0	2.5	/experiments/Knapen_AOT/AOT_stimuli/rescaled_final/0207_rv.mp4	0.0	77.19358205795288	
4	61.72574067115784	movie	1		284	2.0	2.5	/experiments/Knapen_AOT/AOT_stimuli/rescaled_final/0207_rv.mp4	0.0	78.01851224899292	2.492027997970581
4	62.49916863441467	pulse	1	t		2.0	2.5	/experiments/Knapen_AOT/AOT_stimuli/rescaled_final/0207_rv.mp4	0.0	78.79194021224976	
4	64.09941458702087	pulse	1	t		2.0	2.5	/experiments/Knapen_AOT/AOT_stimuli/rescaled_final/0207_rv.mp4	0.0	80.39218616485596	
4	64.21776866912842	fix_post	2		12	2.0	2.5	/experiments/Knapen_AOT/AOT_stimuli/rescaled_final/0207_rv.mp4	0.0	80.5105402469635	0.10001921653747559
5	64.3177878856659	fix_pre	0		120	3.0	2.5	/experiments/Knapen_AOT/AOT_stimuli/rescaled_final/1439_fw.mp4	0.0	80.61055946350098	1.008500337600708
5	65.3262882232666	movie	1		289	3.0	2.5	/experiments/Knapen_AOT/AOT_stimuli/rescaled_final/1439_fw.mp4	0.0	81.61905980110168	2.4920661449432373
5	65.70182013511658	pulse	1	t		3.0	2.5	/experiments/Knapen_AOT/AOT_stimuli/rescaled_final/1439_fw.mp4	0.0	81.99459171295166	
5	67.29971766471863	pulse	1	t		3.0	2.5	/experiments/Knapen_AOT/AOT_stimuli/rescaled_final/1439_fw.mp4	0.0	83.59248924255371	
5	67.81835436820984	fix_post	2		12	3.0	2.5	/experiments/Knapen_AOT/AOT_stimuli/rescaled_final/1439_fw.mp4	0.0	84.11112594604492	0.10002851486206055
6	67.9183828830719	fix_pre	0		119	4.0	2.5	/experiments/Knapen_AOT/AOT_stimuli/rescaled_final/1922_fw.mp4	0.0	84.21115446090698	1.0001139640808105
6	68.90204238891602	pulse	0	t		4.0	2.5	/experiments/Knapen_AOT/AOT_stimuli/rescaled_final/1922_fw.mp4	0.0	85.1948139667511	
6	68.91849684715271	movie	1		292	4.0	2.5	/experiments/Knapen_AOT/AOT_stimuli/rescaled_final/1922_fw.mp4	0.0	85.2112684249878	2.500382423400879
6	70.50113368034363	pulse	1	t		4.0	2.5	/experiments/Knapen_AOT/AOT_stimuli/rescaled_final/1922_fw.mp4	0.0	86.79390525817871	
6	71.41887927055359	fix_post	2		12	4.0	2.5	/experiments/Knapen_AOT/AOT_stimuli/rescaled_final/1922_fw.mp4	0.0	87.71165084838867	0.09998369216918945
7	71.51886296272278	fix_pre	0		120	5.0	2.5	/experiments/Knapen_AOT/AOT_stimuli/rescaled_final/0706_rv.mp4	0.0	87.81163454055786	1.0084960460662842
7	72.10246849060059	pulse	0	t		5.0	2.5	/experiments/Knapen_AOT/AOT_stimuli/rescaled_final/0706_rv.mp4	0.0	88.39524006843567	
7	72.52735900878906	movie	1		294	5.0	2.5	/experiments/Knapen_AOT/AOT_stimuli/rescaled_final/0706_rv.mp4	0.0	88.82013058662415	2.4920358657836914
7	73.70083999633789	pulse	1	t		5.0	2.5	/experiments/Knapen_AOT/AOT_stimuli/rescaled_final/0706_rv.mp4	0.0	89.99361157417297	
7	75.01939487457275	fix_post	2		12	5.0	2.5	/experiments/Knapen_AOT/AOT_stimuli/rescaled_final/0706_rv.mp4	0.0	91.31216645240784	0.10003662109375
8	75.1194314956665	fix_pre	0		120	6.0	2.5	/experiments/Knapen_AOT/AOT_stimuli/rescaled_final/2169_fw.mp4	0.0	91.41220307350159	1.0084707736968994
8	75.30299234390259	pulse	0	t		6.0	2.5	/experiments/Knapen_AOT/AOT_stimuli/rescaled_final/2169_fw.mp4	0.0	91.59576392173767	
8	76.1279022693634	movie	1		287	6.0	2.5	/experiments/Knapen_AOT/AOT_stimuli/rescaled_final/2169_fw.mp4	0.0	92.42067384719849	2.4920222759246826
8	76.90114212036133	pulse	1	t		6.0	2.5	/experiments/Knapen_AOT/AOT_stimuli/rescaled_final/2169_fw.mp4	0.0	93.19391369819641	
8	78.50145888328552	pulse	1	t		6.0	2.5	/experiments/Knapen_AOT/AOT_stimuli/rescaled_final/2169_fw.mp4	0.0	94.7942304611206	
8	78.61992454528809	fix_post	2		12	6.0	2.5	/experiments/Knapen_AOT/AOT_stimuli/rescaled_final/2169_fw.mp4	0.0	94.91269612312317	0.1001274585723877
9	78.72005200386047	fix_pre	0		120	7.0	2.5	blank	1.0	95.01282358169556	1.0000393390655518
9	79.72009134292603	movie	1		300	7.0	2.5	blank	1.0	96.01286292076111	2.5003662109375
9	80.10392808914185	pulse	1	t		7.0	2.5	blank	1.0	96.39669966697693	
9	81.70394134521484	pulse	1	t		7.0	2.5	blank	1.0	97.99671292304993	
9	82.22045755386353	fix_post	2		12	7.0	2.5	blank	1.0	98.51322913169861	0.10002326965332031
10	82.32048082351685	fix_pre	0		119	8.0	2.5	/experiments/Knapen_AOT/AOT_stimuli/rescaled_final/1158_rv.mp4	0.0	98.61325240135193	1.0003232955932617
10	83.29694962501526	pulse	0	t		8.0	2.5	/experiments/Knapen_AOT/AOT_stimuli/rescaled_final/1158_rv.mp4	0.0	99.58972120285034	
10	83.32080411911011	movie	1		289	8.0	2.5	/experiments/Knapen_AOT/AOT_stimuli/rescaled_final/1158_rv.mp4	0.0	99.61357569694519	2.5002005100250244
10	84.90299677848816	pulse	1	t		8.0	2.5	/experiments/Knapen_AOT/AOT_stimuli/rescaled_final/1158_rv.mp4	0.0	101.19576835632324	
10	85.82100462913513	fix_post	2		12	8.0	2.5	/experiments/Knapen_AOT/AOT_stimuli/rescaled_final/1158_rv.mp4	0.0	102.11377620697021	0.10001206398010254
11	85.92101669311523	fix_pre	0		120	9.0	2.5	/experiments/Knapen_AOT/AOT_stimuli/rescaled_final/1621_rv.mp4	0.0	102.21378827095032	1.0085227489471436
11	86.49737882614136	pulse	0	t		9.0	2.5	/experiments/Knapen_AOT/AOT_stimuli/rescaled_final/1621_rv.mp4	0.0	102.79015040397644	
11	86.92953944206238	movie	1		280	9.0	2.5	/experiments/Knapen_AOT/AOT_stimuli/rescaled_final/1621_rv.mp4	0.0	103.22231101989746	2.492000102996826
11	88.10315799713135	pulse	1	t		9.0	2.5	/experiments/Knapen_AOT/AOT_stimuli/rescaled_final/1621_rv.mp4	0.0	104.39592957496643	
11	89.4215395450592	fix_post	2		12	9.0	2.5	/experiments/Knapen_AOT/AOT_stimuli/rescaled_final/1621_rv.mp4	0.0	105.71431112289429	0.10002970695495605
12	89.52156925201416	fix_pre	0		120	10.0	2.5	/experiments/Knapen_AOT/AOT_stimuli/rescaled_final/1503_fw.mp4	0.0	105.81434082984924	1.0085206031799316
12	89.69728708267212	pulse	0	t		10.0	2.5	/experiments/Knapen_AOT/AOT_stimuli/rescaled_final/1503_fw.mp4	0.0	105.9900586605072	
12	90.53008985519409	movie	1		273	10.0	2.5	/experiments/Knapen_AOT/AOT_stimuli/rescaled_final/1503_fw.mp4	0.0	106.82286143302917	2.491987705230713
12	91.29698371887207	pulse	1	t		10.0	2.5	/experiments/Knapen_AOT/AOT_stimuli/rescaled_final/1503_fw.mp4	0.0	107.58975529670715	
12	92.89720225334167	pulse	1	t		10.0	2.5	/experiments/Knapen_AOT/AOT_stimuli/rescaled_final/1503_fw.mp4	0.0	109.18997383117676	
12	93.0220775604248	fix_post	2		12	10.0	2.5	/experiments/Knapen_AOT/AOT_stimuli/rescaled_final/1503_fw.mp4	0.0	109.31484913825989	0.10003662109375
13	93.12211418151855	fix_pre	0		120	11.0	2.5	/experiments/Knapen_AOT/AOT_stimuli/rescaled_final/0688_fw.mp4	0.0	109.41488575935364	1.008483648300171
13	94.13059782981873	movie	1		277	11.0	2.5	/experiments/Knapen_AOT/AOT_stimuli/rescaled_final/0688_fw.mp4	0.0	110.42336940765381	2.49206805229187
13	94.49778008460999	pulse	1	t		11.0	2.5	/experiments/Knapen_AOT/AOT_stimuli/rescaled_final/0688_fw.mp4	0.0	110.79055166244507	
13	96.09787511825562	pulse	1	t		11.0	2.5	/experiments/Knapen_AOT/AOT_stimuli/rescaled_final/0688_fw.mp4	0.0	112.3906466960907	
13	96.6226658821106	fix_post	2		12	11.0	2.5	/experiments/Knapen_AOT/AOT_stimuli/rescaled_final/0688_fw.mp4	0.0	112.91543745994568	0.09999489784240723
14	96.722660779953	fix_pre	0		118	12.0	2.5	blank	1.0	113.01543235778809	0.9834463596343994
14	97.69797205924988	pulse	0	t		12.0	2.5	blank	1.0	113.99074363708496	
14	97.7061071395874	movie	1		301	12.0	2.5	blank	1.0	113.99887871742249	2.508723735809326
14	99.29824042320251	pulse	1	t		12.0	2.5	blank	1.0	115.5910120010376	
14	100.21483087539673	fix_post	2		12	12.0	2.5	blank	1.0	116.50760245323181	0.10020065307617188
15	100.3150315284729	fix_pre	0		120	13.0	2.5	/experiments/Knapen_AOT/AOT_stimuli/rescaled_final/0384_rv.mp4	0.0	116.60780310630798	1.008324384689331
15	100.89860725402832	pulse	0	t		13.0	2.5	/experiments/Knapen_AOT/AOT_stimuli/rescaled_final/0384_rv.mp4	0.0	117.1913788318634	
15	101.32335591316223	movie	1		293	13.0	2.5	/experiments/Knapen_AOT/AOT_stimuli/rescaled_final/0384_rv.mp4	0.0	117.61612749099731	2.4920270442962646
15	102.4988648891449	pulse	1	t		13.0	2.5	/experiments/Knapen_AOT/AOT_stimuli/rescaled_final/0384_rv.mp4	0.0	118.79163646697998	
15	103.8153829574585	fix_post	2		12	13.0	2.5	/experiments/Knapen_AOT/AOT_stimuli/rescaled_final/0384_rv.mp4	0.0	120.10815453529358	0.10008859634399414
16	103.91547155380249	fix_pre	0		120	14.0	2.5	/experiments/Knapen_AOT/AOT_stimuli/rescaled_final/1450_fw.mp4	0.0	120.20824313163757	1.0084385871887207
16	104.09897017478943	pulse	0	t		14.0	2.5	/experiments/Knapen_AOT/AOT_stimuli/rescaled_final/1450_fw.mp4	0.0	120.39174175262451	
16	104.92391014099121	movie	1		281	14.0	2.5	/experiments/Knapen_AOT/AOT_stimuli/rescaled_final/1450_fw.mp4	0.0	121.2166817188263	2.4920058250427246
16	105.69719529151917	pulse	1	t		14.0	2.5	/experiments/Knapen_AOT/AOT_stimuli/rescaled_final/1450_fw.mp4	0.0	121.98996686935425	
16	107.29894804954529	pulse	1	t		14.0	2.5	/experiments/Knapen_AOT/AOT_stimuli/rescaled_final/1450_fw.mp4	0.0	123.59171962738037	
16	107.41591596603394	fix_post	2		12	14.0	2.5	/experiments/Knapen_AOT/AOT_stimuli/rescaled_final/1450_fw.mp4	0.0	123.70868754386902	0.10006523132324219
17	107.51598119735718	fix_pre	0		120	15.0	2.5	/experiments/Knapen_AOT/AOT_stimuli/rescaled_final/1720_fw.mp4	0.0	123.80875277519226	1.0084402561187744
17	108.52442145347595	movie	1		292	15.0	2.5	/experiments/Knapen_AOT/AOT_stimuli/rescaled_final/1720_fw.mp4	0.0	124.81719303131104	2.4920361042022705
17	108.89812207221985	pulse	1	t		15.0	2.5	/experiments/Knapen_AOT/AOT_stimuli/rescaled_final/1720_fw.mp4	0.0	125.19089365005493	
17	110.49809050559998	pulse	1	t		15.0	2.5	/experiments/Knapen_AOT/AOT_stimuli/rescaled_final/1720_fw.mp4	0.0	126.79086208343506	
17	111.01645755767822	fix_post	2		12	15.0	2.5	/experiments/Knapen_AOT/AOT_stimuli/rescaled_final/1720_fw.mp4	0.0	127.3092291355133	0.10003328323364258
18	111.11649084091187	fix_pre	0		119	16.0	2.5	/experiments/Knapen_AOT/AOT_stimuli/rescaled_final/0998_rv.mp4	0.0	127.40926241874695	1.0001680850982666
18	112.10017538070679	pulse	0	t		16.0	2.5	/experiments/Knapen_AOT/AOT_stimuli/rescaled_final/0998_rv.mp4	0.0	128.39294695854187	
18	112.11665892601013	movie	1		293	16.0	2.5	/experiments/Knapen_AOT/AOT_stimuli/rescaled_final/0998_rv.mp4	0.0	128.40943050384521	2.5003774166107178
18	113.69886231422424	pulse	1	t		16.0	2.5	/experiments/Knapen_AOT/AOT_stimuli/rescaled_final/0998_rv.mp4	0.0	129.99163389205933	
18	114.61703634262085	fix_post	2		12	16.0	2.5	/experiments/Knapen_AOT/AOT_stimuli/rescaled_final/0998_rv.mp4	0.0	130.90980792045593	0.09998965263366699
19	114.71702599525452	fix_pre	0		120	17.0	2.5	/experiments/Knapen_AOT/AOT_stimuli/rescaled_final/1327_fw.mp4	0.0	131.0097975730896	1.0084936618804932
19	115.30066752433777	pulse	0	t		17.0	2.5	/experiments/Knapen_AOT/AOT_stimuli/rescaled_final/1327_fw.mp4	0.0	131.59343910217285	
19	115.72551965713501	movie	1		290	17.0	2.5	/experiments/Knapen_AOT/AOT_stimuli/rescaled_final/1327_fw.mp4	0.0	132.0182912349701	2.4920296669006348
19	116.89943671226501	pulse	1	t		17.0	2.5	/experiments/Knapen_AOT/AOT_stimuli/rescaled_final/1327_fw.mp4	0.0	133.1922082901001	
19	118.21754932403564	fix_post	2		12	17.0	2.5	/experiments/Knapen_AOT/AOT_stimuli/rescaled_final/1327_fw.mp4	0.0	134.51032090187073	0.1000070571899414
20	118.31755638122559	fix_pre	0		120	18.0	2.5	/experiments/Knapen_AOT/AOT_stimuli/rescaled_final/1313_fw.mp4	0.0	134.61032795906067	1.0085444450378418
20	118.50122833251953	pulse	0	t		18.0	2.5	/experiments/Knapen_AOT/AOT_stimuli/rescaled_final/1313_fw.mp4	0.0	134.79399991035461	
20	119.32610082626343	movie	1		278	18.0	2.5	/experiments/Knapen_AOT/AOT_stimuli/rescaled_final/1313_fw.mp4	0.0	135.6188724040985	2.4921655654907227
20	120.099289894104	pulse	1	t		18.0	2.5	/experiments/Knapen_AOT/AOT_stimuli/rescaled_final/1313_fw.mp4	0.0	136.3920614719391	
20	121.70173168182373	pulse	1	t		18.0	2.5	/experiments/Knapen_AOT/AOT_stimuli/rescaled_final/1313_fw.mp4	0.0	137.9945032596588	
20	121.81826639175415	fix_post	2		12	18.0	2.5	/experiments/Knapen_AOT/AOT_stimuli/rescaled_final/1313_fw.mp4	0.0	138.11103796958923	0.09982872009277344
21	121.91809511184692	fix_pre	0		120	19.0	2.5	blank	1.0	138.210866689682	1.0001988410949707
21	122.9182939529419	movie	1		300	19.0	2.5	blank	1.0	139.21106553077698	2.5003254413604736
21	123.3018856048584	pulse	1	t		19.0	2.5	blank	1.0	139.59465718269348	
21	124.90206980705261	pulse	1	t		19.0	2.5	blank	1.0	141.1948413848877	
21	125.41861939430237	fix_post	2		12	19.0	2.5	blank	1.0	141.71139097213745	0.10001182556152344
22	125.51863121986389	fix_pre	0		119	20.0	2.5	/experiments/Knapen_AOT/AOT_stimuli/rescaled_final/0167_rv.mp4	0.0	141.81140279769897	1.0002410411834717
22	126.50264167785645	pulse	0	t		20.0	2.5	/experiments/Knapen_AOT/AOT_stimuli/rescaled_final/0167_rv.mp4	0.0	142.79541325569153	
22	126.51887226104736	movie	1		278	20.0	2.5	/experiments/Knapen_AOT/AOT_stimuli/rescaled_final/0167_rv.mp4	0.0	142.81164383888245	2.5003151893615723
22	128.10137367248535	pulse	1	t		20.0	2.5	/experiments/Knapen_AOT/AOT_stimuli/rescaled_final/0167_rv.mp4	0.0	144.39414525032043	
22	129.01918745040894	fix_post	2		12	20.0	2.5	/experiments/Knapen_AOT/AOT_stimuli/rescaled_final/0167_rv.mp4	0.0	145.31195902824402	0.0999901294708252
23	129.11917757987976	fix_pre	0		120	21.0	2.5	/experiments/Knapen_AOT/AOT_stimuli/rescaled_final/2058_rv.mp4	0.0	145.41194915771484	1.0084972381591797
23	129.70288133621216	pulse	0	t		21.0	2.5	/experiments/Knapen_AOT/AOT_stimuli/rescaled_final/2058_rv.mp4	0.0	145.99565291404724	
23	130.12767481803894	movie	1		287	21.0	2.5	/experiments/Knapen_AOT/AOT_stimuli/rescaled_final/2058_rv.mp4	0.0	146.42044639587402	2.492035150527954
23	131.30148887634277	pulse	1	t		21.0	2.5	/experiments/Knapen_AOT/AOT_stimuli/rescaled_final/2058_rv.mp4	0.0	147.59426045417786	
23	132.6197099685669	fix_post	2		12	21.0	2.5	/experiments/Knapen_AOT/AOT_stimuli/rescaled_final/2058_rv.mp4	0.0	148.91248154640198	0.10001468658447266
24	132.71972465515137	fix_pre	0		120	22.0	2.5	/experiments/Knapen_AOT/AOT_stimuli/rescaled_final/0023_fw.mp4	0.0	149.01249623298645	1.0085256099700928
24	132.90328693389893	pulse	0	t		22.0	2.5	/experiments/Knapen_AOT/AOT_stimuli/rescaled_final/0023_fw.mp4	0.0	149.196058511734	
24	133.72825026512146	movie	1		288	22.0	2.5	/experiments/Knapen_AOT/AOT_stimuli/rescaled_final/0023_fw.mp4	0.0	150.02102184295654	2.4920036792755127
24	134.50151872634888	pulse	1	t		22.0	2.5	/experiments/Knapen_AOT/AOT_stimuli/rescaled_final/0023_fw.mp4	0.0	150.79429030418396	
24	136.1019253730774	pulse	1	t		22.0	2.5	/experiments/Knapen_AOT/AOT_stimuli/rescaled_final/0023_fw.mp4	0.0	152.39469695091248	
24	136.22025394439697	fix_post	2		12	22.0	2.5	/experiments/Knapen_AOT/AOT_stimuli/rescaled_final/0023_fw.mp4	0.0	152.51302552223206	0.10010766983032227
25	136.3203616142273	fix_pre	0		120	23.0	2.5	/experiments/Knapen_AOT/AOT_stimuli/rescaled_final/0342_fw.mp4	0.0	152.61313319206238	1.0084185600280762
25	137.32878017425537	movie	1		290	23.0	2.5	/experiments/Knapen_AOT/AOT_stimuli/rescaled_final/0342_fw.mp4	0.0	153.62155175209045	2.4919989109039307
25	137.70262622833252	pulse	1	t		23.0	2.5	/experiments/Knapen_AOT/AOT_stimuli/rescaled_final/0342_fw.mp4	0.0	153.9953978061676	
25	139.302330493927	pulse	1	t		23.0	2.5	/experiments/Knapen_AOT/AOT_stimuli/rescaled_final/0342_fw.mp4	0.0	155.59510207176208	
25	139.8207790851593	fix_post	2		12	23.0	2.5	/experiments/Knapen_AOT/AOT_stimuli/rescaled_final/0342_fw.mp4	0.0	156.11355066299438	0.10002470016479492
26	139.9208037853241	fix_pre	0		119	24.0	2.5	/experiments/Knapen_AOT/AOT_stimuli/rescaled_final/1255_fw.mp4	0.0	156.21357536315918	1.0001654624938965
26	140.90454840660095	pulse	0	t		24.0	2.5	/experiments/Knapen_AOT/AOT_stimuli/rescaled_final/1255_fw.mp4	0.0	157.19731998443604	
26	140.920969247818	movie	1		295	24.0	2.5	/experiments/Knapen_AOT/AOT_stimuli/rescaled_final/1255_fw.mp4	0.0	157.21374082565308	2.5004475116729736
26	142.50352668762207	pulse	1	t		24.0	2.5	/experiments/Knapen_AOT/AOT_stimuli/rescaled_final/1255_fw.mp4	0.0	158.79629826545715	
26	143.42141675949097	fix_post	2		12	24.0	2.5	/experiments/Knapen_AOT/AOT_stimuli/rescaled_final/1255_fw.mp4	0.0	159.71418833732605	0.09993672370910645
27	143.52135348320007	fix_pre	0		120	25.0	2.5	/experiments/Knapen_AOT/AOT_stimuli/rescaled_final/0666_rv.mp4	0.0	159.81412506103516	1.008500576019287
27	144.1052234172821	pulse	0	t		25.0	2.5	/experiments/Knapen_AOT/AOT_stimuli/rescaled_final/0666_rv.mp4	0.0	160.3979949951172	
27	144.52985405921936	movie	1		288	25.0	2.5	/experiments/Knapen_AOT/AOT_stimuli/rescaled_final/0666_rv.mp4	0.0	160.82262563705444	2.492016553878784
27	145.7033817768097	pulse	1	t		25.0	2.5	/experiments/Knapen_AOT/AOT_stimuli/rescaled_final/0666_rv.mp4	0.0	161.99615335464478	
27	147.02187061309814	fix_post	2		12	25.0	2.5	/experiments/Knapen_AOT/AOT_stimuli/rescaled_final/0666_rv.mp4	0.0	163.31464219093323	0.10001134872436523
28	147.1218819618225	fix_pre	0		120	26.0	2.5	/experiments/Knapen_AOT/AOT_stimuli/rescaled_final/1585_fw.mp4	0.0	163.4146535396576	1.0085060596466064
28	147.29714012145996	pulse	0	t		26.0	2.5	/experiments/Knapen_AOT/AOT_stimuli/rescaled_final/1585_fw.mp4	0.0	163.58991169929504	
28	148.13038802146912	movie	1		279	26.0	2.5	/experiments/Knapen_AOT/AOT_stimuli/rescaled_final/1585_fw.mp4	0.0	164.4231595993042	2.4920382499694824
28	148.89746737480164	pulse	1	t		26.0	2.5	/experiments/Knapen_AOT/AOT_stimuli/rescaled_final/1585_fw.mp4	0.0	165.19023895263672	
28	150.49762225151062	pulse	1	t		26.0	2.5	/experiments/Knapen_AOT/AOT_stimuli/rescaled_final/1585_fw.mp4	0.0	166.7903938293457	
28	150.6224262714386	fix_post	2		12	26.0	2.5	/experiments/Knapen_AOT/AOT_stimuli/rescaled_final/1585_fw.mp4	0.0	166.91519784927368	0.09999704360961914
29	150.72242331504822	fix_pre	0		120	27.0	2.5	/experiments/Knapen_AOT/AOT_stimuli/rescaled_final/1353_fw.mp4	0.0	167.0151948928833	1.0085113048553467
29	151.73093461990356	movie	1		277	27.0	2.5	/experiments/Knapen_AOT/AOT_stimuli/rescaled_final/1353_fw.mp4	0.0	168.02370619773865	2.492034912109375
29	152.09821224212646	pulse	1	t		27.0	2.5	/experiments/Knapen_AOT/AOT_stimuli/rescaled_final/1353_fw.mp4	0.0	168.39098381996155	
29	153.69824504852295	pulse	1	t		27.0	2.5	/experiments/Knapen_AOT/AOT_stimuli/rescaled_final/1353_fw.mp4	0.0	169.99101662635803	
29	154.22296953201294	fix_post	2		12	27.0	2.5	/experiments/Knapen_AOT/AOT_stimuli/rescaled_final/1353_fw.mp4	0.0	170.51574110984802	0.10000491142272949
30	154.32297444343567	fix_pre	0		118	28.0	2.5	blank	1.0	170.61574602127075	0.9835131168365479
30	155.29838919639587	pulse	0	t		28.0	2.5	blank	1.0	171.59116077423096	
30	155.30648756027222	movie	1		301	28.0	2.5	blank	1.0	171.5992591381073	2.5086658000946045
30	156.89870977401733	pulse	1	t		28.0	2.5	blank	1.0	173.19148135185242	
30	157.81515336036682	fix_post	2		12	28.0	2.5	blank	1.0	174.1079249382019	0.10000467300415039
31	157.91515803337097	fix_pre	0		120	29.0	2.5	/experiments/Knapen_AOT/AOT_stimuli/rescaled_final/0726_rv.mp4	0.0	174.20792961120605	1.008514165878296
31	158.4988820552826	pulse	0	t		29.0	2.5	/experiments/Knapen_AOT/AOT_stimuli/rescaled_final/0726_rv.mp4	0.0	174.79165363311768	
31	158.92367219924927	movie	1		291	29.0	2.5	/experiments/Knapen_AOT/AOT_stimuli/rescaled_final/0726_rv.mp4	0.0	175.21644377708435	2.4920668601989746
31	160.09729671478271	pulse	1	t		29.0	2.5	/experiments/Knapen_AOT/AOT_stimuli/rescaled_final/0726_rv.mp4	0.0	176.3900682926178	
31	161.41573905944824	fix_post	2		12	29.0	2.5	/experiments/Knapen_AOT/AOT_stimuli/rescaled_final/0726_rv.mp4	0.0	177.70851063728333	0.09997892379760742
32	161.51571798324585	fix_pre	0		120	30.0	2.5	/experiments/Knapen_AOT/AOT_stimuli/rescaled_final/1158_fw.mp4	0.0	177.80848956108093	1.0084755420684814
32	161.6994788646698	pulse	0	t		30.0	2.5	/experiments/Knapen_AOT/AOT_stimuli/rescaled_final/1158_fw.mp4	0.0	177.99225044250488	
32	162.52419352531433	movie	1		287	30.0	2.5	/experiments/Knapen_AOT/AOT_stimuli/rescaled_final/1158_fw.mp4	0.0	178.8169651031494	2.4920451641082764
32	163.29752683639526	pulse	1	t		30.0	2.5	/experiments/Knapen_AOT/AOT_stimuli/rescaled_final/1158_fw.mp4	0.0	179.59029841423035	
32	164.8980016708374	pulse	1	t		30.0	2.5	/experiments/Knapen_AOT/AOT_stimuli/rescaled_final/1158_fw.mp4	0.0	181.19077324867249	
32	165.0162386894226	fix_post	2		12	30.0	2.5	/experiments/Knapen_AOT/AOT_stimuli/rescaled_final/1158_fw.mp4	0.0	181.3090102672577	0.1000204086303711
33	165.11625909805298	fix_pre	0		120	31.0	2.5	/experiments/Knapen_AOT/AOT_stimuli/rescaled_final/0375_fw.mp4	0.0	181.40903067588806	1.0085251331329346
33	166.1247842311859	movie	1		288	31.0	2.5	/experiments/Knapen_AOT/AOT_stimuli/rescaled_final/0375_fw.mp4	0.0	182.417555809021	2.492032527923584
33	166.4985122680664	pulse	1	t		31.0	2.5	/experiments/Knapen_AOT/AOT_stimuli/rescaled_final/0375_fw.mp4	0.0	182.7912838459015	
33	168.0984344482422	pulse	1	t		31.0	2.5	/experiments/Knapen_AOT/AOT_stimuli/rescaled_final/0375_fw.mp4	0.0	184.39120602607727	
33	168.6168167591095	fix_post	2		12	31.0	2.5	/experiments/Knapen_AOT/AOT_stimuli/rescaled_final/0375_fw.mp4	0.0	184.90958833694458	0.0999906063079834
34	168.71680736541748	fix_pre	0		119	32.0	2.5	/experiments/Knapen_AOT/AOT_stimuli/rescaled_final/1012_fw.mp4	0.0	185.00957894325256	1.000192642211914
34	169.70054483413696	pulse	0	t		32.0	2.5	/experiments/Knapen_AOT/AOT_stimuli/rescaled_final/1012_fw.mp4	0.0	185.99331641197205	
34	169.7170000076294	movie	1		285	32.0	2.5	/experiments/Knapen_AOT/AOT_stimuli/rescaled_final/1012_fw.mp4	0.0	186.00977158546448	2.5004143714904785
34	171.2993929386139	pulse	1	t		32.0	2.5	/experiments/Knapen_AOT/AOT_stimuli/rescaled_final/1012_fw.mp4	0.0	187.59216451644897	
34	172.21741437911987	fix_post	2		12	32.0	2.5	/experiments/Knapen_AOT/AOT_stimuli/rescaled_final/1012_fw.mp4	0.0	188.51018595695496	0.09993267059326172
35	172.31734704971313	fix_pre	0		120	33.0	2.5	blank	1.0	188.61011862754822	1.000183343887329
35	172.90130257606506	pulse	0	t		33.0	2.5	blank	1.0	189.19407415390015	
35	173.31753039360046	movie	1		300	33.0	2.5	blank	1.0	189.61030197143555	2.5003395080566406
35	174.50141406059265	pulse	1	t		33.0	2.5	blank	1.0	190.79418563842773	
35	175.8178699016571	fix_post	2		12	33.0	2.5	blank	1.0	192.1106414794922	0.10015630722045898
36	175.91802620887756	fix_pre	0		120	34.0	2.5	/experiments/Knapen_AOT/AOT_stimuli/rescaled_final/0979_fw.mp4	0.0	192.21079778671265	1.0084006786346436
36	176.10145020484924	pulse	0	t		34.0	2.5	/experiments/Knapen_AOT/AOT_stimuli/rescaled_final/0979_fw.mp4	0.0	192.39422178268433	
36	176.9264268875122	movie	1		291	34.0	2.5	/experiments/Knapen_AOT/AOT_stimuli/rescaled_final/0979_fw.mp4	0.0	193.2191984653473	2.4919862747192383
36	177.699786901474	pulse	1	t		34.0	2.5	/experiments/Knapen_AOT/AOT_stimuli/rescaled_final/0979_fw.mp4	0.0	193.99255847930908	
36	179.30005311965942	pulse	1	t		34.0	2.5	/experiments/Knapen_AOT/AOT_stimuli/rescaled_final/0979_fw.mp4	0.0	195.5928246974945	
36	179.41841316223145	fix_post	2		12	34.0	2.5	/experiments/Knapen_AOT/AOT_stimuli/rescaled_final/0979_fw.mp4	0.0	195.71118474006653	0.10001683235168457
37	179.51842999458313	fix_pre	0		120	35.0	2.5	/experiments/Knapen_AOT/AOT_stimuli/rescaled_final/1888_fw.mp4	0.0	195.8112015724182	1.0085487365722656
37	180.5269787311554	movie	1		288	35.0	2.5	/experiments/Knapen_AOT/AOT_stimuli/rescaled_final/1888_fw.mp4	0.0	196.81975030899048	2.491994857788086
37	180.90230417251587	pulse	1	t		35.0	2.5	/experiments/Knapen_AOT/AOT_stimuli/rescaled_final/1888_fw.mp4	0.0	197.19507575035095	
37	182.50055813789368	pulse	1	t		35.0	2.5	/experiments/Knapen_AOT/AOT_stimuli/rescaled_final/1888_fw.mp4	0.0	198.79332971572876	
37	183.01897358894348	fix_post	2		12	35.0	2.5	/experiments/Knapen_AOT/AOT_stimuli/rescaled_final/1888_fw.mp4	0.0	199.31174516677856	0.10000014305114746
38	183.11897373199463	fix_pre	0		119	36.0	2.5	/experiments/Knapen_AOT/AOT_stimuli/rescaled_final/0236_fw.mp4	0.0	199.4117453098297	1.00014328956604
38	184.10270380973816	pulse	0	t		36.0	2.5	/experiments/Knapen_AOT/AOT_stimuli/rescaled_final/0236_fw.mp4	0.0	200.39547538757324	
38	184.11911702156067	movie	1		291	36.0	2.5	/experiments/Knapen_AOT/AOT_stimuli/rescaled_final/0236_fw.mp4	0.0	200.41188859939575	2.5003700256347656
38	185.70142579078674	pulse	1	t		36.0	2.5	/experiments/Knapen_AOT/AOT_stimuli/rescaled_final/0236_fw.mp4	0.0	201.99419736862183	
38	186.61948704719543	fix_post	2		12	36.0	2.5	/experiments/Knapen_AOT/AOT_stimuli/rescaled_final/0236_fw.mp4	0.0	202.91225862503052	0.10002279281616211
39	186.7195098400116	fix_pre	0		120	37.0	2.5	/experiments/Knapen_AOT/AOT_stimuli/rescaled_final/1071_fw.mp4	0.0	203.01228141784668	1.0085394382476807
39	187.30314135551453	pulse	0	t		37.0	2.5	/experiments/Knapen_AOT/AOT_stimuli/rescaled_final/1071_fw.mp4	0.0	203.5959129333496	
39	187.72804927825928	movie	1		281	37.0	2.5	/experiments/Knapen_AOT/AOT_stimuli/rescaled_final/1071_fw.mp4	0.0	204.02082085609436	2.4920034408569336
39	188.9017584323883	pulse	1	t		37.0	2.5	/experiments/Knapen_AOT/AOT_stimuli/rescaled_final/1071_fw.mp4	0.0	205.1945300102234	
39	190.2200527191162	fix_post	2		12	37.0	2.5	/experiments/Knapen_AOT/AOT_stimuli/rescaled_final/1071_fw.mp4	0.0	206.5128242969513	0.10000276565551758
40	190.32005548477173	fix_pre	0		120	38.0	2.5	/experiments/Knapen_AOT/AOT_stimuli/rescaled_final/1388_fw.mp4	0.0	206.6128270626068	1.0085115432739258
40	190.50364422798157	pulse	0	t		38.0	2.5	/experiments/Knapen_AOT/AOT_stimuli/rescaled_final/1388_fw.mp4	0.0	206.79641580581665	
40	191.32856702804565	movie	1		281	38.0	2.5	/experiments/Knapen_AOT/AOT_stimuli/rescaled_final/1388_fw.mp4	0.0	207.62133860588074	2.4920663833618164
40	192.10425686836243	pulse	1	t		38.0	2.5	/experiments/Knapen_AOT/AOT_stimuli/rescaled_final/1388_fw.mp4	0.0	208.3970284461975	
40	193.70215559005737	pulse	1	t		38.0	2.5	/experiments/Knapen_AOT/AOT_stimuli/rescaled_final/1388_fw.mp4	0.0	209.99492716789246	
40	193.82063341140747	fix_post	2		12	38.0	2.5	/experiments/Knapen_AOT/AOT_stimuli/rescaled_final/1388_fw.mp4	0.0	210.11340498924255	0.09995388984680176
41	193.92058730125427	fix_pre	0		120	39.0	2.5	/experiments/Knapen_AOT/AOT_stimuli/rescaled_final/1349_rv.mp4	0.0	210.21335887908936	1.0085256099700928
41	194.92911291122437	movie	1		287	39.0	2.5	/experiments/Knapen_AOT/AOT_stimuli/rescaled_final/1349_rv.mp4	0.0	211.22188448905945	2.4920036792755127
41	195.30294466018677	pulse	1	t		39.0	2.5	/experiments/Knapen_AOT/AOT_stimuli/rescaled_final/1349_rv.mp4	0.0	211.59571623802185	
41	196.90247201919556	pulse	1	t		39.0	2.5	/experiments/Knapen_AOT/AOT_stimuli/rescaled_final/1349_rv.mp4	0.0	213.19524359703064	
41	197.42111659049988	fix_post	2		12	39.0	2.5	/experiments/Knapen_AOT/AOT_stimuli/rescaled_final/1349_rv.mp4	0.0	213.71388816833496	0.10004210472106934
42	197.52115869522095	fix_pre	0		118	40.0	2.5	/experiments/Knapen_AOT/AOT_stimuli/rescaled_final/1061_rv.mp4	0.0	213.81393027305603	1.0001418590545654
42	198.49677348136902	pulse	0	t		40.0	2.5	/experiments/Knapen_AOT/AOT_stimuli/rescaled_final/1061_rv.mp4	0.0	214.7895450592041	
42	198.5213005542755	movie	1		278	40.0	2.5	/experiments/Knapen_AOT/AOT_stimuli/rescaled_final/1061_rv.mp4	0.0	214.8140721321106	2.4920804500579834
42	200.09728980064392	pulse	1	t		40.0	2.5	/experiments/Knapen_AOT/AOT_stimuli/rescaled_final/1061_rv.mp4	0.0	216.390061378479	
42	201.0133810043335	fix_post	2		12	40.0	2.5	/experiments/Knapen_AOT/AOT_stimuli/rescaled_final/1061_rv.mp4	0.0	217.30615258216858	0.09997344017028809
43	201.11335444450378	fix_pre	0		120	41.0	2.5	/experiments/Knapen_AOT/AOT_stimuli/rescaled_final/0170_rv.mp4	0.0	217.40612602233887	1.008502721786499
43	201.6969723701477	pulse	0	t		41.0	2.5	/experiments/Knapen_AOT/AOT_stimuli/rescaled_final/0170_rv.mp4	0.0	217.9897439479828	
43	202.12185716629028	movie	1		282	41.0	2.5	/experiments/Knapen_AOT/AOT_stimuli/rescaled_final/0170_rv.mp4	0.0	218.41462874412537	2.4919981956481934
43	203.29743885993958	pulse	1	t		41.0	2.5	/experiments/Knapen_AOT/AOT_stimuli/rescaled_final/0170_rv.mp4	0.0	219.59021043777466	
43	204.61385536193848	fix_post	2		12	41.0	2.5	/experiments/Knapen_AOT/AOT_stimuli/rescaled_final/0170_rv.mp4	0.0	220.90662693977356	0.10002398490905762
44	204.71387934684753	fix_pre	0		120	42.0	2.5	blank	1.0	221.00665092468262	1.00014066696167
44	204.89745044708252	pulse	0	t		42.0	2.5	blank	1.0	221.1902220249176	
44	205.7140200138092	movie	1		300	42.0	2.5	blank	1.0	222.0067915916443	2.5004680156707764
44	206.4977104663849	pulse	1	t		42.0	2.5	blank	1.0	222.79048204421997	
44	208.09792137145996	pulse	1	t		42.0	2.5	blank	1.0	224.39069294929504	
44	208.21448802947998	fix_post	2		12	42.0	2.5	blank	1.0	224.50725960731506	0.09999322891235352
45	208.31448125839233	fix_pre	0		120	43.0	2.5	/experiments/Knapen_AOT/AOT_stimuli/rescaled_final/1778_fw.mp4	0.0	224.60725283622742	1.0084612369537354
45	209.32294249534607	movie	1		283	43.0	2.5	/experiments/Knapen_AOT/AOT_stimuli/rescaled_final/1778_fw.mp4	0.0	225.61571407318115	2.492002248764038
45	209.69843173027039	pulse	1	t		43.0	2.5	/experiments/Knapen_AOT/AOT_stimuli/rescaled_final/1778_fw.mp4	0.0	225.99120330810547	
45	211.29848742485046	pulse	1	t		43.0	2.5	/experiments/Knapen_AOT/AOT_stimuli/rescaled_final/1778_fw.mp4	0.0	227.59125900268555	
45	211.8149447441101	fix_post	2		12	43.0	2.5	/experiments/Knapen_AOT/AOT_stimuli/rescaled_final/1778_fw.mp4	0.0	228.1077163219452	0.1000065803527832
46	211.9149513244629	fix_pre	0		119	44.0	2.5	/experiments/Knapen_AOT/AOT_stimuli/rescaled_final/0998_rv.mp4	0.0	228.20772290229797	1.0001773834228516
46	212.89895248413086	pulse	0	t		44.0	2.5	/experiments/Knapen_AOT/AOT_stimuli/rescaled_final/0998_rv.mp4	0.0	229.19172406196594	
46	212.91512870788574	movie	1		279	44.0	2.5	/experiments/Knapen_AOT/AOT_stimuli/rescaled_final/0998_rv.mp4	0.0	229.20790028572083	2.500373363494873
46	214.49721670150757	pulse	1	t		44.0	2.5	/experiments/Knapen_AOT/AOT_stimuli/rescaled_final/0998_rv.mp4	0.0	230.78998827934265	
46	215.41550207138062	fix_post	2		12	44.0	2.5	/experiments/Knapen_AOT/AOT_stimuli/rescaled_final/0998_rv.mp4	0.0	231.7082736492157	0.09999299049377441
47	215.5154950618744	fix_pre	0		120	45.0	2.5	/experiments/Knapen_AOT/AOT_stimuli/rescaled_final/1098_fw.mp4	0.0	231.80826663970947	1.0086023807525635
47	216.09912014007568	pulse	0	t		45.0	2.5	/experiments/Knapen_AOT/AOT_stimuli/rescaled_final/1098_fw.mp4	0.0	232.39189171791077	
47	216.52409744262695	movie	1		266	45.0	2.5	/experiments/Knapen_AOT/AOT_stimuli/rescaled_final/1098_fw.mp4	0.0	232.81686902046204	2.491934299468994
47	217.69840168952942	pulse	1	t		45.0	2.5	/experiments/Knapen_AOT/AOT_stimuli/rescaled_final/1098_fw.mp4	0.0	233.9911732673645	
47	219.01603174209595	fix_post	2		12	45.0	2.5	/experiments/Knapen_AOT/AOT_stimuli/rescaled_final/1098_fw.mp4	0.0	235.30880331993103	0.10000419616699219
48	219.11603593826294	fix_pre	0		120	46.0	2.5	/experiments/Knapen_AOT/AOT_stimuli/rescaled_final/0348_rv.mp4	0.0	235.40880751609802	1.0085489749908447
48	219.2996702194214	pulse	0	t		46.0	2.5	/experiments/Knapen_AOT/AOT_stimuli/rescaled_final/0348_rv.mp4	0.0	235.59244179725647	
48	220.12458491325378	movie	1		274	46.0	2.5	/experiments/Knapen_AOT/AOT_stimuli/rescaled_final/0348_rv.mp4	0.0	236.41735649108887	2.492018699645996
48	220.89803957939148	pulse	1	t		46.0	2.5	/experiments/Knapen_AOT/AOT_stimuli/rescaled_final/0348_rv.mp4	0.0	237.19081115722656	
48	222.49825191497803	pulse	1	t		46.0	2.5	/experiments/Knapen_AOT/AOT_stimuli/rescaled_final/0348_rv.mp4	0.0	238.7910234928131	
48	222.61660361289978	fix_post	2		12	46.0	2.5	/experiments/Knapen_AOT/AOT_stimuli/rescaled_final/0348_rv.mp4	0.0	238.90937519073486	0.0999906063079834
49	222.71659421920776	fix_pre	0		120	47.0	2.5	/experiments/Knapen_AOT/AOT_stimuli/rescaled_final/0368_fw.mp4	0.0	239.00936579704285	1.008465051651001
49	223.72505927085876	movie	1		277	47.0	2.5	/experiments/Knapen_AOT/AOT_stimuli/rescaled_final/0368_fw.mp4	0.0	240.01783084869385	2.4920389652252197
49	224.0985767841339	pulse	1	t		47.0	2.5	/experiments/Knapen_AOT/AOT_stimuli/rescaled_final/0368_fw.mp4	0.0	240.391348361969	
49	225.69859313964844	pulse	1	t		47.0	2.5	/experiments/Knapen_AOT/AOT_stimuli/rescaled_final/0368_fw.mp4	0.0	241.99136471748352	
49	226.21709823608398	fix_post	2		12	47.0	2.5	/experiments/Knapen_AOT/AOT_stimuli/rescaled_final/0368_fw.mp4	0.0	242.50986981391907	0.10002613067626953
50	226.31712436676025	fix_pre	0		119	48.0	2.5	blank	1.0	242.60989594459534	0.9917912483215332
50	227.30097150802612	pulse	0	t		48.0	2.5	blank	1.0	243.5937430858612	
50	227.3089156150818	movie	1		301	48.0	2.5	blank	1.0	243.60168719291687	2.50874400138855
50	228.90105819702148	pulse	1	t		48.0	2.5	blank	1.0	245.19382977485657	
50	229.81765961647034	fix_post	2		12	48.0	2.5	blank	1.0	246.11043119430542	0.09999585151672363
51	229.91765546798706	fix_pre	0		120	49.0	2.5	/experiments/Knapen_AOT/AOT_stimuli/rescaled_final/1159_rv.mp4	0.0	246.21042704582214	1.008518934249878
51	230.50136971473694	pulse	0	t		49.0	2.5	/experiments/Knapen_AOT/AOT_stimuli/rescaled_final/1159_rv.mp4	0.0	246.79414129257202	
51	230.92617440223694	movie	1		286	49.0	2.5	/experiments/Knapen_AOT/AOT_stimuli/rescaled_final/1159_rv.mp4	0.0	247.21894598007202	2.4920053482055664
51	232.1017234325409	pulse	1	t		49.0	2.5	/experiments/Knapen_AOT/AOT_stimuli/rescaled_final/1159_rv.mp4	0.0	248.39449501037598	
51	233.4181797504425	fix_post	2		12	49.0	2.5	/experiments/Knapen_AOT/AOT_stimuli/rescaled_final/1159_rv.mp4	0.0	249.7109513282776	0.10007381439208984
52	233.5182535648346	fix_pre	0		120	50.0	2.5	/experiments/Knapen_AOT/AOT_stimuli/rescaled_final/1153_fw.mp4	0.0	249.81102514266968	1.0085294246673584
52	233.70184803009033	pulse	0	t		50.0	2.5	/experiments/Knapen_AOT/AOT_stimuli/rescaled_final/1153_fw.mp4	0.0	249.99461960792542	
52	234.52678298950195	movie	1		289	50.0	2.5	/experiments/Knapen_AOT/AOT_stimuli/rescaled_final/1153_fw.mp4	0.0	250.81955456733704	2.4919838905334473
52	235.30003714561462	pulse	1	t		50.0	2.5	/experiments/Knapen_AOT/AOT_stimuli/rescaled_final/1153_fw.mp4	0.0	251.5928087234497	
52	236.90057945251465	pulse	1	t		50.0	2.5	/experiments/Knapen_AOT/AOT_stimuli/rescaled_final/1153_fw.mp4	0.0	253.19335103034973	
52	237.0187668800354	fix_post	2		12	50.0	2.5	/experiments/Knapen_AOT/AOT_stimuli/rescaled_final/1153_fw.mp4	0.0	253.31153845787048	0.0999910831451416
53	237.11875796318054	fix_pre	0		120	51.0	2.5	/experiments/Knapen_AOT/AOT_stimuli/rescaled_final/1536_rv.mp4	0.0	253.41152954101562	1.0084972381591797
53	238.12725520133972	movie	1		278	51.0	2.5	/experiments/Knapen_AOT/AOT_stimuli/rescaled_final/1536_rv.mp4	0.0	254.4200267791748	2.4920170307159424
53	238.5034031867981	pulse	1	t		51.0	2.5	/experiments/Knapen_AOT/AOT_stimuli/rescaled_final/1536_rv.mp4	0.0	254.79617476463318	
53	240.1010444164276	pulse	1	t		51.0	2.5	/experiments/Knapen_AOT/AOT_stimuli/rescaled_final/1536_rv.mp4	0.0	256.3938159942627	
53	240.61927223205566	fix_post	2		12	51.0	2.5	/experiments/Knapen_AOT/AOT_stimuli/rescaled_final/1536_rv.mp4	0.0	256.91204380989075	0.10002279281616211
54	240.71929502487183	fix_pre	0		119	52.0	2.5	/experiments/Knapen_AOT/AOT_stimuli/rescaled_final/1503_rv.mp4	0.0	257.0120666027069	1.0085790157318115
54	241.7031192779541	pulse	0	t		52.0	2.5	/experiments/Knapen_AOT/AOT_stimuli/rescaled_final/1503_rv.mp4	0.0	257.9958908557892	
54	241.72787404060364	movie	1		271	52.0	2.5	/experiments/Knapen_AOT/AOT_stimuli/rescaled_final/1503_rv.mp4	0.0	258.0206456184387	2.491964817047119
54	243.3018536567688	pulse	1	t		52.0	2.5	/experiments/Knapen_AOT/AOT_stimuli/rescaled_final/1503_rv.mp4	0.0	259.5946252346039	
54	244.21983885765076	fix_post	2		12	52.0	2.5	/experiments/Knapen_AOT/AOT_stimuli/rescaled_final/1503_rv.mp4	0.0	260.51261043548584	0.10001945495605469
55	244.3198583126068	fix_pre	0		120	53.0	2.5	/experiments/Knapen_AOT/AOT_stimuli/rescaled_final/1439_rv.mp4	0.0	260.6126298904419	1.0085196495056152
55	244.90346026420593	pulse	0	t		53.0	2.5	/experiments/Knapen_AOT/AOT_stimuli/rescaled_final/1439_rv.mp4	0.0	261.196231842041	
55	245.32837796211243	movie	1		283	53.0	2.5	/experiments/Knapen_AOT/AOT_stimuli/rescaled_final/1439_rv.mp4	0.0	261.6211495399475	2.491990804672241
55	246.50176858901978	pulse	1	t		53.0	2.5	/experiments/Knapen_AOT/AOT_stimuli/rescaled_final/1439_rv.mp4	0.0	262.79454016685486	
55	247.82036876678467	fix_post	2		12	53.0	2.5	/experiments/Knapen_AOT/AOT_stimuli/rescaled_final/1439_rv.mp4	0.0	264.11314034461975	0.10000324249267578
56	247.92037200927734	fix_pre	0		120	54.0	2.5	blank	1.0	264.2131435871124	1.0001354217529297
56	248.1039650440216	pulse	0	t		54.0	2.5	blank	1.0	264.3967366218567	
56	248.92050743103027	movie	1		300	54.0	2.5	blank	1.0	265.21327900886536	2.500422239303589
56	249.70441150665283	pulse	1	t		54.0	2.5	blank	1.0	265.9971830844879	
56	251.30446195602417	pulse	1	t		54.0	2.5	blank	1.0	267.59723353385925	
56	251.42092967033386	fix_post	2		12	54.0	2.5	blank	1.0	267.71370124816895	0.1000070571899414
57	251.5209367275238	fix_pre	0		120	55.0	2.5	/experiments/Knapen_AOT/AOT_stimuli/rescaled_final/1565_rv.mp4	0.0	267.8137083053589	1.0084397792816162
57	252.52937650680542	movie	1		284	55.0	2.5	/experiments/Knapen_AOT/AOT_stimuli/rescaled_final/1565_rv.mp4	0.0	268.8221480846405	2.492053508758545
57	252.90317368507385	pulse	1	t		55.0	2.5	/experiments/Knapen_AOT/AOT_stimuli/rescaled_final/1565_rv.mp4	0.0	269.19594526290894	
57	254.50284075737	pulse	1	t		55.0	2.5	/experiments/Knapen_AOT/AOT_stimuli/rescaled_final/1565_rv.mp4	0.0	270.7956123352051	
57	255.02143001556396	fix_post	2		12	55.0	2.5	/experiments/Knapen_AOT/AOT_stimuli/rescaled_final/1565_rv.mp4	0.0	271.31420159339905	0.10005569458007812
58	255.12148571014404	fix_pre	0		118	56.0	2.5	/experiments/Knapen_AOT/AOT_stimuli/rescaled_final/1372_fw.mp4	0.0	271.4142572879791	0.9918045997619629
58	256.09725046157837	pulse	0	t		56.0	2.5	/experiments/Knapen_AOT/AOT_stimuli/rescaled_final/1372_fw.mp4	0.0	272.39002203941345	
58	256.113290309906	movie	1		291	56.0	2.5	/experiments/Knapen_AOT/AOT_stimuli/rescaled_final/1372_fw.mp4	0.0	272.4060618877411	2.500354051589966
58	257.69735407829285	pulse	1	t		56.0	2.5	/experiments/Knapen_AOT/AOT_stimuli/rescaled_final/1372_fw.mp4	0.0	273.99012565612793	
58	258.613644361496	fix_post	2		12	56.0	2.5	/experiments/Knapen_AOT/AOT_stimuli/rescaled_final/1372_fw.mp4	0.0	274.90641593933105	0.10001444816589355
59	258.71365880966187	fix_pre	0		120	57.0	2.5	/experiments/Knapen_AOT/AOT_stimuli/rescaled_final/2155_fw.mp4	0.0	275.00643038749695	1.0084941387176514
59	259.29737997055054	pulse	0	t		57.0	2.5	/experiments/Knapen_AOT/AOT_stimuli/rescaled_final/2155_fw.mp4	0.0	275.5901515483856	
59	259.7221529483795	movie	1		277	57.0	2.5	/experiments/Knapen_AOT/AOT_stimuli/rescaled_final/2155_fw.mp4	0.0	276.0149245262146	2.492030620574951
59	260.8983066082001	pulse	1	t		57.0	2.5	/experiments/Knapen_AOT/AOT_stimuli/rescaled_final/2155_fw.mp4	0.0	277.19107818603516	
59	262.21418356895447	fix_post	2		12	57.0	2.5	/experiments/Knapen_AOT/AOT_stimuli/rescaled_final/2155_fw.mp4	0.0	278.50695514678955	0.10000944137573242
60	262.3141930103302	fix_pre	0		120	58.0	2.5	/experiments/Knapen_AOT/AOT_stimuli/rescaled_final/1287_rv.mp4	0.0	278.6069645881653	1.0085372924804688
60	262.4977955818176	pulse	0	t		58.0	2.5	/experiments/Knapen_AOT/AOT_stimuli/rescaled_final/1287_rv.mp4	0.0	278.7905671596527	
60	263.32273030281067	movie	1		279	58.0	2.5	/experiments/Knapen_AOT/AOT_stimuli/rescaled_final/1287_rv.mp4	0.0	279.61550188064575	2.492074966430664
60	264.0980246067047	pulse	1	t		58.0	2.5	/experiments/Knapen_AOT/AOT_stimuli/rescaled_final/1287_rv.mp4	0.0	280.3907961845398	
60	265.6982307434082	pulse	1	t		58.0	2.5	/experiments/Knapen_AOT/AOT_stimuli/rescaled_final/1287_rv.mp4	0.0	281.9910023212433	
60	265.81480526924133	fix_post	2		12	58.0	2.5	/experiments/Knapen_AOT/AOT_stimuli/rescaled_final/1287_rv.mp4	0.0	282.1075768470764	0.10003900527954102
61	265.9148442745209	fix_pre	0		120	59.0	2.5	/experiments/Knapen_AOT/AOT_stimuli/rescaled_final/0141_rv.mp4	0.0	282.20761585235596	1.0084075927734375
61	266.9232518672943	movie	1		282	59.0	2.5	/experiments/Knapen_AOT/AOT_stimuli/rescaled_final/0141_rv.mp4	0.0	283.2160234451294	2.4920084476470947
61	267.2981278896332	pulse	1	t		59.0	2.5	/experiments/Knapen_AOT/AOT_stimuli/rescaled_final/0141_rv.mp4	0.0	283.59089946746826	
61	268.8988914489746	pulse	1	t		59.0	2.5	/experiments/Knapen_AOT/AOT_stimuli/rescaled_final/0141_rv.mp4	0.0	285.1916630268097	
61	269.4152603149414	fix_post	2		12	59.0	2.5	/experiments/Knapen_AOT/AOT_stimuli/rescaled_final/0141_rv.mp4	0.0	285.7080318927765	0.1000368595123291
62	269.51529717445374	fix_pre	0		119	60.0	2.5	/experiments/Knapen_AOT/AOT_stimuli/rescaled_final/0604_fw.mp4	0.0	285.8080687522888	1.0001137256622314
62	270.4990584850311	pulse	0	t		60.0	2.5	/experiments/Knapen_AOT/AOT_stimuli/rescaled_final/0604_fw.mp4	0.0	286.7918300628662	
62	270.51541090011597	movie	1		287	60.0	2.5	/experiments/Knapen_AOT/AOT_stimuli/rescaled_final/0604_fw.mp4	0.0	286.80818247795105	2.5004069805145264
62	272.09758377075195	pulse	1	t		60.0	2.5	/experiments/Knapen_AOT/AOT_stimuli/rescaled_final/0604_fw.mp4	0.0	288.39035534858704	
62	273.0158178806305	fix_post	2		12	60.0	2.5	/experiments/Knapen_AOT/AOT_stimuli/rescaled_final/0604_fw.mp4	0.0	289.3085894584656	0.10003662109375
63	273.11585450172424	fix_pre	0		120	61.0	2.5	/experiments/Knapen_AOT/AOT_stimuli/rescaled_final/0999_fw.mp4	0.0	289.4086260795593	1.008469820022583
63	273.6994631290436	pulse	0	t		61.0	2.5	/experiments/Knapen_AOT/AOT_stimuli/rescaled_final/0999_fw.mp4	0.0	289.99223470687866	
63	274.1243243217468	movie	1		281	61.0	2.5	/experiments/Knapen_AOT/AOT_stimuli/rescaled_final/0999_fw.mp4	0.0	290.4170958995819	2.492025375366211
63	275.29826283454895	pulse	1	t		61.0	2.5	/experiments/Knapen_AOT/AOT_stimuli/rescaled_final/0999_fw.mp4	0.0	291.59103441238403	
63	276.61634969711304	fix_post	2		12	61.0	2.5	/experiments/Knapen_AOT/AOT_stimuli/rescaled_final/0999_fw.mp4	0.0	292.9091212749481	0.10010123252868652
64	276.7164509296417	fix_pre	0		120	62.0	2.5	/experiments/Knapen_AOT/AOT_stimuli/rescaled_final/2118_fw.mp4	0.0	293.0092225074768	1.0084364414215088
64	276.89994716644287	pulse	0	t		62.0	2.5	/experiments/Knapen_AOT/AOT_stimuli/rescaled_final/2118_fw.mp4	0.0	293.19271874427795	
64	277.72488737106323	movie	1		274	62.0	2.5	/experiments/Knapen_AOT/AOT_stimuli/rescaled_final/2118_fw.mp4	0.0	294.0176589488983	2.491994619369507
64	278.5001628398895	pulse	1	t		62.0	2.5	/experiments/Knapen_AOT/AOT_stimuli/rescaled_final/2118_fw.mp4	0.0	294.7929344177246	
64	280.0989844799042	pulse	1	t		62.0	2.5	/experiments/Knapen_AOT/AOT_stimuli/rescaled_final/2118_fw.mp4	0.0	296.39175605773926	
64	280.21688199043274	fix_post	2		12	62.0	2.5	/experiments/Knapen_AOT/AOT_stimuli/rescaled_final/2118_fw.mp4	0.0	296.5096535682678	0.10006237030029297
65	280.31694436073303	fix_pre	0		120	63.0	2.5	blank	1.0	296.6097159385681	1.000131368637085
65	281.3170757293701	movie	1		300	63.0	2.5	blank	1.0	297.6098473072052	2.500342845916748
65	281.70062160491943	pulse	1	t		63.0	2.5	blank	1.0	297.9933931827545	
65	283.30088543891907	pulse	1	t		63.0	2.5	blank	1.0	299.59365701675415	
65	283.81741857528687	fix_post	2		12	63.0	2.5	blank	1.0	300.11019015312195	0.10002732276916504
66	283.91744589805603	fix_pre	0		119	64.0	2.5	/experiments/Knapen_AOT/AOT_stimuli/rescaled_final/0278_rv.mp4	0.0	300.2102174758911	1.0001492500305176
66	284.9011859893799	pulse	0	t		64.0	2.5	/experiments/Knapen_AOT/AOT_stimuli/rescaled_final/0278_rv.mp4	0.0	301.19395756721497	
66	284.91759514808655	movie	1		283	64.0	2.5	/experiments/Knapen_AOT/AOT_stimuli/rescaled_final/0278_rv.mp4	0.0	301.21036672592163	2.500363826751709
66	286.5001847743988	pulse	1	t		64.0	2.5	/experiments/Knapen_AOT/AOT_stimuli/rescaled_final/0278_rv.mp4	0.0	302.7929563522339	
66	287.41795897483826	fix_post	2		12	64.0	2.5	/experiments/Knapen_AOT/AOT_stimuli/rescaled_final/0278_rv.mp4	0.0	303.71073055267334	0.10001921653747559
67	287.51797819137573	fix_pre	0		120	65.0	2.5	/experiments/Knapen_AOT/AOT_stimuli/rescaled_final/1229_fw.mp4	0.0	303.8107497692108	1.0086240768432617
67	288.1018126010895	pulse	0	t		65.0	2.5	/experiments/Knapen_AOT/AOT_stimuli/rescaled_final/1229_fw.mp4	0.0	304.39458417892456	
67	288.526602268219	movie	1		279	65.0	2.5	/experiments/Knapen_AOT/AOT_stimuli/rescaled_final/1229_fw.mp4	0.0	304.8193738460541	2.4918978214263916
67	289.70026183128357	pulse	1	t		65.0	2.5	/experiments/Knapen_AOT/AOT_stimuli/rescaled_final/1229_fw.mp4	0.0	305.99303340911865	
67	291.0185000896454	fix_post	2		12	65.0	2.5	/experiments/Knapen_AOT/AOT_stimuli/rescaled_final/1229_fw.mp4	0.0	307.31127166748047	0.10006308555603027
68	291.1185631752014	fix_pre	0		120	66.0	2.5	/experiments/Knapen_AOT/AOT_stimuli/rescaled_final/1450_rv.mp4	0.0	307.4113347530365	1.0084640979766846
68	291.3021297454834	pulse	0	t		66.0	2.5	/experiments/Knapen_AOT/AOT_stimuli/rescaled_final/1450_rv.mp4	0.0	307.5949013233185	
68	292.1270272731781	movie	1		268	66.0	2.5	/experiments/Knapen_AOT/AOT_stimuli/rescaled_final/1450_rv.mp4	0.0	308.4197988510132	2.49202036857605
68	292.90220737457275	pulse	1	t		66.0	2.5	/experiments/Knapen_AOT/AOT_stimuli/rescaled_final/1450_rv.mp4	0.0	309.19497895240784	
68	294.5025541782379	pulse	1	t		66.0	2.5	/experiments/Knapen_AOT/AOT_stimuli/rescaled_final/1450_rv.mp4	0.0	310.795325756073	
68	294.61904764175415	fix_post	2		12	66.0	2.5	/experiments/Knapen_AOT/AOT_stimuli/rescaled_final/1450_rv.mp4	0.0	310.91181921958923	0.10000157356262207
69	294.7190492153168	fix_pre	0		120	67.0	2.5	/experiments/Knapen_AOT/AOT_stimuli/rescaled_final/0745_fw.mp4	0.0	311.01182079315186	1.0085136890411377
69	295.7275629043579	movie	1		267	67.0	2.5	/experiments/Knapen_AOT/AOT_stimuli/rescaled_final/0745_fw.mp4	0.0	312.020334482193	2.492055892944336
69	296.10214138031006	pulse	1	t		67.0	2.5	/experiments/Knapen_AOT/AOT_stimuli/rescaled_final/0745_fw.mp4	0.0	312.39491295814514	
69	297.70147132873535	pulse	1	t		67.0	2.5	/experiments/Knapen_AOT/AOT_stimuli/rescaled_final/0745_fw.mp4	0.0	313.99424290657043	
69	298.21961879730225	fix_post	2		12	67.0	2.5	/experiments/Knapen_AOT/AOT_stimuli/rescaled_final/0745_fw.mp4	0.0	314.51239037513733	0.10002470016479492
70	298.31964349746704	fix_pre	0		119	68.0	2.5	blank	1.0	314.6124150753021	0.991776704788208
70	299.3033194541931	pulse	0	t		68.0	2.5	blank	1.0	315.5960910320282	
70	299.31142020225525	movie	1		301	68.0	2.5	blank	1.0	315.60419178009033	2.5086991786956787
70	300.9035608768463	pulse	1	t		68.0	2.5	blank	1.0	317.1963324546814	
70	301.8201193809509	fix_post	2		12	68.0	2.5	blank	1.0	318.112890958786	0.10013699531555176
71	301.9202563762665	fix_pre	0		120	69.0	2.5	/experiments/Knapen_AOT/AOT_stimuli/rescaled_final/1795_rv.mp4	0.0	318.21302795410156	1.0083677768707275
71	302.50383615493774	pulse	0	t		69.0	2.5	/experiments/Knapen_AOT/AOT_stimuli/rescaled_final/1795_rv.mp4	0.0	318.7966077327728	
71	302.9286241531372	movie	1		284	69.0	2.5	/experiments/Knapen_AOT/AOT_stimuli/rescaled_final/1795_rv.mp4	0.0	319.2213957309723	2.492110013961792
71	304.1029305458069	pulse	1	t		69.0	2.5	/experiments/Knapen_AOT/AOT_stimuli/rescaled_final/1795_rv.mp4	0.0	320.39570212364197	
71	305.420734167099	fix_post	2		12	69.0	2.5	/experiments/Knapen_AOT/AOT_stimuli/rescaled_final/1795_rv.mp4	0.0	321.7135057449341	0.09994745254516602
72	305.52068161964417	fix_pre	0		120	70.0	2.5	/experiments/Knapen_AOT/AOT_stimuli/rescaled_final/0666_fw.mp4	0.0	321.81345319747925	1.0085375308990479
72	305.7046127319336	pulse	0	t		70.0	2.5	/experiments/Knapen_AOT/AOT_stimuli/rescaled_final/0666_fw.mp4	0.0	321.9973843097687	
72	306.5292191505432	movie	1		277	70.0	2.5	/experiments/Knapen_AOT/AOT_stimuli/rescaled_final/0666_fw.mp4	0.0	322.8219907283783	2.4919955730438232
72	307.30287647247314	pulse	1	t		70.0	2.5	/experiments/Knapen_AOT/AOT_stimuli/rescaled_final/0666_fw.mp4	0.0	323.5956480503082	
72	308.9031445980072	pulse	1	t		70.0	2.5	/experiments/Knapen_AOT/AOT_stimuli/rescaled_final/0666_fw.mp4	0.0	325.1959161758423	
72	309.02121472358704	fix_post	2		12	70.0	2.5	/experiments/Knapen_AOT/AOT_stimuli/rescaled_final/0666_fw.mp4	0.0	325.3139863014221	0.10001301765441895
73	309.12122774124146	fix_pre	0		120	71.0	2.5	/experiments/Knapen_AOT/AOT_stimuli/rescaled_final/1268_fw.mp4	0.0	325.41399931907654	1.008481740951538
73	310.129709482193	movie	1		282	71.0	2.5	/experiments/Knapen_AOT/AOT_stimuli/rescaled_final/1268_fw.mp4	0.0	326.4224810600281	2.4920411109924316
73	310.5039622783661	pulse	1	t		71.0	2.5	/experiments/Knapen_AOT/AOT_stimuli/rescaled_final/1268_fw.mp4	0.0	326.7967338562012	
73	312.1035807132721	pulse	1	t		71.0	2.5	/experiments/Knapen_AOT/AOT_stimuli/rescaled_final/1268_fw.mp4	0.0	328.3963522911072	
73	312.6217505931854	fix_post	2		12	71.0	2.5	/experiments/Knapen_AOT/AOT_stimuli/rescaled_final/1268_fw.mp4	0.0	328.9145221710205	0.10001945495605469
74	312.7217700481415	fix_pre	0		119	72.0	2.5	/experiments/Knapen_AOT/AOT_stimuli/rescaled_final/0888_fw.mp4	0.0	329.01454162597656	1.0002291202545166
74	313.69760489463806	pulse	0	t		72.0	2.5	/experiments/Knapen_AOT/AOT_stimuli/rescaled_final/0888_fw.mp4	0.0	329.99037647247314	
74	313.721999168396	movie	1		286	72.0	2.5	/experiments/Knapen_AOT/AOT_stimuli/rescaled_final/0888_fw.mp4	0.0	330.0147707462311	2.500434637069702
74	315.2975869178772	pulse	1	t		72.0	2.5	/experiments/Knapen_AOT/AOT_stimuli/rescaled_final/0888_fw.mp4	0.0	331.5903584957123	
74	316.2224338054657	fix_post	2		12	72.0	2.5	/experiments/Knapen_AOT/AOT_stimuli/rescaled_final/0888_fw.mp4	0.0	332.5152053833008	0.10002303123474121
75	316.32245683670044	fix_pre	0		120	73.0	2.5	/experiments/Knapen_AOT/AOT_stimuli/rescaled_final/0629_fw.mp4	0.0	332.6152284145355	1.0083870887756348
75	316.89766931533813	pulse	0	t		73.0	2.5	/experiments/Knapen_AOT/AOT_stimuli/rescaled_final/0629_fw.mp4	0.0	333.1904408931732	
75	317.3308439254761	movie	1		285	73.0	2.5	/experiments/Knapen_AOT/AOT_stimuli/rescaled_final/0629_fw.mp4	0.0	333.62361550331116	2.4919824600219727
75	318.49787187576294	pulse	1	t		73.0	2.5	/experiments/Knapen_AOT/AOT_stimuli/rescaled_final/0629_fw.mp4	0.0	334.790643453598	
75	319.82282638549805	fix_post	2		12	73.0	2.5	/experiments/Knapen_AOT/AOT_stimuli/rescaled_final/0629_fw.mp4	0.0	336.11559796333313	0.10011506080627441
76	319.9229414463043	fix_pre	0		120	74.0	2.5	/experiments/Knapen_AOT/AOT_stimuli/rescaled_final/1729_rv.mp4	0.0	336.2157130241394	1.0084643363952637
76	320.0981116294861	pulse	0	t		74.0	2.5	/experiments/Knapen_AOT/AOT_stimuli/rescaled_final/1729_rv.mp4	0.0	336.39088320732117	
76	320.9314057826996	movie	1		274	74.0	2.5	/experiments/Knapen_AOT/AOT_stimuli/rescaled_final/1729_rv.mp4	0.0	337.22417736053467	2.5003840923309326
76	321.69851303100586	pulse	1	t		74.0	2.5	/experiments/Knapen_AOT/AOT_stimuli/rescaled_final/1729_rv.mp4	0.0	337.99128460884094	
76	323.2978687286377	pulse	1	t		74.0	2.5	/experiments/Knapen_AOT/AOT_stimuli/rescaled_final/1729_rv.mp4	0.0	339.5906403064728	
76	323.4317898750305	fix_post	2		11	74.0	2.5	/experiments/Knapen_AOT/AOT_stimuli/rescaled_final/1729_rv.mp4	0.0	339.7245614528656	0.09157133102416992
77	323.5233612060547	fix_pre	0		120	75.0	2.5	/experiments/Knapen_AOT/AOT_stimuli/rescaled_final/0232_fw.mp4	0.0	339.81613278388977	1.0085525512695312
77	324.5319137573242	movie	1		291	75.0	2.5	/experiments/Knapen_AOT/AOT_stimuli/rescaled_final/0232_fw.mp4	0.0	340.8246853351593	2.4920010566711426
77	324.8965730667114	pulse	1	t		75.0	2.5	/experiments/Knapen_AOT/AOT_stimuli/rescaled_final/0232_fw.mp4	0.0	341.1893446445465	
77	326.49778842926025	pulse	1	t		75.0	2.5	/experiments/Knapen_AOT/AOT_stimuli/rescaled_final/0232_fw.mp4	0.0	342.79056000709534	
77	327.02391481399536	fix_post	2		12	75.0	2.5	/experiments/Knapen_AOT/AOT_stimuli/rescaled_final/0232_fw.mp4	0.0	343.31668639183044	0.10004115104675293
78	327.1239559650421	fix_pre	0		118	76.0	2.5	blank	1.0	343.4167275428772	0.9834606647491455
78	328.09938526153564	pulse	0	t		76.0	2.5	blank	1.0	344.3921568393707	
78	328.10741662979126	movie	1		301	76.0	2.5	blank	1.0	344.40018820762634	2.5087594985961914
78	329.6995441913605	pulse	1	t		76.0	2.5	blank	1.0	345.99231576919556	
78	330.61617612838745	fix_post	2		12	76.0	2.5	blank	1.0	346.90894770622253	0.09998512268066406
79	330.7161612510681	fix_pre	0		120	77.0	2.5	/experiments/Knapen_AOT/AOT_stimuli/rescaled_final/1305_fw.mp4	0.0	347.0089328289032	1.0084834098815918
79	331.29981994628906	pulse	0	t		77.0	2.5	/experiments/Knapen_AOT/AOT_stimuli/rescaled_final/1305_fw.mp4	0.0	347.59259152412415	
79	331.7246446609497	movie	1		281	77.0	2.5	/experiments/Knapen_AOT/AOT_stimuli/rescaled_final/1305_fw.mp4	0.0	348.0174162387848	2.4920308589935303
79	332.89865016937256	pulse	1	t		77.0	2.5	/experiments/Knapen_AOT/AOT_stimuli/rescaled_final/1305_fw.mp4	0.0	349.19142174720764	
79	334.21667551994324	fix_post	2		12	77.0	2.5	/experiments/Knapen_AOT/AOT_stimuli/rescaled_final/1305_fw.mp4	0.0	350.5094470977783	0.1000370979309082
80	334.31671261787415	fix_pre	0		120	78.0	2.5	/experiments/Knapen_AOT/AOT_stimuli/rescaled_final/0979_rv.mp4	0.0	350.60948419570923	1.0085129737854004
80	334.5002484321594	pulse	0	t		78.0	2.5	/experiments/Knapen_AOT/AOT_stimuli/rescaled_final/0979_rv.mp4	0.0	350.7930200099945	
80	335.32522559165955	movie	1		272	78.0	2.5	/experiments/Knapen_AOT/AOT_stimuli/rescaled_final/0979_rv.mp4	0.0	351.61799716949463	2.491989850997925
80	336.0989611148834	pulse	1	t		78.0	2.5	/experiments/Knapen_AOT/AOT_stimuli/rescaled_final/0979_rv.mp4	0.0	352.3917326927185	
80	337.6988682746887	pulse	1	t		78.0	2.5	/experiments/Knapen_AOT/AOT_stimuli/rescaled_final/0979_rv.mp4	0.0	353.9916398525238	
80	337.81721544265747	fix_post	2		12	78.0	2.5	/experiments/Knapen_AOT/AOT_stimuli/rescaled_final/0979_rv.mp4	0.0	354.10998702049255	0.10014581680297852
81	337.91736125946045	fix_pre	0		120	79.0	2.5	/experiments/Knapen_AOT/AOT_stimuli/rescaled_final/0156_rv.mp4	0.0	354.21013283729553	1.0083355903625488
81	338.925696849823	movie	1		275	79.0	2.5	/experiments/Knapen_AOT/AOT_stimuli/rescaled_final/0156_rv.mp4	0.0	355.2184684276581	2.4920754432678223
81	339.29987049102783	pulse	1	t		79.0	2.5	/experiments/Knapen_AOT/AOT_stimuli/rescaled_final/0156_rv.mp4	0.0	355.5926420688629	
81	340.89931750297546	pulse	1	t		79.0	2.5	/experiments/Knapen_AOT/AOT_stimuli/rescaled_final/0156_rv.mp4	0.0	357.19208908081055	
81	341.4177722930908	fix_post	2		12	79.0	2.5	/experiments/Knapen_AOT/AOT_stimuli/rescaled_final/0156_rv.mp4	0.0	357.7105438709259	0.10015392303466797
82	341.5179262161255	fix_pre	0		119	80.0	2.5	/experiments/Knapen_AOT/AOT_stimuli/rescaled_final/1392_rv.mp4	0.0	357.81069779396057	1.0000197887420654
82	342.5014624595642	pulse	0	t		80.0	2.5	/experiments/Knapen_AOT/AOT_stimuli/rescaled_final/1392_rv.mp4	0.0	358.7942340373993	
82	342.51794600486755	movie	1		271	80.0	2.5	/experiments/Knapen_AOT/AOT_stimuli/rescaled_final/1392_rv.mp4	0.0	358.81071758270264	2.5003347396850586
82	344.1005880832672	pulse	1	t		80.0	2.5	/experiments/Knapen_AOT/AOT_stimuli/rescaled_final/1392_rv.mp4	0.0	360.3933596611023	
82	345.0182807445526	fix_post	2		12	80.0	2.5	/experiments/Knapen_AOT/AOT_stimuli/rescaled_final/1392_rv.mp4	0.0	361.3110523223877	0.10004520416259766
83	345.1183259487152	fix_pre	0		120	81.0	2.5	/experiments/Knapen_AOT/AOT_stimuli/rescaled_final/0157_fw.mp4	0.0	361.4110975265503	1.0084929466247559
83	345.70222640037537	pulse	0	t		81.0	2.5	/experiments/Knapen_AOT/AOT_stimuli/rescaled_final/0157_fw.mp4	0.0	361.99499797821045	
83	346.12681889533997	movie	1		278	81.0	2.5	/experiments/Knapen_AOT/AOT_stimuli/rescaled_final/0157_fw.mp4	0.0	362.41959047317505	2.492021083831787
83	347.300488948822	pulse	1	t		81.0	2.5	/experiments/Knapen_AOT/AOT_stimuli/rescaled_final/0157_fw.mp4	0.0	363.5932605266571	
83	348.61883997917175	fix_post	2		12	81.0	2.5	/experiments/Knapen_AOT/AOT_stimuli/rescaled_final/0157_fw.mp4	0.0	364.91161155700684	0.10007238388061523
84	348.71891236305237	fix_pre	0		120	82.0	2.5	/experiments/Knapen_AOT/AOT_stimuli/rescaled_final/0157_rv.mp4	0.0	365.01168394088745	1.0084381103515625
84	348.90246772766113	pulse	0	t		82.0	2.5	/experiments/Knapen_AOT/AOT_stimuli/rescaled_final/0157_rv.mp4	0.0	365.1952393054962	
84	349.72735047340393	movie	1		274	82.0	2.5	/experiments/Knapen_AOT/AOT_stimuli/rescaled_final/0157_rv.mp4	0.0	366.020122051239	2.4920573234558105
84	350.50106930732727	pulse	1	t		82.0	2.5	/experiments/Knapen_AOT/AOT_stimuli/rescaled_final/0157_rv.mp4	0.0	366.79384088516235	
84	352.10104513168335	pulse	1	t		82.0	2.5	/experiments/Knapen_AOT/AOT_stimuli/rescaled_final/0157_rv.mp4	0.0	368.39381670951843	
84	352.21940779685974	fix_post	2		12	82.0	2.5	/experiments/Knapen_AOT/AOT_stimuli/rescaled_final/0157_rv.mp4	0.0	368.5121793746948	0.1001582145690918
85	352.31956601142883	fix_pre	0		120	83.0	2.5	blank	1.0	368.6123375892639	0.9999427795410156
85	353.31950879096985	movie	1		300	83.0	2.5	blank	1.0	369.61228036880493	2.5003952980041504
85	353.7032024860382	pulse	1	t		83.0	2.5	blank	1.0	369.9959740638733	
85	355.3034596443176	pulse	1	t		83.0	2.5	blank	1.0	371.5962312221527	
85	355.819904088974	fix_post	2		12	83.0	2.5	blank	1.0	372.1126756668091	0.10842370986938477
87	355.9283277988434	stim	0		1714					372.22109937667847	14.28540563583374
87	356.9037992954254	pulse	0	t						373.1965708732605	
87	358.50401544570923	pulse	0	t						374.7967870235443	
87	360.10416078567505	pulse	0	t						376.39693236351013	
87	361.69720911979675	pulse	0	t						377.98998069763184	
87	363.2967584133148	pulse	0	t						379.5895299911499	
87	364.89791440963745	pulse	0	t						381.19068598747253	
87	366.49695444107056	pulse	0	t						382.78972601890564	
87	368.09698152542114	pulse	0	t						384.3897531032562	
87	369.69738602638245	pulse	0	t						385.99015760421753	
