trial_nr	onset	event_type	phase	response	nr_frames	movie_index	movie_duration	movie_file	blank	onset_abs	duration
0	0.20004510879516602	stim	0		95					45.613929271698	0.7917749881744385
0	0.9764831066131592	response	0	space						46.39036726951599	
1	0.9918200969696045	stim	0		4477					46.40570425987244	37.32228994369507
1	38.30447697639465	pulse	0	t						83.71836113929749	
1	38.31411004066467	stim	1		1715					83.7279942035675	14.302027940750122
1	39.897850036621094	pulse	1	t						85.31173419952393	
1	41.49811506271362	pulse	1	t						86.91199922561646	
1	43.098252058029175	pulse	1	t						88.512136220932	
1	44.69847798347473	pulse	1	t						90.11236214637756	
1	46.29872512817383	pulse	1	t						91.71260929107666	
1	47.899052143096924	pulse	1	t						93.31293630599976	
1	49.499242067337036	pulse	1	t						94.91312623023987	
1	51.099441051483154	pulse	1	t						96.51332521438599	
2	52.616137981414795	fix_pre	0		11	0.0	2.5	/experiments/knapen_AOT/AOT_stimuli/rescaled_final/1737_fw.mp4	0.0	98.03002214431763	0.09169816970825195
2	52.699647188186646	pulse	0	t		0.0	2.5	/experiments/knapen_AOT/AOT_stimuli/rescaled_final/1737_fw.mp4	0.0	98.11353135108948	
2	52.70783615112305	movie	1		242	0.0	2.5	/experiments/knapen_AOT/AOT_stimuli/rescaled_final/1737_fw.mp4	0.0	98.12172031402588	2.5087368488311768
2	54.30411696434021	pulse	1	t		0.0	2.5	/experiments/knapen_AOT/AOT_stimuli/rescaled_final/1737_fw.mp4	0.0	99.71800112724304	
2	55.216572999954224	fix_post	2		12	0.0	2.5	/experiments/knapen_AOT/AOT_stimuli/rescaled_final/1737_fw.mp4	0.0	100.63045716285706	0.10007619857788086
3	55.316649198532104	fix_pre	0		120	1.0	2.5	/experiments/knapen_AOT/AOT_stimuli/rescaled_final/0241_fw.mp4	0.0	100.73053336143494	1.000067949295044
3	55.90019106864929	pulse	0	t		1.0	2.5	/experiments/knapen_AOT/AOT_stimuli/rescaled_final/0241_fw.mp4	0.0	101.31407523155212	
3	56.31671714782715	movie	1		244	1.0	2.5	/experiments/knapen_AOT/AOT_stimuli/rescaled_final/0241_fw.mp4	0.0	101.73060131072998	2.50034499168396
3	57.49332404136658	pulse	1	t		1.0	2.5	/experiments/knapen_AOT/AOT_stimuli/rescaled_final/0241_fw.mp4	0.0	102.90720820426941	
3	58.81706213951111	fix_post	2		12	1.0	2.5	/experiments/knapen_AOT/AOT_stimuli/rescaled_final/0241_fw.mp4	0.0	104.23094630241394	0.10000801086425781
4	58.917070150375366	fix_pre	0		120	2.0	2.5	/experiments/knapen_AOT/AOT_stimuli/rescaled_final/0960_fw.mp4	0.0	104.3309543132782	1.0001959800720215
4	59.09311819076538	pulse	0	t		2.0	2.5	/experiments/knapen_AOT/AOT_stimuli/rescaled_final/0960_fw.mp4	0.0	104.50700235366821	
4	59.91726613044739	movie	1		244	2.0	2.5	/experiments/knapen_AOT/AOT_stimuli/rescaled_final/0960_fw.mp4	0.0	105.33115029335022	2.5003700256347656
4	60.69342803955078	pulse	1	t		2.0	2.5	/experiments/knapen_AOT/AOT_stimuli/rescaled_final/0960_fw.mp4	0.0	106.10731220245361	
4	62.301149129867554	pulse	1	t		2.0	2.5	/experiments/knapen_AOT/AOT_stimuli/rescaled_final/0960_fw.mp4	0.0	107.71503329277039	
4	62.41763615608215	fix_post	2		12	2.0	2.5	/experiments/knapen_AOT/AOT_stimuli/rescaled_final/0960_fw.mp4	0.0	107.83152031898499	0.10000395774841309
5	62.517640113830566	fix_pre	0		120	3.0	2.5	/experiments/knapen_AOT/AOT_stimuli/rescaled_final/0876_fw.mp4	0.0	107.9315242767334	1.0001499652862549
5	63.51779007911682	movie	1		242	3.0	2.5	/experiments/knapen_AOT/AOT_stimuli/rescaled_final/0876_fw.mp4	0.0	108.93167424201965	2.492094039916992
5	63.90200400352478	pulse	1	t		3.0	2.5	/experiments/knapen_AOT/AOT_stimuli/rescaled_final/0876_fw.mp4	0.0	109.31588816642761	
5	65.49349999427795	pulse	1	t		3.0	2.5	/experiments/knapen_AOT/AOT_stimuli/rescaled_final/0876_fw.mp4	0.0	110.90738415718079	
5	66.00988411903381	fix_post	2		12	3.0	2.5	/experiments/knapen_AOT/AOT_stimuli/rescaled_final/0876_fw.mp4	0.0	111.42376828193665	0.09997296333312988
6	66.10985708236694	fix_pre	0		119	4.0	2.5	/experiments/knapen_AOT/AOT_stimuli/rescaled_final/1572_rv.mp4	0.0	111.52374124526978	0.991826057434082
6	67.09346604347229	pulse	0	t		4.0	2.5	/experiments/knapen_AOT/AOT_stimuli/rescaled_final/1572_rv.mp4	0.0	112.50735020637512	
6	67.10168313980103	movie	1		246	4.0	2.5	/experiments/knapen_AOT/AOT_stimuli/rescaled_final/1572_rv.mp4	0.0	112.51556730270386	2.5087008476257324
6	68.69419598579407	pulse	1	t		4.0	2.5	/experiments/knapen_AOT/AOT_stimuli/rescaled_final/1572_rv.mp4	0.0	114.1080801486969	
6	69.61038398742676	fix_post	2		12	4.0	2.5	/experiments/knapen_AOT/AOT_stimuli/rescaled_final/1572_rv.mp4	0.0	115.02426815032959	0.10002517700195312
7	69.71040916442871	fix_pre	0		120	5.0	2.5	blank	1.0	115.12429332733154	1.0001230239868164
7	70.29407215118408	pulse	0	t		5.0	2.5	blank	1.0	115.70795631408691	
7	70.71053218841553	movie	1		300	5.0	2.5	blank	1.0	116.12441635131836	2.5004138946533203
7	71.89432716369629	pulse	1	t		5.0	2.5	blank	1.0	117.30821132659912	
7	73.21094608306885	fix_post	2		12	5.0	2.5	blank	1.0	118.62483024597168	0.09997296333312988
8	73.31091904640198	fix_pre	0		120	6.0	2.5	/experiments/knapen_AOT/AOT_stimuli/rescaled_final/1688_rv.mp4	0.0	118.72480320930481	1.0002269744873047
8	73.49454402923584	pulse	0	t		6.0	2.5	/experiments/knapen_AOT/AOT_stimuli/rescaled_final/1688_rv.mp4	0.0	118.90842819213867	
8	74.31114602088928	movie	1		244	6.0	2.5	/experiments/knapen_AOT/AOT_stimuli/rescaled_final/1688_rv.mp4	0.0	119.72503018379211	2.500272035598755
8	75.09466409683228	pulse	1	t		6.0	2.5	/experiments/knapen_AOT/AOT_stimuli/rescaled_final/1688_rv.mp4	0.0	120.50854825973511	
8	76.69482517242432	pulse	1	t		6.0	2.5	/experiments/knapen_AOT/AOT_stimuli/rescaled_final/1688_rv.mp4	0.0	122.10870933532715	
8	76.81141805648804	fix_post	2		12	6.0	2.5	/experiments/knapen_AOT/AOT_stimuli/rescaled_final/1688_rv.mp4	0.0	122.22530221939087	0.10002994537353516
9	76.91144800186157	fix_pre	0		119	7.0	2.5	/experiments/knapen_AOT/AOT_stimuli/rescaled_final/0316_fw.mp4	0.0	122.3253321647644	0.9918370246887207
9	77.9032850265503	movie	1		246	7.0	2.5	/experiments/knapen_AOT/AOT_stimuli/rescaled_final/0316_fw.mp4	0.0	123.31716918945312	2.500383138656616
9	78.29539513587952	pulse	1	t		7.0	2.5	/experiments/knapen_AOT/AOT_stimuli/rescaled_final/0316_fw.mp4	0.0	123.70927929878235	
9	79.89547514915466	pulse	1	t		7.0	2.5	/experiments/knapen_AOT/AOT_stimuli/rescaled_final/0316_fw.mp4	0.0	125.3093593120575	
9	80.40366816520691	fix_post	2		12	7.0	2.5	/experiments/knapen_AOT/AOT_stimuli/rescaled_final/0316_fw.mp4	0.0	125.81755232810974	0.09997701644897461
10	80.50364518165588	fix_pre	0		120	8.0	2.5	/experiments/knapen_AOT/AOT_stimuli/rescaled_final/2044_fw.mp4	0.0	125.91752934455872	1.0001938343048096
10	81.49572205543518	pulse	0	t		8.0	2.5	/experiments/knapen_AOT/AOT_stimuli/rescaled_final/2044_fw.mp4	0.0	126.90960621833801	
10	81.5038390159607	movie	1		245	8.0	2.5	/experiments/knapen_AOT/AOT_stimuli/rescaled_final/2044_fw.mp4	0.0	126.91772317886353	2.508648157119751
10	83.09691500663757	pulse	1	t		8.0	2.5	/experiments/knapen_AOT/AOT_stimuli/rescaled_final/2044_fw.mp4	0.0	128.5107991695404	
10	84.01248717308044	fix_post	2		12	8.0	2.5	/experiments/knapen_AOT/AOT_stimuli/rescaled_final/2044_fw.mp4	0.0	129.42637133598328	0.10008382797241211
11	84.11257100105286	fix_pre	0		120	9.0	2.5	/experiments/knapen_AOT/AOT_stimuli/rescaled_final/1193_fw.mp4	0.0	129.5264551639557	1.0001180171966553
11	84.69621419906616	pulse	0	t		9.0	2.5	/experiments/knapen_AOT/AOT_stimuli/rescaled_final/1193_fw.mp4	0.0	130.110098361969	
11	85.11268901824951	movie	1		244	9.0	2.5	/experiments/knapen_AOT/AOT_stimuli/rescaled_final/1193_fw.mp4	0.0	130.52657318115234	2.5004770755767822
11	86.29650616645813	pulse	1	t		9.0	2.5	/experiments/knapen_AOT/AOT_stimuli/rescaled_final/1193_fw.mp4	0.0	131.71039032936096	
11	87.6131660938263	fix_post	2		12	9.0	2.5	/experiments/knapen_AOT/AOT_stimuli/rescaled_final/1193_fw.mp4	0.0	133.02705025672913	0.09990191459655762
12	87.71306800842285	fix_pre	0		120	10.0	2.5	/experiments/knapen_AOT/AOT_stimuli/rescaled_final/0679_rv.mp4	0.0	133.12695217132568	1.0001680850982666
12	87.89664602279663	pulse	0	t		10.0	2.5	/experiments/knapen_AOT/AOT_stimuli/rescaled_final/0679_rv.mp4	0.0	133.31053018569946	
12	88.71323609352112	movie	1		244	10.0	2.5	/experiments/knapen_AOT/AOT_stimuli/rescaled_final/0679_rv.mp4	0.0	134.12712025642395	2.500361919403076
12	89.4969310760498	pulse	1	t		10.0	2.5	/experiments/knapen_AOT/AOT_stimuli/rescaled_final/0679_rv.mp4	0.0	134.91081523895264	
12	91.09721517562866	pulse	1	t		10.0	2.5	/experiments/knapen_AOT/AOT_stimuli/rescaled_final/0679_rv.mp4	0.0	136.5110993385315	
12	91.2135980129242	fix_post	2		12	10.0	2.5	/experiments/knapen_AOT/AOT_stimuli/rescaled_final/0679_rv.mp4	0.0	136.62748217582703	0.10002708435058594
13	91.31362509727478	fix_pre	0		119	11.0	2.5	/experiments/knapen_AOT/AOT_stimuli/rescaled_final/1000_fw.mp4	0.0	136.7275092601776	0.99180006980896
13	92.30542516708374	movie	1		244	11.0	2.5	/experiments/knapen_AOT/AOT_stimuli/rescaled_final/1000_fw.mp4	0.0	137.71930932998657	2.5003678798675537
13	92.69745516777039	pulse	1	t		11.0	2.5	/experiments/knapen_AOT/AOT_stimuli/rescaled_final/1000_fw.mp4	0.0	138.11133933067322	
13	94.29761219024658	pulse	1	t		11.0	2.5	/experiments/knapen_AOT/AOT_stimuli/rescaled_final/1000_fw.mp4	0.0	139.7114963531494	
13	94.8057930469513	fix_post	2		12	11.0	2.5	/experiments/knapen_AOT/AOT_stimuli/rescaled_final/1000_fw.mp4	0.0	140.21967720985413	0.10279703140258789
14	94.90859007835388	fix_pre	0		117	12.0	2.5	/experiments/knapen_AOT/AOT_stimuli/rescaled_final/0760_fw.mp4	0.0	140.3224742412567	0.9974169731140137
14	95.89789199829102	pulse	0	t		12.0	2.5	/experiments/knapen_AOT/AOT_stimuli/rescaled_final/0760_fw.mp4	0.0	141.31177616119385	
14	95.9060070514679	movie	1		245	12.0	2.5	/experiments/knapen_AOT/AOT_stimuli/rescaled_final/0760_fw.mp4	0.0	141.31989121437073	2.5086820125579834
14	97.49888300895691	pulse	1	t		12.0	2.5	/experiments/knapen_AOT/AOT_stimuli/rescaled_final/0760_fw.mp4	0.0	142.91276717185974	
14	98.41468906402588	fix_post	2		12	12.0	2.5	/experiments/knapen_AOT/AOT_stimuli/rescaled_final/0760_fw.mp4	0.0	143.8285732269287	0.09998512268066406
15	98.51467418670654	fix_pre	0		120	13.0	2.5	blank	1.0	143.92855834960938	1.0001578330993652
15	99.09832215309143	pulse	0	t		13.0	2.5	blank	1.0	144.51220631599426	
15	99.51483201980591	movie	1		300	13.0	2.5	blank	1.0	144.92871618270874	2.500427007675171
15	100.6985251903534	pulse	1	t		13.0	2.5	blank	1.0	146.11240935325623	
15	102.01525902748108	fix_post	2		12	13.0	2.5	blank	1.0	147.4291431903839	0.10002613067626953
16	102.11528515815735	fix_pre	0		120	14.0	2.5	/experiments/knapen_AOT/AOT_stimuli/rescaled_final/1708_rv.mp4	0.0	147.52916932106018	1.0000619888305664
16	102.29879903793335	pulse	0	t		14.0	2.5	/experiments/knapen_AOT/AOT_stimuli/rescaled_final/1708_rv.mp4	0.0	147.71268320083618	
16	103.11534714698792	movie	1		244	14.0	2.5	/experiments/knapen_AOT/AOT_stimuli/rescaled_final/1708_rv.mp4	0.0	148.52923130989075	2.5004169940948486
16	103.89902806282043	pulse	1	t		14.0	2.5	/experiments/knapen_AOT/AOT_stimuli/rescaled_final/1708_rv.mp4	0.0	149.31291222572327	
16	105.50146007537842	pulse	1	t		14.0	2.5	/experiments/knapen_AOT/AOT_stimuli/rescaled_final/1708_rv.mp4	0.0	150.91534423828125	
16	105.61576414108276	fix_post	2		12	14.0	2.5	/experiments/knapen_AOT/AOT_stimuli/rescaled_final/1708_rv.mp4	0.0	151.0296483039856	0.09998083114624023
17	105.715744972229	fix_pre	0		120	15.0	2.5	/experiments/knapen_AOT/AOT_stimuli/rescaled_final/0801_rv.mp4	0.0	151.12962913513184	1.0001380443572998
17	106.7158830165863	movie	1		243	15.0	2.5	/experiments/knapen_AOT/AOT_stimuli/rescaled_final/0801_rv.mp4	0.0	152.12976717948914	2.4920811653137207
17	107.1007661819458	pulse	1	t		15.0	2.5	/experiments/knapen_AOT/AOT_stimuli/rescaled_final/0801_rv.mp4	0.0	152.51465034484863	
17	108.699697971344	pulse	1	t		15.0	2.5	/experiments/knapen_AOT/AOT_stimuli/rescaled_final/0801_rv.mp4	0.0	154.11358213424683	
17	109.20796418190002	fix_post	2		12	15.0	2.5	/experiments/knapen_AOT/AOT_stimuli/rescaled_final/0801_rv.mp4	0.0	154.62184834480286	0.10000491142272949
18	109.30796909332275	fix_pre	0		120	16.0	2.5	/experiments/knapen_AOT/AOT_stimuli/rescaled_final/1332_fw.mp4	0.0	154.7218532562256	1.0001320838928223
18	110.3000750541687	pulse	0	t		16.0	2.5	/experiments/knapen_AOT/AOT_stimuli/rescaled_final/1332_fw.mp4	0.0	155.71395921707153	
18	110.30810117721558	movie	1		244	16.0	2.5	/experiments/knapen_AOT/AOT_stimuli/rescaled_final/1332_fw.mp4	0.0	155.7219853401184	2.50874400138855
18	111.9048490524292	pulse	1	t		16.0	2.5	/experiments/knapen_AOT/AOT_stimuli/rescaled_final/1332_fw.mp4	0.0	157.31873321533203	
18	112.81684517860413	fix_post	2		12	16.0	2.5	/experiments/knapen_AOT/AOT_stimuli/rescaled_final/1332_fw.mp4	0.0	158.23072934150696	0.0999898910522461
19	112.91683506965637	fix_pre	0		120	17.0	2.5	/experiments/knapen_AOT/AOT_stimuli/rescaled_final/2137_rv.mp4	0.0	158.3307192325592	1.0001540184020996
19	113.50052118301392	pulse	0	t		17.0	2.5	/experiments/knapen_AOT/AOT_stimuli/rescaled_final/2137_rv.mp4	0.0	158.91440534591675	
19	113.91698908805847	movie	1		245	17.0	2.5	/experiments/knapen_AOT/AOT_stimuli/rescaled_final/2137_rv.mp4	0.0	159.3308732509613	2.5003678798675537
19	115.10078501701355	pulse	1	t		17.0	2.5	/experiments/knapen_AOT/AOT_stimuli/rescaled_final/2137_rv.mp4	0.0	160.51466917991638	
19	116.41735696792603	fix_post	2		12	17.0	2.5	/experiments/knapen_AOT/AOT_stimuli/rescaled_final/2137_rv.mp4	0.0	161.83124113082886	0.10000300407409668
20	116.51735997200012	fix_pre	0		120	18.0	2.5	/experiments/knapen_AOT/AOT_stimuli/rescaled_final/0437_rv.mp4	0.0	161.93124413490295	1.0001590251922607
20	116.70100712776184	pulse	0	t		18.0	2.5	/experiments/knapen_AOT/AOT_stimuli/rescaled_final/0437_rv.mp4	0.0	162.11489129066467	
20	117.51751899719238	movie	1		244	18.0	2.5	/experiments/knapen_AOT/AOT_stimuli/rescaled_final/0437_rv.mp4	0.0	162.93140316009521	2.5003511905670166
20	118.29382514953613	pulse	1	t		18.0	2.5	/experiments/knapen_AOT/AOT_stimuli/rescaled_final/0437_rv.mp4	0.0	163.70770931243896	
20	119.90149998664856	pulse	1	t		18.0	2.5	/experiments/knapen_AOT/AOT_stimuli/rescaled_final/0437_rv.mp4	0.0	165.3153841495514	
20	120.0178701877594	fix_post	2		12	18.0	2.5	/experiments/knapen_AOT/AOT_stimuli/rescaled_final/0437_rv.mp4	0.0	165.43175435066223	0.10001492500305176
21	120.11788511276245	fix_pre	0		120	19.0	2.5	/experiments/knapen_AOT/AOT_stimuli/rescaled_final/2138_fw.mp4	0.0	165.53176927566528	1.0002129077911377
21	121.11809802055359	movie	1		243	19.0	2.5	/experiments/knapen_AOT/AOT_stimuli/rescaled_final/2138_fw.mp4	0.0	166.53198218345642	2.4920711517333984
21	121.50221920013428	pulse	1	t		19.0	2.5	/experiments/knapen_AOT/AOT_stimuli/rescaled_final/2138_fw.mp4	0.0	166.9161033630371	
21	123.09461116790771	pulse	1	t		19.0	2.5	/experiments/knapen_AOT/AOT_stimuli/rescaled_final/2138_fw.mp4	0.0	168.50849533081055	
21	123.61016917228699	fix_post	2		12	19.0	2.5	/experiments/knapen_AOT/AOT_stimuli/rescaled_final/2138_fw.mp4	0.0	169.02405333518982	0.0999460220336914
22	123.71011519432068	fix_pre	0		120	20.0	2.5	/experiments/knapen_AOT/AOT_stimuli/rescaled_final/1318_rv.mp4	0.0	169.1239993572235	1.0001769065856934
22	124.69451308250427	pulse	0	t		20.0	2.5	/experiments/knapen_AOT/AOT_stimuli/rescaled_final/1318_rv.mp4	0.0	170.1083972454071	
22	124.71029210090637	movie	1		246	20.0	2.5	/experiments/knapen_AOT/AOT_stimuli/rescaled_final/1318_rv.mp4	0.0	170.1241762638092	2.5086939334869385
22	126.2940661907196	pulse	1	t		20.0	2.5	/experiments/knapen_AOT/AOT_stimuli/rescaled_final/1318_rv.mp4	0.0	171.70795035362244	
22	127.21898603439331	fix_post	2		12	20.0	2.5	/experiments/knapen_AOT/AOT_stimuli/rescaled_final/1318_rv.mp4	0.0	172.63287019729614	0.10002493858337402
23	127.31901097297668	fix_pre	0		120	21.0	2.5	blank	1.0	172.73289513587952	1.0001230239868164
23	127.89421916007996	pulse	0	t		21.0	2.5	blank	1.0	173.3081033229828	
23	128.3191339969635	movie	1		300	21.0	2.5	blank	1.0	173.73301815986633	2.5003859996795654
23	129.49450206756592	pulse	1	t		21.0	2.5	blank	1.0	174.90838623046875	
23	130.81951999664307	fix_post	2		12	21.0	2.5	blank	1.0	176.2334041595459	0.10001397132873535
24	130.9195339679718	fix_pre	0		120	22.0	2.5	/experiments/knapen_AOT/AOT_stimuli/rescaled_final/1226_fw.mp4	0.0	176.33341813087463	1.0001351833343506
24	131.0947551727295	pulse	0	t		22.0	2.5	/experiments/knapen_AOT/AOT_stimuli/rescaled_final/1226_fw.mp4	0.0	176.50863933563232	
24	131.91966915130615	movie	1		245	22.0	2.5	/experiments/knapen_AOT/AOT_stimuli/rescaled_final/1226_fw.mp4	0.0	177.33355331420898	2.5003838539123535
24	132.69506311416626	pulse	1	t		22.0	2.5	/experiments/knapen_AOT/AOT_stimuli/rescaled_final/1226_fw.mp4	0.0	178.1089472770691	
24	134.2952971458435	pulse	1	t		22.0	2.5	/experiments/knapen_AOT/AOT_stimuli/rescaled_final/1226_fw.mp4	0.0	179.70918130874634	
24	134.4200530052185	fix_post	2		12	22.0	2.5	/experiments/knapen_AOT/AOT_stimuli/rescaled_final/1226_fw.mp4	0.0	179.83393716812134	0.10001516342163086
25	134.52006816864014	fix_pre	0		119	23.0	2.5	/experiments/knapen_AOT/AOT_stimuli/rescaled_final/1435_fw.mp4	0.0	179.93395233154297	0.9918420314788818
25	135.51191020011902	movie	1		244	23.0	2.5	/experiments/knapen_AOT/AOT_stimuli/rescaled_final/1435_fw.mp4	0.0	180.92579436302185	2.5003468990325928
25	135.8996741771698	pulse	1	t		23.0	2.5	/experiments/knapen_AOT/AOT_stimuli/rescaled_final/1435_fw.mp4	0.0	181.31355834007263	
25	137.4956681728363	pulse	1	t		23.0	2.5	/experiments/knapen_AOT/AOT_stimuli/rescaled_final/1435_fw.mp4	0.0	182.90955233573914	
25	138.0122570991516	fix_post	2		12	23.0	2.5	/experiments/knapen_AOT/AOT_stimuli/rescaled_final/1435_fw.mp4	0.0	183.42614126205444	0.10003089904785156
26	138.11228799819946	fix_pre	0		119	24.0	2.5	/experiments/knapen_AOT/AOT_stimuli/rescaled_final/1071_rv.mp4	0.0	183.5261721611023	0.9918351173400879
26	139.09607410430908	pulse	0	t		24.0	2.5	/experiments/knapen_AOT/AOT_stimuli/rescaled_final/1071_rv.mp4	0.0	184.5099582672119	
26	139.10412311553955	movie	1		244	24.0	2.5	/experiments/knapen_AOT/AOT_stimuli/rescaled_final/1071_rv.mp4	0.0	184.51800727844238	2.508650064468384
26	140.69726419448853	pulse	1	t		24.0	2.5	/experiments/knapen_AOT/AOT_stimuli/rescaled_final/1071_rv.mp4	0.0	186.11114835739136	
26	141.61277318000793	fix_post	2		12	24.0	2.5	/experiments/knapen_AOT/AOT_stimuli/rescaled_final/1071_rv.mp4	0.0	187.02665734291077	0.09999990463256836
27	141.7127730846405	fix_pre	0		120	25.0	2.5	/experiments/knapen_AOT/AOT_stimuli/rescaled_final/0798_fw.mp4	0.0	187.12665724754333	1.0001609325408936
27	142.29644513130188	pulse	0	t		25.0	2.5	/experiments/knapen_AOT/AOT_stimuli/rescaled_final/0798_fw.mp4	0.0	187.7103292942047	
27	142.7129340171814	movie	1		244	25.0	2.5	/experiments/knapen_AOT/AOT_stimuli/rescaled_final/0798_fw.mp4	0.0	188.12681818008423	2.5003790855407715
27	143.896821975708	pulse	1	t		25.0	2.5	/experiments/knapen_AOT/AOT_stimuli/rescaled_final/0798_fw.mp4	0.0	189.31070613861084	
27	145.21331310272217	fix_post	2		12	25.0	2.5	/experiments/knapen_AOT/AOT_stimuli/rescaled_final/0798_fw.mp4	0.0	190.627197265625	0.10006403923034668
28	145.31337714195251	fix_pre	0		120	26.0	2.5	blank	1.0	190.72726130485535	1.0001490116119385
28	145.49698305130005	pulse	0	t		26.0	2.5	blank	1.0	190.91086721420288	
28	146.31352615356445	movie	1		300	26.0	2.5	blank	1.0	191.72741031646729	2.500361919403076
28	147.09722113609314	pulse	1	t		26.0	2.5	blank	1.0	192.51110529899597	
28	148.69736218452454	pulse	1	t		26.0	2.5	blank	1.0	194.11124634742737	
28	148.81388807296753	fix_post	2		12	26.0	2.5	blank	1.0	194.22777223587036	0.100006103515625
29	148.91389417648315	fix_pre	0		120	27.0	2.5	/experiments/knapen_AOT/AOT_stimuli/rescaled_final/0801_fw.mp4	0.0	194.327778339386	1.0002129077911377
29	149.9141070842743	movie	1		243	27.0	2.5	/experiments/knapen_AOT/AOT_stimuli/rescaled_final/0801_fw.mp4	0.0	195.32799124717712	2.492039918899536
29	150.29829096794128	pulse	1	t		27.0	2.5	/experiments/knapen_AOT/AOT_stimuli/rescaled_final/0801_fw.mp4	0.0	195.71217513084412	
29	151.8979721069336	pulse	1	t		27.0	2.5	/experiments/knapen_AOT/AOT_stimuli/rescaled_final/0801_fw.mp4	0.0	197.31185626983643	
29	152.40614700317383	fix_post	2		12	27.0	2.5	/experiments/knapen_AOT/AOT_stimuli/rescaled_final/0801_fw.mp4	0.0	197.82003116607666	0.09996199607849121
30	152.50610899925232	fix_pre	0		120	28.0	2.5	/experiments/knapen_AOT/AOT_stimuli/rescaled_final/0274_rv.mp4	0.0	197.91999316215515	1.0001890659332275
30	153.4982190132141	pulse	0	t		28.0	2.5	/experiments/knapen_AOT/AOT_stimuli/rescaled_final/0274_rv.mp4	0.0	198.91210317611694	
30	153.50629806518555	movie	1		245	28.0	2.5	/experiments/knapen_AOT/AOT_stimuli/rescaled_final/0274_rv.mp4	0.0	198.92018222808838	2.508610963821411
30	155.09891510009766	pulse	1	t		28.0	2.5	/experiments/knapen_AOT/AOT_stimuli/rescaled_final/0274_rv.mp4	0.0	200.5127992630005	
30	156.01490902900696	fix_post	2		12	28.0	2.5	/experiments/knapen_AOT/AOT_stimuli/rescaled_final/0274_rv.mp4	0.0	201.4287931919098	0.1000361442565918
31	156.11494517326355	fix_pre	0		117	29.0	2.5	/experiments/knapen_AOT/AOT_stimuli/rescaled_final/0317_fw.mp4	0.0	201.52882933616638	1.0002570152282715
31	156.69853615760803	pulse	0	t		29.0	2.5	/experiments/knapen_AOT/AOT_stimuli/rescaled_final/0317_fw.mp4	0.0	202.11242032051086	
31	157.11520218849182	movie	1		245	29.0	2.5	/experiments/knapen_AOT/AOT_stimuli/rescaled_final/0317_fw.mp4	0.0	202.52908635139465	2.500304937362671
31	158.2989330291748	pulse	1	t		29.0	2.5	/experiments/knapen_AOT/AOT_stimuli/rescaled_final/0317_fw.mp4	0.0	203.71281719207764	
31	159.6155071258545	fix_post	2		12	29.0	2.5	/experiments/knapen_AOT/AOT_stimuli/rescaled_final/0317_fw.mp4	0.0	205.02939128875732	0.10008907318115234
32	159.71559619903564	fix_pre	0		120	30.0	2.5	/experiments/knapen_AOT/AOT_stimuli/rescaled_final/1368_rv.mp4	0.0	205.12948036193848	1.0000638961791992
32	159.89911818504333	pulse	0	t		30.0	2.5	/experiments/knapen_AOT/AOT_stimuli/rescaled_final/1368_rv.mp4	0.0	205.31300234794617	
32	160.71566009521484	movie	1		243	30.0	2.5	/experiments/knapen_AOT/AOT_stimuli/rescaled_final/1368_rv.mp4	0.0	206.12954425811768	2.500356912612915
32	161.4994421005249	pulse	1	t		30.0	2.5	/experiments/knapen_AOT/AOT_stimuli/rescaled_final/1368_rv.mp4	0.0	206.91332626342773	
32	163.0994701385498	pulse	1	t		30.0	2.5	/experiments/knapen_AOT/AOT_stimuli/rescaled_final/1368_rv.mp4	0.0	208.51335430145264	
32	163.21601700782776	fix_post	2		12	30.0	2.5	/experiments/knapen_AOT/AOT_stimuli/rescaled_final/1368_rv.mp4	0.0	208.6299011707306	0.10005402565002441
33	163.31607103347778	fix_pre	0		119	31.0	2.5	/experiments/knapen_AOT/AOT_stimuli/rescaled_final/1708_fw.mp4	0.0	208.72995519638062	0.9918191432952881
33	164.30789017677307	movie	1		244	31.0	2.5	/experiments/knapen_AOT/AOT_stimuli/rescaled_final/1708_fw.mp4	0.0	209.7217743396759	2.500347852706909
33	164.6998951435089	pulse	1	t		31.0	2.5	/experiments/knapen_AOT/AOT_stimuli/rescaled_final/1708_fw.mp4	0.0	210.11377930641174	
33	166.29997611045837	pulse	1	t		31.0	2.5	/experiments/knapen_AOT/AOT_stimuli/rescaled_final/1708_fw.mp4	0.0	211.7138602733612	
33	166.80823802947998	fix_post	2		12	31.0	2.5	/experiments/knapen_AOT/AOT_stimuli/rescaled_final/1708_fw.mp4	0.0	212.2221221923828	0.09998202323913574
34	166.90822005271912	fix_pre	0		120	32.0	2.5	/experiments/knapen_AOT/AOT_stimuli/rescaled_final/1358_rv.mp4	0.0	212.32210421562195	1.0001940727233887
34	167.90033102035522	pulse	0	t		32.0	2.5	/experiments/knapen_AOT/AOT_stimuli/rescaled_final/1358_rv.mp4	0.0	213.31421518325806	
34	167.9084141254425	movie	1		244	32.0	2.5	/experiments/knapen_AOT/AOT_stimuli/rescaled_final/1358_rv.mp4	0.0	213.32229828834534	2.508759021759033
34	169.50186896324158	pulse	1	t		32.0	2.5	/experiments/knapen_AOT/AOT_stimuli/rescaled_final/1358_rv.mp4	0.0	214.9157531261444	
34	170.41717314720154	fix_post	2		12	32.0	2.5	/experiments/knapen_AOT/AOT_stimuli/rescaled_final/1358_rv.mp4	0.0	215.83105731010437	0.0999000072479248
35	170.51707315444946	fix_pre	0		120	33.0	2.5	/experiments/knapen_AOT/AOT_stimuli/rescaled_final/0079_rv.mp4	0.0	215.9309573173523	1.0001838207244873
35	171.1007490158081	pulse	0	t		33.0	2.5	/experiments/knapen_AOT/AOT_stimuli/rescaled_final/0079_rv.mp4	0.0	216.51463317871094	
35	171.51725697517395	movie	1		244	33.0	2.5	/experiments/knapen_AOT/AOT_stimuli/rescaled_final/0079_rv.mp4	0.0	216.93114113807678	2.5004191398620605
35	172.70107507705688	pulse	1	t		33.0	2.5	/experiments/knapen_AOT/AOT_stimuli/rescaled_final/0079_rv.mp4	0.0	218.11495923995972	
35	174.017676115036	fix_post	2		12	33.0	2.5	/experiments/knapen_AOT/AOT_stimuli/rescaled_final/0079_rv.mp4	0.0	219.43156027793884	0.09996891021728516
36	174.1176450252533	fix_pre	0		120	34.0	2.5	blank	1.0	219.53152918815613	1.0001511573791504
36	174.2936451435089	pulse	0	t		34.0	2.5	blank	1.0	219.70752930641174	
36	175.11779618263245	movie	1		300	34.0	2.5	blank	1.0	220.53168034553528	2.500396966934204
36	175.89391803741455	pulse	1	t		34.0	2.5	blank	1.0	221.30780220031738	
36	177.4941120147705	pulse	1	t		34.0	2.5	blank	1.0	222.90799617767334	
36	177.61819314956665	fix_post	2		12	34.0	2.5	blank	1.0	223.03207731246948	0.09995603561401367
37	177.71814918518066	fix_pre	0		120	35.0	2.5	/experiments/knapen_AOT/AOT_stimuli/rescaled_final/1527_rv.mp4	0.0	223.1320333480835	1.0001919269561768
37	178.71834111213684	movie	1		247	35.0	2.5	/experiments/knapen_AOT/AOT_stimuli/rescaled_final/1527_rv.mp4	0.0	224.13222527503967	2.492002010345459
37	179.09375619888306	pulse	1	t		35.0	2.5	/experiments/knapen_AOT/AOT_stimuli/rescaled_final/1527_rv.mp4	0.0	224.5076403617859	
37	180.6938819885254	pulse	1	t		35.0	2.5	/experiments/knapen_AOT/AOT_stimuli/rescaled_final/1527_rv.mp4	0.0	226.10776615142822	
37	181.2103431224823	fix_post	2		12	35.0	2.5	/experiments/knapen_AOT/AOT_stimuli/rescaled_final/1527_rv.mp4	0.0	226.62422728538513	0.10003495216369629
38	181.310378074646	fix_pre	0		119	36.0	2.5	/experiments/knapen_AOT/AOT_stimuli/rescaled_final/1802_rv.mp4	0.0	226.72426223754883	0.991840124130249
38	182.2941131591797	pulse	0	t		36.0	2.5	/experiments/knapen_AOT/AOT_stimuli/rescaled_final/1802_rv.mp4	0.0	227.70799732208252	
38	182.30221819877625	movie	1		244	36.0	2.5	/experiments/knapen_AOT/AOT_stimuli/rescaled_final/1802_rv.mp4	0.0	227.71610236167908	2.508694887161255
38	183.89563512802124	pulse	1	t		36.0	2.5	/experiments/knapen_AOT/AOT_stimuli/rescaled_final/1802_rv.mp4	0.0	229.30951929092407	
38	184.8109130859375	fix_post	2		12	36.0	2.5	/experiments/knapen_AOT/AOT_stimuli/rescaled_final/1802_rv.mp4	0.0	230.22479724884033	0.10003304481506348
39	184.91094613075256	fix_pre	0		120	37.0	2.5	/experiments/knapen_AOT/AOT_stimuli/rescaled_final/1707_fw.mp4	0.0	230.3248302936554	1.0001449584960938
39	185.49453496932983	pulse	0	t		37.0	2.5	/experiments/knapen_AOT/AOT_stimuli/rescaled_final/1707_fw.mp4	0.0	230.90841913223267	
39	185.91109108924866	movie	1		244	37.0	2.5	/experiments/knapen_AOT/AOT_stimuli/rescaled_final/1707_fw.mp4	0.0	231.3249752521515	2.5003280639648438
39	187.09484815597534	pulse	1	t		37.0	2.5	/experiments/knapen_AOT/AOT_stimuli/rescaled_final/1707_fw.mp4	0.0	232.50873231887817	
39	188.4114191532135	fix_post	2		12	37.0	2.5	/experiments/knapen_AOT/AOT_stimuli/rescaled_final/1707_fw.mp4	0.0	233.82530331611633	0.10004186630249023
40	188.511461019516	fix_pre	0		120	38.0	2.5	/experiments/knapen_AOT/AOT_stimuli/rescaled_final/1741_rv.mp4	0.0	233.92534518241882	1.0001649856567383
40	188.6950581073761	pulse	0	t		38.0	2.5	/experiments/knapen_AOT/AOT_stimuli/rescaled_final/1741_rv.mp4	0.0	234.10894227027893	
40	189.51162600517273	movie	1		243	38.0	2.5	/experiments/knapen_AOT/AOT_stimuli/rescaled_final/1741_rv.mp4	0.0	234.92551016807556	2.500370979309082
40	190.29539918899536	pulse	1	t		38.0	2.5	/experiments/knapen_AOT/AOT_stimuli/rescaled_final/1741_rv.mp4	0.0	235.7092833518982	
40	191.89532208442688	pulse	1	t		38.0	2.5	/experiments/knapen_AOT/AOT_stimuli/rescaled_final/1741_rv.mp4	0.0	237.3092062473297	
40	192.0119969844818	fix_post	2		12	38.0	2.5	/experiments/knapen_AOT/AOT_stimuli/rescaled_final/1741_rv.mp4	0.0	237.42588114738464	0.10003209114074707
41	192.11202907562256	fix_pre	0		120	39.0	2.5	/experiments/knapen_AOT/AOT_stimuli/rescaled_final/0709_fw.mp4	0.0	237.5259132385254	1.0001869201660156
41	193.11221599578857	movie	1		244	39.0	2.5	/experiments/knapen_AOT/AOT_stimuli/rescaled_final/0709_fw.mp4	0.0	238.5261001586914	2.4920191764831543
41	193.49626898765564	pulse	1	t		39.0	2.5	/experiments/knapen_AOT/AOT_stimuli/rescaled_final/0709_fw.mp4	0.0	238.91015315055847	
41	195.09601616859436	pulse	1	t		39.0	2.5	/experiments/knapen_AOT/AOT_stimuli/rescaled_final/0709_fw.mp4	0.0	240.5099003314972	
41	195.60423517227173	fix_post	2		12	39.0	2.5	/experiments/knapen_AOT/AOT_stimuli/rescaled_final/0709_fw.mp4	0.0	241.01811933517456	0.09997200965881348
42	195.70420718193054	fix_pre	0		120	40.0	2.5	blank	1.0	241.11809134483337	1.000147819519043
42	196.69618701934814	pulse	0	t		40.0	2.5	blank	1.0	242.11007118225098	
42	196.70435500144958	movie	1		301	40.0	2.5	blank	1.0	242.11823916435242	2.508733034133911
42	198.29643607139587	pulse	1	t		40.0	2.5	blank	1.0	243.7103202342987	
42	199.2130880355835	fix_post	2		12	40.0	2.5	blank	1.0	244.62697219848633	0.09995412826538086
43	199.31304216384888	fix_pre	0		120	41.0	2.5	/experiments/knapen_AOT/AOT_stimuli/rescaled_final/1454_rv.mp4	0.0	244.7269263267517	1.0001988410949707
43	199.89664101600647	pulse	0	t		41.0	2.5	/experiments/knapen_AOT/AOT_stimuli/rescaled_final/1454_rv.mp4	0.0	245.3105251789093	
43	200.31324100494385	movie	1		245	41.0	2.5	/experiments/knapen_AOT/AOT_stimuli/rescaled_final/1454_rv.mp4	0.0	245.72712516784668	2.50032901763916
43	201.4970211982727	pulse	1	t		41.0	2.5	/experiments/knapen_AOT/AOT_stimuli/rescaled_final/1454_rv.mp4	0.0	246.91090536117554	
43	202.813570022583	fix_post	2		12	41.0	2.5	/experiments/knapen_AOT/AOT_stimuli/rescaled_final/1454_rv.mp4	0.0	248.22745418548584	0.10004305839538574
44	202.9136130809784	fix_pre	0		120	42.0	2.5	/experiments/knapen_AOT/AOT_stimuli/rescaled_final/1219_rv.mp4	0.0	248.32749724388123	1.0001540184020996
44	203.09718203544617	pulse	0	t		42.0	2.5	/experiments/knapen_AOT/AOT_stimuli/rescaled_final/1219_rv.mp4	0.0	248.511066198349	
44	203.9137670993805	movie	1		245	42.0	2.5	/experiments/knapen_AOT/AOT_stimuli/rescaled_final/1219_rv.mp4	0.0	249.32765126228333	2.5003979206085205
44	204.69745111465454	pulse	1	t		42.0	2.5	/experiments/knapen_AOT/AOT_stimuli/rescaled_final/1219_rv.mp4	0.0	250.11133527755737	
44	206.2977111339569	pulse	1	t		42.0	2.5	/experiments/knapen_AOT/AOT_stimuli/rescaled_final/1219_rv.mp4	0.0	251.71159529685974	
44	206.414165019989	fix_post	2		12	42.0	2.5	/experiments/knapen_AOT/AOT_stimuli/rescaled_final/1219_rv.mp4	0.0	251.82804918289185	0.09998798370361328
45	206.51415300369263	fix_pre	0		120	43.0	2.5	/experiments/knapen_AOT/AOT_stimuli/rescaled_final/1535_fw.mp4	0.0	251.92803716659546	1.0001370906829834
45	207.5142900943756	movie	1		242	43.0	2.5	/experiments/knapen_AOT/AOT_stimuli/rescaled_final/1535_fw.mp4	0.0	252.92817425727844	2.4920599460601807
45	207.89835906028748	pulse	1	t		43.0	2.5	/experiments/knapen_AOT/AOT_stimuli/rescaled_final/1535_fw.mp4	0.0	253.3122432231903	
45	209.4983401298523	pulse	1	t		43.0	2.5	/experiments/knapen_AOT/AOT_stimuli/rescaled_final/1535_fw.mp4	0.0	254.91222429275513	
45	210.0063500404358	fix_post	2		12	43.0	2.5	/experiments/knapen_AOT/AOT_stimuli/rescaled_final/1535_fw.mp4	0.0	255.42023420333862	0.09999799728393555
46	210.10634803771973	fix_pre	0		120	44.0	2.5	/experiments/knapen_AOT/AOT_stimuli/rescaled_final/0801_rv.mp4	0.0	255.52023220062256	1.0001530647277832
46	211.09833908081055	pulse	0	t		44.0	2.5	/experiments/knapen_AOT/AOT_stimuli/rescaled_final/0801_rv.mp4	0.0	256.5122232437134	
46	211.1065011024475	movie	1		245	44.0	2.5	/experiments/knapen_AOT/AOT_stimuli/rescaled_final/0801_rv.mp4	0.0	256.52038526535034	2.5087568759918213
46	212.7035620212555	pulse	1	t		44.0	2.5	/experiments/knapen_AOT/AOT_stimuli/rescaled_final/0801_rv.mp4	0.0	258.1174461841583	
46	213.61525797843933	fix_post	2		12	44.0	2.5	/experiments/knapen_AOT/AOT_stimuli/rescaled_final/0801_rv.mp4	0.0	259.02914214134216	0.1000070571899414
47	213.71526503562927	fix_pre	0		120	45.0	2.5	/experiments/knapen_AOT/AOT_stimuli/rescaled_final/1368_fw.mp4	0.0	259.1291491985321	1.000169038772583
47	214.29892706871033	pulse	0	t		45.0	2.5	/experiments/knapen_AOT/AOT_stimuli/rescaled_final/1368_fw.mp4	0.0	259.71281123161316	
47	214.71543407440186	movie	1		243	45.0	2.5	/experiments/knapen_AOT/AOT_stimuli/rescaled_final/1368_fw.mp4	0.0	260.1293182373047	2.5002849102020264
47	215.89929699897766	pulse	1	t		45.0	2.5	/experiments/knapen_AOT/AOT_stimuli/rescaled_final/1368_fw.mp4	0.0	261.3131811618805	
47	217.21571898460388	fix_post	2		12	45.0	2.5	/experiments/knapen_AOT/AOT_stimuli/rescaled_final/1368_fw.mp4	0.0	262.6296031475067	0.10002303123474121
48	217.31574201583862	fix_pre	0		120	46.0	2.5	/experiments/knapen_AOT/AOT_stimuli/rescaled_final/1330_fw.mp4	0.0	262.72962617874146	1.0001661777496338
48	217.49940705299377	pulse	0	t		46.0	2.5	/experiments/knapen_AOT/AOT_stimuli/rescaled_final/1330_fw.mp4	0.0	262.9132912158966	
48	218.31590819358826	movie	1		241	46.0	2.5	/experiments/knapen_AOT/AOT_stimuli/rescaled_final/1330_fw.mp4	0.0	263.7297923564911	2.5003879070281982
48	219.09952306747437	pulse	1	t		46.0	2.5	/experiments/knapen_AOT/AOT_stimuli/rescaled_final/1330_fw.mp4	0.0	264.5134072303772	
48	220.69978713989258	pulse	1	t		46.0	2.5	/experiments/knapen_AOT/AOT_stimuli/rescaled_final/1330_fw.mp4	0.0	266.1136713027954	
48	220.81629610061646	fix_post	2		12	46.0	2.5	/experiments/knapen_AOT/AOT_stimuli/rescaled_final/1330_fw.mp4	0.0	266.2301802635193	0.10002493858337402
49	220.91632103919983	fix_pre	0		119	47.0	2.5	blank	1.0	266.33020520210266	0.9918830394744873
49	221.90820407867432	movie	1		300	47.0	2.5	blank	1.0	267.32208824157715	2.500324010848999
49	222.30018615722656	pulse	1	t		47.0	2.5	blank	1.0	267.7140703201294	
49	223.90034413337708	pulse	1	t		47.0	2.5	blank	1.0	269.3142282962799	
49	224.40852808952332	fix_post	2		12	47.0	2.5	blank	1.0	269.82241225242615	0.09998607635498047
50	224.5085141658783	fix_pre	0		120	48.0	2.5	/experiments/knapen_AOT/AOT_stimuli/rescaled_final/0304_rv.mp4	0.0	269.9223983287811	1.0001628398895264
50	225.50049901008606	pulse	0	t		48.0	2.5	/experiments/knapen_AOT/AOT_stimuli/rescaled_final/0304_rv.mp4	0.0	270.9143831729889	
50	225.50867700576782	movie	1		245	48.0	2.5	/experiments/knapen_AOT/AOT_stimuli/rescaled_final/0304_rv.mp4	0.0	270.92256116867065	2.5086541175842285
50	227.10261297225952	pulse	1	t		48.0	2.5	/experiments/knapen_AOT/AOT_stimuli/rescaled_final/0304_rv.mp4	0.0	272.51649713516235	
50	228.01733112335205	fix_post	2		12	48.0	2.5	/experiments/knapen_AOT/AOT_stimuli/rescaled_final/0304_rv.mp4	0.0	273.4312152862549	0.10004687309265137
51	228.1173779964447	fix_pre	0		120	49.0	2.5	/experiments/knapen_AOT/AOT_stimuli/rescaled_final/0274_fw.mp4	0.0	273.53126215934753	1.0001640319824219
51	228.7009720802307	pulse	0	t		49.0	2.5	/experiments/knapen_AOT/AOT_stimuli/rescaled_final/0274_fw.mp4	0.0	274.11485624313354	
51	229.11754202842712	movie	1		244	49.0	2.5	/experiments/knapen_AOT/AOT_stimuli/rescaled_final/0274_fw.mp4	0.0	274.53142619132996	2.500394105911255
51	230.3014280796051	pulse	1	t		49.0	2.5	/experiments/knapen_AOT/AOT_stimuli/rescaled_final/0274_fw.mp4	0.0	275.71531224250793	
51	231.61793613433838	fix_post	2		12	49.0	2.5	/experiments/knapen_AOT/AOT_stimuli/rescaled_final/0274_fw.mp4	0.0	277.0318202972412	0.09996795654296875
52	231.71790409088135	fix_pre	0		120	50.0	2.5	/experiments/knapen_AOT/AOT_stimuli/rescaled_final/1894_fw.mp4	0.0	277.1317882537842	1.000209093093872
52	231.90150117874146	pulse	0	t		50.0	2.5	/experiments/knapen_AOT/AOT_stimuli/rescaled_final/1894_fw.mp4	0.0	277.3153853416443	
52	232.71811318397522	movie	1		244	50.0	2.5	/experiments/knapen_AOT/AOT_stimuli/rescaled_final/1894_fw.mp4	0.0	278.13199734687805	2.5002899169921875
52	233.49431109428406	pulse	1	t		50.0	2.5	/experiments/knapen_AOT/AOT_stimuli/rescaled_final/1894_fw.mp4	0.0	278.9081952571869	
52	235.10178804397583	pulse	1	t		50.0	2.5	/experiments/knapen_AOT/AOT_stimuli/rescaled_final/1894_fw.mp4	0.0	280.51567220687866	
52	235.2184031009674	fix_post	2		12	50.0	2.5	/experiments/knapen_AOT/AOT_stimuli/rescaled_final/1894_fw.mp4	0.0	280.63228726387024	0.10001492500305176
53	235.31841802597046	fix_pre	0		119	51.0	2.5	/experiments/knapen_AOT/AOT_stimuli/rescaled_final/1621_fw.mp4	0.0	280.7323021888733	0.991826057434082
53	236.31024408340454	movie	1		243	51.0	2.5	/experiments/knapen_AOT/AOT_stimuli/rescaled_final/1621_fw.mp4	0.0	281.7241282463074	2.5004160404205322
53	236.69428896903992	pulse	1	t		51.0	2.5	/experiments/knapen_AOT/AOT_stimuli/rescaled_final/1621_fw.mp4	0.0	282.10817313194275	
53	238.2950520515442	pulse	1	t		51.0	2.5	/experiments/knapen_AOT/AOT_stimuli/rescaled_final/1621_fw.mp4	0.0	283.708936214447	
53	238.81066012382507	fix_post	2		12	51.0	2.5	/experiments/knapen_AOT/AOT_stimuli/rescaled_final/1621_fw.mp4	0.0	284.2245442867279	0.1000359058380127
54	238.9106960296631	fix_pre	0		120	52.0	2.5	/experiments/knapen_AOT/AOT_stimuli/rescaled_final/0803_fw.mp4	0.0	284.3245801925659	1.0001671314239502
54	239.89506006240845	pulse	0	t		52.0	2.5	/experiments/knapen_AOT/AOT_stimuli/rescaled_final/0803_fw.mp4	0.0	285.3089442253113	
54	239.91086316108704	movie	1		244	52.0	2.5	/experiments/knapen_AOT/AOT_stimuli/rescaled_final/0803_fw.mp4	0.0	285.32474732398987	2.50862193107605
54	241.49454498291016	pulse	1	t		52.0	2.5	/experiments/knapen_AOT/AOT_stimuli/rescaled_final/0803_fw.mp4	0.0	286.908429145813	
54	242.4194850921631	fix_post	2		12	52.0	2.5	/experiments/knapen_AOT/AOT_stimuli/rescaled_final/0803_fw.mp4	0.0	287.8333692550659	0.10004997253417969
55	242.51953506469727	fix_pre	0		120	53.0	2.5	/experiments/knapen_AOT/AOT_stimuli/rescaled_final/1401_rv.mp4	0.0	287.9334192276001	1.0001718997955322
55	243.0949511528015	pulse	0	t		53.0	2.5	/experiments/knapen_AOT/AOT_stimuli/rescaled_final/1401_rv.mp4	0.0	288.50883531570435	
55	243.5197069644928	movie	1		243	53.0	2.5	/experiments/knapen_AOT/AOT_stimuli/rescaled_final/1401_rv.mp4	0.0	288.93359112739563	2.500322103500366
55	244.69607400894165	pulse	1	t		53.0	2.5	/experiments/knapen_AOT/AOT_stimuli/rescaled_final/1401_rv.mp4	0.0	290.1099581718445	
55	246.02002906799316	fix_post	2		12	53.0	2.5	/experiments/knapen_AOT/AOT_stimuli/rescaled_final/1401_rv.mp4	0.0	291.433913230896	0.10004305839538574
56	246.12007212638855	fix_pre	0		120	54.0	2.5	/experiments/knapen_AOT/AOT_stimuli/rescaled_final/0876_fw.mp4	0.0	291.5339562892914	1.0001239776611328
56	246.29542112350464	pulse	0	t		54.0	2.5	/experiments/knapen_AOT/AOT_stimuli/rescaled_final/0876_fw.mp4	0.0	291.70930528640747	
56	247.12019610404968	movie	1		243	54.0	2.5	/experiments/knapen_AOT/AOT_stimuli/rescaled_final/0876_fw.mp4	0.0	292.5340802669525	2.5003929138183594
56	247.8955261707306	pulse	1	t		54.0	2.5	/experiments/knapen_AOT/AOT_stimuli/rescaled_final/0876_fw.mp4	0.0	293.3094103336334	
56	249.4957480430603	pulse	1	t		54.0	2.5	/experiments/knapen_AOT/AOT_stimuli/rescaled_final/0876_fw.mp4	0.0	294.90963220596313	
56	249.62058901786804	fix_post	2		12	54.0	2.5	/experiments/knapen_AOT/AOT_stimuli/rescaled_final/0876_fw.mp4	0.0	295.0344731807709	0.10010504722595215
57	249.720694065094	fix_pre	0		119	55.0	2.5	blank	1.0	295.1345782279968	0.9917399883270264
57	250.71243405342102	movie	1		300	55.0	2.5	blank	1.0	296.12631821632385	2.500375986099243
57	251.09604597091675	pulse	1	t		55.0	2.5	blank	1.0	296.5099301338196	
57	252.69630098342896	pulse	1	t		55.0	2.5	blank	1.0	298.1101851463318	
57	253.21281003952026	fix_post	2		12	55.0	2.5	blank	1.0	298.6266942024231	0.10000395774841309
58	253.31281399726868	fix_pre	0		119	56.0	2.5	/experiments/knapen_AOT/AOT_stimuli/rescaled_final/0053_fw.mp4	0.0	298.7266981601715	0.9918041229248047
58	254.2965211868286	pulse	0	t		56.0	2.5	/experiments/knapen_AOT/AOT_stimuli/rescaled_final/0053_fw.mp4	0.0	299.71040534973145	
58	254.30461812019348	movie	1		246	56.0	2.5	/experiments/knapen_AOT/AOT_stimuli/rescaled_final/0053_fw.mp4	0.0	299.7185022830963	2.508765935897827
58	255.8973400592804	pulse	1	t		56.0	2.5	/experiments/knapen_AOT/AOT_stimuli/rescaled_final/0053_fw.mp4	0.0	301.3112242221832	
58	256.8133840560913	fix_post	2		12	56.0	2.5	/experiments/knapen_AOT/AOT_stimuli/rescaled_final/0053_fw.mp4	0.0	302.22726821899414	0.09997010231018066
59	256.9133541584015	fix_pre	0		120	57.0	2.5	/experiments/knapen_AOT/AOT_stimuli/rescaled_final/0619_rv.mp4	0.0	302.3272383213043	1.0001599788665771
59	257.49700713157654	pulse	0	t		57.0	2.5	/experiments/knapen_AOT/AOT_stimuli/rescaled_final/0619_rv.mp4	0.0	302.91089129447937	
59	257.91351413726807	movie	1		244	57.0	2.5	/experiments/knapen_AOT/AOT_stimuli/rescaled_final/0619_rv.mp4	0.0	303.3273983001709	2.5003788471221924
59	259.0973901748657	pulse	1	t		57.0	2.5	/experiments/knapen_AOT/AOT_stimuli/rescaled_final/0619_rv.mp4	0.0	304.51127433776855	
59	260.41389298439026	fix_post	2		12	57.0	2.5	/experiments/knapen_AOT/AOT_stimuli/rescaled_final/0619_rv.mp4	0.0	305.8277771472931	0.10001111030578613
60	260.51390409469604	fix_pre	0		120	58.0	2.5	/experiments/knapen_AOT/AOT_stimuli/rescaled_final/1597_rv.mp4	0.0	305.9277882575989	1.000180959701538
60	260.6974711418152	pulse	0	t		58.0	2.5	/experiments/knapen_AOT/AOT_stimuli/rescaled_final/1597_rv.mp4	0.0	306.111355304718	
60	261.5140850543976	movie	1		243	58.0	2.5	/experiments/knapen_AOT/AOT_stimuli/rescaled_final/1597_rv.mp4	0.0	306.9279692173004	2.5003440380096436
60	262.29765701293945	pulse	1	t		58.0	2.5	/experiments/knapen_AOT/AOT_stimuli/rescaled_final/1597_rv.mp4	0.0	307.7115411758423	
60	263.89775800704956	pulse	1	t		58.0	2.5	/experiments/knapen_AOT/AOT_stimuli/rescaled_final/1597_rv.mp4	0.0	309.3116421699524	
60	264.0144290924072	fix_post	2		12	58.0	2.5	/experiments/knapen_AOT/AOT_stimuli/rescaled_final/1597_rv.mp4	0.0	309.42831325531006	0.1000208854675293
61	264.11444997787476	fix_pre	0		120	59.0	2.5	/experiments/knapen_AOT/AOT_stimuli/rescaled_final/1852_rv.mp4	0.0	309.5283341407776	1.0001561641693115
61	265.11460614204407	movie	1		243	59.0	2.5	/experiments/knapen_AOT/AOT_stimuli/rescaled_final/1852_rv.mp4	0.0	310.5284903049469	2.4920079708099365
61	265.49866008758545	pulse	1	t		59.0	2.5	/experiments/knapen_AOT/AOT_stimuli/rescaled_final/1852_rv.mp4	0.0	310.9125442504883	
61	267.0984389781952	pulse	1	t		59.0	2.5	/experiments/knapen_AOT/AOT_stimuli/rescaled_final/1852_rv.mp4	0.0	312.512323141098	
61	267.606614112854	fix_post	2		12	59.0	2.5	/experiments/knapen_AOT/AOT_stimuli/rescaled_final/1852_rv.mp4	0.0	313.02049827575684	0.10001397132873535
62	267.70662808418274	fix_pre	0		120	60.0	2.5	/experiments/knapen_AOT/AOT_stimuli/rescaled_final/0254_rv.mp4	0.0	313.12051224708557	1.0001459121704102
62	268.6986951828003	pulse	0	t		60.0	2.5	/experiments/knapen_AOT/AOT_stimuli/rescaled_final/0254_rv.mp4	0.0	314.1125793457031	
62	268.70677399635315	movie	1		246	60.0	2.5	/experiments/knapen_AOT/AOT_stimuli/rescaled_final/0254_rv.mp4	0.0	314.120658159256	2.508716106414795
62	270.30003809928894	pulse	1	t		60.0	2.5	/experiments/knapen_AOT/AOT_stimuli/rescaled_final/0254_rv.mp4	0.0	315.7139222621918	
62	271.21549010276794	fix_post	2		12	60.0	2.5	/experiments/knapen_AOT/AOT_stimuli/rescaled_final/0254_rv.mp4	0.0	316.6293742656708	0.10005998611450195
63	271.31555008888245	fix_pre	0		120	61.0	2.5	/experiments/knapen_AOT/AOT_stimuli/rescaled_final/1737_fw.mp4	0.0	316.7294342517853	1.0001070499420166
63	271.89918398857117	pulse	0	t		61.0	2.5	/experiments/knapen_AOT/AOT_stimuli/rescaled_final/1737_fw.mp4	0.0	317.313068151474	
63	272.31565713882446	movie	1		243	61.0	2.5	/experiments/knapen_AOT/AOT_stimuli/rescaled_final/1737_fw.mp4	0.0	317.7295413017273	2.500372886657715
63	273.4995400905609	pulse	1	t		61.0	2.5	/experiments/knapen_AOT/AOT_stimuli/rescaled_final/1737_fw.mp4	0.0	318.91342425346375	
63	274.8160300254822	fix_post	2		12	61.0	2.5	/experiments/knapen_AOT/AOT_stimuli/rescaled_final/1737_fw.mp4	0.0	320.229914188385	0.09997916221618652
64	274.91600918769836	fix_pre	0		120	62.0	2.5	blank	1.0	320.3298933506012	1.0001587867736816
64	275.09956908226013	pulse	0	t		62.0	2.5	blank	1.0	320.51345324516296	
64	275.91616797447205	movie	1		300	62.0	2.5	blank	1.0	321.3300521373749	2.5004491806030273
64	276.6998841762543	pulse	1	t		62.0	2.5	blank	1.0	322.1137683391571	
64	278.30008816719055	pulse	1	t		62.0	2.5	blank	1.0	323.7139723300934	
64	278.4166171550751	fix_post	2		12	62.0	2.5	blank	1.0	323.8305013179779	0.09998297691345215
65	278.5166001319885	fix_pre	0		120	63.0	2.5	/experiments/knapen_AOT/AOT_stimuli/rescaled_final/1159_fw.mp4	0.0	323.93048429489136	1.000121831893921
65	279.51672196388245	movie	1		244	63.0	2.5	/experiments/knapen_AOT/AOT_stimuli/rescaled_final/1159_fw.mp4	0.0	324.9306061267853	2.4920310974121094
65	279.9007661342621	pulse	1	t		63.0	2.5	/experiments/knapen_AOT/AOT_stimuli/rescaled_final/1159_fw.mp4	0.0	325.3146502971649	
65	281.500559091568	pulse	1	t		63.0	2.5	/experiments/knapen_AOT/AOT_stimuli/rescaled_final/1159_fw.mp4	0.0	326.9144432544708	
65	282.00875306129456	fix_post	2		9	63.0	2.5	/experiments/knapen_AOT/AOT_stimuli/rescaled_final/1159_fw.mp4	0.0	327.4226372241974	0.10004210472106934
66	282.1087951660156	fix_pre	0		120	64.0	2.5	/experiments/knapen_AOT/AOT_stimuli/rescaled_final/0010_rv.mp4	0.0	327.52267932891846	1.000128984451294
66	283.1008801460266	pulse	0	t		64.0	2.5	/experiments/knapen_AOT/AOT_stimuli/rescaled_final/0010_rv.mp4	0.0	328.51476430892944	
66	283.1089241504669	movie	1		245	64.0	2.5	/experiments/knapen_AOT/AOT_stimuli/rescaled_final/0010_rv.mp4	0.0	328.52280831336975	2.5087430477142334
66	284.7057809829712	pulse	1	t		64.0	2.5	/experiments/knapen_AOT/AOT_stimuli/rescaled_final/0010_rv.mp4	0.0	330.119665145874	
66	285.61766719818115	fix_post	2		12	64.0	2.5	/experiments/knapen_AOT/AOT_stimuli/rescaled_final/0010_rv.mp4	0.0	331.031551361084	0.09999489784240723
67	285.71766209602356	fix_pre	0		120	65.0	2.5	/experiments/knapen_AOT/AOT_stimuli/rescaled_final/0276_rv.mp4	0.0	331.1315462589264	1.0001349449157715
67	286.29391717910767	pulse	0	t		65.0	2.5	/experiments/knapen_AOT/AOT_stimuli/rescaled_final/0276_rv.mp4	0.0	331.7078013420105	
67	286.71779704093933	movie	1		244	65.0	2.5	/experiments/knapen_AOT/AOT_stimuli/rescaled_final/0276_rv.mp4	0.0	332.13168120384216	2.5003719329833984
67	287.89805817604065	pulse	1	t		65.0	2.5	/experiments/knapen_AOT/AOT_stimuli/rescaled_final/0276_rv.mp4	0.0	333.3119423389435	
67	289.21816897392273	fix_post	2		12	65.0	2.5	/experiments/knapen_AOT/AOT_stimuli/rescaled_final/0276_rv.mp4	0.0	334.63205313682556	0.10002017021179199
68	289.3181891441345	fix_pre	0		120	66.0	2.5	/experiments/knapen_AOT/AOT_stimuli/rescaled_final/0064_fw.mp4	0.0	334.73207330703735	1.0001699924468994
68	289.49425196647644	pulse	0	t		66.0	2.5	/experiments/knapen_AOT/AOT_stimuli/rescaled_final/0064_fw.mp4	0.0	334.9081361293793	
68	290.3183591365814	movie	1		251	66.0	2.5	/experiments/knapen_AOT/AOT_stimuli/rescaled_final/0064_fw.mp4	0.0	335.73224329948425	2.5003838539123535
68	291.0945391654968	pulse	1	t		66.0	2.5	/experiments/knapen_AOT/AOT_stimuli/rescaled_final/0064_fw.mp4	0.0	336.50842332839966	
68	292.6946589946747	pulse	1	t		66.0	2.5	/experiments/knapen_AOT/AOT_stimuli/rescaled_final/0064_fw.mp4	0.0	338.1085431575775	
68	292.8187429904938	fix_post	2		12	66.0	2.5	/experiments/knapen_AOT/AOT_stimuli/rescaled_final/0064_fw.mp4	0.0	338.2326271533966	0.09996819496154785
69	292.9187111854553	fix_pre	0		120	67.0	2.5	/experiments/knapen_AOT/AOT_stimuli/rescaled_final/0476_fw.mp4	0.0	338.33259534835815	1.0001788139343262
69	293.91888999938965	movie	1		246	67.0	2.5	/experiments/knapen_AOT/AOT_stimuli/rescaled_final/0476_fw.mp4	0.0	339.3327741622925	2.4919960498809814
69	294.29413318634033	pulse	1	t		67.0	2.5	/experiments/knapen_AOT/AOT_stimuli/rescaled_final/0476_fw.mp4	0.0	339.70801734924316	
69	295.89439511299133	pulse	1	t		67.0	2.5	/experiments/knapen_AOT/AOT_stimuli/rescaled_final/0476_fw.mp4	0.0	341.30827927589417	
69	296.41088604927063	fix_post	2		12	67.0	2.5	/experiments/knapen_AOT/AOT_stimuli/rescaled_final/0476_fw.mp4	0.0	341.82477021217346	0.10003995895385742
70	296.5109260082245	fix_pre	0		119	68.0	2.5	/experiments/knapen_AOT/AOT_stimuli/rescaled_final/1699_fw.mp4	0.0	341.9248101711273	0.9918570518493652
70	297.49458718299866	pulse	0	t		68.0	2.5	/experiments/knapen_AOT/AOT_stimuli/rescaled_final/1699_fw.mp4	0.0	342.9084713459015	
70	297.50278306007385	movie	1		248	68.0	2.5	/experiments/knapen_AOT/AOT_stimuli/rescaled_final/1699_fw.mp4	0.0	342.9166672229767	2.5086770057678223
70	299.0953221321106	pulse	1	t		68.0	2.5	/experiments/knapen_AOT/AOT_stimuli/rescaled_final/1699_fw.mp4	0.0	344.5092062950134	
70	300.0114600658417	fix_post	2		12	68.0	2.5	/experiments/knapen_AOT/AOT_stimuli/rescaled_final/1699_fw.mp4	0.0	345.4253442287445	0.09997200965881348
71	300.1114320755005	fix_pre	0		120	69.0	2.5	/experiments/knapen_AOT/AOT_stimuli/rescaled_final/0305_rv.mp4	0.0	345.5253162384033	1.0001389980316162
71	300.695188999176	pulse	0	t		69.0	2.5	/experiments/knapen_AOT/AOT_stimuli/rescaled_final/0305_rv.mp4	0.0	346.10907316207886	
71	301.1115710735321	movie	1		246	69.0	2.5	/experiments/knapen_AOT/AOT_stimuli/rescaled_final/0305_rv.mp4	0.0	346.52545523643494	2.5004990100860596
71	302.29538798332214	pulse	1	t		69.0	2.5	/experiments/knapen_AOT/AOT_stimuli/rescaled_final/0305_rv.mp4	0.0	347.709272146225	
71	303.61207008361816	fix_post	2		12	69.0	2.5	/experiments/knapen_AOT/AOT_stimuli/rescaled_final/0305_rv.mp4	0.0	349.025954246521	0.0999751091003418
72	303.7120451927185	fix_pre	0		120	70.0	2.5	blank	1.0	349.12592935562134	1.000108003616333
72	303.8955030441284	pulse	0	t		70.0	2.5	blank	1.0	349.30938720703125	
72	304.71215319633484	movie	1		300	70.0	2.5	blank	1.0	350.12603735923767	2.5003957748413086
72	305.4958391189575	pulse	1	t		70.0	2.5	blank	1.0	350.90972328186035	
72	307.09607100486755	pulse	1	t		70.0	2.5	blank	1.0	352.5099551677704	
72	307.21254897117615	fix_post	2		12	70.0	2.5	blank	1.0	352.626433134079	0.09998917579650879
73	307.31253814697266	fix_pre	0		119	71.0	2.5	/experiments/knapen_AOT/AOT_stimuli/rescaled_final/1113_rv.mp4	0.0	352.7264223098755	0.9917800426483154
73	308.304318189621	movie	1		246	71.0	2.5	/experiments/knapen_AOT/AOT_stimuli/rescaled_final/1113_rv.mp4	0.0	353.7182023525238	2.5003838539123535
73	308.69635701179504	pulse	1	t		71.0	2.5	/experiments/knapen_AOT/AOT_stimuli/rescaled_final/1113_rv.mp4	0.0	354.1102411746979	
73	310.2965111732483	pulse	1	t		71.0	2.5	/experiments/knapen_AOT/AOT_stimuli/rescaled_final/1113_rv.mp4	0.0	355.7103953361511	
73	310.8047020435333	fix_post	2		12	71.0	2.5	/experiments/knapen_AOT/AOT_stimuli/rescaled_final/1113_rv.mp4	0.0	356.21858620643616	0.10002708435058594
74	310.9047291278839	fix_pre	0		120	72.0	2.5	/experiments/knapen_AOT/AOT_stimuli/rescaled_final/0279_fw.mp4	0.0	356.31861329078674	1.0001678466796875
74	311.8967800140381	pulse	0	t		72.0	2.5	/experiments/knapen_AOT/AOT_stimuli/rescaled_final/0279_fw.mp4	0.0	357.3106641769409	
74	311.9048969745636	movie	1		245	72.0	2.5	/experiments/knapen_AOT/AOT_stimuli/rescaled_final/0279_fw.mp4	0.0	357.31878113746643	2.508716106414795
74	313.49727511405945	pulse	1	t		72.0	2.5	/experiments/knapen_AOT/AOT_stimuli/rescaled_final/0279_fw.mp4	0.0	358.9111592769623	
74	314.4136130809784	fix_post	2		12	72.0	2.5	/experiments/knapen_AOT/AOT_stimuli/rescaled_final/0279_fw.mp4	0.0	359.8274972438812	0.10000205039978027
75	314.5136151313782	fix_pre	0		120	73.0	2.5	/experiments/knapen_AOT/AOT_stimuli/rescaled_final/1520_rv.mp4	0.0	359.927499294281	1.0001769065856934
75	315.0972921848297	pulse	0	t		73.0	2.5	/experiments/knapen_AOT/AOT_stimuli/rescaled_final/1520_rv.mp4	0.0	360.51117634773254	
75	315.51379203796387	movie	1		245	73.0	2.5	/experiments/knapen_AOT/AOT_stimuli/rescaled_final/1520_rv.mp4	0.0	360.9276762008667	2.5004451274871826
75	316.69758105278015	pulse	1	t		73.0	2.5	/experiments/knapen_AOT/AOT_stimuli/rescaled_final/1520_rv.mp4	0.0	362.111465215683	
75	318.01423716545105	fix_post	2		12	73.0	2.5	/experiments/knapen_AOT/AOT_stimuli/rescaled_final/1520_rv.mp4	0.0	363.4281213283539	0.09992790222167969
76	318.11416506767273	fix_pre	0		120	74.0	2.5	/experiments/knapen_AOT/AOT_stimuli/rescaled_final/1707_rv.mp4	0.0	363.52804923057556	1.0001649856567383
76	318.29777002334595	pulse	0	t		74.0	2.5	/experiments/knapen_AOT/AOT_stimuli/rescaled_final/1707_rv.mp4	0.0	363.7116541862488	
76	319.11433005332947	movie	1		244	74.0	2.5	/experiments/knapen_AOT/AOT_stimuli/rescaled_final/1707_rv.mp4	0.0	364.5282142162323	2.500359058380127
76	319.8980619907379	pulse	1	t		74.0	2.5	/experiments/knapen_AOT/AOT_stimuli/rescaled_final/1707_rv.mp4	0.0	365.31194615364075	
76	321.498172044754	pulse	1	t		74.0	2.5	/experiments/knapen_AOT/AOT_stimuli/rescaled_final/1707_rv.mp4	0.0	366.91205620765686	
76	321.6146891117096	fix_post	2		12	74.0	2.5	/experiments/knapen_AOT/AOT_stimuli/rescaled_final/1707_rv.mp4	0.0	367.0285732746124	0.09999799728393555
77	321.71468710899353	fix_pre	0		120	75.0	2.5	/experiments/knapen_AOT/AOT_stimuli/rescaled_final/0798_rv.mp4	0.0	367.12857127189636	1.0001170635223389
77	322.71480417251587	movie	1		244	75.0	2.5	/experiments/knapen_AOT/AOT_stimuli/rescaled_final/0798_rv.mp4	0.0	368.1286883354187	2.4921000003814697
77	323.0989851951599	pulse	1	t		75.0	2.5	/experiments/knapen_AOT/AOT_stimuli/rescaled_final/0798_rv.mp4	0.0	368.51286935806274	
77	324.69861602783203	pulse	1	t		75.0	2.5	/experiments/knapen_AOT/AOT_stimuli/rescaled_final/0798_rv.mp4	0.0	370.11250019073486	
77	325.20690417289734	fix_post	2		12	75.0	2.5	/experiments/knapen_AOT/AOT_stimuli/rescaled_final/0798_rv.mp4	0.0	370.62078833580017	0.09996700286865234
78	325.306871175766	fix_pre	0		120	76.0	2.5	blank	1.0	370.7207553386688	1.0002079010009766
78	326.29895997047424	pulse	0	t		76.0	2.5	blank	1.0	371.7128441333771	
78	326.30707907676697	movie	1		301	76.0	2.5	blank	1.0	371.7209632396698	2.508697032928467
78	327.89920806884766	pulse	1	t		76.0	2.5	blank	1.0	373.3130922317505	
78	328.81577610969543	fix_post	2		12	76.0	2.5	blank	1.0	374.22966027259827	0.10008001327514648
79	328.9158561229706	fix_pre	0		120	77.0	2.5	/experiments/knapen_AOT/AOT_stimuli/rescaled_final/1777_rv.mp4	0.0	374.3297402858734	1.0000689029693604
79	329.49946808815	pulse	0	t		77.0	2.5	/experiments/knapen_AOT/AOT_stimuli/rescaled_final/1777_rv.mp4	0.0	374.91335225105286	
79	329.91592502593994	movie	1		245	77.0	2.5	/experiments/knapen_AOT/AOT_stimuli/rescaled_final/1777_rv.mp4	0.0	375.3298091888428	2.500391960144043
79	331.099662065506	pulse	1	t		77.0	2.5	/experiments/knapen_AOT/AOT_stimuli/rescaled_final/1777_rv.mp4	0.0	376.5135462284088	
79	332.416316986084	fix_post	2		12	77.0	2.5	/experiments/knapen_AOT/AOT_stimuli/rescaled_final/1777_rv.mp4	0.0	377.8302011489868	0.09998512268066406
80	332.51630210876465	fix_pre	0		120	78.0	2.5	/experiments/knapen_AOT/AOT_stimuli/rescaled_final/1649_fw.mp4	0.0	377.9301862716675	1.00016188621521
80	332.6998951435089	pulse	0	t		78.0	2.5	/experiments/knapen_AOT/AOT_stimuli/rescaled_final/1649_fw.mp4	0.0	378.11377930641174	
80	333.51646399497986	movie	1		245	78.0	2.5	/experiments/knapen_AOT/AOT_stimuli/rescaled_final/1649_fw.mp4	0.0	378.9303481578827	2.5003840923309326
80	334.3002300262451	pulse	1	t		78.0	2.5	/experiments/knapen_AOT/AOT_stimuli/rescaled_final/1649_fw.mp4	0.0	379.71411418914795	
80	335.89787101745605	pulse	1	t		78.0	2.5	/experiments/knapen_AOT/AOT_stimuli/rescaled_final/1649_fw.mp4	0.0	381.3117551803589	
80	336.0168480873108	fix_post	2		12	78.0	2.5	/experiments/knapen_AOT/AOT_stimuli/rescaled_final/1649_fw.mp4	0.0	381.4307322502136	0.09998703002929688
81	336.1168351173401	fix_pre	0		120	79.0	2.5	/experiments/knapen_AOT/AOT_stimuli/rescaled_final/2062_fw.mp4	0.0	381.5307192802429	1.0001459121704102
81	337.1169810295105	movie	1		244	79.0	2.5	/experiments/knapen_AOT/AOT_stimuli/rescaled_final/2062_fw.mp4	0.0	382.53086519241333	2.492043972015381
81	337.5009460449219	pulse	1	t		79.0	2.5	/experiments/knapen_AOT/AOT_stimuli/rescaled_final/2062_fw.mp4	0.0	382.9148302078247	
81	339.093554019928	pulse	1	t		79.0	2.5	/experiments/knapen_AOT/AOT_stimuli/rescaled_final/2062_fw.mp4	0.0	384.5074381828308	
81	339.6090250015259	fix_post	2		12	79.0	2.5	/experiments/knapen_AOT/AOT_stimuli/rescaled_final/2062_fw.mp4	0.0	385.0229091644287	0.10001206398010254
82	339.709037065506	fix_pre	0		120	80.0	2.5	/experiments/knapen_AOT/AOT_stimuli/rescaled_final/0241_fw.mp4	0.0	385.1229212284088	1.0001981258392334
82	340.6935420036316	pulse	0	t		80.0	2.5	/experiments/knapen_AOT/AOT_stimuli/rescaled_final/0241_fw.mp4	0.0	386.1074261665344	
82	340.7092351913452	movie	1		246	80.0	2.5	/experiments/knapen_AOT/AOT_stimuli/rescaled_final/0241_fw.mp4	0.0	386.12311935424805	2.508870840072632
82	342.3018431663513	pulse	1	t		80.0	2.5	/experiments/knapen_AOT/AOT_stimuli/rescaled_final/0241_fw.mp4	0.0	387.71572732925415	
82	343.21810603141785	fix_post	2		10	80.0	2.5	/experiments/knapen_AOT/AOT_stimuli/rescaled_final/0241_fw.mp4	0.0	388.6319901943207	0.09981393814086914
83	343.3179199695587	fix_pre	0		120	81.0	2.5	/experiments/knapen_AOT/AOT_stimuli/rescaled_final/2138_rv.mp4	0.0	388.73180413246155	1.0001790523529053
83	343.8940830230713	pulse	0	t		81.0	2.5	/experiments/knapen_AOT/AOT_stimuli/rescaled_final/2138_rv.mp4	0.0	389.3079671859741	
83	344.3180990219116	movie	1		244	81.0	2.5	/experiments/knapen_AOT/AOT_stimuli/rescaled_final/2138_rv.mp4	0.0	389.73198318481445	2.500369071960449
83	345.4939351081848	pulse	1	t		81.0	2.5	/experiments/knapen_AOT/AOT_stimuli/rescaled_final/2138_rv.mp4	0.0	390.90781927108765	
83	346.81846809387207	fix_post	2		12	81.0	2.5	/experiments/knapen_AOT/AOT_stimuli/rescaled_final/2138_rv.mp4	0.0	392.2323522567749	0.10000205039978027
84	346.91847014427185	fix_pre	0		120	82.0	2.5	blank	1.0	392.3323543071747	1.0001189708709717
84	347.09379506111145	pulse	0	t		82.0	2.5	blank	1.0	392.5076792240143	
84	347.9185891151428	movie	1		300	82.0	2.5	blank	1.0	393.33247327804565	2.500408887863159
84	348.69392013549805	pulse	1	t		82.0	2.5	blank	1.0	394.1078042984009	
84	350.29414319992065	pulse	1	t		82.0	2.5	blank	1.0	395.7080273628235	
84	350.418998003006	fix_post	2		12	82.0	2.5	blank	1.0	395.8328821659088	0.09996414184570312
85	350.5189621448517	fix_pre	0		120	83.0	2.5	/experiments/knapen_AOT/AOT_stimuli/rescaled_final/2137_rv.mp4	0.0	395.9328463077545	1.0003390312194824
85	351.51930117607117	movie	1		244	83.0	2.5	/experiments/knapen_AOT/AOT_stimuli/rescaled_final/2137_rv.mp4	0.0	396.933185338974	2.4919068813323975
85	351.89444518089294	pulse	1	t		83.0	2.5	/experiments/knapen_AOT/AOT_stimuli/rescaled_final/2137_rv.mp4	0.0	397.3083293437958	
85	353.49471497535706	pulse	1	t		83.0	2.5	/experiments/knapen_AOT/AOT_stimuli/rescaled_final/2137_rv.mp4	0.0	398.9085991382599	
85	354.01120805740356	fix_post	2		12	83.0	2.5	/experiments/knapen_AOT/AOT_stimuli/rescaled_final/2137_rv.mp4	0.0	399.4250922203064	0.10001111030578613
87	354.11121916770935	stim	0		1716					399.5251033306122	14.302145957946777
87	355.0949091911316	pulse	0	t						400.5087933540344	
87	356.69504618644714	pulse	0	t						402.10893034935	
87	358.29539704322815	pulse	0	t						403.709281206131	
87	359.8955919742584	pulse	0	t						405.30947613716125	
87	361.49582600593567	pulse	0	t						406.9097101688385	
87	363.095978975296	pulse	0	t						408.50986313819885	
87	364.69624304771423	pulse	0	t						410.11012721061707	
87	366.29647397994995	pulse	0	t						411.7103581428528	
87	367.8967580795288	pulse	0	t						413.31064224243164	
