trial_nr	onset	event_type	phase	response	nr_frames	movie_index	movie_duration	movie_file	blank	onset_abs	duration
0	0.16652369499206543	stim	0		1					16.397712469100952	0.008383750915527344
0	0.1044158935546875	response	0	space						16.335604667663574	
1	0.17490744590759277	stim	0		4561					16.40609622001648	38.0224244594574
1	38.186992168426514	pulse	0	t						54.4181809425354	
1	38.19733190536499	stim	1		1715					54.42852067947388	14.302000761032104
1	39.78089690208435	pulse	1	t						56.01208567619324	
1	41.381163597106934	pulse	1	t						57.61235237121582	
1	42.9814190864563	pulse	1	t						59.212607860565186	
1	44.581602573394775	pulse	1	t						60.81279134750366	
1	46.18184304237366	pulse	1	t						62.413031816482544	
1	47.782084465026855	pulse	1	t						64.01327323913574	
1	49.38235402107239	pulse	1	t						65.61354279518127	
1	50.9825701713562	pulse	1	t						67.21375894546509	
2	52.499332666397095	fix_pre	0		11	0.0	2.5	/experiments/knapen_AOT/AOT_stimuli/rescaled_final/0286_fw.mp4	0.0	68.73052144050598	0.10841679573059082
2	52.58288931846619	pulse	0	t		0.0	2.5	/experiments/knapen_AOT/AOT_stimuli/rescaled_final/0286_fw.mp4	0.0	68.81407809257507	
2	52.607749462127686	movie	1		283	0.0	2.5	/experiments/knapen_AOT/AOT_stimuli/rescaled_final/0286_fw.mp4	0.0	68.83893823623657	2.4919674396514893
2	54.18136286735535	pulse	1	t		0.0	2.5	/experiments/knapen_AOT/AOT_stimuli/rescaled_final/0286_fw.mp4	0.0	70.41255164146423	
2	55.099716901779175	fix_post	2		12	0.0	2.5	/experiments/knapen_AOT/AOT_stimuli/rescaled_final/0286_fw.mp4	0.0	71.33090567588806	0.09998393058776855
3	55.19970083236694	fix_pre	0		120	1.0	2.5	/experiments/knapen_AOT/AOT_stimuli/rescaled_final/0645_fw.mp4	0.0	71.43088960647583	1.0084867477416992
3	55.78333139419556	pulse	0	t		1.0	2.5	/experiments/knapen_AOT/AOT_stimuli/rescaled_final/0645_fw.mp4	0.0	72.01452016830444	
3	56.20818758010864	movie	1		291	1.0	2.5	/experiments/knapen_AOT/AOT_stimuli/rescaled_final/0645_fw.mp4	0.0	72.43937635421753	2.4920413494110107
3	57.38154578208923	pulse	1	t		1.0	2.5	/experiments/knapen_AOT/AOT_stimuli/rescaled_final/0645_fw.mp4	0.0	73.61273455619812	
3	58.70022892951965	fix_post	2		12	1.0	2.5	/experiments/knapen_AOT/AOT_stimuli/rescaled_final/0645_fw.mp4	0.0	74.93141770362854	0.10001826286315918
4	58.80024719238281	fix_pre	0		120	2.0	2.5	/experiments/knapen_AOT/AOT_stimuli/rescaled_final/1957_fw.mp4	0.0	75.0314359664917	1.008488655090332
4	58.98379039764404	pulse	0	t		2.0	2.5	/experiments/knapen_AOT/AOT_stimuli/rescaled_final/1957_fw.mp4	0.0	75.21497917175293	
4	59.808735847473145	movie	1		276	2.0	2.5	/experiments/knapen_AOT/AOT_stimuli/rescaled_final/1957_fw.mp4	0.0	76.03992462158203	2.4920971393585205
4	60.58422303199768	pulse	1	t		2.0	2.5	/experiments/knapen_AOT/AOT_stimuli/rescaled_final/1957_fw.mp4	0.0	76.81541180610657	
4	62.182249784469604	pulse	1	t		2.0	2.5	/experiments/knapen_AOT/AOT_stimuli/rescaled_final/1957_fw.mp4	0.0	78.41343855857849	
4	62.300832986831665	fix_post	2		12	2.0	2.5	/experiments/knapen_AOT/AOT_stimuli/rescaled_final/1957_fw.mp4	0.0	78.53202176094055	0.10000395774841309
5	62.40083694458008	fix_pre	0		120	3.0	2.5	/experiments/knapen_AOT/AOT_stimuli/rescaled_final/1432_rv.mp4	0.0	78.63202571868896	1.0084939002990723
5	63.40933084487915	movie	1		277	3.0	2.5	/experiments/knapen_AOT/AOT_stimuli/rescaled_final/1432_rv.mp4	0.0	79.64051961898804	2.4919819831848145
5	63.77667832374573	pulse	1	t		3.0	2.5	/experiments/knapen_AOT/AOT_stimuli/rescaled_final/1432_rv.mp4	0.0	80.00786709785461	
5	65.37668037414551	pulse	1	t		3.0	2.5	/experiments/knapen_AOT/AOT_stimuli/rescaled_final/1432_rv.mp4	0.0	81.6078691482544	
5	65.90131282806396	fix_post	2		12	3.0	2.5	/experiments/knapen_AOT/AOT_stimuli/rescaled_final/1432_rv.mp4	0.0	82.13250160217285	0.10017514228820801
6	66.00148797035217	fix_pre	0		118	4.0	2.5	/experiments/knapen_AOT/AOT_stimuli/rescaled_final/2163_fw.mp4	0.0	82.23267674446106	0.9916775226593018
6	66.97676229476929	pulse	0	t		4.0	2.5	/experiments/knapen_AOT/AOT_stimuli/rescaled_final/2163_fw.mp4	0.0	83.20795106887817	
6	66.99316549301147	movie	1		286	4.0	2.5	/experiments/knapen_AOT/AOT_stimuli/rescaled_final/2163_fw.mp4	0.0	83.22435426712036	2.5003480911254883
6	68.57716727256775	pulse	1	t		4.0	2.5	/experiments/knapen_AOT/AOT_stimuli/rescaled_final/2163_fw.mp4	0.0	84.80835604667664	
6	69.49351358413696	fix_post	2		12	4.0	2.5	/experiments/knapen_AOT/AOT_stimuli/rescaled_final/2163_fw.mp4	0.0	85.72470235824585	0.10001111030578613
7	69.59352469444275	fix_pre	0		120	5.0	2.5	blank	1.0	85.82471346855164	1.000166893005371
7	70.17731237411499	pulse	0	t		5.0	2.5	blank	1.0	86.40850114822388	
7	70.59369158744812	movie	1		300	5.0	2.5	blank	1.0	86.824880361557	2.5003528594970703
7	71.77745342254639	pulse	1	t		5.0	2.5	blank	1.0	88.00864219665527	
7	73.09404444694519	fix_post	2		12	5.0	2.5	blank	1.0	89.32523322105408	0.10004973411560059
8	73.19409418106079	fix_pre	0		120	6.0	2.5	/experiments/knapen_AOT/AOT_stimuli/rescaled_final/1832_fw.mp4	0.0	89.42528295516968	1.0085155963897705
8	73.3779947757721	pulse	0	t		6.0	2.5	/experiments/knapen_AOT/AOT_stimuli/rescaled_final/1832_fw.mp4	0.0	89.60918354988098	
8	74.20260977745056	movie	1		290	6.0	2.5	/experiments/knapen_AOT/AOT_stimuli/rescaled_final/1832_fw.mp4	0.0	90.43379855155945	2.491999626159668
8	74.97785949707031	pulse	1	t		6.0	2.5	/experiments/knapen_AOT/AOT_stimuli/rescaled_final/1832_fw.mp4	0.0	91.2090482711792	
8	76.57826519012451	pulse	1	t		6.0	2.5	/experiments/knapen_AOT/AOT_stimuli/rescaled_final/1832_fw.mp4	0.0	92.8094539642334	
8	76.69460940361023	fix_post	2		12	6.0	2.5	/experiments/knapen_AOT/AOT_stimuli/rescaled_final/1832_fw.mp4	0.0	92.92579817771912	0.1000053882598877
9	76.79461479187012	fix_pre	0		120	7.0	2.5	/experiments/knapen_AOT/AOT_stimuli/rescaled_final/1589_fw.mp4	0.0	93.025803565979	1.0084855556488037
9	77.80310034751892	movie	1		288	7.0	2.5	/experiments/knapen_AOT/AOT_stimuli/rescaled_final/1589_fw.mp4	0.0	94.03428912162781	2.492017984390259
9	78.1769962310791	pulse	1	t		7.0	2.5	/experiments/knapen_AOT/AOT_stimuli/rescaled_final/1589_fw.mp4	0.0	94.40818500518799	
9	79.77700066566467	pulse	1	t		7.0	2.5	/experiments/knapen_AOT/AOT_stimuli/rescaled_final/1589_fw.mp4	0.0	96.00818943977356	
9	80.29511833190918	fix_post	2		12	7.0	2.5	/experiments/knapen_AOT/AOT_stimuli/rescaled_final/1589_fw.mp4	0.0	96.52630710601807	0.10002493858337402
10	80.39514327049255	fix_pre	0		119	8.0	2.5	/experiments/knapen_AOT/AOT_stimuli/rescaled_final/1838_fw.mp4	0.0	96.62633204460144	1.0002307891845703
10	81.37890005111694	pulse	0	t		8.0	2.5	/experiments/knapen_AOT/AOT_stimuli/rescaled_final/1838_fw.mp4	0.0	97.61008882522583	
10	81.39537405967712	movie	1		284	8.0	2.5	/experiments/knapen_AOT/AOT_stimuli/rescaled_final/1838_fw.mp4	0.0	97.62656283378601	2.500332832336426
10	82.97735333442688	pulse	1	t		8.0	2.5	/experiments/knapen_AOT/AOT_stimuli/rescaled_final/1838_fw.mp4	0.0	99.20854210853577	
10	83.89570689201355	fix_post	2		12	8.0	2.5	/experiments/knapen_AOT/AOT_stimuli/rescaled_final/1838_fw.mp4	0.0	100.12689566612244	0.09998774528503418
11	83.99569463729858	fix_pre	0		120	9.0	2.5	/experiments/knapen_AOT/AOT_stimuli/rescaled_final/1451_rv.mp4	0.0	100.22688341140747	1.0084974765777588
11	84.5793685913086	pulse	0	t		9.0	2.5	/experiments/knapen_AOT/AOT_stimuli/rescaled_final/1451_rv.mp4	0.0	100.81055736541748	
11	85.00419211387634	movie	1		275	9.0	2.5	/experiments/knapen_AOT/AOT_stimuli/rescaled_final/1451_rv.mp4	0.0	101.23538088798523	2.4920270442962646
11	86.17777562141418	pulse	1	t		9.0	2.5	/experiments/knapen_AOT/AOT_stimuli/rescaled_final/1451_rv.mp4	0.0	102.40896439552307	
11	87.49621915817261	fix_post	2		12	9.0	2.5	/experiments/knapen_AOT/AOT_stimuli/rescaled_final/1451_rv.mp4	0.0	103.7274079322815	0.10007262229919434
12	87.5962917804718	fix_pre	0		120	10.0	2.5	/experiments/knapen_AOT/AOT_stimuli/rescaled_final/0451_rv.mp4	0.0	103.82748055458069	1.0084285736083984
12	87.77983593940735	pulse	0	t		10.0	2.5	/experiments/knapen_AOT/AOT_stimuli/rescaled_final/0451_rv.mp4	0.0	104.01102471351624	
12	88.6047203540802	movie	1		285	10.0	2.5	/experiments/knapen_AOT/AOT_stimuli/rescaled_final/0451_rv.mp4	0.0	104.83590912818909	2.492070436477661
12	89.37840557098389	pulse	1	t		10.0	2.5	/experiments/knapen_AOT/AOT_stimuli/rescaled_final/0451_rv.mp4	0.0	105.60959434509277	
12	90.97811627388	pulse	1	t		10.0	2.5	/experiments/knapen_AOT/AOT_stimuli/rescaled_final/0451_rv.mp4	0.0	107.20930504798889	
12	91.09679079055786	fix_post	2		12	10.0	2.5	/experiments/knapen_AOT/AOT_stimuli/rescaled_final/0451_rv.mp4	0.0	107.32797956466675	0.10003471374511719
13	91.19682550430298	fix_pre	0		120	11.0	2.5	/experiments/knapen_AOT/AOT_stimuli/rescaled_final/1828_fw.mp4	0.0	107.42801427841187	1.0084433555603027
13	92.20526885986328	movie	1		279	11.0	2.5	/experiments/knapen_AOT/AOT_stimuli/rescaled_final/1828_fw.mp4	0.0	108.43645763397217	2.492030620574951
13	92.578782081604	pulse	1	t		11.0	2.5	/experiments/knapen_AOT/AOT_stimuli/rescaled_final/1828_fw.mp4	0.0	108.80997085571289	
13	94.17871594429016	pulse	1	t		11.0	2.5	/experiments/knapen_AOT/AOT_stimuli/rescaled_final/1828_fw.mp4	0.0	110.40990471839905	
13	94.69729948043823	fix_post	2		12	11.0	2.5	/experiments/knapen_AOT/AOT_stimuli/rescaled_final/1828_fw.mp4	0.0	110.92848825454712	0.10001468658447266
14	94.7973141670227	fix_pre	0		119	12.0	2.5	/experiments/knapen_AOT/AOT_stimuli/rescaled_final/0968_fw.mp4	0.0	111.02850294113159	1.0002388954162598
14	95.78098821640015	pulse	0	t		12.0	2.5	/experiments/knapen_AOT/AOT_stimuli/rescaled_final/0968_fw.mp4	0.0	112.01217699050903	
14	95.79755306243896	movie	1		273	12.0	2.5	/experiments/knapen_AOT/AOT_stimuli/rescaled_final/0968_fw.mp4	0.0	112.02874183654785	2.5003020763397217
14	97.38034510612488	pulse	1	t		12.0	2.5	/experiments/knapen_AOT/AOT_stimuli/rescaled_final/0968_fw.mp4	0.0	113.61153388023376	
14	98.29785513877869	fix_post	2		12	12.0	2.5	/experiments/knapen_AOT/AOT_stimuli/rescaled_final/0968_fw.mp4	0.0	114.52904391288757	0.09999942779541016
15	98.3978545665741	fix_pre	0		120	13.0	2.5	/experiments/knapen_AOT/AOT_stimuli/rescaled_final/1096_fw.mp4	0.0	114.62904334068298	1.0085389614105225
15	98.98139452934265	pulse	0	t		13.0	2.5	/experiments/knapen_AOT/AOT_stimuli/rescaled_final/1096_fw.mp4	0.0	115.21258330345154	
15	99.40639352798462	movie	1		292	13.0	2.5	/experiments/knapen_AOT/AOT_stimuli/rescaled_final/1096_fw.mp4	0.0	115.6375823020935	2.4920194149017334
15	100.57953929901123	pulse	1	t		13.0	2.5	/experiments/knapen_AOT/AOT_stimuli/rescaled_final/1096_fw.mp4	0.0	116.81072807312012	
15	101.89841294288635	fix_post	2		12	13.0	2.5	/experiments/knapen_AOT/AOT_stimuli/rescaled_final/1096_fw.mp4	0.0	118.12960171699524	0.09998631477355957
16	101.99839925765991	fix_pre	0		120	14.0	2.5	blank	1.0	118.2295880317688	1.000129222869873
16	102.18194508552551	pulse	0	t		14.0	2.5	blank	1.0	118.4131338596344	
16	102.99852848052979	movie	1		300	14.0	2.5	blank	1.0	119.22971725463867	2.500413179397583
16	103.78211665153503	pulse	1	t		14.0	2.5	blank	1.0	120.01330542564392	
16	105.38236379623413	pulse	1	t		14.0	2.5	blank	1.0	121.61355257034302	
16	105.49894165992737	fix_post	2		12	14.0	2.5	blank	1.0	121.73013043403625	0.10003876686096191
17	105.59898042678833	fix_pre	0		120	15.0	2.5	/experiments/knapen_AOT/AOT_stimuli/rescaled_final/0071_fw.mp4	0.0	121.83016920089722	1.0084948539733887
17	106.60747528076172	movie	1		286	15.0	2.5	/experiments/knapen_AOT/AOT_stimuli/rescaled_final/0071_fw.mp4	0.0	122.8386640548706	2.491978883743286
17	106.98138189315796	pulse	1	t		15.0	2.5	/experiments/knapen_AOT/AOT_stimuli/rescaled_final/0071_fw.mp4	0.0	123.21257066726685	
17	108.58053588867188	pulse	1	t		15.0	2.5	/experiments/knapen_AOT/AOT_stimuli/rescaled_final/0071_fw.mp4	0.0	124.81172466278076	
17	109.099454164505	fix_post	2		12	15.0	2.5	/experiments/knapen_AOT/AOT_stimuli/rescaled_final/0071_fw.mp4	0.0	125.33064293861389	0.10002255439758301
18	109.19947671890259	fix_pre	0		119	16.0	2.5	/experiments/knapen_AOT/AOT_stimuli/rescaled_final/1523_rv.mp4	0.0	125.43066549301147	1.000154733657837
18	110.1831488609314	pulse	0	t		16.0	2.5	/experiments/knapen_AOT/AOT_stimuli/rescaled_final/1523_rv.mp4	0.0	126.41433763504028	
18	110.19963145256042	movie	1		284	16.0	2.5	/experiments/knapen_AOT/AOT_stimuli/rescaled_final/1523_rv.mp4	0.0	126.43082022666931	2.500368595123291
18	111.7818546295166	pulse	1	t		16.0	2.5	/experiments/knapen_AOT/AOT_stimuli/rescaled_final/1523_rv.mp4	0.0	128.0130434036255	
18	112.70000004768372	fix_post	2		12	16.0	2.5	/experiments/knapen_AOT/AOT_stimuli/rescaled_final/1523_rv.mp4	0.0	128.9311888217926	0.10001707077026367
19	112.80001711845398	fix_pre	0		120	17.0	2.5	/experiments/knapen_AOT/AOT_stimuli/rescaled_final/1975_fw.mp4	0.0	129.03120589256287	1.008471965789795
19	113.3836317062378	pulse	0	t		17.0	2.5	/experiments/knapen_AOT/AOT_stimuli/rescaled_final/1975_fw.mp4	0.0	129.61482048034668	
19	113.80848908424377	movie	1		289	17.0	2.5	/experiments/knapen_AOT/AOT_stimuli/rescaled_final/1975_fw.mp4	0.0	130.03967785835266	2.4921927452087402
19	114.98224806785583	pulse	1	t		17.0	2.5	/experiments/knapen_AOT/AOT_stimuli/rescaled_final/1975_fw.mp4	0.0	131.21343684196472	
19	116.30068182945251	fix_post	2		12	17.0	2.5	/experiments/knapen_AOT/AOT_stimuli/rescaled_final/1975_fw.mp4	0.0	132.5318706035614	0.0998685359954834
20	116.400550365448	fix_pre	0		120	18.0	2.5	/experiments/knapen_AOT/AOT_stimuli/rescaled_final/0213_fw.mp4	0.0	132.63173913955688	1.0085017681121826
20	116.57603669166565	pulse	0	t		18.0	2.5	/experiments/knapen_AOT/AOT_stimuli/rescaled_final/0213_fw.mp4	0.0	132.80722546577454	
20	117.40905213356018	movie	1		278	18.0	2.5	/experiments/knapen_AOT/AOT_stimuli/rescaled_final/0213_fw.mp4	0.0	133.64024090766907	2.4920592308044434
20	118.17600440979004	pulse	1	t		18.0	2.5	/experiments/knapen_AOT/AOT_stimuli/rescaled_final/0213_fw.mp4	0.0	134.40719318389893	
20	119.77620530128479	pulse	1	t		18.0	2.5	/experiments/knapen_AOT/AOT_stimuli/rescaled_final/0213_fw.mp4	0.0	136.00739407539368	
20	119.90111136436462	fix_post	2		12	18.0	2.5	/experiments/knapen_AOT/AOT_stimuli/rescaled_final/0213_fw.mp4	0.0	136.1323001384735	0.10003805160522461
21	120.00114941596985	fix_pre	0		120	19.0	2.5	/experiments/knapen_AOT/AOT_stimuli/rescaled_final/0744_fw.mp4	0.0	136.23233819007874	1.0084564685821533
21	121.009605884552	movie	1		277	19.0	2.5	/experiments/knapen_AOT/AOT_stimuli/rescaled_final/0744_fw.mp4	0.0	137.2407946586609	2.4920265674591064
21	121.37658905982971	pulse	1	t		19.0	2.5	/experiments/knapen_AOT/AOT_stimuli/rescaled_final/0744_fw.mp4	0.0	137.6077778339386	
21	122.97688698768616	pulse	1	t		19.0	2.5	/experiments/knapen_AOT/AOT_stimuli/rescaled_final/0744_fw.mp4	0.0	139.20807576179504	
21	123.50163245201111	fix_post	2		12	19.0	2.5	/experiments/knapen_AOT/AOT_stimuli/rescaled_final/0744_fw.mp4	0.0	139.73282122612	0.09999966621398926
22	123.6016321182251	fix_pre	0		118	20.0	2.5	blank	1.0	139.83282089233398	0.9835476875305176
22	124.57703280448914	pulse	0	t		20.0	2.5	blank	1.0	140.80822157859802	
22	124.58517980575562	movie	1		301	20.0	2.5	blank	1.0	140.8163685798645	2.5086376667022705
22	126.177170753479	pulse	1	t		20.0	2.5	blank	1.0	142.4083595275879	
22	127.09381747245789	fix_post	2		12	20.0	2.5	blank	1.0	143.32500624656677	0.10002279281616211
23	127.19384026527405	fix_pre	0		120	21.0	2.5	/experiments/knapen_AOT/AOT_stimuli/rescaled_final/1883_fw.mp4	0.0	143.42502903938293	1.008481502532959
23	127.77753162384033	pulse	0	t		21.0	2.5	/experiments/knapen_AOT/AOT_stimuli/rescaled_final/1883_fw.mp4	0.0	144.00872039794922	
23	128.202321767807	movie	1		292	21.0	2.5	/experiments/knapen_AOT/AOT_stimuli/rescaled_final/1883_fw.mp4	0.0	144.4335105419159	2.492039680480957
23	129.37651419639587	pulse	1	t		21.0	2.5	/experiments/knapen_AOT/AOT_stimuli/rescaled_final/1883_fw.mp4	0.0	145.60770297050476	
23	130.69436144828796	fix_post	2		12	21.0	2.5	/experiments/knapen_AOT/AOT_stimuli/rescaled_final/1883_fw.mp4	0.0	146.92555022239685	0.10002756118774414
24	130.7943890094757	fix_pre	0		120	22.0	2.5	/experiments/knapen_AOT/AOT_stimuli/rescaled_final/1482_fw.mp4	0.0	147.0255777835846	1.0085375308990479
24	130.977924823761	pulse	0	t		22.0	2.5	/experiments/knapen_AOT/AOT_stimuli/rescaled_final/1482_fw.mp4	0.0	147.20911359786987	
24	131.80292654037476	movie	1		278	22.0	2.5	/experiments/knapen_AOT/AOT_stimuli/rescaled_final/1482_fw.mp4	0.0	148.03411531448364	2.4919991493225098
24	132.57592630386353	pulse	1	t		22.0	2.5	/experiments/knapen_AOT/AOT_stimuli/rescaled_final/1482_fw.mp4	0.0	148.8071150779724	
24	134.1762535572052	pulse	1	t		22.0	2.5	/experiments/knapen_AOT/AOT_stimuli/rescaled_final/1482_fw.mp4	0.0	150.4074423313141	
24	134.29492568969727	fix_post	2		12	22.0	2.5	/experiments/knapen_AOT/AOT_stimuli/rescaled_final/1482_fw.mp4	0.0	150.52611446380615	0.09999704360961914
25	134.39492273330688	fix_pre	0		120	23.0	2.5	/experiments/knapen_AOT/AOT_stimuli/rescaled_final/0682_fw.mp4	0.0	150.62611150741577	1.0084984302520752
25	135.40342116355896	movie	1		280	23.0	2.5	/experiments/knapen_AOT/AOT_stimuli/rescaled_final/0682_fw.mp4	0.0	151.63460993766785	2.492029905319214
25	135.77701020240784	pulse	1	t		23.0	2.5	/experiments/knapen_AOT/AOT_stimuli/rescaled_final/0682_fw.mp4	0.0	152.00819897651672	
25	137.3765549659729	pulse	1	t		23.0	2.5	/experiments/knapen_AOT/AOT_stimuli/rescaled_final/0682_fw.mp4	0.0	153.6077437400818	
25	137.89545106887817	fix_post	2		12	23.0	2.5	/experiments/knapen_AOT/AOT_stimuli/rescaled_final/0682_fw.mp4	0.0	154.12663984298706	0.10001373291015625
26	137.99546480178833	fix_pre	0		119	24.0	2.5	/experiments/knapen_AOT/AOT_stimuli/rescaled_final/0166_rv.mp4	0.0	154.22665357589722	1.0001673698425293
26	138.97919130325317	pulse	0	t		24.0	2.5	/experiments/knapen_AOT/AOT_stimuli/rescaled_final/0166_rv.mp4	0.0	155.21038007736206	
26	138.99563217163086	movie	1		283	24.0	2.5	/experiments/knapen_AOT/AOT_stimuli/rescaled_final/0166_rv.mp4	0.0	155.22682094573975	2.5003552436828613
26	140.57807207107544	pulse	1	t		24.0	2.5	/experiments/knapen_AOT/AOT_stimuli/rescaled_final/0166_rv.mp4	0.0	156.80926084518433	
26	141.49598741531372	fix_post	2		12	24.0	2.5	/experiments/knapen_AOT/AOT_stimuli/rescaled_final/0166_rv.mp4	0.0	157.7271761894226	0.10007786750793457
27	141.59606528282166	fix_pre	0		120	25.0	2.5	/experiments/knapen_AOT/AOT_stimuli/rescaled_final/1901_rv.mp4	0.0	157.82725405693054	1.008470058441162
27	142.1795802116394	pulse	0	t		25.0	2.5	/experiments/knapen_AOT/AOT_stimuli/rescaled_final/1901_rv.mp4	0.0	158.4107689857483	
27	142.60453534126282	movie	1		288	25.0	2.5	/experiments/knapen_AOT/AOT_stimuli/rescaled_final/1901_rv.mp4	0.0	158.8357241153717	2.491987943649292
27	143.7808756828308	pulse	1	t		25.0	2.5	/experiments/knapen_AOT/AOT_stimuli/rescaled_final/1901_rv.mp4	0.0	160.0120644569397	
27	145.0965232849121	fix_post	2		12	25.0	2.5	/experiments/knapen_AOT/AOT_stimuli/rescaled_final/1901_rv.mp4	0.0	161.327712059021	0.10000395774841309
28	145.19652724266052	fix_pre	0		120	26.0	2.5	/experiments/knapen_AOT/AOT_stimuli/rescaled_final/1095_rv.mp4	0.0	161.4277160167694	1.0085222721099854
28	145.38007473945618	pulse	0	t		26.0	2.5	/experiments/knapen_AOT/AOT_stimuli/rescaled_final/1095_rv.mp4	0.0	161.61126351356506	
28	146.2050495147705	movie	1		282	26.0	2.5	/experiments/knapen_AOT/AOT_stimuli/rescaled_final/1095_rv.mp4	0.0	162.4362382888794	2.492175817489624
28	146.97849893569946	pulse	1	t		26.0	2.5	/experiments/knapen_AOT/AOT_stimuli/rescaled_final/1095_rv.mp4	0.0	163.20968770980835	
28	148.578542470932	pulse	1	t		26.0	2.5	/experiments/knapen_AOT/AOT_stimuli/rescaled_final/1095_rv.mp4	0.0	164.8097312450409	
28	148.69722533226013	fix_post	2		12	26.0	2.5	/experiments/knapen_AOT/AOT_stimuli/rescaled_final/1095_rv.mp4	0.0	164.92841410636902	0.0998544692993164
29	148.79707980155945	fix_pre	0		120	27.0	2.5	/experiments/knapen_AOT/AOT_stimuli/rescaled_final/1347_fw.mp4	0.0	165.02826857566833	1.0085127353668213
29	149.80559253692627	movie	1		279	27.0	2.5	/experiments/knapen_AOT/AOT_stimuli/rescaled_final/1347_fw.mp4	0.0	166.03678131103516	2.492021083831787
29	150.17919993400574	pulse	1	t		27.0	2.5	/experiments/knapen_AOT/AOT_stimuli/rescaled_final/1347_fw.mp4	0.0	166.41038870811462	
29	151.78025317192078	pulse	1	t		27.0	2.5	/experiments/knapen_AOT/AOT_stimuli/rescaled_final/1347_fw.mp4	0.0	168.01144194602966	
29	152.29761362075806	fix_post	2		12	27.0	2.5	/experiments/knapen_AOT/AOT_stimuli/rescaled_final/1347_fw.mp4	0.0	168.52880239486694	0.10002636909484863
30	152.3976399898529	fix_pre	0		119	28.0	2.5	blank	1.0	168.6288287639618	0.9917991161346436
30	153.3812563419342	pulse	0	t		28.0	2.5	blank	1.0	169.6124451160431	
30	153.38943910598755	movie	1		301	28.0	2.5	blank	1.0	169.62062788009644	2.508755683898926
30	154.9815366268158	pulse	1	t		28.0	2.5	blank	1.0	171.21272540092468	
30	155.89819478988647	fix_post	2		12	28.0	2.5	blank	1.0	172.12938356399536	0.10002279281616211
31	155.99821758270264	fix_pre	0		120	29.0	2.5	/experiments/knapen_AOT/AOT_stimuli/rescaled_final/0271_fw.mp4	0.0	172.22940635681152	1.0084421634674072
31	156.58172059059143	pulse	0	t		29.0	2.5	/experiments/knapen_AOT/AOT_stimuli/rescaled_final/0271_fw.mp4	0.0	172.81290936470032	
31	157.00665974617004	movie	1		287	29.0	2.5	/experiments/knapen_AOT/AOT_stimuli/rescaled_final/0271_fw.mp4	0.0	173.23784852027893	2.492039680480957
31	158.1800558567047	pulse	1	t		29.0	2.5	/experiments/knapen_AOT/AOT_stimuli/rescaled_final/0271_fw.mp4	0.0	174.4112446308136	
31	159.498699426651	fix_post	2		12	29.0	2.5	/experiments/knapen_AOT/AOT_stimuli/rescaled_final/0271_fw.mp4	0.0	175.7298882007599	0.1000218391418457
32	159.59872126579285	fix_pre	0		120	30.0	2.5	/experiments/knapen_AOT/AOT_stimuli/rescaled_final/1957_rv.mp4	0.0	175.82991003990173	1.008542537689209
32	159.78218007087708	pulse	0	t		30.0	2.5	/experiments/knapen_AOT/AOT_stimuli/rescaled_final/1957_rv.mp4	0.0	176.01336884498596	
32	160.60726380348206	movie	1		286	30.0	2.5	/experiments/knapen_AOT/AOT_stimuli/rescaled_final/1957_rv.mp4	0.0	176.83845257759094	2.491976499557495
32	161.3801305294037	pulse	1	t		30.0	2.5	/experiments/knapen_AOT/AOT_stimuli/rescaled_final/1957_rv.mp4	0.0	177.61131930351257	
32	162.98098921775818	pulse	1	t		30.0	2.5	/experiments/knapen_AOT/AOT_stimuli/rescaled_final/1957_rv.mp4	0.0	179.21217799186707	
32	163.09924030303955	fix_post	2		12	30.0	2.5	/experiments/knapen_AOT/AOT_stimuli/rescaled_final/1957_rv.mp4	0.0	179.33042907714844	0.10007476806640625
33	163.19931507110596	fix_pre	0		120	31.0	2.5	/experiments/knapen_AOT/AOT_stimuli/rescaled_final/0789_rv.mp4	0.0	179.43050384521484	1.0084173679351807
33	164.20773243904114	movie	1		276	31.0	2.5	/experiments/knapen_AOT/AOT_stimuli/rescaled_final/0789_rv.mp4	0.0	180.43892121315002	2.4920365810394287
33	164.5812885761261	pulse	1	t		31.0	2.5	/experiments/knapen_AOT/AOT_stimuli/rescaled_final/0789_rv.mp4	0.0	180.81247735023499	
33	166.181010723114	pulse	1	t		31.0	2.5	/experiments/knapen_AOT/AOT_stimuli/rescaled_final/0789_rv.mp4	0.0	182.4121994972229	
33	166.69976902008057	fix_post	2		12	31.0	2.5	/experiments/knapen_AOT/AOT_stimuli/rescaled_final/0789_rv.mp4	0.0	182.93095779418945	0.10007643699645996
34	166.79984545707703	fix_pre	0		119	32.0	2.5	/experiments/knapen_AOT/AOT_stimuli/rescaled_final/1840_fw.mp4	0.0	183.0310342311859	1.000119686126709
34	167.78358960151672	pulse	0	t		32.0	2.5	/experiments/knapen_AOT/AOT_stimuli/rescaled_final/1840_fw.mp4	0.0	184.0147783756256	
34	167.79996514320374	movie	1		282	32.0	2.5	/experiments/knapen_AOT/AOT_stimuli/rescaled_final/1840_fw.mp4	0.0	184.03115391731262	2.500364065170288
34	169.3819682598114	pulse	1	t		32.0	2.5	/experiments/knapen_AOT/AOT_stimuli/rescaled_final/1840_fw.mp4	0.0	185.6131570339203	
34	170.30032920837402	fix_post	2		12	32.0	2.5	/experiments/knapen_AOT/AOT_stimuli/rescaled_final/1840_fw.mp4	0.0	186.5315179824829	0.10001516342163086
35	170.40034437179565	fix_pre	0		120	33.0	2.5	blank	1.0	186.63153314590454	1.0001442432403564
35	170.98393201828003	pulse	0	t		33.0	2.5	blank	1.0	187.21512079238892	
35	171.400488615036	movie	1		300	33.0	2.5	blank	1.0	187.6316773891449	2.5003786087036133
35	172.5763943195343	pulse	1	t		33.0	2.5	blank	1.0	188.8075830936432	
35	173.90086722373962	fix_post	2		12	33.0	2.5	blank	1.0	190.1320559978485	0.10000395774841309
36	174.00087118148804	fix_pre	0		120	34.0	2.5	/experiments/knapen_AOT/AOT_stimuli/rescaled_final/1904_rv.mp4	0.0	190.23205995559692	1.0085053443908691
36	174.17632508277893	pulse	0	t		34.0	2.5	/experiments/knapen_AOT/AOT_stimuli/rescaled_final/1904_rv.mp4	0.0	190.40751385688782	
36	175.0093765258789	movie	1		281	34.0	2.5	/experiments/knapen_AOT/AOT_stimuli/rescaled_final/1904_rv.mp4	0.0	191.2405652999878	2.492112636566162
36	175.77633666992188	pulse	1	t		34.0	2.5	/experiments/knapen_AOT/AOT_stimuli/rescaled_final/1904_rv.mp4	0.0	192.00752544403076	
36	177.37662529945374	pulse	1	t		34.0	2.5	/experiments/knapen_AOT/AOT_stimuli/rescaled_final/1904_rv.mp4	0.0	193.60781407356262	
36	177.50148916244507	fix_post	2		12	34.0	2.5	/experiments/knapen_AOT/AOT_stimuli/rescaled_final/1904_rv.mp4	0.0	193.73267793655396	0.09993338584899902
37	177.60142254829407	fix_pre	0		120	35.0	2.5	/experiments/knapen_AOT/AOT_stimuli/rescaled_final/0506_fw.mp4	0.0	193.83261132240295	1.0085017681121826
37	178.60992431640625	movie	1		278	35.0	2.5	/experiments/knapen_AOT/AOT_stimuli/rescaled_final/0506_fw.mp4	0.0	194.84111309051514	2.4920191764831543
37	178.976806640625	pulse	1	t		35.0	2.5	/experiments/knapen_AOT/AOT_stimuli/rescaled_final/0506_fw.mp4	0.0	195.2079954147339	
37	180.5770125389099	pulse	1	t		35.0	2.5	/experiments/knapen_AOT/AOT_stimuli/rescaled_final/0506_fw.mp4	0.0	196.8082013130188	
37	181.1019434928894	fix_post	2		12	35.0	2.5	/experiments/knapen_AOT/AOT_stimuli/rescaled_final/0506_fw.mp4	0.0	197.3331322669983	0.10001301765441895
38	181.20195651054382	fix_pre	0		118	36.0	2.5	/experiments/knapen_AOT/AOT_stimuli/rescaled_final/1406_rv.mp4	0.0	197.4331452846527	0.9918415546417236
38	182.17724537849426	pulse	0	t		36.0	2.5	/experiments/knapen_AOT/AOT_stimuli/rescaled_final/1406_rv.mp4	0.0	198.40843415260315	
38	182.19379806518555	movie	1		280	36.0	2.5	/experiments/knapen_AOT/AOT_stimuli/rescaled_final/1406_rv.mp4	0.0	198.42498683929443	2.5003459453582764
38	183.77764201164246	pulse	1	t		36.0	2.5	/experiments/knapen_AOT/AOT_stimuli/rescaled_final/1406_rv.mp4	0.0	200.00883078575134	
38	184.69414401054382	fix_post	2		12	36.0	2.5	/experiments/knapen_AOT/AOT_stimuli/rescaled_final/1406_rv.mp4	0.0	200.9253327846527	0.10001349449157715
39	184.7941575050354	fix_pre	0		120	37.0	2.5	/experiments/knapen_AOT/AOT_stimuli/rescaled_final/2163_rv.mp4	0.0	201.0253462791443	1.0086185932159424
39	185.37774777412415	pulse	0	t		37.0	2.5	/experiments/knapen_AOT/AOT_stimuli/rescaled_final/2163_rv.mp4	0.0	201.60893654823303	
39	185.80277609825134	movie	1		285	37.0	2.5	/experiments/knapen_AOT/AOT_stimuli/rescaled_final/2163_rv.mp4	0.0	202.03396487236023	2.4919304847717285
39	186.97802996635437	pulse	1	t		37.0	2.5	/experiments/knapen_AOT/AOT_stimuli/rescaled_final/2163_rv.mp4	0.0	203.20921874046326	
39	188.29470658302307	fix_post	2		12	37.0	2.5	/experiments/knapen_AOT/AOT_stimuli/rescaled_final/2163_rv.mp4	0.0	204.52589535713196	0.10002660751342773
40	188.3947331905365	fix_pre	0		120	38.0	2.5	/experiments/knapen_AOT/AOT_stimuli/rescaled_final/0825_rv.mp4	0.0	204.62592196464539	1.0084757804870605
40	188.5782573223114	pulse	0	t		38.0	2.5	/experiments/knapen_AOT/AOT_stimuli/rescaled_final/0825_rv.mp4	0.0	204.8094460964203	
40	189.40320897102356	movie	1		292	38.0	2.5	/experiments/knapen_AOT/AOT_stimuli/rescaled_final/0825_rv.mp4	0.0	205.63439774513245	2.4920313358306885
40	190.17844939231873	pulse	1	t		38.0	2.5	/experiments/knapen_AOT/AOT_stimuli/rescaled_final/0825_rv.mp4	0.0	206.4096381664276	
40	191.77644848823547	pulse	1	t		38.0	2.5	/experiments/knapen_AOT/AOT_stimuli/rescaled_final/0825_rv.mp4	0.0	208.00763726234436	
40	191.89524030685425	fix_post	2		12	38.0	2.5	/experiments/knapen_AOT/AOT_stimuli/rescaled_final/0825_rv.mp4	0.0	208.12642908096313	0.10002326965332031
41	191.99526357650757	fix_pre	0		120	39.0	2.5	/experiments/knapen_AOT/AOT_stimuli/rescaled_final/0213_fw.mp4	0.0	208.22645235061646	1.008469581604004
41	193.00373315811157	movie	1		286	39.0	2.5	/experiments/knapen_AOT/AOT_stimuli/rescaled_final/0213_fw.mp4	0.0	209.23492193222046	2.4920828342437744
41	193.37698769569397	pulse	1	t		39.0	2.5	/experiments/knapen_AOT/AOT_stimuli/rescaled_final/0213_fw.mp4	0.0	209.60817646980286	
41	194.97702550888062	pulse	1	t		39.0	2.5	/experiments/knapen_AOT/AOT_stimuli/rescaled_final/0213_fw.mp4	0.0	211.2082142829895	
41	195.49581599235535	fix_post	2		12	39.0	2.5	/experiments/knapen_AOT/AOT_stimuli/rescaled_final/0213_fw.mp4	0.0	211.72700476646423	0.09997749328613281
42	195.59579348564148	fix_pre	0		119	40.0	2.5	blank	1.0	211.82698225975037	0.9917917251586914
42	196.5793776512146	pulse	0	t		40.0	2.5	blank	1.0	212.8105664253235	
42	196.58758521080017	movie	1		301	40.0	2.5	blank	1.0	212.81877398490906	2.508726119995117
42	198.17960786819458	pulse	1	t		40.0	2.5	blank	1.0	214.41079664230347	
42	199.0963113307953	fix_post	2		12	40.0	2.5	blank	1.0	215.32750010490417	0.10002493858337402
43	199.19633626937866	fix_pre	0		120	41.0	2.5	/experiments/knapen_AOT/AOT_stimuli/rescaled_final/0337_rv.mp4	0.0	215.42752504348755	1.0084807872772217
43	199.77996110916138	pulse	0	t		41.0	2.5	/experiments/knapen_AOT/AOT_stimuli/rescaled_final/0337_rv.mp4	0.0	216.01114988327026	
43	200.20481705665588	movie	1		287	41.0	2.5	/experiments/knapen_AOT/AOT_stimuli/rescaled_final/0337_rv.mp4	0.0	216.43600583076477	2.492053747177124
43	201.3791959285736	pulse	1	t		41.0	2.5	/experiments/knapen_AOT/AOT_stimuli/rescaled_final/0337_rv.mp4	0.0	217.6103847026825	
43	202.696870803833	fix_post	2		12	41.0	2.5	/experiments/knapen_AOT/AOT_stimuli/rescaled_final/0337_rv.mp4	0.0	218.9280595779419	0.1001286506652832
44	202.7969994544983	fix_pre	0		120	42.0	2.5	/experiments/knapen_AOT/AOT_stimuli/rescaled_final/0303_rv.mp4	0.0	219.02818822860718	1.0083975791931152
44	202.98042130470276	pulse	0	t		42.0	2.5	/experiments/knapen_AOT/AOT_stimuli/rescaled_final/0303_rv.mp4	0.0	219.21161007881165	
44	203.8053970336914	movie	1		278	42.0	2.5	/experiments/knapen_AOT/AOT_stimuli/rescaled_final/0303_rv.mp4	0.0	220.0365858078003	2.492051124572754
44	204.57967877388	pulse	1	t		42.0	2.5	/experiments/knapen_AOT/AOT_stimuli/rescaled_final/0303_rv.mp4	0.0	220.8108675479889	
44	206.17940950393677	pulse	1	t		42.0	2.5	/experiments/knapen_AOT/AOT_stimuli/rescaled_final/0303_rv.mp4	0.0	222.41059827804565	
44	206.29744815826416	fix_post	2		12	42.0	2.5	/experiments/knapen_AOT/AOT_stimuli/rescaled_final/0303_rv.mp4	0.0	222.52863693237305	0.0999913215637207
45	206.39743947982788	fix_pre	0		120	43.0	2.5	/experiments/knapen_AOT/AOT_stimuli/rescaled_final/0768_fw.mp4	0.0	222.62862825393677	1.0085434913635254
45	207.4059829711914	movie	1		276	43.0	2.5	/experiments/knapen_AOT/AOT_stimuli/rescaled_final/0768_fw.mp4	0.0	223.6371717453003	2.4919817447662354
45	207.77973413467407	pulse	1	t		43.0	2.5	/experiments/knapen_AOT/AOT_stimuli/rescaled_final/0768_fw.mp4	0.0	224.01092290878296	
45	209.37944889068604	pulse	1	t		43.0	2.5	/experiments/knapen_AOT/AOT_stimuli/rescaled_final/0768_fw.mp4	0.0	225.61063766479492	
45	209.89796471595764	fix_post	2		12	43.0	2.5	/experiments/knapen_AOT/AOT_stimuli/rescaled_final/0768_fw.mp4	0.0	226.12915349006653	0.09999394416809082
46	209.99795866012573	fix_pre	0		119	44.0	2.5	/experiments/knapen_AOT/AOT_stimuli/rescaled_final/1206_fw.mp4	0.0	226.22914743423462	1.0003583431243896
46	210.98174405097961	pulse	0	t		44.0	2.5	/experiments/knapen_AOT/AOT_stimuli/rescaled_final/1206_fw.mp4	0.0	227.2129328250885	
46	210.99831700325012	movie	1		285	44.0	2.5	/experiments/knapen_AOT/AOT_stimuli/rescaled_final/1206_fw.mp4	0.0	227.229505777359	2.500148057937622
46	212.58018827438354	pulse	1	t		44.0	2.5	/experiments/knapen_AOT/AOT_stimuli/rescaled_final/1206_fw.mp4	0.0	228.81137704849243	
46	213.49846506118774	fix_post	2		12	44.0	2.5	/experiments/knapen_AOT/AOT_stimuli/rescaled_final/1206_fw.mp4	0.0	229.72965383529663	0.10005307197570801
47	213.59851813316345	fix_pre	0		120	45.0	2.5	/experiments/knapen_AOT/AOT_stimuli/rescaled_final/0835_rv.mp4	0.0	229.82970690727234	1.0085556507110596
47	214.182058095932	pulse	0	t		45.0	2.5	/experiments/knapen_AOT/AOT_stimuli/rescaled_final/0835_rv.mp4	0.0	230.4132468700409	
47	214.6070737838745	movie	1		276	45.0	2.5	/experiments/knapen_AOT/AOT_stimuli/rescaled_final/0835_rv.mp4	0.0	230.8382625579834	2.4919581413269043
47	215.78060364723206	pulse	1	t		45.0	2.5	/experiments/knapen_AOT/AOT_stimuli/rescaled_final/0835_rv.mp4	0.0	232.01179242134094	
47	217.09903192520142	fix_post	2		12	45.0	2.5	/experiments/knapen_AOT/AOT_stimuli/rescaled_final/0835_rv.mp4	0.0	233.3302206993103	0.10002803802490234
48	217.19905996322632	fix_pre	0		120	46.0	2.5	/experiments/knapen_AOT/AOT_stimuli/rescaled_final/2164_fw.mp4	0.0	233.4302487373352	1.0084750652313232
48	217.38255333900452	pulse	0	t		46.0	2.5	/experiments/knapen_AOT/AOT_stimuli/rescaled_final/2164_fw.mp4	0.0	233.6137421131134	
48	218.20753502845764	movie	1		264	46.0	2.5	/experiments/knapen_AOT/AOT_stimuli/rescaled_final/2164_fw.mp4	0.0	234.43872380256653	2.492027521133423
48	218.9812433719635	pulse	1	t		46.0	2.5	/experiments/knapen_AOT/AOT_stimuli/rescaled_final/2164_fw.mp4	0.0	235.2124321460724	
48	220.58143758773804	pulse	1	t		46.0	2.5	/experiments/knapen_AOT/AOT_stimuli/rescaled_final/2164_fw.mp4	0.0	236.81262636184692	
48	220.69956254959106	fix_post	2		12	46.0	2.5	/experiments/knapen_AOT/AOT_stimuli/rescaled_final/2164_fw.mp4	0.0	236.93075132369995	0.10000824928283691
49	220.7995707988739	fix_pre	0		120	47.0	2.5	blank	1.0	237.0307595729828	1.0001564025878906
49	221.7997272014618	movie	1		300	47.0	2.5	blank	1.0	238.03091597557068	2.5003583431243896
49	222.183336019516	pulse	1	t		47.0	2.5	blank	1.0	238.41452479362488	
49	223.7836151123047	pulse	1	t		47.0	2.5	blank	1.0	240.01480388641357	
49	224.30008554458618	fix_post	2		12	47.0	2.5	blank	1.0	240.53127431869507	0.10002803802490234
50	224.40011358261108	fix_pre	0		119	48.0	2.5	/experiments/knapen_AOT/AOT_stimuli/rescaled_final/0891_fw.mp4	0.0	240.63130235671997	1.0003879070281982
50	225.38382530212402	pulse	0	t		48.0	2.5	/experiments/knapen_AOT/AOT_stimuli/rescaled_final/0891_fw.mp4	0.0	241.6150140762329	
50	225.40050148963928	movie	1		293	48.0	2.5	/experiments/knapen_AOT/AOT_stimuli/rescaled_final/0891_fw.mp4	0.0	241.63169026374817	2.5001306533813477
50	226.98221564292908	pulse	1	t		48.0	2.5	/experiments/knapen_AOT/AOT_stimuli/rescaled_final/0891_fw.mp4	0.0	243.21340441703796	
50	227.90063214302063	fix_post	2		12	48.0	2.5	/experiments/knapen_AOT/AOT_stimuli/rescaled_final/0891_fw.mp4	0.0	244.13182091712952	0.10002374649047852
51	228.0006558895111	fix_pre	0		120	49.0	2.5	/experiments/knapen_AOT/AOT_stimuli/rescaled_final/0619_rv.mp4	0.0	244.23184466362	1.008516788482666
51	228.57690930366516	pulse	0	t		49.0	2.5	/experiments/knapen_AOT/AOT_stimuli/rescaled_final/0619_rv.mp4	0.0	244.80809807777405	
51	229.00917267799377	movie	1		283	49.0	2.5	/experiments/knapen_AOT/AOT_stimuli/rescaled_final/0619_rv.mp4	0.0	245.24036145210266	2.492063045501709
51	230.1829969882965	pulse	1	t		49.0	2.5	/experiments/knapen_AOT/AOT_stimuli/rescaled_final/0619_rv.mp4	0.0	246.4141857624054	
51	231.50123572349548	fix_post	2		12	49.0	2.5	/experiments/knapen_AOT/AOT_stimuli/rescaled_final/0619_rv.mp4	0.0	247.73242449760437	0.10000991821289062
52	231.60124564170837	fix_pre	0		120	50.0	2.5	/experiments/knapen_AOT/AOT_stimuli/rescaled_final/1302_rv.mp4	0.0	247.83243441581726	1.0084497928619385
52	231.77781057357788	pulse	0	t		50.0	2.5	/experiments/knapen_AOT/AOT_stimuli/rescaled_final/1302_rv.mp4	0.0	248.00899934768677	
52	232.6096954345703	movie	1		281	50.0	2.5	/experiments/knapen_AOT/AOT_stimuli/rescaled_final/1302_rv.mp4	0.0	248.8408842086792	2.492056369781494
52	233.37682175636292	pulse	1	t		50.0	2.5	/experiments/knapen_AOT/AOT_stimuli/rescaled_final/1302_rv.mp4	0.0	249.6080105304718	
52	234.97707343101501	pulse	1	t		50.0	2.5	/experiments/knapen_AOT/AOT_stimuli/rescaled_final/1302_rv.mp4	0.0	251.2082622051239	
52	235.1017518043518	fix_post	2		12	50.0	2.5	/experiments/knapen_AOT/AOT_stimuli/rescaled_final/1302_rv.mp4	0.0	251.3329405784607	0.10000085830688477
53	235.2017526626587	fix_pre	0		120	51.0	2.5	/experiments/knapen_AOT/AOT_stimuli/rescaled_final/1129_fw.mp4	0.0	251.43294143676758	1.0084750652313232
53	236.21022772789001	movie	1		277	51.0	2.5	/experiments/knapen_AOT/AOT_stimuli/rescaled_final/1129_fw.mp4	0.0	252.4414165019989	2.4920403957366943
53	236.57760858535767	pulse	1	t		51.0	2.5	/experiments/knapen_AOT/AOT_stimuli/rescaled_final/1129_fw.mp4	0.0	252.80879735946655	
53	238.17745876312256	pulse	1	t		51.0	2.5	/experiments/knapen_AOT/AOT_stimuli/rescaled_final/1129_fw.mp4	0.0	254.40864753723145	
53	238.7022681236267	fix_post	2		12	51.0	2.5	/experiments/knapen_AOT/AOT_stimuli/rescaled_final/1129_fw.mp4	0.0	254.9334568977356	0.10003662109375
54	238.80230474472046	fix_pre	0		118	52.0	2.5	/experiments/knapen_AOT/AOT_stimuli/rescaled_final/2164_fw.mp4	0.0	255.03349351882935	0.9918251037597656
54	239.77778363227844	pulse	0	t		52.0	2.5	/experiments/knapen_AOT/AOT_stimuli/rescaled_final/2164_fw.mp4	0.0	256.00897240638733	
54	239.79412984848022	movie	1		279	52.0	2.5	/experiments/knapen_AOT/AOT_stimuli/rescaled_final/2164_fw.mp4	0.0	256.0253186225891	2.500511646270752
54	241.37790155410767	pulse	1	t		52.0	2.5	/experiments/knapen_AOT/AOT_stimuli/rescaled_final/2164_fw.mp4	0.0	257.60909032821655	
54	242.29464149475098	fix_post	2		12	52.0	2.5	/experiments/knapen_AOT/AOT_stimuli/rescaled_final/2164_fw.mp4	0.0	258.52583026885986	0.09985208511352539
55	242.3944935798645	fix_pre	0		120	53.0	2.5	/experiments/knapen_AOT/AOT_stimuli/rescaled_final/1624_fw.mp4	0.0	258.6256823539734	1.0084803104400635
55	242.97815108299255	pulse	0	t		53.0	2.5	/experiments/knapen_AOT/AOT_stimuli/rescaled_final/1624_fw.mp4	0.0	259.20933985710144	
55	243.40297389030457	movie	1		279	53.0	2.5	/experiments/knapen_AOT/AOT_stimuli/rescaled_final/1624_fw.mp4	0.0	259.63416266441345	2.4920382499694824
55	244.57727122306824	pulse	1	t		53.0	2.5	/experiments/knapen_AOT/AOT_stimuli/rescaled_final/1624_fw.mp4	0.0	260.8084599971771	
55	245.89501214027405	fix_post	2		12	53.0	2.5	/experiments/knapen_AOT/AOT_stimuli/rescaled_final/1624_fw.mp4	0.0	262.12620091438293	0.10001635551452637
56	245.99502849578857	fix_pre	0		120	54.0	2.5	blank	1.0	262.22621726989746	1.000169277191162
56	246.17866897583008	pulse	0	t		54.0	2.5	blank	1.0	262.40985774993896	
56	246.99519777297974	movie	1		300	54.0	2.5	blank	1.0	263.2263865470886	2.5003552436828613
56	247.77913451194763	pulse	1	t		54.0	2.5	blank	1.0	264.0103232860565	
56	249.37908339500427	pulse	1	t		54.0	2.5	blank	1.0	265.61027216911316	
56	249.4955530166626	fix_post	2		12	54.0	2.5	blank	1.0	265.7267417907715	0.1001133918762207
57	249.59566640853882	fix_pre	0		120	55.0	2.5	/experiments/knapen_AOT/AOT_stimuli/rescaled_final/2023_rv.mp4	0.0	265.8268551826477	1.0084469318389893
57	250.6041133403778	movie	1		282	55.0	2.5	/experiments/knapen_AOT/AOT_stimuli/rescaled_final/2023_rv.mp4	0.0	266.8353021144867	2.4919843673706055
57	250.977365732193	pulse	1	t		55.0	2.5	/experiments/knapen_AOT/AOT_stimuli/rescaled_final/2023_rv.mp4	0.0	267.2085545063019	
57	252.57753205299377	pulse	1	t		55.0	2.5	/experiments/knapen_AOT/AOT_stimuli/rescaled_final/2023_rv.mp4	0.0	268.80872082710266	
57	253.0960977077484	fix_post	2		12	55.0	2.5	/experiments/knapen_AOT/AOT_stimuli/rescaled_final/2023_rv.mp4	0.0	269.3272864818573	0.10001873970031738
58	253.19611644744873	fix_pre	0		119	56.0	2.5	/experiments/knapen_AOT/AOT_stimuli/rescaled_final/1055_fw.mp4	0.0	269.4273052215576	1.000187873840332
58	254.17984580993652	pulse	0	t		56.0	2.5	/experiments/knapen_AOT/AOT_stimuli/rescaled_final/1055_fw.mp4	0.0	270.4110345840454	
58	254.19630432128906	movie	1		288	56.0	2.5	/experiments/knapen_AOT/AOT_stimuli/rescaled_final/1055_fw.mp4	0.0	270.42749309539795	2.5003693103790283
58	255.7796585559845	pulse	1	t		56.0	2.5	/experiments/knapen_AOT/AOT_stimuli/rescaled_final/1055_fw.mp4	0.0	272.0108473300934	
58	256.6966736316681	fix_post	2		12	56.0	2.5	/experiments/knapen_AOT/AOT_stimuli/rescaled_final/1055_fw.mp4	0.0	272.927862405777	0.09998893737792969
59	256.796662569046	fix_pre	0		120	57.0	2.5	/experiments/knapen_AOT/AOT_stimuli/rescaled_final/1981_fw.mp4	0.0	273.0278513431549	1.0085465908050537
59	257.38024044036865	pulse	0	t		57.0	2.5	/experiments/knapen_AOT/AOT_stimuli/rescaled_final/1981_fw.mp4	0.0	273.61142921447754	
59	257.8052091598511	movie	1		288	57.0	2.5	/experiments/knapen_AOT/AOT_stimuli/rescaled_final/1981_fw.mp4	0.0	274.03639793395996	2.4919891357421875
59	258.9784994125366	pulse	1	t		57.0	2.5	/experiments/knapen_AOT/AOT_stimuli/rescaled_final/1981_fw.mp4	0.0	275.2096881866455	
59	260.29719829559326	fix_post	2		12	57.0	2.5	/experiments/knapen_AOT/AOT_stimuli/rescaled_final/1981_fw.mp4	0.0	276.52838706970215	0.10002517700195312
60	260.3972234725952	fix_pre	0		120	58.0	2.5	/experiments/knapen_AOT/AOT_stimuli/rescaled_final/0775_rv.mp4	0.0	276.6284122467041	1.0084905624389648
60	260.58095026016235	pulse	0	t		58.0	2.5	/experiments/knapen_AOT/AOT_stimuli/rescaled_final/0775_rv.mp4	0.0	276.81213903427124	
60	261.4057140350342	movie	1		283	58.0	2.5	/experiments/knapen_AOT/AOT_stimuli/rescaled_final/0775_rv.mp4	0.0	277.63690280914307	2.492015838623047
60	262.17920446395874	pulse	1	t		58.0	2.5	/experiments/knapen_AOT/AOT_stimuli/rescaled_final/0775_rv.mp4	0.0	278.4103932380676	
60	263.78036093711853	pulse	1	t		58.0	2.5	/experiments/knapen_AOT/AOT_stimuli/rescaled_final/0775_rv.mp4	0.0	280.0115497112274	
60	263.8977298736572	fix_post	2		12	58.0	2.5	/experiments/knapen_AOT/AOT_stimuli/rescaled_final/0775_rv.mp4	0.0	280.1289186477661	0.10006833076477051
61	263.997798204422	fix_pre	0		120	59.0	2.5	/experiments/knapen_AOT/AOT_stimuli/rescaled_final/1460_rv.mp4	0.0	280.2289869785309	1.0084946155548096
61	265.0062928199768	movie	1		273	59.0	2.5	/experiments/knapen_AOT/AOT_stimuli/rescaled_final/1460_rv.mp4	0.0	281.2374815940857	2.4919755458831787
61	265.379732131958	pulse	1	t		59.0	2.5	/experiments/knapen_AOT/AOT_stimuli/rescaled_final/1460_rv.mp4	0.0	281.6109209060669	
61	266.9805407524109	pulse	1	t		59.0	2.5	/experiments/knapen_AOT/AOT_stimuli/rescaled_final/1460_rv.mp4	0.0	283.2117295265198	
61	267.49826836586	fix_post	2		12	59.0	2.5	/experiments/knapen_AOT/AOT_stimuli/rescaled_final/1460_rv.mp4	0.0	283.7294571399689	0.1000363826751709
62	267.59830474853516	fix_pre	0		119	60.0	2.5	/experiments/knapen_AOT/AOT_stimuli/rescaled_final/0218_rv.mp4	0.0	283.82949352264404	1.000218152999878
62	268.582448720932	pulse	0	t		60.0	2.5	/experiments/knapen_AOT/AOT_stimuli/rescaled_final/0218_rv.mp4	0.0	284.8136374950409	
62	268.59852290153503	movie	1		283	60.0	2.5	/experiments/knapen_AOT/AOT_stimuli/rescaled_final/0218_rv.mp4	0.0	284.8297116756439	2.5003175735473633
62	270.1808912754059	pulse	1	t		60.0	2.5	/experiments/knapen_AOT/AOT_stimuli/rescaled_final/0218_rv.mp4	0.0	286.41208004951477	
62	271.0988404750824	fix_post	2		12	60.0	2.5	/experiments/knapen_AOT/AOT_stimuli/rescaled_final/0218_rv.mp4	0.0	287.3300292491913	0.09999752044677734
63	271.1988379955292	fix_pre	0		120	61.0	2.5	/experiments/knapen_AOT/AOT_stimuli/rescaled_final/1194_rv.mp4	0.0	287.43002676963806	1.0085053443908691
63	271.78243255615234	pulse	0	t		61.0	2.5	/experiments/knapen_AOT/AOT_stimuli/rescaled_final/1194_rv.mp4	0.0	288.01362133026123	
63	272.20734333992004	movie	1		287	61.0	2.5	/experiments/knapen_AOT/AOT_stimuli/rescaled_final/1194_rv.mp4	0.0	288.43853211402893	2.4920389652252197
63	273.3823809623718	pulse	1	t		61.0	2.5	/experiments/knapen_AOT/AOT_stimuli/rescaled_final/1194_rv.mp4	0.0	289.6135697364807	
63	274.69938230514526	fix_post	2		12	61.0	2.5	/experiments/knapen_AOT/AOT_stimuli/rescaled_final/1194_rv.mp4	0.0	290.93057107925415	0.10006904602050781
64	274.79945135116577	fix_pre	0		120	62.0	2.5	blank	1.0	291.03064012527466	1.0000557899475098
64	274.98304271698	pulse	0	t		62.0	2.5	blank	1.0	291.21423149108887	
64	275.7995071411133	movie	1		300	62.0	2.5	blank	1.0	292.03069591522217	2.500380754470825
64	276.58329582214355	pulse	1	t		62.0	2.5	blank	1.0	292.81448459625244	
64	278.18352603912354	pulse	1	t		62.0	2.5	blank	1.0	294.4147148132324	
64	278.2998878955841	fix_post	2		12	62.0	2.5	blank	1.0	294.531076669693	0.10010719299316406
65	278.39999508857727	fix_pre	0		120	63.0	2.5	/experiments/knapen_AOT/AOT_stimuli/rescaled_final/1157_fw.mp4	0.0	294.63118386268616	1.008453130722046
65	279.4084482192993	movie	1		283	63.0	2.5	/experiments/knapen_AOT/AOT_stimuli/rescaled_final/1157_fw.mp4	0.0	295.6396369934082	2.492002010345459
65	279.7822549343109	pulse	1	t		63.0	2.5	/experiments/knapen_AOT/AOT_stimuli/rescaled_final/1157_fw.mp4	0.0	296.0134437084198	
65	281.38177394866943	pulse	1	t		63.0	2.5	/experiments/knapen_AOT/AOT_stimuli/rescaled_final/1157_fw.mp4	0.0	297.6129627227783	
65	281.9004502296448	fix_post	2		12	63.0	2.5	/experiments/knapen_AOT/AOT_stimuli/rescaled_final/1157_fw.mp4	0.0	298.13163900375366	0.09999632835388184
66	282.00044655799866	fix_pre	0		118	64.0	2.5	/experiments/knapen_AOT/AOT_stimuli/rescaled_final/0526_rv.mp4	0.0	298.23163533210754	0.9918477535247803
66	282.9761497974396	pulse	0	t		64.0	2.5	/experiments/knapen_AOT/AOT_stimuli/rescaled_final/0526_rv.mp4	0.0	299.20733857154846	
66	282.99229431152344	movie	1		287	64.0	2.5	/experiments/knapen_AOT/AOT_stimuli/rescaled_final/0526_rv.mp4	0.0	299.2234830856323	2.5003561973571777
66	284.57628631591797	pulse	1	t		64.0	2.5	/experiments/knapen_AOT/AOT_stimuli/rescaled_final/0526_rv.mp4	0.0	300.80747509002686	
66	285.4926505088806	fix_post	2		12	64.0	2.5	/experiments/knapen_AOT/AOT_stimuli/rescaled_final/0526_rv.mp4	0.0	301.7238392829895	0.10004949569702148
67	285.59270000457764	fix_pre	0		120	65.0	2.5	/experiments/knapen_AOT/AOT_stimuli/rescaled_final/1673_fw.mp4	0.0	301.8238887786865	1.0086441040039062
67	286.1763343811035	pulse	0	t		65.0	2.5	/experiments/knapen_AOT/AOT_stimuli/rescaled_final/1673_fw.mp4	0.0	302.4075231552124	
67	286.60134410858154	movie	1		264	65.0	2.5	/experiments/knapen_AOT/AOT_stimuli/rescaled_final/1673_fw.mp4	0.0	302.83253288269043	2.491830587387085
67	287.776517868042	pulse	1	t		65.0	2.5	/experiments/knapen_AOT/AOT_stimuli/rescaled_final/1673_fw.mp4	0.0	304.0077066421509	
67	289.0931746959686	fix_post	2		12	65.0	2.5	/experiments/knapen_AOT/AOT_stimuli/rescaled_final/1673_fw.mp4	0.0	305.3243634700775	0.10001969337463379
68	289.19319438934326	fix_pre	0		120	66.0	2.5	/experiments/knapen_AOT/AOT_stimuli/rescaled_final/0867_fw.mp4	0.0	305.42438316345215	1.008547306060791
68	289.3767776489258	pulse	0	t		66.0	2.5	/experiments/knapen_AOT/AOT_stimuli/rescaled_final/0867_fw.mp4	0.0	305.60796642303467	
68	290.20174169540405	movie	1		284	66.0	2.5	/experiments/knapen_AOT/AOT_stimuli/rescaled_final/0867_fw.mp4	0.0	306.43293046951294	2.491992950439453
68	290.9770448207855	pulse	1	t		66.0	2.5	/experiments/knapen_AOT/AOT_stimuli/rescaled_final/0867_fw.mp4	0.0	307.2082335948944	
68	292.5773606300354	pulse	1	t		66.0	2.5	/experiments/knapen_AOT/AOT_stimuli/rescaled_final/0867_fw.mp4	0.0	308.8085494041443	
68	292.6937346458435	fix_post	2		12	66.0	2.5	/experiments/knapen_AOT/AOT_stimuli/rescaled_final/0867_fw.mp4	0.0	308.9249234199524	0.10001230239868164
69	292.7937469482422	fix_pre	0		120	67.0	2.5	/experiments/knapen_AOT/AOT_stimuli/rescaled_final/1948_rv.mp4	0.0	309.0249357223511	1.0085170269012451
69	293.80226397514343	movie	1		276	67.0	2.5	/experiments/knapen_AOT/AOT_stimuli/rescaled_final/1948_rv.mp4	0.0	310.0334527492523	2.492044448852539
69	294.1775588989258	pulse	1	t		67.0	2.5	/experiments/knapen_AOT/AOT_stimuli/rescaled_final/1948_rv.mp4	0.0	310.40874767303467	
69	295.77789402008057	pulse	1	t		67.0	2.5	/experiments/knapen_AOT/AOT_stimuli/rescaled_final/1948_rv.mp4	0.0	312.00908279418945	
69	296.294308423996	fix_post	2		12	67.0	2.5	/experiments/knapen_AOT/AOT_stimuli/rescaled_final/1948_rv.mp4	0.0	312.52549719810486	0.1000216007232666
70	296.39433002471924	fix_pre	0		119	68.0	2.5	/experiments/knapen_AOT/AOT_stimuli/rescaled_final/1921_rv.mp4	0.0	312.6255187988281	1.0002403259277344
70	297.37808561325073	pulse	0	t		68.0	2.5	/experiments/knapen_AOT/AOT_stimuli/rescaled_final/1921_rv.mp4	0.0	313.6092743873596	
70	297.394570350647	movie	1		275	68.0	2.5	/experiments/knapen_AOT/AOT_stimuli/rescaled_final/1921_rv.mp4	0.0	313.62575912475586	2.5002458095550537
70	298.97671604156494	pulse	1	t		68.0	2.5	/experiments/knapen_AOT/AOT_stimuli/rescaled_final/1921_rv.mp4	0.0	315.2079048156738	
70	299.894816160202	fix_post	2		12	68.0	2.5	/experiments/knapen_AOT/AOT_stimuli/rescaled_final/1921_rv.mp4	0.0	316.1260049343109	0.10000729560852051
71	299.99482345581055	fix_pre	0		120	69.0	2.5	blank	1.0	316.22601222991943	1.0001792907714844
71	300.57856726646423	pulse	0	t		69.0	2.5	blank	1.0	316.8097560405731	
71	300.99500274658203	movie	1		300	69.0	2.5	blank	1.0	317.2261915206909	2.5003533363342285
71	302.1787602901459	pulse	1	t		69.0	2.5	blank	1.0	318.40994906425476	
71	303.49535608291626	fix_post	2		12	69.0	2.5	blank	1.0	319.72654485702515	0.10002017021179199
72	303.59537625312805	fix_pre	0		120	70.0	2.5	/experiments/knapen_AOT/AOT_stimuli/rescaled_final/0820_fw.mp4	0.0	319.82656502723694	1.0084748268127441
72	303.7789032459259	pulse	0	t		70.0	2.5	/experiments/knapen_AOT/AOT_stimuli/rescaled_final/0820_fw.mp4	0.0	320.0100920200348	
72	304.6038510799408	movie	1		278	70.0	2.5	/experiments/knapen_AOT/AOT_stimuli/rescaled_final/0820_fw.mp4	0.0	320.8350398540497	2.4920341968536377
72	305.37841725349426	pulse	1	t		70.0	2.5	/experiments/knapen_AOT/AOT_stimuli/rescaled_final/0820_fw.mp4	0.0	321.60960602760315	
72	306.97886538505554	pulse	1	t		70.0	2.5	/experiments/knapen_AOT/AOT_stimuli/rescaled_final/0820_fw.mp4	0.0	323.21005415916443	
72	307.09588527679443	fix_post	2		12	70.0	2.5	/experiments/knapen_AOT/AOT_stimuli/rescaled_final/0820_fw.mp4	0.0	323.3270740509033	0.10003280639648438
73	307.1959180831909	fix_pre	0		120	71.0	2.5	/experiments/knapen_AOT/AOT_stimuli/rescaled_final/1907_fw.mp4	0.0	323.4271068572998	1.008577585220337
73	308.20449566841125	movie	1		288	71.0	2.5	/experiments/knapen_AOT/AOT_stimuli/rescaled_final/1907_fw.mp4	0.0	324.43568444252014	2.4919395446777344
73	308.5791127681732	pulse	1	t		71.0	2.5	/experiments/knapen_AOT/AOT_stimuli/rescaled_final/1907_fw.mp4	0.0	324.8103015422821	
73	310.1781301498413	pulse	1	t		71.0	2.5	/experiments/knapen_AOT/AOT_stimuli/rescaled_final/1907_fw.mp4	0.0	326.4093189239502	
73	310.696435213089	fix_post	2		12	71.0	2.5	/experiments/knapen_AOT/AOT_stimuli/rescaled_final/1907_fw.mp4	0.0	326.9276239871979	0.09998393058776855
74	310.79641914367676	fix_pre	0		119	72.0	2.5	/experiments/knapen_AOT/AOT_stimuli/rescaled_final/0992_rv.mp4	0.0	327.02760791778564	1.0001945495605469
74	311.7804431915283	pulse	0	t		72.0	2.5	/experiments/knapen_AOT/AOT_stimuli/rescaled_final/0992_rv.mp4	0.0	328.0116319656372	
74	311.7966136932373	movie	1		271	72.0	2.5	/experiments/knapen_AOT/AOT_stimuli/rescaled_final/0992_rv.mp4	0.0	328.0278024673462	2.500415563583374
74	313.37912678718567	pulse	1	t		72.0	2.5	/experiments/knapen_AOT/AOT_stimuli/rescaled_final/0992_rv.mp4	0.0	329.61031556129456	
74	314.2970292568207	fix_post	2		12	72.0	2.5	/experiments/knapen_AOT/AOT_stimuli/rescaled_final/0992_rv.mp4	0.0	330.52821803092957	0.09995913505554199
75	314.3969883918762	fix_pre	0		120	73.0	2.5	/experiments/knapen_AOT/AOT_stimuli/rescaled_final/0291_rv.mp4	0.0	330.6281771659851	1.0085172653198242
75	314.9806389808655	pulse	0	t		73.0	2.5	/experiments/knapen_AOT/AOT_stimuli/rescaled_final/0291_rv.mp4	0.0	331.21182775497437	
75	315.40550565719604	movie	1		286	73.0	2.5	/experiments/knapen_AOT/AOT_stimuli/rescaled_final/0291_rv.mp4	0.0	331.63669443130493	2.492011070251465
75	316.57935881614685	pulse	1	t		73.0	2.5	/experiments/knapen_AOT/AOT_stimuli/rescaled_final/0291_rv.mp4	0.0	332.81054759025574	
75	317.8975167274475	fix_post	2		12	73.0	2.5	/experiments/knapen_AOT/AOT_stimuli/rescaled_final/0291_rv.mp4	0.0	334.1287055015564	0.10006141662597656
76	317.9975781440735	fix_pre	0		120	74.0	2.5	/experiments/knapen_AOT/AOT_stimuli/rescaled_final/1852_rv.mp4	0.0	334.2287669181824	1.008460521697998
76	318.1812608242035	pulse	0	t		74.0	2.5	/experiments/knapen_AOT/AOT_stimuli/rescaled_final/1852_rv.mp4	0.0	334.4124495983124	
76	319.0060386657715	movie	1		285	74.0	2.5	/experiments/knapen_AOT/AOT_stimuli/rescaled_final/1852_rv.mp4	0.0	335.23722743988037	2.5003769397735596
76	319.78077268600464	pulse	1	t		74.0	2.5	/experiments/knapen_AOT/AOT_stimuli/rescaled_final/1852_rv.mp4	0.0	336.0119614601135	
76	321.37959146499634	pulse	1	t		74.0	2.5	/experiments/knapen_AOT/AOT_stimuli/rescaled_final/1852_rv.mp4	0.0	337.6107802391052	
76	321.50641560554504	fix_post	2		11	74.0	2.5	/experiments/knapen_AOT/AOT_stimuli/rescaled_final/1852_rv.mp4	0.0	337.73760437965393	0.09164667129516602
77	321.5980622768402	fix_pre	0		120	75.0	2.5	/experiments/knapen_AOT/AOT_stimuli/rescaled_final/1689_fw.mp4	0.0	337.8292510509491	1.008519172668457
77	322.60658144950867	movie	1		278	75.0	2.5	/experiments/knapen_AOT/AOT_stimuli/rescaled_final/1689_fw.mp4	0.0	338.83777022361755	2.4920225143432617
77	322.9815981388092	pulse	1	t		75.0	2.5	/experiments/knapen_AOT/AOT_stimuli/rescaled_final/1689_fw.mp4	0.0	339.2127869129181	
77	324.58016085624695	pulse	1	t		75.0	2.5	/experiments/knapen_AOT/AOT_stimuli/rescaled_final/1689_fw.mp4	0.0	340.81134963035583	
77	325.09860396385193	fix_post	2		11	75.0	2.5	/experiments/knapen_AOT/AOT_stimuli/rescaled_final/1689_fw.mp4	0.0	341.3297927379608	0.10002017021179199
78	325.1986241340637	fix_pre	0		119	76.0	2.5	/experiments/knapen_AOT/AOT_stimuli/rescaled_final/1406_rv.mp4	0.0	341.4298129081726	1.0001535415649414
78	326.18230676651	pulse	0	t		76.0	2.5	/experiments/knapen_AOT/AOT_stimuli/rescaled_final/1406_rv.mp4	0.0	342.4134955406189	
78	326.19877767562866	movie	1		288	76.0	2.5	/experiments/knapen_AOT/AOT_stimuli/rescaled_final/1406_rv.mp4	0.0	342.42996644973755	2.5003883838653564
78	327.78209805488586	pulse	1	t		76.0	2.5	/experiments/knapen_AOT/AOT_stimuli/rescaled_final/1406_rv.mp4	0.0	344.01328682899475	
78	328.699166059494	fix_post	2		12	76.0	2.5	/experiments/knapen_AOT/AOT_stimuli/rescaled_final/1406_rv.mp4	0.0	344.9303548336029	0.10001969337463379
79	328.79918575286865	fix_pre	0		120	77.0	2.5	blank	1.0	345.03037452697754	1.0001094341278076
79	329.3828036785126	pulse	0	t		77.0	2.5	blank	1.0	345.61399245262146	
79	329.79929518699646	movie	1		300	77.0	2.5	blank	1.0	346.03048396110535	2.500387668609619
79	330.9830107688904	pulse	1	t		77.0	2.5	blank	1.0	347.21419954299927	
79	332.2996828556061	fix_post	2		12	77.0	2.5	blank	1.0	348.53087162971497	0.1000373363494873
80	332.39972019195557	fix_pre	0		120	78.0	2.5	/experiments/knapen_AOT/AOT_stimuli/rescaled_final/0976_fw.mp4	0.0	348.63090896606445	1.0084736347198486
80	332.58333826065063	pulse	0	t		78.0	2.5	/experiments/knapen_AOT/AOT_stimuli/rescaled_final/0976_fw.mp4	0.0	348.8145270347595	
80	333.4081938266754	movie	1		283	78.0	2.5	/experiments/knapen_AOT/AOT_stimuli/rescaled_final/0976_fw.mp4	0.0	349.6393826007843	2.4920759201049805
80	334.18134331703186	pulse	1	t		78.0	2.5	/experiments/knapen_AOT/AOT_stimuli/rescaled_final/0976_fw.mp4	0.0	350.41253209114075	
80	335.7820541858673	pulse	1	t		78.0	2.5	/experiments/knapen_AOT/AOT_stimuli/rescaled_final/0976_fw.mp4	0.0	352.0132429599762	
80	335.9002697467804	fix_post	2		12	78.0	2.5	/experiments/knapen_AOT/AOT_stimuli/rescaled_final/0976_fw.mp4	0.0	352.1314585208893	0.09998035430908203
81	336.0002501010895	fix_pre	0		120	79.0	2.5	/experiments/knapen_AOT/AOT_stimuli/rescaled_final/2177_fw.mp4	0.0	352.23143887519836	1.0086278915405273
81	337.00887799263	movie	1		263	79.0	2.5	/experiments/knapen_AOT/AOT_stimuli/rescaled_final/2177_fw.mp4	0.0	353.2400667667389	2.4919755458831787
81	337.38426208496094	pulse	1	t		79.0	2.5	/experiments/knapen_AOT/AOT_stimuli/rescaled_final/2177_fw.mp4	0.0	353.6154508590698	
81	338.9823794364929	pulse	1	t		79.0	2.5	/experiments/knapen_AOT/AOT_stimuli/rescaled_final/2177_fw.mp4	0.0	355.2135682106018	
81	339.5008535385132	fix_post	2		12	79.0	2.5	/experiments/knapen_AOT/AOT_stimuli/rescaled_final/2177_fw.mp4	0.0	355.73204231262207	0.09998559951782227
82	339.600839138031	fix_pre	0		119	80.0	2.5	/experiments/knapen_AOT/AOT_stimuli/rescaled_final/0213_rv.mp4	0.0	355.8320279121399	1.0000925064086914
82	340.5772383213043	pulse	0	t		80.0	2.5	/experiments/knapen_AOT/AOT_stimuli/rescaled_final/0213_rv.mp4	0.0	356.8084270954132	
82	340.6009316444397	movie	1		268	80.0	2.5	/experiments/knapen_AOT/AOT_stimuli/rescaled_final/0213_rv.mp4	0.0	356.8321204185486	2.5003933906555176
82	342.1768214702606	pulse	1	t		80.0	2.5	/experiments/knapen_AOT/AOT_stimuli/rescaled_final/0213_rv.mp4	0.0	358.4080102443695	
82	343.1013250350952	fix_post	2		12	80.0	2.5	/experiments/knapen_AOT/AOT_stimuli/rescaled_final/0213_rv.mp4	0.0	359.3325138092041	0.10001969337463379
83	343.20134472846985	fix_pre	0		120	81.0	2.5	/experiments/knapen_AOT/AOT_stimuli/rescaled_final/0789_rv.mp4	0.0	359.43253350257874	1.0084853172302246
83	343.7766635417938	pulse	0	t		81.0	2.5	/experiments/knapen_AOT/AOT_stimuli/rescaled_final/0789_rv.mp4	0.0	360.0078523159027	
83	344.2098300457001	movie	1		278	81.0	2.5	/experiments/knapen_AOT/AOT_stimuli/rescaled_final/0789_rv.mp4	0.0	360.44101881980896	2.492023468017578
83	345.376900434494	pulse	1	t		81.0	2.5	/experiments/knapen_AOT/AOT_stimuli/rescaled_final/0789_rv.mp4	0.0	361.6080892086029	
83	346.70185351371765	fix_post	2		12	81.0	2.5	/experiments/knapen_AOT/AOT_stimuli/rescaled_final/0789_rv.mp4	0.0	362.93304228782654	0.1000373363494873
84	346.80189085006714	fix_pre	0		120	82.0	2.5	/experiments/knapen_AOT/AOT_stimuli/rescaled_final/1460_rv.mp4	0.0	363.033079624176	1.0085031986236572
84	346.9770793914795	pulse	0	t		82.0	2.5	/experiments/knapen_AOT/AOT_stimuli/rescaled_final/1460_rv.mp4	0.0	363.2082681655884	
84	347.8103940486908	movie	1		273	82.0	2.5	/experiments/knapen_AOT/AOT_stimuli/rescaled_final/1460_rv.mp4	0.0	364.0415828227997	2.4920766353607178
84	348.5774927139282	pulse	1	t		82.0	2.5	/experiments/knapen_AOT/AOT_stimuli/rescaled_final/1460_rv.mp4	0.0	364.8086814880371	
84	350.1777033805847	pulse	1	t		82.0	2.5	/experiments/knapen_AOT/AOT_stimuli/rescaled_final/1460_rv.mp4	0.0	366.4088921546936	
84	350.3024706840515	fix_post	2		12	82.0	2.5	/experiments/knapen_AOT/AOT_stimuli/rescaled_final/1460_rv.mp4	0.0	366.5336594581604	0.09995245933532715
85	350.40242314338684	fix_pre	0		120	83.0	2.5	blank	1.0	366.6336119174957	1.0001261234283447
85	351.4025492668152	movie	1		300	83.0	2.5	blank	1.0	367.6337380409241	2.500396251678467
85	351.77792859077454	pulse	1	t		83.0	2.5	blank	1.0	368.0091173648834	
85	353.378125667572	pulse	1	t		83.0	2.5	blank	1.0	369.6093144416809	
85	353.90294551849365	fix_post	2		12	83.0	2.5	blank	1.0	370.13413429260254	0.1334998607635498
87	354.0364453792572	stim	0		1711					370.2676341533661	14.260342597961426
87	354.97856092453003	pulse	0	t						371.2097496986389	
87	356.5786302089691	pulse	0	t						372.809818983078	
87	358.1788363456726	pulse	0	t						374.4100251197815	
87	359.779324054718	pulse	0	t						376.0105128288269	
87	361.3792955875397	pulse	0	t						377.61048436164856	
87	362.97951555252075	pulse	0	t						379.21070432662964	
87	364.57981061935425	pulse	0	t						380.81099939346313	
87	366.18000292778015	pulse	0	t						382.41119170188904	
87	367.78035044670105	pulse	0	t						384.01153922080994	
