trial_nr	onset	event_type	phase	response	nr_frames	movie_index	movie_duration	movie_file	blank	onset_abs	duration
0	0.14997196197509766	stim	0		184					21.825331926345825	1.5416698455810547
0	1.6835458278656006	response	0	space						23.358905792236328	
1	1.6916418075561523	stim	0		12488					23.36700177192688	104.0661780834198
1	105.75226378440857	pulse	0	t						127.4276237487793	
1	105.75781989097595	stim	1		1717					127.43317985534668	14.30829906463623
1	107.34964895248413	pulse	1	t						129.02500891685486	
1	108.94962191581726	pulse	1	t						130.624981880188	
1	110.54950094223022	pulse	1	t						132.22486090660095	
1	112.14958500862122	pulse	1	t						133.82494497299194	
1	113.74960994720459	pulse	1	t						135.42496991157532	
1	115.34955883026123	pulse	1	t						137.02491879463196	
1	116.94963788986206	pulse	1	t						138.6249978542328	
1	118.54976201057434	pulse	1	t						140.22512197494507	
2	120.06611895561218	fix_pre	0		11	0.0	2.5	/experiments/AOT/AOT_stimuli/rescaled_final/1893_fw.mp4	0.0	141.7414789199829	0.0916290283203125
2	120.14959478378296	pulse	0	t		0.0	2.5	/experiments/AOT/AOT_stimuli/rescaled_final/1893_fw.mp4	0.0	141.8249547481537	
2	120.1577479839325	movie	1		245	0.0	2.5	/experiments/AOT/AOT_stimuli/rescaled_final/1893_fw.mp4	0.0	141.83310794830322	2.5083179473876953
2	121.74928879737854	pulse	1	t		0.0	2.5	/experiments/AOT/AOT_stimuli/rescaled_final/1893_fw.mp4	0.0	143.42464876174927	
2	122.66606593132019	fix_post	2		12	0.0	2.5	/experiments/AOT/AOT_stimuli/rescaled_final/1893_fw.mp4	0.0	144.34142589569092	0.09998297691345215
3	122.76604890823364	fix_pre	0		120	1.0	2.5	/experiments/AOT/AOT_stimuli/rescaled_final/1944_rv.mp4	0.0	144.44140887260437	0.9999620914459229
3	123.34956097602844	pulse	0	t		1.0	2.5	/experiments/AOT/AOT_stimuli/rescaled_final/1944_rv.mp4	0.0	145.02492094039917	
3	123.76601099967957	movie	1		246	1.0	2.5	/experiments/AOT/AOT_stimuli/rescaled_final/1944_rv.mp4	0.0	145.4413709640503	2.500048875808716
3	124.9495108127594	pulse	1	t		1.0	2.5	/experiments/AOT/AOT_stimuli/rescaled_final/1944_rv.mp4	0.0	146.62487077713013	
3	126.26605987548828	fix_post	2		12	1.0	2.5	/experiments/AOT/AOT_stimuli/rescaled_final/1944_rv.mp4	0.0	147.941419839859	0.09997105598449707
4	126.36603093147278	fix_pre	0		120	2.0	2.5	/experiments/AOT/AOT_stimuli/rescaled_final/1156_fw.mp4	0.0	148.0413908958435	0.9999749660491943
4	126.54953694343567	pulse	0	t		2.0	2.5	/experiments/AOT/AOT_stimuli/rescaled_final/1156_fw.mp4	0.0	148.2248969078064	
4	127.36600589752197	movie	1		243	2.0	2.5	/experiments/AOT/AOT_stimuli/rescaled_final/1156_fw.mp4	0.0	149.0413658618927	2.4995789527893066
4	128.14940094947815	pulse	1	t		2.0	2.5	/experiments/AOT/AOT_stimuli/rescaled_final/1156_fw.mp4	0.0	149.82476091384888	
4	129.74764394760132	pulse	1	t		2.0	2.5	/experiments/AOT/AOT_stimuli/rescaled_final/1156_fw.mp4	0.0	151.42300391197205	
4	129.86558485031128	fix_post	2		12	2.0	2.5	/experiments/AOT/AOT_stimuli/rescaled_final/1156_fw.mp4	0.0	151.540944814682	0.10040497779846191
5	129.96598982810974	fix_pre	0		120	3.0	2.5	/experiments/AOT/AOT_stimuli/rescaled_final/2128_fw.mp4	0.0	151.64134979248047	0.9999580383300781
5	130.96594786643982	movie	1		244	3.0	2.5	/experiments/AOT/AOT_stimuli/rescaled_final/2128_fw.mp4	0.0	152.64130783081055	2.500028133392334
5	131.34892201423645	pulse	1	t		3.0	2.5	/experiments/AOT/AOT_stimuli/rescaled_final/2128_fw.mp4	0.0	153.02428197860718	
5	132.94936394691467	pulse	1	t		3.0	2.5	/experiments/AOT/AOT_stimuli/rescaled_final/2128_fw.mp4	0.0	154.6247239112854	
5	133.46597599983215	fix_post	2		12	3.0	2.5	/experiments/AOT/AOT_stimuli/rescaled_final/2128_fw.mp4	0.0	155.14133596420288	0.09994101524353027
6	133.56591701507568	fix_pre	0		119	4.0	2.5	/experiments/AOT/AOT_stimuli/rescaled_final/1786_rv.mp4	0.0	155.2412769794464	0.9916718006134033
6	134.54949283599854	pulse	0	t		4.0	2.5	/experiments/AOT/AOT_stimuli/rescaled_final/1786_rv.mp4	0.0	156.22485280036926	
6	134.5575888156891	movie	1		245	4.0	2.5	/experiments/AOT/AOT_stimuli/rescaled_final/1786_rv.mp4	0.0	156.23294878005981	2.508418083190918
6	136.1497368812561	pulse	1	t		4.0	2.5	/experiments/AOT/AOT_stimuli/rescaled_final/1786_rv.mp4	0.0	157.82509684562683	
6	137.06600689888	fix_post	2		12	4.0	2.5	/experiments/AOT/AOT_stimuli/rescaled_final/1786_rv.mp4	0.0	158.74136686325073	0.0999460220336914
7	137.1659529209137	fix_pre	0		120	5.0	2.5	/experiments/AOT/AOT_stimuli/rescaled_final/0429_fw.mp4	0.0	158.84131288528442	1.0000948905944824
7	137.74948692321777	pulse	0	t		5.0	2.5	/experiments/AOT/AOT_stimuli/rescaled_final/0429_fw.mp4	0.0	159.4248468875885	
7	138.16604781150818	movie	1		243	5.0	2.5	/experiments/AOT/AOT_stimuli/rescaled_final/0429_fw.mp4	0.0	159.8414077758789	2.4998490810394287
7	139.3495409488678	pulse	1	t		5.0	2.5	/experiments/AOT/AOT_stimuli/rescaled_final/0429_fw.mp4	0.0	161.02490091323853	
7	140.6658968925476	fix_post	2		12	5.0	2.5	/experiments/AOT/AOT_stimuli/rescaled_final/0429_fw.mp4	0.0	162.34125685691833	0.10006093978881836
8	140.76595783233643	fix_pre	0		120	6.0	2.5	blank	1.0	162.44131779670715	0.9999551773071289
8	140.94954085350037	pulse	0	t		6.0	2.5	blank	1.0	162.6249008178711	
8	141.76591300964355	movie	1		300	6.0	2.5	blank	1.0	163.44127297401428	2.499931812286377
8	142.5494408607483	pulse	1	t		6.0	2.5	blank	1.0	164.22480082511902	
8	144.14938187599182	pulse	1	t		6.0	2.5	blank	1.0	165.82474184036255	
8	144.26584482192993	fix_post	2		12	6.0	2.5	blank	1.0	165.94120478630066	0.09996819496154785
9	144.36581301689148	fix_pre	0		120	7.0	2.5	/experiments/AOT/AOT_stimuli/rescaled_final/1037_fw.mp4	0.0	166.0411729812622	1.0000808238983154
9	145.3658938407898	movie	1		245	7.0	2.5	/experiments/AOT/AOT_stimuli/rescaled_final/1037_fw.mp4	0.0	167.04125380516052	2.4999639987945557
9	145.74898982048035	pulse	1	t		7.0	2.5	/experiments/AOT/AOT_stimuli/rescaled_final/1037_fw.mp4	0.0	167.42434978485107	
9	147.34945678710938	pulse	1	t		7.0	2.5	/experiments/AOT/AOT_stimuli/rescaled_final/1037_fw.mp4	0.0	169.0248167514801	
9	147.86585783958435	fix_post	2		12	7.0	2.5	/experiments/AOT/AOT_stimuli/rescaled_final/1037_fw.mp4	0.0	169.54121780395508	0.10009503364562988
10	147.96595287322998	fix_pre	0		119	8.0	2.5	/experiments/AOT/AOT_stimuli/rescaled_final/0310_fw.mp4	0.0	169.6413128376007	0.9916129112243652
10	148.94940996170044	pulse	0	t		8.0	2.5	/experiments/AOT/AOT_stimuli/rescaled_final/0310_fw.mp4	0.0	170.62476992607117	
10	148.95756578445435	movie	1		246	8.0	2.5	/experiments/AOT/AOT_stimuli/rescaled_final/0310_fw.mp4	0.0	170.63292574882507	2.5083260536193848
10	150.54918885231018	pulse	1	t		8.0	2.5	/experiments/AOT/AOT_stimuli/rescaled_final/0310_fw.mp4	0.0	172.2245488166809	
10	151.46589183807373	fix_post	2		12	8.0	2.5	/experiments/AOT/AOT_stimuli/rescaled_final/0310_fw.mp4	0.0	173.14125180244446	0.1000211238861084
11	151.56591296195984	fix_pre	0		120	9.0	2.5	/experiments/AOT/AOT_stimuli/rescaled_final/1704_fw.mp4	0.0	173.24127292633057	0.9999659061431885
11	152.1494379043579	pulse	0	t		9.0	2.5	/experiments/AOT/AOT_stimuli/rescaled_final/1704_fw.mp4	0.0	173.82479786872864	
11	152.56587886810303	movie	1		243	9.0	2.5	/experiments/AOT/AOT_stimuli/rescaled_final/1704_fw.mp4	0.0	174.24123883247375	2.500051975250244
11	153.74946784973145	pulse	1	t		9.0	2.5	/experiments/AOT/AOT_stimuli/rescaled_final/1704_fw.mp4	0.0	175.42482781410217	
11	155.06593084335327	fix_post	2		12	9.0	2.5	/experiments/AOT/AOT_stimuli/rescaled_final/1704_fw.mp4	0.0	176.741290807724	0.09998202323913574
12	155.1659128665924	fix_pre	0		120	10.0	2.5	/experiments/AOT/AOT_stimuli/rescaled_final/1646_fw.mp4	0.0	176.84127283096313	1.000011920928955
12	155.34942984580994	pulse	0	t		10.0	2.5	/experiments/AOT/AOT_stimuli/rescaled_final/1646_fw.mp4	0.0	177.02478981018066	
12	156.16592478752136	movie	1		242	10.0	2.5	/experiments/AOT/AOT_stimuli/rescaled_final/1646_fw.mp4	0.0	177.8412847518921	2.4999191761016846
12	156.9493088722229	pulse	1	t		10.0	2.5	/experiments/AOT/AOT_stimuli/rescaled_final/1646_fw.mp4	0.0	178.62466883659363	
12	158.54785084724426	pulse	1	t		10.0	2.5	/experiments/AOT/AOT_stimuli/rescaled_final/1646_fw.mp4	0.0	180.223210811615	
12	158.66584396362305	fix_post	2		12	10.0	2.5	/experiments/AOT/AOT_stimuli/rescaled_final/1646_fw.mp4	0.0	180.34120392799377	0.0999598503112793
13	158.76580381393433	fix_pre	0		120	11.0	2.5	/experiments/AOT/AOT_stimuli/rescaled_final/0704_fw.mp4	0.0	180.44116377830505	1.0000410079956055
13	159.76584482192993	movie	1		244	11.0	2.5	/experiments/AOT/AOT_stimuli/rescaled_final/0704_fw.mp4	0.0	181.44120478630066	2.5000171661376953
13	160.15042996406555	pulse	1	t		11.0	2.5	/experiments/AOT/AOT_stimuli/rescaled_final/0704_fw.mp4	0.0	181.82578992843628	
13	161.7493119239807	pulse	1	t		11.0	2.5	/experiments/AOT/AOT_stimuli/rescaled_final/0704_fw.mp4	0.0	183.42467188835144	
13	162.26586198806763	fix_post	2		12	11.0	2.5	/experiments/AOT/AOT_stimuli/rescaled_final/0704_fw.mp4	0.0	183.94122195243835	0.09997892379760742
14	162.36584091186523	fix_pre	0		119	12.0	2.5	/experiments/AOT/AOT_stimuli/rescaled_final/1277_rv.mp4	0.0	184.04120087623596	0.9915928840637207
14	163.34931683540344	pulse	0	t		12.0	2.5	/experiments/AOT/AOT_stimuli/rescaled_final/1277_rv.mp4	0.0	185.02467679977417	
14	163.35743379592896	movie	1		246	12.0	2.5	/experiments/AOT/AOT_stimuli/rescaled_final/1277_rv.mp4	0.0	185.03279376029968	2.5083742141723633
14	164.94890594482422	pulse	1	t		12.0	2.5	/experiments/AOT/AOT_stimuli/rescaled_final/1277_rv.mp4	0.0	186.62426590919495	
14	165.86580801010132	fix_post	2		12	12.0	2.5	/experiments/AOT/AOT_stimuli/rescaled_final/1277_rv.mp4	0.0	187.54116797447205	0.10010385513305664
15	165.96591186523438	fix_pre	0		120	13.0	2.5	blank	1.0	187.6412718296051	0.9999940395355225
15	166.54934096336365	pulse	0	t		13.0	2.5	blank	1.0	188.22470092773438	
15	166.9659059047699	movie	1		300	13.0	2.5	blank	1.0	188.64126586914062	2.4999639987945557
15	168.14932584762573	pulse	1	t		13.0	2.5	blank	1.0	189.82468581199646	
15	169.46586990356445	fix_post	2		12	13.0	2.5	blank	1.0	191.14122986793518	0.09986495971679688
16	169.56573486328125	fix_pre	0		120	14.0	2.5	/experiments/AOT/AOT_stimuli/rescaled_final/1184_rv.mp4	0.0	191.24109482765198	1.0001671314239502
16	169.74932384490967	pulse	0	t		14.0	2.5	/experiments/AOT/AOT_stimuli/rescaled_final/1184_rv.mp4	0.0	191.4246838092804	
16	170.5659019947052	movie	1		244	14.0	2.5	/experiments/AOT/AOT_stimuli/rescaled_final/1184_rv.mp4	0.0	192.24126195907593	2.499955892562866
16	171.34880995750427	pulse	1	t		14.0	2.5	/experiments/AOT/AOT_stimuli/rescaled_final/1184_rv.mp4	0.0	193.024169921875	
16	172.9474949836731	pulse	1	t		14.0	2.5	/experiments/AOT/AOT_stimuli/rescaled_final/1184_rv.mp4	0.0	194.62285494804382	
16	173.06585788726807	fix_post	2		12	14.0	2.5	/experiments/AOT/AOT_stimuli/rescaled_final/1184_rv.mp4	0.0	194.7412178516388	0.09958410263061523
17	173.16544198989868	fix_pre	0		120	15.0	2.5	/experiments/AOT/AOT_stimuli/rescaled_final/2168_fw.mp4	0.0	194.8408019542694	1.000229835510254
17	174.16567182540894	movie	1		246	15.0	2.5	/experiments/AOT/AOT_stimuli/rescaled_final/2168_fw.mp4	0.0	195.84103178977966	2.500152111053467
17	174.55001497268677	pulse	1	t		15.0	2.5	/experiments/AOT/AOT_stimuli/rescaled_final/2168_fw.mp4	0.0	196.2253749370575	
17	176.1491630077362	pulse	1	t		15.0	2.5	/experiments/AOT/AOT_stimuli/rescaled_final/2168_fw.mp4	0.0	197.82452297210693	
17	176.6658239364624	fix_post	2		12	15.0	2.5	/experiments/AOT/AOT_stimuli/rescaled_final/2168_fw.mp4	0.0	198.34118390083313	0.09995508193969727
18	176.7657790184021	fix_pre	0		119	16.0	2.5	/experiments/AOT/AOT_stimuli/rescaled_final/1104_rv.mp4	0.0	198.44113898277283	0.991635799407959
18	177.74925994873047	pulse	0	t		16.0	2.5	/experiments/AOT/AOT_stimuli/rescaled_final/1104_rv.mp4	0.0	199.4246199131012	
18	177.75741481781006	movie	1		244	16.0	2.5	/experiments/AOT/AOT_stimuli/rescaled_final/1104_rv.mp4	0.0	199.4327747821808	2.508409023284912
18	179.34914088249207	pulse	1	t		16.0	2.5	/experiments/AOT/AOT_stimuli/rescaled_final/1104_rv.mp4	0.0	201.0245008468628	
18	180.26582384109497	fix_post	2		12	16.0	2.5	/experiments/AOT/AOT_stimuli/rescaled_final/1104_rv.mp4	0.0	201.9411838054657	0.09989404678344727
19	180.36571788787842	fix_pre	0		120	17.0	2.5	/experiments/AOT/AOT_stimuli/rescaled_final/1064_rv.mp4	0.0	202.04107785224915	1.0000278949737549
19	180.94915580749512	pulse	0	t		17.0	2.5	/experiments/AOT/AOT_stimuli/rescaled_final/1064_rv.mp4	0.0	202.62451577186584	
19	181.36574578285217	movie	1		244	17.0	2.5	/experiments/AOT/AOT_stimuli/rescaled_final/1064_rv.mp4	0.0	203.0411057472229	2.5000741481781006
19	182.54928994178772	pulse	1	t		17.0	2.5	/experiments/AOT/AOT_stimuli/rescaled_final/1064_rv.mp4	0.0	204.22464990615845	
19	183.86581993103027	fix_post	2		12	17.0	2.5	/experiments/AOT/AOT_stimuli/rescaled_final/1064_rv.mp4	0.0	205.541179895401	0.0998830795288086
20	183.96570301055908	fix_pre	0		120	18.0	2.5	/experiments/AOT/AOT_stimuli/rescaled_final/0458_fw.mp4	0.0	205.6410629749298	1.0000169277191162
20	184.1492109298706	pulse	0	t		18.0	2.5	/experiments/AOT/AOT_stimuli/rescaled_final/0458_fw.mp4	0.0	205.82457089424133	
20	184.9657199382782	movie	1		246	18.0	2.5	/experiments/AOT/AOT_stimuli/rescaled_final/0458_fw.mp4	0.0	206.64107990264893	2.499988079071045
20	185.74919295310974	pulse	1	t		18.0	2.5	/experiments/AOT/AOT_stimuli/rescaled_final/0458_fw.mp4	0.0	207.42455291748047	
20	187.34803795814514	pulse	1	t		18.0	2.5	/experiments/AOT/AOT_stimuli/rescaled_final/0458_fw.mp4	0.0	209.02339792251587	
20	187.46570801734924	fix_post	2		12	18.0	2.5	/experiments/AOT/AOT_stimuli/rescaled_final/0458_fw.mp4	0.0	209.14106798171997	0.10001897811889648
21	187.56572699546814	fix_pre	0		120	19.0	2.5	/experiments/AOT/AOT_stimuli/rescaled_final/1698_fw.mp4	0.0	209.24108695983887	0.9999699592590332
21	188.56569695472717	movie	1		246	19.0	2.5	/experiments/AOT/AOT_stimuli/rescaled_final/1698_fw.mp4	0.0	210.2410569190979	2.4999430179595947
21	188.9486289024353	pulse	1	t		19.0	2.5	/experiments/AOT/AOT_stimuli/rescaled_final/1698_fw.mp4	0.0	210.62398886680603	
21	190.54914093017578	pulse	1	t		19.0	2.5	/experiments/AOT/AOT_stimuli/rescaled_final/1698_fw.mp4	0.0	212.2245008945465	
21	191.06563997268677	fix_post	2		12	19.0	2.5	/experiments/AOT/AOT_stimuli/rescaled_final/1698_fw.mp4	0.0	212.7409999370575	0.10001897811889648
22	191.16565895080566	fix_pre	0		119	20.0	2.5	/experiments/AOT/AOT_stimuli/rescaled_final/0620_fw.mp4	0.0	212.8410189151764	0.991718053817749
22	192.14913082122803	pulse	0	t		20.0	2.5	/experiments/AOT/AOT_stimuli/rescaled_final/0620_fw.mp4	0.0	213.82449078559875	
22	192.1573770046234	movie	1		246	20.0	2.5	/experiments/AOT/AOT_stimuli/rescaled_final/0620_fw.mp4	0.0	213.83273696899414	2.508305788040161
22	193.75015592575073	pulse	1	t		20.0	2.5	/experiments/AOT/AOT_stimuli/rescaled_final/0620_fw.mp4	0.0	215.42551589012146	
22	194.66568279266357	fix_post	2		12	20.0	2.5	/experiments/AOT/AOT_stimuli/rescaled_final/0620_fw.mp4	0.0	216.3410427570343	0.09998202323913574
23	194.7656648159027	fix_pre	0		120	21.0	2.5	blank	1.0	216.44102478027344	1.0000061988830566
23	195.34914994239807	pulse	0	t		21.0	2.5	blank	1.0	217.0245099067688	
23	195.76567101478577	movie	1		300	21.0	2.5	blank	1.0	217.4410309791565	2.500065803527832
23	196.94902682304382	pulse	1	t		21.0	2.5	blank	1.0	218.62438678741455	
23	198.2657368183136	fix_post	2		12	21.0	2.5	blank	1.0	219.94109678268433	0.09990406036376953
24	198.36564087867737	fix_pre	0		120	22.0	2.5	/experiments/AOT/AOT_stimuli/rescaled_final/1698_rv.mp4	0.0	220.0410008430481	1.000072956085205
24	198.549174785614	pulse	0	t		22.0	2.5	/experiments/AOT/AOT_stimuli/rescaled_final/1698_rv.mp4	0.0	220.22453474998474	
24	199.36571383476257	movie	1		243	22.0	2.5	/experiments/AOT/AOT_stimuli/rescaled_final/1698_rv.mp4	0.0	221.0410737991333	2.4998531341552734
24	200.14907884597778	pulse	1	t		22.0	2.5	/experiments/AOT/AOT_stimuli/rescaled_final/1698_rv.mp4	0.0	221.8244388103485	
24	201.74789595603943	pulse	1	t		22.0	2.5	/experiments/AOT/AOT_stimuli/rescaled_final/1698_rv.mp4	0.0	223.42325592041016	
24	201.86556696891785	fix_post	2		12	22.0	2.5	/experiments/AOT/AOT_stimuli/rescaled_final/1698_rv.mp4	0.0	223.54092693328857	0.10004186630249023
25	201.96560883522034	fix_pre	0		120	23.0	2.5	/experiments/AOT/AOT_stimuli/rescaled_final/0623_rv.mp4	0.0	223.64096879959106	1.0000560283660889
25	202.96566486358643	movie	1		242	23.0	2.5	/experiments/AOT/AOT_stimuli/rescaled_final/0623_rv.mp4	0.0	224.64102482795715	2.4999771118164062
25	203.34905886650085	pulse	1	t		23.0	2.5	/experiments/AOT/AOT_stimuli/rescaled_final/0623_rv.mp4	0.0	225.02441883087158	
25	204.94913578033447	pulse	1	t		23.0	2.5	/experiments/AOT/AOT_stimuli/rescaled_final/0623_rv.mp4	0.0	226.6244957447052	
25	205.46564197540283	fix_post	2		12	23.0	2.5	/experiments/AOT/AOT_stimuli/rescaled_final/0623_rv.mp4	0.0	227.14100193977356	0.09994101524353027
26	205.56558299064636	fix_pre	0		119	24.0	2.5	/experiments/AOT/AOT_stimuli/rescaled_final/2098_fw.mp4	0.0	227.2409429550171	0.9917409420013428
26	206.54911494255066	pulse	0	t		24.0	2.5	/experiments/AOT/AOT_stimuli/rescaled_final/2098_fw.mp4	0.0	228.2244749069214	
26	206.5573239326477	movie	1		248	24.0	2.5	/experiments/AOT/AOT_stimuli/rescaled_final/2098_fw.mp4	0.0	228.23268389701843	2.5082669258117676
26	208.14845895767212	pulse	1	t		24.0	2.5	/experiments/AOT/AOT_stimuli/rescaled_final/2098_fw.mp4	0.0	229.82381892204285	
26	209.06559085845947	fix_post	2		12	24.0	2.5	/experiments/AOT/AOT_stimuli/rescaled_final/2098_fw.mp4	0.0	230.7409508228302	0.10000300407409668
27	209.16559386253357	fix_pre	0		120	25.0	2.5	/experiments/AOT/AOT_stimuli/rescaled_final/1887_rv.mp4	0.0	230.8409538269043	0.999985933303833
27	209.74909090995789	pulse	0	t		25.0	2.5	/experiments/AOT/AOT_stimuli/rescaled_final/1887_rv.mp4	0.0	231.4244508743286	
27	210.1655797958374	movie	1		246	25.0	2.5	/experiments/AOT/AOT_stimuli/rescaled_final/1887_rv.mp4	0.0	231.84093976020813	2.4999539852142334
27	211.3490719795227	pulse	1	t		25.0	2.5	/experiments/AOT/AOT_stimuli/rescaled_final/1887_rv.mp4	0.0	233.02443194389343	
27	212.66553378105164	fix_post	2		12	25.0	2.5	/experiments/AOT/AOT_stimuli/rescaled_final/1887_rv.mp4	0.0	234.34089374542236	0.10004210472106934
28	212.7655758857727	fix_pre	0		120	26.0	2.5	/experiments/AOT/AOT_stimuli/rescaled_final/0947_fw.mp4	0.0	234.44093585014343	0.9999649524688721
28	212.94904494285583	pulse	0	t		26.0	2.5	/experiments/AOT/AOT_stimuli/rescaled_final/0947_fw.mp4	0.0	234.62440490722656	
28	213.76554083824158	movie	1		245	26.0	2.5	/experiments/AOT/AOT_stimuli/rescaled_final/0947_fw.mp4	0.0	235.4409008026123	2.500035047531128
28	214.54907989501953	pulse	1	t		26.0	2.5	/experiments/AOT/AOT_stimuli/rescaled_final/0947_fw.mp4	0.0	236.22443985939026	
28	216.14852380752563	pulse	1	t		26.0	2.5	/experiments/AOT/AOT_stimuli/rescaled_final/0947_fw.mp4	0.0	237.82388377189636	
28	216.2655758857727	fix_post	2		12	26.0	2.5	/experiments/AOT/AOT_stimuli/rescaled_final/0947_fw.mp4	0.0	237.94093585014343	0.09994912147521973
29	216.36552500724792	fix_pre	0		120	27.0	2.5	/experiments/AOT/AOT_stimuli/rescaled_final/2026_rv.mp4	0.0	238.04088497161865	1.000067949295044
29	217.36559295654297	movie	1		243	27.0	2.5	/experiments/AOT/AOT_stimuli/rescaled_final/2026_rv.mp4	0.0	239.0409529209137	2.49995493888855
29	217.74907279014587	pulse	1	t		27.0	2.5	/experiments/AOT/AOT_stimuli/rescaled_final/2026_rv.mp4	0.0	239.4244327545166	
29	219.3491678237915	pulse	1	t		27.0	2.5	/experiments/AOT/AOT_stimuli/rescaled_final/2026_rv.mp4	0.0	241.02452778816223	
29	219.86554789543152	fix_post	2		12	27.0	2.5	/experiments/AOT/AOT_stimuli/rescaled_final/2026_rv.mp4	0.0	241.54090785980225	0.10000801086425781
30	219.96555590629578	fix_pre	0		119	28.0	2.5	blank	1.0	241.6409158706665	0.9917268753051758
30	220.9490888118744	pulse	0	t		28.0	2.5	blank	1.0	242.62444877624512	
30	220.95728278160095	movie	1		301	28.0	2.5	blank	1.0	242.63264274597168	2.508254051208496
30	222.54904699325562	pulse	1	t		28.0	2.5	blank	1.0	244.22440695762634	
30	223.46553683280945	fix_post	2		12	28.0	2.5	blank	1.0	245.14089679718018	0.09993815422058105
31	223.56547498703003	fix_pre	0		120	29.0	2.5	/experiments/AOT/AOT_stimuli/rescaled_final/0109_fw.mp4	0.0	245.24083495140076	1.000121831893921
31	224.14906001091003	pulse	0	t		29.0	2.5	/experiments/AOT/AOT_stimuli/rescaled_final/0109_fw.mp4	0.0	245.82441997528076	
31	224.56559681892395	movie	1		243	29.0	2.5	/experiments/AOT/AOT_stimuli/rescaled_final/0109_fw.mp4	0.0	246.24095678329468	2.49993896484375
31	225.74917578697205	pulse	1	t		29.0	2.5	/experiments/AOT/AOT_stimuli/rescaled_final/0109_fw.mp4	0.0	247.42453575134277	
31	227.0655357837677	fix_post	2		12	29.0	2.5	/experiments/AOT/AOT_stimuli/rescaled_final/0109_fw.mp4	0.0	248.74089574813843	0.1000070571899414
32	227.16554284095764	fix_pre	0		120	30.0	2.5	/experiments/AOT/AOT_stimuli/rescaled_final/0727_fw.mp4	0.0	248.84090280532837	0.999981164932251
32	227.34857892990112	pulse	0	t		30.0	2.5	/experiments/AOT/AOT_stimuli/rescaled_final/0727_fw.mp4	0.0	249.02393889427185	
32	228.1655240058899	movie	1		247	30.0	2.5	/experiments/AOT/AOT_stimuli/rescaled_final/0727_fw.mp4	0.0	249.84088397026062	2.499933958053589
32	228.9486517906189	pulse	1	t		30.0	2.5	/experiments/AOT/AOT_stimuli/rescaled_final/0727_fw.mp4	0.0	250.62401175498962	
32	230.54984593391418	pulse	1	t		30.0	2.5	/experiments/AOT/AOT_stimuli/rescaled_final/0727_fw.mp4	0.0	252.2252058982849	
32	230.66545796394348	fix_post	2		12	30.0	2.5	/experiments/AOT/AOT_stimuli/rescaled_final/0727_fw.mp4	0.0	252.3408179283142	0.1000368595123291
33	230.7654948234558	fix_pre	0		120	31.0	2.5	/experiments/AOT/AOT_stimuli/rescaled_final/0049_fw.mp4	0.0	252.44085478782654	1.0000240802764893
33	231.7655189037323	movie	1		244	31.0	2.5	/experiments/AOT/AOT_stimuli/rescaled_final/0049_fw.mp4	0.0	253.44087886810303	2.499929904937744
33	232.15021181106567	pulse	1	t		31.0	2.5	/experiments/AOT/AOT_stimuli/rescaled_final/0049_fw.mp4	0.0	253.8255717754364	
33	233.74890279769897	pulse	1	t		31.0	2.5	/experiments/AOT/AOT_stimuli/rescaled_final/0049_fw.mp4	0.0	255.4242627620697	
33	234.26544880867004	fix_post	2		12	31.0	2.5	/experiments/AOT/AOT_stimuli/rescaled_final/0049_fw.mp4	0.0	255.94080877304077	0.10008001327514648
34	234.3655288219452	fix_pre	0		119	32.0	2.5	/experiments/AOT/AOT_stimuli/rescaled_final/2168_rv.mp4	0.0	256.0408887863159	0.9915261268615723
34	235.3489007949829	pulse	0	t		32.0	2.5	/experiments/AOT/AOT_stimuli/rescaled_final/2168_rv.mp4	0.0	257.02426075935364	
34	235.35705494880676	movie	1		245	32.0	2.5	/experiments/AOT/AOT_stimuli/rescaled_final/2168_rv.mp4	0.0	257.0324149131775	2.5084400177001953
34	236.95023393630981	pulse	1	t		32.0	2.5	/experiments/AOT/AOT_stimuli/rescaled_final/2168_rv.mp4	0.0	258.62559390068054	
34	237.86549496650696	fix_post	2		12	32.0	2.5	/experiments/AOT/AOT_stimuli/rescaled_final/2168_rv.mp4	0.0	259.5408549308777	0.09992504119873047
35	237.9654200077057	fix_pre	0		120	33.0	2.5	blank	1.0	259.6407799720764	0.9999599456787109
35	238.54890298843384	pulse	0	t		33.0	2.5	blank	1.0	260.22426295280457	
35	238.9653799533844	movie	1		300	33.0	2.5	blank	1.0	260.6407399177551	2.5000510215759277
35	240.14887285232544	pulse	1	t		33.0	2.5	blank	1.0	261.82423281669617	
35	241.46543097496033	fix_post	2		12	33.0	2.5	blank	1.0	263.14079093933105	0.09994983673095703
36	241.56538081169128	fix_pre	0		120	34.0	2.5	/experiments/AOT/AOT_stimuli/rescaled_final/1541_fw.mp4	0.0	263.240740776062	1.0000951290130615
36	241.74892687797546	pulse	0	t		34.0	2.5	/experiments/AOT/AOT_stimuli/rescaled_final/1541_fw.mp4	0.0	263.4242868423462	
36	242.56547594070435	movie	1		244	34.0	2.5	/experiments/AOT/AOT_stimuli/rescaled_final/1541_fw.mp4	0.0	264.2408359050751	2.4995410442352295
36	243.34892892837524	pulse	1	t		34.0	2.5	/experiments/AOT/AOT_stimuli/rescaled_final/1541_fw.mp4	0.0	265.024288892746	
36	244.94730687141418	pulse	1	t		34.0	2.5	/experiments/AOT/AOT_stimuli/rescaled_final/1541_fw.mp4	0.0	266.6226668357849	
36	245.06501698493958	fix_post	2		12	34.0	2.5	/experiments/AOT/AOT_stimuli/rescaled_final/1541_fw.mp4	0.0	266.7403769493103	0.10040998458862305
37	245.1654269695282	fix_pre	0		120	35.0	2.5	/experiments/AOT/AOT_stimuli/rescaled_final/0325_rv.mp4	0.0	266.8407869338989	0.9999170303344727
37	246.16534399986267	movie	1		242	35.0	2.5	/experiments/AOT/AOT_stimuli/rescaled_final/0325_rv.mp4	0.0	267.8407039642334	2.50010085105896
37	246.54852294921875	pulse	1	t		35.0	2.5	/experiments/AOT/AOT_stimuli/rescaled_final/0325_rv.mp4	0.0	268.2238829135895	
37	248.14892196655273	pulse	1	t		35.0	2.5	/experiments/AOT/AOT_stimuli/rescaled_final/0325_rv.mp4	0.0	269.82428193092346	
37	248.66544485092163	fix_post	2		12	35.0	2.5	/experiments/AOT/AOT_stimuli/rescaled_final/0325_rv.mp4	0.0	270.34080481529236	0.09993815422058105
38	248.7653830051422	fix_pre	0		119	36.0	2.5	/experiments/AOT/AOT_stimuli/rescaled_final/0012_rv.mp4	0.0	270.44074296951294	0.9916520118713379
38	249.74900078773499	pulse	0	t		36.0	2.5	/experiments/AOT/AOT_stimuli/rescaled_final/0012_rv.mp4	0.0	271.4243607521057	
38	249.75703501701355	movie	1		246	36.0	2.5	/experiments/AOT/AOT_stimuli/rescaled_final/0012_rv.mp4	0.0	271.4323949813843	2.5083329677581787
38	251.3486030101776	pulse	1	t		36.0	2.5	/experiments/AOT/AOT_stimuli/rescaled_final/0012_rv.mp4	0.0	273.02396297454834	
38	252.26536798477173	fix_post	2		12	36.0	2.5	/experiments/AOT/AOT_stimuli/rescaled_final/0012_rv.mp4	0.0	273.94072794914246	0.10006093978881836
39	252.36542892456055	fix_pre	0		120	37.0	2.5	/experiments/AOT/AOT_stimuli/rescaled_final/1277_rv.mp4	0.0	274.0407888889313	1.000020980834961
39	252.94890880584717	pulse	0	t		37.0	2.5	/experiments/AOT/AOT_stimuli/rescaled_final/1277_rv.mp4	0.0	274.6242687702179	
39	253.3654499053955	movie	1		247	37.0	2.5	/experiments/AOT/AOT_stimuli/rescaled_final/1277_rv.mp4	0.0	275.04080986976624	2.49995493888855
39	254.5489399433136	pulse	1	t		37.0	2.5	/experiments/AOT/AOT_stimuli/rescaled_final/1277_rv.mp4	0.0	276.2242999076843	
39	255.86540484428406	fix_post	2		12	37.0	2.5	/experiments/AOT/AOT_stimuli/rescaled_final/1277_rv.mp4	0.0	277.5407648086548	0.10004496574401855
40	255.96544981002808	fix_pre	0		120	38.0	2.5	/experiments/AOT/AOT_stimuli/rescaled_final/0429_rv.mp4	0.0	277.6408097743988	0.9999639987945557
40	256.14877796173096	pulse	0	t		38.0	2.5	/experiments/AOT/AOT_stimuli/rescaled_final/0429_rv.mp4	0.0	277.8241379261017	
40	256.96541380882263	movie	1		243	38.0	2.5	/experiments/AOT/AOT_stimuli/rescaled_final/0429_rv.mp4	0.0	278.64077377319336	2.499943971633911
40	257.74886989593506	pulse	1	t		38.0	2.5	/experiments/AOT/AOT_stimuli/rescaled_final/0429_rv.mp4	0.0	279.4242298603058	
40	259.3470368385315	pulse	1	t		38.0	2.5	/experiments/AOT/AOT_stimuli/rescaled_final/0429_rv.mp4	0.0	281.0223968029022	
40	259.46535778045654	fix_post	2		12	38.0	2.5	/experiments/AOT/AOT_stimuli/rescaled_final/0429_rv.mp4	0.0	281.14071774482727	0.10000300407409668
41	259.56536078453064	fix_pre	0		120	39.0	2.5	/experiments/AOT/AOT_stimuli/rescaled_final/0013_rv.mp4	0.0	281.24072074890137	1.0000650882720947
41	260.56542587280273	movie	1		244	39.0	2.5	/experiments/AOT/AOT_stimuli/rescaled_final/0013_rv.mp4	0.0	282.24078583717346	2.4998819828033447
41	260.9484558105469	pulse	1	t		39.0	2.5	/experiments/AOT/AOT_stimuli/rescaled_final/0013_rv.mp4	0.0	282.6238157749176	
41	262.5488648414612	pulse	1	t		39.0	2.5	/experiments/AOT/AOT_stimuli/rescaled_final/0013_rv.mp4	0.0	284.2242248058319	
41	263.0653078556061	fix_post	2		12	39.0	2.5	/experiments/AOT/AOT_stimuli/rescaled_final/0013_rv.mp4	0.0	284.7406678199768	0.09995412826538086
42	263.16526198387146	fix_pre	0		119	40.0	2.5	/experiments/AOT/AOT_stimuli/rescaled_final/2167_rv.mp4	0.0	284.8406219482422	0.9916789531707764
42	264.148854970932	pulse	0	t		40.0	2.5	/experiments/AOT/AOT_stimuli/rescaled_final/2167_rv.mp4	0.0	285.82421493530273	
42	264.15694093704224	movie	1		244	40.0	2.5	/experiments/AOT/AOT_stimuli/rescaled_final/2167_rv.mp4	0.0	285.83230090141296	2.508368968963623
42	265.7484018802643	pulse	1	t		40.0	2.5	/experiments/AOT/AOT_stimuli/rescaled_final/2167_rv.mp4	0.0	287.423761844635	
42	266.66530990600586	fix_post	2		11	40.0	2.5	/experiments/AOT/AOT_stimuli/rescaled_final/2167_rv.mp4	0.0	288.3406698703766	0.10000491142272949
43	266.7653148174286	fix_pre	0		120	41.0	2.5	blank	1.0	288.4406747817993	1.0000991821289062
43	267.3488519191742	pulse	0	t		41.0	2.5	blank	1.0	289.0242118835449	
43	267.7654139995575	movie	1		300	41.0	2.5	blank	1.0	289.4407739639282	2.4999189376831055
43	268.9488859176636	pulse	1	t		41.0	2.5	blank	1.0	290.6242458820343	
43	270.2653329372406	fix_post	2		12	41.0	2.5	blank	1.0	291.9406929016113	0.099945068359375
44	270.3652780056	fix_pre	0		120	42.0	2.5	/experiments/AOT/AOT_stimuli/rescaled_final/0729_fw.mp4	0.0	292.0406379699707	1.0000338554382324
44	270.54878783226013	pulse	0	t		42.0	2.5	/experiments/AOT/AOT_stimuli/rescaled_final/0729_fw.mp4	0.0	292.22414779663086	
44	271.3653118610382	movie	1		243	42.0	2.5	/experiments/AOT/AOT_stimuli/rescaled_final/0729_fw.mp4	0.0	293.04067182540894	2.49992299079895
44	272.14878582954407	pulse	1	t		42.0	2.5	/experiments/AOT/AOT_stimuli/rescaled_final/0729_fw.mp4	0.0	293.8241457939148	
44	273.7571699619293	pulse	1	t		42.0	2.5	/experiments/AOT/AOT_stimuli/rescaled_final/0729_fw.mp4	0.0	295.43252992630005	
44	273.86523485183716	fix_post	2		12	42.0	2.5	/experiments/AOT/AOT_stimuli/rescaled_final/0729_fw.mp4	0.0	295.5405948162079	0.10000300407409668
45	273.96523785591125	fix_pre	0		120	43.0	2.5	/experiments/AOT/AOT_stimuli/rescaled_final/0059_fw.mp4	0.0	295.640597820282	1.0000441074371338
45	274.9652819633484	movie	1		245	43.0	2.5	/experiments/AOT/AOT_stimuli/rescaled_final/0059_fw.mp4	0.0	296.6406419277191	2.4999959468841553
45	275.34808897972107	pulse	1	t		43.0	2.5	/experiments/AOT/AOT_stimuli/rescaled_final/0059_fw.mp4	0.0	297.0234489440918	
45	276.9487838745117	pulse	1	t		43.0	2.5	/experiments/AOT/AOT_stimuli/rescaled_final/0059_fw.mp4	0.0	298.62414383888245	
45	277.46527791023254	fix_post	2		12	43.0	2.5	/experiments/AOT/AOT_stimuli/rescaled_final/0059_fw.mp4	0.0	299.14063787460327	0.09997200965881348
46	277.56524991989136	fix_pre	0		119	44.0	2.5	/experiments/AOT/AOT_stimuli/rescaled_final/0173_rv.mp4	0.0	299.2406098842621	0.9916660785675049
46	278.54881381988525	pulse	0	t		44.0	2.5	/experiments/AOT/AOT_stimuli/rescaled_final/0173_rv.mp4	0.0	300.224173784256	
46	278.55691599845886	movie	1		245	44.0	2.5	/experiments/AOT/AOT_stimuli/rescaled_final/0173_rv.mp4	0.0	300.2322759628296	2.5083279609680176
46	280.1483929157257	pulse	1	t		44.0	2.5	/experiments/AOT/AOT_stimuli/rescaled_final/0173_rv.mp4	0.0	301.82375288009644	
46	281.0652439594269	fix_post	2		12	44.0	2.5	/experiments/AOT/AOT_stimuli/rescaled_final/0173_rv.mp4	0.0	302.7406039237976	0.09998202323913574
47	281.165225982666	fix_pre	0		120	45.0	2.5	/experiments/AOT/AOT_stimuli/rescaled_final/0243_rv.mp4	0.0	302.84058594703674	1.0000958442687988
47	281.7487418651581	pulse	0	t		45.0	2.5	/experiments/AOT/AOT_stimuli/rescaled_final/0243_rv.mp4	0.0	303.4241018295288	
47	282.1653218269348	movie	1		245	45.0	2.5	/experiments/AOT/AOT_stimuli/rescaled_final/0243_rv.mp4	0.0	303.84068179130554	2.4996190071105957
47	283.3488938808441	pulse	1	t		45.0	2.5	/experiments/AOT/AOT_stimuli/rescaled_final/0243_rv.mp4	0.0	305.02425384521484	
47	284.6649408340454	fix_post	2		12	45.0	2.5	/experiments/AOT/AOT_stimuli/rescaled_final/0243_rv.mp4	0.0	306.34030079841614	0.09994816780090332
48	284.7648890018463	fix_pre	0		120	46.0	2.5	/experiments/AOT/AOT_stimuli/rescaled_final/0504_rv.mp4	0.0	306.44024896621704	1.000607967376709
48	284.94880294799805	pulse	0	t		46.0	2.5	/experiments/AOT/AOT_stimuli/rescaled_final/0504_rv.mp4	0.0	306.6241629123688	
48	285.765496969223	movie	1		246	46.0	2.5	/experiments/AOT/AOT_stimuli/rescaled_final/0504_rv.mp4	0.0	307.44085693359375	2.499753952026367
48	286.5486078262329	pulse	1	t		46.0	2.5	/experiments/AOT/AOT_stimuli/rescaled_final/0504_rv.mp4	0.0	308.22396779060364	
48	288.1473808288574	pulse	1	t		46.0	2.5	/experiments/AOT/AOT_stimuli/rescaled_final/0504_rv.mp4	0.0	309.82274079322815	
48	288.2652509212494	fix_post	2		12	46.0	2.5	/experiments/AOT/AOT_stimuli/rescaled_final/0504_rv.mp4	0.0	309.9406108856201	0.09998703002929688
49	288.3652379512787	fix_pre	0		120	47.0	2.5	/experiments/AOT/AOT_stimuli/rescaled_final/1340_rv.mp4	0.0	310.0405979156494	0.9999330043792725
49	289.36517095565796	movie	1		245	47.0	2.5	/experiments/AOT/AOT_stimuli/rescaled_final/1340_rv.mp4	0.0	311.0405309200287	2.4999969005584717
49	289.7487828731537	pulse	1	t		47.0	2.5	/experiments/AOT/AOT_stimuli/rescaled_final/1340_rv.mp4	0.0	311.4241428375244	
49	291.3486008644104	pulse	1	t		47.0	2.5	/experiments/AOT/AOT_stimuli/rescaled_final/1340_rv.mp4	0.0	313.0239608287811	
49	291.86516785621643	fix_post	2		12	47.0	2.5	/experiments/AOT/AOT_stimuli/rescaled_final/1340_rv.mp4	0.0	313.54052782058716	0.09996199607849121
50	291.9651298522949	fix_pre	0		119	48.0	2.5	blank	1.0	313.64048981666565	0.9917199611663818
50	292.94864892959595	pulse	0	t		48.0	2.5	blank	1.0	314.6240088939667	
50	292.9568498134613	movie	1		301	48.0	2.5	blank	1.0	314.63220977783203	2.508345127105713
50	294.5486669540405	pulse	1	t		48.0	2.5	blank	1.0	316.22402691841125	
50	295.465194940567	fix_post	2		12	48.0	2.5	blank	1.0	317.14055490493774	0.09997391700744629
51	295.56516885757446	fix_pre	0		120	49.0	2.5	/experiments/AOT/AOT_stimuli/rescaled_final/1184_fw.mp4	0.0	317.2405288219452	0.9999721050262451
51	296.1485939025879	pulse	0	t		49.0	2.5	/experiments/AOT/AOT_stimuli/rescaled_final/1184_fw.mp4	0.0	317.8239538669586	
51	296.5651409626007	movie	1		246	49.0	2.5	/experiments/AOT/AOT_stimuli/rescaled_final/1184_fw.mp4	0.0	318.24050092697144	2.4999940395355225
51	297.74869894981384	pulse	1	t		49.0	2.5	/experiments/AOT/AOT_stimuli/rescaled_final/1184_fw.mp4	0.0	319.42405891418457	
51	299.06513500213623	fix_post	2		12	49.0	2.5	/experiments/AOT/AOT_stimuli/rescaled_final/1184_fw.mp4	0.0	320.74049496650696	0.10002684593200684
52	299.16516184806824	fix_pre	0		120	50.0	2.5	/experiments/AOT/AOT_stimuli/rescaled_final/1496_rv.mp4	0.0	320.84052181243896	0.9999480247497559
52	299.34865498542786	pulse	0	t		50.0	2.5	/experiments/AOT/AOT_stimuli/rescaled_final/1496_rv.mp4	0.0	321.0240149497986	
52	300.165109872818	movie	1		246	50.0	2.5	/experiments/AOT/AOT_stimuli/rescaled_final/1496_rv.mp4	0.0	321.8404698371887	2.5000009536743164
52	300.9487268924713	pulse	1	t		50.0	2.5	/experiments/AOT/AOT_stimuli/rescaled_final/1496_rv.mp4	0.0	322.62408685684204	
52	302.5486350059509	pulse	1	t		50.0	2.5	/experiments/AOT/AOT_stimuli/rescaled_final/1496_rv.mp4	0.0	324.22399497032166	
52	302.6651108264923	fix_post	2		12	50.0	2.5	/experiments/AOT/AOT_stimuli/rescaled_final/1496_rv.mp4	0.0	324.34047079086304	0.09997415542602539
53	302.76508498191833	fix_pre	0		120	51.0	2.5	/experiments/AOT/AOT_stimuli/rescaled_final/0612_fw.mp4	0.0	324.44044494628906	1.00003981590271
53	303.76512479782104	movie	1		245	51.0	2.5	/experiments/AOT/AOT_stimuli/rescaled_final/0612_fw.mp4	0.0	325.4404847621918	2.4999871253967285
53	304.1483647823334	pulse	1	t		51.0	2.5	/experiments/AOT/AOT_stimuli/rescaled_final/0612_fw.mp4	0.0	325.8237247467041	
53	305.7485828399658	pulse	1	t		51.0	2.5	/experiments/AOT/AOT_stimuli/rescaled_final/0612_fw.mp4	0.0	327.42394280433655	
53	306.2651119232178	fix_post	2		12	51.0	2.5	/experiments/AOT/AOT_stimuli/rescaled_final/0612_fw.mp4	0.0	327.9404718875885	0.1000518798828125
54	306.3651638031006	fix_pre	0		119	52.0	2.5	/experiments/AOT/AOT_stimuli/rescaled_final/1057_rv.mp4	0.0	328.0405237674713	0.9916200637817383
54	307.34858298301697	pulse	0	t		52.0	2.5	/experiments/AOT/AOT_stimuli/rescaled_final/1057_rv.mp4	0.0	329.0239429473877	
54	307.3567838668823	movie	1		245	52.0	2.5	/experiments/AOT/AOT_stimuli/rescaled_final/1057_rv.mp4	0.0	329.03214383125305	2.5083820819854736
54	308.9479269981384	pulse	1	t		52.0	2.5	/experiments/AOT/AOT_stimuli/rescaled_final/1057_rv.mp4	0.0	330.62328696250916	
54	309.8651659488678	fix_post	2		12	52.0	2.5	/experiments/AOT/AOT_stimuli/rescaled_final/1057_rv.mp4	0.0	331.5405259132385	0.09995603561401367
55	309.9651219844818	fix_pre	0		120	53.0	2.5	/experiments/AOT/AOT_stimuli/rescaled_final/0557_rv.mp4	0.0	331.64048194885254	1.000044822692871
55	310.5486569404602	pulse	0	t		53.0	2.5	/experiments/AOT/AOT_stimuli/rescaled_final/0557_rv.mp4	0.0	332.22401690483093	
55	310.9651668071747	movie	1		244	53.0	2.5	/experiments/AOT/AOT_stimuli/rescaled_final/0557_rv.mp4	0.0	332.6405267715454	2.499988079071045
55	312.14869689941406	pulse	1	t		53.0	2.5	/experiments/AOT/AOT_stimuli/rescaled_final/0557_rv.mp4	0.0	333.8240568637848	
55	313.4651548862457	fix_post	2		12	53.0	2.5	/experiments/AOT/AOT_stimuli/rescaled_final/0557_rv.mp4	0.0	335.14051485061646	0.09999990463256836
56	313.5651547908783	fix_pre	0		120	54.0	2.5	/experiments/AOT/AOT_stimuli/rescaled_final/0646_rv.mp4	0.0	335.240514755249	0.999981164932251
56	313.74857878685	pulse	0	t		54.0	2.5	/experiments/AOT/AOT_stimuli/rescaled_final/0646_rv.mp4	0.0	335.4239387512207	
56	314.56513595581055	movie	1		244	54.0	2.5	/experiments/AOT/AOT_stimuli/rescaled_final/0646_rv.mp4	0.0	336.2404959201813	2.5000159740448
56	315.34858298301697	pulse	1	t		54.0	2.5	/experiments/AOT/AOT_stimuli/rescaled_final/0646_rv.mp4	0.0	337.0239429473877	
56	316.9470648765564	pulse	1	t		54.0	2.5	/experiments/AOT/AOT_stimuli/rescaled_final/0646_rv.mp4	0.0	338.6224248409271	
56	317.06515192985535	fix_post	2		12	54.0	2.5	/experiments/AOT/AOT_stimuli/rescaled_final/0646_rv.mp4	0.0	338.7405118942261	0.10002303123474121
57	317.1651749610901	fix_pre	0		120	55.0	2.5	/experiments/AOT/AOT_stimuli/rescaled_final/1995_fw.mp4	0.0	338.8405349254608	0.9999079704284668
57	318.16508293151855	movie	1		245	55.0	2.5	/experiments/AOT/AOT_stimuli/rescaled_final/1995_fw.mp4	0.0	339.8404428958893	2.5000698566436768
57	318.5490849018097	pulse	1	t		55.0	2.5	/experiments/AOT/AOT_stimuli/rescaled_final/1995_fw.mp4	0.0	340.2244448661804	
57	320.14849400520325	pulse	1	t		55.0	2.5	/experiments/AOT/AOT_stimuli/rescaled_final/1995_fw.mp4	0.0	341.823853969574	
57	320.66515278816223	fix_post	2		12	55.0	2.5	/experiments/AOT/AOT_stimuli/rescaled_final/1995_fw.mp4	0.0	342.34051275253296	0.09994220733642578
58	320.76509499549866	fix_pre	0		119	56.0	2.5	blank	1.0	342.4404549598694	0.9916768074035645
58	321.7485737800598	pulse	0	t		56.0	2.5	blank	1.0	343.42393374443054	
58	321.7567718029022	movie	1		301	56.0	2.5	blank	1.0	343.43213176727295	2.508380174636841
58	323.3485429286957	pulse	1	t		56.0	2.5	blank	1.0	345.0239028930664	
58	324.26515197753906	fix_post	2		12	56.0	2.5	blank	1.0	345.9405119419098	0.09991288185119629
59	324.36506485939026	fix_pre	0		120	57.0	2.5	/experiments/AOT/AOT_stimuli/rescaled_final/1198_fw.mp4	0.0	346.040424823761	1.0000169277191162
59	324.94849586486816	pulse	0	t		57.0	2.5	/experiments/AOT/AOT_stimuli/rescaled_final/1198_fw.mp4	0.0	346.6238558292389	
59	325.3650817871094	movie	1		244	57.0	2.5	/experiments/AOT/AOT_stimuli/rescaled_final/1198_fw.mp4	0.0	347.0404417514801	2.4998550415039062
59	326.5485999584198	pulse	1	t		57.0	2.5	/experiments/AOT/AOT_stimuli/rescaled_final/1198_fw.mp4	0.0	348.2239599227905	
59	327.8649368286133	fix_post	2		12	57.0	2.5	/experiments/AOT/AOT_stimuli/rescaled_final/1198_fw.mp4	0.0	349.540296792984	0.10003805160522461
60	327.9649748802185	fix_pre	0		120	58.0	2.5	/experiments/AOT/AOT_stimuli/rescaled_final/0109_rv.mp4	0.0	349.64033484458923	1.0000650882720947
60	328.1485188007355	pulse	0	t		58.0	2.5	/experiments/AOT/AOT_stimuli/rescaled_final/0109_rv.mp4	0.0	349.8238787651062	
60	328.9650399684906	movie	1		243	58.0	2.5	/experiments/AOT/AOT_stimuli/rescaled_final/0109_rv.mp4	0.0	350.6403999328613	2.4999709129333496
60	329.748596906662	pulse	1	t		58.0	2.5	/experiments/AOT/AOT_stimuli/rescaled_final/0109_rv.mp4	0.0	351.4239568710327	
60	331.3470389842987	pulse	1	t		58.0	2.5	/experiments/AOT/AOT_stimuli/rescaled_final/0109_rv.mp4	0.0	353.02239894866943	
60	331.46501088142395	fix_post	2		12	58.0	2.5	/experiments/AOT/AOT_stimuli/rescaled_final/0109_rv.mp4	0.0	353.1403708457947	0.10004091262817383
61	331.5650517940521	fix_pre	0		120	59.0	2.5	/experiments/AOT/AOT_stimuli/rescaled_final/1806_rv.mp4	0.0	353.24041175842285	0.9999191761016846
61	332.5649709701538	movie	1		244	59.0	2.5	/experiments/AOT/AOT_stimuli/rescaled_final/1806_rv.mp4	0.0	354.24033093452454	2.500098943710327
61	332.94859194755554	pulse	1	t		59.0	2.5	/experiments/AOT/AOT_stimuli/rescaled_final/1806_rv.mp4	0.0	354.62395191192627	
61	334.54852080345154	pulse	1	t		59.0	2.5	/experiments/AOT/AOT_stimuli/rescaled_final/1806_rv.mp4	0.0	356.22388076782227	
61	335.06506991386414	fix_post	2		12	59.0	2.5	/experiments/AOT/AOT_stimuli/rescaled_final/1806_rv.mp4	0.0	356.74042987823486	0.09983992576599121
62	335.1649098396301	fix_pre	0		119	60.0	2.5	/experiments/AOT/AOT_stimuli/rescaled_final/1163_fw.mp4	0.0	356.84026980400085	0.9917600154876709
62	336.14833879470825	pulse	0	t		60.0	2.5	/experiments/AOT/AOT_stimuli/rescaled_final/1163_fw.mp4	0.0	357.823698759079	
62	336.1566698551178	movie	1		245	60.0	2.5	/experiments/AOT/AOT_stimuli/rescaled_final/1163_fw.mp4	0.0	357.8320298194885	2.5083160400390625
62	337.7478938102722	pulse	1	t		60.0	2.5	/experiments/AOT/AOT_stimuli/rescaled_final/1163_fw.mp4	0.0	359.42325377464294	
62	338.66498589515686	fix_post	2		12	60.0	2.5	/experiments/AOT/AOT_stimuli/rescaled_final/1163_fw.mp4	0.0	360.3403458595276	0.0995020866394043
63	338.76448798179626	fix_pre	0		120	61.0	2.5	/experiments/AOT/AOT_stimuli/rescaled_final/0504_fw.mp4	0.0	360.439847946167	1.0000889301300049
63	339.34815192222595	pulse	0	t		61.0	2.5	/experiments/AOT/AOT_stimuli/rescaled_final/0504_fw.mp4	0.0	361.0235118865967	
63	339.76457691192627	movie	1		243	61.0	2.5	/experiments/AOT/AOT_stimuli/rescaled_final/0504_fw.mp4	0.0	361.439936876297	2.5004279613494873
63	340.9482398033142	pulse	1	t		61.0	2.5	/experiments/AOT/AOT_stimuli/rescaled_final/0504_fw.mp4	0.0	362.62359976768494	
63	342.26500487327576	fix_post	2		12	61.0	2.5	/experiments/AOT/AOT_stimuli/rescaled_final/0504_fw.mp4	0.0	363.9403648376465	0.09993505477905273
64	342.3649399280548	fix_pre	0		120	62.0	2.5	/experiments/AOT/AOT_stimuli/rescaled_final/0932_fw.mp4	0.0	364.04029989242554	1.0000689029693604
64	342.54846692085266	pulse	0	t		62.0	2.5	/experiments/AOT/AOT_stimuli/rescaled_final/0932_fw.mp4	0.0	364.2238268852234	
64	343.36500883102417	movie	1		246	62.0	2.5	/experiments/AOT/AOT_stimuli/rescaled_final/0932_fw.mp4	0.0	365.0403687953949	2.499911069869995
64	344.14843487739563	pulse	1	t		62.0	2.5	/experiments/AOT/AOT_stimuli/rescaled_final/0932_fw.mp4	0.0	365.82379484176636	
64	345.74700379371643	pulse	1	t		62.0	2.5	/experiments/AOT/AOT_stimuli/rescaled_final/0932_fw.mp4	0.0	367.42236375808716	
64	345.86491990089417	fix_post	2		12	62.0	2.5	/experiments/AOT/AOT_stimuli/rescaled_final/0932_fw.mp4	0.0	367.5402798652649	0.10005497932434082
65	345.9649748802185	fix_pre	0		120	63.0	2.5	blank	1.0	367.64033484458923	0.9999001026153564
65	346.96487498283386	movie	1		300	63.0	2.5	blank	1.0	368.6402349472046	2.5000128746032715
65	347.34840297698975	pulse	1	t		63.0	2.5	blank	1.0	369.0237629413605	
65	348.9484119415283	pulse	1	t		63.0	2.5	blank	1.0	370.62377190589905	
65	349.46488785743713	fix_post	2		12	63.0	2.5	blank	1.0	371.14024782180786	0.10000205039978027
66	349.5648899078369	fix_pre	0		119	64.0	2.5	/experiments/AOT/AOT_stimuli/rescaled_final/1973_rv.mp4	0.0	371.24024987220764	0.9916388988494873
66	350.54836988449097	pulse	0	t		64.0	2.5	/experiments/AOT/AOT_stimuli/rescaled_final/1973_rv.mp4	0.0	372.2237298488617	
66	350.5565288066864	movie	1		246	64.0	2.5	/experiments/AOT/AOT_stimuli/rescaled_final/1973_rv.mp4	0.0	372.23188877105713	2.5084149837493896
66	352.14818382263184	pulse	1	t		64.0	2.5	/experiments/AOT/AOT_stimuli/rescaled_final/1973_rv.mp4	0.0	373.82354378700256	
66	353.0649437904358	fix_post	2		12	64.0	2.5	/experiments/AOT/AOT_stimuli/rescaled_final/1973_rv.mp4	0.0	374.7403037548065	0.09991216659545898
67	353.16485595703125	fix_pre	0		120	65.0	2.5	/experiments/AOT/AOT_stimuli/rescaled_final/0229_fw.mp4	0.0	374.840215921402	1.000067949295044
67	353.74832797050476	pulse	0	t		65.0	2.5	/experiments/AOT/AOT_stimuli/rescaled_final/0229_fw.mp4	0.0	375.4236879348755	
67	354.1649239063263	movie	1		243	65.0	2.5	/experiments/AOT/AOT_stimuli/rescaled_final/0229_fw.mp4	0.0	375.840283870697	2.4999189376831055
67	355.3483908176422	pulse	1	t		65.0	2.5	/experiments/AOT/AOT_stimuli/rescaled_final/0229_fw.mp4	0.0	377.02375078201294	
67	356.6648428440094	fix_post	2		12	65.0	2.5	/experiments/AOT/AOT_stimuli/rescaled_final/0229_fw.mp4	0.0	378.3402028083801	0.10002398490905762
68	356.76486682891846	fix_pre	0		120	66.0	2.5	/experiments/AOT/AOT_stimuli/rescaled_final/1340_fw.mp4	0.0	378.4402267932892	1.0000600814819336
68	356.9483377933502	pulse	0	t		66.0	2.5	/experiments/AOT/AOT_stimuli/rescaled_final/1340_fw.mp4	0.0	378.62369775772095	
68	357.7649269104004	movie	1		242	66.0	2.5	/experiments/AOT/AOT_stimuli/rescaled_final/1340_fw.mp4	0.0	379.4402868747711	2.4999589920043945
68	358.548259973526	pulse	1	t		66.0	2.5	/experiments/AOT/AOT_stimuli/rescaled_final/1340_fw.mp4	0.0	380.22361993789673	
68	360.15677094459534	pulse	1	t		66.0	2.5	/experiments/AOT/AOT_stimuli/rescaled_final/1340_fw.mp4	0.0	381.83213090896606	
68	360.2648859024048	fix_post	2		12	66.0	2.5	/experiments/AOT/AOT_stimuli/rescaled_final/1340_fw.mp4	0.0	381.9402458667755	0.09991908073425293
69	360.36480498313904	fix_pre	0		120	67.0	2.5	/experiments/AOT/AOT_stimuli/rescaled_final/1940_rv.mp4	0.0	382.04016494750977	1.0000858306884766
69	361.3648908138275	movie	1		243	67.0	2.5	/experiments/AOT/AOT_stimuli/rescaled_final/1940_rv.mp4	0.0	383.04025077819824	2.4999752044677734
69	361.74781680107117	pulse	1	t		67.0	2.5	/experiments/AOT/AOT_stimuli/rescaled_final/1940_rv.mp4	0.0	383.4231767654419	
69	363.34825682640076	pulse	1	t		67.0	2.5	/experiments/AOT/AOT_stimuli/rescaled_final/1940_rv.mp4	0.0	385.0236167907715	
69	363.8648660182953	fix_post	2		12	67.0	2.5	/experiments/AOT/AOT_stimuli/rescaled_final/1940_rv.mp4	0.0	385.540225982666	0.0999298095703125
70	363.9647958278656	fix_pre	0		119	68.0	2.5	/experiments/AOT/AOT_stimuli/rescaled_final/1163_rv.mp4	0.0	385.6401557922363	0.9916291236877441
70	364.9482858181	pulse	0	t		68.0	2.5	/experiments/AOT/AOT_stimuli/rescaled_final/1163_rv.mp4	0.0	386.6236457824707	
70	364.95642495155334	movie	1		246	68.0	2.5	/experiments/AOT/AOT_stimuli/rescaled_final/1163_rv.mp4	0.0	386.6317849159241	2.508420944213867
70	366.5477879047394	pulse	1	t		68.0	2.5	/experiments/AOT/AOT_stimuli/rescaled_final/1163_rv.mp4	0.0	388.2231478691101	
70	367.4648458957672	fix_post	2		12	68.0	2.5	/experiments/AOT/AOT_stimuli/rescaled_final/1163_rv.mp4	0.0	389.14020586013794	0.1000070571899414
71	367.56485295295715	fix_pre	0		120	69.0	2.5	/experiments/AOT/AOT_stimuli/rescaled_final/0704_fw.mp4	0.0	389.2402129173279	1.0000128746032715
71	368.14831590652466	pulse	0	t		69.0	2.5	/experiments/AOT/AOT_stimuli/rescaled_final/0704_fw.mp4	0.0	389.8236758708954	
71	368.5648658275604	movie	1		245	69.0	2.5	/experiments/AOT/AOT_stimuli/rescaled_final/0704_fw.mp4	0.0	390.24022579193115	2.4999561309814453
71	369.7483220100403	pulse	1	t		69.0	2.5	/experiments/AOT/AOT_stimuli/rescaled_final/0704_fw.mp4	0.0	391.423681974411	
71	371.06482195854187	fix_post	2		12	69.0	2.5	/experiments/AOT/AOT_stimuli/rescaled_final/0704_fw.mp4	0.0	392.7401819229126	0.1000070571899414
72	371.1648290157318	fix_pre	0		120	70.0	2.5	blank	1.0	392.84018898010254	0.999992847442627
72	371.34823989868164	pulse	0	t		70.0	2.5	blank	1.0	393.02359986305237	
72	372.16482186317444	movie	1		300	70.0	2.5	blank	1.0	393.84018182754517	2.500030040740967
72	372.9482169151306	pulse	1	t		70.0	2.5	blank	1.0	394.62357687950134	
72	374.5481779575348	pulse	1	t		70.0	2.5	blank	1.0	396.2235379219055	
72	374.6648519039154	fix_post	2		12	70.0	2.5	blank	1.0	396.34021186828613	0.09990406036376953
73	374.7647559642792	fix_pre	0		120	71.0	2.5	/experiments/AOT/AOT_stimuli/rescaled_final/1201_rv.mp4	0.0	396.4401159286499	0.9999580383300781
73	375.76471400260925	movie	1		244	71.0	2.5	/experiments/AOT/AOT_stimuli/rescaled_final/1201_rv.mp4	0.0	397.44007396698	2.499994993209839
73	376.1490259170532	pulse	1	t		71.0	2.5	/experiments/AOT/AOT_stimuli/rescaled_final/1201_rv.mp4	0.0	397.82438588142395	
73	377.74826097488403	pulse	1	t		71.0	2.5	/experiments/AOT/AOT_stimuli/rescaled_final/1201_rv.mp4	0.0	399.42362093925476	
73	378.2647089958191	fix_post	2		12	71.0	2.5	/experiments/AOT/AOT_stimuli/rescaled_final/1201_rv.mp4	0.0	399.9400689601898	0.10008978843688965
74	378.364798784256	fix_pre	0		119	72.0	2.5	/experiments/AOT/AOT_stimuli/rescaled_final/1893_rv.mp4	0.0	400.0401587486267	0.9916810989379883
74	379.3483078479767	pulse	0	t		72.0	2.5	/experiments/AOT/AOT_stimuli/rescaled_final/1893_rv.mp4	0.0	401.0236678123474	
74	379.35647988319397	movie	1		245	72.0	2.5	/experiments/AOT/AOT_stimuli/rescaled_final/1893_rv.mp4	0.0	401.0318398475647	2.5082321166992188
74	380.9477508068085	pulse	1	t		72.0	2.5	/experiments/AOT/AOT_stimuli/rescaled_final/1893_rv.mp4	0.0	402.6231107711792	
74	381.8647119998932	fix_post	2		12	72.0	2.5	/experiments/AOT/AOT_stimuli/rescaled_final/1893_rv.mp4	0.0	403.5400719642639	0.10002684593200684
75	381.9647388458252	fix_pre	0		120	73.0	2.5	/experiments/AOT/AOT_stimuli/rescaled_final/1529_rv.mp4	0.0	403.6400988101959	1.0000660419464111
75	382.5482678413391	pulse	0	t		73.0	2.5	/experiments/AOT/AOT_stimuli/rescaled_final/1529_rv.mp4	0.0	404.22362780570984	
75	382.9648048877716	movie	1		242	73.0	2.5	/experiments/AOT/AOT_stimuli/rescaled_final/1529_rv.mp4	0.0	404.64016485214233	2.4999330043792725
75	384.14828991889954	pulse	1	t		73.0	2.5	/experiments/AOT/AOT_stimuli/rescaled_final/1529_rv.mp4	0.0	405.82364988327026	
75	385.4647378921509	fix_post	2		12	73.0	2.5	/experiments/AOT/AOT_stimuli/rescaled_final/1529_rv.mp4	0.0	407.1400978565216	0.099945068359375
76	385.56468296051025	fix_pre	0		120	74.0	2.5	/experiments/AOT/AOT_stimuli/rescaled_final/2069_fw.mp4	0.0	407.240042924881	1.000020980834961
76	385.74822187423706	pulse	0	t		74.0	2.5	/experiments/AOT/AOT_stimuli/rescaled_final/2069_fw.mp4	0.0	407.4235818386078	
76	386.5647039413452	movie	1		244	74.0	2.5	/experiments/AOT/AOT_stimuli/rescaled_final/2069_fw.mp4	0.0	408.24006390571594	2.500032901763916
76	387.3481569290161	pulse	1	t		74.0	2.5	/experiments/AOT/AOT_stimuli/rescaled_final/2069_fw.mp4	0.0	409.02351689338684	
76	388.9566659927368	pulse	1	t		74.0	2.5	/experiments/AOT/AOT_stimuli/rescaled_final/2069_fw.mp4	0.0	410.63202595710754	
76	389.06473684310913	fix_post	2		12	74.0	2.5	/experiments/AOT/AOT_stimuli/rescaled_final/2069_fw.mp4	0.0	410.74009680747986	0.09999203681945801
77	389.1647288799286	fix_pre	0		120	75.0	2.5	blank	1.0	410.8400888442993	1.000014066696167
77	390.16474294662476	movie	1		300	75.0	2.5	blank	1.0	411.8401029109955	2.500009059906006
77	390.5481929779053	pulse	1	t		75.0	2.5	blank	1.0	412.223552942276	
77	392.14816093444824	pulse	1	t		75.0	2.5	blank	1.0	413.82352089881897	
77	392.66475200653076	fix_post	2		12	75.0	2.5	blank	1.0	414.3401119709015	0.09997200965881348
78	392.7647240161896	fix_pre	0		119	76.0	2.5	/experiments/AOT/AOT_stimuli/rescaled_final/1736_fw.mp4	0.0	414.4400839805603	0.9917268753051758
78	393.7481768131256	pulse	0	t		76.0	2.5	/experiments/AOT/AOT_stimuli/rescaled_final/1736_fw.mp4	0.0	415.42353677749634	
78	393.75645089149475	movie	1		246	76.0	2.5	/experiments/AOT/AOT_stimuli/rescaled_final/1736_fw.mp4	0.0	415.4318108558655	2.5079710483551025
78	395.34760880470276	pulse	1	t		76.0	2.5	/experiments/AOT/AOT_stimuli/rescaled_final/1736_fw.mp4	0.0	417.0229687690735	
78	396.26442193984985	fix_post	2		12	76.0	2.5	/experiments/AOT/AOT_stimuli/rescaled_final/1736_fw.mp4	0.0	417.9397819042206	0.09988784790039062
79	396.36430978775024	fix_pre	0		120	77.0	2.5	/experiments/AOT/AOT_stimuli/rescaled_final/1940_fw.mp4	0.0	418.039669752121	1.0002081394195557
79	396.9482889175415	pulse	0	t		77.0	2.5	/experiments/AOT/AOT_stimuli/rescaled_final/1940_fw.mp4	0.0	418.62364888191223	
79	397.3645179271698	movie	1		243	77.0	2.5	/experiments/AOT/AOT_stimuli/rescaled_final/1940_fw.mp4	0.0	419.0398778915405	2.500143051147461
79	398.54816198349	pulse	1	t		77.0	2.5	/experiments/AOT/AOT_stimuli/rescaled_final/1940_fw.mp4	0.0	420.2235219478607	
79	399.86466097831726	fix_post	2		12	77.0	2.5	/experiments/AOT/AOT_stimuli/rescaled_final/1940_fw.mp4	0.0	421.540020942688	0.10002303123474121
80	399.964684009552	fix_pre	0		120	78.0	2.5	/experiments/AOT/AOT_stimuli/rescaled_final/1219_fw.mp4	0.0	421.64004397392273	1.0000028610229492
80	400.1481788158417	pulse	0	t		78.0	2.5	/experiments/AOT/AOT_stimuli/rescaled_final/1219_fw.mp4	0.0	421.8235387802124	
80	400.96468687057495	movie	1		244	78.0	2.5	/experiments/AOT/AOT_stimuli/rescaled_final/1219_fw.mp4	0.0	422.6400468349457	2.499948024749756
80	401.74810099601746	pulse	1	t		78.0	2.5	/experiments/AOT/AOT_stimuli/rescaled_final/1219_fw.mp4	0.0	423.4234609603882	
80	403.35647988319397	pulse	1	t		78.0	2.5	/experiments/AOT/AOT_stimuli/rescaled_final/1219_fw.mp4	0.0	425.0318398475647	
80	403.4646348953247	fix_post	2		12	78.0	2.5	/experiments/AOT/AOT_stimuli/rescaled_final/1219_fw.mp4	0.0	425.13999485969543	0.0999460220336914
81	403.5645809173584	fix_pre	0		120	79.0	2.5	/experiments/AOT/AOT_stimuli/rescaled_final/0160_fw.mp4	0.0	425.2399408817291	0.9999868869781494
81	404.56456780433655	movie	1		243	79.0	2.5	/experiments/AOT/AOT_stimuli/rescaled_final/0160_fw.mp4	0.0	426.2399277687073	2.500023126602173
81	404.94897294044495	pulse	1	t		79.0	2.5	/experiments/AOT/AOT_stimuli/rescaled_final/0160_fw.mp4	0.0	426.6243329048157	
81	406.54801297187805	pulse	1	t		79.0	2.5	/experiments/AOT/AOT_stimuli/rescaled_final/0160_fw.mp4	0.0	428.2233729362488	
81	407.0645909309387	fix_post	2		12	79.0	2.5	/experiments/AOT/AOT_stimuli/rescaled_final/0160_fw.mp4	0.0	428.73995089530945	0.10003805160522461
82	407.16462898254395	fix_pre	0		119	80.0	2.5	/experiments/AOT/AOT_stimuli/rescaled_final/1245_rv.mp4	0.0	428.8399889469147	0.9915659427642822
82	408.1480679512024	pulse	0	t		80.0	2.5	/experiments/AOT/AOT_stimuli/rescaled_final/1245_rv.mp4	0.0	429.8234279155731	
82	408.1561949253082	movie	1		246	80.0	2.5	/experiments/AOT/AOT_stimuli/rescaled_final/1245_rv.mp4	0.0	429.83155488967896	2.508302927017212
82	409.74757194519043	pulse	1	t		80.0	2.5	/experiments/AOT/AOT_stimuli/rescaled_final/1245_rv.mp4	0.0	431.42293190956116	
82	410.66449785232544	fix_post	2		12	80.0	2.5	/experiments/AOT/AOT_stimuli/rescaled_final/1245_rv.mp4	0.0	432.33985781669617	0.1000680923461914
83	410.76456594467163	fix_pre	0		120	81.0	2.5	/experiments/AOT/AOT_stimuli/rescaled_final/1524_fw.mp4	0.0	432.43992590904236	0.9999768733978271
83	411.348112821579	pulse	0	t		81.0	2.5	/experiments/AOT/AOT_stimuli/rescaled_final/1524_fw.mp4	0.0	433.0234727859497	
83	411.76454281806946	movie	1		244	81.0	2.5	/experiments/AOT/AOT_stimuli/rescaled_final/1524_fw.mp4	0.0	433.4399027824402	2.50004506111145
83	412.94810581207275	pulse	1	t		81.0	2.5	/experiments/AOT/AOT_stimuli/rescaled_final/1524_fw.mp4	0.0	434.6234657764435	
83	414.2645878791809	fix_post	2		12	81.0	2.5	/experiments/AOT/AOT_stimuli/rescaled_final/1524_fw.mp4	0.0	435.93994784355164	0.09996509552001953
84	414.3645529747009	fix_pre	0		120	82.0	2.5	/experiments/AOT/AOT_stimuli/rescaled_final/2142_rv.mp4	0.0	436.03991293907166	1.0000388622283936
84	414.54806685447693	pulse	0	t		82.0	2.5	/experiments/AOT/AOT_stimuli/rescaled_final/2142_rv.mp4	0.0	436.22342681884766	
84	415.3645918369293	movie	1		245	82.0	2.5	/experiments/AOT/AOT_stimuli/rescaled_final/2142_rv.mp4	0.0	437.03995180130005	2.500005006790161
84	416.1480619907379	pulse	1	t		82.0	2.5	/experiments/AOT/AOT_stimuli/rescaled_final/2142_rv.mp4	0.0	437.82342195510864	
84	417.7566738128662	pulse	1	t		82.0	2.5	/experiments/AOT/AOT_stimuli/rescaled_final/2142_rv.mp4	0.0	439.43203377723694	
84	417.8645968437195	fix_post	2		12	82.0	2.5	/experiments/AOT/AOT_stimuli/rescaled_final/2142_rv.mp4	0.0	439.5399568080902	0.10006904602050781
85	417.96466588974	fix_pre	0		120	83.0	2.5	blank	1.0	439.6400258541107	0.9999299049377441
85	418.96459579467773	movie	1		300	83.0	2.5	blank	1.0	440.63995575904846	2.4999611377716064
85	419.3479778766632	pulse	1	t		83.0	2.5	blank	1.0	441.02333784103394	
85	420.947940826416	pulse	1	t		83.0	2.5	blank	1.0	442.62330079078674	
85	421.46455693244934	fix_post	2		12	83.0	2.5	blank	1.0	443.13991689682007	0.09999489784240723
87	421.56455183029175	stim	0		1716					443.2399117946625	14.300026178359985
87	422.5479688644409	pulse	0	t						444.22332882881165	
87	424.1479609012604	pulse	0	t						445.8233208656311	
87	425.7479147911072	pulse	0	t						447.4232747554779	
87	427.34801197052	pulse	0	t						449.02337193489075	
87	428.94802498817444	pulse	0	t						450.62338495254517	
87	430.54797196388245	pulse	0	t						452.2233319282532	
87	432.14802384376526	pulse	0	t						453.823383808136	
87	433.7479929924011	pulse	0	t						455.42335295677185	
87	435.3479437828064	pulse	0	t						457.0233037471771	
