trial_nr	onset	event_type	phase	response	nr_frames	movie_index	movie_duration	movie_file	blank	onset_abs	duration
0	0.16663241386413574	stim	0		1					22.60204005241394	0.00835108757019043
0	0.1277170181274414	response	0	space						22.563124656677246	
1	0.17498350143432617	stim	0		5363					22.61039113998413	44.7102575302124
1	44.870476484298706	pulse	0	t						67.30588412284851	
1	44.88524103164673	stim	1		1714					67.32064867019653	14.298537492752075
1	46.46570444107056	pulse	1	t						68.90111207962036	
1	48.065770387649536	pulse	1	t						70.50117802619934	
1	49.66580104827881	pulse	1	t						72.10120868682861	
1	51.26604866981506	pulse	1	t						73.70145630836487	
1	52.866389751434326	pulse	1	t						75.30179738998413	
1	54.46660017967224	pulse	1	t						76.90200781822205	
1	56.066750049591064	pulse	1	t						78.50215768814087	
1	57.667126417160034	pulse	1	t						80.10253405570984	
2	59.183778524398804	fix_pre	0		11	0.0	2.5	/experiments/knapen_AOT/AOT_stimuli/rescaled_final/0148_fw.mp4	0.0	81.61918616294861	0.1251997947692871
2	59.267277240753174	pulse	0	t		0.0	2.5	/experiments/knapen_AOT/AOT_stimuli/rescaled_final/0148_fw.mp4	0.0	81.70268487930298	
2	59.30897831916809	movie	1		291	0.0	2.5	/experiments/knapen_AOT/AOT_stimuli/rescaled_final/0148_fw.mp4	0.0	81.7443859577179	2.4752442836761475
2	60.86585283279419	pulse	1	t		0.0	2.5	/experiments/knapen_AOT/AOT_stimuli/rescaled_final/0148_fw.mp4	0.0	83.301260471344	
2	61.78422260284424	fix_post	2		12	0.0	2.5	/experiments/knapen_AOT/AOT_stimuli/rescaled_final/0148_fw.mp4	0.0	84.21963024139404	0.09995388984680176
3	61.88417649269104	fix_pre	0		120	1.0	2.5	/experiments/knapen_AOT/AOT_stimuli/rescaled_final/1498_rv.mp4	0.0	84.31958413124084	1.0085890293121338
3	62.45976424217224	pulse	0	t		1.0	2.5	/experiments/knapen_AOT/AOT_stimuli/rescaled_final/1498_rv.mp4	0.0	84.89517188072205	
3	62.892765522003174	movie	1		273	1.0	2.5	/experiments/knapen_AOT/AOT_stimuli/rescaled_final/1498_rv.mp4	0.0	85.32817316055298	2.491978168487549
3	64.05981707572937	pulse	1	t		1.0	2.5	/experiments/knapen_AOT/AOT_stimuli/rescaled_final/1498_rv.mp4	0.0	86.49522471427917	
3	65.38474369049072	fix_post	2		12	1.0	2.5	/experiments/knapen_AOT/AOT_stimuli/rescaled_final/1498_rv.mp4	0.0	87.82015132904053	0.09992170333862305
4	65.48466539382935	fix_pre	0		120	2.0	2.5	/experiments/knapen_AOT/AOT_stimuli/rescaled_final/2073_fw.mp4	0.0	87.92007303237915	1.0085031986236572
4	65.66008830070496	pulse	0	t		2.0	2.5	/experiments/knapen_AOT/AOT_stimuli/rescaled_final/2073_fw.mp4	0.0	88.09549593925476	
4	66.493168592453	movie	1		283	2.0	2.5	/experiments/knapen_AOT/AOT_stimuli/rescaled_final/2073_fw.mp4	0.0	88.92857623100281	2.492037296295166
4	67.26052260398865	pulse	1	t		2.0	2.5	/experiments/knapen_AOT/AOT_stimuli/rescaled_final/2073_fw.mp4	0.0	89.69593024253845	
4	68.86036944389343	pulse	1	t		2.0	2.5	/experiments/knapen_AOT/AOT_stimuli/rescaled_final/2073_fw.mp4	0.0	91.29577708244324	
4	68.98520588874817	fix_post	2		12	2.0	2.5	/experiments/knapen_AOT/AOT_stimuli/rescaled_final/2073_fw.mp4	0.0	91.42061352729797	0.10000157356262207
5	69.08520746231079	fix_pre	0		120	3.0	2.5	/experiments/knapen_AOT/AOT_stimuli/rescaled_final/0101_fw.mp4	0.0	91.5206151008606	1.0085153579711914
5	70.09372282028198	movie	1		277	3.0	2.5	/experiments/knapen_AOT/AOT_stimuli/rescaled_final/0101_fw.mp4	0.0	92.52913045883179	2.4920246601104736
5	70.46069717407227	pulse	1	t		3.0	2.5	/experiments/knapen_AOT/AOT_stimuli/rescaled_final/0101_fw.mp4	0.0	92.89610481262207	
5	72.06092262268066	pulse	1	t		3.0	2.5	/experiments/knapen_AOT/AOT_stimuli/rescaled_final/0101_fw.mp4	0.0	94.49633026123047	
5	72.58574748039246	fix_post	2		12	3.0	2.5	/experiments/knapen_AOT/AOT_stimuli/rescaled_final/0101_fw.mp4	0.0	95.02115511894226	0.09999465942382812
6	72.68574213981628	fix_pre	0		118	4.0	2.5	/experiments/knapen_AOT/AOT_stimuli/rescaled_final/0428_fw.mp4	0.0	95.12114977836609	0.9919471740722656
6	73.66145372390747	pulse	0	t		4.0	2.5	/experiments/knapen_AOT/AOT_stimuli/rescaled_final/0428_fw.mp4	0.0	96.09686136245728	
6	73.67768931388855	movie	1		272	4.0	2.5	/experiments/knapen_AOT/AOT_stimuli/rescaled_final/0428_fw.mp4	0.0	96.11309695243835	2.500253915786743
6	75.2613251209259	pulse	1	t		4.0	2.5	/experiments/knapen_AOT/AOT_stimuli/rescaled_final/0428_fw.mp4	0.0	97.69673275947571	
6	76.1779432296753	fix_post	2		12	4.0	2.5	/experiments/knapen_AOT/AOT_stimuli/rescaled_final/0428_fw.mp4	0.0	98.6133508682251	0.10002255439758301
7	76.27796578407288	fix_pre	0		120	5.0	2.5	/experiments/knapen_AOT/AOT_stimuli/rescaled_final/2142_rv.mp4	0.0	98.71337342262268	1.0084753036499023
7	76.86154246330261	pulse	0	t		5.0	2.5	/experiments/knapen_AOT/AOT_stimuli/rescaled_final/2142_rv.mp4	0.0	99.29695010185242	
7	77.28644108772278	movie	1		278	5.0	2.5	/experiments/knapen_AOT/AOT_stimuli/rescaled_final/2142_rv.mp4	0.0	99.72184872627258	2.492065191268921
7	78.46178221702576	pulse	1	t		5.0	2.5	/experiments/knapen_AOT/AOT_stimuli/rescaled_final/2142_rv.mp4	0.0	100.89718985557556	
7	79.7785062789917	fix_post	2		12	5.0	2.5	/experiments/knapen_AOT/AOT_stimuli/rescaled_final/2142_rv.mp4	0.0	102.2139139175415	0.09998822212219238
8	79.87849450111389	fix_pre	0		120	6.0	2.5	/experiments/knapen_AOT/AOT_stimuli/rescaled_final/0248_fw.mp4	0.0	102.3139021396637	1.008504867553711
8	80.06211447715759	pulse	0	t		6.0	2.5	/experiments/knapen_AOT/AOT_stimuli/rescaled_final/0248_fw.mp4	0.0	102.4975221157074	
8	80.8869993686676	movie	1		265	6.0	2.5	/experiments/knapen_AOT/AOT_stimuli/rescaled_final/0248_fw.mp4	0.0	103.32240700721741	2.4921023845672607
8	81.66359329223633	pulse	1	t		6.0	2.5	/experiments/knapen_AOT/AOT_stimuli/rescaled_final/0248_fw.mp4	0.0	104.09900093078613	
8	83.26038765907288	pulse	1	t		6.0	2.5	/experiments/knapen_AOT/AOT_stimuli/rescaled_final/0248_fw.mp4	0.0	105.69579529762268	
8	83.37910175323486	fix_post	2		12	6.0	2.5	/experiments/knapen_AOT/AOT_stimuli/rescaled_final/0248_fw.mp4	0.0	105.81450939178467	0.09998583793640137
9	83.47908759117126	fix_pre	0		120	7.0	2.5	blank	1.0	105.91449522972107	1.0001139640808105
9	84.47920155525208	movie	1		300	7.0	2.5	blank	1.0	106.91460919380188	2.5003604888916016
9	84.86278033256531	pulse	1	t		7.0	2.5	blank	1.0	107.29818797111511	
9	86.46301937103271	pulse	1	t		7.0	2.5	blank	1.0	108.89842700958252	
9	86.97956204414368	fix_post	2		12	7.0	2.5	blank	1.0	109.41496968269348	0.10004615783691406
10	87.07960820198059	fix_pre	0		119	8.0	2.5	/experiments/knapen_AOT/AOT_stimuli/rescaled_final/1871_fw.mp4	0.0	109.5150158405304	1.0001094341278076
10	88.06325101852417	pulse	0	t		8.0	2.5	/experiments/knapen_AOT/AOT_stimuli/rescaled_final/1871_fw.mp4	0.0	110.49865865707397	
10	88.0797176361084	movie	1		281	8.0	2.5	/experiments/knapen_AOT/AOT_stimuli/rescaled_final/1871_fw.mp4	0.0	110.5151252746582	2.5003817081451416
10	89.66496539115906	pulse	1	t		8.0	2.5	/experiments/knapen_AOT/AOT_stimuli/rescaled_final/1871_fw.mp4	0.0	112.10037302970886	
10	90.58009934425354	fix_post	2		12	8.0	2.5	/experiments/knapen_AOT/AOT_stimuli/rescaled_final/1871_fw.mp4	0.0	113.01550698280334	0.10000991821289062
11	90.68010926246643	fix_pre	0		120	9.0	2.5	/experiments/knapen_AOT/AOT_stimuli/rescaled_final/0176_rv.mp4	0.0	113.11551690101624	1.0085067749023438
11	91.26376152038574	pulse	0	t		9.0	2.5	/experiments/knapen_AOT/AOT_stimuli/rescaled_final/0176_rv.mp4	0.0	113.69916915893555	
11	91.68861603736877	movie	1		277	9.0	2.5	/experiments/knapen_AOT/AOT_stimuli/rescaled_final/0176_rv.mp4	0.0	114.12402367591858	2.492086887359619
11	92.86268973350525	pulse	1	t		9.0	2.5	/experiments/knapen_AOT/AOT_stimuli/rescaled_final/0176_rv.mp4	0.0	115.29809737205505	
11	94.1807029247284	fix_post	2		12	9.0	2.5	/experiments/knapen_AOT/AOT_stimuli/rescaled_final/0176_rv.mp4	0.0	116.6161105632782	0.1000223159790039
12	94.2807252407074	fix_pre	0		120	10.0	2.5	/experiments/knapen_AOT/AOT_stimuli/rescaled_final/2168_fw.mp4	0.0	116.7161328792572	1.0084929466247559
12	94.46433711051941	pulse	0	t		10.0	2.5	/experiments/knapen_AOT/AOT_stimuli/rescaled_final/2168_fw.mp4	0.0	116.89974474906921	
12	95.28921818733215	movie	1		283	10.0	2.5	/experiments/knapen_AOT/AOT_stimuli/rescaled_final/2168_fw.mp4	0.0	117.72462582588196	2.491969347000122
12	96.0634651184082	pulse	1	t		10.0	2.5	/experiments/knapen_AOT/AOT_stimuli/rescaled_final/2168_fw.mp4	0.0	118.49887275695801	
12	97.6627550125122	pulse	1	t		10.0	2.5	/experiments/knapen_AOT/AOT_stimuli/rescaled_final/2168_fw.mp4	0.0	120.09816265106201	
12	97.78118753433228	fix_post	2		12	10.0	2.5	/experiments/knapen_AOT/AOT_stimuli/rescaled_final/2168_fw.mp4	0.0	120.21659517288208	0.10001277923583984
13	97.88120031356812	fix_pre	0		120	11.0	2.5	/experiments/knapen_AOT/AOT_stimuli/rescaled_final/1060_fw.mp4	0.0	120.31660795211792	1.0085041522979736
13	98.88970446586609	movie	1		283	11.0	2.5	/experiments/knapen_AOT/AOT_stimuli/rescaled_final/1060_fw.mp4	0.0	121.3251121044159	2.492025375366211
13	99.26518440246582	pulse	1	t		11.0	2.5	/experiments/knapen_AOT/AOT_stimuli/rescaled_final/1060_fw.mp4	0.0	121.70059204101562	
13	100.86308431625366	pulse	1	t		11.0	2.5	/experiments/knapen_AOT/AOT_stimuli/rescaled_final/1060_fw.mp4	0.0	123.29849195480347	
13	101.3817298412323	fix_post	2		12	11.0	2.5	/experiments/knapen_AOT/AOT_stimuli/rescaled_final/1060_fw.mp4	0.0	123.8171374797821	0.10001993179321289
14	101.48174977302551	fix_pre	0		119	12.0	2.5	/experiments/knapen_AOT/AOT_stimuli/rescaled_final/1696_fw.mp4	0.0	123.91715741157532	1.0001883506774902
14	102.46541595458984	pulse	0	t		12.0	2.5	/experiments/knapen_AOT/AOT_stimuli/rescaled_final/1696_fw.mp4	0.0	124.90082359313965	
14	102.481938123703	movie	1		283	12.0	2.5	/experiments/knapen_AOT/AOT_stimuli/rescaled_final/1696_fw.mp4	0.0	124.91734576225281	2.5087056159973145
14	104.0647189617157	pulse	1	t		12.0	2.5	/experiments/knapen_AOT/AOT_stimuli/rescaled_final/1696_fw.mp4	0.0	126.5001266002655	
14	104.99064373970032	fix_post	2		11	12.0	2.5	/experiments/knapen_AOT/AOT_stimuli/rescaled_final/1696_fw.mp4	0.0	127.42605137825012	0.09166979789733887
15	105.08231353759766	fix_pre	0		120	13.0	2.5	/experiments/knapen_AOT/AOT_stimuli/rescaled_final/0463_rv.mp4	0.0	127.51772117614746	1.0084497928619385
15	105.66599082946777	pulse	0	t		13.0	2.5	/experiments/knapen_AOT/AOT_stimuli/rescaled_final/0463_rv.mp4	0.0	128.10139846801758	
15	106.0907633304596	movie	1		284	13.0	2.5	/experiments/knapen_AOT/AOT_stimuli/rescaled_final/0463_rv.mp4	0.0	128.5261709690094	2.492194890975952
15	107.26429843902588	pulse	1	t		13.0	2.5	/experiments/knapen_AOT/AOT_stimuli/rescaled_final/0463_rv.mp4	0.0	129.69970607757568	
15	108.58295822143555	fix_post	2		12	13.0	2.5	/experiments/knapen_AOT/AOT_stimuli/rescaled_final/0463_rv.mp4	0.0	131.01836585998535	0.09991621971130371
16	108.68287444114685	fix_pre	0		120	14.0	2.5	blank	1.0	131.11828207969666	1.0001280307769775
16	108.86643290519714	pulse	0	t		14.0	2.5	blank	1.0	131.30184054374695	
16	109.68300247192383	movie	1		300	14.0	2.5	blank	1.0	132.11841011047363	2.5003504753112793
16	110.46659398078918	pulse	1	t		14.0	2.5	blank	1.0	132.902001619339	
16	112.06686353683472	pulse	1	t		14.0	2.5	blank	1.0	134.50227117538452	
16	112.18335294723511	fix_post	2		12	14.0	2.5	blank	1.0	134.6187605857849	0.1000056266784668
17	112.28335857391357	fix_pre	0		120	15.0	2.5	/experiments/knapen_AOT/AOT_stimuli/rescaled_final/0696_fw.mp4	0.0	134.71876621246338	1.008542776107788
17	113.29190135002136	movie	1		277	15.0	2.5	/experiments/knapen_AOT/AOT_stimuli/rescaled_final/0696_fw.mp4	0.0	135.72730898857117	2.4921531677246094
17	113.66735005378723	pulse	1	t		15.0	2.5	/experiments/knapen_AOT/AOT_stimuli/rescaled_final/0696_fw.mp4	0.0	136.10275769233704	
17	115.26502847671509	pulse	1	t		15.0	2.5	/experiments/knapen_AOT/AOT_stimuli/rescaled_final/0696_fw.mp4	0.0	137.7004361152649	
17	115.78405451774597	fix_post	2		12	15.0	2.5	/experiments/knapen_AOT/AOT_stimuli/rescaled_final/0696_fw.mp4	0.0	138.21946215629578	0.09987354278564453
18	115.88392806053162	fix_pre	0		119	16.0	2.5	/experiments/knapen_AOT/AOT_stimuli/rescaled_final/1652_fw.mp4	0.0	138.31933569908142	1.000192403793335
18	116.86770224571228	pulse	0	t		16.0	2.5	/experiments/knapen_AOT/AOT_stimuli/rescaled_final/1652_fw.mp4	0.0	139.30310988426208	
18	116.88412046432495	movie	1		268	16.0	2.5	/experiments/knapen_AOT/AOT_stimuli/rescaled_final/1652_fw.mp4	0.0	139.31952810287476	2.5003347396850586
18	118.46636009216309	pulse	1	t		16.0	2.5	/experiments/knapen_AOT/AOT_stimuli/rescaled_final/1652_fw.mp4	0.0	140.9017677307129	
18	119.38445520401001	fix_post	2		12	16.0	2.5	/experiments/knapen_AOT/AOT_stimuli/rescaled_final/1652_fw.mp4	0.0	141.81986284255981	0.10011625289916992
19	119.48457145690918	fix_pre	0		120	17.0	2.5	/experiments/knapen_AOT/AOT_stimuli/rescaled_final/0299_rv.mp4	0.0	141.91997909545898	1.0083813667297363
19	120.06136178970337	pulse	0	t		17.0	2.5	/experiments/knapen_AOT/AOT_stimuli/rescaled_final/0299_rv.mp4	0.0	142.49676942825317	
19	120.49295282363892	movie	1		273	17.0	2.5	/experiments/knapen_AOT/AOT_stimuli/rescaled_final/0299_rv.mp4	0.0	142.92836046218872	2.492039203643799
19	121.66025114059448	pulse	1	t		17.0	2.5	/experiments/knapen_AOT/AOT_stimuli/rescaled_final/0299_rv.mp4	0.0	144.0956587791443	
19	122.98499202728271	fix_post	2		12	17.0	2.5	/experiments/knapen_AOT/AOT_stimuli/rescaled_final/0299_rv.mp4	0.0	145.42039966583252	0.10004138946533203
20	123.08503341674805	fix_pre	0		120	18.0	2.5	/experiments/knapen_AOT/AOT_stimuli/rescaled_final/0447_rv.mp4	0.0	145.52044105529785	1.0084636211395264
20	123.26030254364014	pulse	0	t		18.0	2.5	/experiments/knapen_AOT/AOT_stimuli/rescaled_final/0447_rv.mp4	0.0	145.69571018218994	
20	124.09349703788757	movie	1		278	18.0	2.5	/experiments/knapen_AOT/AOT_stimuli/rescaled_final/0447_rv.mp4	0.0	146.52890467643738	2.4920153617858887
20	124.86053609848022	pulse	1	t		18.0	2.5	/experiments/knapen_AOT/AOT_stimuli/rescaled_final/0447_rv.mp4	0.0	147.29594373703003	
20	126.46073007583618	pulse	1	t		18.0	2.5	/experiments/knapen_AOT/AOT_stimuli/rescaled_final/0447_rv.mp4	0.0	148.896137714386	
20	126.58551239967346	fix_post	2		12	18.0	2.5	/experiments/knapen_AOT/AOT_stimuli/rescaled_final/0447_rv.mp4	0.0	149.02092003822327	0.1000216007232666
21	126.68553400039673	fix_pre	0		120	19.0	2.5	/experiments/knapen_AOT/AOT_stimuli/rescaled_final/1656_rv.mp4	0.0	149.12094163894653	1.0085134506225586
21	127.69404745101929	movie	1		276	19.0	2.5	/experiments/knapen_AOT/AOT_stimuli/rescaled_final/1656_rv.mp4	0.0	150.1294550895691	2.4920198917388916
21	128.0610785484314	pulse	1	t		19.0	2.5	/experiments/knapen_AOT/AOT_stimuli/rescaled_final/1656_rv.mp4	0.0	150.4964861869812	
21	129.66129755973816	pulse	1	t		19.0	2.5	/experiments/knapen_AOT/AOT_stimuli/rescaled_final/1656_rv.mp4	0.0	152.09670519828796	
21	130.18606734275818	fix_post	2		12	19.0	2.5	/experiments/knapen_AOT/AOT_stimuli/rescaled_final/1656_rv.mp4	0.0	152.62147498130798	0.10000038146972656
22	130.2860677242279	fix_pre	0		118	20.0	2.5	/experiments/knapen_AOT/AOT_stimuli/rescaled_final/2024_fw.mp4	0.0	152.7214753627777	0.9918413162231445
22	131.26146388053894	pulse	0	t		20.0	2.5	/experiments/knapen_AOT/AOT_stimuli/rescaled_final/2024_fw.mp4	0.0	153.69687151908875	
22	131.27790904045105	movie	1		274	20.0	2.5	/experiments/knapen_AOT/AOT_stimuli/rescaled_final/2024_fw.mp4	0.0	153.71331667900085	2.5003483295440674
22	132.8617446422577	pulse	1	t		20.0	2.5	/experiments/knapen_AOT/AOT_stimuli/rescaled_final/2024_fw.mp4	0.0	155.2971522808075	
22	133.77825736999512	fix_post	2		12	20.0	2.5	/experiments/knapen_AOT/AOT_stimuli/rescaled_final/2024_fw.mp4	0.0	156.21366500854492	0.10003471374511719
23	133.87829208374023	fix_pre	0		120	21.0	2.5	blank	1.0	156.31369972229004	1.0001256465911865
23	134.46188163757324	pulse	0	t		21.0	2.5	blank	1.0	156.89728927612305	
23	134.87841773033142	movie	1		300	21.0	2.5	blank	1.0	157.31382536888123	2.5003926753997803
23	136.06224393844604	pulse	1	t		21.0	2.5	blank	1.0	158.49765157699585	
23	137.3788104057312	fix_post	2		12	21.0	2.5	blank	1.0	159.814218044281	0.10002970695495605
24	137.47884011268616	fix_pre	0		120	22.0	2.5	/experiments/knapen_AOT/AOT_stimuli/rescaled_final/2070_fw.mp4	0.0	159.91424775123596	1.0084946155548096
24	137.66240668296814	pulse	0	t		22.0	2.5	/experiments/knapen_AOT/AOT_stimuli/rescaled_final/2070_fw.mp4	0.0	160.09781432151794	
24	138.48733472824097	movie	1		268	22.0	2.5	/experiments/knapen_AOT/AOT_stimuli/rescaled_final/2070_fw.mp4	0.0	160.92274236679077	2.4921844005584717
24	139.264014005661	pulse	1	t		22.0	2.5	/experiments/knapen_AOT/AOT_stimuli/rescaled_final/2070_fw.mp4	0.0	161.69942164421082	
24	140.8608169555664	pulse	1	t		22.0	2.5	/experiments/knapen_AOT/AOT_stimuli/rescaled_final/2070_fw.mp4	0.0	163.2962245941162	
24	140.97951912879944	fix_post	2		12	22.0	2.5	/experiments/knapen_AOT/AOT_stimuli/rescaled_final/2070_fw.mp4	0.0	163.41492676734924	0.09985113143920898
25	141.07937026023865	fix_pre	0		120	23.0	2.5	/experiments/knapen_AOT/AOT_stimuli/rescaled_final/1377_rv.mp4	0.0	163.51477789878845	1.0084846019744873
25	142.08785486221313	movie	1		282	23.0	2.5	/experiments/knapen_AOT/AOT_stimuli/rescaled_final/1377_rv.mp4	0.0	164.52326250076294	2.492105007171631
25	142.46132230758667	pulse	1	t		23.0	2.5	/experiments/knapen_AOT/AOT_stimuli/rescaled_final/1377_rv.mp4	0.0	164.89672994613647	
25	144.06126856803894	pulse	1	t		23.0	2.5	/experiments/knapen_AOT/AOT_stimuli/rescaled_final/1377_rv.mp4	0.0	166.49667620658875	
25	144.57995986938477	fix_post	2		12	23.0	2.5	/experiments/knapen_AOT/AOT_stimuli/rescaled_final/1377_rv.mp4	0.0	167.01536750793457	0.09994244575500488
26	144.67990231513977	fix_pre	0		119	24.0	2.5	/experiments/knapen_AOT/AOT_stimuli/rescaled_final/0055_rv.mp4	0.0	167.11530995368958	1.000187635421753
26	145.66365385055542	pulse	0	t		24.0	2.5	/experiments/knapen_AOT/AOT_stimuli/rescaled_final/0055_rv.mp4	0.0	168.09906148910522	
26	145.68008995056152	movie	1		289	24.0	2.5	/experiments/knapen_AOT/AOT_stimuli/rescaled_final/0055_rv.mp4	0.0	168.11549758911133	2.5003294944763184
26	147.26247429847717	pulse	1	t		24.0	2.5	/experiments/knapen_AOT/AOT_stimuli/rescaled_final/0055_rv.mp4	0.0	169.69788193702698	
26	148.18041944503784	fix_post	2		12	24.0	2.5	/experiments/knapen_AOT/AOT_stimuli/rescaled_final/0055_rv.mp4	0.0	170.61582708358765	0.10014533996582031
27	148.28056478500366	fix_pre	0		120	25.0	2.5	/experiments/knapen_AOT/AOT_stimuli/rescaled_final/1842_rv.mp4	0.0	170.71597242355347	1.0083842277526855
27	148.86432099342346	pulse	0	t		25.0	2.5	/experiments/knapen_AOT/AOT_stimuli/rescaled_final/1842_rv.mp4	0.0	171.29972863197327	
27	149.28894901275635	movie	1		284	25.0	2.5	/experiments/knapen_AOT/AOT_stimuli/rescaled_final/1842_rv.mp4	0.0	171.72435665130615	2.492034673690796
27	150.46239185333252	pulse	1	t		25.0	2.5	/experiments/knapen_AOT/AOT_stimuli/rescaled_final/1842_rv.mp4	0.0	172.89779949188232	
27	151.78098368644714	fix_post	2		12	25.0	2.5	/experiments/knapen_AOT/AOT_stimuli/rescaled_final/1842_rv.mp4	0.0	174.21639132499695	0.10016608238220215
28	151.88114976882935	fix_pre	0		120	26.0	2.5	/experiments/knapen_AOT/AOT_stimuli/rescaled_final/0283_fw.mp4	0.0	174.31655740737915	1.0083470344543457
28	152.06452298164368	pulse	0	t		26.0	2.5	/experiments/knapen_AOT/AOT_stimuli/rescaled_final/0283_fw.mp4	0.0	174.49993062019348	
28	152.8894968032837	movie	1		276	26.0	2.5	/experiments/knapen_AOT/AOT_stimuli/rescaled_final/0283_fw.mp4	0.0	175.3249044418335	2.4920437335968018
28	153.66473722457886	pulse	1	t		26.0	2.5	/experiments/knapen_AOT/AOT_stimuli/rescaled_final/0283_fw.mp4	0.0	176.10014486312866	
28	155.26309823989868	pulse	1	t		26.0	2.5	/experiments/knapen_AOT/AOT_stimuli/rescaled_final/0283_fw.mp4	0.0	177.6985058784485	
28	155.3815405368805	fix_post	2		12	26.0	2.5	/experiments/knapen_AOT/AOT_stimuli/rescaled_final/0283_fw.mp4	0.0	177.8169481754303	0.10001587867736816
29	155.48155641555786	fix_pre	0		120	27.0	2.5	/experiments/knapen_AOT/AOT_stimuli/rescaled_final/1815_fw.mp4	0.0	177.91696405410767	1.0085620880126953
29	156.49011850357056	movie	1		277	27.0	2.5	/experiments/knapen_AOT/AOT_stimuli/rescaled_final/1815_fw.mp4	0.0	178.92552614212036	2.49194073677063
29	156.864422082901	pulse	1	t		27.0	2.5	/experiments/knapen_AOT/AOT_stimuli/rescaled_final/1815_fw.mp4	0.0	179.2998297214508	
29	158.46342277526855	pulse	1	t		27.0	2.5	/experiments/knapen_AOT/AOT_stimuli/rescaled_final/1815_fw.mp4	0.0	180.89883041381836	
29	158.9820592403412	fix_post	2		12	27.0	2.5	/experiments/knapen_AOT/AOT_stimuli/rescaled_final/1815_fw.mp4	0.0	181.417466878891	0.10000848770141602
30	159.0820677280426	fix_pre	0		119	28.0	2.5	blank	1.0	181.5174753665924	0.991840124130249
30	160.06580710411072	pulse	0	t		28.0	2.5	blank	1.0	182.50121474266052	
30	160.07390785217285	movie	1		301	28.0	2.5	blank	1.0	182.50931549072266	2.508686065673828
30	161.66601657867432	pulse	1	t		28.0	2.5	blank	1.0	184.10142421722412	
30	162.58259391784668	fix_post	2		12	28.0	2.5	blank	1.0	185.01800155639648	0.10001564025878906
31	162.68260955810547	fix_pre	0		120	29.0	2.5	/experiments/knapen_AOT/AOT_stimuli/rescaled_final/0025_rv.mp4	0.0	185.11801719665527	1.0084962844848633
31	163.26640105247498	pulse	0	t		29.0	2.5	/experiments/knapen_AOT/AOT_stimuli/rescaled_final/0025_rv.mp4	0.0	185.70180869102478	
31	163.69110584259033	movie	1		276	29.0	2.5	/experiments/knapen_AOT/AOT_stimuli/rescaled_final/0025_rv.mp4	0.0	186.12651348114014	2.4920408725738525
31	164.86470079421997	pulse	1	t		29.0	2.5	/experiments/knapen_AOT/AOT_stimuli/rescaled_final/0025_rv.mp4	0.0	187.30010843276978	
31	166.18314671516418	fix_post	2		12	29.0	2.5	/experiments/knapen_AOT/AOT_stimuli/rescaled_final/0025_rv.mp4	0.0	188.618554353714	0.09999966621398926
32	166.28314638137817	fix_pre	0		120	30.0	2.5	/experiments/knapen_AOT/AOT_stimuli/rescaled_final/0508_rv.mp4	0.0	188.71855401992798	1.0085277557373047
32	166.466867685318	pulse	0	t		30.0	2.5	/experiments/knapen_AOT/AOT_stimuli/rescaled_final/0508_rv.mp4	0.0	188.9022753238678	
32	167.29167413711548	movie	1		275	30.0	2.5	/experiments/knapen_AOT/AOT_stimuli/rescaled_final/0508_rv.mp4	0.0	189.72708177566528	2.4919846057891846
32	168.06485438346863	pulse	1	t		30.0	2.5	/experiments/knapen_AOT/AOT_stimuli/rescaled_final/0508_rv.mp4	0.0	190.50026202201843	
32	169.66506171226501	pulse	1	t		30.0	2.5	/experiments/knapen_AOT/AOT_stimuli/rescaled_final/0508_rv.mp4	0.0	192.10046935081482	
32	169.78365874290466	fix_post	2		12	30.0	2.5	/experiments/knapen_AOT/AOT_stimuli/rescaled_final/0508_rv.mp4	0.0	192.21906638145447	0.10003829002380371
33	169.88369703292847	fix_pre	0		120	31.0	2.5	/experiments/knapen_AOT/AOT_stimuli/rescaled_final/2069_rv.mp4	0.0	192.31910467147827	1.0084936618804932
33	170.89219069480896	movie	1		276	31.0	2.5	/experiments/knapen_AOT/AOT_stimuli/rescaled_final/2069_rv.mp4	0.0	193.32759833335876	2.4920194149017334
33	171.2670509815216	pulse	1	t		31.0	2.5	/experiments/knapen_AOT/AOT_stimuli/rescaled_final/2069_rv.mp4	0.0	193.7024586200714	
33	172.85955810546875	pulse	1	t		31.0	2.5	/experiments/knapen_AOT/AOT_stimuli/rescaled_final/2069_rv.mp4	0.0	195.29496574401855	
33	173.3842101097107	fix_post	2		12	31.0	2.5	/experiments/knapen_AOT/AOT_stimuli/rescaled_final/2069_rv.mp4	0.0	195.8196177482605	0.10005402565002441
34	173.48426413536072	fix_pre	0		118	32.0	2.5	/experiments/knapen_AOT/AOT_stimuli/rescaled_final/0840_fw.mp4	0.0	195.91967177391052	0.9917943477630615
34	174.45985412597656	pulse	0	t		32.0	2.5	/experiments/knapen_AOT/AOT_stimuli/rescaled_final/0840_fw.mp4	0.0	196.89526176452637	
34	174.47605848312378	movie	1		272	32.0	2.5	/experiments/knapen_AOT/AOT_stimuli/rescaled_final/0840_fw.mp4	0.0	196.91146612167358	2.5004146099090576
34	176.05992078781128	pulse	1	t		32.0	2.5	/experiments/knapen_AOT/AOT_stimuli/rescaled_final/0840_fw.mp4	0.0	198.49532842636108	
34	176.97647309303284	fix_post	2		12	32.0	2.5	/experiments/knapen_AOT/AOT_stimuli/rescaled_final/0840_fw.mp4	0.0	199.41188073158264	0.09998798370361328
35	177.07646107673645	fix_pre	0		120	33.0	2.5	blank	1.0	199.51186871528625	1.0001318454742432
35	177.66011762619019	pulse	0	t		33.0	2.5	blank	1.0	200.09552526474	
35	178.0765929222107	movie	1		300	33.0	2.5	blank	1.0	200.5120005607605	2.5003859996795654
35	179.2603349685669	pulse	1	t		33.0	2.5	blank	1.0	201.6957426071167	
35	180.57697892189026	fix_post	2		12	33.0	2.5	blank	1.0	203.01238656044006	0.1000826358795166
36	180.67706155776978	fix_pre	0		120	34.0	2.5	/experiments/knapen_AOT/AOT_stimuli/rescaled_final/0447_fw.mp4	0.0	203.11246919631958	1.0084121227264404
36	180.86055159568787	pulse	0	t		34.0	2.5	/experiments/knapen_AOT/AOT_stimuli/rescaled_final/0447_fw.mp4	0.0	203.29595923423767	
36	181.68547368049622	movie	1		281	34.0	2.5	/experiments/knapen_AOT/AOT_stimuli/rescaled_final/0447_fw.mp4	0.0	204.12088131904602	2.492011547088623
36	182.46078872680664	pulse	1	t		34.0	2.5	/experiments/knapen_AOT/AOT_stimuli/rescaled_final/0447_fw.mp4	0.0	204.89619636535645	
36	184.06105589866638	pulse	1	t		34.0	2.5	/experiments/knapen_AOT/AOT_stimuli/rescaled_final/0447_fw.mp4	0.0	206.4964635372162	
36	184.17748522758484	fix_post	2		12	34.0	2.5	/experiments/knapen_AOT/AOT_stimuli/rescaled_final/0447_fw.mp4	0.0	206.61289286613464	0.10015702247619629
37	184.27764225006104	fix_pre	0		120	35.0	2.5	/experiments/knapen_AOT/AOT_stimuli/rescaled_final/1696_rv.mp4	0.0	206.71304988861084	1.0083909034729004
37	185.28603315353394	movie	1		270	35.0	2.5	/experiments/knapen_AOT/AOT_stimuli/rescaled_final/1696_rv.mp4	0.0	207.72144079208374	2.4920053482055664
37	185.65967774391174	pulse	1	t		35.0	2.5	/experiments/knapen_AOT/AOT_stimuli/rescaled_final/1696_rv.mp4	0.0	208.09508538246155	
37	187.26193761825562	pulse	1	t		35.0	2.5	/experiments/knapen_AOT/AOT_stimuli/rescaled_final/1696_rv.mp4	0.0	209.69734525680542	
37	187.7780385017395	fix_post	2		12	35.0	2.5	/experiments/knapen_AOT/AOT_stimuli/rescaled_final/1696_rv.mp4	0.0	210.2134461402893	0.10003376007080078
38	187.8780722618103	fix_pre	0		119	36.0	2.5	/experiments/knapen_AOT/AOT_stimuli/rescaled_final/2079_fw.mp4	0.0	210.3134799003601	1.0001404285430908
38	188.86179327964783	pulse	0	t		36.0	2.5	/experiments/knapen_AOT/AOT_stimuli/rescaled_final/2079_fw.mp4	0.0	211.29720091819763	
38	188.8782126903534	movie	1		286	36.0	2.5	/experiments/knapen_AOT/AOT_stimuli/rescaled_final/2079_fw.mp4	0.0	211.3136203289032	2.5003697872161865
38	190.46038103103638	pulse	1	t		36.0	2.5	/experiments/knapen_AOT/AOT_stimuli/rescaled_final/2079_fw.mp4	0.0	212.89578866958618	
38	191.37858247756958	fix_post	2		12	36.0	2.5	/experiments/knapen_AOT/AOT_stimuli/rescaled_final/2079_fw.mp4	0.0	213.81399011611938	0.10005831718444824
39	191.47864079475403	fix_pre	0		120	37.0	2.5	/experiments/knapen_AOT/AOT_stimuli/rescaled_final/0419_fw.mp4	0.0	213.91404843330383	1.00858736038208
39	192.06257390975952	pulse	0	t		37.0	2.5	/experiments/knapen_AOT/AOT_stimuli/rescaled_final/0419_fw.mp4	0.0	214.49798154830933	
39	192.4872281551361	movie	1		288	37.0	2.5	/experiments/knapen_AOT/AOT_stimuli/rescaled_final/0419_fw.mp4	0.0	214.9226357936859	2.492082118988037
39	193.66071796417236	pulse	1	t		37.0	2.5	/experiments/knapen_AOT/AOT_stimuli/rescaled_final/0419_fw.mp4	0.0	216.09612560272217	
39	194.97931027412415	fix_post	2		12	37.0	2.5	/experiments/knapen_AOT/AOT_stimuli/rescaled_final/0419_fw.mp4	0.0	217.41471791267395	0.09983253479003906
40	195.07914280891418	fix_pre	0		120	38.0	2.5	/experiments/knapen_AOT/AOT_stimuli/rescaled_final/1941_fw.mp4	0.0	217.514550447464	1.008549451828003
40	195.26263546943665	pulse	0	t		38.0	2.5	/experiments/knapen_AOT/AOT_stimuli/rescaled_final/1941_fw.mp4	0.0	217.69804310798645	
40	196.0876922607422	movie	1		276	38.0	2.5	/experiments/knapen_AOT/AOT_stimuli/rescaled_final/1941_fw.mp4	0.0	218.523099899292	2.4919798374176025
40	196.86064839363098	pulse	1	t		38.0	2.5	/experiments/knapen_AOT/AOT_stimuli/rescaled_final/1941_fw.mp4	0.0	219.2960560321808	
40	198.4625380039215	pulse	1	t		38.0	2.5	/experiments/knapen_AOT/AOT_stimuli/rescaled_final/1941_fw.mp4	0.0	220.8979456424713	
40	198.5796720981598	fix_post	2		12	38.0	2.5	/experiments/knapen_AOT/AOT_stimuli/rescaled_final/1941_fw.mp4	0.0	221.0150797367096	0.10005784034729004
41	198.67972993850708	fix_pre	0		120	39.0	2.5	/experiments/knapen_AOT/AOT_stimuli/rescaled_final/1359_fw.mp4	0.0	221.11513757705688	1.0085327625274658
41	199.68826270103455	movie	1		274	39.0	2.5	/experiments/knapen_AOT/AOT_stimuli/rescaled_final/1359_fw.mp4	0.0	222.12367033958435	2.491929292678833
41	200.06331396102905	pulse	1	t		39.0	2.5	/experiments/knapen_AOT/AOT_stimuli/rescaled_final/1359_fw.mp4	0.0	222.49872159957886	
41	201.66140031814575	pulse	1	t		39.0	2.5	/experiments/knapen_AOT/AOT_stimuli/rescaled_final/1359_fw.mp4	0.0	224.09680795669556	
41	202.18019199371338	fix_post	2		12	39.0	2.5	/experiments/knapen_AOT/AOT_stimuli/rescaled_final/1359_fw.mp4	0.0	224.61559963226318	0.10005807876586914
42	202.28025007247925	fix_pre	0		119	40.0	2.5	/experiments/knapen_AOT/AOT_stimuli/rescaled_final/1843_rv.mp4	0.0	224.71565771102905	1.000175952911377
42	203.26396894454956	pulse	0	t		40.0	2.5	/experiments/knapen_AOT/AOT_stimuli/rescaled_final/1843_rv.mp4	0.0	225.69937658309937	
42	203.28042602539062	movie	1		283	40.0	2.5	/experiments/knapen_AOT/AOT_stimuli/rescaled_final/1843_rv.mp4	0.0	225.71583366394043	2.500322103500366
42	204.86253905296326	pulse	1	t		40.0	2.5	/experiments/knapen_AOT/AOT_stimuli/rescaled_final/1843_rv.mp4	0.0	227.29794669151306	
42	205.780748128891	fix_post	2		12	40.0	2.5	/experiments/knapen_AOT/AOT_stimuli/rescaled_final/1843_rv.mp4	0.0	228.2161557674408	0.10001087188720703
43	205.8807590007782	fix_pre	0		120	41.0	2.5	/experiments/knapen_AOT/AOT_stimuli/rescaled_final/0596_rv.mp4	0.0	228.316166639328	1.0084948539733887
43	206.464369058609	pulse	0	t		41.0	2.5	/experiments/knapen_AOT/AOT_stimuli/rescaled_final/0596_rv.mp4	0.0	228.8997766971588	
43	206.8892538547516	movie	1		276	41.0	2.5	/experiments/knapen_AOT/AOT_stimuli/rescaled_final/0596_rv.mp4	0.0	229.3246614933014	2.4920654296875
43	208.0638449192047	pulse	1	t		41.0	2.5	/experiments/knapen_AOT/AOT_stimuli/rescaled_final/0596_rv.mp4	0.0	230.49925255775452	
43	209.3813192844391	fix_post	2		12	41.0	2.5	/experiments/knapen_AOT/AOT_stimuli/rescaled_final/0596_rv.mp4	0.0	231.8167269229889	0.10001111030578613
44	209.48133039474487	fix_pre	0		120	42.0	2.5	blank	1.0	231.91673803329468	1.0001094341278076
44	209.6650710105896	pulse	0	t		42.0	2.5	blank	1.0	232.1004786491394	
44	210.48143982887268	movie	1		300	42.0	2.5	blank	1.0	232.91684746742249	2.5003767013549805
44	211.26509761810303	pulse	1	t		42.0	2.5	blank	1.0	233.70050525665283	
44	212.86534571647644	pulse	1	t		42.0	2.5	blank	1.0	235.30075335502625	
44	212.98181653022766	fix_post	2		12	42.0	2.5	blank	1.0	235.41722416877747	0.10002803802490234
45	213.08184456825256	fix_pre	0		120	43.0	2.5	/experiments/knapen_AOT/AOT_stimuli/rescaled_final/2168_rv.mp4	0.0	235.51725220680237	1.0085010528564453
45	214.090345621109	movie	1		271	43.0	2.5	/experiments/knapen_AOT/AOT_stimuli/rescaled_final/2168_rv.mp4	0.0	236.5257532596588	2.4920475482940674
45	214.46393656730652	pulse	1	t		43.0	2.5	/experiments/knapen_AOT/AOT_stimuli/rescaled_final/2168_rv.mp4	0.0	236.89934420585632	
45	216.06575202941895	pulse	1	t		43.0	2.5	/experiments/knapen_AOT/AOT_stimuli/rescaled_final/2168_rv.mp4	0.0	238.50115966796875	
45	216.58239316940308	fix_post	2		12	43.0	2.5	/experiments/knapen_AOT/AOT_stimuli/rescaled_final/2168_rv.mp4	0.0	239.01780080795288	0.09997677803039551
46	216.68236994743347	fix_pre	0		119	44.0	2.5	/experiments/knapen_AOT/AOT_stimuli/rescaled_final/2128_rv.mp4	0.0	239.11777758598328	1.0001945495605469
46	217.66604828834534	pulse	0	t		44.0	2.5	/experiments/knapen_AOT/AOT_stimuli/rescaled_final/2128_rv.mp4	0.0	240.10145592689514	
46	217.68256449699402	movie	1		259	44.0	2.5	/experiments/knapen_AOT/AOT_stimuli/rescaled_final/2128_rv.mp4	0.0	240.11797213554382	2.500450372695923
46	219.26462149620056	pulse	1	t		44.0	2.5	/experiments/knapen_AOT/AOT_stimuli/rescaled_final/2128_rv.mp4	0.0	241.70002913475037	
46	220.18301486968994	fix_post	2		12	44.0	2.5	/experiments/knapen_AOT/AOT_stimuli/rescaled_final/2128_rv.mp4	0.0	242.61842250823975	0.09993767738342285
47	220.28295254707336	fix_pre	0		120	45.0	2.5	/experiments/knapen_AOT/AOT_stimuli/rescaled_final/0452_rv.mp4	0.0	242.71836018562317	1.0085017681121826
47	220.86680269241333	pulse	0	t		45.0	2.5	/experiments/knapen_AOT/AOT_stimuli/rescaled_final/0452_rv.mp4	0.0	243.30221033096313	
47	221.29145431518555	movie	1		273	45.0	2.5	/experiments/knapen_AOT/AOT_stimuli/rescaled_final/0452_rv.mp4	0.0	243.72686195373535	2.491997241973877
47	222.46512866020203	pulse	1	t		45.0	2.5	/experiments/knapen_AOT/AOT_stimuli/rescaled_final/0452_rv.mp4	0.0	244.90053629875183	
47	223.78345155715942	fix_post	2		12	45.0	2.5	/experiments/knapen_AOT/AOT_stimuli/rescaled_final/0452_rv.mp4	0.0	246.21885919570923	0.10001158714294434
48	223.88346314430237	fix_pre	0		120	46.0	2.5	/experiments/knapen_AOT/AOT_stimuli/rescaled_final/0283_rv.mp4	0.0	246.31887078285217	1.0084950923919678
48	224.06732892990112	pulse	0	t		46.0	2.5	/experiments/knapen_AOT/AOT_stimuli/rescaled_final/0283_rv.mp4	0.0	246.50273656845093	
48	224.89195823669434	movie	1		283	46.0	2.5	/experiments/knapen_AOT/AOT_stimuli/rescaled_final/0283_rv.mp4	0.0	247.32736587524414	2.4920554161071777
48	225.6655912399292	pulse	1	t		46.0	2.5	/experiments/knapen_AOT/AOT_stimuli/rescaled_final/0283_rv.mp4	0.0	248.100998878479	
48	227.26562070846558	pulse	1	t		46.0	2.5	/experiments/knapen_AOT/AOT_stimuli/rescaled_final/0283_rv.mp4	0.0	249.70102834701538	
48	227.3840136528015	fix_post	2		12	46.0	2.5	/experiments/knapen_AOT/AOT_stimuli/rescaled_final/0283_rv.mp4	0.0	249.81942129135132	0.10000419616699219
49	227.4840178489685	fix_pre	0		120	47.0	2.5	blank	1.0	249.9194254875183	1.0001718997955322
49	228.48418974876404	movie	1		299	47.0	2.5	blank	1.0	250.91959738731384	2.5003769397735596
49	228.8601541519165	pulse	1	t		47.0	2.5	blank	1.0	251.2955617904663	
49	230.4602243900299	pulse	1	t		47.0	2.5	blank	1.0	252.8956320285797	
49	230.9845666885376	fix_post	2		12	47.0	2.5	blank	1.0	253.4199743270874	0.1000218391418457
50	231.08458852767944	fix_pre	0		118	48.0	2.5	/experiments/knapen_AOT/AOT_stimuli/rescaled_final/0840_rv.mp4	0.0	253.51999616622925	0.9917974472045898
50	232.0600152015686	pulse	0	t		48.0	2.5	/experiments/knapen_AOT/AOT_stimuli/rescaled_final/0840_rv.mp4	0.0	254.4954228401184	
50	232.07638597488403	movie	1		273	48.0	2.5	/experiments/knapen_AOT/AOT_stimuli/rescaled_final/0840_rv.mp4	0.0	254.51179361343384	2.50063157081604
50	233.66039419174194	pulse	1	t		48.0	2.5	/experiments/knapen_AOT/AOT_stimuli/rescaled_final/0840_rv.mp4	0.0	256.09580183029175	
50	234.57701754570007	fix_post	2		12	48.0	2.5	/experiments/knapen_AOT/AOT_stimuli/rescaled_final/0840_rv.mp4	0.0	257.0124251842499	0.0997776985168457
51	234.67679524421692	fix_pre	0		120	49.0	2.5	/experiments/knapen_AOT/AOT_stimuli/rescaled_final/0490_fw.mp4	0.0	257.1122028827667	1.0084261894226074
51	235.2604696750641	pulse	0	t		49.0	2.5	/experiments/knapen_AOT/AOT_stimuli/rescaled_final/0490_fw.mp4	0.0	257.6958773136139	
51	235.68522143363953	movie	1		280	49.0	2.5	/experiments/knapen_AOT/AOT_stimuli/rescaled_final/0490_fw.mp4	0.0	258.12062907218933	2.492159128189087
51	236.86072850227356	pulse	1	t		49.0	2.5	/experiments/knapen_AOT/AOT_stimuli/rescaled_final/0490_fw.mp4	0.0	259.29613614082336	
51	238.1773805618286	fix_post	2		12	49.0	2.5	/experiments/knapen_AOT/AOT_stimuli/rescaled_final/0490_fw.mp4	0.0	260.6127882003784	0.09996390342712402
52	238.27734446525574	fix_pre	0		120	50.0	2.5	/experiments/knapen_AOT/AOT_stimuli/rescaled_final/0532_fw.mp4	0.0	260.71275210380554	1.0084502696990967
52	238.46088123321533	pulse	0	t		50.0	2.5	/experiments/knapen_AOT/AOT_stimuli/rescaled_final/0532_fw.mp4	0.0	260.89628887176514	
52	239.28579473495483	movie	1		282	50.0	2.5	/experiments/knapen_AOT/AOT_stimuli/rescaled_final/0532_fw.mp4	0.0	261.72120237350464	2.492086172103882
52	240.0611276626587	pulse	1	t		50.0	2.5	/experiments/knapen_AOT/AOT_stimuli/rescaled_final/0532_fw.mp4	0.0	262.4965353012085	
52	241.6613473892212	pulse	1	t		50.0	2.5	/experiments/knapen_AOT/AOT_stimuli/rescaled_final/0532_fw.mp4	0.0	264.096755027771	
52	241.77788090705872	fix_post	2		12	50.0	2.5	/experiments/knapen_AOT/AOT_stimuli/rescaled_final/0532_fw.mp4	0.0	264.2132885456085	0.09996604919433594
53	241.87784695625305	fix_pre	0		120	51.0	2.5	/experiments/knapen_AOT/AOT_stimuli/rescaled_final/2142_fw.mp4	0.0	264.31325459480286	1.0086469650268555
53	242.8864939212799	movie	1		275	51.0	2.5	/experiments/knapen_AOT/AOT_stimuli/rescaled_final/2142_fw.mp4	0.0	265.3219015598297	2.491872549057007
53	243.26021671295166	pulse	1	t		51.0	2.5	/experiments/knapen_AOT/AOT_stimuli/rescaled_final/2142_fw.mp4	0.0	265.69562435150146	
53	244.86207127571106	pulse	1	t		51.0	2.5	/experiments/knapen_AOT/AOT_stimuli/rescaled_final/2142_fw.mp4	0.0	267.29747891426086	
53	245.3783664703369	fix_post	2		12	51.0	2.5	/experiments/knapen_AOT/AOT_stimuli/rescaled_final/2142_fw.mp4	0.0	267.8137741088867	0.10002636909484863
54	245.47839283943176	fix_pre	0		119	52.0	2.5	/experiments/knapen_AOT/AOT_stimuli/rescaled_final/0315_fw.mp4	0.0	267.91380047798157	1.0001575946807861
54	246.46212244033813	pulse	0	t		52.0	2.5	/experiments/knapen_AOT/AOT_stimuli/rescaled_final/0315_fw.mp4	0.0	268.89753007888794	
54	246.47855043411255	movie	1		287	52.0	2.5	/experiments/knapen_AOT/AOT_stimuli/rescaled_final/0315_fw.mp4	0.0	268.91395807266235	2.5003740787506104
54	248.0614893436432	pulse	1	t		52.0	2.5	/experiments/knapen_AOT/AOT_stimuli/rescaled_final/0315_fw.mp4	0.0	270.496896982193	
54	248.97892451286316	fix_post	2		12	52.0	2.5	/experiments/knapen_AOT/AOT_stimuli/rescaled_final/0315_fw.mp4	0.0	271.41433215141296	0.10008859634399414
55	249.07901310920715	fix_pre	0		120	53.0	2.5	/experiments/knapen_AOT/AOT_stimuli/rescaled_final/0532_rv.mp4	0.0	271.51442074775696	1.008420467376709
55	249.66266536712646	pulse	0	t		53.0	2.5	/experiments/knapen_AOT/AOT_stimuli/rescaled_final/0532_rv.mp4	0.0	272.09807300567627	
55	250.08743357658386	movie	1		281	53.0	2.5	/experiments/knapen_AOT/AOT_stimuli/rescaled_final/0532_rv.mp4	0.0	272.52284121513367	2.492004632949829
55	251.26155304908752	pulse	1	t		53.0	2.5	/experiments/knapen_AOT/AOT_stimuli/rescaled_final/0532_rv.mp4	0.0	273.69696068763733	
55	252.5794382095337	fix_post	2		12	53.0	2.5	/experiments/knapen_AOT/AOT_stimuli/rescaled_final/0532_rv.mp4	0.0	275.0148458480835	0.10002470016479492
56	252.6794629096985	fix_pre	0		120	54.0	2.5	blank	1.0	275.1148705482483	1.0001754760742188
56	252.86323976516724	pulse	0	t		54.0	2.5	blank	1.0	275.29864740371704	
56	253.6796383857727	movie	1		300	54.0	2.5	blank	1.0	276.1150460243225	2.500375986099243
56	254.46330571174622	pulse	1	t		54.0	2.5	blank	1.0	276.898713350296	
56	256.06366539001465	pulse	1	t		54.0	2.5	blank	1.0	278.49907302856445	
56	256.18001437187195	fix_post	2		12	54.0	2.5	blank	1.0	278.61542201042175	0.09996700286865234
57	256.2799813747406	fix_pre	0		120	55.0	2.5	/experiments/knapen_AOT/AOT_stimuli/rescaled_final/0635_fw.mp4	0.0	278.7153890132904	1.0085439682006836
57	257.2885253429413	movie	1		280	55.0	2.5	/experiments/knapen_AOT/AOT_stimuli/rescaled_final/0635_fw.mp4	0.0	279.7239329814911	2.4920239448547363
57	257.66220021247864	pulse	1	t		55.0	2.5	/experiments/knapen_AOT/AOT_stimuli/rescaled_final/0635_fw.mp4	0.0	280.09760785102844	
57	259.2617394924164	pulse	1	t		55.0	2.5	/experiments/knapen_AOT/AOT_stimuli/rescaled_final/0635_fw.mp4	0.0	281.6971471309662	
57	259.780549287796	fix_post	2		12	55.0	2.5	/experiments/knapen_AOT/AOT_stimuli/rescaled_final/0635_fw.mp4	0.0	282.2159569263458	0.09998250007629395
58	259.8805317878723	fix_pre	0		119	56.0	2.5	/experiments/knapen_AOT/AOT_stimuli/rescaled_final/1479_fw.mp4	0.0	282.3159394264221	1.0001657009124756
58	260.86425042152405	pulse	0	t		56.0	2.5	/experiments/knapen_AOT/AOT_stimuli/rescaled_final/1479_fw.mp4	0.0	283.29965806007385	
58	260.8806974887848	movie	1		257	56.0	2.5	/experiments/knapen_AOT/AOT_stimuli/rescaled_final/1479_fw.mp4	0.0	283.3161051273346	2.5003604888916016
58	262.4645097255707	pulse	1	t		56.0	2.5	/experiments/knapen_AOT/AOT_stimuli/rescaled_final/1479_fw.mp4	0.0	284.8999173641205	
58	263.3810579776764	fix_post	2		12	56.0	2.5	/experiments/knapen_AOT/AOT_stimuli/rescaled_final/1479_fw.mp4	0.0	285.8164656162262	0.10002803802490234
59	263.4810860157013	fix_pre	0		120	57.0	2.5	/experiments/knapen_AOT/AOT_stimuli/rescaled_final/2128_fw.mp4	0.0	285.9164936542511	1.0084917545318604
59	264.06469678878784	pulse	0	t		57.0	2.5	/experiments/knapen_AOT/AOT_stimuli/rescaled_final/2128_fw.mp4	0.0	286.50010442733765	
59	264.48957777023315	movie	1		275	57.0	2.5	/experiments/knapen_AOT/AOT_stimuli/rescaled_final/2128_fw.mp4	0.0	286.92498540878296	2.492032289505005
59	265.66286063194275	pulse	1	t		57.0	2.5	/experiments/knapen_AOT/AOT_stimuli/rescaled_final/2128_fw.mp4	0.0	288.09826827049255	
59	266.98161005973816	fix_post	2		12	57.0	2.5	/experiments/knapen_AOT/AOT_stimuli/rescaled_final/2128_fw.mp4	0.0	289.41701769828796	0.10002398490905762
60	267.0816340446472	fix_pre	0		120	58.0	2.5	/experiments/knapen_AOT/AOT_stimuli/rescaled_final/1640_fw.mp4	0.0	289.517041683197	1.0085079669952393
60	267.2652590274811	pulse	0	t		58.0	2.5	/experiments/knapen_AOT/AOT_stimuli/rescaled_final/1640_fw.mp4	0.0	289.7006666660309	
60	268.09014201164246	movie	1		268	58.0	2.5	/experiments/knapen_AOT/AOT_stimuli/rescaled_final/1640_fw.mp4	0.0	290.52554965019226	2.492006301879883
60	268.86375975608826	pulse	1	t		58.0	2.5	/experiments/knapen_AOT/AOT_stimuli/rescaled_final/1640_fw.mp4	0.0	291.29916739463806	
60	270.464115858078	pulse	1	t		58.0	2.5	/experiments/knapen_AOT/AOT_stimuli/rescaled_final/1640_fw.mp4	0.0	292.8995234966278	
60	270.58214831352234	fix_post	2		12	58.0	2.5	/experiments/knapen_AOT/AOT_stimuli/rescaled_final/1640_fw.mp4	0.0	293.01755595207214	0.1000068187713623
61	270.6821551322937	fix_pre	0		120	59.0	2.5	/experiments/knapen_AOT/AOT_stimuli/rescaled_final/0421_fw.mp4	0.0	293.1175627708435	1.0085244178771973
61	271.6906795501709	movie	1		260	59.0	2.5	/experiments/knapen_AOT/AOT_stimuli/rescaled_final/0421_fw.mp4	0.0	294.1260871887207	2.5004053115844727
61	272.06464433670044	pulse	1	t		59.0	2.5	/experiments/knapen_AOT/AOT_stimuli/rescaled_final/0421_fw.mp4	0.0	294.50005197525024	
61	273.6643476486206	pulse	1	t		59.0	2.5	/experiments/knapen_AOT/AOT_stimuli/rescaled_final/0421_fw.mp4	0.0	296.0997552871704	
61	274.19108486175537	fix_post	2		11	59.0	2.5	/experiments/knapen_AOT/AOT_stimuli/rescaled_final/0421_fw.mp4	0.0	296.6264925003052	0.0916299819946289
62	274.28271484375	fix_pre	0		119	60.0	2.5	/experiments/knapen_AOT/AOT_stimuli/rescaled_final/0360_rv.mp4	0.0	296.7181224822998	1.0001564025878906
62	275.2664444446564	pulse	0	t		60.0	2.5	/experiments/knapen_AOT/AOT_stimuli/rescaled_final/0360_rv.mp4	0.0	297.7018520832062	
62	275.2828712463379	movie	1		285	60.0	2.5	/experiments/knapen_AOT/AOT_stimuli/rescaled_final/0360_rv.mp4	0.0	297.7182788848877	2.5003838539123535
62	276.8651134967804	pulse	1	t		60.0	2.5	/experiments/knapen_AOT/AOT_stimuli/rescaled_final/0360_rv.mp4	0.0	299.3005211353302	
62	277.78325510025024	fix_post	2		12	60.0	2.5	/experiments/knapen_AOT/AOT_stimuli/rescaled_final/0360_rv.mp4	0.0	300.21866273880005	0.10007429122924805
63	277.8833293914795	fix_pre	0		120	61.0	2.5	/experiments/knapen_AOT/AOT_stimuli/rescaled_final/2147_fw.mp4	0.0	300.3187370300293	1.008408784866333
63	278.46687722206116	pulse	0	t		61.0	2.5	/experiments/knapen_AOT/AOT_stimuli/rescaled_final/2147_fw.mp4	0.0	300.90228486061096	
63	278.8917381763458	movie	1		271	61.0	2.5	/experiments/knapen_AOT/AOT_stimuli/rescaled_final/2147_fw.mp4	0.0	301.32714581489563	2.4920341968536377
63	280.06738662719727	pulse	1	t		61.0	2.5	/experiments/knapen_AOT/AOT_stimuli/rescaled_final/2147_fw.mp4	0.0	302.50279426574707	
63	281.38377237319946	fix_post	2		12	61.0	2.5	/experiments/knapen_AOT/AOT_stimuli/rescaled_final/2147_fw.mp4	0.0	303.81918001174927	0.1000070571899414
64	281.4837794303894	fix_pre	0		120	62.0	2.5	/experiments/knapen_AOT/AOT_stimuli/rescaled_final/0474_fw.mp4	0.0	303.9191870689392	1.00850248336792
64	281.66059136390686	pulse	0	t		62.0	2.5	/experiments/knapen_AOT/AOT_stimuli/rescaled_final/0474_fw.mp4	0.0	304.09599900245667	
64	282.4922819137573	movie	1		277	62.0	2.5	/experiments/knapen_AOT/AOT_stimuli/rescaled_final/0474_fw.mp4	0.0	304.92768955230713	2.492033004760742
64	283.26567697525024	pulse	1	t		62.0	2.5	/experiments/knapen_AOT/AOT_stimuli/rescaled_final/0474_fw.mp4	0.0	305.70108461380005	
64	284.8672821521759	pulse	1	t		62.0	2.5	/experiments/knapen_AOT/AOT_stimuli/rescaled_final/0474_fw.mp4	0.0	307.3026897907257	
64	284.98431491851807	fix_post	2		12	62.0	2.5	/experiments/knapen_AOT/AOT_stimuli/rescaled_final/0474_fw.mp4	0.0	307.41972255706787	0.09999489784240723
65	285.0843098163605	fix_pre	0		120	63.0	2.5	blank	1.0	307.5197174549103	1.0001401901245117
65	286.084450006485	movie	1		300	63.0	2.5	blank	1.0	308.5198576450348	2.5004098415374756
65	286.46042823791504	pulse	1	t		63.0	2.5	blank	1.0	308.89583587646484	
65	288.06045269966125	pulse	1	t		63.0	2.5	blank	1.0	310.49586033821106	
65	288.58485984802246	fix_post	2		12	63.0	2.5	blank	1.0	311.02026748657227	0.10000419616699219
66	288.68486404418945	fix_pre	0		118	64.0	2.5	/experiments/knapen_AOT/AOT_stimuli/rescaled_final/1458_fw.mp4	0.0	311.12027168273926	0.9918496608734131
66	289.66039061546326	pulse	0	t		64.0	2.5	/experiments/knapen_AOT/AOT_stimuli/rescaled_final/1458_fw.mp4	0.0	312.09579825401306	
66	289.67671370506287	movie	1		282	64.0	2.5	/experiments/knapen_AOT/AOT_stimuli/rescaled_final/1458_fw.mp4	0.0	312.11212134361267	2.5003833770751953
66	291.2606899738312	pulse	1	t		64.0	2.5	/experiments/knapen_AOT/AOT_stimuli/rescaled_final/1458_fw.mp4	0.0	313.696097612381	
66	292.17709708213806	fix_post	2		12	64.0	2.5	/experiments/knapen_AOT/AOT_stimuli/rescaled_final/1458_fw.mp4	0.0	314.61250472068787	0.10001492500305176
67	292.2771120071411	fix_pre	0		120	65.0	2.5	/experiments/knapen_AOT/AOT_stimuli/rescaled_final/0693_fw.mp4	0.0	314.7125196456909	1.0084495544433594
67	292.86151123046875	pulse	0	t		65.0	2.5	/experiments/knapen_AOT/AOT_stimuli/rescaled_final/0693_fw.mp4	0.0	315.29691886901855	
67	293.2855615615845	movie	1		286	65.0	2.5	/experiments/knapen_AOT/AOT_stimuli/rescaled_final/0693_fw.mp4	0.0	315.7209692001343	2.4920992851257324
67	294.460901260376	pulse	1	t		65.0	2.5	/experiments/knapen_AOT/AOT_stimuli/rescaled_final/0693_fw.mp4	0.0	316.8963088989258	
67	295.7776608467102	fix_post	2		12	65.0	2.5	/experiments/knapen_AOT/AOT_stimuli/rescaled_final/0693_fw.mp4	0.0	318.21306848526	0.09997367858886719
68	295.8776345252991	fix_pre	0		120	66.0	2.5	/experiments/knapen_AOT/AOT_stimuli/rescaled_final/0211_fw.mp4	0.0	318.3130421638489	1.0085275173187256
68	296.06131076812744	pulse	0	t		66.0	2.5	/experiments/knapen_AOT/AOT_stimuli/rescaled_final/0211_fw.mp4	0.0	318.49671840667725	
68	296.8861620426178	movie	1		282	66.0	2.5	/experiments/knapen_AOT/AOT_stimuli/rescaled_final/0211_fw.mp4	0.0	319.3215696811676	2.492006778717041
68	297.6616733074188	pulse	1	t		66.0	2.5	/experiments/knapen_AOT/AOT_stimuli/rescaled_final/0211_fw.mp4	0.0	320.0970809459686	
68	299.26165294647217	pulse	1	t		66.0	2.5	/experiments/knapen_AOT/AOT_stimuli/rescaled_final/0211_fw.mp4	0.0	321.697060585022	
68	299.37816882133484	fix_post	2		12	66.0	2.5	/experiments/knapen_AOT/AOT_stimuli/rescaled_final/0211_fw.mp4	0.0	321.81357645988464	0.10001921653747559
69	299.4781880378723	fix_pre	0		120	67.0	2.5	/experiments/knapen_AOT/AOT_stimuli/rescaled_final/0432_fw.mp4	0.0	321.9135956764221	1.0084667205810547
69	300.48665475845337	movie	1		276	67.0	2.5	/experiments/knapen_AOT/AOT_stimuli/rescaled_final/0432_fw.mp4	0.0	322.9220623970032	2.4920237064361572
69	300.86044239997864	pulse	1	t		67.0	2.5	/experiments/knapen_AOT/AOT_stimuli/rescaled_final/0432_fw.mp4	0.0	323.29585003852844	
69	302.46212911605835	pulse	1	t		67.0	2.5	/experiments/knapen_AOT/AOT_stimuli/rescaled_final/0432_fw.mp4	0.0	324.89753675460815	
69	302.9786784648895	fix_post	2		12	67.0	2.5	/experiments/knapen_AOT/AOT_stimuli/rescaled_final/0432_fw.mp4	0.0	325.41408610343933	0.10001540184020996
70	303.07869386672974	fix_pre	0		119	68.0	2.5	blank	1.0	325.51410150527954	0.9917795658111572
70	304.062442779541	pulse	0	t		68.0	2.5	blank	1.0	326.4978504180908	
70	304.0704734325409	movie	1		301	68.0	2.5	blank	1.0	326.5058810710907	2.508798360824585
70	305.66267013549805	pulse	1	t		68.0	2.5	blank	1.0	328.09807777404785	
70	306.5792717933655	fix_post	2		12	68.0	2.5	blank	1.0	329.0146794319153	0.10013246536254883
71	306.679404258728	fix_pre	0		120	69.0	2.5	/experiments/knapen_AOT/AOT_stimuli/rescaled_final/1223_fw.mp4	0.0	329.11481189727783	1.0083236694335938
71	307.262841463089	pulse	0	t		69.0	2.5	/experiments/knapen_AOT/AOT_stimuli/rescaled_final/1223_fw.mp4	0.0	329.6982491016388	
71	307.6877279281616	movie	1		277	69.0	2.5	/experiments/knapen_AOT/AOT_stimuli/rescaled_final/1223_fw.mp4	0.0	330.1231355667114	2.492023468017578
71	308.8614330291748	pulse	1	t		69.0	2.5	/experiments/knapen_AOT/AOT_stimuli/rescaled_final/1223_fw.mp4	0.0	331.2968406677246	
71	310.1797513961792	fix_post	2		12	69.0	2.5	/experiments/knapen_AOT/AOT_stimuli/rescaled_final/1223_fw.mp4	0.0	332.615159034729	0.1000213623046875
72	310.2797727584839	fix_pre	0		120	70.0	2.5	/experiments/knapen_AOT/AOT_stimuli/rescaled_final/1941_fw.mp4	0.0	332.7151803970337	1.0085651874542236
72	310.4635410308838	pulse	0	t		70.0	2.5	/experiments/knapen_AOT/AOT_stimuli/rescaled_final/1941_fw.mp4	0.0	332.8989486694336	
72	311.2883379459381	movie	1		278	70.0	2.5	/experiments/knapen_AOT/AOT_stimuli/rescaled_final/1941_fw.mp4	0.0	333.7237455844879	2.4921562671661377
72	312.0615074634552	pulse	1	t		70.0	2.5	/experiments/knapen_AOT/AOT_stimuli/rescaled_final/1941_fw.mp4	0.0	334.496915102005	
72	313.66197419166565	pulse	1	t		70.0	2.5	/experiments/knapen_AOT/AOT_stimuli/rescaled_final/1941_fw.mp4	0.0	336.09738183021545	
72	313.78049421310425	fix_post	2		12	70.0	2.5	/experiments/knapen_AOT/AOT_stimuli/rescaled_final/1941_fw.mp4	0.0	336.21590185165405	0.09983682632446289
73	313.8803310394287	fix_pre	0		120	71.0	2.5	/experiments/knapen_AOT/AOT_stimuli/rescaled_final/1898_fw.mp4	0.0	336.3157386779785	1.0084679126739502
73	314.88879895210266	movie	1		270	71.0	2.5	/experiments/knapen_AOT/AOT_stimuli/rescaled_final/1898_fw.mp4	0.0	337.32420659065247	2.4920401573181152
73	315.26617217063904	pulse	1	t		71.0	2.5	/experiments/knapen_AOT/AOT_stimuli/rescaled_final/1898_fw.mp4	0.0	337.70157980918884	
73	316.8625907897949	pulse	1	t		71.0	2.5	/experiments/knapen_AOT/AOT_stimuli/rescaled_final/1898_fw.mp4	0.0	339.2979984283447	
73	317.3808391094208	fix_post	2		12	71.0	2.5	/experiments/knapen_AOT/AOT_stimuli/rescaled_final/1898_fw.mp4	0.0	339.8162467479706	0.10001730918884277
74	317.4808564186096	fix_pre	0		119	72.0	2.5	/experiments/knapen_AOT/AOT_stimuli/rescaled_final/0212_rv.mp4	0.0	339.9162640571594	1.0001919269561768
74	318.4646122455597	pulse	0	t		72.0	2.5	/experiments/knapen_AOT/AOT_stimuli/rescaled_final/0212_rv.mp4	0.0	340.9000198841095	
74	318.4810483455658	movie	1		289	72.0	2.5	/experiments/knapen_AOT/AOT_stimuli/rescaled_final/0212_rv.mp4	0.0	340.9164559841156	2.500396251678467
74	320.06331992149353	pulse	1	t		72.0	2.5	/experiments/knapen_AOT/AOT_stimuli/rescaled_final/0212_rv.mp4	0.0	342.49872756004333	
74	320.98144459724426	fix_post	2		12	72.0	2.5	/experiments/knapen_AOT/AOT_stimuli/rescaled_final/0212_rv.mp4	0.0	343.41685223579407	0.09999895095825195
75	321.0814435482025	fix_pre	0		120	73.0	2.5	/experiments/knapen_AOT/AOT_stimuli/rescaled_final/0508_fw.mp4	0.0	343.5168511867523	1.008483648300171
75	321.6650950908661	pulse	0	t		73.0	2.5	/experiments/knapen_AOT/AOT_stimuli/rescaled_final/0508_fw.mp4	0.0	344.1005027294159	
75	322.0899271965027	movie	1		280	73.0	2.5	/experiments/knapen_AOT/AOT_stimuli/rescaled_final/0508_fw.mp4	0.0	344.5253348350525	2.491995096206665
75	323.26520919799805	pulse	1	t		73.0	2.5	/experiments/knapen_AOT/AOT_stimuli/rescaled_final/0508_fw.mp4	0.0	345.70061683654785	
75	324.58192229270935	fix_post	2		12	73.0	2.5	/experiments/knapen_AOT/AOT_stimuli/rescaled_final/0508_fw.mp4	0.0	347.01732993125916	0.10003161430358887
76	324.68195390701294	fix_pre	0		120	74.0	2.5	/experiments/knapen_AOT/AOT_stimuli/rescaled_final/1809_rv.mp4	0.0	347.11736154556274	1.008453130722046
76	324.8655755519867	pulse	0	t		74.0	2.5	/experiments/knapen_AOT/AOT_stimuli/rescaled_final/1809_rv.mp4	0.0	347.3009831905365	
76	325.690407037735	movie	1		281	74.0	2.5	/experiments/knapen_AOT/AOT_stimuli/rescaled_final/1809_rv.mp4	0.0	348.1258146762848	2.4921371936798096
76	326.46354269981384	pulse	1	t		74.0	2.5	/experiments/knapen_AOT/AOT_stimuli/rescaled_final/1809_rv.mp4	0.0	348.89895033836365	
76	328.06426453590393	pulse	1	t		74.0	2.5	/experiments/knapen_AOT/AOT_stimuli/rescaled_final/1809_rv.mp4	0.0	350.49967217445374	
76	328.1825442314148	fix_post	2		12	74.0	2.5	/experiments/knapen_AOT/AOT_stimuli/rescaled_final/1809_rv.mp4	0.0	350.6179518699646	0.09996390342712402
77	328.2825081348419	fix_pre	0		120	75.0	2.5	/experiments/knapen_AOT/AOT_stimuli/rescaled_final/1498_rv.mp4	0.0	350.7179157733917	1.0085132122039795
77	329.2910213470459	movie	1		277	75.0	2.5	/experiments/knapen_AOT/AOT_stimuli/rescaled_final/1498_rv.mp4	0.0	351.7264289855957	2.4919886589050293
77	329.66559624671936	pulse	1	t		75.0	2.5	/experiments/knapen_AOT/AOT_stimuli/rescaled_final/1498_rv.mp4	0.0	352.10100388526917	
77	331.2652635574341	pulse	1	t		75.0	2.5	/experiments/knapen_AOT/AOT_stimuli/rescaled_final/1498_rv.mp4	0.0	353.7006711959839	
77	331.7830100059509	fix_post	2		12	75.0	2.5	/experiments/knapen_AOT/AOT_stimuli/rescaled_final/1498_rv.mp4	0.0	354.21841764450073	0.10004281997680664
78	331.88305282592773	fix_pre	0		119	76.0	2.5	blank	1.0	354.31846046447754	0.9918546676635742
78	332.8668384552002	pulse	0	t		76.0	2.5	blank	1.0	355.30224609375	
78	332.8749074935913	movie	1		301	76.0	2.5	blank	1.0	355.3103151321411	2.5086827278137207
78	334.46704363822937	pulse	1	t		76.0	2.5	blank	1.0	356.9024512767792	
78	335.38359022140503	fix_post	2		12	76.0	2.5	blank	1.0	357.81899785995483	0.10000872611999512
79	335.483598947525	fix_pre	0		120	77.0	2.5	/experiments/knapen_AOT/AOT_stimuli/rescaled_final/1376_rv.mp4	0.0	357.91900658607483	1.0084588527679443
79	336.0598113536835	pulse	0	t		77.0	2.5	/experiments/knapen_AOT/AOT_stimuli/rescaled_final/1376_rv.mp4	0.0	358.4952189922333	
79	336.49205780029297	movie	1		274	77.0	2.5	/experiments/knapen_AOT/AOT_stimuli/rescaled_final/1376_rv.mp4	0.0	358.9274654388428	2.4920222759246826
79	337.6677281856537	pulse	1	t		77.0	2.5	/experiments/knapen_AOT/AOT_stimuli/rescaled_final/1376_rv.mp4	0.0	360.1031358242035	
79	338.98408007621765	fix_post	2		12	77.0	2.5	/experiments/knapen_AOT/AOT_stimuli/rescaled_final/1376_rv.mp4	0.0	361.41948771476746	0.10002350807189941
80	339.08410358428955	fix_pre	0		120	78.0	2.5	/experiments/knapen_AOT/AOT_stimuli/rescaled_final/1652_rv.mp4	0.0	361.51951122283936	1.008486032485962
80	339.2603027820587	pulse	0	t		78.0	2.5	/experiments/knapen_AOT/AOT_stimuli/rescaled_final/1652_rv.mp4	0.0	361.6957104206085	
80	340.0925896167755	movie	1		271	78.0	2.5	/experiments/knapen_AOT/AOT_stimuli/rescaled_final/1652_rv.mp4	0.0	362.5279972553253	2.492037296295166
80	340.86000633239746	pulse	1	t		78.0	2.5	/experiments/knapen_AOT/AOT_stimuli/rescaled_final/1652_rv.mp4	0.0	363.29541397094727	
80	342.4600636959076	pulse	1	t		78.0	2.5	/experiments/knapen_AOT/AOT_stimuli/rescaled_final/1652_rv.mp4	0.0	364.8954713344574	
80	342.5846269130707	fix_post	2		12	78.0	2.5	/experiments/knapen_AOT/AOT_stimuli/rescaled_final/1652_rv.mp4	0.0	365.0200345516205	0.10003924369812012
81	342.6846661567688	fix_pre	0		120	79.0	2.5	/experiments/knapen_AOT/AOT_stimuli/rescaled_final/0073_fw.mp4	0.0	365.1200737953186	1.008429765701294
81	343.6930959224701	movie	1		278	79.0	2.5	/experiments/knapen_AOT/AOT_stimuli/rescaled_final/0073_fw.mp4	0.0	366.1285035610199	2.492070436477661
81	344.06011986732483	pulse	1	t		79.0	2.5	/experiments/knapen_AOT/AOT_stimuli/rescaled_final/0073_fw.mp4	0.0	366.49552750587463	
81	345.66042923927307	pulse	1	t		79.0	2.5	/experiments/knapen_AOT/AOT_stimuli/rescaled_final/0073_fw.mp4	0.0	368.0958368778229	
81	346.18516635894775	fix_post	2		12	79.0	2.5	/experiments/knapen_AOT/AOT_stimuli/rescaled_final/0073_fw.mp4	0.0	368.62057399749756	0.10018277168273926
82	346.2853491306305	fix_pre	0		118	80.0	2.5	/experiments/knapen_AOT/AOT_stimuli/rescaled_final/1771_rv.mp4	0.0	368.7207567691803	1.0000934600830078
82	347.2609360218048	pulse	0	t		80.0	2.5	/experiments/knapen_AOT/AOT_stimuli/rescaled_final/1771_rv.mp4	0.0	369.6963436603546	
82	347.2854425907135	movie	1		277	80.0	2.5	/experiments/knapen_AOT/AOT_stimuli/rescaled_final/1771_rv.mp4	0.0	369.7208502292633	2.4919369220733643
82	348.86084151268005	pulse	1	t		80.0	2.5	/experiments/knapen_AOT/AOT_stimuli/rescaled_final/1771_rv.mp4	0.0	371.29624915122986	
82	349.77737951278687	fix_post	2		12	80.0	2.5	/experiments/knapen_AOT/AOT_stimuli/rescaled_final/1771_rv.mp4	0.0	372.21278715133667	0.10005307197570801
83	349.8774325847626	fix_pre	0		120	81.0	2.5	/experiments/knapen_AOT/AOT_stimuli/rescaled_final/0101_fw.mp4	0.0	372.3128402233124	1.0084760189056396
83	350.4610404968262	pulse	0	t		81.0	2.5	/experiments/knapen_AOT/AOT_stimuli/rescaled_final/0101_fw.mp4	0.0	372.896448135376	
83	350.8859086036682	movie	1		281	81.0	2.5	/experiments/knapen_AOT/AOT_stimuli/rescaled_final/0101_fw.mp4	0.0	373.321316242218	2.492025375366211
83	352.0613811016083	pulse	1	t		81.0	2.5	/experiments/knapen_AOT/AOT_stimuli/rescaled_final/0101_fw.mp4	0.0	374.4967887401581	
83	353.3779339790344	fix_post	2		12	81.0	2.5	/experiments/knapen_AOT/AOT_stimuli/rescaled_final/0101_fw.mp4	0.0	375.81334161758423	0.10005331039428711
84	353.4779872894287	fix_pre	0		120	82.0	2.5	/experiments/knapen_AOT/AOT_stimuli/rescaled_final/1702_fw.mp4	0.0	375.9133949279785	1.0084455013275146
84	353.6615824699402	pulse	0	t		82.0	2.5	/experiments/knapen_AOT/AOT_stimuli/rescaled_final/1702_fw.mp4	0.0	376.09699010849	
84	354.4864327907562	movie	1		268	82.0	2.5	/experiments/knapen_AOT/AOT_stimuli/rescaled_final/1702_fw.mp4	0.0	376.92184042930603	2.492023468017578
84	355.2619285583496	pulse	1	t		82.0	2.5	/experiments/knapen_AOT/AOT_stimuli/rescaled_final/1702_fw.mp4	0.0	377.6973361968994	
84	356.8601791858673	pulse	1	t		82.0	2.5	/experiments/knapen_AOT/AOT_stimuli/rescaled_final/1702_fw.mp4	0.0	379.2955868244171	
84	356.9784562587738	fix_post	2		12	82.0	2.5	/experiments/knapen_AOT/AOT_stimuli/rescaled_final/1702_fw.mp4	0.0	379.4138638973236	0.1000669002532959
85	357.0785231590271	fix_pre	0		120	83.0	2.5	blank	1.0	379.5139307975769	1.000089168548584
85	358.0786123275757	movie	1		300	83.0	2.5	blank	1.0	380.5140199661255	2.5003914833068848
85	358.4624536037445	pulse	1	t		83.0	2.5	blank	1.0	380.8978612422943	
85	360.0625023841858	pulse	1	t		83.0	2.5	blank	1.0	382.4979100227356	
85	360.57900381088257	fix_post	2		12	83.0	2.5	blank	1.0	383.0144114494324	0.10003995895385742
87	360.6790437698364	stim	0		1716					383.11445140838623	14.302109003067017
87	361.663045167923	pulse	0	t						384.0984528064728	
87	363.2630982398987	pulse	0	t						385.6985058784485	
87	364.86320519447327	pulse	0	t						387.29861283302307	
87	366.4634521007538	pulse	0	t						388.8988597393036	
87	368.06370997428894	pulse	0	t						390.49911761283875	
87	369.6639394760132	pulse	0	t						392.099347114563	
87	371.2642138004303	pulse	0	t						393.6996214389801	
87	372.8643786907196	pulse	0	t						395.2997863292694	
87	374.4646270275116	pulse	0	t						396.9000346660614	
