trial_nr	onset	event_type	phase	response	nr_frames	movie_index	movie_duration	movie_file	blank	onset_abs	duration
0	0.20003986358642578	stim	0		53					28.85839080810547	0.4665961265563965
0	0.6587009429931641	response	0	space						29.317051887512207	
1	0.6666359901428223	stim	0		4217					29.324986934661865	35.15829277038574
1	35.81431603431702	pulse	0	t						64.47266697883606	
1	35.824928760528564	stim	1		1714					64.48327970504761	14.299219608306885
1	37.405765533447266	pulse	1	t						66.06411647796631	
1	39.00599122047424	pulse	1	t						67.66434216499329	
1	40.60623240470886	pulse	1	t						69.2645833492279	
1	42.206400871276855	pulse	1	t						70.8647518157959	
1	43.80664873123169	pulse	1	t						72.46499967575073	
1	45.40689253807068	pulse	1	t						74.06524348258972	
1	47.007174253463745	pulse	1	t						75.66552519798279	
1	48.607501745224	pulse	1	t						77.26585268974304	
2	50.12414836883545	fix_pre	0		11	0.0	2.5	/experiments/knapen_AOT/AOT_stimuli/rescaled_final/1267_rv.mp4	0.0	78.78249931335449	0.12527680397033691
2	50.20765233039856	pulse	0	t		0.0	2.5	/experiments/knapen_AOT/AOT_stimuli/rescaled_final/1267_rv.mp4	0.0	78.8660032749176	
2	50.249425172805786	movie	1		276	0.0	2.5	/experiments/knapen_AOT/AOT_stimuli/rescaled_final/1267_rv.mp4	0.0	78.90777611732483	2.475048780441284
2	51.806575775146484	pulse	1	t		0.0	2.5	/experiments/knapen_AOT/AOT_stimuli/rescaled_final/1267_rv.mp4	0.0	80.46492671966553	
2	52.72447395324707	fix_post	2		12	0.0	2.5	/experiments/knapen_AOT/AOT_stimuli/rescaled_final/1267_rv.mp4	0.0	81.38282489776611	0.10016012191772461
3	52.824634075164795	fix_pre	0		120	1.0	2.5	/experiments/knapen_AOT/AOT_stimuli/rescaled_final/0626_fw.mp4	0.0	81.48298501968384	1.0086264610290527
3	53.40815258026123	pulse	0	t		1.0	2.5	/experiments/knapen_AOT/AOT_stimuli/rescaled_final/0626_fw.mp4	0.0	82.06650352478027	
3	53.83326053619385	movie	1		275	1.0	2.5	/experiments/knapen_AOT/AOT_stimuli/rescaled_final/0626_fw.mp4	0.0	82.49161148071289	2.491870403289795
3	55.00824689865112	pulse	1	t		1.0	2.5	/experiments/knapen_AOT/AOT_stimuli/rescaled_final/0626_fw.mp4	0.0	83.66659784317017	
3	56.32513093948364	fix_post	2		12	1.0	2.5	/experiments/knapen_AOT/AOT_stimuli/rescaled_final/0626_fw.mp4	0.0	84.98348188400269	0.09992170333862305
4	56.425052642822266	fix_pre	0		120	2.0	2.5	/experiments/knapen_AOT/AOT_stimuli/rescaled_final/0289_rv.mp4	0.0	85.08340358734131	1.0085678100585938
4	56.608699560165405	pulse	0	t		2.0	2.5	/experiments/knapen_AOT/AOT_stimuli/rescaled_final/0289_rv.mp4	0.0	85.26705050468445	
4	57.43362045288086	movie	1		287	2.0	2.5	/experiments/knapen_AOT/AOT_stimuli/rescaled_final/0289_rv.mp4	0.0	86.0919713973999	2.492196559906006
4	58.20663666725159	pulse	1	t		2.0	2.5	/experiments/knapen_AOT/AOT_stimuli/rescaled_final/0289_rv.mp4	0.0	86.86498761177063	
4	59.80695676803589	pulse	1	t		2.0	2.5	/experiments/knapen_AOT/AOT_stimuli/rescaled_final/0289_rv.mp4	0.0	88.46530771255493	
4	59.925817012786865	fix_post	2		12	2.0	2.5	/experiments/knapen_AOT/AOT_stimuli/rescaled_final/0289_rv.mp4	0.0	88.58416795730591	0.09989500045776367
5	60.02571201324463	fix_pre	0		120	3.0	2.5	/experiments/knapen_AOT/AOT_stimuli/rescaled_final/1452_fw.mp4	0.0	88.68406295776367	1.0084202289581299
5	61.03413224220276	movie	1		286	3.0	2.5	/experiments/knapen_AOT/AOT_stimuli/rescaled_final/1452_fw.mp4	0.0	89.6924831867218	2.492283821105957
5	61.407496213912964	pulse	1	t		3.0	2.5	/experiments/knapen_AOT/AOT_stimuli/rescaled_final/1452_fw.mp4	0.0	90.065847158432	
5	63.00924873352051	pulse	1	t		3.0	2.5	/experiments/knapen_AOT/AOT_stimuli/rescaled_final/1452_fw.mp4	0.0	91.66759967803955	
5	63.526416063308716	fix_post	2		12	3.0	2.5	/experiments/knapen_AOT/AOT_stimuli/rescaled_final/1452_fw.mp4	0.0	92.18476700782776	0.09970450401306152
6	63.62612056732178	fix_pre	0		119	4.0	2.5	/experiments/knapen_AOT/AOT_stimuli/rescaled_final/0545_fw.mp4	0.0	92.28447151184082	1.0002317428588867
6	64.61012101173401	pulse	0	t		4.0	2.5	/experiments/knapen_AOT/AOT_stimuli/rescaled_final/0545_fw.mp4	0.0	93.26847195625305	
6	64.62635231018066	movie	1		284	4.0	2.5	/experiments/knapen_AOT/AOT_stimuli/rescaled_final/0545_fw.mp4	0.0	93.2847032546997	2.500317096710205
6	66.20838856697083	pulse	1	t		4.0	2.5	/experiments/knapen_AOT/AOT_stimuli/rescaled_final/0545_fw.mp4	0.0	94.86673951148987	
6	67.12666940689087	fix_post	2		12	4.0	2.5	/experiments/knapen_AOT/AOT_stimuli/rescaled_final/0545_fw.mp4	0.0	95.78502035140991	0.10013365745544434
7	67.22680306434631	fix_pre	0		120	5.0	2.5	blank	1.0	95.88515400886536	1.0000102519989014
7	67.80267381668091	pulse	0	t		5.0	2.5	blank	1.0	96.46102476119995	
7	68.22681331634521	movie	1		300	5.0	2.5	blank	1.0	96.88516426086426	2.5003817081451416
7	69.4025456905365	pulse	1	t		5.0	2.5	blank	1.0	98.06089663505554	
7	70.72719502449036	fix_post	2		12	5.0	2.5	blank	1.0	99.3855459690094	0.10003352165222168
8	70.82722854614258	fix_pre	0		120	6.0	2.5	/experiments/knapen_AOT/AOT_stimuli/rescaled_final/0206_fw.mp4	0.0	99.48557949066162	1.0086050033569336
8	71.0026044845581	pulse	0	t		6.0	2.5	/experiments/knapen_AOT/AOT_stimuli/rescaled_final/0206_fw.mp4	0.0	99.66095542907715	
8	71.83583354949951	movie	1		278	6.0	2.5	/experiments/knapen_AOT/AOT_stimuli/rescaled_final/0206_fw.mp4	0.0	100.49418449401855	2.492206573486328
8	72.6027991771698	pulse	1	t		6.0	2.5	/experiments/knapen_AOT/AOT_stimuli/rescaled_final/0206_fw.mp4	0.0	101.26115012168884	
8	74.20302367210388	pulse	1	t		6.0	2.5	/experiments/knapen_AOT/AOT_stimuli/rescaled_final/0206_fw.mp4	0.0	102.86137461662292	
8	74.32804012298584	fix_post	2		12	6.0	2.5	/experiments/knapen_AOT/AOT_stimuli/rescaled_final/0206_fw.mp4	0.0	102.98639106750488	0.09985208511352539
9	74.42789220809937	fix_pre	0		120	7.0	2.5	/experiments/knapen_AOT/AOT_stimuli/rescaled_final/1317_fw.mp4	0.0	103.08624315261841	1.0084645748138428
9	75.43635678291321	movie	1		280	7.0	2.5	/experiments/knapen_AOT/AOT_stimuli/rescaled_final/1317_fw.mp4	0.0	104.09470772743225	2.49196195602417
9	75.80323505401611	pulse	1	t		7.0	2.5	/experiments/knapen_AOT/AOT_stimuli/rescaled_final/1317_fw.mp4	0.0	104.46158599853516	
9	77.40351676940918	pulse	1	t		7.0	2.5	/experiments/knapen_AOT/AOT_stimuli/rescaled_final/1317_fw.mp4	0.0	106.06186771392822	
9	77.92831873893738	fix_post	2		12	7.0	2.5	/experiments/knapen_AOT/AOT_stimuli/rescaled_final/1317_fw.mp4	0.0	106.58666968345642	0.10001039505004883
10	78.02832913398743	fix_pre	0		118	8.0	2.5	/experiments/knapen_AOT/AOT_stimuli/rescaled_final/0458_fw.mp4	0.0	106.68668007850647	0.99178147315979
10	79.00376391410828	pulse	0	t		8.0	2.5	/experiments/knapen_AOT/AOT_stimuli/rescaled_final/0458_fw.mp4	0.0	107.66211485862732	
10	79.02011060714722	movie	1		272	8.0	2.5	/experiments/knapen_AOT/AOT_stimuli/rescaled_final/0458_fw.mp4	0.0	107.67846155166626	2.5007822513580322
10	80.60418629646301	pulse	1	t		8.0	2.5	/experiments/knapen_AOT/AOT_stimuli/rescaled_final/0458_fw.mp4	0.0	109.26253724098206	
10	81.52089285850525	fix_post	2		12	8.0	2.5	/experiments/knapen_AOT/AOT_stimuli/rescaled_final/0458_fw.mp4	0.0	110.17924380302429	0.09968996047973633
11	81.62058281898499	fix_pre	0		120	9.0	2.5	/experiments/knapen_AOT/AOT_stimuli/rescaled_final/1469_fw.mp4	0.0	110.27893376350403	1.0085523128509521
11	82.20423197746277	pulse	0	t		9.0	2.5	/experiments/knapen_AOT/AOT_stimuli/rescaled_final/1469_fw.mp4	0.0	110.86258292198181	
11	82.62913513183594	movie	1		272	9.0	2.5	/experiments/knapen_AOT/AOT_stimuli/rescaled_final/1469_fw.mp4	0.0	111.28748607635498	2.4918901920318604
11	83.80685043334961	pulse	1	t		9.0	2.5	/experiments/knapen_AOT/AOT_stimuli/rescaled_final/1469_fw.mp4	0.0	112.46520137786865	
11	85.1210253238678	fix_post	2		12	9.0	2.5	/experiments/knapen_AOT/AOT_stimuli/rescaled_final/1469_fw.mp4	0.0	113.77937626838684	0.10003542900085449
12	85.22106075286865	fix_pre	0		120	10.0	2.5	/experiments/knapen_AOT/AOT_stimuli/rescaled_final/0727_rv.mp4	0.0	113.8794116973877	1.0087018013000488
12	85.40463614463806	pulse	0	t		10.0	2.5	/experiments/knapen_AOT/AOT_stimuli/rescaled_final/0727_rv.mp4	0.0	114.0629870891571	
12	86.2297625541687	movie	1		275	10.0	2.5	/experiments/knapen_AOT/AOT_stimuli/rescaled_final/0727_rv.mp4	0.0	114.88811349868774	2.491879463195801
12	87.00277400016785	pulse	1	t		10.0	2.5	/experiments/knapen_AOT/AOT_stimuli/rescaled_final/0727_rv.mp4	0.0	115.66112494468689	
12	88.6028048992157	pulse	1	t		10.0	2.5	/experiments/knapen_AOT/AOT_stimuli/rescaled_final/0727_rv.mp4	0.0	117.26115584373474	
12	88.7216420173645	fix_post	2		12	10.0	2.5	/experiments/knapen_AOT/AOT_stimuli/rescaled_final/0727_rv.mp4	0.0	117.37999296188354	0.09996390342712402
13	88.82160592079163	fix_pre	0		120	11.0	2.5	/experiments/knapen_AOT/AOT_stimuli/rescaled_final/1489_rv.mp4	0.0	117.47995686531067	1.008549690246582
13	89.83015561103821	movie	1		276	11.0	2.5	/experiments/knapen_AOT/AOT_stimuli/rescaled_final/1489_rv.mp4	0.0	118.48850655555725	2.492264747619629
13	90.20389699935913	pulse	1	t		11.0	2.5	/experiments/knapen_AOT/AOT_stimuli/rescaled_final/1489_rv.mp4	0.0	118.86224794387817	
13	91.80353903770447	pulse	1	t		11.0	2.5	/experiments/knapen_AOT/AOT_stimuli/rescaled_final/1489_rv.mp4	0.0	120.46188998222351	
13	92.32242035865784	fix_post	2		12	11.0	2.5	/experiments/knapen_AOT/AOT_stimuli/rescaled_final/1489_rv.mp4	0.0	120.98077130317688	0.0997166633605957
14	92.42213702201843	fix_pre	0		119	12.0	2.5	/experiments/knapen_AOT/AOT_stimuli/rescaled_final/0075_rv.mp4	0.0	121.08048796653748	1.000148057937622
14	93.40588665008545	pulse	0	t		12.0	2.5	/experiments/knapen_AOT/AOT_stimuli/rescaled_final/0075_rv.mp4	0.0	122.06423759460449	
14	93.42228507995605	movie	1		278	12.0	2.5	/experiments/knapen_AOT/AOT_stimuli/rescaled_final/0075_rv.mp4	0.0	122.0806360244751	2.500486135482788
14	95.00447154045105	pulse	1	t		12.0	2.5	/experiments/knapen_AOT/AOT_stimuli/rescaled_final/0075_rv.mp4	0.0	123.66282248497009	
14	95.92277121543884	fix_post	2		12	12.0	2.5	/experiments/knapen_AOT/AOT_stimuli/rescaled_final/0075_rv.mp4	0.0	124.58112215995789	0.09995245933532715
15	96.02272367477417	fix_pre	0		120	13.0	2.5	/experiments/knapen_AOT/AOT_stimuli/rescaled_final/0306_rv.mp4	0.0	124.68107461929321	1.0085852146148682
15	96.60627031326294	pulse	0	t		13.0	2.5	/experiments/knapen_AOT/AOT_stimuli/rescaled_final/0306_rv.mp4	0.0	125.26462125778198	
15	97.03130888938904	movie	1		289	13.0	2.5	/experiments/knapen_AOT/AOT_stimuli/rescaled_final/0306_rv.mp4	0.0	125.68965983390808	2.491945743560791
15	98.20485663414001	pulse	1	t		13.0	2.5	/experiments/knapen_AOT/AOT_stimuli/rescaled_final/0306_rv.mp4	0.0	126.86320757865906	
15	99.52325463294983	fix_post	2		12	13.0	2.5	/experiments/knapen_AOT/AOT_stimuli/rescaled_final/0306_rv.mp4	0.0	128.18160557746887	0.0999917984008789
16	99.62324643135071	fix_pre	0		120	14.0	2.5	blank	1.0	128.28159737586975	1.000128984451294
16	99.80680894851685	pulse	0	t		14.0	2.5	blank	1.0	128.4651598930359	
16	100.623375415802	movie	1		300	14.0	2.5	blank	1.0	129.28172636032104	2.5003981590270996
16	101.40744042396545	pulse	1	t		14.0	2.5	blank	1.0	130.0657913684845	
16	103.00727415084839	pulse	1	t		14.0	2.5	blank	1.0	131.66562509536743	
16	103.1237735748291	fix_post	2		12	14.0	2.5	blank	1.0	131.78212451934814	0.10002279281616211
17	103.22379636764526	fix_pre	0		120	15.0	2.5	/experiments/knapen_AOT/AOT_stimuli/rescaled_final/1669_fw.mp4	0.0	131.8821473121643	1.0084552764892578
17	104.23225164413452	movie	1		275	15.0	2.5	/experiments/knapen_AOT/AOT_stimuli/rescaled_final/1669_fw.mp4	0.0	132.89060258865356	2.492175579071045
17	104.60592103004456	pulse	1	t		15.0	2.5	/experiments/knapen_AOT/AOT_stimuli/rescaled_final/1669_fw.mp4	0.0	133.2642719745636	
17	106.20564937591553	pulse	1	t		15.0	2.5	/experiments/knapen_AOT/AOT_stimuli/rescaled_final/1669_fw.mp4	0.0	134.86400032043457	
17	106.72442722320557	fix_post	2		12	15.0	2.5	/experiments/knapen_AOT/AOT_stimuli/rescaled_final/1669_fw.mp4	0.0	135.3827781677246	0.09992623329162598
18	106.82435345649719	fix_pre	0		119	16.0	2.5	/experiments/knapen_AOT/AOT_stimuli/rescaled_final/1193_rv.mp4	0.0	135.48270440101624	1.0000908374786377
18	107.80812621116638	pulse	0	t		16.0	2.5	/experiments/knapen_AOT/AOT_stimuli/rescaled_final/1193_rv.mp4	0.0	136.46647715568542	
18	107.82444429397583	movie	1		271	16.0	2.5	/experiments/knapen_AOT/AOT_stimuli/rescaled_final/1193_rv.mp4	0.0	136.48279523849487	2.5005733966827393
18	109.40785336494446	pulse	1	t		16.0	2.5	/experiments/knapen_AOT/AOT_stimuli/rescaled_final/1193_rv.mp4	0.0	138.0662043094635	
18	110.32501769065857	fix_post	2		12	16.0	2.5	/experiments/knapen_AOT/AOT_stimuli/rescaled_final/1193_rv.mp4	0.0	138.9833686351776	0.09982824325561523
19	110.42484593391418	fix_pre	0		120	17.0	2.5	/experiments/knapen_AOT/AOT_stimuli/rescaled_final/1955_fw.mp4	0.0	139.08319687843323	1.0084962844848633
19	111.00849294662476	pulse	0	t		17.0	2.5	/experiments/knapen_AOT/AOT_stimuli/rescaled_final/1955_fw.mp4	0.0	139.6668438911438	
19	111.43334221839905	movie	1		290	17.0	2.5	/experiments/knapen_AOT/AOT_stimuli/rescaled_final/1955_fw.mp4	0.0	140.0916931629181	2.492157220840454
19	112.60663509368896	pulse	1	t		17.0	2.5	/experiments/knapen_AOT/AOT_stimuli/rescaled_final/1955_fw.mp4	0.0	141.264986038208	
19	113.9254994392395	fix_post	2		12	17.0	2.5	/experiments/knapen_AOT/AOT_stimuli/rescaled_final/1955_fw.mp4	0.0	142.58385038375854	0.10010004043579102
20	114.0255994796753	fix_pre	0		120	18.0	2.5	/experiments/knapen_AOT/AOT_stimuli/rescaled_final/1783_rv.mp4	0.0	142.68395042419434	1.0082743167877197
20	114.20896029472351	pulse	0	t		18.0	2.5	/experiments/knapen_AOT/AOT_stimuli/rescaled_final/1783_rv.mp4	0.0	142.86731123924255	
20	115.03387379646301	movie	1		275	18.0	2.5	/experiments/knapen_AOT/AOT_stimuli/rescaled_final/1783_rv.mp4	0.0	143.69222474098206	2.4922597408294678
20	115.80807042121887	pulse	1	t		18.0	2.5	/experiments/knapen_AOT/AOT_stimuli/rescaled_final/1783_rv.mp4	0.0	144.46642136573792	
20	117.40754508972168	pulse	1	t		18.0	2.5	/experiments/knapen_AOT/AOT_stimuli/rescaled_final/1783_rv.mp4	0.0	146.06589603424072	
20	117.52613353729248	fix_post	2		12	18.0	2.5	/experiments/knapen_AOT/AOT_stimuli/rescaled_final/1783_rv.mp4	0.0	146.18448448181152	0.09984493255615234
21	117.62597846984863	fix_pre	0		120	19.0	2.5	/experiments/knapen_AOT/AOT_stimuli/rescaled_final/1740_fw.mp4	0.0	146.28432941436768	1.008551836013794
21	118.63453030586243	movie	1		285	19.0	2.5	/experiments/knapen_AOT/AOT_stimuli/rescaled_final/1740_fw.mp4	0.0	147.29288125038147	2.4921536445617676
21	119.01011276245117	pulse	1	t		19.0	2.5	/experiments/knapen_AOT/AOT_stimuli/rescaled_final/1740_fw.mp4	0.0	147.66846370697021	
21	120.60747218132019	pulse	1	t		19.0	2.5	/experiments/knapen_AOT/AOT_stimuli/rescaled_final/1740_fw.mp4	0.0	149.26582312583923	
21	121.1266839504242	fix_post	2		12	19.0	2.5	/experiments/knapen_AOT/AOT_stimuli/rescaled_final/1740_fw.mp4	0.0	149.78503489494324	0.0999903678894043
22	121.2266743183136	fix_pre	0		119	20.0	2.5	/experiments/knapen_AOT/AOT_stimuli/rescaled_final/1027_fw.mp4	0.0	149.88502526283264	1.000133752822876
22	122.21021270751953	pulse	0	t		20.0	2.5	/experiments/knapen_AOT/AOT_stimuli/rescaled_final/1027_fw.mp4	0.0	150.86856365203857	
22	122.22680807113647	movie	1		280	20.0	2.5	/experiments/knapen_AOT/AOT_stimuli/rescaled_final/1027_fw.mp4	0.0	150.88515901565552	2.500262975692749
22	123.80850625038147	pulse	1	t		20.0	2.5	/experiments/knapen_AOT/AOT_stimuli/rescaled_final/1027_fw.mp4	0.0	152.4668571949005	
22	124.72707104682922	fix_post	2		12	20.0	2.5	/experiments/knapen_AOT/AOT_stimuli/rescaled_final/1027_fw.mp4	0.0	153.38542199134827	0.09999918937683105
23	124.82707023620605	fix_pre	0		120	21.0	2.5	blank	1.0	153.4854211807251	1.0000741481781006
23	125.40227198600769	pulse	0	t		21.0	2.5	blank	1.0	154.06062293052673	
23	125.82714438438416	movie	1		300	21.0	2.5	blank	1.0	154.4854953289032	2.5003771781921387
23	127.00300598144531	pulse	1	t		21.0	2.5	blank	1.0	155.66135692596436	
23	128.3275215625763	fix_post	2		12	21.0	2.5	blank	1.0	156.98587250709534	0.10009765625
24	128.4276192188263	fix_pre	0		120	22.0	2.5	/experiments/knapen_AOT/AOT_stimuli/rescaled_final/1531_fw.mp4	0.0	157.08597016334534	1.0085828304290771
24	128.6030774116516	pulse	0	t		22.0	2.5	/experiments/knapen_AOT/AOT_stimuli/rescaled_final/1531_fw.mp4	0.0	157.26142835617065	
24	129.43620204925537	movie	1		284	22.0	2.5	/experiments/knapen_AOT/AOT_stimuli/rescaled_final/1531_fw.mp4	0.0	158.0945529937744	2.492124557495117
24	130.20301914215088	pulse	1	t		22.0	2.5	/experiments/knapen_AOT/AOT_stimuli/rescaled_final/1531_fw.mp4	0.0	158.86137008666992	
24	131.80163025856018	pulse	1	t		22.0	2.5	/experiments/knapen_AOT/AOT_stimuli/rescaled_final/1531_fw.mp4	0.0	160.45998120307922	
24	131.9283266067505	fix_post	2		12	22.0	2.5	/experiments/knapen_AOT/AOT_stimuli/rescaled_final/1531_fw.mp4	0.0	160.58667755126953	0.09998035430908203
25	132.02830696105957	fix_pre	0		120	23.0	2.5	/experiments/knapen_AOT/AOT_stimuli/rescaled_final/1474_rv.mp4	0.0	160.6866579055786	1.0084199905395508
25	133.03672695159912	movie	1		266	23.0	2.5	/experiments/knapen_AOT/AOT_stimuli/rescaled_final/1474_rv.mp4	0.0	161.69507789611816	2.4920146465301514
25	133.403710603714	pulse	1	t		23.0	2.5	/experiments/knapen_AOT/AOT_stimuli/rescaled_final/1474_rv.mp4	0.0	162.06206154823303	
25	135.0019805431366	pulse	1	t		23.0	2.5	/experiments/knapen_AOT/AOT_stimuli/rescaled_final/1474_rv.mp4	0.0	163.66033148765564	
25	135.52874159812927	fix_post	2		12	23.0	2.5	/experiments/knapen_AOT/AOT_stimuli/rescaled_final/1474_rv.mp4	0.0	164.18709254264832	0.09993910789489746
26	135.62868070602417	fix_pre	0		118	24.0	2.5	/experiments/knapen_AOT/AOT_stimuli/rescaled_final/0983_fw.mp4	0.0	164.2870316505432	0.9918198585510254
26	136.60401606559753	pulse	0	t		24.0	2.5	/experiments/knapen_AOT/AOT_stimuli/rescaled_final/0983_fw.mp4	0.0	165.26236701011658	
26	136.6205005645752	movie	1		269	24.0	2.5	/experiments/knapen_AOT/AOT_stimuli/rescaled_final/0983_fw.mp4	0.0	165.27885150909424	2.500577211380005
26	138.20256876945496	pulse	1	t		24.0	2.5	/experiments/knapen_AOT/AOT_stimuli/rescaled_final/0983_fw.mp4	0.0	166.860919713974	
26	139.1210777759552	fix_post	2		12	24.0	2.5	/experiments/knapen_AOT/AOT_stimuli/rescaled_final/0983_fw.mp4	0.0	167.77942872047424	0.09976315498352051
27	139.22084093093872	fix_pre	0		120	25.0	2.5	/experiments/knapen_AOT/AOT_stimuli/rescaled_final/0763_fw.mp4	0.0	167.87919187545776	1.008650779724121
27	139.80450463294983	pulse	0	t		25.0	2.5	/experiments/knapen_AOT/AOT_stimuli/rescaled_final/0763_fw.mp4	0.0	168.46285557746887	
27	140.22949171066284	movie	1		264	25.0	2.5	/experiments/knapen_AOT/AOT_stimuli/rescaled_final/0763_fw.mp4	0.0	168.88784265518188	2.492213249206543
27	141.40301990509033	pulse	1	t		25.0	2.5	/experiments/knapen_AOT/AOT_stimuli/rescaled_final/0763_fw.mp4	0.0	170.06137084960938	
27	142.72170495986938	fix_post	2		12	25.0	2.5	/experiments/knapen_AOT/AOT_stimuli/rescaled_final/0763_fw.mp4	0.0	171.38005590438843	0.09981250762939453
28	142.82151746749878	fix_pre	0		120	26.0	2.5	/experiments/knapen_AOT/AOT_stimuli/rescaled_final/0040_fw.mp4	0.0	171.47986841201782	1.0083978176116943
28	143.0050549507141	pulse	0	t		26.0	2.5	/experiments/knapen_AOT/AOT_stimuli/rescaled_final/0040_fw.mp4	0.0	171.66340589523315	
28	143.82991528511047	movie	1		250	26.0	2.5	/experiments/knapen_AOT/AOT_stimuli/rescaled_final/0040_fw.mp4	0.0	172.48826622962952	2.4921891689300537
28	144.60325384140015	pulse	1	t		26.0	2.5	/experiments/knapen_AOT/AOT_stimuli/rescaled_final/0040_fw.mp4	0.0	173.2616047859192	
28	146.20471954345703	pulse	1	t		26.0	2.5	/experiments/knapen_AOT/AOT_stimuli/rescaled_final/0040_fw.mp4	0.0	174.86307048797607	
28	146.32210445404053	fix_post	2		12	26.0	2.5	/experiments/knapen_AOT/AOT_stimuli/rescaled_final/0040_fw.mp4	0.0	174.98045539855957	0.09983944892883301
29	146.42194390296936	fix_pre	0		120	27.0	2.5	/experiments/knapen_AOT/AOT_stimuli/rescaled_final/0897_fw.mp4	0.0	175.0802948474884	1.0085368156433105
29	147.43048071861267	movie	1		272	27.0	2.5	/experiments/knapen_AOT/AOT_stimuli/rescaled_final/0897_fw.mp4	0.0	176.0888316631317	2.492631435394287
29	147.80403757095337	pulse	1	t		27.0	2.5	/experiments/knapen_AOT/AOT_stimuli/rescaled_final/0897_fw.mp4	0.0	176.4623885154724	
29	149.40471601486206	pulse	1	t		27.0	2.5	/experiments/knapen_AOT/AOT_stimuli/rescaled_final/0897_fw.mp4	0.0	178.0630669593811	
29	149.92311215400696	fix_post	2		12	27.0	2.5	/experiments/knapen_AOT/AOT_stimuli/rescaled_final/0897_fw.mp4	0.0	178.581463098526	0.09938430786132812
30	150.0224964618683	fix_pre	0		119	28.0	2.5	blank	1.0	178.68084740638733	0.9919624328613281
30	151.00613737106323	pulse	0	t		28.0	2.5	blank	1.0	179.66448831558228	
30	151.01445889472961	movie	1		301	28.0	2.5	blank	1.0	179.67280983924866	2.5085391998291016
30	152.60639834403992	pulse	1	t		28.0	2.5	blank	1.0	181.26474928855896	
30	153.52299809455872	fix_post	2		12	28.0	2.5	blank	1.0	182.18134903907776	0.10003900527954102
31	153.62303709983826	fix_pre	0		120	29.0	2.5	/experiments/knapen_AOT/AOT_stimuli/rescaled_final/1337_fw.mp4	0.0	182.2813880443573	1.0086555480957031
31	154.20725178718567	pulse	0	t		29.0	2.5	/experiments/knapen_AOT/AOT_stimuli/rescaled_final/1337_fw.mp4	0.0	182.8656027317047	
31	154.63169264793396	movie	1		270	29.0	2.5	/experiments/knapen_AOT/AOT_stimuli/rescaled_final/1337_fw.mp4	0.0	183.290043592453	2.4920520782470703
31	155.80470609664917	pulse	1	t		29.0	2.5	/experiments/knapen_AOT/AOT_stimuli/rescaled_final/1337_fw.mp4	0.0	184.4630570411682	
31	157.12374472618103	fix_post	2		12	29.0	2.5	/experiments/knapen_AOT/AOT_stimuli/rescaled_final/1337_fw.mp4	0.0	185.78209567070007	0.10001206398010254
32	157.22375679016113	fix_pre	0		120	30.0	2.5	/experiments/knapen_AOT/AOT_stimuli/rescaled_final/1952_fw.mp4	0.0	185.88210773468018	1.0083518028259277
32	157.40758967399597	pulse	0	t		30.0	2.5	/experiments/knapen_AOT/AOT_stimuli/rescaled_final/1952_fw.mp4	0.0	186.06594061851501	
32	158.23210859298706	movie	1		264	30.0	2.5	/experiments/knapen_AOT/AOT_stimuli/rescaled_final/1952_fw.mp4	0.0	186.8904595375061	2.4921419620513916
32	159.00535035133362	pulse	1	t		30.0	2.5	/experiments/knapen_AOT/AOT_stimuli/rescaled_final/1952_fw.mp4	0.0	187.66370129585266	
32	160.60564756393433	pulse	1	t		30.0	2.5	/experiments/knapen_AOT/AOT_stimuli/rescaled_final/1952_fw.mp4	0.0	189.26399850845337	
32	160.72425055503845	fix_post	2		12	30.0	2.5	/experiments/knapen_AOT/AOT_stimuli/rescaled_final/1952_fw.mp4	0.0	189.3826014995575	0.09991765022277832
33	160.82416820526123	fix_pre	0		120	31.0	2.5	/experiments/knapen_AOT/AOT_stimuli/rescaled_final/1369_rv.mp4	0.0	189.48251914978027	1.0084822177886963
33	161.83265042304993	movie	1		261	31.0	2.5	/experiments/knapen_AOT/AOT_stimuli/rescaled_final/1369_rv.mp4	0.0	190.49100136756897	2.492258071899414
33	162.20721101760864	pulse	1	t		31.0	2.5	/experiments/knapen_AOT/AOT_stimuli/rescaled_final/1369_rv.mp4	0.0	190.86556196212769	
33	163.80621337890625	pulse	1	t		31.0	2.5	/experiments/knapen_AOT/AOT_stimuli/rescaled_final/1369_rv.mp4	0.0	192.4645643234253	
33	164.32490849494934	fix_post	2		12	31.0	2.5	/experiments/knapen_AOT/AOT_stimuli/rescaled_final/1369_rv.mp4	0.0	192.98325943946838	0.09982037544250488
34	164.42472887039185	fix_pre	0		119	32.0	2.5	/experiments/knapen_AOT/AOT_stimuli/rescaled_final/0335_fw.mp4	0.0	193.0830798149109	1.0001635551452637
34	165.40846633911133	pulse	0	t		32.0	2.5	/experiments/knapen_AOT/AOT_stimuli/rescaled_final/0335_fw.mp4	0.0	194.06681728363037	
34	165.4248924255371	movie	1		273	32.0	2.5	/experiments/knapen_AOT/AOT_stimuli/rescaled_final/0335_fw.mp4	0.0	194.08324337005615	2.500429153442383
34	167.00936317443848	pulse	1	t		32.0	2.5	/experiments/knapen_AOT/AOT_stimuli/rescaled_final/0335_fw.mp4	0.0	195.66771411895752	
34	167.9253215789795	fix_post	2		12	32.0	2.5	/experiments/knapen_AOT/AOT_stimuli/rescaled_final/0335_fw.mp4	0.0	196.58367252349854	0.09985232353210449
35	168.0251739025116	fix_pre	0		120	33.0	2.5	blank	1.0	196.68352484703064	1.0001492500305176
35	168.6088228225708	pulse	0	t		33.0	2.5	blank	1.0	197.26717376708984	
35	169.02532315254211	movie	1		300	33.0	2.5	blank	1.0	197.68367409706116	2.500373601913452
35	170.20903205871582	pulse	1	t		33.0	2.5	blank	1.0	198.86738300323486	
35	171.52569675445557	fix_post	2		12	33.0	2.5	blank	1.0	200.1840476989746	0.10012626647949219
36	171.62582302093506	fix_pre	0		120	34.0	2.5	/experiments/knapen_AOT/AOT_stimuli/rescaled_final/1415_fw.mp4	0.0	200.2841739654541	1.0085320472717285
36	171.80198621749878	pulse	0	t		34.0	2.5	/experiments/knapen_AOT/AOT_stimuli/rescaled_final/1415_fw.mp4	0.0	200.46033716201782	
36	172.6343550682068	movie	1		272	34.0	2.5	/experiments/knapen_AOT/AOT_stimuli/rescaled_final/1415_fw.mp4	0.0	201.29270601272583	2.4923715591430664
36	173.40783619880676	pulse	1	t		34.0	2.5	/experiments/knapen_AOT/AOT_stimuli/rescaled_final/1415_fw.mp4	0.0	202.0661871433258	
36	175.00785493850708	pulse	1	t		34.0	2.5	/experiments/knapen_AOT/AOT_stimuli/rescaled_final/1415_fw.mp4	0.0	203.66620588302612	
36	175.12672662734985	fix_post	2		12	34.0	2.5	/experiments/knapen_AOT/AOT_stimuli/rescaled_final/1415_fw.mp4	0.0	203.7850775718689	0.09954619407653809
37	175.2262728214264	fix_pre	0		120	35.0	2.5	/experiments/knapen_AOT/AOT_stimuli/rescaled_final/2011_fw.mp4	0.0	203.88462376594543	1.0086405277252197
37	176.2349133491516	movie	1		267	35.0	2.5	/experiments/knapen_AOT/AOT_stimuli/rescaled_final/2011_fw.mp4	0.0	204.89326429367065	2.492070198059082
37	176.60199856758118	pulse	1	t		35.0	2.5	/experiments/knapen_AOT/AOT_stimuli/rescaled_final/2011_fw.mp4	0.0	205.26034951210022	
37	178.20206141471863	pulse	1	t		35.0	2.5	/experiments/knapen_AOT/AOT_stimuli/rescaled_final/2011_fw.mp4	0.0	206.86041235923767	
37	178.7269835472107	fix_post	2		12	35.0	2.5	/experiments/knapen_AOT/AOT_stimuli/rescaled_final/2011_fw.mp4	0.0	207.38533449172974	0.09987258911132812
38	178.82685613632202	fix_pre	0		118	36.0	2.5	/experiments/knapen_AOT/AOT_stimuli/rescaled_final/0872_rv.mp4	0.0	207.48520708084106	0.991973876953125
38	179.8021936416626	pulse	0	t		36.0	2.5	/experiments/knapen_AOT/AOT_stimuli/rescaled_final/0872_rv.mp4	0.0	208.46054458618164	
38	179.81883001327515	movie	1		266	36.0	2.5	/experiments/knapen_AOT/AOT_stimuli/rescaled_final/0872_rv.mp4	0.0	208.4771809577942	2.5001778602600098
38	181.4113645553589	pulse	1	t		36.0	2.5	/experiments/knapen_AOT/AOT_stimuli/rescaled_final/0872_rv.mp4	0.0	210.06971549987793	
38	182.31900787353516	fix_post	2		12	36.0	2.5	/experiments/knapen_AOT/AOT_stimuli/rescaled_final/0872_rv.mp4	0.0	210.9773588180542	0.10004019737243652
39	182.4190480709076	fix_pre	0		120	37.0	2.5	/experiments/knapen_AOT/AOT_stimuli/rescaled_final/1467_fw.mp4	0.0	211.07739901542664	1.008493423461914
39	183.0026831626892	pulse	0	t		37.0	2.5	/experiments/knapen_AOT/AOT_stimuli/rescaled_final/1467_fw.mp4	0.0	211.66103410720825	
39	183.4275414943695	movie	1		274	37.0	2.5	/experiments/knapen_AOT/AOT_stimuli/rescaled_final/1467_fw.mp4	0.0	212.08589243888855	2.4921975135803223
39	184.60311722755432	pulse	1	t		37.0	2.5	/experiments/knapen_AOT/AOT_stimuli/rescaled_final/1467_fw.mp4	0.0	213.26146817207336	
39	185.91973900794983	fix_post	2		12	37.0	2.5	/experiments/knapen_AOT/AOT_stimuli/rescaled_final/1467_fw.mp4	0.0	214.57808995246887	0.1000070571899414
40	186.01974606513977	fix_pre	0		120	38.0	2.5	/experiments/knapen_AOT/AOT_stimuli/rescaled_final/1495_fw.mp4	0.0	214.6780970096588	1.0084927082061768
40	186.2033703327179	pulse	0	t		38.0	2.5	/experiments/knapen_AOT/AOT_stimuli/rescaled_final/1495_fw.mp4	0.0	214.86172127723694	
40	187.02823877334595	movie	1		278	38.0	2.5	/experiments/knapen_AOT/AOT_stimuli/rescaled_final/1495_fw.mp4	0.0	215.686589717865	2.4918673038482666
40	187.80345106124878	pulse	1	t		38.0	2.5	/experiments/knapen_AOT/AOT_stimuli/rescaled_final/1495_fw.mp4	0.0	216.46180200576782	
40	189.40391564369202	pulse	1	t		38.0	2.5	/experiments/knapen_AOT/AOT_stimuli/rescaled_final/1495_fw.mp4	0.0	218.06226658821106	
40	189.5201060771942	fix_post	2		12	38.0	2.5	/experiments/knapen_AOT/AOT_stimuli/rescaled_final/1495_fw.mp4	0.0	218.17845702171326	0.10003280639648438
41	189.6201388835907	fix_pre	0		120	39.0	2.5	/experiments/knapen_AOT/AOT_stimuli/rescaled_final/1252_fw.mp4	0.0	218.27848982810974	1.0085909366607666
41	190.62872982025146	movie	1		266	39.0	2.5	/experiments/knapen_AOT/AOT_stimuli/rescaled_final/1252_fw.mp4	0.0	219.2870807647705	2.4920876026153564
41	191.00316548347473	pulse	1	t		39.0	2.5	/experiments/knapen_AOT/AOT_stimuli/rescaled_final/1252_fw.mp4	0.0	219.66151642799377	
41	192.60421442985535	pulse	1	t		39.0	2.5	/experiments/knapen_AOT/AOT_stimuli/rescaled_final/1252_fw.mp4	0.0	221.2625653743744	
41	193.12081742286682	fix_post	2		12	39.0	2.5	/experiments/knapen_AOT/AOT_stimuli/rescaled_final/1252_fw.mp4	0.0	221.77916836738586	0.10000753402709961
42	193.22082495689392	fix_pre	0		119	40.0	2.5	/experiments/knapen_AOT/AOT_stimuli/rescaled_final/1375_fw.mp4	0.0	221.87917590141296	1.000030755996704
42	194.20435786247253	pulse	0	t		40.0	2.5	/experiments/knapen_AOT/AOT_stimuli/rescaled_final/1375_fw.mp4	0.0	222.86270880699158	
42	194.22085571289062	movie	1		279	40.0	2.5	/experiments/knapen_AOT/AOT_stimuli/rescaled_final/1375_fw.mp4	0.0	222.87920665740967	2.500495195388794
42	195.80596685409546	pulse	1	t		40.0	2.5	/experiments/knapen_AOT/AOT_stimuli/rescaled_final/1375_fw.mp4	0.0	224.4643177986145	
42	196.72135090827942	fix_post	2		12	40.0	2.5	/experiments/knapen_AOT/AOT_stimuli/rescaled_final/1375_fw.mp4	0.0	225.37970185279846	0.09984326362609863
43	196.82119417190552	fix_pre	0		120	41.0	2.5	/experiments/knapen_AOT/AOT_stimuli/rescaled_final/0767_rv.mp4	0.0	225.47954511642456	1.008608341217041
43	197.40484499931335	pulse	0	t		41.0	2.5	/experiments/knapen_AOT/AOT_stimuli/rescaled_final/0767_rv.mp4	0.0	226.0631959438324	
43	197.82980251312256	movie	1		271	41.0	2.5	/experiments/knapen_AOT/AOT_stimuli/rescaled_final/0767_rv.mp4	0.0	226.4881534576416	2.492004871368408
43	199.00289821624756	pulse	1	t		41.0	2.5	/experiments/knapen_AOT/AOT_stimuli/rescaled_final/0767_rv.mp4	0.0	227.6612491607666	
43	200.32180738449097	fix_post	2		12	41.0	2.5	/experiments/knapen_AOT/AOT_stimuli/rescaled_final/0767_rv.mp4	0.0	228.98015832901	0.09991574287414551
44	200.4217231273651	fix_pre	0		120	42.0	2.5	blank	1.0	229.08007407188416	1.0001344680786133
44	200.60526156425476	pulse	0	t		42.0	2.5	blank	1.0	229.2636125087738	
44	201.42185759544373	movie	1		300	42.0	2.5	blank	1.0	230.08020853996277	2.5003859996795654
44	202.20563006401062	pulse	1	t		42.0	2.5	blank	1.0	230.86398100852966	
44	203.80577397346497	pulse	1	t		42.0	2.5	blank	1.0	232.464124917984	
44	203.9222435951233	fix_post	2		12	42.0	2.5	blank	1.0	232.58059453964233	0.10003876686096191
45	204.02228236198425	fix_pre	0		120	43.0	2.5	/experiments/knapen_AOT/AOT_stimuli/rescaled_final/1342_fw.mp4	0.0	232.6806333065033	1.0086441040039062
45	205.03092646598816	movie	1		284	43.0	2.5	/experiments/knapen_AOT/AOT_stimuli/rescaled_final/1342_fw.mp4	0.0	233.6892774105072	2.491863489151001
45	205.40461134910583	pulse	1	t		43.0	2.5	/experiments/knapen_AOT/AOT_stimuli/rescaled_final/1342_fw.mp4	0.0	234.06296229362488	
45	207.004047870636	pulse	1	t		43.0	2.5	/experiments/knapen_AOT/AOT_stimuli/rescaled_final/1342_fw.mp4	0.0	235.66239881515503	
45	207.52278995513916	fix_post	2		12	43.0	2.5	/experiments/knapen_AOT/AOT_stimuli/rescaled_final/1342_fw.mp4	0.0	236.1811408996582	0.10003137588500977
46	207.62282133102417	fix_pre	0		119	44.0	2.5	/experiments/knapen_AOT/AOT_stimuli/rescaled_final/1671_rv.mp4	0.0	236.2811722755432	1.0087058544158936
46	208.60647535324097	pulse	0	t		44.0	2.5	/experiments/knapen_AOT/AOT_stimuli/rescaled_final/1671_rv.mp4	0.0	237.26482629776	
46	208.63152718544006	movie	1		257	44.0	2.5	/experiments/knapen_AOT/AOT_stimuli/rescaled_final/1671_rv.mp4	0.0	237.2898781299591	2.5002071857452393
46	210.20538806915283	pulse	1	t		44.0	2.5	/experiments/knapen_AOT/AOT_stimuli/rescaled_final/1671_rv.mp4	0.0	238.86373901367188	
46	211.1317343711853	fix_post	2		11	44.0	2.5	/experiments/knapen_AOT/AOT_stimuli/rescaled_final/1671_rv.mp4	0.0	239.79008531570435	0.09161996841430664
47	211.2233543395996	fix_pre	0		120	45.0	2.5	/experiments/knapen_AOT/AOT_stimuli/rescaled_final/0040_rv.mp4	0.0	239.88170528411865	1.0088632106781006
47	211.8069348335266	pulse	0	t		45.0	2.5	/experiments/knapen_AOT/AOT_stimuli/rescaled_final/0040_rv.mp4	0.0	240.46528577804565	
47	212.2322175502777	movie	1		286	45.0	2.5	/experiments/knapen_AOT/AOT_stimuli/rescaled_final/0040_rv.mp4	0.0	240.89056849479675	2.4916584491729736
47	213.4060332775116	pulse	1	t		45.0	2.5	/experiments/knapen_AOT/AOT_stimuli/rescaled_final/0040_rv.mp4	0.0	242.06438422203064	
47	214.72387599945068	fix_post	2		12	45.0	2.5	/experiments/knapen_AOT/AOT_stimuli/rescaled_final/0040_rv.mp4	0.0	243.38222694396973	0.1000664234161377
48	214.82394242286682	fix_pre	0		120	46.0	2.5	/experiments/knapen_AOT/AOT_stimuli/rescaled_final/1252_rv.mp4	0.0	243.48229336738586	1.0085554122924805
48	215.00745248794556	pulse	0	t		46.0	2.5	/experiments/knapen_AOT/AOT_stimuli/rescaled_final/1252_rv.mp4	0.0	243.6658034324646	
48	215.8324978351593	movie	1		272	46.0	2.5	/experiments/knapen_AOT/AOT_stimuli/rescaled_final/1252_rv.mp4	0.0	244.49084877967834	2.4919614791870117
48	216.60752964019775	pulse	1	t		46.0	2.5	/experiments/knapen_AOT/AOT_stimuli/rescaled_final/1252_rv.mp4	0.0	245.2658805847168	
48	218.2057683467865	pulse	1	t		46.0	2.5	/experiments/knapen_AOT/AOT_stimuli/rescaled_final/1252_rv.mp4	0.0	246.86411929130554	
48	218.3244593143463	fix_post	2		12	46.0	2.5	/experiments/knapen_AOT/AOT_stimuli/rescaled_final/1252_rv.mp4	0.0	246.98281025886536	0.10001397132873535
49	218.42447328567505	fix_pre	0		120	47.0	2.5	/experiments/knapen_AOT/AOT_stimuli/rescaled_final/1363_rv.mp4	0.0	247.0828242301941	1.0084426403045654
49	219.43291592597961	movie	1		238	47.0	2.5	/experiments/knapen_AOT/AOT_stimuli/rescaled_final/1363_rv.mp4	0.0	248.09126687049866	2.4923129081726074
49	219.80652117729187	pulse	1	t		47.0	2.5	/experiments/knapen_AOT/AOT_stimuli/rescaled_final/1363_rv.mp4	0.0	248.4648721218109	
49	221.43768048286438	pulse	1	t		47.0	2.5	/experiments/knapen_AOT/AOT_stimuli/rescaled_final/1363_rv.mp4	0.0	250.09603142738342	
49	221.92522883415222	fix_post	2		12	47.0	2.5	/experiments/knapen_AOT/AOT_stimuli/rescaled_final/1363_rv.mp4	0.0	250.58357977867126	0.10006952285766602
50	222.0252983570099	fix_pre	0		119	48.0	2.5	/experiments/knapen_AOT/AOT_stimuli/rescaled_final/2175_fw.mp4	0.0	250.68364930152893	0.9999396800994873
50	223.0087513923645	pulse	0	t		48.0	2.5	/experiments/knapen_AOT/AOT_stimuli/rescaled_final/2175_fw.mp4	0.0	251.66710233688354	
50	223.02523803710938	movie	1		281	48.0	2.5	/experiments/knapen_AOT/AOT_stimuli/rescaled_final/2175_fw.mp4	0.0	251.68358898162842	2.5002565383911133
50	224.60735750198364	pulse	1	t		48.0	2.5	/experiments/knapen_AOT/AOT_stimuli/rescaled_final/2175_fw.mp4	0.0	253.26570844650269	
50	225.5254945755005	fix_post	2		12	48.0	2.5	/experiments/knapen_AOT/AOT_stimuli/rescaled_final/2175_fw.mp4	0.0	254.18384552001953	0.10001635551452637
51	225.62551093101501	fix_pre	0		120	49.0	2.5	blank	1.0	254.28386187553406	1.0002248287200928
51	226.20931720733643	pulse	0	t		49.0	2.5	blank	1.0	254.86766815185547	
51	226.6257357597351	movie	1		300	49.0	2.5	blank	1.0	255.28408670425415	2.5003604888916016
51	227.80948901176453	pulse	1	t		49.0	2.5	blank	1.0	256.46783995628357	
51	229.1260962486267	fix_post	2		12	49.0	2.5	blank	1.0	257.78444719314575	0.09998369216918945
52	229.2260799407959	fix_pre	0		120	50.0	2.5	/experiments/knapen_AOT/AOT_stimuli/rescaled_final/0469_fw.mp4	0.0	257.88443088531494	1.0084829330444336
52	229.40962648391724	pulse	0	t		50.0	2.5	/experiments/knapen_AOT/AOT_stimuli/rescaled_final/0469_fw.mp4	0.0	258.0679774284363	
52	230.23456287384033	movie	1		280	50.0	2.5	/experiments/knapen_AOT/AOT_stimuli/rescaled_final/0469_fw.mp4	0.0	258.8929138183594	2.4923360347747803
52	231.00876665115356	pulse	1	t		50.0	2.5	/experiments/knapen_AOT/AOT_stimuli/rescaled_final/0469_fw.mp4	0.0	259.6671175956726	
52	232.60832619667053	pulse	1	t		50.0	2.5	/experiments/knapen_AOT/AOT_stimuli/rescaled_final/0469_fw.mp4	0.0	261.2666771411896	
52	232.7268989086151	fix_post	2		12	50.0	2.5	/experiments/knapen_AOT/AOT_stimuli/rescaled_final/0469_fw.mp4	0.0	261.38524985313416	0.09971475601196289
53	232.82661366462708	fix_pre	0		120	51.0	2.5	/experiments/knapen_AOT/AOT_stimuli/rescaled_final/0569_fw.mp4	0.0	261.4849646091461	1.0087065696716309
53	233.8353202342987	movie	1		280	51.0	2.5	/experiments/knapen_AOT/AOT_stimuli/rescaled_final/0569_fw.mp4	0.0	262.49367117881775	2.500333070755005
53	234.21009993553162	pulse	1	t		51.0	2.5	/experiments/knapen_AOT/AOT_stimuli/rescaled_final/0569_fw.mp4	0.0	262.86845088005066	
53	235.80261278152466	pulse	1	t		51.0	2.5	/experiments/knapen_AOT/AOT_stimuli/rescaled_final/0569_fw.mp4	0.0	264.4609637260437	
53	236.3356533050537	fix_post	2		11	51.0	2.5	/experiments/knapen_AOT/AOT_stimuli/rescaled_final/0569_fw.mp4	0.0	264.99400424957275	0.09146952629089355
54	236.4271228313446	fix_pre	0		118	52.0	2.5	/experiments/knapen_AOT/AOT_stimuli/rescaled_final/0389_rv.mp4	0.0	265.08547377586365	0.9918696880340576
54	237.40249586105347	pulse	0	t		52.0	2.5	/experiments/knapen_AOT/AOT_stimuli/rescaled_final/0389_rv.mp4	0.0	266.0608468055725	
54	237.41899251937866	movie	1		276	52.0	2.5	/experiments/knapen_AOT/AOT_stimuli/rescaled_final/0389_rv.mp4	0.0	266.0773434638977	2.500460147857666
54	239.00284028053284	pulse	1	t		52.0	2.5	/experiments/knapen_AOT/AOT_stimuli/rescaled_final/0389_rv.mp4	0.0	267.6611912250519	
54	239.91945266723633	fix_post	2		12	52.0	2.5	/experiments/knapen_AOT/AOT_stimuli/rescaled_final/0389_rv.mp4	0.0	268.57780361175537	0.10004544258117676
55	240.0194981098175	fix_pre	0		120	53.0	2.5	/experiments/knapen_AOT/AOT_stimuli/rescaled_final/0311_rv.mp4	0.0	268.67784905433655	1.0083403587341309
55	240.60300707817078	pulse	0	t		53.0	2.5	/experiments/knapen_AOT/AOT_stimuli/rescaled_final/0311_rv.mp4	0.0	269.2613580226898	
55	241.02783846855164	movie	1		272	53.0	2.5	/experiments/knapen_AOT/AOT_stimuli/rescaled_final/0311_rv.mp4	0.0	269.6861894130707	2.492276668548584
55	242.2033770084381	pulse	1	t		53.0	2.5	/experiments/knapen_AOT/AOT_stimuli/rescaled_final/0311_rv.mp4	0.0	270.86172795295715	
55	243.52011513710022	fix_post	2		12	53.0	2.5	/experiments/knapen_AOT/AOT_stimuli/rescaled_final/0311_rv.mp4	0.0	272.17846608161926	0.09988212585449219
56	243.6199972629547	fix_pre	0		120	54.0	2.5	/experiments/knapen_AOT/AOT_stimuli/rescaled_final/1909_rv.mp4	0.0	272.27834820747375	1.0083880424499512
56	243.80356311798096	pulse	0	t		54.0	2.5	/experiments/knapen_AOT/AOT_stimuli/rescaled_final/1909_rv.mp4	0.0	272.4619140625	
56	244.62838530540466	movie	1		279	54.0	2.5	/experiments/knapen_AOT/AOT_stimuli/rescaled_final/1909_rv.mp4	0.0	273.2867362499237	2.4920222759246826
56	245.40378594398499	pulse	1	t		54.0	2.5	/experiments/knapen_AOT/AOT_stimuli/rescaled_final/1909_rv.mp4	0.0	274.062136888504	
56	247.00396275520325	pulse	1	t		54.0	2.5	/experiments/knapen_AOT/AOT_stimuli/rescaled_final/1909_rv.mp4	0.0	275.6623136997223	
56	247.12040758132935	fix_post	2		12	54.0	2.5	/experiments/knapen_AOT/AOT_stimuli/rescaled_final/1909_rv.mp4	0.0	275.7787585258484	0.09998250007629395
57	247.22039008140564	fix_pre	0		120	55.0	2.5	blank	1.0	275.8787410259247	1.0001990795135498
57	248.2205891609192	movie	1		300	55.0	2.5	blank	1.0	276.87894010543823	2.50036883354187
57	248.6041796207428	pulse	1	t		55.0	2.5	blank	1.0	277.26253056526184	
57	250.20445656776428	pulse	1	t		55.0	2.5	blank	1.0	278.8628075122833	
57	250.72095799446106	fix_post	2		12	55.0	2.5	blank	1.0	279.3793089389801	0.10002374649047852
58	250.82098174095154	fix_pre	0		119	56.0	2.5	/experiments/knapen_AOT/AOT_stimuli/rescaled_final/1132_rv.mp4	0.0	279.4793326854706	1.0001821517944336
58	251.80473375320435	pulse	0	t		56.0	2.5	/experiments/knapen_AOT/AOT_stimuli/rescaled_final/1132_rv.mp4	0.0	280.4630846977234	
58	251.82116389274597	movie	1		280	56.0	2.5	/experiments/knapen_AOT/AOT_stimuli/rescaled_final/1132_rv.mp4	0.0	280.479514837265	2.500352382659912
58	253.40342473983765	pulse	1	t		56.0	2.5	/experiments/knapen_AOT/AOT_stimuli/rescaled_final/1132_rv.mp4	0.0	282.0617756843567	
58	254.32151627540588	fix_post	2		12	56.0	2.5	/experiments/knapen_AOT/AOT_stimuli/rescaled_final/1132_rv.mp4	0.0	282.9798672199249	0.10007548332214355
59	254.42159175872803	fix_pre	0		120	57.0	2.5	/experiments/knapen_AOT/AOT_stimuli/rescaled_final/1867_fw.mp4	0.0	283.07994270324707	1.0087251663208008
59	255.0051715373993	pulse	0	t		57.0	2.5	/experiments/knapen_AOT/AOT_stimuli/rescaled_final/1867_fw.mp4	0.0	283.66352248191833	
59	255.43031692504883	movie	1		258	57.0	2.5	/experiments/knapen_AOT/AOT_stimuli/rescaled_final/1867_fw.mp4	0.0	284.08866786956787	2.4919934272766113
59	256.6033046245575	pulse	1	t		57.0	2.5	/experiments/knapen_AOT/AOT_stimuli/rescaled_final/1867_fw.mp4	0.0	285.26165556907654	
59	257.92231035232544	fix_post	2		12	57.0	2.5	/experiments/knapen_AOT/AOT_stimuli/rescaled_final/1867_fw.mp4	0.0	286.5806612968445	0.09975123405456543
60	258.02206158638	fix_pre	0		120	58.0	2.5	/experiments/knapen_AOT/AOT_stimuli/rescaled_final/0565_fw.mp4	0.0	286.68041253089905	1.0085930824279785
60	258.2056269645691	pulse	0	t		58.0	2.5	/experiments/knapen_AOT/AOT_stimuli/rescaled_final/0565_fw.mp4	0.0	286.86397790908813	
60	259.030654668808	movie	1		287	58.0	2.5	/experiments/knapen_AOT/AOT_stimuli/rescaled_final/0565_fw.mp4	0.0	287.689005613327	2.4922163486480713
60	259.8038604259491	pulse	1	t		58.0	2.5	/experiments/knapen_AOT/AOT_stimuli/rescaled_final/0565_fw.mp4	0.0	288.46221137046814	
60	261.4040560722351	pulse	1	t		58.0	2.5	/experiments/knapen_AOT/AOT_stimuli/rescaled_final/0565_fw.mp4	0.0	290.06240701675415	
60	261.52287101745605	fix_post	2		12	58.0	2.5	/experiments/knapen_AOT/AOT_stimuli/rescaled_final/0565_fw.mp4	0.0	290.1812219619751	0.0998077392578125
61	261.62267875671387	fix_pre	0		120	59.0	2.5	/experiments/knapen_AOT/AOT_stimuli/rescaled_final/1637_rv.mp4	0.0	290.2810297012329	1.008575201034546
61	262.6312539577484	movie	1		275	59.0	2.5	/experiments/knapen_AOT/AOT_stimuli/rescaled_final/1637_rv.mp4	0.0	291.28960490226746	2.49216628074646
61	263.00473833084106	pulse	1	t		59.0	2.5	/experiments/knapen_AOT/AOT_stimuli/rescaled_final/1637_rv.mp4	0.0	291.6630892753601	
61	264.60436177253723	pulse	1	t		59.0	2.5	/experiments/knapen_AOT/AOT_stimuli/rescaled_final/1637_rv.mp4	0.0	293.2627127170563	
61	265.1234202384949	fix_post	2		12	59.0	2.5	/experiments/knapen_AOT/AOT_stimuli/rescaled_final/1637_rv.mp4	0.0	293.7817711830139	0.09984874725341797
62	265.2232689857483	fix_pre	0		119	60.0	2.5	/experiments/knapen_AOT/AOT_stimuli/rescaled_final/0075_rv.mp4	0.0	293.88161993026733	1.0000300407409668
62	266.2070186138153	pulse	0	t		60.0	2.5	/experiments/knapen_AOT/AOT_stimuli/rescaled_final/0075_rv.mp4	0.0	294.86536955833435	
62	266.22329902648926	movie	1		284	60.0	2.5	/experiments/knapen_AOT/AOT_stimuli/rescaled_final/0075_rv.mp4	0.0	294.8816499710083	2.5007810592651367
62	267.80708050727844	pulse	1	t		60.0	2.5	/experiments/knapen_AOT/AOT_stimuli/rescaled_final/0075_rv.mp4	0.0	296.4654314517975	
62	268.7240800857544	fix_post	2		12	60.0	2.5	/experiments/knapen_AOT/AOT_stimuli/rescaled_final/0075_rv.mp4	0.0	297.38243103027344	0.09961295127868652
63	268.8236930370331	fix_pre	0		120	61.0	2.5	blank	1.0	297.4820439815521	1.0001680850982666
63	269.40731477737427	pulse	0	t		61.0	2.5	blank	1.0	298.0656657218933	
63	269.82386112213135	movie	1		300	61.0	2.5	blank	1.0	298.4822120666504	2.500647783279419
63	271.0076012611389	pulse	1	t		61.0	2.5	blank	1.0	299.66595220565796	
63	272.32450890541077	fix_post	2		12	61.0	2.5	blank	1.0	300.9828598499298	0.09976482391357422
64	272.42427372932434	fix_pre	0		120	62.0	2.5	/experiments/knapen_AOT/AOT_stimuli/rescaled_final/1785_rv.mp4	0.0	301.0826246738434	1.008451223373413
64	272.6077980995178	pulse	0	t		62.0	2.5	/experiments/knapen_AOT/AOT_stimuli/rescaled_final/1785_rv.mp4	0.0	301.26614904403687	
64	273.43272495269775	movie	1		267	62.0	2.5	/experiments/knapen_AOT/AOT_stimuli/rescaled_final/1785_rv.mp4	0.0	302.0910758972168	2.49232816696167
64	274.2083637714386	pulse	1	t		62.0	2.5	/experiments/knapen_AOT/AOT_stimuli/rescaled_final/1785_rv.mp4	0.0	302.86671471595764	
64	275.80862283706665	pulse	1	t		62.0	2.5	/experiments/knapen_AOT/AOT_stimuli/rescaled_final/1785_rv.mp4	0.0	304.4669737815857	
64	275.9250531196594	fix_post	2		12	62.0	2.5	/experiments/knapen_AOT/AOT_stimuli/rescaled_final/1785_rv.mp4	0.0	304.58340406417847	0.09979581832885742
65	276.0248489379883	fix_pre	0		120	63.0	2.5	/experiments/knapen_AOT/AOT_stimuli/rescaled_final/1955_rv.mp4	0.0	304.6831998825073	1.008396863937378
65	277.03324580192566	movie	1		272	63.0	2.5	/experiments/knapen_AOT/AOT_stimuli/rescaled_final/1955_rv.mp4	0.0	305.6915967464447	2.4922707080841064
65	277.406724691391	pulse	1	t		63.0	2.5	/experiments/knapen_AOT/AOT_stimuli/rescaled_final/1955_rv.mp4	0.0	306.06507563591003	
65	279.00670099258423	pulse	1	t		63.0	2.5	/experiments/knapen_AOT/AOT_stimuli/rescaled_final/1955_rv.mp4	0.0	307.66505193710327	
65	279.52551651000977	fix_post	2		12	63.0	2.5	/experiments/knapen_AOT/AOT_stimuli/rescaled_final/1955_rv.mp4	0.0	308.1838674545288	0.09987878799438477
66	279.62539529800415	fix_pre	0		119	64.0	2.5	/experiments/knapen_AOT/AOT_stimuli/rescaled_final/1251_fw.mp4	0.0	308.2837462425232	1.0000910758972168
66	280.60906291007996	pulse	0	t		64.0	2.5	/experiments/knapen_AOT/AOT_stimuli/rescaled_final/1251_fw.mp4	0.0	309.267413854599	
66	280.62548637390137	movie	1		265	64.0	2.5	/experiments/knapen_AOT/AOT_stimuli/rescaled_final/1251_fw.mp4	0.0	309.2838373184204	2.5007994174957275
66	282.2075436115265	pulse	1	t		64.0	2.5	/experiments/knapen_AOT/AOT_stimuli/rescaled_final/1251_fw.mp4	0.0	310.86589455604553	
66	283.1262857913971	fix_post	2		12	64.0	2.5	/experiments/knapen_AOT/AOT_stimuli/rescaled_final/1251_fw.mp4	0.0	311.78463673591614	0.09961986541748047
67	283.2259056568146	fix_pre	0		120	65.0	2.5	/experiments/knapen_AOT/AOT_stimuli/rescaled_final/0767_fw.mp4	0.0	311.8842566013336	1.0084443092346191
67	283.80967259407043	pulse	0	t		65.0	2.5	/experiments/knapen_AOT/AOT_stimuli/rescaled_final/0767_fw.mp4	0.0	312.4680235385895	
67	284.2343499660492	movie	1		273	65.0	2.5	/experiments/knapen_AOT/AOT_stimuli/rescaled_final/0767_fw.mp4	0.0	312.89270091056824	2.4920337200164795
67	285.40763902664185	pulse	1	t		65.0	2.5	/experiments/knapen_AOT/AOT_stimuli/rescaled_final/0767_fw.mp4	0.0	314.0659899711609	
67	286.7263836860657	fix_post	2		12	65.0	2.5	/experiments/knapen_AOT/AOT_stimuli/rescaled_final/0767_fw.mp4	0.0	315.3847346305847	0.10001468658447266
68	286.82639837265015	fix_pre	0		120	66.0	2.5	/experiments/knapen_AOT/AOT_stimuli/rescaled_final/0534_rv.mp4	0.0	315.4847493171692	1.0085093975067139
68	287.00997495651245	pulse	0	t		66.0	2.5	/experiments/knapen_AOT/AOT_stimuli/rescaled_final/0534_rv.mp4	0.0	315.6683259010315	
68	287.83490777015686	movie	1		290	66.0	2.5	/experiments/knapen_AOT/AOT_stimuli/rescaled_final/0534_rv.mp4	0.0	316.4932587146759	2.4922292232513428
68	288.6079659461975	pulse	1	t		66.0	2.5	/experiments/knapen_AOT/AOT_stimuli/rescaled_final/0534_rv.mp4	0.0	317.26631689071655	
68	290.20855712890625	pulse	1	t		66.0	2.5	/experiments/knapen_AOT/AOT_stimuli/rescaled_final/0534_rv.mp4	0.0	318.8669080734253	
68	290.3271369934082	fix_post	2		12	66.0	2.5	/experiments/knapen_AOT/AOT_stimuli/rescaled_final/0534_rv.mp4	0.0	318.98548793792725	0.10001134872436523
69	290.42714834213257	fix_pre	0		120	67.0	2.5	/experiments/knapen_AOT/AOT_stimuli/rescaled_final/2004_fw.mp4	0.0	319.0854992866516	1.0084340572357178
69	291.4355823993683	movie	1		277	67.0	2.5	/experiments/knapen_AOT/AOT_stimuli/rescaled_final/2004_fw.mp4	0.0	320.09393334388733	2.492283344268799
69	291.8089554309845	pulse	1	t		67.0	2.5	/experiments/knapen_AOT/AOT_stimuli/rescaled_final/2004_fw.mp4	0.0	320.46730637550354	
69	293.40291953086853	pulse	1	t		67.0	2.5	/experiments/knapen_AOT/AOT_stimuli/rescaled_final/2004_fw.mp4	0.0	322.0612704753876	
69	293.9278657436371	fix_post	2		12	67.0	2.5	/experiments/knapen_AOT/AOT_stimuli/rescaled_final/2004_fw.mp4	0.0	322.5862166881561	0.09961175918579102
70	294.0274775028229	fix_pre	0		118	68.0	2.5	/experiments/knapen_AOT/AOT_stimuli/rescaled_final/1955_fw.mp4	0.0	322.6858284473419	0.9918570518493652
70	295.00292325019836	pulse	0	t		68.0	2.5	/experiments/knapen_AOT/AOT_stimuli/rescaled_final/1955_fw.mp4	0.0	323.6612741947174	
70	295.01933455467224	movie	1		280	68.0	2.5	/experiments/knapen_AOT/AOT_stimuli/rescaled_final/1955_fw.mp4	0.0	323.6776854991913	2.500720262527466
70	296.6031963825226	pulse	1	t		68.0	2.5	/experiments/knapen_AOT/AOT_stimuli/rescaled_final/1955_fw.mp4	0.0	325.2615473270416	
70	297.5200548171997	fix_post	2		12	68.0	2.5	/experiments/knapen_AOT/AOT_stimuli/rescaled_final/1955_fw.mp4	0.0	326.17840576171875	0.0998220443725586
71	297.61987686157227	fix_pre	0		120	69.0	2.5	blank	1.0	326.2782278060913	1.0000090599060059
71	298.20339584350586	pulse	0	t		69.0	2.5	blank	1.0	326.8617467880249	
71	298.61988592147827	movie	1		300	69.0	2.5	blank	1.0	327.2782368659973	2.5003373622894287
71	299.8035924434662	pulse	1	t		69.0	2.5	blank	1.0	328.46194338798523	
71	301.1202232837677	fix_post	2		12	69.0	2.5	blank	1.0	329.77857422828674	0.1000063419342041
72	301.2202296257019	fix_pre	0		120	70.0	2.5	/experiments/knapen_AOT/AOT_stimuli/rescaled_final/1418_fw.mp4	0.0	329.87858057022095	1.0084617137908936
72	301.40408849716187	pulse	0	t		70.0	2.5	/experiments/knapen_AOT/AOT_stimuli/rescaled_final/1418_fw.mp4	0.0	330.0624394416809	
72	302.2286913394928	movie	1		271	70.0	2.5	/experiments/knapen_AOT/AOT_stimuli/rescaled_final/1418_fw.mp4	0.0	330.88704228401184	2.4923336505889893
72	303.00298047065735	pulse	1	t		70.0	2.5	/experiments/knapen_AOT/AOT_stimuli/rescaled_final/1418_fw.mp4	0.0	331.6613314151764	
72	304.60427951812744	pulse	1	t		70.0	2.5	/experiments/knapen_AOT/AOT_stimuli/rescaled_final/1418_fw.mp4	0.0	333.2626304626465	
72	304.7210249900818	fix_post	2		12	70.0	2.5	/experiments/knapen_AOT/AOT_stimuli/rescaled_final/1418_fw.mp4	0.0	333.37937593460083	0.09974837303161621
73	304.8207733631134	fix_pre	0		120	71.0	2.5	/experiments/knapen_AOT/AOT_stimuli/rescaled_final/0518_rv.mp4	0.0	333.47912430763245	1.008493423461914
73	305.8292667865753	movie	1		262	71.0	2.5	/experiments/knapen_AOT/AOT_stimuli/rescaled_final/0518_rv.mp4	0.0	334.48761773109436	2.4923198223114014
73	306.20527744293213	pulse	1	t		71.0	2.5	/experiments/knapen_AOT/AOT_stimuli/rescaled_final/0518_rv.mp4	0.0	334.8636283874512	
73	307.8027980327606	pulse	1	t		71.0	2.5	/experiments/knapen_AOT/AOT_stimuli/rescaled_final/0518_rv.mp4	0.0	336.46114897727966	
73	308.3215866088867	fix_post	2		12	71.0	2.5	/experiments/knapen_AOT/AOT_stimuli/rescaled_final/0518_rv.mp4	0.0	336.97993755340576	0.09973740577697754
74	308.4213240146637	fix_pre	0		119	72.0	2.5	/experiments/knapen_AOT/AOT_stimuli/rescaled_final/1384_rv.mp4	0.0	337.07967495918274	1.0002202987670898
74	309.4050180912018	pulse	0	t		72.0	2.5	/experiments/knapen_AOT/AOT_stimuli/rescaled_final/1384_rv.mp4	0.0	338.0633690357208	
74	309.4215443134308	movie	1		273	72.0	2.5	/experiments/knapen_AOT/AOT_stimuli/rescaled_final/1384_rv.mp4	0.0	338.07989525794983	2.5004520416259766
74	311.00363779067993	pulse	1	t		72.0	2.5	/experiments/knapen_AOT/AOT_stimuli/rescaled_final/1384_rv.mp4	0.0	339.661988735199	
74	311.92199635505676	fix_post	2		12	72.0	2.5	/experiments/knapen_AOT/AOT_stimuli/rescaled_final/1384_rv.mp4	0.0	340.5803472995758	0.0998528003692627
75	312.021849155426	fix_pre	0		120	73.0	2.5	/experiments/knapen_AOT/AOT_stimuli/rescaled_final/0863_rv.mp4	0.0	340.68020009994507	1.0085954666137695
75	312.6055097579956	pulse	0	t		73.0	2.5	/experiments/knapen_AOT/AOT_stimuli/rescaled_final/0863_rv.mp4	0.0	341.26386070251465	
75	313.0304446220398	movie	1		261	73.0	2.5	/experiments/knapen_AOT/AOT_stimuli/rescaled_final/0863_rv.mp4	0.0	341.68879556655884	2.4919958114624023
75	314.20386242866516	pulse	1	t		73.0	2.5	/experiments/knapen_AOT/AOT_stimuli/rescaled_final/0863_rv.mp4	0.0	342.8622133731842	
75	315.5224404335022	fix_post	2		12	73.0	2.5	/experiments/knapen_AOT/AOT_stimuli/rescaled_final/0863_rv.mp4	0.0	344.18079137802124	0.09996867179870605
76	315.6224091053009	fix_pre	0		120	74.0	2.5	/experiments/knapen_AOT/AOT_stimuli/rescaled_final/0454_fw.mp4	0.0	344.28076004981995	1.0085148811340332
76	315.8061535358429	pulse	0	t		74.0	2.5	/experiments/knapen_AOT/AOT_stimuli/rescaled_final/0454_fw.mp4	0.0	344.46450448036194	
76	316.63092398643494	movie	1		275	74.0	2.5	/experiments/knapen_AOT/AOT_stimuli/rescaled_final/0454_fw.mp4	0.0	345.289274930954	2.492018938064575
76	317.40412163734436	pulse	1	t		74.0	2.5	/experiments/knapen_AOT/AOT_stimuli/rescaled_final/0454_fw.mp4	0.0	346.0624725818634	
76	319.00449872016907	pulse	1	t		74.0	2.5	/experiments/knapen_AOT/AOT_stimuli/rescaled_final/0454_fw.mp4	0.0	347.6628496646881	
76	319.1229429244995	fix_post	2		12	74.0	2.5	/experiments/knapen_AOT/AOT_stimuli/rescaled_final/0454_fw.mp4	0.0	347.78129386901855	0.1000063419342041
77	319.2229492664337	fix_pre	0		120	75.0	2.5	/experiments/knapen_AOT/AOT_stimuli/rescaled_final/0277_rv.mp4	0.0	347.88130021095276	1.0084478855133057
77	320.231397151947	movie	1		279	75.0	2.5	/experiments/knapen_AOT/AOT_stimuli/rescaled_final/0277_rv.mp4	0.0	348.88974809646606	2.4922056198120117
77	320.6066539287567	pulse	1	t		75.0	2.5	/experiments/knapen_AOT/AOT_stimuli/rescaled_final/0277_rv.mp4	0.0	349.26500487327576	
77	322.2048180103302	pulse	1	t		75.0	2.5	/experiments/knapen_AOT/AOT_stimuli/rescaled_final/0277_rv.mp4	0.0	350.86316895484924	
77	322.72360277175903	fix_post	2		12	75.0	2.5	/experiments/knapen_AOT/AOT_stimuli/rescaled_final/0277_rv.mp4	0.0	351.3819537162781	0.1000518798828125
78	322.82365465164185	fix_pre	0		119	76.0	2.5	blank	1.0	351.4820055961609	0.9916372299194336
78	323.8071801662445	pulse	0	t		76.0	2.5	blank	1.0	352.46553111076355	
78	323.8152918815613	movie	1		301	76.0	2.5	blank	1.0	352.4736428260803	2.5086958408355713
78	325.40739154815674	pulse	1	t		76.0	2.5	blank	1.0	354.0657424926758	
78	326.32398772239685	fix_post	2		12	76.0	2.5	blank	1.0	354.9823386669159	0.10006141662597656
79	326.4240491390228	fix_pre	0		120	77.0	2.5	/experiments/knapen_AOT/AOT_stimuli/rescaled_final/0787_rv.mp4	0.0	355.08240008354187	1.0084550380706787
79	327.00770258903503	pulse	0	t		77.0	2.5	/experiments/knapen_AOT/AOT_stimuli/rescaled_final/0787_rv.mp4	0.0	355.6660535335541	
79	327.4325041770935	movie	1		277	77.0	2.5	/experiments/knapen_AOT/AOT_stimuli/rescaled_final/0787_rv.mp4	0.0	356.09085512161255	2.4923462867736816
79	328.60621094703674	pulse	1	t		77.0	2.5	/experiments/knapen_AOT/AOT_stimuli/rescaled_final/0787_rv.mp4	0.0	357.2645618915558	
79	329.9248504638672	fix_post	2		12	77.0	2.5	/experiments/knapen_AOT/AOT_stimuli/rescaled_final/0787_rv.mp4	0.0	358.58320140838623	0.09977602958679199
80	330.024626493454	fix_pre	0		120	78.0	2.5	/experiments/knapen_AOT/AOT_stimuli/rescaled_final/1251_rv.mp4	0.0	358.682977437973	1.0084621906280518
80	330.20811796188354	pulse	0	t		78.0	2.5	/experiments/knapen_AOT/AOT_stimuli/rescaled_final/1251_rv.mp4	0.0	358.8664689064026	
80	331.03308868408203	movie	1		280	78.0	2.5	/experiments/knapen_AOT/AOT_stimuli/rescaled_final/1251_rv.mp4	0.0	359.6914396286011	2.492340326309204
80	331.80675077438354	pulse	1	t		78.0	2.5	/experiments/knapen_AOT/AOT_stimuli/rescaled_final/1251_rv.mp4	0.0	360.4651017189026	
80	333.4068531990051	pulse	1	t		78.0	2.5	/experiments/knapen_AOT/AOT_stimuli/rescaled_final/1251_rv.mp4	0.0	362.06520414352417	
80	333.52542901039124	fix_post	2		12	78.0	2.5	/experiments/knapen_AOT/AOT_stimuli/rescaled_final/1251_rv.mp4	0.0	362.1837799549103	0.09974837303161621
81	333.62517738342285	fix_pre	0		120	79.0	2.5	/experiments/knapen_AOT/AOT_stimuli/rescaled_final/0394_fw.mp4	0.0	362.2835283279419	1.0084924697875977
81	334.63366985321045	movie	1		263	79.0	2.5	/experiments/knapen_AOT/AOT_stimuli/rescaled_final/0394_fw.mp4	0.0	363.2920207977295	2.492202043533325
81	335.007036447525	pulse	1	t		79.0	2.5	/experiments/knapen_AOT/AOT_stimuli/rescaled_final/0394_fw.mp4	0.0	363.66538739204407	
81	336.60723185539246	pulse	1	t		79.0	2.5	/experiments/knapen_AOT/AOT_stimuli/rescaled_final/0394_fw.mp4	0.0	365.2655827999115	
81	337.1258718967438	fix_post	2		12	79.0	2.5	/experiments/knapen_AOT/AOT_stimuli/rescaled_final/0394_fw.mp4	0.0	365.7842228412628	0.1000528335571289
82	337.2259247303009	fix_pre	0		119	80.0	2.5	/experiments/knapen_AOT/AOT_stimuli/rescaled_final/0469_rv.mp4	0.0	365.88427567481995	0.9999089241027832
82	338.20959424972534	pulse	0	t		80.0	2.5	/experiments/knapen_AOT/AOT_stimuli/rescaled_final/0469_rv.mp4	0.0	366.8679451942444	
82	338.2258336544037	movie	1		279	80.0	2.5	/experiments/knapen_AOT/AOT_stimuli/rescaled_final/0469_rv.mp4	0.0	366.88418459892273	2.5006890296936035
82	339.80803060531616	pulse	1	t		80.0	2.5	/experiments/knapen_AOT/AOT_stimuli/rescaled_final/0469_rv.mp4	0.0	368.4663815498352	
82	340.7265226840973	fix_post	2		11	80.0	2.5	/experiments/knapen_AOT/AOT_stimuli/rescaled_final/0469_rv.mp4	0.0	369.38487362861633	0.09967923164367676
83	340.82620191574097	fix_pre	0		120	81.0	2.5	/experiments/knapen_AOT/AOT_stimuli/rescaled_final/0569_rv.mp4	0.0	369.48455286026	1.0086863040924072
83	341.4025728702545	pulse	0	t		81.0	2.5	/experiments/knapen_AOT/AOT_stimuli/rescaled_final/0569_rv.mp4	0.0	370.06092381477356	
83	341.8348882198334	movie	1		269	81.0	2.5	/experiments/knapen_AOT/AOT_stimuli/rescaled_final/0569_rv.mp4	0.0	370.4932391643524	2.491933584213257
83	343.01033329963684	pulse	1	t		81.0	2.5	/experiments/knapen_AOT/AOT_stimuli/rescaled_final/0569_rv.mp4	0.0	371.6686842441559	
83	344.32682180404663	fix_post	2		12	81.0	2.5	/experiments/knapen_AOT/AOT_stimuli/rescaled_final/0569_rv.mp4	0.0	372.9851727485657	0.1000521183013916
84	344.426873922348	fix_pre	0		120	82.0	2.5	blank	1.0	373.08522486686707	0.9999988079071045
84	344.60257720947266	pulse	0	t		82.0	2.5	blank	1.0	373.2609281539917	
84	345.4268727302551	movie	1		300	82.0	2.5	blank	1.0	374.08522367477417	2.5003864765167236
84	346.20232796669006	pulse	1	t		82.0	2.5	blank	1.0	374.8606789112091	
84	347.80258655548096	pulse	1	t		82.0	2.5	blank	1.0	376.4609375	
84	347.92725920677185	fix_post	2		12	82.0	2.5	blank	1.0	376.5856101512909	0.10005474090576172
85	348.0273139476776	fix_pre	0		120	83.0	2.5	/experiments/knapen_AOT/AOT_stimuli/rescaled_final/0594_rv.mp4	0.0	376.68566489219666	1.0086233615875244
85	349.03593730926514	movie	1		279	83.0	2.5	/experiments/knapen_AOT/AOT_stimuli/rescaled_final/0594_rv.mp4	0.0	377.6942882537842	2.49198579788208
85	349.4028160572052	pulse	1	t		83.0	2.5	/experiments/knapen_AOT/AOT_stimuli/rescaled_final/0594_rv.mp4	0.0	378.06116700172424	
85	351.00309658050537	pulse	1	t		83.0	2.5	/experiments/knapen_AOT/AOT_stimuli/rescaled_final/0594_rv.mp4	0.0	379.6614475250244	
85	351.5279231071472	fix_post	2		12	83.0	2.5	/experiments/knapen_AOT/AOT_stimuli/rescaled_final/0594_rv.mp4	0.0	380.18627405166626	0.0998983383178711
87	351.6278214454651	stim	0		1715					380.28617238998413	14.293836832046509
87	352.60320591926575	pulse	0	t						381.2615568637848	
87	354.20341205596924	pulse	0	t						382.8617630004883	
87	355.8037750720978	pulse	0	t						384.4621260166168	
87	357.4039342403412	pulse	0	t						386.06228518486023	
87	359.004154920578	pulse	0	t						387.66250586509705	
87	360.60445642471313	pulse	0	t						389.2628073692322	
87	362.2046639919281	pulse	0	t						390.86301493644714	
87	363.8048710823059	pulse	0	t						392.46322202682495	
87	365.4051704406738	pulse	0	t						394.06352138519287	
