trial_nr	onset	event_type	phase	response	nr_frames	movie_index	movie_duration	movie_file	blank	onset_abs	duration
0	0.2084188461303711	stim	0		500					25.736437797546387	4.167102098464966
0	4.3674750328063965	response	0	space						29.895493984222412	
1	4.375520944595337	stim	0		4446					29.903539896011353	37.067867040634155
1	41.433109998703	pulse	0	t						66.96112895011902	
1	41.44338798522949	stim	1		1715					66.97140693664551	14.306527853012085
1	43.02328085899353	pulse	1	t						68.55129981040955	
1	44.61594486236572	pulse	1	t						70.14396381378174	
1	46.21606397628784	pulse	1	t						71.74408292770386	
1	47.816335916519165	pulse	1	t						73.34435486793518	
1	49.41661596298218	pulse	1	t						74.9446349143982	
1	51.0161030292511	pulse	1	t						76.54412198066711	
1	52.61610388755798	pulse	1	t						78.144122838974	
1	54.21637296676636	pulse	1	t						79.74439191818237	
2	55.74991583824158	fix_pre	0		9	0.0	2.5	/experiments/knapen_AOT/AOT_stimuli/rescaled_final/0453_fw.mp4	0.0	81.27793478965759	0.12493610382080078
2	55.816673040390015	pulse	0	t		0.0	2.5	/experiments/knapen_AOT/AOT_stimuli/rescaled_final/0453_fw.mp4	0.0	81.34469199180603	
2	55.87485194206238	movie	1		237	0.0	2.5	/experiments/knapen_AOT/AOT_stimuli/rescaled_final/0453_fw.mp4	0.0	81.4028708934784	2.4586899280548096
2	57.41728401184082	pulse	1	t		0.0	2.5	/experiments/knapen_AOT/AOT_stimuli/rescaled_final/0453_fw.mp4	0.0	82.94530296325684	
2	58.33354187011719	fix_post	2		12	0.0	2.5	/experiments/knapen_AOT/AOT_stimuli/rescaled_final/0453_fw.mp4	0.0	83.8615608215332	0.1000070571899414
3	58.43354892730713	fix_pre	0		120	1.0	2.5	/experiments/knapen_AOT/AOT_stimuli/rescaled_final/1042_rv.mp4	0.0	83.96156787872314	1.0002551078796387
3	59.01728701591492	pulse	0	t		1.0	2.5	/experiments/knapen_AOT/AOT_stimuli/rescaled_final/1042_rv.mp4	0.0	84.54530596733093	
3	59.43380403518677	movie	1		245	1.0	2.5	/experiments/knapen_AOT/AOT_stimuli/rescaled_final/1042_rv.mp4	0.0	84.96182298660278	2.500342845916748
3	60.61758589744568	pulse	1	t		1.0	2.5	/experiments/knapen_AOT/AOT_stimuli/rescaled_final/1042_rv.mp4	0.0	86.1456048488617	
3	61.934146881103516	fix_post	2		12	1.0	2.5	/experiments/knapen_AOT/AOT_stimuli/rescaled_final/1042_rv.mp4	0.0	87.46216583251953	0.0999600887298584
4	62.034106969833374	fix_pre	0		120	2.0	2.5	/experiments/knapen_AOT/AOT_stimuli/rescaled_final/1237_fw.mp4	0.0	87.56212592124939	1.0001640319824219
4	62.21761989593506	pulse	0	t		2.0	2.5	/experiments/knapen_AOT/AOT_stimuli/rescaled_final/1237_fw.mp4	0.0	87.74563884735107	
4	63.034271001815796	movie	1		244	2.0	2.5	/experiments/knapen_AOT/AOT_stimuli/rescaled_final/1237_fw.mp4	0.0	88.56228995323181	2.5003490447998047
4	63.817930936813354	pulse	1	t		2.0	2.5	/experiments/knapen_AOT/AOT_stimuli/rescaled_final/1237_fw.mp4	0.0	89.34594988822937	
4	65.4180748462677	pulse	1	t		2.0	2.5	/experiments/knapen_AOT/AOT_stimuli/rescaled_final/1237_fw.mp4	0.0	90.94609379768372	
4	65.5346200466156	fix_post	2		12	2.0	2.5	/experiments/knapen_AOT/AOT_stimuli/rescaled_final/1237_fw.mp4	0.0	91.06263899803162	0.10012292861938477
5	65.63474297523499	fix_pre	0		120	3.0	2.5	/experiments/knapen_AOT/AOT_stimuli/rescaled_final/0132_rv.mp4	0.0	91.162761926651	1.0001049041748047
5	66.63484787940979	movie	1		243	3.0	2.5	/experiments/knapen_AOT/AOT_stimuli/rescaled_final/0132_rv.mp4	0.0	92.1628668308258	2.4919700622558594
5	67.01898884773254	pulse	1	t		3.0	2.5	/experiments/knapen_AOT/AOT_stimuli/rescaled_final/0132_rv.mp4	0.0	92.54700779914856	
5	68.6186170578003	pulse	1	t		3.0	2.5	/experiments/knapen_AOT/AOT_stimuli/rescaled_final/0132_rv.mp4	0.0	94.14663600921631	
5	69.12681794166565	fix_post	2		12	3.0	2.5	/experiments/knapen_AOT/AOT_stimuli/rescaled_final/0132_rv.mp4	0.0	94.65483689308167	0.10000991821289062
6	69.22682785987854	fix_pre	0		120	4.0	2.5	/experiments/knapen_AOT/AOT_stimuli/rescaled_final/0990_rv.mp4	0.0	94.75484681129456	1.0001611709594727
6	70.21886801719666	pulse	0	t		4.0	2.5	/experiments/knapen_AOT/AOT_stimuli/rescaled_final/0990_rv.mp4	0.0	95.74688696861267	
6	70.22698903083801	movie	1		244	4.0	2.5	/experiments/knapen_AOT/AOT_stimuli/rescaled_final/0990_rv.mp4	0.0	95.75500798225403	2.5086829662323
6	71.82021999359131	pulse	1	t		4.0	2.5	/experiments/knapen_AOT/AOT_stimuli/rescaled_final/0990_rv.mp4	0.0	97.34823894500732	
6	72.73567199707031	fix_post	2		12	4.0	2.5	/experiments/knapen_AOT/AOT_stimuli/rescaled_final/0990_rv.mp4	0.0	98.26369094848633	0.10013294219970703
7	72.83580493927002	fix_pre	0		120	5.0	2.5	/experiments/knapen_AOT/AOT_stimuli/rescaled_final/1704_rv.mp4	0.0	98.36382389068604	1.0000710487365723
7	73.41939306259155	pulse	0	t		5.0	2.5	/experiments/knapen_AOT/AOT_stimuli/rescaled_final/1704_rv.mp4	0.0	98.94741201400757	
7	73.83587598800659	movie	1		243	5.0	2.5	/experiments/knapen_AOT/AOT_stimuli/rescaled_final/1704_rv.mp4	0.0	99.36389493942261	2.500365972518921
7	75.01961994171143	pulse	1	t		5.0	2.5	/experiments/knapen_AOT/AOT_stimuli/rescaled_final/1704_rv.mp4	0.0	100.54763889312744	
7	76.33624196052551	fix_post	2		12	5.0	2.5	/experiments/knapen_AOT/AOT_stimuli/rescaled_final/1704_rv.mp4	0.0	101.86426091194153	0.10001993179321289
8	76.43626189231873	fix_pre	0		120	6.0	2.5	/experiments/knapen_AOT/AOT_stimuli/rescaled_final/1233_fw.mp4	0.0	101.96428084373474	1.000143051147461
8	76.6197988986969	pulse	0	t		6.0	2.5	/experiments/knapen_AOT/AOT_stimuli/rescaled_final/1233_fw.mp4	0.0	102.14781785011292	
8	77.43640494346619	movie	1		244	6.0	2.5	/experiments/knapen_AOT/AOT_stimuli/rescaled_final/1233_fw.mp4	0.0	102.9644238948822	2.5003490447998047
8	78.22018194198608	pulse	1	t		6.0	2.5	/experiments/knapen_AOT/AOT_stimuli/rescaled_final/1233_fw.mp4	0.0	103.7482008934021	
8	79.82019090652466	pulse	1	t		6.0	2.5	/experiments/knapen_AOT/AOT_stimuli/rescaled_final/1233_fw.mp4	0.0	105.34820985794067	
8	79.93675398826599	fix_post	2		12	6.0	2.5	/experiments/knapen_AOT/AOT_stimuli/rescaled_final/1233_fw.mp4	0.0	105.464772939682	0.11671996116638184
9	80.05347394943237	fix_pre	0		118	7.0	2.5	blank	1.0	105.58149290084839	0.9834480285644531
9	81.03692197799683	movie	1		299	7.0	2.5	blank	1.0	106.56494092941284	2.492076873779297
9	81.42062783241272	pulse	1	t		7.0	2.5	blank	1.0	106.94864678382874	
9	83.02075099945068	pulse	1	t		7.0	2.5	blank	1.0	108.5487699508667	
9	83.52899885177612	fix_post	2		12	7.0	2.5	blank	1.0	109.05701780319214	0.09996318817138672
10	83.62896203994751	fix_pre	0		120	8.0	2.5	/experiments/knapen_AOT/AOT_stimuli/rescaled_final/0763_rv.mp4	0.0	109.15698099136353	1.0001838207244873
10	84.62112498283386	pulse	0	t		8.0	2.5	/experiments/knapen_AOT/AOT_stimuli/rescaled_final/0763_rv.mp4	0.0	110.14914393424988	
10	84.629145860672	movie	1		246	8.0	2.5	/experiments/knapen_AOT/AOT_stimuli/rescaled_final/0763_rv.mp4	0.0	110.15716481208801	2.508681058883667
10	86.22174096107483	pulse	1	t		8.0	2.5	/experiments/knapen_AOT/AOT_stimuli/rescaled_final/0763_rv.mp4	0.0	111.74975991249084	
10	87.13782691955566	fix_post	2		12	8.0	2.5	/experiments/knapen_AOT/AOT_stimuli/rescaled_final/0763_rv.mp4	0.0	112.66584587097168	0.10014510154724121
11	87.2379720211029	fix_pre	0		120	9.0	2.5	/experiments/knapen_AOT/AOT_stimuli/rescaled_final/0014_rv.mp4	0.0	112.76599097251892	1.0001599788665771
11	87.82151985168457	pulse	0	t		9.0	2.5	/experiments/knapen_AOT/AOT_stimuli/rescaled_final/0014_rv.mp4	0.0	113.34953880310059	
11	88.23813199996948	movie	1		244	9.0	2.5	/experiments/knapen_AOT/AOT_stimuli/rescaled_final/0014_rv.mp4	0.0	113.7661509513855	2.500225067138672
11	89.42177987098694	pulse	1	t		9.0	2.5	/experiments/knapen_AOT/AOT_stimuli/rescaled_final/0014_rv.mp4	0.0	114.94979882240295	
11	90.73835706710815	fix_post	2		12	9.0	2.5	/experiments/knapen_AOT/AOT_stimuli/rescaled_final/0014_rv.mp4	0.0	116.26637601852417	0.10003399848937988
12	90.83839106559753	fix_pre	0		120	10.0	2.5	/experiments/knapen_AOT/AOT_stimuli/rescaled_final/1490_fw.mp4	0.0	116.36641001701355	1.0001699924468994
12	91.02200603485107	pulse	0	t		10.0	2.5	/experiments/knapen_AOT/AOT_stimuli/rescaled_final/1490_fw.mp4	0.0	116.55002498626709	
12	91.83856105804443	movie	1		244	10.0	2.5	/experiments/knapen_AOT/AOT_stimuli/rescaled_final/1490_fw.mp4	0.0	117.36658000946045	2.5006678104400635
12	92.62228989601135	pulse	1	t		10.0	2.5	/experiments/knapen_AOT/AOT_stimuli/rescaled_final/1490_fw.mp4	0.0	118.15030884742737	
12	94.22252583503723	pulse	1	t		10.0	2.5	/experiments/knapen_AOT/AOT_stimuli/rescaled_final/1490_fw.mp4	0.0	119.75054478645325	
12	94.3392288684845	fix_post	2		10	10.0	2.5	/experiments/knapen_AOT/AOT_stimuli/rescaled_final/1490_fw.mp4	0.0	119.86724781990051	0.09972214698791504
13	94.43895101547241	fix_pre	0		120	11.0	2.5	/experiments/knapen_AOT/AOT_stimuli/rescaled_final/0133_fw.mp4	0.0	119.96696996688843	1.0001859664916992
13	95.43913698196411	movie	1		242	11.0	2.5	/experiments/knapen_AOT/AOT_stimuli/rescaled_final/0133_fw.mp4	0.0	120.96715593338013	2.4920458793640137
13	95.82421588897705	pulse	1	t		11.0	2.5	/experiments/knapen_AOT/AOT_stimuli/rescaled_final/0133_fw.mp4	0.0	121.35223484039307	
13	97.42299389839172	pulse	1	t		11.0	2.5	/experiments/knapen_AOT/AOT_stimuli/rescaled_final/0133_fw.mp4	0.0	122.95101284980774	
13	97.93118286132812	fix_post	2		12	11.0	2.5	/experiments/knapen_AOT/AOT_stimuli/rescaled_final/0133_fw.mp4	0.0	123.45920181274414	0.09993505477905273
14	98.03111791610718	fix_pre	0		120	12.0	2.5	blank	1.0	123.5591368675232	1.0001890659332275
14	99.02320384979248	pulse	0	t		12.0	2.5	blank	1.0	124.5512228012085	
14	99.0313069820404	movie	1		301	12.0	2.5	blank	1.0	124.55932593345642	2.5087530612945557
14	100.62353086471558	pulse	1	t		12.0	2.5	blank	1.0	126.15154981613159	
14	101.54006004333496	fix_post	2		12	12.0	2.5	blank	1.0	127.06807899475098	0.09999489784240723
15	101.64005494117737	fix_pre	0		120	13.0	2.5	/experiments/knapen_AOT/AOT_stimuli/rescaled_final/2134_rv.mp4	0.0	127.16807389259338	1.0001370906829834
15	102.22363996505737	pulse	0	t		13.0	2.5	/experiments/knapen_AOT/AOT_stimuli/rescaled_final/2134_rv.mp4	0.0	127.75165891647339	
15	102.64019203186035	movie	1		245	13.0	2.5	/experiments/knapen_AOT/AOT_stimuli/rescaled_final/2134_rv.mp4	0.0	128.16821098327637	2.500321865081787
15	103.81693696975708	pulse	1	t		13.0	2.5	/experiments/knapen_AOT/AOT_stimuli/rescaled_final/2134_rv.mp4	0.0	129.3449559211731	
15	105.14051389694214	fix_post	2		12	13.0	2.5	/experiments/knapen_AOT/AOT_stimuli/rescaled_final/2134_rv.mp4	0.0	130.66853284835815	0.10004997253417969
16	105.24056386947632	fix_pre	0		120	14.0	2.5	/experiments/knapen_AOT/AOT_stimuli/rescaled_final/0612_rv.mp4	0.0	130.76858282089233	1.0001280307769775
16	105.42407989501953	pulse	0	t		14.0	2.5	/experiments/knapen_AOT/AOT_stimuli/rescaled_final/0612_rv.mp4	0.0	130.95209884643555	
16	106.2406919002533	movie	1		244	14.0	2.5	/experiments/knapen_AOT/AOT_stimuli/rescaled_final/0612_rv.mp4	0.0	131.7687108516693	2.5004820823669434
16	107.01697897911072	pulse	1	t		14.0	2.5	/experiments/knapen_AOT/AOT_stimuli/rescaled_final/0612_rv.mp4	0.0	132.54499793052673	
16	108.62453198432922	pulse	1	t		14.0	2.5	/experiments/knapen_AOT/AOT_stimuli/rescaled_final/0612_rv.mp4	0.0	134.15255093574524	
16	108.74117398262024	fix_post	2		12	14.0	2.5	/experiments/knapen_AOT/AOT_stimuli/rescaled_final/0612_rv.mp4	0.0	134.26919293403625	0.09991192817687988
17	108.84108591079712	fix_pre	0		120	15.0	2.5	/experiments/knapen_AOT/AOT_stimuli/rescaled_final/2131_fw.mp4	0.0	134.36910486221313	1.0001699924468994
17	109.84125590324402	movie	1		244	15.0	2.5	/experiments/knapen_AOT/AOT_stimuli/rescaled_final/2131_fw.mp4	0.0	135.36927485466003	2.4920761585235596
17	110.22615194320679	pulse	1	t		15.0	2.5	/experiments/knapen_AOT/AOT_stimuli/rescaled_final/2131_fw.mp4	0.0	135.7541708946228	
17	111.81687092781067	pulse	1	t		15.0	2.5	/experiments/knapen_AOT/AOT_stimuli/rescaled_final/2131_fw.mp4	0.0	137.34488987922668	
17	112.33333206176758	fix_post	2		12	15.0	2.5	/experiments/knapen_AOT/AOT_stimuli/rescaled_final/2131_fw.mp4	0.0	137.8613510131836	0.09996390342712402
18	112.4332959651947	fix_pre	0		119	16.0	2.5	/experiments/knapen_AOT/AOT_stimuli/rescaled_final/2177_fw.mp4	0.0	137.96131491661072	0.9918110370635986
18	113.41689991950989	pulse	0	t		16.0	2.5	/experiments/knapen_AOT/AOT_stimuli/rescaled_final/2177_fw.mp4	0.0	138.9449188709259	
18	113.4251070022583	movie	1		245	16.0	2.5	/experiments/knapen_AOT/AOT_stimuli/rescaled_final/2177_fw.mp4	0.0	138.95312595367432	2.508769989013672
18	115.01788306236267	pulse	1	t		16.0	2.5	/experiments/knapen_AOT/AOT_stimuli/rescaled_final/2177_fw.mp4	0.0	140.5459020137787	
18	115.93387699127197	fix_post	2		12	16.0	2.5	/experiments/knapen_AOT/AOT_stimuli/rescaled_final/2177_fw.mp4	0.0	141.461895942688	0.09996986389160156
19	116.03384685516357	fix_pre	0		120	17.0	2.5	/experiments/knapen_AOT/AOT_stimuli/rescaled_final/2177_rv.mp4	0.0	141.5618658065796	1.0001590251922607
19	116.61754393577576	pulse	0	t		17.0	2.5	/experiments/knapen_AOT/AOT_stimuli/rescaled_final/2177_rv.mp4	0.0	142.14556288719177	
19	117.03400588035583	movie	1		244	17.0	2.5	/experiments/knapen_AOT/AOT_stimuli/rescaled_final/2177_rv.mp4	0.0	142.56202483177185	2.5003230571746826
19	118.21775889396667	pulse	1	t		17.0	2.5	/experiments/knapen_AOT/AOT_stimuli/rescaled_final/2177_rv.mp4	0.0	143.7457778453827	
19	119.53432893753052	fix_post	2		12	17.0	2.5	/experiments/knapen_AOT/AOT_stimuli/rescaled_final/2177_rv.mp4	0.0	145.06234788894653	0.10003399848937988
20	119.6343629360199	fix_pre	0		120	18.0	2.5	/experiments/knapen_AOT/AOT_stimuli/rescaled_final/0342_rv.mp4	0.0	145.1623818874359	1.0001540184020996
20	119.81803798675537	pulse	0	t		18.0	2.5	/experiments/knapen_AOT/AOT_stimuli/rescaled_final/0342_rv.mp4	0.0	145.3460569381714	
20	120.634516954422	movie	1		244	18.0	2.5	/experiments/knapen_AOT/AOT_stimuli/rescaled_final/0342_rv.mp4	0.0	146.162535905838	2.500335931777954
20	121.418123960495	pulse	1	t		18.0	2.5	/experiments/knapen_AOT/AOT_stimuli/rescaled_final/0342_rv.mp4	0.0	146.946142911911	
20	123.01862406730652	pulse	1	t		18.0	2.5	/experiments/knapen_AOT/AOT_stimuli/rescaled_final/0342_rv.mp4	0.0	148.54664301872253	
20	123.13485288619995	fix_post	2		12	18.0	2.5	/experiments/knapen_AOT/AOT_stimuli/rescaled_final/0342_rv.mp4	0.0	148.66287183761597	0.10029816627502441
21	123.23515105247498	fix_pre	0		120	19.0	2.5	/experiments/knapen_AOT/AOT_stimuli/rescaled_final/0066_fw.mp4	0.0	148.763170003891	0.9999020099639893
21	124.23505306243896	movie	1		244	19.0	2.5	/experiments/knapen_AOT/AOT_stimuli/rescaled_final/0066_fw.mp4	0.0	149.76307201385498	2.4921038150787354
21	124.61909794807434	pulse	1	t		19.0	2.5	/experiments/knapen_AOT/AOT_stimuli/rescaled_final/0066_fw.mp4	0.0	150.14711689949036	
21	126.21895289421082	pulse	1	t		19.0	2.5	/experiments/knapen_AOT/AOT_stimuli/rescaled_final/0066_fw.mp4	0.0	151.74697184562683	
21	126.7271568775177	fix_post	2		12	19.0	2.5	/experiments/knapen_AOT/AOT_stimuli/rescaled_final/0066_fw.mp4	0.0	152.25517582893372	0.0999610424041748
22	126.82711791992188	fix_pre	0		120	20.0	2.5	blank	1.0	152.3551368713379	1.0001649856567383
22	127.81925392150879	pulse	0	t		20.0	2.5	blank	1.0	153.3472728729248	
22	127.82728290557861	movie	1		301	20.0	2.5	blank	1.0	153.35530185699463	2.508690118789673
22	129.41930985450745	pulse	1	t		20.0	2.5	blank	1.0	154.94732880592346	
22	130.3359730243683	fix_post	2		12	20.0	2.5	blank	1.0	155.8639919757843	0.1000058650970459
23	130.43597888946533	fix_pre	0		120	21.0	2.5	/experiments/knapen_AOT/AOT_stimuli/rescaled_final/0303_fw.mp4	0.0	155.96399784088135	1.000143051147461
23	131.0195529460907	pulse	0	t		21.0	2.5	/experiments/knapen_AOT/AOT_stimuli/rescaled_final/0303_fw.mp4	0.0	156.5475718975067	
23	131.4361219406128	movie	1		244	21.0	2.5	/experiments/knapen_AOT/AOT_stimuli/rescaled_final/0303_fw.mp4	0.0	156.9641408920288	2.5003409385681152
23	132.6200659275055	pulse	1	t		21.0	2.5	/experiments/knapen_AOT/AOT_stimuli/rescaled_final/0303_fw.mp4	0.0	158.1480848789215	
23	133.9364628791809	fix_post	2		12	21.0	2.5	/experiments/knapen_AOT/AOT_stimuli/rescaled_final/0303_fw.mp4	0.0	159.46448183059692	0.10005402565002441
24	134.03651690483093	fix_pre	0		120	22.0	2.5	/experiments/knapen_AOT/AOT_stimuli/rescaled_final/1575_fw.mp4	0.0	159.56453585624695	1.0002360343933105
24	134.22013306617737	pulse	0	t		22.0	2.5	/experiments/knapen_AOT/AOT_stimuli/rescaled_final/1575_fw.mp4	0.0	159.74815201759338	
24	135.03675293922424	movie	1		244	22.0	2.5	/experiments/knapen_AOT/AOT_stimuli/rescaled_final/1575_fw.mp4	0.0	160.56477189064026	2.5003371238708496
24	135.82033896446228	pulse	1	t		22.0	2.5	/experiments/knapen_AOT/AOT_stimuli/rescaled_final/1575_fw.mp4	0.0	161.3483579158783	
24	137.420490026474	pulse	1	t		22.0	2.5	/experiments/knapen_AOT/AOT_stimuli/rescaled_final/1575_fw.mp4	0.0	162.94850897789001	
24	137.5370900630951	fix_post	2		12	22.0	2.5	/experiments/knapen_AOT/AOT_stimuli/rescaled_final/1575_fw.mp4	0.0	163.0651090145111	0.09996581077575684
25	137.63705587387085	fix_pre	0		120	23.0	2.5	/experiments/knapen_AOT/AOT_stimuli/rescaled_final/0132_fw.mp4	0.0	163.16507482528687	1.0001499652862549
25	138.6372058391571	movie	1		243	23.0	2.5	/experiments/knapen_AOT/AOT_stimuli/rescaled_final/0132_fw.mp4	0.0	164.16522479057312	2.4920241832733154
25	139.02197003364563	pulse	1	t		23.0	2.5	/experiments/knapen_AOT/AOT_stimuli/rescaled_final/0132_fw.mp4	0.0	164.54998898506165	
25	140.621111869812	pulse	1	t		23.0	2.5	/experiments/knapen_AOT/AOT_stimuli/rescaled_final/0132_fw.mp4	0.0	166.14913082122803	
25	141.12923002243042	fix_post	2		12	23.0	2.5	/experiments/knapen_AOT/AOT_stimuli/rescaled_final/0132_fw.mp4	0.0	166.65724897384644	0.10003185272216797
26	141.2292618751526	fix_pre	0		120	24.0	2.5	/experiments/knapen_AOT/AOT_stimuli/rescaled_final/0066_rv.mp4	0.0	166.7572808265686	1.0001389980316162
26	142.2213819026947	pulse	0	t		24.0	2.5	/experiments/knapen_AOT/AOT_stimuli/rescaled_final/0066_rv.mp4	0.0	167.74940085411072	
26	142.2294008731842	movie	1		246	24.0	2.5	/experiments/knapen_AOT/AOT_stimuli/rescaled_final/0066_rv.mp4	0.0	167.75741982460022	2.508754014968872
26	143.8222050666809	pulse	1	t		24.0	2.5	/experiments/knapen_AOT/AOT_stimuli/rescaled_final/0066_rv.mp4	0.0	169.35022401809692	
26	144.73815488815308	fix_post	2		12	24.0	2.5	/experiments/knapen_AOT/AOT_stimuli/rescaled_final/0066_rv.mp4	0.0	170.2661738395691	0.0999760627746582
27	144.83813095092773	fix_pre	0		120	25.0	2.5	/experiments/knapen_AOT/AOT_stimuli/rescaled_final/1231_fw.mp4	0.0	170.36614990234375	1.00018310546875
27	145.4217529296875	pulse	0	t		25.0	2.5	/experiments/knapen_AOT/AOT_stimuli/rescaled_final/1231_fw.mp4	0.0	170.94977188110352	
27	145.83831405639648	movie	1		244	25.0	2.5	/experiments/knapen_AOT/AOT_stimuli/rescaled_final/1231_fw.mp4	0.0	171.3663330078125	2.5003809928894043
27	147.02208590507507	pulse	1	t		25.0	2.5	/experiments/knapen_AOT/AOT_stimuli/rescaled_final/1231_fw.mp4	0.0	172.5501048564911	
27	148.3386950492859	fix_post	2		12	25.0	2.5	/experiments/knapen_AOT/AOT_stimuli/rescaled_final/1231_fw.mp4	0.0	173.8667140007019	0.09997081756591797
28	148.4386658668518	fix_pre	0		120	26.0	2.5	/experiments/knapen_AOT/AOT_stimuli/rescaled_final/1225_rv.mp4	0.0	173.96668481826782	1.0001611709594727
28	148.622230052948	pulse	0	t		26.0	2.5	/experiments/knapen_AOT/AOT_stimuli/rescaled_final/1225_rv.mp4	0.0	174.150249004364	
28	149.43882703781128	movie	1		244	26.0	2.5	/experiments/knapen_AOT/AOT_stimuli/rescaled_final/1225_rv.mp4	0.0	174.9668459892273	2.5003368854522705
28	150.22247004508972	pulse	1	t		26.0	2.5	/experiments/knapen_AOT/AOT_stimuli/rescaled_final/1225_rv.mp4	0.0	175.75048899650574	
28	151.82276391983032	pulse	1	t		26.0	2.5	/experiments/knapen_AOT/AOT_stimuli/rescaled_final/1225_rv.mp4	0.0	177.35078287124634	
28	151.93916392326355	fix_post	2		12	26.0	2.5	/experiments/knapen_AOT/AOT_stimuli/rescaled_final/1225_rv.mp4	0.0	177.46718287467957	0.10002803802490234
29	152.03919196128845	fix_pre	0		120	27.0	2.5	/experiments/knapen_AOT/AOT_stimuli/rescaled_final/2087_fw.mp4	0.0	177.56721091270447	1.0010790824890137
29	153.04027104377747	movie	1		239	27.0	2.5	/experiments/knapen_AOT/AOT_stimuli/rescaled_final/2087_fw.mp4	0.0	178.56828999519348	2.4911139011383057
29	153.42325687408447	pulse	1	t		27.0	2.5	/experiments/knapen_AOT/AOT_stimuli/rescaled_final/2087_fw.mp4	0.0	178.9512758255005	
29	155.02328395843506	pulse	1	t		27.0	2.5	/experiments/knapen_AOT/AOT_stimuli/rescaled_final/2087_fw.mp4	0.0	180.55130290985107	
29	155.53138494491577	fix_post	2		12	27.0	2.5	/experiments/knapen_AOT/AOT_stimuli/rescaled_final/2087_fw.mp4	0.0	181.0594038963318	0.10001897811889648
30	155.63140392303467	fix_pre	0		120	28.0	2.5	blank	1.0	181.15942287445068	1.0001649856567383
30	156.62345790863037	pulse	0	t		28.0	2.5	blank	1.0	182.1514768600464	
30	156.6315689086914	movie	1		301	28.0	2.5	blank	1.0	182.15958786010742	2.5087180137634277
30	158.21628284454346	pulse	1	t		28.0	2.5	blank	1.0	183.74430179595947	
30	159.14028692245483	fix_post	2		12	28.0	2.5	blank	1.0	184.66830587387085	0.09999895095825195
31	159.2402858734131	fix_pre	0		120	29.0	2.5	/experiments/knapen_AOT/AOT_stimuli/rescaled_final/1494_fw.mp4	0.0	184.7683048248291	1.0001499652862549
31	159.81634783744812	pulse	0	t		29.0	2.5	/experiments/knapen_AOT/AOT_stimuli/rescaled_final/1494_fw.mp4	0.0	185.34436678886414	
31	160.24043583869934	movie	1		245	29.0	2.5	/experiments/knapen_AOT/AOT_stimuli/rescaled_final/1494_fw.mp4	0.0	185.76845479011536	2.5003700256347656
31	161.41649389266968	pulse	1	t		29.0	2.5	/experiments/knapen_AOT/AOT_stimuli/rescaled_final/1494_fw.mp4	0.0	186.9445128440857	
31	162.7408058643341	fix_post	2		12	29.0	2.5	/experiments/knapen_AOT/AOT_stimuli/rescaled_final/1494_fw.mp4	0.0	188.26882481575012	0.10003519058227539
32	162.84084105491638	fix_pre	0		120	30.0	2.5	/experiments/knapen_AOT/AOT_stimuli/rescaled_final/2084_fw.mp4	0.0	188.3688600063324	1.0001637935638428
32	163.01690006256104	pulse	0	t		30.0	2.5	/experiments/knapen_AOT/AOT_stimuli/rescaled_final/2084_fw.mp4	0.0	188.54491901397705	
32	163.84100484848022	movie	1		243	30.0	2.5	/experiments/knapen_AOT/AOT_stimuli/rescaled_final/2084_fw.mp4	0.0	189.36902379989624	2.500317096710205
32	164.6171579360962	pulse	1	t		30.0	2.5	/experiments/knapen_AOT/AOT_stimuli/rescaled_final/2084_fw.mp4	0.0	190.1451768875122	
32	166.21658492088318	pulse	1	t		30.0	2.5	/experiments/knapen_AOT/AOT_stimuli/rescaled_final/2084_fw.mp4	0.0	191.7446038722992	
32	166.34132194519043	fix_post	2		12	30.0	2.5	/experiments/knapen_AOT/AOT_stimuli/rescaled_final/2084_fw.mp4	0.0	191.86934089660645	0.10001802444458008
33	166.441339969635	fix_pre	0		119	31.0	2.5	/experiments/knapen_AOT/AOT_stimuli/rescaled_final/1609_fw.mp4	0.0	191.96935892105103	0.9918069839477539
33	167.43314695358276	movie	1		244	31.0	2.5	/experiments/knapen_AOT/AOT_stimuli/rescaled_final/1609_fw.mp4	0.0	192.96116590499878	2.5004189014434814
33	167.81746983528137	pulse	1	t		31.0	2.5	/experiments/knapen_AOT/AOT_stimuli/rescaled_final/1609_fw.mp4	0.0	193.3454887866974	
33	169.4169478416443	pulse	1	t		31.0	2.5	/experiments/knapen_AOT/AOT_stimuli/rescaled_final/1609_fw.mp4	0.0	194.9449667930603	
33	169.93356585502625	fix_post	2		12	31.0	2.5	/experiments/knapen_AOT/AOT_stimuli/rescaled_final/1609_fw.mp4	0.0	195.46158480644226	0.09998416900634766
34	170.0335500240326	fix_pre	0		119	32.0	2.5	/experiments/knapen_AOT/AOT_stimuli/rescaled_final/1784_rv.mp4	0.0	195.5615689754486	0.9918060302734375
34	171.0173580646515	pulse	0	t		32.0	2.5	/experiments/knapen_AOT/AOT_stimuli/rescaled_final/1784_rv.mp4	0.0	196.5453770160675	
34	171.02535605430603	movie	1		245	32.0	2.5	/experiments/knapen_AOT/AOT_stimuli/rescaled_final/1784_rv.mp4	0.0	196.55337500572205	2.5087008476257324
34	172.61863589286804	pulse	1	t		32.0	2.5	/experiments/knapen_AOT/AOT_stimuli/rescaled_final/1784_rv.mp4	0.0	198.14665484428406	
34	173.53405690193176	fix_post	2		12	32.0	2.5	/experiments/knapen_AOT/AOT_stimuli/rescaled_final/1784_rv.mp4	0.0	199.06207585334778	0.10001397132873535
35	173.6340708732605	fix_pre	0		120	33.0	2.5	/experiments/knapen_AOT/AOT_stimuli/rescaled_final/0503_fw.mp4	0.0	199.1620898246765	1.0001749992370605
35	174.21770787239075	pulse	0	t		33.0	2.5	/experiments/knapen_AOT/AOT_stimuli/rescaled_final/0503_fw.mp4	0.0	199.74572682380676	
35	174.63424587249756	movie	1		245	33.0	2.5	/experiments/knapen_AOT/AOT_stimuli/rescaled_final/0503_fw.mp4	0.0	200.16226482391357	2.5003559589385986
35	175.818039894104	pulse	1	t		33.0	2.5	/experiments/knapen_AOT/AOT_stimuli/rescaled_final/0503_fw.mp4	0.0	201.34605884552002	
35	177.13460183143616	fix_post	2		12	33.0	2.5	/experiments/knapen_AOT/AOT_stimuli/rescaled_final/0503_fw.mp4	0.0	202.66262078285217	0.10003519058227539
36	177.23463702201843	fix_pre	0		120	34.0	2.5	blank	1.0	202.76265597343445	1.0001490116119385
36	177.4181809425354	pulse	0	t		34.0	2.5	blank	1.0	202.94619989395142	
36	178.23478603363037	movie	1		300	34.0	2.5	blank	1.0	203.7628049850464	2.500393867492676
36	179.0185089111328	pulse	1	t		34.0	2.5	blank	1.0	204.54652786254883	
36	180.61861491203308	pulse	1	t		34.0	2.5	blank	1.0	206.1466338634491	
36	180.73517990112305	fix_post	2		12	34.0	2.5	blank	1.0	206.26319885253906	0.09998512268066406
37	180.8351650238037	fix_pre	0		120	35.0	2.5	/experiments/knapen_AOT/AOT_stimuli/rescaled_final/2100_fw.mp4	0.0	206.36318397521973	1.0001819133758545
37	181.83534693717957	movie	1		244	35.0	2.5	/experiments/knapen_AOT/AOT_stimuli/rescaled_final/2100_fw.mp4	0.0	207.36336588859558	2.4919869899749756
37	182.2194209098816	pulse	1	t		35.0	2.5	/experiments/knapen_AOT/AOT_stimuli/rescaled_final/2100_fw.mp4	0.0	207.7474398612976	
37	183.81913995742798	pulse	1	t		35.0	2.5	/experiments/knapen_AOT/AOT_stimuli/rescaled_final/2100_fw.mp4	0.0	209.347158908844	
37	184.32733392715454	fix_post	2		12	35.0	2.5	/experiments/knapen_AOT/AOT_stimuli/rescaled_final/2100_fw.mp4	0.0	209.85535287857056	0.10002803802490234
38	184.42736196517944	fix_pre	0		120	36.0	2.5	/experiments/knapen_AOT/AOT_stimuli/rescaled_final/1610_rv.mp4	0.0	209.95538091659546	1.0001459121704102
38	185.41942501068115	pulse	0	t		36.0	2.5	/experiments/knapen_AOT/AOT_stimuli/rescaled_final/1610_rv.mp4	0.0	210.94744396209717	
38	185.42750787734985	movie	1		244	36.0	2.5	/experiments/knapen_AOT/AOT_stimuli/rescaled_final/1610_rv.mp4	0.0	210.95552682876587	2.508826971054077
38	187.02053689956665	pulse	1	t		36.0	2.5	/experiments/knapen_AOT/AOT_stimuli/rescaled_final/1610_rv.mp4	0.0	212.54855585098267	
38	187.93633484840393	fix_post	2		12	36.0	2.5	/experiments/knapen_AOT/AOT_stimuli/rescaled_final/1610_rv.mp4	0.0	213.46435379981995	0.09990620613098145
39	188.0362410545349	fix_pre	0		120	37.0	2.5	/experiments/knapen_AOT/AOT_stimuli/rescaled_final/0389_rv.mp4	0.0	213.56426000595093	1.0001578330993652
39	188.61992001533508	pulse	0	t		37.0	2.5	/experiments/knapen_AOT/AOT_stimuli/rescaled_final/0389_rv.mp4	0.0	214.1479389667511	
39	189.03639888763428	movie	1		245	37.0	2.5	/experiments/knapen_AOT/AOT_stimuli/rescaled_final/0389_rv.mp4	0.0	214.5644178390503	2.50040602684021
39	190.22018885612488	pulse	1	t		37.0	2.5	/experiments/knapen_AOT/AOT_stimuli/rescaled_final/0389_rv.mp4	0.0	215.7482078075409	
39	191.5368049144745	fix_post	2		12	37.0	2.5	/experiments/knapen_AOT/AOT_stimuli/rescaled_final/0389_rv.mp4	0.0	217.0648238658905	0.09996414184570312
40	191.6367690563202	fix_pre	0		120	38.0	2.5	/experiments/knapen_AOT/AOT_stimuli/rescaled_final/1399_rv.mp4	0.0	217.1647880077362	1.0001718997955322
40	191.8203408718109	pulse	0	t		38.0	2.5	/experiments/knapen_AOT/AOT_stimuli/rescaled_final/1399_rv.mp4	0.0	217.34835982322693	
40	192.63694095611572	movie	1		243	38.0	2.5	/experiments/knapen_AOT/AOT_stimuli/rescaled_final/1399_rv.mp4	0.0	218.16495990753174	2.5003559589385986
40	193.4205870628357	pulse	1	t		38.0	2.5	/experiments/knapen_AOT/AOT_stimuli/rescaled_final/1399_rv.mp4	0.0	218.9486060142517	
40	195.0244698524475	pulse	1	t		38.0	2.5	/experiments/knapen_AOT/AOT_stimuli/rescaled_final/1399_rv.mp4	0.0	220.55248880386353	
40	195.13729691505432	fix_post	2		12	38.0	2.5	/experiments/knapen_AOT/AOT_stimuli/rescaled_final/1399_rv.mp4	0.0	220.66531586647034	0.10003209114074707
41	195.23732900619507	fix_pre	0		120	39.0	2.5	/experiments/knapen_AOT/AOT_stimuli/rescaled_final/0094_rv.mp4	0.0	220.76534795761108	1.000128984451294
41	196.23745799064636	movie	1		242	39.0	2.5	/experiments/knapen_AOT/AOT_stimuli/rescaled_final/0094_rv.mp4	0.0	221.76547694206238	2.492013931274414
41	196.62198495864868	pulse	1	t		39.0	2.5	/experiments/knapen_AOT/AOT_stimuli/rescaled_final/0094_rv.mp4	0.0	222.1500039100647	
41	198.2213740348816	pulse	1	t		39.0	2.5	/experiments/knapen_AOT/AOT_stimuli/rescaled_final/0094_rv.mp4	0.0	223.7493929862976	
41	198.72947192192078	fix_post	2		12	39.0	2.5	/experiments/knapen_AOT/AOT_stimuli/rescaled_final/0094_rv.mp4	0.0	224.2574908733368	0.10008692741394043
42	198.82955884933472	fix_pre	0		120	40.0	2.5	/experiments/knapen_AOT/AOT_stimuli/rescaled_final/0076_fw.mp4	0.0	224.35757780075073	1.0001060962677002
42	199.82158088684082	pulse	0	t		40.0	2.5	/experiments/knapen_AOT/AOT_stimuli/rescaled_final/0076_fw.mp4	0.0	225.34959983825684	
42	199.82966494560242	movie	1		246	40.0	2.5	/experiments/knapen_AOT/AOT_stimuli/rescaled_final/0076_fw.mp4	0.0	225.35768389701843	2.5086960792541504
42	201.42256093025208	pulse	1	t		40.0	2.5	/experiments/knapen_AOT/AOT_stimuli/rescaled_final/0076_fw.mp4	0.0	226.9505798816681	
42	202.33836102485657	fix_post	2		12	40.0	2.5	/experiments/knapen_AOT/AOT_stimuli/rescaled_final/0076_fw.mp4	0.0	227.86637997627258	0.10002994537353516
43	202.4383909702301	fix_pre	0		120	41.0	2.5	blank	1.0	227.96640992164612	1.000143051147461
43	203.0221028327942	pulse	0	t		41.0	2.5	blank	1.0	228.5501217842102	
43	203.43853402137756	movie	1		300	41.0	2.5	blank	1.0	228.96655297279358	2.5004148483276367
43	204.62228894233704	pulse	1	t		41.0	2.5	blank	1.0	230.15030789375305	
43	205.9389488697052	fix_post	2		12	41.0	2.5	blank	1.0	231.46696782112122	0.10000014305114746
44	206.03894901275635	fix_pre	0		120	42.0	2.5	/experiments/knapen_AOT/AOT_stimuli/rescaled_final/1575_rv.mp4	0.0	231.56696796417236	1.0001139640808105
44	206.222580909729	pulse	0	t		42.0	2.5	/experiments/knapen_AOT/AOT_stimuli/rescaled_final/1575_rv.mp4	0.0	231.75059986114502	
44	207.03906297683716	movie	1		245	42.0	2.5	/experiments/knapen_AOT/AOT_stimuli/rescaled_final/1575_rv.mp4	0.0	232.56708192825317	2.5003578662872314
44	207.8228039741516	pulse	1	t		42.0	2.5	/experiments/knapen_AOT/AOT_stimuli/rescaled_final/1575_rv.mp4	0.0	233.35082292556763	
44	209.42046189308167	pulse	1	t		42.0	2.5	/experiments/knapen_AOT/AOT_stimuli/rescaled_final/1575_rv.mp4	0.0	234.94848084449768	
44	209.5394208431244	fix_post	2		12	42.0	2.5	/experiments/knapen_AOT/AOT_stimuli/rescaled_final/1575_rv.mp4	0.0	235.0674397945404	0.10007309913635254
45	209.63949394226074	fix_pre	0		120	43.0	2.5	/experiments/knapen_AOT/AOT_stimuli/rescaled_final/0973_fw.mp4	0.0	235.16751289367676	1.0001308917999268
45	210.63962483406067	movie	1		243	43.0	2.5	/experiments/knapen_AOT/AOT_stimuli/rescaled_final/0973_fw.mp4	0.0	236.16764378547668	2.4920871257781982
45	211.0239028930664	pulse	1	t		43.0	2.5	/experiments/knapen_AOT/AOT_stimuli/rescaled_final/0973_fw.mp4	0.0	236.55192184448242	
45	212.62345600128174	pulse	1	t		43.0	2.5	/experiments/knapen_AOT/AOT_stimuli/rescaled_final/0973_fw.mp4	0.0	238.15147495269775	
45	213.13171195983887	fix_post	2		12	43.0	2.5	/experiments/knapen_AOT/AOT_stimuli/rescaled_final/0973_fw.mp4	0.0	238.65973091125488	0.10025191307067871
46	213.23196387290955	fix_pre	0		117	44.0	2.5	/experiments/knapen_AOT/AOT_stimuli/rescaled_final/2016_fw.mp4	0.0	238.75998282432556	0.9998750686645508
46	214.22361302375793	pulse	0	t		44.0	2.5	/experiments/knapen_AOT/AOT_stimuli/rescaled_final/2016_fw.mp4	0.0	239.75163197517395	
46	214.2318389415741	movie	1		245	44.0	2.5	/experiments/knapen_AOT/AOT_stimuli/rescaled_final/2016_fw.mp4	0.0	239.7598578929901	2.5086989402770996
46	215.82444596290588	pulse	1	t		44.0	2.5	/experiments/knapen_AOT/AOT_stimuli/rescaled_final/2016_fw.mp4	0.0	241.3524649143219	
46	216.7405378818512	fix_post	2		12	44.0	2.5	/experiments/knapen_AOT/AOT_stimuli/rescaled_final/2016_fw.mp4	0.0	242.2685568332672	0.10004806518554688
47	216.84058594703674	fix_pre	0		120	45.0	2.5	/experiments/knapen_AOT/AOT_stimuli/rescaled_final/0705_rv.mp4	0.0	242.36860489845276	1.0001599788665771
47	217.42415285110474	pulse	0	t		45.0	2.5	/experiments/knapen_AOT/AOT_stimuli/rescaled_final/0705_rv.mp4	0.0	242.95217180252075	
47	217.84074592590332	movie	1		245	45.0	2.5	/experiments/knapen_AOT/AOT_stimuli/rescaled_final/0705_rv.mp4	0.0	243.36876487731934	2.500278949737549
47	219.0244438648224	pulse	1	t		45.0	2.5	/experiments/knapen_AOT/AOT_stimuli/rescaled_final/0705_rv.mp4	0.0	244.5524628162384	
47	220.34102487564087	fix_post	2		12	45.0	2.5	/experiments/knapen_AOT/AOT_stimuli/rescaled_final/0705_rv.mp4	0.0	245.86904382705688	0.10016202926635742
48	220.44118690490723	fix_pre	0		120	46.0	2.5	/experiments/knapen_AOT/AOT_stimuli/rescaled_final/0100_rv.mp4	0.0	245.96920585632324	1.000054121017456
48	220.61717796325684	pulse	0	t		46.0	2.5	/experiments/knapen_AOT/AOT_stimuli/rescaled_final/0100_rv.mp4	0.0	246.14519691467285	
48	221.44124102592468	movie	1		244	46.0	2.5	/experiments/knapen_AOT/AOT_stimuli/rescaled_final/0100_rv.mp4	0.0	246.9692599773407	2.500324010848999
48	222.21735000610352	pulse	1	t		46.0	2.5	/experiments/knapen_AOT/AOT_stimuli/rescaled_final/0100_rv.mp4	0.0	247.74536895751953	
48	223.82515287399292	pulse	1	t		46.0	2.5	/experiments/knapen_AOT/AOT_stimuli/rescaled_final/0100_rv.mp4	0.0	249.35317182540894	
48	223.94156503677368	fix_post	2		12	46.0	2.5	/experiments/knapen_AOT/AOT_stimuli/rescaled_final/0100_rv.mp4	0.0	249.4695839881897	0.10005784034729004
49	224.04162287712097	fix_pre	0		119	47.0	2.5	blank	1.0	249.569641828537	0.9918200969696045
49	225.03344297409058	movie	1		300	47.0	2.5	blank	1.0	250.5614619255066	2.5003840923309326
49	225.4177529811859	pulse	1	t		47.0	2.5	blank	1.0	250.94577193260193	
49	227.01731085777283	pulse	1	t		47.0	2.5	blank	1.0	252.54532980918884	
49	227.5338270664215	fix_post	2		12	47.0	2.5	blank	1.0	253.06184601783752	0.10005784034729004
50	227.6338849067688	fix_pre	0		119	48.0	2.5	/experiments/knapen_AOT/AOT_stimuli/rescaled_final/0610_rv.mp4	0.0	253.16190385818481	0.9917409420013428
50	228.61744689941406	pulse	0	t		48.0	2.5	/experiments/knapen_AOT/AOT_stimuli/rescaled_final/0610_rv.mp4	0.0	254.14546585083008	
50	228.62562584877014	movie	1		245	48.0	2.5	/experiments/knapen_AOT/AOT_stimuli/rescaled_final/0610_rv.mp4	0.0	254.15364480018616	2.508697986602783
50	230.21825098991394	pulse	1	t		48.0	2.5	/experiments/knapen_AOT/AOT_stimuli/rescaled_final/0610_rv.mp4	0.0	255.74626994132996	
50	231.13432383537292	fix_post	2		12	48.0	2.5	/experiments/knapen_AOT/AOT_stimuli/rescaled_final/0610_rv.mp4	0.0	256.66234278678894	0.10001921653747559
51	231.2343430519104	fix_pre	0		120	49.0	2.5	/experiments/knapen_AOT/AOT_stimuli/rescaled_final/0990_rv.mp4	0.0	256.7623620033264	1.0001819133758545
51	231.8180010318756	pulse	0	t		49.0	2.5	/experiments/knapen_AOT/AOT_stimuli/rescaled_final/0990_rv.mp4	0.0	257.3460199832916	
51	232.23452496528625	movie	1		244	49.0	2.5	/experiments/knapen_AOT/AOT_stimuli/rescaled_final/0990_rv.mp4	0.0	257.76254391670227	2.5003609657287598
51	233.41832304000854	pulse	1	t		49.0	2.5	/experiments/knapen_AOT/AOT_stimuli/rescaled_final/0990_rv.mp4	0.0	258.94634199142456	
51	234.73488593101501	fix_post	2		12	49.0	2.5	/experiments/knapen_AOT/AOT_stimuli/rescaled_final/0990_rv.mp4	0.0	260.26290488243103	0.0999910831451416
52	234.83487701416016	fix_pre	0		120	50.0	2.5	/experiments/knapen_AOT/AOT_stimuli/rescaled_final/1149_fw.mp4	0.0	260.3628959655762	1.0002219676971436
52	235.01855397224426	pulse	0	t		50.0	2.5	/experiments/knapen_AOT/AOT_stimuli/rescaled_final/1149_fw.mp4	0.0	260.5465729236603	
52	235.8350989818573	movie	1		244	50.0	2.5	/experiments/knapen_AOT/AOT_stimuli/rescaled_final/1149_fw.mp4	0.0	261.3631179332733	2.50032901763916
52	236.6187059879303	pulse	1	t		50.0	2.5	/experiments/knapen_AOT/AOT_stimuli/rescaled_final/1149_fw.mp4	0.0	262.1467249393463	
52	238.22031784057617	pulse	1	t		50.0	2.5	/experiments/knapen_AOT/AOT_stimuli/rescaled_final/1149_fw.mp4	0.0	263.7483367919922	
52	238.33542799949646	fix_post	2		12	50.0	2.5	/experiments/knapen_AOT/AOT_stimuli/rescaled_final/1149_fw.mp4	0.0	263.8634469509125	0.09998488426208496
53	238.43541288375854	fix_pre	0		119	51.0	2.5	/experiments/knapen_AOT/AOT_stimuli/rescaled_final/0039_rv.mp4	0.0	263.96343183517456	0.9919071197509766
53	239.42732000350952	movie	1		245	51.0	2.5	/experiments/knapen_AOT/AOT_stimuli/rescaled_final/0039_rv.mp4	0.0	264.95533895492554	2.5003879070281982
53	239.81925797462463	pulse	1	t		51.0	2.5	/experiments/knapen_AOT/AOT_stimuli/rescaled_final/0039_rv.mp4	0.0	265.34727692604065	
53	241.41944193840027	pulse	1	t		51.0	2.5	/experiments/knapen_AOT/AOT_stimuli/rescaled_final/0039_rv.mp4	0.0	266.9474608898163	
53	241.92770791053772	fix_post	2		12	51.0	2.5	/experiments/knapen_AOT/AOT_stimuli/rescaled_final/0039_rv.mp4	0.0	267.45572686195374	0.09991097450256348
54	242.02761888504028	fix_pre	0		120	52.0	2.5	/experiments/knapen_AOT/AOT_stimuli/rescaled_final/0401_fw.mp4	0.0	267.5556378364563	1.0001871585845947
54	243.01961398124695	pulse	0	t		52.0	2.5	/experiments/knapen_AOT/AOT_stimuli/rescaled_final/0401_fw.mp4	0.0	268.54763293266296	
54	243.02780604362488	movie	1		246	52.0	2.5	/experiments/knapen_AOT/AOT_stimuli/rescaled_final/0401_fw.mp4	0.0	268.5558249950409	2.5086419582366943
54	244.62023901939392	pulse	1	t		52.0	2.5	/experiments/knapen_AOT/AOT_stimuli/rescaled_final/0401_fw.mp4	0.0	270.14825797080994	
54	245.53644800186157	fix_post	2		12	52.0	2.5	/experiments/knapen_AOT/AOT_stimuli/rescaled_final/0401_fw.mp4	0.0	271.0644669532776	0.10002303123474121
55	245.6364710330963	fix_pre	0		120	53.0	2.5	/experiments/knapen_AOT/AOT_stimuli/rescaled_final/1559_fw.mp4	0.0	271.16448998451233	1.0002620220184326
55	246.22022986412048	pulse	0	t		53.0	2.5	/experiments/knapen_AOT/AOT_stimuli/rescaled_final/1559_fw.mp4	0.0	271.7482488155365	
55	246.63673305511475	movie	1		244	53.0	2.5	/experiments/knapen_AOT/AOT_stimuli/rescaled_final/1559_fw.mp4	0.0	272.16475200653076	2.5002808570861816
55	247.82044196128845	pulse	1	t		53.0	2.5	/experiments/knapen_AOT/AOT_stimuli/rescaled_final/1559_fw.mp4	0.0	273.34846091270447	
55	249.13701391220093	fix_post	2		12	53.0	2.5	/experiments/knapen_AOT/AOT_stimuli/rescaled_final/1559_fw.mp4	0.0	274.66503286361694	0.10000395774841309
56	249.23701786994934	fix_pre	0		120	54.0	2.5	/experiments/knapen_AOT/AOT_stimuli/rescaled_final/0066_rv.mp4	0.0	274.76503682136536	1.0001580715179443
56	249.4206349849701	pulse	0	t		54.0	2.5	/experiments/knapen_AOT/AOT_stimuli/rescaled_final/0066_rv.mp4	0.0	274.9486539363861	
56	250.23717594146729	movie	1		244	54.0	2.5	/experiments/knapen_AOT/AOT_stimuli/rescaled_final/0066_rv.mp4	0.0	275.7651948928833	2.5003840923309326
56	251.02085089683533	pulse	1	t		54.0	2.5	/experiments/knapen_AOT/AOT_stimuli/rescaled_final/0066_rv.mp4	0.0	276.54886984825134	
56	252.62114191055298	pulse	1	t		54.0	2.5	/experiments/knapen_AOT/AOT_stimuli/rescaled_final/0066_rv.mp4	0.0	278.149160861969	
56	252.73756003379822	fix_post	2		12	54.0	2.5	/experiments/knapen_AOT/AOT_stimuli/rescaled_final/0066_rv.mp4	0.0	278.26557898521423	0.09999895095825195
57	252.83755898475647	fix_pre	0		119	55.0	2.5	blank	1.0	278.3655779361725	0.9918279647827148
57	253.82938694953918	movie	1		300	55.0	2.5	blank	1.0	279.3574059009552	2.5003719329833984
57	254.2213649749756	pulse	1	t		55.0	2.5	blank	1.0	279.7493839263916	
57	255.82153701782227	pulse	1	t		55.0	2.5	blank	1.0	281.3495559692383	
57	256.3297588825226	fix_post	2		12	55.0	2.5	blank	1.0	281.8577778339386	0.10001802444458008
58	256.42977690696716	fix_pre	0		120	56.0	2.5	/experiments/knapen_AOT/AOT_stimuli/rescaled_final/1784_rv.mp4	0.0	281.9577958583832	1.000154972076416
58	257.42178106307983	pulse	0	t		56.0	2.5	/experiments/knapen_AOT/AOT_stimuli/rescaled_final/1784_rv.mp4	0.0	282.94980001449585	
58	257.4299318790436	movie	1		245	56.0	2.5	/experiments/knapen_AOT/AOT_stimuli/rescaled_final/1784_rv.mp4	0.0	282.9579508304596	2.5086870193481445
58	259.02244091033936	pulse	1	t		56.0	2.5	/experiments/knapen_AOT/AOT_stimuli/rescaled_final/1784_rv.mp4	0.0	284.55045986175537	
58	259.9386188983917	fix_post	2		12	56.0	2.5	/experiments/knapen_AOT/AOT_stimuli/rescaled_final/1784_rv.mp4	0.0	285.46663784980774	0.10001993179321289
59	260.03863883018494	fix_pre	0		120	57.0	2.5	/experiments/knapen_AOT/AOT_stimuli/rescaled_final/0090_rv.mp4	0.0	285.56665778160095	1.0002410411834717
59	260.6223928928375	pulse	0	t		57.0	2.5	/experiments/knapen_AOT/AOT_stimuli/rescaled_final/0090_rv.mp4	0.0	286.15041184425354	
59	261.0388798713684	movie	1		246	57.0	2.5	/experiments/knapen_AOT/AOT_stimuli/rescaled_final/0090_rv.mp4	0.0	286.5668988227844	2.5003440380096436
59	262.22271394729614	pulse	1	t		57.0	2.5	/experiments/knapen_AOT/AOT_stimuli/rescaled_final/0090_rv.mp4	0.0	287.75073289871216	
59	263.53922390937805	fix_post	2		12	57.0	2.5	/experiments/knapen_AOT/AOT_stimuli/rescaled_final/0090_rv.mp4	0.0	289.06724286079407	0.09998607635498047
60	263.63920998573303	fix_pre	0		120	58.0	2.5	/experiments/knapen_AOT/AOT_stimuli/rescaled_final/2100_rv.mp4	0.0	289.16722893714905	1.0001280307769775
60	263.8227188587189	pulse	0	t		58.0	2.5	/experiments/knapen_AOT/AOT_stimuli/rescaled_final/2100_rv.mp4	0.0	289.3507378101349	
60	264.63933801651	movie	1		245	58.0	2.5	/experiments/knapen_AOT/AOT_stimuli/rescaled_final/2100_rv.mp4	0.0	290.167356967926	2.5003859996795654
60	265.4230799674988	pulse	1	t		58.0	2.5	/experiments/knapen_AOT/AOT_stimuli/rescaled_final/2100_rv.mp4	0.0	290.9510989189148	
60	267.0206718444824	pulse	1	t		58.0	2.5	/experiments/knapen_AOT/AOT_stimuli/rescaled_final/2100_rv.mp4	0.0	292.54869079589844	
60	267.1397240161896	fix_post	2		12	58.0	2.5	/experiments/knapen_AOT/AOT_stimuli/rescaled_final/2100_rv.mp4	0.0	292.6677429676056	0.09999704360961914
61	267.2397210597992	fix_pre	0		120	59.0	2.5	/experiments/knapen_AOT/AOT_stimuli/rescaled_final/1401_rv.mp4	0.0	292.7677400112152	1.0001988410949707
61	268.23991990089417	movie	1		243	59.0	2.5	/experiments/knapen_AOT/AOT_stimuli/rescaled_final/1401_rv.mp4	0.0	293.7679388523102	2.492017984390259
61	268.627965927124	pulse	1	t		59.0	2.5	/experiments/knapen_AOT/AOT_stimuli/rescaled_final/1401_rv.mp4	0.0	294.15598487854004	
61	270.2236909866333	pulse	1	t		59.0	2.5	/experiments/knapen_AOT/AOT_stimuli/rescaled_final/1401_rv.mp4	0.0	295.7517099380493	
61	270.7319378852844	fix_post	2		12	59.0	2.5	/experiments/knapen_AOT/AOT_stimuli/rescaled_final/1401_rv.mp4	0.0	296.25995683670044	0.10008597373962402
62	270.83202385902405	fix_pre	0		120	60.0	2.5	/experiments/knapen_AOT/AOT_stimuli/rescaled_final/0115_fw.mp4	0.0	296.36004281044006	1.0000619888305664
62	271.8239300251007	pulse	0	t		60.0	2.5	/experiments/knapen_AOT/AOT_stimuli/rescaled_final/0115_fw.mp4	0.0	297.3519489765167	
62	271.8320858478546	movie	1		247	60.0	2.5	/experiments/knapen_AOT/AOT_stimuli/rescaled_final/0115_fw.mp4	0.0	297.36010479927063	2.508690118789673
62	273.4261009693146	pulse	1	t		60.0	2.5	/experiments/knapen_AOT/AOT_stimuli/rescaled_final/0115_fw.mp4	0.0	298.9541199207306	
62	274.3407759666443	fix_post	2		12	60.0	2.5	/experiments/knapen_AOT/AOT_stimuli/rescaled_final/0115_fw.mp4	0.0	299.8687949180603	0.10000491142272949
63	274.440780878067	fix_pre	0		120	61.0	2.5	blank	1.0	299.96879982948303	1.0001411437988281
63	275.01690196990967	pulse	0	t		61.0	2.5	blank	1.0	300.5449209213257	
63	275.44092202186584	movie	1		300	61.0	2.5	blank	1.0	300.96894097328186	2.5042219161987305
63	276.6172049045563	pulse	1	t		61.0	2.5	blank	1.0	302.1452238559723	
63	277.9451439380646	fix_post	2		10	61.0	2.5	blank	1.0	303.4731628894806	0.09620499610900879
64	278.0413489341736	fix_pre	0		120	62.0	2.5	/experiments/knapen_AOT/AOT_stimuli/rescaled_final/0014_fw.mp4	0.0	303.5693678855896	1.0001320838928223
64	278.2173478603363	pulse	0	t		62.0	2.5	/experiments/knapen_AOT/AOT_stimuli/rescaled_final/0014_fw.mp4	0.0	303.7453668117523	
64	279.0414810180664	movie	1		245	62.0	2.5	/experiments/knapen_AOT/AOT_stimuli/rescaled_final/0014_fw.mp4	0.0	304.5694999694824	2.500337839126587
64	279.8168468475342	pulse	1	t		62.0	2.5	/experiments/knapen_AOT/AOT_stimuli/rescaled_final/0014_fw.mp4	0.0	305.3448657989502	
64	281.4170038700104	pulse	1	t		62.0	2.5	/experiments/knapen_AOT/AOT_stimuli/rescaled_final/0014_fw.mp4	0.0	306.9450228214264	
64	281.541818857193	fix_post	2		12	62.0	2.5	/experiments/knapen_AOT/AOT_stimuli/rescaled_final/0014_fw.mp4	0.0	307.069837808609	0.10011506080627441
65	281.64193391799927	fix_pre	0		120	63.0	2.5	/experiments/knapen_AOT/AOT_stimuli/rescaled_final/1237_rv.mp4	0.0	307.1699528694153	1.0001111030578613
65	282.64204502105713	movie	1		243	63.0	2.5	/experiments/knapen_AOT/AOT_stimuli/rescaled_final/1237_rv.mp4	0.0	308.17006397247314	2.4920008182525635
65	283.01736998558044	pulse	1	t		63.0	2.5	/experiments/knapen_AOT/AOT_stimuli/rescaled_final/1237_rv.mp4	0.0	308.54538893699646	
65	284.61764788627625	pulse	1	t		63.0	2.5	/experiments/knapen_AOT/AOT_stimuli/rescaled_final/1237_rv.mp4	0.0	310.14566683769226	
65	285.1340458393097	fix_post	2		12	63.0	2.5	/experiments/knapen_AOT/AOT_stimuli/rescaled_final/1237_rv.mp4	0.0	310.6620647907257	0.10002517700195312
66	285.23407101631165	fix_pre	0		119	64.0	2.5	/experiments/knapen_AOT/AOT_stimuli/rescaled_final/0680_rv.mp4	0.0	310.76208996772766	0.9918169975280762
66	286.2177269458771	pulse	0	t		64.0	2.5	/experiments/knapen_AOT/AOT_stimuli/rescaled_final/0680_rv.mp4	0.0	311.7457458972931	
66	286.2258880138397	movie	1		244	64.0	2.5	/experiments/knapen_AOT/AOT_stimuli/rescaled_final/0680_rv.mp4	0.0	311.75390696525574	2.5086638927459717
66	287.8186810016632	pulse	1	t		64.0	2.5	/experiments/knapen_AOT/AOT_stimuli/rescaled_final/0680_rv.mp4	0.0	313.3466999530792	
66	288.7345519065857	fix_post	2		12	64.0	2.5	/experiments/knapen_AOT/AOT_stimuli/rescaled_final/0680_rv.mp4	0.0	314.2625708580017	0.10014700889587402
67	288.83469891548157	fix_pre	0		120	65.0	2.5	/experiments/knapen_AOT/AOT_stimuli/rescaled_final/2147_rv.mp4	0.0	314.3627178668976	1.0000970363616943
67	289.41824197769165	pulse	0	t		65.0	2.5	/experiments/knapen_AOT/AOT_stimuli/rescaled_final/2147_rv.mp4	0.0	314.94626092910767	
67	289.83479595184326	movie	1		246	65.0	2.5	/experiments/knapen_AOT/AOT_stimuli/rescaled_final/2147_rv.mp4	0.0	315.3628149032593	2.5004169940948486
67	291.0185308456421	pulse	1	t		65.0	2.5	/experiments/knapen_AOT/AOT_stimuli/rescaled_final/2147_rv.mp4	0.0	316.5465497970581	
67	292.3352129459381	fix_post	2		12	65.0	2.5	/experiments/knapen_AOT/AOT_stimuli/rescaled_final/2147_rv.mp4	0.0	317.8632318973541	0.09990906715393066
68	292.43512201309204	fix_pre	0		120	66.0	2.5	/experiments/knapen_AOT/AOT_stimuli/rescaled_final/0112_rv.mp4	0.0	317.96314096450806	1.0001928806304932
68	292.61867785453796	pulse	0	t		66.0	2.5	/experiments/knapen_AOT/AOT_stimuli/rescaled_final/0112_rv.mp4	0.0	318.146696805954	
68	293.43531489372253	movie	1		245	66.0	2.5	/experiments/knapen_AOT/AOT_stimuli/rescaled_final/0112_rv.mp4	0.0	318.96333384513855	2.500349998474121
68	294.2190010547638	pulse	1	t		66.0	2.5	/experiments/knapen_AOT/AOT_stimuli/rescaled_final/0112_rv.mp4	0.0	319.7470200061798	
68	295.81708884239197	pulse	1	t		66.0	2.5	/experiments/knapen_AOT/AOT_stimuli/rescaled_final/0112_rv.mp4	0.0	321.345107793808	
68	295.93566489219666	fix_post	2		12	66.0	2.5	/experiments/knapen_AOT/AOT_stimuli/rescaled_final/0112_rv.mp4	0.0	321.46368384361267	0.09998798370361328
69	296.03565287590027	fix_pre	0		120	67.0	2.5	/experiments/knapen_AOT/AOT_stimuli/rescaled_final/1744_fw.mp4	0.0	321.5636718273163	1.000190019607544
69	297.0358428955078	movie	1		243	67.0	2.5	/experiments/knapen_AOT/AOT_stimuli/rescaled_final/1744_fw.mp4	0.0	322.5638618469238	2.4920411109924316
69	297.4199709892273	pulse	1	t		67.0	2.5	/experiments/knapen_AOT/AOT_stimuli/rescaled_final/1744_fw.mp4	0.0	322.9479899406433	
69	299.01969385147095	pulse	1	t		67.0	2.5	/experiments/knapen_AOT/AOT_stimuli/rescaled_final/1744_fw.mp4	0.0	324.54771280288696	
69	299.52788400650024	fix_post	2		12	67.0	2.5	/experiments/knapen_AOT/AOT_stimuli/rescaled_final/1744_fw.mp4	0.0	325.05590295791626	0.09995889663696289
70	299.6278429031372	fix_pre	0		120	68.0	2.5	/experiments/knapen_AOT/AOT_stimuli/rescaled_final/1510_rv.mp4	0.0	325.1558618545532	1.0002031326293945
70	300.6200180053711	pulse	0	t		68.0	2.5	/experiments/knapen_AOT/AOT_stimuli/rescaled_final/1510_rv.mp4	0.0	326.1480369567871	
70	300.6280460357666	movie	1		244	68.0	2.5	/experiments/knapen_AOT/AOT_stimuli/rescaled_final/1510_rv.mp4	0.0	326.1560649871826	2.508786916732788
70	302.22073197364807	pulse	1	t		68.0	2.5	/experiments/knapen_AOT/AOT_stimuli/rescaled_final/1510_rv.mp4	0.0	327.7487509250641	
70	303.1368329524994	fix_post	2		12	68.0	2.5	/experiments/knapen_AOT/AOT_stimuli/rescaled_final/1510_rv.mp4	0.0	328.6648519039154	0.10007405281066895
71	303.23690700531006	fix_pre	0		120	69.0	2.5	blank	1.0	328.7649259567261	1.0000219345092773
71	303.82037591934204	pulse	0	t		69.0	2.5	blank	1.0	329.34839487075806	
71	304.23692893981934	movie	1		300	69.0	2.5	blank	1.0	329.76494789123535	2.5003490447998047
71	305.4205949306488	pulse	1	t		69.0	2.5	blank	1.0	330.9486138820648	
71	306.73727798461914	fix_post	2		12	69.0	2.5	blank	1.0	332.26529693603516	0.10003805160522461
72	306.83731603622437	fix_pre	0		120	70.0	2.5	/experiments/knapen_AOT/AOT_stimuli/rescaled_final/0019_fw.mp4	0.0	332.3653349876404	1.0001039505004883
72	307.02093505859375	pulse	0	t		70.0	2.5	/experiments/knapen_AOT/AOT_stimuli/rescaled_final/0019_fw.mp4	0.0	332.54895401000977	
72	307.83741998672485	movie	1		246	70.0	2.5	/experiments/knapen_AOT/AOT_stimuli/rescaled_final/0019_fw.mp4	0.0	333.36543893814087	2.5004239082336426
72	308.6212239265442	pulse	1	t		70.0	2.5	/experiments/knapen_AOT/AOT_stimuli/rescaled_final/0019_fw.mp4	0.0	334.1492428779602	
72	310.2214398384094	pulse	1	t		70.0	2.5	/experiments/knapen_AOT/AOT_stimuli/rescaled_final/0019_fw.mp4	0.0	335.74945878982544	
72	310.3378438949585	fix_post	2		12	70.0	2.5	/experiments/knapen_AOT/AOT_stimuli/rescaled_final/0019_fw.mp4	0.0	335.8658628463745	0.1000521183013916
73	310.4378960132599	fix_pre	0		120	71.0	2.5	/experiments/knapen_AOT/AOT_stimuli/rescaled_final/1441_fw.mp4	0.0	335.9659149646759	1.0000948905944824
73	311.43799090385437	movie	1		243	71.0	2.5	/experiments/knapen_AOT/AOT_stimuli/rescaled_final/1441_fw.mp4	0.0	336.9660098552704	2.4920570850372314
73	311.82277488708496	pulse	1	t		71.0	2.5	/experiments/knapen_AOT/AOT_stimuli/rescaled_final/1441_fw.mp4	0.0	337.350793838501	
73	313.4219968318939	pulse	1	t		71.0	2.5	/experiments/knapen_AOT/AOT_stimuli/rescaled_final/1441_fw.mp4	0.0	338.95001578330994	
73	313.9300479888916	fix_post	2		12	71.0	2.5	/experiments/knapen_AOT/AOT_stimuli/rescaled_final/1441_fw.mp4	0.0	339.4580669403076	0.09996199607849121
74	314.0300099849701	fix_pre	0		120	72.0	2.5	/experiments/knapen_AOT/AOT_stimuli/rescaled_final/1261_fw.mp4	0.0	339.5580289363861	1.0001640319824219
74	315.02214789390564	pulse	0	t		72.0	2.5	/experiments/knapen_AOT/AOT_stimuli/rescaled_final/1261_fw.mp4	0.0	340.55016684532166	
74	315.0301740169525	movie	1		245	72.0	2.5	/experiments/knapen_AOT/AOT_stimuli/rescaled_final/1261_fw.mp4	0.0	340.55819296836853	2.5087509155273438
74	316.6227779388428	pulse	1	t		72.0	2.5	/experiments/knapen_AOT/AOT_stimuli/rescaled_final/1261_fw.mp4	0.0	342.1507968902588	
74	317.53892493247986	fix_post	2		12	72.0	2.5	/experiments/knapen_AOT/AOT_stimuli/rescaled_final/1261_fw.mp4	0.0	343.0669438838959	0.10000896453857422
75	317.63893389701843	fix_pre	0		120	73.0	2.5	/experiments/knapen_AOT/AOT_stimuli/rescaled_final/1475_rv.mp4	0.0	343.16695284843445	1.0001471042633057
75	318.222580909729	pulse	0	t		73.0	2.5	/experiments/knapen_AOT/AOT_stimuli/rescaled_final/1475_rv.mp4	0.0	343.750599861145	
75	318.63908100128174	movie	1		245	73.0	2.5	/experiments/knapen_AOT/AOT_stimuli/rescaled_final/1475_rv.mp4	0.0	344.16709995269775	2.5003139972686768
75	319.82288694381714	pulse	1	t		73.0	2.5	/experiments/knapen_AOT/AOT_stimuli/rescaled_final/1475_rv.mp4	0.0	345.35090589523315	
75	321.1393949985504	fix_post	2		12	73.0	2.5	/experiments/knapen_AOT/AOT_stimuli/rescaled_final/1475_rv.mp4	0.0	346.66741394996643	0.10001802444458008
76	321.239413022995	fix_pre	0		120	74.0	2.5	/experiments/knapen_AOT/AOT_stimuli/rescaled_final/1272_rv.mp4	0.0	346.767431974411	1.0002598762512207
76	321.42312693595886	pulse	0	t		74.0	2.5	/experiments/knapen_AOT/AOT_stimuli/rescaled_final/1272_rv.mp4	0.0	346.9511458873749	
76	322.2396728992462	movie	1		247	74.0	2.5	/experiments/knapen_AOT/AOT_stimuli/rescaled_final/1272_rv.mp4	0.0	347.76769185066223	2.500251054763794
76	323.0232570171356	pulse	1	t		74.0	2.5	/experiments/knapen_AOT/AOT_stimuli/rescaled_final/1272_rv.mp4	0.0	348.55127596855164	
76	324.6234538555145	pulse	1	t		74.0	2.5	/experiments/knapen_AOT/AOT_stimuli/rescaled_final/1272_rv.mp4	0.0	350.15147280693054	
76	324.73992395401	fix_post	2		12	74.0	2.5	/experiments/knapen_AOT/AOT_stimuli/rescaled_final/1272_rv.mp4	0.0	350.267942905426	0.10004401206970215
77	324.8399679660797	fix_pre	0		120	75.0	2.5	/experiments/knapen_AOT/AOT_stimuli/rescaled_final/0610_fw.mp4	0.0	350.3679869174957	1.0001740455627441
77	325.84014201164246	movie	1		243	75.0	2.5	/experiments/knapen_AOT/AOT_stimuli/rescaled_final/0610_fw.mp4	0.0	351.3681609630585	2.4919939041137695
77	326.2240538597107	pulse	1	t		75.0	2.5	/experiments/knapen_AOT/AOT_stimuli/rescaled_final/0610_fw.mp4	0.0	351.7520728111267	
77	327.8167369365692	pulse	1	t		75.0	2.5	/experiments/knapen_AOT/AOT_stimuli/rescaled_final/0610_fw.mp4	0.0	353.34475588798523	
77	328.3321359157562	fix_post	2		12	75.0	2.5	/experiments/knapen_AOT/AOT_stimuli/rescaled_final/0610_fw.mp4	0.0	353.86015486717224	0.10003399848937988
78	328.4321699142456	fix_pre	0		120	76.0	2.5	blank	1.0	353.9601888656616	1.0001649856567383
78	329.41668605804443	pulse	0	t		76.0	2.5	blank	1.0	354.94470500946045	
78	329.43233489990234	movie	1		301	76.0	2.5	blank	1.0	354.96035385131836	2.5086891651153564
78	331.0170109272003	pulse	1	t		76.0	2.5	blank	1.0	356.54502987861633	
78	331.9410240650177	fix_post	2		12	76.0	2.5	blank	1.0	357.4690430164337	0.10001587867736816
79	332.04103994369507	fix_pre	0		120	77.0	2.5	/experiments/knapen_AOT/AOT_stimuli/rescaled_final/1667_rv.mp4	0.0	357.5690588951111	1.0002100467681885
79	332.6170949935913	pulse	0	t		77.0	2.5	/experiments/knapen_AOT/AOT_stimuli/rescaled_final/1667_rv.mp4	0.0	358.1451139450073	
79	333.04124999046326	movie	1		245	77.0	2.5	/experiments/knapen_AOT/AOT_stimuli/rescaled_final/1667_rv.mp4	0.0	358.5692689418793	2.500337839126587
79	334.2170958518982	pulse	1	t		77.0	2.5	/experiments/knapen_AOT/AOT_stimuli/rescaled_final/1667_rv.mp4	0.0	359.7451148033142	
79	335.54158782958984	fix_post	2		9	77.0	2.5	/experiments/knapen_AOT/AOT_stimuli/rescaled_final/1667_rv.mp4	0.0	361.06960678100586	0.10002422332763672
80	335.6416120529175	fix_pre	0		120	78.0	2.5	/experiments/knapen_AOT/AOT_stimuli/rescaled_final/1618_rv.mp4	0.0	361.1696310043335	1.000091791152954
80	335.8167860507965	pulse	0	t		78.0	2.5	/experiments/knapen_AOT/AOT_stimuli/rescaled_final/1618_rv.mp4	0.0	361.3448050022125	
80	336.64170384407043	movie	1		248	78.0	2.5	/experiments/knapen_AOT/AOT_stimuli/rescaled_final/1618_rv.mp4	0.0	362.16972279548645	2.5005061626434326
80	337.41718006134033	pulse	1	t		78.0	2.5	/experiments/knapen_AOT/AOT_stimuli/rescaled_final/1618_rv.mp4	0.0	362.94519901275635	
80	339.0174059867859	pulse	1	t		78.0	2.5	/experiments/knapen_AOT/AOT_stimuli/rescaled_final/1618_rv.mp4	0.0	364.5454249382019	
80	339.14221000671387	fix_post	2		12	78.0	2.5	/experiments/knapen_AOT/AOT_stimuli/rescaled_final/1618_rv.mp4	0.0	364.6702289581299	0.09992003440856934
81	339.24213004112244	fix_pre	0		120	79.0	2.5	/experiments/knapen_AOT/AOT_stimuli/rescaled_final/1600_rv.mp4	0.0	364.77014899253845	1.0001230239868164
81	340.24225306510925	movie	1		245	79.0	2.5	/experiments/knapen_AOT/AOT_stimuli/rescaled_final/1600_rv.mp4	0.0	365.77027201652527	2.492083787918091
81	340.6175549030304	pulse	1	t		79.0	2.5	/experiments/knapen_AOT/AOT_stimuli/rescaled_final/1600_rv.mp4	0.0	366.1455738544464	
81	342.21782398223877	pulse	1	t		79.0	2.5	/experiments/knapen_AOT/AOT_stimuli/rescaled_final/1600_rv.mp4	0.0	367.7458429336548	
81	342.73433685302734	fix_post	2		12	79.0	2.5	/experiments/knapen_AOT/AOT_stimuli/rescaled_final/1600_rv.mp4	0.0	368.26235580444336	0.1000220775604248
82	342.83435893058777	fix_pre	0		119	80.0	2.5	/experiments/knapen_AOT/AOT_stimuli/rescaled_final/1608_fw.mp4	0.0	368.3623778820038	0.9917681217193604
82	343.81801295280457	pulse	0	t		80.0	2.5	/experiments/knapen_AOT/AOT_stimuli/rescaled_final/1608_fw.mp4	0.0	369.3460319042206	
82	343.82612705230713	movie	1		250	80.0	2.5	/experiments/knapen_AOT/AOT_stimuli/rescaled_final/1608_fw.mp4	0.0	369.35414600372314	2.5087778568267822
82	345.41858983039856	pulse	1	t		80.0	2.5	/experiments/knapen_AOT/AOT_stimuli/rescaled_final/1608_fw.mp4	0.0	370.9466087818146	
82	346.3349049091339	fix_post	2		12	80.0	2.5	/experiments/knapen_AOT/AOT_stimuli/rescaled_final/1608_fw.mp4	0.0	371.8629238605499	0.09998011589050293
83	346.4348850250244	fix_pre	0		120	81.0	2.5	/experiments/knapen_AOT/AOT_stimuli/rescaled_final/1306_rv.mp4	0.0	371.96290397644043	1.0001349449157715
83	347.01854491233826	pulse	0	t		81.0	2.5	/experiments/knapen_AOT/AOT_stimuli/rescaled_final/1306_rv.mp4	0.0	372.5465638637543	
83	347.4350199699402	movie	1		261	81.0	2.5	/experiments/knapen_AOT/AOT_stimuli/rescaled_final/1306_rv.mp4	0.0	372.9630389213562	2.500356912612915
83	348.61878395080566	pulse	1	t		81.0	2.5	/experiments/knapen_AOT/AOT_stimuli/rescaled_final/1306_rv.mp4	0.0	374.1468029022217	
83	349.9353768825531	fix_post	2		12	81.0	2.5	/experiments/knapen_AOT/AOT_stimuli/rescaled_final/1306_rv.mp4	0.0	375.4633958339691	0.10000014305114746
84	350.03537702560425	fix_pre	0		120	82.0	2.5	blank	1.0	375.56339597702026	1.0001800060272217
84	350.21901297569275	pulse	0	t		82.0	2.5	blank	1.0	375.74703192710876	
84	351.03555703163147	movie	1		300	82.0	2.5	blank	1.0	376.5635759830475	2.5003609657287598
84	351.81924200057983	pulse	1	t		82.0	2.5	blank	1.0	377.34726095199585	
84	353.41951990127563	pulse	1	t		82.0	2.5	blank	1.0	378.94753885269165	
84	353.53591799736023	fix_post	2		12	82.0	2.5	blank	1.0	379.06393694877625	0.10002803802490234
85	353.63594603538513	fix_pre	0		120	83.0	2.5	/experiments/knapen_AOT/AOT_stimuli/rescaled_final/0248_fw.mp4	0.0	379.16396498680115	1.0001709461212158
85	354.63611698150635	movie	1		244	83.0	2.5	/experiments/knapen_AOT/AOT_stimuli/rescaled_final/0248_fw.mp4	0.0	380.16413593292236	2.492039918899536
85	355.02187490463257	pulse	1	t		83.0	2.5	/experiments/knapen_AOT/AOT_stimuli/rescaled_final/0248_fw.mp4	0.0	380.5498938560486	
85	356.6199429035187	pulse	1	t		83.0	2.5	/experiments/knapen_AOT/AOT_stimuli/rescaled_final/0248_fw.mp4	0.0	382.1479618549347	
85	357.1281569004059	fix_post	2		12	83.0	2.5	/experiments/knapen_AOT/AOT_stimuli/rescaled_final/0248_fw.mp4	0.0	382.6561758518219	0.10015106201171875
87	357.2283079624176	stim	0		1716					382.7563269138336	14.302062034606934
87	358.2202980518341	pulse	0	t						383.7483170032501	
87	359.8204789161682	pulse	0	t						385.34849786758423	
87	361.42059302330017	pulse	0	t						386.9486119747162	
87	363.0208148956299	pulse	0	t						388.5488338470459	
87	364.621120929718	pulse	0	t						390.14913988113403	
87	366.22148990631104	pulse	0	t						391.74950885772705	
87	367.82156205177307	pulse	0	t						393.3495810031891	
87	369.42181491851807	pulse	0	t						394.9498338699341	
87	371.02206206321716	pulse	0	t						396.5500810146332	
