trial_nr	onset	event_type	phase	response	nr_frames	movie_index	movie_duration	movie_file	blank	onset_abs	duration
0	0.15837311744689941	stim	0		9					16.721184968948364	0.07484602928161621
0	0.22534465789794922	response	0	space						16.788156509399414	
1	0.23321914672851562	stim	0		4448					16.79603099822998	37.08353543281555
1	37.307218074798584	pulse	0	t						53.87002992630005	
1	37.31675457954407	stim	1		1716					53.87956643104553	14.307544231414795
1	38.89768743515015	pulse	1	t						55.46049928665161	
1	40.49782633781433	pulse	1	t						57.060638189315796	
1	42.09820580482483	pulse	1	t						58.661017656326294	
1	43.698275327682495	pulse	1	t						60.26108717918396	
1	45.2985782623291	pulse	1	t						61.861390113830566	
1	46.898815631866455	pulse	1	t						63.46162748336792	
1	48.49908447265625	pulse	1	t						65.06189632415771	
1	50.09926986694336	pulse	1	t						66.66208171844482	
2	51.62429881095886	fix_pre	0		10	0.0	2.5	/experiments/Knapen_AOT/AOT_stimuli/rescaled_final/1065_fw.mp4	0.0	68.18711066246033	0.10006594657897949
2	51.69977784156799	pulse	0	t		0.0	2.5	/experiments/Knapen_AOT/AOT_stimuli/rescaled_final/1065_fw.mp4	0.0	68.26258969306946	
2	51.72436475753784	movie	1		289	0.0	2.5	/experiments/Knapen_AOT/AOT_stimuli/rescaled_final/1065_fw.mp4	0.0	68.2871766090393	2.492069959640503
2	53.2982542514801	pulse	1	t		0.0	2.5	/experiments/Knapen_AOT/AOT_stimuli/rescaled_final/1065_fw.mp4	0.0	69.86106610298157	
2	54.216434717178345	fix_post	2		12	0.0	2.5	/experiments/Knapen_AOT/AOT_stimuli/rescaled_final/1065_fw.mp4	0.0	70.77924656867981	0.0999758243560791
3	54.316410541534424	fix_pre	0		120	1.0	2.5	/experiments/Knapen_AOT/AOT_stimuli/rescaled_final/0886_rv.mp4	0.0	70.87922239303589	1.0085804462432861
3	54.899938344955444	pulse	0	t		1.0	2.5	/experiments/Knapen_AOT/AOT_stimuli/rescaled_final/0886_rv.mp4	0.0	71.46275019645691	
3	55.32499098777771	movie	1		280	1.0	2.5	/experiments/Knapen_AOT/AOT_stimuli/rescaled_final/0886_rv.mp4	0.0	71.88780283927917	2.4918994903564453
3	56.49930262565613	pulse	1	t		1.0	2.5	/experiments/Knapen_AOT/AOT_stimuli/rescaled_final/0886_rv.mp4	0.0	73.06211447715759	
3	57.816890478134155	fix_post	2		12	1.0	2.5	/experiments/Knapen_AOT/AOT_stimuli/rescaled_final/0886_rv.mp4	0.0	74.37970232963562	0.10007667541503906
4	57.916967153549194	fix_pre	0		120	2.0	2.5	/experiments/Knapen_AOT/AOT_stimuli/rescaled_final/0336_rv.mp4	0.0	74.47977900505066	1.0084187984466553
4	58.100428104400635	pulse	0	t		2.0	2.5	/experiments/Knapen_AOT/AOT_stimuli/rescaled_final/0336_rv.mp4	0.0	74.6632399559021	
4	58.92538595199585	movie	1		280	2.0	2.5	/experiments/Knapen_AOT/AOT_stimuli/rescaled_final/0336_rv.mp4	0.0	75.48819780349731	2.492103099822998
4	59.69859290122986	pulse	1	t		2.0	2.5	/experiments/Knapen_AOT/AOT_stimuli/rescaled_final/0336_rv.mp4	0.0	76.26140475273132	
4	61.300307750701904	pulse	1	t		2.0	2.5	/experiments/Knapen_AOT/AOT_stimuli/rescaled_final/0336_rv.mp4	0.0	77.86311960220337	
4	61.41748905181885	fix_post	2		12	2.0	2.5	/experiments/Knapen_AOT/AOT_stimuli/rescaled_final/0336_rv.mp4	0.0	77.98030090332031	0.10004734992980957
5	61.51753640174866	fix_pre	0		120	3.0	2.5	/experiments/Knapen_AOT/AOT_stimuli/rescaled_final/2021_fw.mp4	0.0	78.08034825325012	1.0084116458892822
5	62.52594804763794	movie	1		283	3.0	2.5	/experiments/Knapen_AOT/AOT_stimuli/rescaled_final/2021_fw.mp4	0.0	79.0887598991394	2.4920670986175537
5	62.90040397644043	pulse	1	t		3.0	2.5	/experiments/Knapen_AOT/AOT_stimuli/rescaled_final/2021_fw.mp4	0.0	79.4632158279419	
5	64.49941372871399	pulse	1	t		3.0	2.5	/experiments/Knapen_AOT/AOT_stimuli/rescaled_final/2021_fw.mp4	0.0	81.06222558021545	
5	65.0180151462555	fix_post	2		12	3.0	2.5	/experiments/Knapen_AOT/AOT_stimuli/rescaled_final/2021_fw.mp4	0.0	81.58082699775696	0.10005497932434082
6	65.11807012557983	fix_pre	0		119	4.0	2.5	/experiments/Knapen_AOT/AOT_stimuli/rescaled_final/1964_rv.mp4	0.0	81.6808819770813	1.0000627040863037
6	66.10169291496277	pulse	0	t		4.0	2.5	/experiments/Knapen_AOT/AOT_stimuli/rescaled_final/1964_rv.mp4	0.0	82.66450476646423	
6	66.11813282966614	movie	1		282	4.0	2.5	/experiments/Knapen_AOT/AOT_stimuli/rescaled_final/1964_rv.mp4	0.0	82.6809446811676	2.5006279945373535
6	67.70040202140808	pulse	1	t		4.0	2.5	/experiments/Knapen_AOT/AOT_stimuli/rescaled_final/1964_rv.mp4	0.0	84.26321387290955	
6	68.61876082420349	fix_post	2		12	4.0	2.5	/experiments/Knapen_AOT/AOT_stimuli/rescaled_final/1964_rv.mp4	0.0	85.18157267570496	0.09983348846435547
7	68.71859431266785	fix_pre	0		120	5.0	2.5	/experiments/Knapen_AOT/AOT_stimuli/rescaled_final/1415_rv.mp4	0.0	85.28140616416931	1.008488655090332
7	69.30217862129211	pulse	0	t		5.0	2.5	/experiments/Knapen_AOT/AOT_stimuli/rescaled_final/1415_rv.mp4	0.0	85.86499047279358	
7	69.72708296775818	movie	1		280	5.0	2.5	/experiments/Knapen_AOT/AOT_stimuli/rescaled_final/1415_rv.mp4	0.0	86.28989481925964	2.4920897483825684
7	70.90062022209167	pulse	1	t		5.0	2.5	/experiments/Knapen_AOT/AOT_stimuli/rescaled_final/1415_rv.mp4	0.0	87.46343207359314	
7	72.21917271614075	fix_post	2		12	5.0	2.5	/experiments/Knapen_AOT/AOT_stimuli/rescaled_final/1415_rv.mp4	0.0	88.78198456764221	0.09990286827087402
8	72.31907558441162	fix_pre	0		120	6.0	2.5	/experiments/Knapen_AOT/AOT_stimuli/rescaled_final/1582_rv.mp4	0.0	88.88188743591309	1.0084822177886963
8	72.50269317626953	pulse	0	t		6.0	2.5	/experiments/Knapen_AOT/AOT_stimuli/rescaled_final/1582_rv.mp4	0.0	89.065505027771	
8	73.32755780220032	movie	1		273	6.0	2.5	/experiments/Knapen_AOT/AOT_stimuli/rescaled_final/1582_rv.mp4	0.0	89.89036965370178	2.4922099113464355
8	74.10099768638611	pulse	1	t		6.0	2.5	/experiments/Knapen_AOT/AOT_stimuli/rescaled_final/1582_rv.mp4	0.0	90.66380953788757	
8	75.70115947723389	pulse	1	t		6.0	2.5	/experiments/Knapen_AOT/AOT_stimuli/rescaled_final/1582_rv.mp4	0.0	92.26397132873535	
8	75.81976771354675	fix_post	2		12	6.0	2.5	/experiments/Knapen_AOT/AOT_stimuli/rescaled_final/1582_rv.mp4	0.0	92.38257956504822	0.0998833179473877
9	75.91965103149414	fix_pre	0		120	7.0	2.5	blank	1.0	92.4824628829956	1.0001153945922852
9	76.91976642608643	movie	1		300	7.0	2.5	blank	1.0	93.48257827758789	2.5003726482391357
9	77.30345487594604	pulse	1	t		7.0	2.5	blank	1.0	93.86626672744751	
9	78.90358471870422	pulse	1	t		7.0	2.5	blank	1.0	95.46639657020569	
9	79.42013907432556	fix_post	2		12	7.0	2.5	blank	1.0	95.98295092582703	0.10001850128173828
10	79.5201575756073	fix_pre	0		119	8.0	2.5	/experiments/Knapen_AOT/AOT_stimuli/rescaled_final/0636_rv.mp4	0.0	96.08296942710876	1.0001556873321533
10	80.50388240814209	pulse	0	t		8.0	2.5	/experiments/Knapen_AOT/AOT_stimuli/rescaled_final/0636_rv.mp4	0.0	97.06669425964355	
10	80.52031326293945	movie	1		278	8.0	2.5	/experiments/Knapen_AOT/AOT_stimuli/rescaled_final/0636_rv.mp4	0.0	97.08312511444092	2.5004191398620605
10	82.1028687953949	pulse	1	t		8.0	2.5	/experiments/Knapen_AOT/AOT_stimuli/rescaled_final/0636_rv.mp4	0.0	98.66568064689636	
10	83.02073240280151	fix_post	2		12	8.0	2.5	/experiments/Knapen_AOT/AOT_stimuli/rescaled_final/0636_rv.mp4	0.0	99.58354425430298	0.10002636909484863
11	83.12075877189636	fix_pre	0		120	9.0	2.5	/experiments/Knapen_AOT/AOT_stimuli/rescaled_final/1940_fw.mp4	0.0	99.68357062339783	1.008467197418213
11	83.70425605773926	pulse	0	t		9.0	2.5	/experiments/Knapen_AOT/AOT_stimuli/rescaled_final/1940_fw.mp4	0.0	100.26706790924072	
11	84.12922596931458	movie	1		283	9.0	2.5	/experiments/Knapen_AOT/AOT_stimuli/rescaled_final/1940_fw.mp4	0.0	100.69203782081604	2.4920003414154053
11	85.30262160301208	pulse	1	t		9.0	2.5	/experiments/Knapen_AOT/AOT_stimuli/rescaled_final/1940_fw.mp4	0.0	101.86543345451355	
11	86.62122631072998	fix_post	2		12	9.0	2.5	/experiments/Knapen_AOT/AOT_stimuli/rescaled_final/1940_fw.mp4	0.0	103.18403816223145	0.10001039505004883
12	86.72123670578003	fix_pre	0		120	10.0	2.5	/experiments/Knapen_AOT/AOT_stimuli/rescaled_final/1632_fw.mp4	0.0	103.2840485572815	1.0085959434509277
12	86.8967399597168	pulse	0	t		10.0	2.5	/experiments/Knapen_AOT/AOT_stimuli/rescaled_final/1632_fw.mp4	0.0	103.45955181121826	
12	87.72983264923096	movie	1		281	10.0	2.5	/experiments/Knapen_AOT/AOT_stimuli/rescaled_final/1632_fw.mp4	0.0	104.29264450073242	2.4919846057891846
12	88.49692034721375	pulse	1	t		10.0	2.5	/experiments/Knapen_AOT/AOT_stimuli/rescaled_final/1632_fw.mp4	0.0	105.05973219871521	
12	90.09697580337524	pulse	1	t		10.0	2.5	/experiments/Knapen_AOT/AOT_stimuli/rescaled_final/1632_fw.mp4	0.0	106.65978765487671	
12	90.22181725502014	fix_post	2		12	10.0	2.5	/experiments/Knapen_AOT/AOT_stimuli/rescaled_final/1632_fw.mp4	0.0	106.7846291065216	0.10000324249267578
13	90.32182049751282	fix_pre	0		120	11.0	2.5	/experiments/Knapen_AOT/AOT_stimuli/rescaled_final/0553_rv.mp4	0.0	106.88463234901428	1.0084636211395264
13	91.33028411865234	movie	1		275	11.0	2.5	/experiments/Knapen_AOT/AOT_stimuli/rescaled_final/0553_rv.mp4	0.0	107.89309597015381	2.4920339584350586
13	91.69734048843384	pulse	1	t		11.0	2.5	/experiments/Knapen_AOT/AOT_stimuli/rescaled_final/0553_rv.mp4	0.0	108.2601523399353	
13	93.29741930961609	pulse	1	t		11.0	2.5	/experiments/Knapen_AOT/AOT_stimuli/rescaled_final/0553_rv.mp4	0.0	109.86023116111755	
13	93.8223180770874	fix_post	2		12	11.0	2.5	/experiments/Knapen_AOT/AOT_stimuli/rescaled_final/0553_rv.mp4	0.0	110.38512992858887	0.10002446174621582
14	93.92234253883362	fix_pre	0		118	12.0	2.5	/experiments/Knapen_AOT/AOT_stimuli/rescaled_final/0749_rv.mp4	0.0	110.48515439033508	0.9917993545532227
14	94.8976821899414	pulse	0	t		12.0	2.5	/experiments/Knapen_AOT/AOT_stimuli/rescaled_final/0749_rv.mp4	0.0	111.46049404144287	
14	94.91414189338684	movie	1		289	12.0	2.5	/experiments/Knapen_AOT/AOT_stimuli/rescaled_final/0749_rv.mp4	0.0	111.4769537448883	2.5003693103790283
14	96.49808168411255	pulse	1	t		12.0	2.5	/experiments/Knapen_AOT/AOT_stimuli/rescaled_final/0749_rv.mp4	0.0	113.06089353561401	
14	97.41451120376587	fix_post	2		12	12.0	2.5	/experiments/Knapen_AOT/AOT_stimuli/rescaled_final/0749_rv.mp4	0.0	113.97732305526733	0.10019254684448242
15	97.51470375061035	fix_pre	0		120	13.0	2.5	/experiments/Knapen_AOT/AOT_stimuli/rescaled_final/1632_rv.mp4	0.0	114.07751560211182	1.0083537101745605
15	98.09828114509583	pulse	0	t		13.0	2.5	/experiments/Knapen_AOT/AOT_stimuli/rescaled_final/1632_rv.mp4	0.0	114.66109299659729	
15	98.52305746078491	movie	1		278	13.0	2.5	/experiments/Knapen_AOT/AOT_stimuli/rescaled_final/1632_rv.mp4	0.0	115.08586931228638	2.492027521133423
15	99.69757103919983	pulse	1	t		13.0	2.5	/experiments/Knapen_AOT/AOT_stimuli/rescaled_final/1632_rv.mp4	0.0	116.2603828907013	
15	101.01508498191833	fix_post	2		12	13.0	2.5	/experiments/Knapen_AOT/AOT_stimuli/rescaled_final/1632_rv.mp4	0.0	117.5778968334198	0.09999346733093262
16	101.11507844924927	fix_pre	0		120	14.0	2.5	blank	1.0	117.67789030075073	1.0001482963562012
16	101.2986352443695	pulse	0	t		14.0	2.5	blank	1.0	117.86144709587097	
16	102.11522674560547	movie	1		300	14.0	2.5	blank	1.0	118.67803859710693	2.5003602504730225
16	102.8989531993866	pulse	1	t		14.0	2.5	blank	1.0	119.46176505088806	
16	104.49909496307373	pulse	1	t		14.0	2.5	blank	1.0	121.0619068145752	
16	104.61558699607849	fix_post	2		12	14.0	2.5	blank	1.0	121.17839884757996	0.1000986099243164
17	104.71568560600281	fix_pre	0		120	15.0	2.5	/experiments/Knapen_AOT/AOT_stimuli/rescaled_final/1789_rv.mp4	0.0	121.27849745750427	1.0084784030914307
17	105.72416400909424	movie	1		274	15.0	2.5	/experiments/Knapen_AOT/AOT_stimuli/rescaled_final/1789_rv.mp4	0.0	122.2869758605957	2.4919679164886475
17	106.0976631641388	pulse	1	t		15.0	2.5	/experiments/Knapen_AOT/AOT_stimuli/rescaled_final/1789_rv.mp4	0.0	122.66047501564026	
17	107.69792580604553	pulse	1	t		15.0	2.5	/experiments/Knapen_AOT/AOT_stimuli/rescaled_final/1789_rv.mp4	0.0	124.260737657547	
17	108.21613192558289	fix_post	2		12	15.0	2.5	/experiments/Knapen_AOT/AOT_stimuli/rescaled_final/1789_rv.mp4	0.0	124.77894377708435	0.10009527206420898
18	108.3162271976471	fix_pre	0		119	16.0	2.5	/experiments/Knapen_AOT/AOT_stimuli/rescaled_final/0792_rv.mp4	0.0	124.87903904914856	1.0001654624938965
18	109.2998776435852	pulse	0	t		16.0	2.5	/experiments/Knapen_AOT/AOT_stimuli/rescaled_final/0792_rv.mp4	0.0	125.86268949508667	
18	109.31639266014099	movie	1		278	16.0	2.5	/experiments/Knapen_AOT/AOT_stimuli/rescaled_final/0792_rv.mp4	0.0	125.87920451164246	2.500282049179077
18	110.89966416358948	pulse	1	t		16.0	2.5	/experiments/Knapen_AOT/AOT_stimuli/rescaled_final/0792_rv.mp4	0.0	127.46247601509094	
18	111.81667470932007	fix_post	2		12	16.0	2.5	/experiments/Knapen_AOT/AOT_stimuli/rescaled_final/0792_rv.mp4	0.0	128.37948656082153	0.10002446174621582
19	111.91669917106628	fix_pre	0		120	17.0	2.5	/experiments/Knapen_AOT/AOT_stimuli/rescaled_final/1097_rv.mp4	0.0	128.47951102256775	1.0085134506225586
19	112.50034213066101	pulse	0	t		17.0	2.5	/experiments/Knapen_AOT/AOT_stimuli/rescaled_final/1097_rv.mp4	0.0	129.06315398216248	
19	112.92521262168884	movie	1		273	17.0	2.5	/experiments/Knapen_AOT/AOT_stimuli/rescaled_final/1097_rv.mp4	0.0	129.4880244731903	2.491990566253662
19	114.10057044029236	pulse	1	t		17.0	2.5	/experiments/Knapen_AOT/AOT_stimuli/rescaled_final/1097_rv.mp4	0.0	130.66338229179382	
19	115.4172031879425	fix_post	2		12	17.0	2.5	/experiments/Knapen_AOT/AOT_stimuli/rescaled_final/1097_rv.mp4	0.0	131.98001503944397	0.10002827644348145
20	115.51723146438599	fix_pre	0		120	18.0	2.5	/experiments/Knapen_AOT/AOT_stimuli/rescaled_final/0395_fw.mp4	0.0	132.08004331588745	1.008535385131836
20	115.70083379745483	pulse	0	t		18.0	2.5	/experiments/Knapen_AOT/AOT_stimuli/rescaled_final/0395_fw.mp4	0.0	132.2636456489563	
20	116.52576684951782	movie	1		270	18.0	2.5	/experiments/Knapen_AOT/AOT_stimuli/rescaled_final/0395_fw.mp4	0.0	133.0885787010193	2.491997241973877
20	117.29939222335815	pulse	1	t		18.0	2.5	/experiments/Knapen_AOT/AOT_stimuli/rescaled_final/0395_fw.mp4	0.0	133.86220407485962	
20	118.89942121505737	pulse	1	t		18.0	2.5	/experiments/Knapen_AOT/AOT_stimuli/rescaled_final/0395_fw.mp4	0.0	135.46223306655884	
20	119.0177640914917	fix_post	2		12	18.0	2.5	/experiments/Knapen_AOT/AOT_stimuli/rescaled_final/0395_fw.mp4	0.0	135.58057594299316	0.10001325607299805
21	119.1177773475647	fix_pre	0		120	19.0	2.5	/experiments/Knapen_AOT/AOT_stimuli/rescaled_final/0085_fw.mp4	0.0	135.68058919906616	1.008502721786499
21	120.1262800693512	movie	1		284	19.0	2.5	/experiments/Knapen_AOT/AOT_stimuli/rescaled_final/0085_fw.mp4	0.0	136.68909192085266	2.4920220375061035
21	120.49996638298035	pulse	1	t		19.0	2.5	/experiments/Knapen_AOT/AOT_stimuli/rescaled_final/0085_fw.mp4	0.0	137.0627782344818	
21	122.09982347488403	pulse	1	t		19.0	2.5	/experiments/Knapen_AOT/AOT_stimuli/rescaled_final/0085_fw.mp4	0.0	138.6626353263855	
21	122.6183021068573	fix_post	2		12	19.0	2.5	/experiments/Knapen_AOT/AOT_stimuli/rescaled_final/0085_fw.mp4	0.0	139.18111395835876	0.10008835792541504
22	122.71839046478271	fix_pre	0		119	20.0	2.5	blank	1.0	139.28120231628418	0.9917340278625488
22	123.70203876495361	pulse	0	t		20.0	2.5	blank	1.0	140.26485061645508	
22	123.71012449264526	movie	1		301	20.0	2.5	blank	1.0	140.27293634414673	2.5087335109710693
22	125.30222868919373	pulse	1	t		20.0	2.5	blank	1.0	141.8650405406952	
22	126.21885800361633	fix_post	2		12	20.0	2.5	blank	1.0	142.7816698551178	0.10000872611999512
23	126.31886672973633	fix_pre	0		120	21.0	2.5	/experiments/Knapen_AOT/AOT_stimuli/rescaled_final/1155_fw.mp4	0.0	142.8816785812378	1.0084738731384277
23	126.90257239341736	pulse	0	t		21.0	2.5	/experiments/Knapen_AOT/AOT_stimuli/rescaled_final/1155_fw.mp4	0.0	143.46538424491882	
23	127.32734060287476	movie	1		277	21.0	2.5	/experiments/Knapen_AOT/AOT_stimuli/rescaled_final/1155_fw.mp4	0.0	143.89015245437622	2.492041826248169
23	128.5008261203766	pulse	1	t		21.0	2.5	/experiments/Knapen_AOT/AOT_stimuli/rescaled_final/1155_fw.mp4	0.0	145.06363797187805	
23	129.81938242912292	fix_post	2		12	21.0	2.5	/experiments/Knapen_AOT/AOT_stimuli/rescaled_final/1155_fw.mp4	0.0	146.3821942806244	0.10016536712646484
24	129.9195477962494	fix_pre	0		120	22.0	2.5	/experiments/Knapen_AOT/AOT_stimuli/rescaled_final/0398_rv.mp4	0.0	146.48235964775085	1.0084030628204346
24	130.10297298431396	pulse	0	t		22.0	2.5	/experiments/Knapen_AOT/AOT_stimuli/rescaled_final/0398_rv.mp4	0.0	146.66578483581543	
24	130.92795085906982	movie	1		281	22.0	2.5	/experiments/Knapen_AOT/AOT_stimuli/rescaled_final/0398_rv.mp4	0.0	147.4907627105713	2.4919865131378174
24	131.70217895507812	pulse	1	t		22.0	2.5	/experiments/Knapen_AOT/AOT_stimuli/rescaled_final/0398_rv.mp4	0.0	148.2649908065796	
24	133.30144691467285	pulse	1	t		22.0	2.5	/experiments/Knapen_AOT/AOT_stimuli/rescaled_final/0398_rv.mp4	0.0	149.86425876617432	
24	133.41993737220764	fix_post	2		12	22.0	2.5	/experiments/Knapen_AOT/AOT_stimuli/rescaled_final/0398_rv.mp4	0.0	149.9827492237091	0.1000063419342041
25	133.51994371414185	fix_pre	0		120	23.0	2.5	/experiments/Knapen_AOT/AOT_stimuli/rescaled_final/1875_fw.mp4	0.0	150.0827555656433	1.0085248947143555
25	134.5284686088562	movie	1		279	23.0	2.5	/experiments/Knapen_AOT/AOT_stimuli/rescaled_final/1875_fw.mp4	0.0	151.09128046035767	2.4920151233673096
25	134.9034743309021	pulse	1	t		23.0	2.5	/experiments/Knapen_AOT/AOT_stimuli/rescaled_final/1875_fw.mp4	0.0	151.46628618240356	
25	136.5021436214447	pulse	1	t		23.0	2.5	/experiments/Knapen_AOT/AOT_stimuli/rescaled_final/1875_fw.mp4	0.0	153.06495547294617	
25	137.0204837322235	fix_post	2		12	23.0	2.5	/experiments/Knapen_AOT/AOT_stimuli/rescaled_final/1875_fw.mp4	0.0	153.58329558372498	0.09998917579650879
26	137.12047290802002	fix_pre	0		119	24.0	2.5	/experiments/Knapen_AOT/AOT_stimuli/rescaled_final/0161_fw.mp4	0.0	153.68328475952148	1.0002834796905518
26	138.10433530807495	pulse	0	t		24.0	2.5	/experiments/Knapen_AOT/AOT_stimuli/rescaled_final/0161_fw.mp4	0.0	154.66714715957642	
26	138.12075638771057	movie	1		275	24.0	2.5	/experiments/Knapen_AOT/AOT_stimuli/rescaled_final/0161_fw.mp4	0.0	154.68356823921204	2.50032377243042
26	139.7045395374298	pulse	1	t		24.0	2.5	/experiments/Knapen_AOT/AOT_stimuli/rescaled_final/0161_fw.mp4	0.0	156.26735138893127	
26	140.621080160141	fix_post	2		12	24.0	2.5	/experiments/Knapen_AOT/AOT_stimuli/rescaled_final/0161_fw.mp4	0.0	157.18389201164246	0.09996509552001953
27	140.721045255661	fix_pre	0		120	25.0	2.5	/experiments/Knapen_AOT/AOT_stimuli/rescaled_final/2173_rv.mp4	0.0	157.28385710716248	1.0084636211395264
27	141.30469012260437	pulse	0	t		25.0	2.5	/experiments/Knapen_AOT/AOT_stimuli/rescaled_final/2173_rv.mp4	0.0	157.86750197410583	
27	141.72950887680054	movie	1		284	25.0	2.5	/experiments/Knapen_AOT/AOT_stimuli/rescaled_final/2173_rv.mp4	0.0	158.292320728302	2.4920289516448975
27	142.9036214351654	pulse	1	t		25.0	2.5	/experiments/Knapen_AOT/AOT_stimuli/rescaled_final/2173_rv.mp4	0.0	159.46643328666687	
27	144.22153782844543	fix_post	2		12	25.0	2.5	/experiments/Knapen_AOT/AOT_stimuli/rescaled_final/2173_rv.mp4	0.0	160.7843496799469	0.10002827644348145
28	144.32156610488892	fix_pre	0		120	26.0	2.5	/experiments/Knapen_AOT/AOT_stimuli/rescaled_final/0835_rv.mp4	0.0	160.88437795639038	1.0085179805755615
28	144.49769949913025	pulse	0	t		26.0	2.5	/experiments/Knapen_AOT/AOT_stimuli/rescaled_final/0835_rv.mp4	0.0	161.0605113506317	
28	145.33008408546448	movie	1		277	26.0	2.5	/experiments/Knapen_AOT/AOT_stimuli/rescaled_final/0835_rv.mp4	0.0	161.89289593696594	2.492018699645996
28	146.09732794761658	pulse	1	t		26.0	2.5	/experiments/Knapen_AOT/AOT_stimuli/rescaled_final/0835_rv.mp4	0.0	162.66013979911804	
28	147.69732475280762	pulse	1	t		26.0	2.5	/experiments/Knapen_AOT/AOT_stimuli/rescaled_final/0835_rv.mp4	0.0	164.26013660430908	
28	147.82210278511047	fix_post	2		12	26.0	2.5	/experiments/Knapen_AOT/AOT_stimuli/rescaled_final/0835_rv.mp4	0.0	164.38491463661194	0.10006189346313477
29	147.9221646785736	fix_pre	0		120	27.0	2.5	/experiments/Knapen_AOT/AOT_stimuli/rescaled_final/0410_rv.mp4	0.0	164.48497653007507	1.0084643363952637
29	148.93062901496887	movie	1		289	27.0	2.5	/experiments/Knapen_AOT/AOT_stimuli/rescaled_final/0410_rv.mp4	0.0	165.49344086647034	2.4921371936798096
29	149.2975480556488	pulse	1	t		27.0	2.5	/experiments/Knapen_AOT/AOT_stimuli/rescaled_final/0410_rv.mp4	0.0	165.86035990715027	
29	150.89778637886047	pulse	1	t		27.0	2.5	/experiments/Knapen_AOT/AOT_stimuli/rescaled_final/0410_rv.mp4	0.0	167.46059823036194	
29	151.42276620864868	fix_post	2		12	27.0	2.5	/experiments/Knapen_AOT/AOT_stimuli/rescaled_final/0410_rv.mp4	0.0	167.98557806015015	0.09988737106323242
30	151.5226535797119	fix_pre	0		118	28.0	2.5	blank	1.0	168.08546543121338	0.9834625720977783
30	152.498060464859	pulse	0	t		28.0	2.5	blank	1.0	169.06087231636047	
30	152.5061161518097	movie	1		301	28.0	2.5	blank	1.0	169.06892800331116	2.5087244510650635
30	154.09843254089355	pulse	1	t		28.0	2.5	blank	1.0	170.66124439239502	
30	155.01484060287476	fix_post	2		12	28.0	2.5	blank	1.0	171.57765245437622	0.10001683235168457
31	155.11485743522644	fix_pre	0		120	29.0	2.5	/experiments/Knapen_AOT/AOT_stimuli/rescaled_final/1201_fw.mp4	0.0	171.6776692867279	1.0084927082061768
31	155.6985626220703	pulse	0	t		29.0	2.5	/experiments/Knapen_AOT/AOT_stimuli/rescaled_final/1201_fw.mp4	0.0	172.26137447357178	
31	156.12335014343262	movie	1		282	29.0	2.5	/experiments/Knapen_AOT/AOT_stimuli/rescaled_final/1201_fw.mp4	0.0	172.68616199493408	2.4920334815979004
31	157.29879331588745	pulse	1	t		29.0	2.5	/experiments/Knapen_AOT/AOT_stimuli/rescaled_final/1201_fw.mp4	0.0	173.86160516738892	
31	158.61538362503052	fix_post	2		12	29.0	2.5	/experiments/Knapen_AOT/AOT_stimuli/rescaled_final/1201_fw.mp4	0.0	175.17819547653198	0.10001730918884277
32	158.71540093421936	fix_pre	0		120	30.0	2.5	/experiments/Knapen_AOT/AOT_stimuli/rescaled_final/0213_fw.mp4	0.0	175.27821278572083	1.0085091590881348
32	158.89901161193848	pulse	0	t		30.0	2.5	/experiments/Knapen_AOT/AOT_stimuli/rescaled_final/0213_fw.mp4	0.0	175.46182346343994	
32	159.7239100933075	movie	1		281	30.0	2.5	/experiments/Knapen_AOT/AOT_stimuli/rescaled_final/0213_fw.mp4	0.0	176.28672194480896	2.492020606994629
32	160.49743723869324	pulse	1	t		30.0	2.5	/experiments/Knapen_AOT/AOT_stimuli/rescaled_final/0213_fw.mp4	0.0	177.0602490901947	
32	162.0976860523224	pulse	1	t		30.0	2.5	/experiments/Knapen_AOT/AOT_stimuli/rescaled_final/0213_fw.mp4	0.0	178.66049790382385	
32	162.21593070030212	fix_post	2		12	30.0	2.5	/experiments/Knapen_AOT/AOT_stimuli/rescaled_final/0213_fw.mp4	0.0	178.7787425518036	0.10002350807189941
33	162.31595420837402	fix_pre	0		120	31.0	2.5	/experiments/Knapen_AOT/AOT_stimuli/rescaled_final/0402_fw.mp4	0.0	178.8787660598755	1.0085766315460205
33	163.32453083992004	movie	1		289	31.0	2.5	/experiments/Knapen_AOT/AOT_stimuli/rescaled_final/0402_fw.mp4	0.0	179.8873426914215	2.491946220397949
33	163.69988417625427	pulse	1	t		31.0	2.5	/experiments/Knapen_AOT/AOT_stimuli/rescaled_final/0402_fw.mp4	0.0	180.26269602775574	
33	165.2979862689972	pulse	1	t		31.0	2.5	/experiments/Knapen_AOT/AOT_stimuli/rescaled_final/0402_fw.mp4	0.0	181.86079812049866	
33	165.816477060318	fix_post	2		12	31.0	2.5	/experiments/Knapen_AOT/AOT_stimuli/rescaled_final/0402_fw.mp4	0.0	182.37928891181946	0.10000133514404297
34	165.91647839546204	fix_pre	0		119	32.0	2.5	/experiments/Knapen_AOT/AOT_stimuli/rescaled_final/1828_rv.mp4	0.0	182.4792902469635	1.0001630783081055
34	166.90020966529846	pulse	0	t		32.0	2.5	/experiments/Knapen_AOT/AOT_stimuli/rescaled_final/1828_rv.mp4	0.0	183.46302151679993	
34	166.91664147377014	movie	1		285	32.0	2.5	/experiments/Knapen_AOT/AOT_stimuli/rescaled_final/1828_rv.mp4	0.0	183.4794533252716	2.500368356704712
34	168.50046944618225	pulse	1	t		32.0	2.5	/experiments/Knapen_AOT/AOT_stimuli/rescaled_final/1828_rv.mp4	0.0	185.06328129768372	
34	169.41700983047485	fix_post	2		12	32.0	2.5	/experiments/Knapen_AOT/AOT_stimuli/rescaled_final/1828_rv.mp4	0.0	185.97982168197632	0.10017657279968262
35	169.51718640327454	fix_pre	0		120	33.0	2.5	/experiments/Knapen_AOT/AOT_stimuli/rescaled_final/1689_fw.mp4	0.0	186.079998254776	1.0083680152893066
35	170.1006636619568	pulse	0	t		33.0	2.5	/experiments/Knapen_AOT/AOT_stimuli/rescaled_final/1689_fw.mp4	0.0	186.66347551345825	
35	170.52555441856384	movie	1		280	33.0	2.5	/experiments/Knapen_AOT/AOT_stimuli/rescaled_final/1689_fw.mp4	0.0	187.0883662700653	2.492032527923584
35	171.69907689094543	pulse	1	t		33.0	2.5	/experiments/Knapen_AOT/AOT_stimuli/rescaled_final/1689_fw.mp4	0.0	188.2618887424469	
35	173.01758694648743	fix_post	2		12	33.0	2.5	/experiments/Knapen_AOT/AOT_stimuli/rescaled_final/1689_fw.mp4	0.0	189.5803987979889	0.0999753475189209
36	173.11756229400635	fix_pre	0		120	34.0	2.5	/experiments/Knapen_AOT/AOT_stimuli/rescaled_final/1108_rv.mp4	0.0	189.6803741455078	1.008512020111084
36	173.30120062828064	pulse	0	t		34.0	2.5	/experiments/Knapen_AOT/AOT_stimuli/rescaled_final/1108_rv.mp4	0.0	189.8640124797821	
36	174.12607431411743	movie	1		276	34.0	2.5	/experiments/Knapen_AOT/AOT_stimuli/rescaled_final/1108_rv.mp4	0.0	190.6888861656189	2.492011547088623
36	174.90089631080627	pulse	1	t		34.0	2.5	/experiments/Knapen_AOT/AOT_stimuli/rescaled_final/1108_rv.mp4	0.0	191.46370816230774	
36	176.4996771812439	pulse	1	t		34.0	2.5	/experiments/Knapen_AOT/AOT_stimuli/rescaled_final/1108_rv.mp4	0.0	193.06248903274536	
36	176.61808586120605	fix_post	2		12	34.0	2.5	/experiments/Knapen_AOT/AOT_stimuli/rescaled_final/1108_rv.mp4	0.0	193.18089771270752	0.1000206470489502
37	176.718106508255	fix_pre	0		120	35.0	2.5	blank	1.0	193.28091835975647	1.0001380443572998
37	177.7182445526123	movie	1		300	35.0	2.5	blank	1.0	194.28105640411377	2.500396251678467
37	178.10194873809814	pulse	1	t		35.0	2.5	blank	1.0	194.6647605895996	
37	179.7024323940277	pulse	1	t		35.0	2.5	blank	1.0	196.26524424552917	
37	180.21864080429077	fix_post	2		12	35.0	2.5	blank	1.0	196.78145265579224	0.10006594657897949
38	180.31870675086975	fix_pre	0		119	36.0	2.5	/experiments/Knapen_AOT/AOT_stimuli/rescaled_final/0182_fw.mp4	0.0	196.88151860237122	1.0001039505004883
38	181.30251502990723	pulse	0	t		36.0	2.5	/experiments/Knapen_AOT/AOT_stimuli/rescaled_final/0182_fw.mp4	0.0	197.8653268814087	
38	181.31881070137024	movie	1		271	36.0	2.5	/experiments/Knapen_AOT/AOT_stimuli/rescaled_final/0182_fw.mp4	0.0	197.8816225528717	2.500399589538574
38	182.90112042427063	pulse	1	t		36.0	2.5	/experiments/Knapen_AOT/AOT_stimuli/rescaled_final/0182_fw.mp4	0.0	199.4639322757721	
38	183.8192102909088	fix_post	2		12	36.0	2.5	/experiments/Knapen_AOT/AOT_stimuli/rescaled_final/0182_fw.mp4	0.0	200.38202214241028	0.09998369216918945
39	183.919193983078	fix_pre	0		120	37.0	2.5	/experiments/Knapen_AOT/AOT_stimuli/rescaled_final/0888_fw.mp4	0.0	200.48200583457947	1.0085813999176025
39	184.50285291671753	pulse	0	t		37.0	2.5	/experiments/Knapen_AOT/AOT_stimuli/rescaled_final/0888_fw.mp4	0.0	201.065664768219	
39	184.9277753829956	movie	1		271	37.0	2.5	/experiments/Knapen_AOT/AOT_stimuli/rescaled_final/0888_fw.mp4	0.0	201.49058723449707	2.5002949237823486
39	186.10141921043396	pulse	1	t		37.0	2.5	/experiments/Knapen_AOT/AOT_stimuli/rescaled_final/0888_fw.mp4	0.0	202.66423106193542	
39	187.42807030677795	fix_post	2		11	37.0	2.5	/experiments/Knapen_AOT/AOT_stimuli/rescaled_final/0888_fw.mp4	0.0	203.99088215827942	0.09168195724487305
40	187.51975226402283	fix_pre	0		120	38.0	2.5	/experiments/Knapen_AOT/AOT_stimuli/rescaled_final/0398_rv.mp4	0.0	204.0825641155243	1.0084939002990723
40	187.70331144332886	pulse	0	t		38.0	2.5	/experiments/Knapen_AOT/AOT_stimuli/rescaled_final/0398_rv.mp4	0.0	204.26612329483032	
40	188.5282461643219	movie	1		271	38.0	2.5	/experiments/Knapen_AOT/AOT_stimuli/rescaled_final/0398_rv.mp4	0.0	205.09105801582336	2.492006778717041
40	189.30140042304993	pulse	1	t		38.0	2.5	/experiments/Knapen_AOT/AOT_stimuli/rescaled_final/0398_rv.mp4	0.0	205.8642122745514	
40	190.9018533229828	pulse	1	t		38.0	2.5	/experiments/Knapen_AOT/AOT_stimuli/rescaled_final/0398_rv.mp4	0.0	207.46466517448425	
40	191.02025294303894	fix_post	2		12	38.0	2.5	/experiments/Knapen_AOT/AOT_stimuli/rescaled_final/0398_rv.mp4	0.0	207.5830647945404	0.10002779960632324
41	191.12028074264526	fix_pre	0		120	39.0	2.5	/experiments/Knapen_AOT/AOT_stimuli/rescaled_final/1886_fw.mp4	0.0	207.68309259414673	1.008481740951538
41	192.1287624835968	movie	1		285	39.0	2.5	/experiments/Knapen_AOT/AOT_stimuli/rescaled_final/1886_fw.mp4	0.0	208.69157433509827	2.49206280708313
41	192.50397086143494	pulse	1	t		39.0	2.5	/experiments/Knapen_AOT/AOT_stimuli/rescaled_final/1886_fw.mp4	0.0	209.0667827129364	
41	194.10229563713074	pulse	1	t		39.0	2.5	/experiments/Knapen_AOT/AOT_stimuli/rescaled_final/1886_fw.mp4	0.0	210.6651074886322	
41	194.62082529067993	fix_post	2		12	39.0	2.5	/experiments/Knapen_AOT/AOT_stimuli/rescaled_final/1886_fw.mp4	0.0	211.1836371421814	0.10002994537353516
42	194.72085523605347	fix_pre	0		119	40.0	2.5	/experiments/Knapen_AOT/AOT_stimuli/rescaled_final/2045_fw.mp4	0.0	211.28366708755493	1.0001599788665771
42	195.70475912094116	pulse	0	t		40.0	2.5	/experiments/Knapen_AOT/AOT_stimuli/rescaled_final/2045_fw.mp4	0.0	212.26757097244263	
42	195.72101521492004	movie	1		284	40.0	2.5	/experiments/Knapen_AOT/AOT_stimuli/rescaled_final/2045_fw.mp4	0.0	212.2838270664215	2.5003156661987305
42	197.2968225479126	pulse	1	t		40.0	2.5	/experiments/Knapen_AOT/AOT_stimuli/rescaled_final/2045_fw.mp4	0.0	213.85963439941406	
42	198.22133088111877	fix_post	2		12	40.0	2.5	/experiments/Knapen_AOT/AOT_stimuli/rescaled_final/2045_fw.mp4	0.0	214.78414273262024	0.10003829002380371
43	198.32136917114258	fix_pre	0		120	41.0	2.5	/experiments/Knapen_AOT/AOT_stimuli/rescaled_final/0473_fw.mp4	0.0	214.88418102264404	1.0085132122039795
43	198.89674258232117	pulse	0	t		41.0	2.5	/experiments/Knapen_AOT/AOT_stimuli/rescaled_final/0473_fw.mp4	0.0	215.45955443382263	
43	199.32988238334656	movie	1		286	41.0	2.5	/experiments/Knapen_AOT/AOT_stimuli/rescaled_final/0473_fw.mp4	0.0	215.89269423484802	2.4921011924743652
43	200.49699783325195	pulse	1	t		41.0	2.5	/experiments/Knapen_AOT/AOT_stimuli/rescaled_final/0473_fw.mp4	0.0	217.05980968475342	
43	201.82198357582092	fix_post	2		12	41.0	2.5	/experiments/Knapen_AOT/AOT_stimuli/rescaled_final/0473_fw.mp4	0.0	218.3847954273224	0.09993195533752441
44	201.92191553115845	fix_pre	0		120	42.0	2.5	blank	1.0	218.4847273826599	1.00014328956604
44	202.09716153144836	pulse	0	t		42.0	2.5	blank	1.0	218.65997338294983	
44	202.9220588207245	movie	1		300	42.0	2.5	blank	1.0	219.48487067222595	2.500361680984497
44	203.6974983215332	pulse	1	t		42.0	2.5	blank	1.0	220.26031017303467	
44	205.29761338233948	pulse	1	t		42.0	2.5	blank	1.0	221.86042523384094	
44	205.42242050170898	fix_post	2		12	42.0	2.5	blank	1.0	221.98523235321045	0.10002374649047852
45	205.52244424819946	fix_pre	0		120	43.0	2.5	/experiments/Knapen_AOT/AOT_stimuli/rescaled_final/1905_fw.mp4	0.0	222.08525609970093	1.0084278583526611
45	206.53087210655212	movie	1		282	43.0	2.5	/experiments/Knapen_AOT/AOT_stimuli/rescaled_final/1905_fw.mp4	0.0	223.0936839580536	2.492114543914795
45	206.89795565605164	pulse	1	t		43.0	2.5	/experiments/Knapen_AOT/AOT_stimuli/rescaled_final/1905_fw.mp4	0.0	223.4607675075531	
45	208.49669671058655	pulse	1	t		43.0	2.5	/experiments/Knapen_AOT/AOT_stimuli/rescaled_final/1905_fw.mp4	0.0	225.059508562088	
45	209.02298665046692	fix_post	2		12	43.0	2.5	/experiments/Knapen_AOT/AOT_stimuli/rescaled_final/1905_fw.mp4	0.0	225.58579850196838	0.10000920295715332
46	209.12299585342407	fix_pre	0		118	44.0	2.5	/experiments/Knapen_AOT/AOT_stimuli/rescaled_final/0352_fw.mp4	0.0	225.68580770492554	0.9918057918548584
46	210.09842228889465	pulse	0	t		44.0	2.5	/experiments/Knapen_AOT/AOT_stimuli/rescaled_final/0352_fw.mp4	0.0	226.66123414039612	
46	210.11480164527893	movie	1		292	44.0	2.5	/experiments/Knapen_AOT/AOT_stimuli/rescaled_final/0352_fw.mp4	0.0	226.6776134967804	2.5003998279571533
46	211.69743418693542	pulse	1	t		44.0	2.5	/experiments/Knapen_AOT/AOT_stimuli/rescaled_final/0352_fw.mp4	0.0	228.2602460384369	
46	212.61520147323608	fix_post	2		12	44.0	2.5	/experiments/Knapen_AOT/AOT_stimuli/rescaled_final/0352_fw.mp4	0.0	229.17801332473755	0.1001594066619873
47	212.71536087989807	fix_pre	0		120	45.0	2.5	/experiments/Knapen_AOT/AOT_stimuli/rescaled_final/0842_rv.mp4	0.0	229.27817273139954	1.0083494186401367
47	213.29884672164917	pulse	0	t		45.0	2.5	/experiments/Knapen_AOT/AOT_stimuli/rescaled_final/0842_rv.mp4	0.0	229.86165857315063	
47	213.7237102985382	movie	1		276	45.0	2.5	/experiments/Knapen_AOT/AOT_stimuli/rescaled_final/0842_rv.mp4	0.0	230.28652215003967	2.492018222808838
47	214.89722847938538	pulse	1	t		45.0	2.5	/experiments/Knapen_AOT/AOT_stimuli/rescaled_final/0842_rv.mp4	0.0	231.46004033088684	
47	216.21572852134705	fix_post	2		12	45.0	2.5	/experiments/Knapen_AOT/AOT_stimuli/rescaled_final/0842_rv.mp4	0.0	232.7785403728485	0.10000228881835938
48	216.3157308101654	fix_pre	0		120	46.0	2.5	/experiments/Knapen_AOT/AOT_stimuli/rescaled_final/0914_fw.mp4	0.0	232.87854266166687	1.0085289478302002
48	216.49928903579712	pulse	0	t		46.0	2.5	/experiments/Knapen_AOT/AOT_stimuli/rescaled_final/0914_fw.mp4	0.0	233.06210088729858	
48	217.3242597579956	movie	1		267	46.0	2.5	/experiments/Knapen_AOT/AOT_stimuli/rescaled_final/0914_fw.mp4	0.0	233.88707160949707	2.492039918899536
48	218.10058307647705	pulse	1	t		46.0	2.5	/experiments/Knapen_AOT/AOT_stimuli/rescaled_final/0914_fw.mp4	0.0	234.66339492797852	
48	219.69769716262817	pulse	1	t		46.0	2.5	/experiments/Knapen_AOT/AOT_stimuli/rescaled_final/0914_fw.mp4	0.0	236.26050901412964	
48	219.81629967689514	fix_post	2		12	46.0	2.5	/experiments/Knapen_AOT/AOT_stimuli/rescaled_final/0914_fw.mp4	0.0	236.3791115283966	0.09997057914733887
49	219.91627025604248	fix_pre	0		120	47.0	2.5	/experiments/Knapen_AOT/AOT_stimuli/rescaled_final/1097_rv.mp4	0.0	236.47908210754395	1.0084865093231201
49	220.9247567653656	movie	1		282	47.0	2.5	/experiments/Knapen_AOT/AOT_stimuli/rescaled_final/1097_rv.mp4	0.0	237.48756861686707	2.4920363426208496
49	221.29838848114014	pulse	1	t		47.0	2.5	/experiments/Knapen_AOT/AOT_stimuli/rescaled_final/1097_rv.mp4	0.0	237.8612003326416	
49	222.89847421646118	pulse	1	t		47.0	2.5	/experiments/Knapen_AOT/AOT_stimuli/rescaled_final/1097_rv.mp4	0.0	239.46128606796265	
49	223.41679310798645	fix_post	2		12	47.0	2.5	/experiments/Knapen_AOT/AOT_stimuli/rescaled_final/1097_rv.mp4	0.0	239.97960495948792	0.10003042221069336
50	223.51682353019714	fix_pre	0		119	48.0	2.5	/experiments/Knapen_AOT/AOT_stimuli/rescaled_final/1828_fw.mp4	0.0	240.0796353816986	1.0002055168151855
50	224.50059056282043	pulse	0	t		48.0	2.5	/experiments/Knapen_AOT/AOT_stimuli/rescaled_final/1828_fw.mp4	0.0	241.0634024143219	
50	224.51702904701233	movie	1		277	48.0	2.5	/experiments/Knapen_AOT/AOT_stimuli/rescaled_final/1828_fw.mp4	0.0	241.0798408985138	2.500307559967041
50	226.09964776039124	pulse	1	t		48.0	2.5	/experiments/Knapen_AOT/AOT_stimuli/rescaled_final/1828_fw.mp4	0.0	242.6624596118927	
50	227.01733660697937	fix_post	2		12	48.0	2.5	/experiments/Knapen_AOT/AOT_stimuli/rescaled_final/1828_fw.mp4	0.0	243.58014845848083	0.10003376007080078
51	227.11737036705017	fix_pre	0		120	49.0	2.5	blank	1.0	243.68018221855164	1.000124454498291
51	227.70108556747437	pulse	0	t		49.0	2.5	blank	1.0	244.26389741897583	
51	228.11749482154846	movie	1		300	49.0	2.5	blank	1.0	244.68030667304993	2.500391721725464
51	229.3013699054718	pulse	1	t		49.0	2.5	blank	1.0	245.86418175697327	
51	230.61788654327393	fix_post	2		12	49.0	2.5	blank	1.0	247.1806983947754	0.10003447532653809
52	230.71792101860046	fix_pre	0		120	50.0	2.5	/experiments/Knapen_AOT/AOT_stimuli/rescaled_final/0335_rv.mp4	0.0	247.28073287010193	1.0084333419799805
52	230.90146112442017	pulse	0	t		50.0	2.5	/experiments/Knapen_AOT/AOT_stimuli/rescaled_final/0335_rv.mp4	0.0	247.46427297592163	
52	231.72635436058044	movie	1		280	50.0	2.5	/experiments/Knapen_AOT/AOT_stimuli/rescaled_final/0335_rv.mp4	0.0	248.2891662120819	2.4920411109924316
52	232.49985003471375	pulse	1	t		50.0	2.5	/experiments/Knapen_AOT/AOT_stimuli/rescaled_final/0335_rv.mp4	0.0	249.0626618862152	
52	234.10225892066956	pulse	1	t		50.0	2.5	/experiments/Knapen_AOT/AOT_stimuli/rescaled_final/0335_rv.mp4	0.0	250.66507077217102	
52	234.21839547157288	fix_post	2		12	50.0	2.5	/experiments/Knapen_AOT/AOT_stimuli/rescaled_final/0335_rv.mp4	0.0	250.78120732307434	0.10004210472106934
53	234.31843757629395	fix_pre	0		120	51.0	2.5	/experiments/Knapen_AOT/AOT_stimuli/rescaled_final/0994_fw.mp4	0.0	250.8812494277954	1.0085008144378662
53	235.3269383907318	movie	1		281	51.0	2.5	/experiments/Knapen_AOT/AOT_stimuli/rescaled_final/0994_fw.mp4	0.0	251.88975024223328	2.492034912109375
53	235.70086026191711	pulse	1	t		51.0	2.5	/experiments/Knapen_AOT/AOT_stimuli/rescaled_final/0994_fw.mp4	0.0	252.26367211341858	
53	237.30065369606018	pulse	1	t		51.0	2.5	/experiments/Knapen_AOT/AOT_stimuli/rescaled_final/0994_fw.mp4	0.0	253.86346554756165	
53	237.8189733028412	fix_post	2		12	51.0	2.5	/experiments/Knapen_AOT/AOT_stimuli/rescaled_final/0994_fw.mp4	0.0	254.38178515434265	0.10003900527954102
54	237.91901230812073	fix_pre	0		119	52.0	2.5	/experiments/Knapen_AOT/AOT_stimuli/rescaled_final/1782_rv.mp4	0.0	254.4818241596222	1.0001475811004639
54	238.90281128883362	pulse	0	t		52.0	2.5	/experiments/Knapen_AOT/AOT_stimuli/rescaled_final/1782_rv.mp4	0.0	255.46562314033508	
54	238.9191598892212	movie	1		278	52.0	2.5	/experiments/Knapen_AOT/AOT_stimuli/rescaled_final/1782_rv.mp4	0.0	255.48197174072266	2.500391721725464
54	240.50152444839478	pulse	1	t		52.0	2.5	/experiments/Knapen_AOT/AOT_stimuli/rescaled_final/1782_rv.mp4	0.0	257.06433629989624	
54	241.41955161094666	fix_post	2		12	52.0	2.5	/experiments/Knapen_AOT/AOT_stimuli/rescaled_final/1782_rv.mp4	0.0	257.9823634624481	0.1000058650970459
55	241.5195574760437	fix_pre	0		120	53.0	2.5	/experiments/Knapen_AOT/AOT_stimuli/rescaled_final/0605_rv.mp4	0.0	258.08236932754517	1.008512020111084
55	242.1031973361969	pulse	0	t		53.0	2.5	/experiments/Knapen_AOT/AOT_stimuli/rescaled_final/0605_rv.mp4	0.0	258.66600918769836	
55	242.52806949615479	movie	1		279	53.0	2.5	/experiments/Knapen_AOT/AOT_stimuli/rescaled_final/0605_rv.mp4	0.0	259.09088134765625	2.491992473602295
55	243.70210099220276	pulse	1	t		53.0	2.5	/experiments/Knapen_AOT/AOT_stimuli/rescaled_final/0605_rv.mp4	0.0	260.2649128437042	
55	245.02006196975708	fix_post	2		12	53.0	2.5	/experiments/Knapen_AOT/AOT_stimuli/rescaled_final/0605_rv.mp4	0.0	261.58287382125854	0.10000491142272949
56	245.1200668811798	fix_pre	0		120	54.0	2.5	/experiments/Knapen_AOT/AOT_stimuli/rescaled_final/0868_fw.mp4	0.0	261.6828787326813	1.0084822177886963
56	245.30369067192078	pulse	0	t		54.0	2.5	/experiments/Knapen_AOT/AOT_stimuli/rescaled_final/0868_fw.mp4	0.0	261.86650252342224	
56	246.1285490989685	movie	1		281	54.0	2.5	/experiments/Knapen_AOT/AOT_stimuli/rescaled_final/0868_fw.mp4	0.0	262.69136095046997	2.49208927154541
56	246.9023473262787	pulse	1	t		54.0	2.5	/experiments/Knapen_AOT/AOT_stimuli/rescaled_final/0868_fw.mp4	0.0	263.46515917778015	
56	248.5022897720337	pulse	1	t		54.0	2.5	/experiments/Knapen_AOT/AOT_stimuli/rescaled_final/0868_fw.mp4	0.0	265.06510162353516	
56	248.62063837051392	fix_post	2		12	54.0	2.5	/experiments/Knapen_AOT/AOT_stimuli/rescaled_final/0868_fw.mp4	0.0	265.1834502220154	0.10000133514404297
57	248.72063970565796	fix_pre	0		120	55.0	2.5	blank	1.0	265.2834515571594	1.0001184940338135
57	249.72075819969177	movie	1		300	55.0	2.5	blank	1.0	266.28357005119324	2.500504970550537
57	250.10442423820496	pulse	1	t		55.0	2.5	blank	1.0	266.6672360897064	
57	251.7046673297882	pulse	1	t		55.0	2.5	blank	1.0	268.2674791812897	
57	252.2212631702423	fix_post	2		12	55.0	2.5	blank	1.0	268.7840750217438	0.09987926483154297
58	252.32114243507385	fix_pre	0		119	56.0	2.5	/experiments/Knapen_AOT/AOT_stimuli/rescaled_final/0796_fw.mp4	0.0	268.8839542865753	1.00018310546875
58	253.29699444770813	pulse	0	t		56.0	2.5	/experiments/Knapen_AOT/AOT_stimuli/rescaled_final/0796_fw.mp4	0.0	269.8598062992096	
58	253.3213255405426	movie	1		272	56.0	2.5	/experiments/Knapen_AOT/AOT_stimuli/rescaled_final/0796_fw.mp4	0.0	269.88413739204407	2.500387191772461
58	254.8971016407013	pulse	1	t		56.0	2.5	/experiments/Knapen_AOT/AOT_stimuli/rescaled_final/0796_fw.mp4	0.0	271.45991349220276	
58	255.82171273231506	fix_post	2		11	56.0	2.5	/experiments/Knapen_AOT/AOT_stimuli/rescaled_final/0796_fw.mp4	0.0	272.3845245838165	0.10006141662597656
59	255.92177414894104	fix_pre	0		120	57.0	2.5	/experiments/Knapen_AOT/AOT_stimuli/rescaled_final/1745_fw.mp4	0.0	272.4845860004425	1.0084295272827148
59	256.4970428943634	pulse	0	t		57.0	2.5	/experiments/Knapen_AOT/AOT_stimuli/rescaled_final/1745_fw.mp4	0.0	273.05985474586487	
59	256.93020367622375	movie	1		284	57.0	2.5	/experiments/Knapen_AOT/AOT_stimuli/rescaled_final/1745_fw.mp4	0.0	273.4930155277252	2.4920248985290527
59	258.09733605384827	pulse	1	t		57.0	2.5	/experiments/Knapen_AOT/AOT_stimuli/rescaled_final/1745_fw.mp4	0.0	274.66014790534973	
59	259.4222285747528	fix_post	2		12	57.0	2.5	/experiments/Knapen_AOT/AOT_stimuli/rescaled_final/1745_fw.mp4	0.0	275.9850404262543	0.10006880760192871
60	259.52229738235474	fix_pre	0		120	58.0	2.5	/experiments/Knapen_AOT/AOT_stimuli/rescaled_final/1053_rv.mp4	0.0	276.0851092338562	1.008484125137329
60	259.69751596450806	pulse	0	t		58.0	2.5	/experiments/Knapen_AOT/AOT_stimuli/rescaled_final/1053_rv.mp4	0.0	276.2603278160095	
60	260.53078150749207	movie	1		267	58.0	2.5	/experiments/Knapen_AOT/AOT_stimuli/rescaled_final/1053_rv.mp4	0.0	277.09359335899353	2.4919650554656982
60	261.29760336875916	pulse	1	t		58.0	2.5	/experiments/Knapen_AOT/AOT_stimuli/rescaled_final/1053_rv.mp4	0.0	277.8604152202606	
60	262.89801692962646	pulse	1	t		58.0	2.5	/experiments/Knapen_AOT/AOT_stimuli/rescaled_final/1053_rv.mp4	0.0	279.46082878112793	
60	263.02274656295776	fix_post	2		12	58.0	2.5	/experiments/Knapen_AOT/AOT_stimuli/rescaled_final/1053_rv.mp4	0.0	279.58555841445923	0.1000359058380127
61	263.1227824687958	fix_pre	0		120	59.0	2.5	/experiments/Knapen_AOT/AOT_stimuli/rescaled_final/2107_rv.mp4	0.0	279.68559432029724	1.0085110664367676
61	264.13129353523254	movie	1		265	59.0	2.5	/experiments/Knapen_AOT/AOT_stimuli/rescaled_final/2107_rv.mp4	0.0	280.694105386734	2.483721971511841
61	264.4994933605194	pulse	1	t		59.0	2.5	/experiments/Knapen_AOT/AOT_stimuli/rescaled_final/2107_rv.mp4	0.0	281.0623052120209	
61	266.09855461120605	pulse	1	t		59.0	2.5	/experiments/Knapen_AOT/AOT_stimuli/rescaled_final/2107_rv.mp4	0.0	282.6613664627075	
61	266.6150155067444	fix_post	2		13	59.0	2.5	/experiments/Knapen_AOT/AOT_stimuli/rescaled_final/2107_rv.mp4	0.0	283.17782735824585	0.10829806327819824
62	266.7233135700226	fix_pre	0		118	60.0	2.5	/experiments/Knapen_AOT/AOT_stimuli/rescaled_final/1755_fw.mp4	0.0	283.28612542152405	0.991835355758667
62	267.69869565963745	pulse	0	t		60.0	2.5	/experiments/Knapen_AOT/AOT_stimuli/rescaled_final/1755_fw.mp4	0.0	284.2615075111389	
62	267.71514892578125	movie	1		284	60.0	2.5	/experiments/Knapen_AOT/AOT_stimuli/rescaled_final/1755_fw.mp4	0.0	284.2779607772827	2.5003645420074463
62	269.29760241508484	pulse	1	t		60.0	2.5	/experiments/Knapen_AOT/AOT_stimuli/rescaled_final/1755_fw.mp4	0.0	285.8604142665863	
62	270.2155134677887	fix_post	2		12	60.0	2.5	/experiments/Knapen_AOT/AOT_stimuli/rescaled_final/1755_fw.mp4	0.0	286.77832531929016	0.10006141662597656
63	270.3155748844147	fix_pre	0		120	61.0	2.5	/experiments/Knapen_AOT/AOT_stimuli/rescaled_final/0979_fw.mp4	0.0	286.87838673591614	1.008467197418213
63	270.89924788475037	pulse	0	t		61.0	2.5	/experiments/Knapen_AOT/AOT_stimuli/rescaled_final/0979_fw.mp4	0.0	287.46205973625183	
63	271.3240420818329	movie	1		269	61.0	2.5	/experiments/Knapen_AOT/AOT_stimuli/rescaled_final/0979_fw.mp4	0.0	287.88685393333435	2.491997241973877
63	272.4981441497803	pulse	1	t		61.0	2.5	/experiments/Knapen_AOT/AOT_stimuli/rescaled_final/0979_fw.mp4	0.0	289.06095600128174	
63	273.81603932380676	fix_post	2		12	61.0	2.5	/experiments/Knapen_AOT/AOT_stimuli/rescaled_final/0979_fw.mp4	0.0	290.3788511753082	0.10002565383911133
64	273.9160649776459	fix_pre	0		120	62.0	2.5	blank	1.0	290.47887682914734	1.0001370906829834
64	274.0996427536011	pulse	0	t		62.0	2.5	blank	1.0	290.66245460510254	
64	274.91620206832886	movie	1		300	62.0	2.5	blank	1.0	291.4790139198303	2.500373601913452
64	275.70007514953613	pulse	1	t		62.0	2.5	blank	1.0	292.2628870010376	
64	277.3001081943512	pulse	1	t		62.0	2.5	blank	1.0	293.86292004585266	
64	277.4165756702423	fix_post	2		12	62.0	2.5	blank	1.0	293.9793875217438	0.10002851486206055
65	277.51660418510437	fix_pre	0		120	63.0	2.5	/experiments/Knapen_AOT/AOT_stimuli/rescaled_final/0492_rv.mp4	0.0	294.07941603660583	1.0085487365722656
65	278.52515292167664	movie	1		285	63.0	2.5	/experiments/Knapen_AOT/AOT_stimuli/rescaled_final/0492_rv.mp4	0.0	295.0879647731781	2.491971492767334
65	278.89886236190796	pulse	1	t		63.0	2.5	/experiments/Knapen_AOT/AOT_stimuli/rescaled_final/0492_rv.mp4	0.0	295.4616742134094	
65	280.49908447265625	pulse	1	t		63.0	2.5	/experiments/Knapen_AOT/AOT_stimuli/rescaled_final/0492_rv.mp4	0.0	297.0618963241577	
65	281.01712441444397	fix_post	2		12	63.0	2.5	/experiments/Knapen_AOT/AOT_stimuli/rescaled_final/0492_rv.mp4	0.0	297.57993626594543	0.10005807876586914
66	281.11718249320984	fix_pre	0		119	64.0	2.5	/experiments/Knapen_AOT/AOT_stimuli/rescaled_final/1494_rv.mp4	0.0	297.6799943447113	1.0001440048217773
66	282.10097551345825	pulse	0	t		64.0	2.5	/experiments/Knapen_AOT/AOT_stimuli/rescaled_final/1494_rv.mp4	0.0	298.6637873649597	
66	282.1173264980316	movie	1		282	64.0	2.5	/experiments/Knapen_AOT/AOT_stimuli/rescaled_final/1494_rv.mp4	0.0	298.6801383495331	2.5003950595855713
66	283.700483083725	pulse	1	t		64.0	2.5	/experiments/Knapen_AOT/AOT_stimuli/rescaled_final/1494_rv.mp4	0.0	300.26329493522644	
66	284.6177215576172	fix_post	2		12	64.0	2.5	/experiments/Knapen_AOT/AOT_stimuli/rescaled_final/1494_rv.mp4	0.0	301.18053340911865	0.10001993179321289
67	284.7177414894104	fix_pre	0		120	65.0	2.5	/experiments/Knapen_AOT/AOT_stimuli/rescaled_final/1822_rv.mp4	0.0	301.28055334091187	1.008469820022583
67	285.30149030685425	pulse	0	t		65.0	2.5	/experiments/Knapen_AOT/AOT_stimuli/rescaled_final/1822_rv.mp4	0.0	301.8643021583557	
67	285.726211309433	movie	1		264	65.0	2.5	/experiments/Knapen_AOT/AOT_stimuli/rescaled_final/1822_rv.mp4	0.0	302.28902316093445	2.4922127723693848
67	286.89970326423645	pulse	1	t		65.0	2.5	/experiments/Knapen_AOT/AOT_stimuli/rescaled_final/1822_rv.mp4	0.0	303.4625151157379	
67	288.21842408180237	fix_post	2		12	65.0	2.5	/experiments/Knapen_AOT/AOT_stimuli/rescaled_final/1822_rv.mp4	0.0	304.78123593330383	0.09981560707092285
68	288.3182396888733	fix_pre	0		120	66.0	2.5	/experiments/Knapen_AOT/AOT_stimuli/rescaled_final/0592_rv.mp4	0.0	304.88105154037476	1.0084962844848633
68	288.50187277793884	pulse	0	t		66.0	2.5	/experiments/Knapen_AOT/AOT_stimuli/rescaled_final/0592_rv.mp4	0.0	305.0646846294403	
68	289.32673597335815	movie	1		270	66.0	2.5	/experiments/Knapen_AOT/AOT_stimuli/rescaled_final/0592_rv.mp4	0.0	305.8895478248596	2.4920237064361572
68	290.100301027298	pulse	1	t		66.0	2.5	/experiments/Knapen_AOT/AOT_stimuli/rescaled_final/0592_rv.mp4	0.0	306.66311287879944	
68	291.7006244659424	pulse	1	t		66.0	2.5	/experiments/Knapen_AOT/AOT_stimuli/rescaled_final/0592_rv.mp4	0.0	308.26343631744385	
68	291.8187596797943	fix_post	2		12	66.0	2.5	/experiments/Knapen_AOT/AOT_stimuli/rescaled_final/0592_rv.mp4	0.0	308.3815715312958	0.1000063419342041
69	291.9187660217285	fix_pre	0		120	67.0	2.5	/experiments/Knapen_AOT/AOT_stimuli/rescaled_final/1556_fw.mp4	0.0	308.48157787323	1.008484125137329
69	292.92725014686584	movie	1		274	67.0	2.5	/experiments/Knapen_AOT/AOT_stimuli/rescaled_final/1556_fw.mp4	0.0	309.4900619983673	2.492039680480957
69	293.3011198043823	pulse	1	t		67.0	2.5	/experiments/Knapen_AOT/AOT_stimuli/rescaled_final/1556_fw.mp4	0.0	309.8639316558838	
69	294.90098762512207	pulse	1	t		67.0	2.5	/experiments/Knapen_AOT/AOT_stimuli/rescaled_final/1556_fw.mp4	0.0	311.46379947662354	
69	295.4192898273468	fix_post	2		12	67.0	2.5	/experiments/Knapen_AOT/AOT_stimuli/rescaled_final/1556_fw.mp4	0.0	311.98210167884827	0.1000814437866211
70	295.5193712711334	fix_pre	0		119	68.0	2.5	blank	1.0	312.0821831226349	0.9917736053466797
70	296.5031270980835	pulse	0	t		68.0	2.5	blank	1.0	313.06593894958496	
70	296.5111448764801	movie	1		301	68.0	2.5	blank	1.0	313.07395672798157	2.5086963176727295
70	298.1032512187958	pulse	1	t		68.0	2.5	blank	1.0	314.66606307029724	
70	299.01984119415283	fix_post	2		12	68.0	2.5	blank	1.0	315.5826530456543	0.1000068187713623
71	299.1198480129242	fix_pre	0		120	69.0	2.5	/experiments/Knapen_AOT/AOT_stimuli/rescaled_final/0442_rv.mp4	0.0	315.68265986442566	1.008486032485962
71	299.7038857936859	pulse	0	t		69.0	2.5	/experiments/Knapen_AOT/AOT_stimuli/rescaled_final/0442_rv.mp4	0.0	316.2666976451874	
71	300.12833404541016	movie	1		274	69.0	2.5	/experiments/Knapen_AOT/AOT_stimuli/rescaled_final/0442_rv.mp4	0.0	316.6911458969116	2.4920713901519775
71	301.302197933197	pulse	1	t		69.0	2.5	/experiments/Knapen_AOT/AOT_stimuli/rescaled_final/0442_rv.mp4	0.0	317.8650097846985	
71	302.62040543556213	fix_post	2		12	69.0	2.5	/experiments/Knapen_AOT/AOT_stimuli/rescaled_final/0442_rv.mp4	0.0	319.1832172870636	0.09997248649597168
72	302.7203779220581	fix_pre	0		120	70.0	2.5	/experiments/Knapen_AOT/AOT_stimuli/rescaled_final/2107_rv.mp4	0.0	319.28318977355957	1.0085432529449463
72	302.90409231185913	pulse	0	t		70.0	2.5	/experiments/Knapen_AOT/AOT_stimuli/rescaled_final/2107_rv.mp4	0.0	319.4669041633606	
72	303.72892117500305	movie	1		287	70.0	2.5	/experiments/Knapen_AOT/AOT_stimuli/rescaled_final/2107_rv.mp4	0.0	320.2917330265045	2.4919981956481934
72	304.50254487991333	pulse	1	t		70.0	2.5	/experiments/Knapen_AOT/AOT_stimuli/rescaled_final/2107_rv.mp4	0.0	321.0653567314148	
72	306.10258436203003	pulse	1	t		70.0	2.5	/experiments/Knapen_AOT/AOT_stimuli/rescaled_final/2107_rv.mp4	0.0	322.6653962135315	
72	306.22091937065125	fix_post	2		12	70.0	2.5	/experiments/Knapen_AOT/AOT_stimuli/rescaled_final/2107_rv.mp4	0.0	322.7837312221527	0.1000218391418457
73	306.3209412097931	fix_pre	0		120	71.0	2.5	/experiments/Knapen_AOT/AOT_stimuli/rescaled_final/1022_fw.mp4	0.0	322.88375306129456	1.0084903240203857
73	307.3294315338135	movie	1		281	71.0	2.5	/experiments/Knapen_AOT/AOT_stimuli/rescaled_final/1022_fw.mp4	0.0	323.89224338531494	2.492037057876587
73	307.7033224105835	pulse	1	t		71.0	2.5	/experiments/Knapen_AOT/AOT_stimuli/rescaled_final/1022_fw.mp4	0.0	324.26613426208496	
73	309.303183555603	pulse	1	t		71.0	2.5	/experiments/Knapen_AOT/AOT_stimuli/rescaled_final/1022_fw.mp4	0.0	325.8659954071045	
73	309.82146859169006	fix_post	2		12	71.0	2.5	/experiments/Knapen_AOT/AOT_stimuli/rescaled_final/1022_fw.mp4	0.0	326.3842804431915	0.10003829002380371
74	309.92150688171387	fix_pre	0		119	72.0	2.5	/experiments/Knapen_AOT/AOT_stimuli/rescaled_final/1659_fw.mp4	0.0	326.48431873321533	1.0001277923583984
74	310.89799308776855	pulse	0	t		72.0	2.5	/experiments/Knapen_AOT/AOT_stimuli/rescaled_final/1659_fw.mp4	0.0	327.46080493927	
74	310.92163467407227	movie	1		287	72.0	2.5	/experiments/Knapen_AOT/AOT_stimuli/rescaled_final/1659_fw.mp4	0.0	327.48444652557373	2.5003678798675537
74	312.50401186943054	pulse	1	t		72.0	2.5	/experiments/Knapen_AOT/AOT_stimuli/rescaled_final/1659_fw.mp4	0.0	329.066823720932	
74	313.4220025539398	fix_post	2		12	72.0	2.5	/experiments/Knapen_AOT/AOT_stimuli/rescaled_final/1659_fw.mp4	0.0	329.9848144054413	0.10003423690795898
75	313.5220367908478	fix_pre	0		120	73.0	2.5	/experiments/Knapen_AOT/AOT_stimuli/rescaled_final/0868_rv.mp4	0.0	330.08484864234924	1.0085070133209229
75	314.0975008010864	pulse	0	t		73.0	2.5	/experiments/Knapen_AOT/AOT_stimuli/rescaled_final/0868_rv.mp4	0.0	330.6603126525879	
75	314.5305438041687	movie	1		272	73.0	2.5	/experiments/Knapen_AOT/AOT_stimuli/rescaled_final/0868_rv.mp4	0.0	331.09335565567017	2.492032527923584
75	315.6975965499878	pulse	1	t		73.0	2.5	/experiments/Knapen_AOT/AOT_stimuli/rescaled_final/0868_rv.mp4	0.0	332.26040840148926	
75	317.0225763320923	fix_post	2		12	73.0	2.5	/experiments/Knapen_AOT/AOT_stimuli/rescaled_final/0868_rv.mp4	0.0	333.58538818359375	0.0999898910522461
76	317.12256622314453	fix_pre	0		120	74.0	2.5	/experiments/Knapen_AOT/AOT_stimuli/rescaled_final/1053_fw.mp4	0.0	333.685378074646	1.0085620880126953
76	317.2979438304901	pulse	0	t		74.0	2.5	/experiments/Knapen_AOT/AOT_stimuli/rescaled_final/1053_fw.mp4	0.0	333.8607556819916	
76	318.1311283111572	movie	1		275	74.0	2.5	/experiments/Knapen_AOT/AOT_stimuli/rescaled_final/1053_fw.mp4	0.0	334.6939401626587	2.5003459453582764
76	318.8980600833893	pulse	1	t		74.0	2.5	/experiments/Knapen_AOT/AOT_stimuli/rescaled_final/1053_fw.mp4	0.0	335.46087193489075	
76	320.4973695278168	pulse	1	t		74.0	2.5	/experiments/Knapen_AOT/AOT_stimuli/rescaled_final/1053_fw.mp4	0.0	337.06018137931824	
76	320.6314742565155	fix_post	2		11	74.0	2.5	/experiments/Knapen_AOT/AOT_stimuli/rescaled_final/1053_fw.mp4	0.0	337.19428610801697	0.09169435501098633
77	320.7231686115265	fix_pre	0		120	75.0	2.5	/experiments/Knapen_AOT/AOT_stimuli/rescaled_final/0622_fw.mp4	0.0	337.28598046302795	1.008432388305664
77	321.73160099983215	movie	1		275	75.0	2.5	/experiments/Knapen_AOT/AOT_stimuli/rescaled_final/0622_fw.mp4	0.0	338.2944128513336	2.492025136947632
77	322.09862184524536	pulse	1	t		75.0	2.5	/experiments/Knapen_AOT/AOT_stimuli/rescaled_final/0622_fw.mp4	0.0	338.6614336967468	
77	323.69764971733093	pulse	1	t		75.0	2.5	/experiments/Knapen_AOT/AOT_stimuli/rescaled_final/0622_fw.mp4	0.0	340.2604615688324	
77	324.2236261367798	fix_post	2		12	75.0	2.5	/experiments/Knapen_AOT/AOT_stimuli/rescaled_final/0622_fw.mp4	0.0	340.78643798828125	0.10002517700195312
78	324.32365131378174	fix_pre	0		118	76.0	2.5	/experiments/Knapen_AOT/AOT_stimuli/rescaled_final/0873_rv.mp4	0.0	340.8864631652832	1.0002179145812988
78	325.2990884780884	pulse	0	t		76.0	2.5	/experiments/Knapen_AOT/AOT_stimuli/rescaled_final/0873_rv.mp4	0.0	341.86190032958984	
78	325.32386922836304	movie	1		266	76.0	2.5	/experiments/Knapen_AOT/AOT_stimuli/rescaled_final/0873_rv.mp4	0.0	341.8866810798645	2.491966962814331
78	326.8983807563782	pulse	1	t		76.0	2.5	/experiments/Knapen_AOT/AOT_stimuli/rescaled_final/0873_rv.mp4	0.0	343.46119260787964	
78	327.81583619117737	fix_post	2		12	76.0	2.5	/experiments/Knapen_AOT/AOT_stimuli/rescaled_final/0873_rv.mp4	0.0	344.37864804267883	0.10001897811889648
79	327.91585516929626	fix_pre	0		120	77.0	2.5	blank	1.0	344.47866702079773	1.0002963542938232
79	328.49972558021545	pulse	0	t		77.0	2.5	blank	1.0	345.0625374317169	
79	328.9161515235901	movie	1		300	77.0	2.5	blank	1.0	345.47896337509155	2.5002355575561523
79	330.09980845451355	pulse	1	t		77.0	2.5	blank	1.0	346.662620306015	
79	331.41638708114624	fix_post	2		12	77.0	2.5	blank	1.0	347.9791989326477	0.1000666618347168
80	331.51645374298096	fix_pre	0		120	78.0	2.5	/experiments/Knapen_AOT/AOT_stimuli/rescaled_final/0835_rv.mp4	0.0	348.0792655944824	1.0084569454193115
80	331.69998931884766	pulse	0	t		78.0	2.5	/experiments/Knapen_AOT/AOT_stimuli/rescaled_final/0835_rv.mp4	0.0	348.2628011703491	
80	332.52491068840027	movie	1		271	78.0	2.5	/experiments/Knapen_AOT/AOT_stimuli/rescaled_final/0835_rv.mp4	0.0	349.08772253990173	2.4920475482940674
80	333.30033588409424	pulse	1	t		78.0	2.5	/experiments/Knapen_AOT/AOT_stimuli/rescaled_final/0835_rv.mp4	0.0	349.8631477355957	
80	334.8988411426544	pulse	1	t		78.0	2.5	/experiments/Knapen_AOT/AOT_stimuli/rescaled_final/0835_rv.mp4	0.0	351.4616529941559	
80	335.01695823669434	fix_post	2		12	78.0	2.5	/experiments/Knapen_AOT/AOT_stimuli/rescaled_final/0835_rv.mp4	0.0	351.5797700881958	0.09998726844787598
81	335.1169455051422	fix_pre	0		120	79.0	2.5	/experiments/Knapen_AOT/AOT_stimuli/rescaled_final/0835_fw.mp4	0.0	351.6797573566437	1.0084881782531738
81	336.1254336833954	movie	1		277	79.0	2.5	/experiments/Knapen_AOT/AOT_stimuli/rescaled_final/0835_fw.mp4	0.0	352.68824553489685	2.4921624660491943
81	336.50124979019165	pulse	1	t		79.0	2.5	/experiments/Knapen_AOT/AOT_stimuli/rescaled_final/0835_fw.mp4	0.0	353.0640616416931	
81	338.0993399620056	pulse	1	t		79.0	2.5	/experiments/Knapen_AOT/AOT_stimuli/rescaled_final/0835_fw.mp4	0.0	354.6621518135071	
81	338.6175961494446	fix_post	2		12	79.0	2.5	/experiments/Knapen_AOT/AOT_stimuli/rescaled_final/0835_fw.mp4	0.0	355.18040800094604	0.09986591339111328
82	338.7174620628357	fix_pre	0		119	80.0	2.5	/experiments/Knapen_AOT/AOT_stimuli/rescaled_final/1092_rv.mp4	0.0	355.28027391433716	1.0002844333648682
82	339.70114755630493	pulse	0	t		80.0	2.5	/experiments/Knapen_AOT/AOT_stimuli/rescaled_final/1092_rv.mp4	0.0	356.2639594078064	
82	339.71774649620056	movie	1		281	80.0	2.5	/experiments/Knapen_AOT/AOT_stimuli/rescaled_final/1092_rv.mp4	0.0	356.280558347702	2.5002660751342773
82	341.3001661300659	pulse	1	t		80.0	2.5	/experiments/Knapen_AOT/AOT_stimuli/rescaled_final/1092_rv.mp4	0.0	357.8629779815674	
82	342.21801257133484	fix_post	2		12	80.0	2.5	/experiments/Knapen_AOT/AOT_stimuli/rescaled_final/1092_rv.mp4	0.0	358.7808244228363	0.10005688667297363
83	342.3180694580078	fix_pre	0		120	81.0	2.5	/experiments/Knapen_AOT/AOT_stimuli/rescaled_final/1887_rv.mp4	0.0	358.8808813095093	1.0084517002105713
83	342.90164017677307	pulse	0	t		81.0	2.5	/experiments/Knapen_AOT/AOT_stimuli/rescaled_final/1887_rv.mp4	0.0	359.46445202827454	
83	343.3265211582184	movie	1		276	81.0	2.5	/experiments/Knapen_AOT/AOT_stimuli/rescaled_final/1887_rv.mp4	0.0	359.88933300971985	2.4920172691345215
83	344.5007047653198	pulse	1	t		81.0	2.5	/experiments/Knapen_AOT/AOT_stimuli/rescaled_final/1887_rv.mp4	0.0	361.0635166168213	
83	345.8185384273529	fix_post	2		12	81.0	2.5	/experiments/Knapen_AOT/AOT_stimuli/rescaled_final/1887_rv.mp4	0.0	362.38135027885437	0.1000204086303711
84	345.9185588359833	fix_pre	0		120	82.0	2.5	/experiments/Knapen_AOT/AOT_stimuli/rescaled_final/0722_fw.mp4	0.0	362.48137068748474	1.0085759162902832
84	346.1021065711975	pulse	0	t		82.0	2.5	/experiments/Knapen_AOT/AOT_stimuli/rescaled_final/0722_fw.mp4	0.0	362.664918422699	
84	346.92713475227356	movie	1		272	82.0	2.5	/experiments/Knapen_AOT/AOT_stimuli/rescaled_final/0722_fw.mp4	0.0	363.489946603775	2.4919517040252686
84	347.700745344162	pulse	1	t		82.0	2.5	/experiments/Knapen_AOT/AOT_stimuli/rescaled_final/0722_fw.mp4	0.0	364.26355719566345	
84	349.3011260032654	pulse	1	t		82.0	2.5	/experiments/Knapen_AOT/AOT_stimuli/rescaled_final/0722_fw.mp4	0.0	365.86393785476685	
84	349.4190864562988	fix_post	2		12	82.0	2.5	/experiments/Knapen_AOT/AOT_stimuli/rescaled_final/0722_fw.mp4	0.0	365.9818983078003	0.10001754760742188
85	349.51910400390625	fix_pre	0		120	83.0	2.5	blank	1.0	366.0819158554077	1.0001306533813477
85	350.5192346572876	movie	1		300	83.0	2.5	blank	1.0	367.08204650878906	2.5003855228424072
85	350.9031367301941	pulse	1	t		83.0	2.5	blank	1.0	367.46594858169556	
85	352.5034453868866	pulse	1	t		83.0	2.5	blank	1.0	369.06625723838806	
85	353.01962018013	fix_post	2		12	83.0	2.5	blank	1.0	369.58243203163147	0.09997797012329102
87	353.1195981502533	stim	0		1715					369.68241000175476	14.293869495391846
87	354.1034245491028	pulse	0	t						370.66623640060425	
87	355.7038128376007	pulse	0	t						372.2666246891022	
87	357.3038430213928	pulse	0	t						373.8666548728943	
87	358.90434312820435	pulse	0	t						375.4671549797058	
87	360.5042996406555	pulse	0	t						377.067111492157	
87	362.1047191619873	pulse	0	t						378.66753101348877	
87	363.7050302028656	pulse	0	t						380.26784205436707	
87	365.29800820350647	pulse	0	t						381.86082005500793	
87	366.89825201034546	pulse	0	t						383.4610638618469	
