trial_nr	onset	event_type	phase	response	nr_frames	movie_index	movie_duration	movie_file	blank	onset_abs	duration
0	0.1916186809539795	stim	0		9					18.606473684310913	0.08329105377197266
0	0.2668941020965576	response	0	space						18.68174910545349	
1	0.27490973472595215	stim	0		4684					18.689764738082886	39.05879759788513
1	39.31516194343567	pulse	0	t						57.7300169467926	
1	39.333707332611084	stim	1		1716					57.74856233596802	14.307536125183105
1	40.906150817871094	pulse	1	t						59.32100582122803	
1	42.50636029243469	pulse	1	t						60.921215295791626	
1	44.106549978256226	pulse	1	t						62.52140498161316	
1	45.706801891326904	pulse	1	t						64.12165689468384	
1	47.30737614631653	pulse	1	t						65.72223114967346	
1	48.90738129615784	pulse	1	t						67.32223629951477	
1	50.5076162815094	pulse	1	t						68.92247128486633	
1	52.10773754119873	pulse	1	t						70.52259254455566	
2	53.64124345779419	fix_pre	0		3	0.0	2.5	/experiments/knapen_AOT/AOT_stimuli/rescaled_final/1382_fw.mp4	0.0	72.05609846115112	0.12508058547973633
2	53.70076084136963	pulse	0	t		0.0	2.5	/experiments/knapen_AOT/AOT_stimuli/rescaled_final/1382_fw.mp4	0.0	72.11561584472656	
2	53.766324043273926	movie	1		295	0.0	2.5	/experiments/knapen_AOT/AOT_stimuli/rescaled_final/1382_fw.mp4	0.0	72.18117904663086	2.466921806335449
2	55.305461406707764	pulse	1	t		0.0	2.5	/experiments/knapen_AOT/AOT_stimuli/rescaled_final/1382_fw.mp4	0.0	73.7203164100647	
2	56.233245849609375	fix_post	2		12	0.0	2.5	/experiments/knapen_AOT/AOT_stimuli/rescaled_final/1382_fw.mp4	0.0	74.64810085296631	0.10000014305114746
3	56.33324599266052	fix_pre	0		120	1.0	2.5	/experiments/knapen_AOT/AOT_stimuli/rescaled_final/0866_rv.mp4	0.0	74.74810099601746	1.008521556854248
3	56.908610820770264	pulse	0	t		1.0	2.5	/experiments/knapen_AOT/AOT_stimuli/rescaled_final/0866_rv.mp4	0.0	75.3234658241272	
3	57.34176754951477	movie	1		296	1.0	2.5	/experiments/knapen_AOT/AOT_stimuli/rescaled_final/0866_rv.mp4	0.0	75.7566225528717	2.4920270442962646
3	58.504660844802856	pulse	1	t		1.0	2.5	/experiments/knapen_AOT/AOT_stimuli/rescaled_final/0866_rv.mp4	0.0	76.91951584815979	
3	59.833794593811035	fix_post	2		12	1.0	2.5	/experiments/knapen_AOT/AOT_stimuli/rescaled_final/0866_rv.mp4	0.0	78.24864959716797	0.09997868537902832
4	59.93377327919006	fix_pre	0		120	2.0	2.5	/experiments/knapen_AOT/AOT_stimuli/rescaled_final/0844_fw.mp4	0.0	78.348628282547	1.000119686126709
4	60.108969926834106	pulse	0	t		2.0	2.5	/experiments/knapen_AOT/AOT_stimuli/rescaled_final/0844_fw.mp4	0.0	78.52382493019104	
4	60.93389296531677	movie	1		299	2.0	2.5	/experiments/knapen_AOT/AOT_stimuli/rescaled_final/0844_fw.mp4	0.0	79.3487479686737	2.5004992485046387
4	61.701005697250366	pulse	1	t		2.0	2.5	/experiments/knapen_AOT/AOT_stimuli/rescaled_final/0844_fw.mp4	0.0	80.1158607006073	
4	63.30111312866211	pulse	1	t		2.0	2.5	/experiments/knapen_AOT/AOT_stimuli/rescaled_final/0844_fw.mp4	0.0	81.71596813201904	
4	63.43439221382141	fix_post	2		12	2.0	2.5	/experiments/knapen_AOT/AOT_stimuli/rescaled_final/0844_fw.mp4	0.0	81.84924721717834	0.10001516342163086
5	63.53440737724304	fix_pre	0		120	3.0	2.5	/experiments/knapen_AOT/AOT_stimuli/rescaled_final/0866_fw.mp4	0.0	81.94926238059998	1.000030279159546
5	64.53443765640259	movie	1		299	3.0	2.5	/experiments/knapen_AOT/AOT_stimuli/rescaled_final/0866_fw.mp4	0.0	82.94929265975952	2.500429630279541
5	64.90134525299072	pulse	1	t		3.0	2.5	/experiments/knapen_AOT/AOT_stimuli/rescaled_final/0866_fw.mp4	0.0	83.31620025634766	
5	66.50159096717834	pulse	1	t		3.0	2.5	/experiments/knapen_AOT/AOT_stimuli/rescaled_final/0866_fw.mp4	0.0	84.91644597053528	
5	67.03486728668213	fix_post	2		12	3.0	2.5	/experiments/knapen_AOT/AOT_stimuli/rescaled_final/0866_fw.mp4	0.0	85.44972229003906	0.09998369216918945
6	67.13485097885132	fix_pre	0		117	4.0	2.5	/experiments/knapen_AOT/AOT_stimuli/rescaled_final/0760_fw.mp4	0.0	85.54970598220825	0.9834921360015869
6	68.1019299030304	pulse	0	t		4.0	2.5	/experiments/knapen_AOT/AOT_stimuli/rescaled_final/0760_fw.mp4	0.0	86.51678490638733	
6	68.1183431148529	movie	1		299	4.0	2.5	/experiments/knapen_AOT/AOT_stimuli/rescaled_final/0760_fw.mp4	0.0	86.53319811820984	2.500349760055542
6	69.70207929611206	pulse	1	t		4.0	2.5	/experiments/knapen_AOT/AOT_stimuli/rescaled_final/0760_fw.mp4	0.0	88.116934299469	
6	70.61869287490845	fix_post	2		12	4.0	2.5	/experiments/knapen_AOT/AOT_stimuli/rescaled_final/0760_fw.mp4	0.0	89.03354787826538	0.10006427764892578
7	70.71875715255737	fix_pre	0		120	5.0	2.5	/experiments/knapen_AOT/AOT_stimuli/rescaled_final/0501_fw.mp4	0.0	89.1336121559143	1.0000724792480469
7	71.30241870880127	pulse	0	t		5.0	2.5	/experiments/knapen_AOT/AOT_stimuli/rescaled_final/0501_fw.mp4	0.0	89.7172737121582	
7	71.71882963180542	movie	1		295	5.0	2.5	/experiments/knapen_AOT/AOT_stimuli/rescaled_final/0501_fw.mp4	0.0	90.13368463516235	2.500441789627075
7	72.90256333351135	pulse	1	t		5.0	2.5	/experiments/knapen_AOT/AOT_stimuli/rescaled_final/0501_fw.mp4	0.0	91.31741833686829	
7	74.2192714214325	fix_post	2		12	5.0	2.5	/experiments/knapen_AOT/AOT_stimuli/rescaled_final/0501_fw.mp4	0.0	92.63412642478943	0.09999418258666992
8	74.31926560401917	fix_pre	0		120	6.0	2.5	/experiments/knapen_AOT/AOT_stimuli/rescaled_final/1259_fw.mp4	0.0	92.7341206073761	1.0085184574127197
8	74.50279760360718	pulse	0	t		6.0	2.5	/experiments/knapen_AOT/AOT_stimuli/rescaled_final/1259_fw.mp4	0.0	92.91765260696411	
8	75.32778406143188	movie	1		294	6.0	2.5	/experiments/knapen_AOT/AOT_stimuli/rescaled_final/1259_fw.mp4	0.0	93.74263906478882	2.4919984340667725
8	76.10334062576294	pulse	1	t		6.0	2.5	/experiments/knapen_AOT/AOT_stimuli/rescaled_final/1259_fw.mp4	0.0	94.51819562911987	
8	77.70322966575623	pulse	1	t		6.0	2.5	/experiments/knapen_AOT/AOT_stimuli/rescaled_final/1259_fw.mp4	0.0	96.11808466911316	
8	77.81978249549866	fix_post	2		12	6.0	2.5	/experiments/knapen_AOT/AOT_stimuli/rescaled_final/1259_fw.mp4	0.0	96.23463749885559	0.10003995895385742
9	77.91982245445251	fix_pre	0		120	7.0	2.5	blank	1.0	96.33467745780945	1.0001602172851562
9	78.91998267173767	movie	1		300	7.0	2.5	blank	1.0	97.3348376750946	2.500385046005249
9	79.30354285240173	pulse	1	t		7.0	2.5	blank	1.0	97.71839785575867	
9	80.90388417243958	pulse	1	t		7.0	2.5	blank	1.0	99.31873917579651	
9	81.42036771774292	fix_post	2		12	7.0	2.5	blank	1.0	99.83522272109985	0.10003113746643066
10	81.52039885520935	fix_pre	0		119	8.0	2.5	/experiments/knapen_AOT/AOT_stimuli/rescaled_final/0772_rv.mp4	0.0	99.93525385856628	1.000133752822876
10	82.50406742095947	pulse	0	t		8.0	2.5	/experiments/knapen_AOT/AOT_stimuli/rescaled_final/0772_rv.mp4	0.0	100.9189224243164	
10	82.52053260803223	movie	1		284	8.0	2.5	/experiments/knapen_AOT/AOT_stimuli/rescaled_final/0772_rv.mp4	0.0	100.93538761138916	2.5003645420074463
10	84.10371565818787	pulse	1	t		8.0	2.5	/experiments/knapen_AOT/AOT_stimuli/rescaled_final/0772_rv.mp4	0.0	102.5185706615448	
10	85.02089715003967	fix_post	2		12	8.0	2.5	/experiments/knapen_AOT/AOT_stimuli/rescaled_final/0772_rv.mp4	0.0	103.4357521533966	0.1000676155090332
11	85.1209647655487	fix_pre	0		120	9.0	2.5	/experiments/knapen_AOT/AOT_stimuli/rescaled_final/0681_fw.mp4	0.0	103.53581976890564	1.008453369140625
11	85.70461249351501	pulse	0	t		9.0	2.5	/experiments/knapen_AOT/AOT_stimuli/rescaled_final/0681_fw.mp4	0.0	104.11946749687195	
11	86.12941813468933	movie	1		275	9.0	2.5	/experiments/knapen_AOT/AOT_stimuli/rescaled_final/0681_fw.mp4	0.0	104.54427313804626	2.4920248985290527
11	87.30340552330017	pulse	1	t		9.0	2.5	/experiments/knapen_AOT/AOT_stimuli/rescaled_final/0681_fw.mp4	0.0	105.7182605266571	
11	88.62144303321838	fix_post	2		12	9.0	2.5	/experiments/knapen_AOT/AOT_stimuli/rescaled_final/0681_fw.mp4	0.0	107.03629803657532	0.10001397132873535
12	88.72145700454712	fix_pre	0		120	10.0	2.5	/experiments/knapen_AOT/AOT_stimuli/rescaled_final/1208_fw.mp4	0.0	107.13631200790405	1.0084905624389648
12	88.90520334243774	pulse	0	t		10.0	2.5	/experiments/knapen_AOT/AOT_stimuli/rescaled_final/1208_fw.mp4	0.0	107.32005834579468	
12	89.72994756698608	movie	1		270	10.0	2.5	/experiments/knapen_AOT/AOT_stimuli/rescaled_final/1208_fw.mp4	0.0	108.14480257034302	2.492037296295166
12	90.50325131416321	pulse	1	t		10.0	2.5	/experiments/knapen_AOT/AOT_stimuli/rescaled_final/1208_fw.mp4	0.0	108.91810631752014	
12	92.10344433784485	pulse	1	t		10.0	2.5	/experiments/knapen_AOT/AOT_stimuli/rescaled_final/1208_fw.mp4	0.0	110.51829934120178	
12	92.22198486328125	fix_post	2		12	10.0	2.5	/experiments/knapen_AOT/AOT_stimuli/rescaled_final/1208_fw.mp4	0.0	110.63683986663818	0.10001325607299805
13	92.32199811935425	fix_pre	0		120	11.0	2.5	/experiments/knapen_AOT/AOT_stimuli/rescaled_final/0654_fw.mp4	0.0	110.73685312271118	1.0085244178771973
13	93.33052253723145	movie	1		277	11.0	2.5	/experiments/knapen_AOT/AOT_stimuli/rescaled_final/0654_fw.mp4	0.0	111.74537754058838	2.491985321044922
13	93.7037832736969	pulse	1	t		11.0	2.5	/experiments/knapen_AOT/AOT_stimuli/rescaled_final/0654_fw.mp4	0.0	112.11863827705383	
13	95.30391526222229	pulse	1	t		11.0	2.5	/experiments/knapen_AOT/AOT_stimuli/rescaled_final/0654_fw.mp4	0.0	113.71877026557922	
13	95.82250785827637	fix_post	2		12	11.0	2.5	/experiments/knapen_AOT/AOT_stimuli/rescaled_final/0654_fw.mp4	0.0	114.2373628616333	0.10003948211669922
14	95.92254734039307	fix_pre	0		119	12.0	2.5	blank	1.0	114.33740234375	0.9917941093444824
14	96.90624952316284	pulse	0	t		12.0	2.5	blank	1.0	115.32110452651978	
14	96.91434144973755	movie	1		301	12.0	2.5	blank	1.0	115.32919645309448	2.508755922317505
14	98.50645136833191	pulse	1	t		12.0	2.5	blank	1.0	116.92130637168884	
14	99.42309737205505	fix_post	2		12	12.0	2.5	blank	1.0	117.83795237541199	0.10000276565551758
15	99.52310013771057	fix_pre	0		120	13.0	2.5	/experiments/knapen_AOT/AOT_stimuli/rescaled_final/0772_fw.mp4	0.0	117.9379551410675	1.008498191833496
15	100.10683465003967	pulse	0	t		13.0	2.5	/experiments/knapen_AOT/AOT_stimuli/rescaled_final/0772_fw.mp4	0.0	118.5216896533966	
15	100.53159832954407	movie	1		277	13.0	2.5	/experiments/knapen_AOT/AOT_stimuli/rescaled_final/0772_fw.mp4	0.0	118.946453332901	2.492002487182617
15	101.70531630516052	pulse	1	t		13.0	2.5	/experiments/knapen_AOT/AOT_stimuli/rescaled_final/0772_fw.mp4	0.0	120.12017130851746	
15	103.02360081672668	fix_post	2		12	13.0	2.5	/experiments/knapen_AOT/AOT_stimuli/rescaled_final/0772_fw.mp4	0.0	121.43845582008362	0.10001850128173828
16	103.12361931800842	fix_pre	0		120	14.0	2.5	/experiments/knapen_AOT/AOT_stimuli/rescaled_final/1839_rv.mp4	0.0	121.53847432136536	1.008500576019287
16	103.30755996704102	pulse	0	t		14.0	2.5	/experiments/knapen_AOT/AOT_stimuli/rescaled_final/1839_rv.mp4	0.0	121.72241497039795	
16	104.13211989402771	movie	1		282	14.0	2.5	/experiments/knapen_AOT/AOT_stimuli/rescaled_final/1839_rv.mp4	0.0	122.54697489738464	2.4921469688415527
16	104.90737581253052	pulse	1	t		14.0	2.5	/experiments/knapen_AOT/AOT_stimuli/rescaled_final/1839_rv.mp4	0.0	123.32223081588745	
16	106.50563311576843	pulse	1	t		14.0	2.5	/experiments/knapen_AOT/AOT_stimuli/rescaled_final/1839_rv.mp4	0.0	124.92048811912537	
16	106.62426686286926	fix_post	2		12	14.0	2.5	/experiments/knapen_AOT/AOT_stimuli/rescaled_final/1839_rv.mp4	0.0	125.0391218662262	0.09989571571350098
17	106.72416257858276	fix_pre	0		120	15.0	2.5	/experiments/knapen_AOT/AOT_stimuli/rescaled_final/1642_rv.mp4	0.0	125.1390175819397	1.0084869861602783
17	107.73264956474304	movie	1		286	15.0	2.5	/experiments/knapen_AOT/AOT_stimuli/rescaled_final/1642_rv.mp4	0.0	126.14750456809998	2.49204158782959
17	108.106281042099	pulse	1	t		15.0	2.5	/experiments/knapen_AOT/AOT_stimuli/rescaled_final/1642_rv.mp4	0.0	126.52113604545593	
17	109.70610523223877	pulse	1	t		15.0	2.5	/experiments/knapen_AOT/AOT_stimuli/rescaled_final/1642_rv.mp4	0.0	128.1209602355957	
17	110.22469115257263	fix_post	2		12	15.0	2.5	/experiments/knapen_AOT/AOT_stimuli/rescaled_final/1642_rv.mp4	0.0	128.63954615592957	0.10006499290466309
18	110.3247561454773	fix_pre	0		119	16.0	2.5	/experiments/knapen_AOT/AOT_stimuli/rescaled_final/0480_rv.mp4	0.0	128.73961114883423	1.0001070499420166
18	111.30846118927002	pulse	0	t		16.0	2.5	/experiments/knapen_AOT/AOT_stimuli/rescaled_final/0480_rv.mp4	0.0	129.72331619262695	
18	111.32486319541931	movie	1		290	16.0	2.5	/experiments/knapen_AOT/AOT_stimuli/rescaled_final/0480_rv.mp4	0.0	129.73971819877625	2.500387668609619
18	112.90680623054504	pulse	1	t		16.0	2.5	/experiments/knapen_AOT/AOT_stimuli/rescaled_final/0480_rv.mp4	0.0	131.32166123390198	
18	113.82525086402893	fix_post	2		12	16.0	2.5	/experiments/knapen_AOT/AOT_stimuli/rescaled_final/0480_rv.mp4	0.0	132.24010586738586	0.10002470016479492
19	113.92527556419373	fix_pre	0		120	17.0	2.5	/experiments/knapen_AOT/AOT_stimuli/rescaled_final/0905_fw.mp4	0.0	132.34013056755066	1.0084655284881592
19	114.50895953178406	pulse	0	t		17.0	2.5	/experiments/knapen_AOT/AOT_stimuli/rescaled_final/0905_fw.mp4	0.0	132.923814535141	
19	114.93374109268188	movie	1		278	17.0	2.5	/experiments/knapen_AOT/AOT_stimuli/rescaled_final/0905_fw.mp4	0.0	133.34859609603882	2.4920573234558105
19	116.10762286186218	pulse	1	t		17.0	2.5	/experiments/knapen_AOT/AOT_stimuli/rescaled_final/0905_fw.mp4	0.0	134.52247786521912	
19	117.4257984161377	fix_post	2		12	17.0	2.5	/experiments/knapen_AOT/AOT_stimuli/rescaled_final/0905_fw.mp4	0.0	135.84065341949463	0.10002660751342773
20	117.52582502365112	fix_pre	0		120	18.0	2.5	/experiments/knapen_AOT/AOT_stimuli/rescaled_final/2033_fw.mp4	0.0	135.94068002700806	1.0084662437438965
20	117.7094943523407	pulse	0	t		18.0	2.5	/experiments/knapen_AOT/AOT_stimuli/rescaled_final/2033_fw.mp4	0.0	136.12434935569763	
20	118.53429126739502	movie	1		276	18.0	2.5	/experiments/knapen_AOT/AOT_stimuli/rescaled_final/2033_fw.mp4	0.0	136.94914627075195	2.4921188354492188
20	119.30174708366394	pulse	1	t		18.0	2.5	/experiments/knapen_AOT/AOT_stimuli/rescaled_final/2033_fw.mp4	0.0	137.71660208702087	
20	120.90182256698608	pulse	1	t		18.0	2.5	/experiments/knapen_AOT/AOT_stimuli/rescaled_final/2033_fw.mp4	0.0	139.31667757034302	
20	121.02641010284424	fix_post	2		12	18.0	2.5	/experiments/knapen_AOT/AOT_stimuli/rescaled_final/2033_fw.mp4	0.0	139.44126510620117	0.09992432594299316
21	121.12633442878723	fix_pre	0		120	19.0	2.5	/experiments/knapen_AOT/AOT_stimuli/rescaled_final/1629_fw.mp4	0.0	139.54118943214417	1.00852370262146
21	122.13485813140869	movie	1		277	19.0	2.5	/experiments/knapen_AOT/AOT_stimuli/rescaled_final/1629_fw.mp4	0.0	140.54971313476562	2.492016315460205
21	122.50194573402405	pulse	1	t		19.0	2.5	/experiments/knapen_AOT/AOT_stimuli/rescaled_final/1629_fw.mp4	0.0	140.91680073738098	
21	124.10197186470032	pulse	1	t		19.0	2.5	/experiments/knapen_AOT/AOT_stimuli/rescaled_final/1629_fw.mp4	0.0	142.51682686805725	
21	124.6268744468689	fix_post	2		12	19.0	2.5	/experiments/knapen_AOT/AOT_stimuli/rescaled_final/1629_fw.mp4	0.0	143.04172945022583	0.10000824928283691
22	124.72688269615173	fix_pre	0		118	20.0	2.5	/experiments/knapen_AOT/AOT_stimuli/rescaled_final/0816_fw.mp4	0.0	143.14173769950867	0.9918160438537598
22	125.70225429534912	pulse	0	t		20.0	2.5	/experiments/knapen_AOT/AOT_stimuli/rescaled_final/0816_fw.mp4	0.0	144.11710929870605	
22	125.7186987400055	movie	1		285	20.0	2.5	/experiments/knapen_AOT/AOT_stimuli/rescaled_final/0816_fw.mp4	0.0	144.13355374336243	2.5003604888916016
22	127.30066061019897	pulse	1	t		20.0	2.5	/experiments/knapen_AOT/AOT_stimuli/rescaled_final/0816_fw.mp4	0.0	145.7155156135559	
22	128.2190592288971	fix_post	2		12	20.0	2.5	/experiments/knapen_AOT/AOT_stimuli/rescaled_final/0816_fw.mp4	0.0	146.63391423225403	0.10009121894836426
23	128.31915044784546	fix_pre	0		120	21.0	2.5	blank	1.0	146.7340054512024	1.0001447200775146
23	128.90271997451782	pulse	0	t		21.0	2.5	blank	1.0	147.31757497787476	
23	129.31929516792297	movie	1		300	21.0	2.5	blank	1.0	147.7341501712799	2.5002923011779785
23	130.50294184684753	pulse	1	t		21.0	2.5	blank	1.0	148.91779685020447	
23	131.81958746910095	fix_post	2		12	21.0	2.5	blank	1.0	150.23444247245789	0.1000819206237793
24	131.91966938972473	fix_pre	0		120	22.0	2.5	/experiments/knapen_AOT/AOT_stimuli/rescaled_final/0943_fw.mp4	0.0	150.33452439308167	1.008488416671753
24	132.10328769683838	pulse	0	t		22.0	2.5	/experiments/knapen_AOT/AOT_stimuli/rescaled_final/0943_fw.mp4	0.0	150.5181427001953	
24	132.92815780639648	movie	1		274	22.0	2.5	/experiments/knapen_AOT/AOT_stimuli/rescaled_final/0943_fw.mp4	0.0	151.34301280975342	2.492009162902832
24	133.70313715934753	pulse	1	t		22.0	2.5	/experiments/knapen_AOT/AOT_stimuli/rescaled_final/0943_fw.mp4	0.0	152.11799216270447	
24	135.30183839797974	pulse	1	t		22.0	2.5	/experiments/knapen_AOT/AOT_stimuli/rescaled_final/0943_fw.mp4	0.0	153.71669340133667	
24	135.42016696929932	fix_post	2		12	22.0	2.5	/experiments/knapen_AOT/AOT_stimuli/rescaled_final/0943_fw.mp4	0.0	153.83502197265625	0.09999895095825195
25	135.52016592025757	fix_pre	0		120	23.0	2.5	/experiments/knapen_AOT/AOT_stimuli/rescaled_final/0253_rv.mp4	0.0	153.9350209236145	1.0084915161132812
25	136.52865743637085	movie	1		274	23.0	2.5	/experiments/knapen_AOT/AOT_stimuli/rescaled_final/0253_rv.mp4	0.0	154.94351243972778	2.4920170307159424
25	136.9020493030548	pulse	1	t		23.0	2.5	/experiments/knapen_AOT/AOT_stimuli/rescaled_final/0253_rv.mp4	0.0	155.31690430641174	
25	138.5021207332611	pulse	1	t		23.0	2.5	/experiments/knapen_AOT/AOT_stimuli/rescaled_final/0253_rv.mp4	0.0	156.91697573661804	
25	139.0206744670868	fix_post	2		12	23.0	2.5	/experiments/knapen_AOT/AOT_stimuli/rescaled_final/0253_rv.mp4	0.0	157.43552947044373	0.10003447532653809
26	139.12070894241333	fix_pre	0		119	24.0	2.5	/experiments/knapen_AOT/AOT_stimuli/rescaled_final/0118_fw.mp4	0.0	157.53556394577026	1.0001847743988037
26	140.10446524620056	pulse	0	t		24.0	2.5	/experiments/knapen_AOT/AOT_stimuli/rescaled_final/0118_fw.mp4	0.0	158.5193202495575	
26	140.12089371681213	movie	1		262	24.0	2.5	/experiments/knapen_AOT/AOT_stimuli/rescaled_final/0118_fw.mp4	0.0	158.53574872016907	2.500403642654419
26	141.7033655643463	pulse	1	t		24.0	2.5	/experiments/knapen_AOT/AOT_stimuli/rescaled_final/0118_fw.mp4	0.0	160.11822056770325	
26	142.62129735946655	fix_post	2		12	24.0	2.5	/experiments/knapen_AOT/AOT_stimuli/rescaled_final/0118_fw.mp4	0.0	161.0361523628235	0.09998536109924316
27	142.7212827205658	fix_pre	0		120	25.0	2.5	/experiments/knapen_AOT/AOT_stimuli/rescaled_final/1370_fw.mp4	0.0	161.13613772392273	1.0084507465362549
27	143.3050982952118	pulse	0	t		25.0	2.5	/experiments/knapen_AOT/AOT_stimuli/rescaled_final/1370_fw.mp4	0.0	161.71995329856873	
27	143.72973346710205	movie	1		279	25.0	2.5	/experiments/knapen_AOT/AOT_stimuli/rescaled_final/1370_fw.mp4	0.0	162.14458847045898	2.4920332431793213
27	144.90414881706238	pulse	1	t		25.0	2.5	/experiments/knapen_AOT/AOT_stimuli/rescaled_final/1370_fw.mp4	0.0	163.3190038204193	
27	146.22176671028137	fix_post	2		12	25.0	2.5	/experiments/knapen_AOT/AOT_stimuli/rescaled_final/1370_fw.mp4	0.0	164.6366217136383	0.10017085075378418
28	146.32193756103516	fix_pre	0		120	26.0	2.5	/experiments/knapen_AOT/AOT_stimuli/rescaled_final/1532_fw.mp4	0.0	164.7367925643921	1.0083413124084473
28	146.505352973938	pulse	0	t		26.0	2.5	/experiments/knapen_AOT/AOT_stimuli/rescaled_final/1532_fw.mp4	0.0	164.92020797729492	
28	147.3302788734436	movie	1		273	26.0	2.5	/experiments/knapen_AOT/AOT_stimuli/rescaled_final/1532_fw.mp4	0.0	165.74513387680054	2.4920694828033447
28	148.10338759422302	pulse	1	t		26.0	2.5	/experiments/knapen_AOT/AOT_stimuli/rescaled_final/1532_fw.mp4	0.0	166.51824259757996	
28	149.70818662643433	pulse	1	t		26.0	2.5	/experiments/knapen_AOT/AOT_stimuli/rescaled_final/1532_fw.mp4	0.0	168.12304162979126	
28	149.82234835624695	fix_post	2		12	26.0	2.5	/experiments/knapen_AOT/AOT_stimuli/rescaled_final/1532_fw.mp4	0.0	168.23720335960388	0.10008025169372559
29	149.92242860794067	fix_pre	0		120	27.0	2.5	/experiments/knapen_AOT/AOT_stimuli/rescaled_final/2152_rv.mp4	0.0	168.3372836112976	1.0083932876586914
29	150.93082189559937	movie	1		271	27.0	2.5	/experiments/knapen_AOT/AOT_stimuli/rescaled_final/2152_rv.mp4	0.0	169.3456768989563	2.4922051429748535
29	151.30644369125366	pulse	1	t		27.0	2.5	/experiments/knapen_AOT/AOT_stimuli/rescaled_final/2152_rv.mp4	0.0	169.7212986946106	
29	152.90653252601624	pulse	1	t		27.0	2.5	/experiments/knapen_AOT/AOT_stimuli/rescaled_final/2152_rv.mp4	0.0	171.32138752937317	
29	153.42302703857422	fix_post	2		12	27.0	2.5	/experiments/knapen_AOT/AOT_stimuli/rescaled_final/2152_rv.mp4	0.0	171.83788204193115	0.09984326362609863
30	153.52287030220032	fix_pre	0		119	28.0	2.5	blank	1.0	171.93772530555725	0.9918465614318848
30	154.50664472579956	pulse	0	t		28.0	2.5	blank	1.0	172.9214997291565	
30	154.5147168636322	movie	1		301	28.0	2.5	blank	1.0	172.92957186698914	2.5086708068847656
30	156.10678935050964	pulse	1	t		28.0	2.5	blank	1.0	174.52164435386658	
30	157.02338767051697	fix_post	2		12	28.0	2.5	blank	1.0	175.4382426738739	0.10006523132324219
31	157.1234529018402	fix_pre	0		120	29.0	2.5	/experiments/knapen_AOT/AOT_stimuli/rescaled_final/0598_rv.mp4	0.0	175.53830790519714	1.0085415840148926
31	157.70731496810913	pulse	0	t		29.0	2.5	/experiments/knapen_AOT/AOT_stimuli/rescaled_final/0598_rv.mp4	0.0	176.12216997146606	
31	158.1319944858551	movie	1		283	29.0	2.5	/experiments/knapen_AOT/AOT_stimuli/rescaled_final/0598_rv.mp4	0.0	176.54684948921204	2.4919650554656982
31	159.30554008483887	pulse	1	t		29.0	2.5	/experiments/knapen_AOT/AOT_stimuli/rescaled_final/0598_rv.mp4	0.0	177.7203950881958	
31	160.6239595413208	fix_post	2		12	29.0	2.5	/experiments/knapen_AOT/AOT_stimuli/rescaled_final/0598_rv.mp4	0.0	179.03881454467773	0.09998846054077148
32	160.72394800186157	fix_pre	0		120	30.0	2.5	/experiments/knapen_AOT/AOT_stimuli/rescaled_final/2174_fw.mp4	0.0	179.1388030052185	1.008500337600708
32	160.90753030776978	pulse	0	t		30.0	2.5	/experiments/knapen_AOT/AOT_stimuli/rescaled_final/2174_fw.mp4	0.0	179.3223853111267	
32	161.73244833946228	movie	1		272	30.0	2.5	/experiments/knapen_AOT/AOT_stimuli/rescaled_final/2174_fw.mp4	0.0	180.1473033428192	2.492027759552002
32	162.50551509857178	pulse	1	t		30.0	2.5	/experiments/knapen_AOT/AOT_stimuli/rescaled_final/2174_fw.mp4	0.0	180.9203701019287	
32	164.10623693466187	pulse	1	t		30.0	2.5	/experiments/knapen_AOT/AOT_stimuli/rescaled_final/2174_fw.mp4	0.0	182.5210919380188	
32	164.22447609901428	fix_post	2		12	30.0	2.5	/experiments/knapen_AOT/AOT_stimuli/rescaled_final/2174_fw.mp4	0.0	182.63933110237122	0.10019350051879883
33	164.32466959953308	fix_pre	0		120	31.0	2.5	/experiments/knapen_AOT/AOT_stimuli/rescaled_final/1558_rv.mp4	0.0	182.73952460289001	1.0083365440368652
33	165.33300614356995	movie	1		283	31.0	2.5	/experiments/knapen_AOT/AOT_stimuli/rescaled_final/1558_rv.mp4	0.0	183.74786114692688	2.4920079708099365
33	165.70860171318054	pulse	1	t		31.0	2.5	/experiments/knapen_AOT/AOT_stimuli/rescaled_final/1558_rv.mp4	0.0	184.12345671653748	
33	167.30604577064514	pulse	1	t		31.0	2.5	/experiments/knapen_AOT/AOT_stimuli/rescaled_final/1558_rv.mp4	0.0	185.72090077400208	
33	167.82501411437988	fix_post	2		12	31.0	2.5	/experiments/knapen_AOT/AOT_stimuli/rescaled_final/1558_rv.mp4	0.0	186.23986911773682	0.10001516342163086
34	167.9250292778015	fix_pre	0		119	32.0	2.5	/experiments/knapen_AOT/AOT_stimuli/rescaled_final/1661_rv.mp4	0.0	186.33988428115845	1.000164270401001
34	168.90102672576904	pulse	0	t		32.0	2.5	/experiments/knapen_AOT/AOT_stimuli/rescaled_final/1661_rv.mp4	0.0	187.31588172912598	
34	168.92519354820251	movie	1		283	32.0	2.5	/experiments/knapen_AOT/AOT_stimuli/rescaled_final/1661_rv.mp4	0.0	187.34004855155945	2.500373125076294
34	170.50740361213684	pulse	1	t		32.0	2.5	/experiments/knapen_AOT/AOT_stimuli/rescaled_final/1661_rv.mp4	0.0	188.92225861549377	
34	171.4255666732788	fix_post	2		12	32.0	2.5	/experiments/knapen_AOT/AOT_stimuli/rescaled_final/1661_rv.mp4	0.0	189.84042167663574	0.10001373291015625
35	171.52558040618896	fix_pre	0		120	33.0	2.5	/experiments/knapen_AOT/AOT_stimuli/rescaled_final/0034_fw.mp4	0.0	189.9404354095459	1.0084855556488037
35	172.10101199150085	pulse	0	t		33.0	2.5	/experiments/knapen_AOT/AOT_stimuli/rescaled_final/0034_fw.mp4	0.0	190.5158669948578	
35	172.53406596183777	movie	1		265	33.0	2.5	/experiments/knapen_AOT/AOT_stimuli/rescaled_final/0034_fw.mp4	0.0	190.9489209651947	2.4920477867126465
35	173.70148992538452	pulse	1	t		33.0	2.5	/experiments/knapen_AOT/AOT_stimuli/rescaled_final/0034_fw.mp4	0.0	192.11634492874146	
35	175.02611374855042	fix_post	2		12	33.0	2.5	/experiments/knapen_AOT/AOT_stimuli/rescaled_final/0034_fw.mp4	0.0	193.44096875190735	0.10000419616699219
36	175.1261179447174	fix_pre	0		120	34.0	2.5	/experiments/knapen_AOT/AOT_stimuli/rescaled_final/0674_fw.mp4	0.0	193.54097294807434	1.0085115432739258
36	175.3013699054718	pulse	0	t		34.0	2.5	/experiments/knapen_AOT/AOT_stimuli/rescaled_final/0674_fw.mp4	0.0	193.71622490882874	
36	176.13462948799133	movie	1		259	34.0	2.5	/experiments/knapen_AOT/AOT_stimuli/rescaled_final/0674_fw.mp4	0.0	194.54948449134827	2.4920167922973633
36	176.9017632007599	pulse	1	t		34.0	2.5	/experiments/knapen_AOT/AOT_stimuli/rescaled_final/0674_fw.mp4	0.0	195.31661820411682	
36	178.50181651115417	pulse	1	t		34.0	2.5	/experiments/knapen_AOT/AOT_stimuli/rescaled_final/0674_fw.mp4	0.0	196.9166715145111	
36	178.6266462802887	fix_post	2		12	34.0	2.5	/experiments/knapen_AOT/AOT_stimuli/rescaled_final/0674_fw.mp4	0.0	197.04150128364563	0.10002422332763672
37	178.72667050361633	fix_pre	0		120	35.0	2.5	blank	1.0	197.14152550697327	1.0001416206359863
37	179.72681212425232	movie	1		300	35.0	2.5	blank	1.0	198.14166712760925	2.5003819465637207
37	180.1021602153778	pulse	1	t		35.0	2.5	blank	1.0	198.51701521873474	
37	181.7023310661316	pulse	1	t		35.0	2.5	blank	1.0	200.11718606948853	
37	182.22719407081604	fix_post	2		12	35.0	2.5	blank	1.0	200.64204907417297	0.10008072853088379
38	182.32727479934692	fix_pre	0		118	36.0	2.5	/experiments/knapen_AOT/AOT_stimuli/rescaled_final/1259_rv.mp4	0.0	200.74212980270386	0.9917497634887695
38	183.3025712966919	pulse	0	t		36.0	2.5	/experiments/knapen_AOT/AOT_stimuli/rescaled_final/1259_rv.mp4	0.0	201.71742630004883	
38	183.3190245628357	movie	1		263	36.0	2.5	/experiments/knapen_AOT/AOT_stimuli/rescaled_final/1259_rv.mp4	0.0	201.73387956619263	2.5004236698150635
38	184.90124797821045	pulse	1	t		36.0	2.5	/experiments/knapen_AOT/AOT_stimuli/rescaled_final/1259_rv.mp4	0.0	203.31610298156738	
38	185.81944823265076	fix_post	2		12	36.0	2.5	/experiments/knapen_AOT/AOT_stimuli/rescaled_final/1259_rv.mp4	0.0	204.2343032360077	0.10012340545654297
39	185.9195716381073	fix_pre	0		120	37.0	2.5	/experiments/knapen_AOT/AOT_stimuli/rescaled_final/0132_rv.mp4	0.0	204.33442664146423	1.0083277225494385
39	186.5030608177185	pulse	0	t		37.0	2.5	/experiments/knapen_AOT/AOT_stimuli/rescaled_final/0132_rv.mp4	0.0	204.91791582107544	
39	186.92789936065674	movie	1		277	37.0	2.5	/experiments/knapen_AOT/AOT_stimuli/rescaled_final/0132_rv.mp4	0.0	205.34275436401367	2.492027997970581
39	188.10114097595215	pulse	1	t		37.0	2.5	/experiments/knapen_AOT/AOT_stimuli/rescaled_final/0132_rv.mp4	0.0	206.51599597930908	
39	189.41992735862732	fix_post	2		12	37.0	2.5	/experiments/knapen_AOT/AOT_stimuli/rescaled_final/0132_rv.mp4	0.0	207.83478236198425	0.10002422332763672
40	189.51995158195496	fix_pre	0		120	38.0	2.5	/experiments/knapen_AOT/AOT_stimuli/rescaled_final/0949_fw.mp4	0.0	207.9348065853119	1.008498191833496
40	189.7035174369812	pulse	0	t		38.0	2.5	/experiments/knapen_AOT/AOT_stimuli/rescaled_final/0949_fw.mp4	0.0	208.11837244033813	
40	190.52844977378845	movie	1		269	38.0	2.5	/experiments/knapen_AOT/AOT_stimuli/rescaled_final/0949_fw.mp4	0.0	208.94330477714539	2.4920332431793213
40	191.30185055732727	pulse	1	t		38.0	2.5	/experiments/knapen_AOT/AOT_stimuli/rescaled_final/0949_fw.mp4	0.0	209.7167055606842	
40	192.90232300758362	pulse	1	t		38.0	2.5	/experiments/knapen_AOT/AOT_stimuli/rescaled_final/0949_fw.mp4	0.0	211.31717801094055	
40	193.02048301696777	fix_post	2		12	38.0	2.5	/experiments/knapen_AOT/AOT_stimuli/rescaled_final/0949_fw.mp4	0.0	211.4353380203247	0.10003066062927246
41	193.12051367759705	fix_pre	0		120	39.0	2.5	/experiments/knapen_AOT/AOT_stimuli/rescaled_final/1336_rv.mp4	0.0	211.53536868095398	1.0084807872772217
41	194.12899446487427	movie	1		261	39.0	2.5	/experiments/knapen_AOT/AOT_stimuli/rescaled_final/1336_rv.mp4	0.0	212.5438494682312	2.492093324661255
41	194.5043797492981	pulse	1	t		39.0	2.5	/experiments/knapen_AOT/AOT_stimuli/rescaled_final/1336_rv.mp4	0.0	212.91923475265503	
41	196.10427045822144	pulse	1	t		39.0	2.5	/experiments/knapen_AOT/AOT_stimuli/rescaled_final/1336_rv.mp4	0.0	214.51912546157837	
41	196.62108778953552	fix_post	2		12	39.0	2.5	/experiments/knapen_AOT/AOT_stimuli/rescaled_final/1336_rv.mp4	0.0	215.03594279289246	0.09991574287414551
42	196.72100353240967	fix_pre	0		119	40.0	2.5	/experiments/knapen_AOT/AOT_stimuli/rescaled_final/1803_rv.mp4	0.0	215.1358585357666	1.008683443069458
42	197.70478296279907	pulse	0	t		40.0	2.5	/experiments/knapen_AOT/AOT_stimuli/rescaled_final/1803_rv.mp4	0.0	216.119637966156	
42	197.72968697547913	movie	1		260	40.0	2.5	/experiments/knapen_AOT/AOT_stimuli/rescaled_final/1803_rv.mp4	0.0	216.14454197883606	2.4918928146362305
42	199.30310320854187	pulse	1	t		40.0	2.5	/experiments/knapen_AOT/AOT_stimuli/rescaled_final/1803_rv.mp4	0.0	217.7179582118988	
42	200.22157979011536	fix_post	2		12	40.0	2.5	/experiments/knapen_AOT/AOT_stimuli/rescaled_final/1803_rv.mp4	0.0	218.6364347934723	0.10001277923583984
43	200.3215925693512	fix_pre	0		120	41.0	2.5	blank	1.0	218.73644757270813	1.0001561641693115
43	200.90522813796997	pulse	0	t		41.0	2.5	blank	1.0	219.3200831413269	
43	201.3217487335205	movie	1		300	41.0	2.5	blank	1.0	219.73660373687744	2.5004351139068604
43	202.50558710098267	pulse	1	t		41.0	2.5	blank	1.0	220.9204421043396	
43	203.82218384742737	fix_post	2		12	41.0	2.5	blank	1.0	222.2370388507843	0.09992456436157227
44	203.92210841178894	fix_pre	0		120	42.0	2.5	/experiments/knapen_AOT/AOT_stimuli/rescaled_final/0943_fw.mp4	0.0	222.33696341514587	1.0085194110870361
44	204.10585379600525	pulse	0	t		42.0	2.5	/experiments/knapen_AOT/AOT_stimuli/rescaled_final/0943_fw.mp4	0.0	222.52070879936218	
44	204.93062782287598	movie	1		265	42.0	2.5	/experiments/knapen_AOT/AOT_stimuli/rescaled_final/0943_fw.mp4	0.0	223.3454828262329	2.4920153617858887
44	205.70424628257751	pulse	1	t		42.0	2.5	/experiments/knapen_AOT/AOT_stimuli/rescaled_final/0943_fw.mp4	0.0	224.11910128593445	
44	207.30424809455872	pulse	1	t		42.0	2.5	/experiments/knapen_AOT/AOT_stimuli/rescaled_final/0943_fw.mp4	0.0	225.71910309791565	
44	207.42264318466187	fix_post	2		12	42.0	2.5	/experiments/knapen_AOT/AOT_stimuli/rescaled_final/0943_fw.mp4	0.0	225.8374981880188	0.10007977485656738
45	207.52272295951843	fix_pre	0		120	43.0	2.5	/experiments/knapen_AOT/AOT_stimuli/rescaled_final/1370_fw.mp4	0.0	225.93757796287537	1.0167784690856934
45	208.53950142860413	movie	1		265	43.0	2.5	/experiments/knapen_AOT/AOT_stimuli/rescaled_final/1370_fw.mp4	0.0	226.95435643196106	2.48380708694458
45	208.90676188468933	pulse	1	t		43.0	2.5	/experiments/knapen_AOT/AOT_stimuli/rescaled_final/1370_fw.mp4	0.0	227.32161688804626	
45	210.50675868988037	pulse	1	t		43.0	2.5	/experiments/knapen_AOT/AOT_stimuli/rescaled_final/1370_fw.mp4	0.0	228.9216136932373	
45	211.0233085155487	fix_post	2		12	43.0	2.5	/experiments/knapen_AOT/AOT_stimuli/rescaled_final/1370_fw.mp4	0.0	229.43816351890564	0.09990382194519043
46	211.1232123374939	fix_pre	0		119	44.0	2.5	/experiments/knapen_AOT/AOT_stimuli/rescaled_final/1615_fw.mp4	0.0	229.53806734085083	1.000183343887329
46	212.10694098472595	pulse	0	t		44.0	2.5	/experiments/knapen_AOT/AOT_stimuli/rescaled_final/1615_fw.mp4	0.0	230.52179598808289	
46	212.12339568138123	movie	1		270	44.0	2.5	/experiments/knapen_AOT/AOT_stimuli/rescaled_final/1615_fw.mp4	0.0	230.53825068473816	2.500333786010742
46	213.7075390815735	pulse	1	t		44.0	2.5	/experiments/knapen_AOT/AOT_stimuli/rescaled_final/1615_fw.mp4	0.0	232.12239408493042	
46	214.62372946739197	fix_post	2		12	44.0	2.5	/experiments/knapen_AOT/AOT_stimuli/rescaled_final/1615_fw.mp4	0.0	233.0385844707489	0.10002875328063965
47	214.7237582206726	fix_pre	0		120	45.0	2.5	/experiments/knapen_AOT/AOT_stimuli/rescaled_final/1535_rv.mp4	0.0	233.13861322402954	1.016810655593872
47	215.30740427970886	pulse	0	t		45.0	2.5	/experiments/knapen_AOT/AOT_stimuli/rescaled_final/1535_rv.mp4	0.0	233.7222592830658	
47	215.74056887626648	movie	1		258	45.0	2.5	/experiments/knapen_AOT/AOT_stimuli/rescaled_final/1535_rv.mp4	0.0	234.1554238796234	2.4837162494659424
47	216.90566062927246	pulse	1	t		45.0	2.5	/experiments/knapen_AOT/AOT_stimuli/rescaled_final/1535_rv.mp4	0.0	235.3205156326294	
47	218.22428512573242	fix_post	2		12	45.0	2.5	/experiments/knapen_AOT/AOT_stimuli/rescaled_final/1535_rv.mp4	0.0	236.63914012908936	0.1000509262084961
48	218.32433605194092	fix_pre	0		120	46.0	2.5	/experiments/knapen_AOT/AOT_stimuli/rescaled_final/2114_fw.mp4	0.0	236.73919105529785	1.0084373950958252
48	218.50784492492676	pulse	0	t		46.0	2.5	/experiments/knapen_AOT/AOT_stimuli/rescaled_final/2114_fw.mp4	0.0	236.9226999282837	
48	219.33277344703674	movie	1		189	46.0	2.5	/experiments/knapen_AOT/AOT_stimuli/rescaled_final/2114_fw.mp4	0.0	237.74762845039368	2.492037773132324
48	220.68572354316711	pulse	1	t		46.0	2.5	/experiments/knapen_AOT/AOT_stimuli/rescaled_final/2114_fw.mp4	0.0	239.10057854652405	
48	221.70648527145386	pulse	1	t		46.0	2.5	/experiments/knapen_AOT/AOT_stimuli/rescaled_final/2114_fw.mp4	0.0	240.1213402748108	
48	221.82481122016907	fix_post	2		12	46.0	2.5	/experiments/knapen_AOT/AOT_stimuli/rescaled_final/2114_fw.mp4	0.0	240.239666223526	0.10001993179321289
49	221.92483115196228	fix_pre	0		120	47.0	2.5	/experiments/knapen_AOT/AOT_stimuli/rescaled_final/1635_fw.mp4	0.0	240.3396861553192	1.0168077945709229
49	222.9416389465332	movie	1		276	47.0	2.5	/experiments/knapen_AOT/AOT_stimuli/rescaled_final/1635_fw.mp4	0.0	241.35649394989014	2.4837429523468018
49	223.31004929542542	pulse	1	t		47.0	2.5	/experiments/knapen_AOT/AOT_stimuli/rescaled_final/1635_fw.mp4	0.0	241.72490429878235	
49	224.90657472610474	pulse	1	t		47.0	2.5	/experiments/knapen_AOT/AOT_stimuli/rescaled_final/1635_fw.mp4	0.0	243.32142972946167	
49	225.42538189888	fix_post	2		12	47.0	2.5	/experiments/knapen_AOT/AOT_stimuli/rescaled_final/1635_fw.mp4	0.0	243.84023690223694	0.09999918937683105
50	225.52538108825684	fix_pre	0		119	48.0	2.5	/experiments/knapen_AOT/AOT_stimuli/rescaled_final/2136_fw.mp4	0.0	243.94023609161377	1.0168426036834717
50	226.50906825065613	pulse	0	t		48.0	2.5	/experiments/knapen_AOT/AOT_stimuli/rescaled_final/2136_fw.mp4	0.0	244.92392325401306	
50	226.5422236919403	movie	1		257	48.0	2.5	/experiments/knapen_AOT/AOT_stimuli/rescaled_final/2136_fw.mp4	0.0	244.95707869529724	2.4836812019348145
50	228.10785555839539	pulse	1	t		48.0	2.5	/experiments/knapen_AOT/AOT_stimuli/rescaled_final/2136_fw.mp4	0.0	246.52271056175232	
50	229.02590489387512	fix_post	2		12	48.0	2.5	/experiments/knapen_AOT/AOT_stimuli/rescaled_final/2136_fw.mp4	0.0	247.44075989723206	0.10006380081176758
51	229.1259686946869	fix_pre	0		120	49.0	2.5	blank	1.0	247.54082369804382	1.0002787113189697
51	229.70164036750793	pulse	0	t		49.0	2.5	blank	1.0	248.11649537086487	
51	230.12624740600586	movie	1		300	49.0	2.5	blank	1.0	248.5411024093628	2.5001771450042725
51	231.30152702331543	pulse	1	t		49.0	2.5	blank	1.0	249.71638202667236	
51	232.62642455101013	fix_post	2		12	49.0	2.5	blank	1.0	251.04127955436707	0.10002422332763672
52	232.72644877433777	fix_pre	0		120	50.0	2.5	/experiments/knapen_AOT/AOT_stimuli/rescaled_final/0591_rv.mp4	0.0	251.1413037776947	1.0251786708831787
52	232.9017038345337	pulse	0	t		50.0	2.5	/experiments/knapen_AOT/AOT_stimuli/rescaled_final/0591_rv.mp4	0.0	251.31655883789062	
52	233.75162744522095	movie	1		269	50.0	2.5	/experiments/knapen_AOT/AOT_stimuli/rescaled_final/0591_rv.mp4	0.0	252.16648244857788	2.4753947257995605
52	234.50192761421204	pulse	1	t		50.0	2.5	/experiments/knapen_AOT/AOT_stimuli/rescaled_final/0591_rv.mp4	0.0	252.91678261756897	
52	236.10234785079956	pulse	1	t		50.0	2.5	/experiments/knapen_AOT/AOT_stimuli/rescaled_final/0591_rv.mp4	0.0	254.5172028541565	
52	236.2270221710205	fix_post	2		12	50.0	2.5	/experiments/knapen_AOT/AOT_stimuli/rescaled_final/0591_rv.mp4	0.0	254.64187717437744	0.09999513626098633
53	236.3270173072815	fix_pre	0		120	51.0	2.5	/experiments/knapen_AOT/AOT_stimuli/rescaled_final/1937_rv.mp4	0.0	254.74187231063843	1.0253357887268066
53	237.3523530960083	movie	1		261	51.0	2.5	/experiments/knapen_AOT/AOT_stimuli/rescaled_final/1937_rv.mp4	0.0	255.76720809936523	2.475173234939575
53	237.70224618911743	pulse	1	t		51.0	2.5	/experiments/knapen_AOT/AOT_stimuli/rescaled_final/1937_rv.mp4	0.0	256.11710119247437	
53	239.3026523590088	pulse	1	t		51.0	2.5	/experiments/knapen_AOT/AOT_stimuli/rescaled_final/1937_rv.mp4	0.0	257.7175073623657	
53	239.82752633094788	fix_post	2		12	51.0	2.5	/experiments/knapen_AOT/AOT_stimuli/rescaled_final/1937_rv.mp4	0.0	258.2423813343048	0.10003304481506348
54	239.92755937576294	fix_pre	0		118	52.0	2.5	/experiments/knapen_AOT/AOT_stimuli/rescaled_final/0633_rv.mp4	0.0	258.3424143791199	1.008483648300171
54	240.90290212631226	pulse	0	t		52.0	2.5	/experiments/knapen_AOT/AOT_stimuli/rescaled_final/0633_rv.mp4	0.0	259.3177571296692	
54	240.9360430240631	movie	1		270	52.0	2.5	/experiments/knapen_AOT/AOT_stimuli/rescaled_final/0633_rv.mp4	0.0	259.35089802742004	2.4836809635162354
54	242.50317907333374	pulse	1	t		52.0	2.5	/experiments/knapen_AOT/AOT_stimuli/rescaled_final/0633_rv.mp4	0.0	260.9180340766907	
54	243.41972398757935	fix_post	2		12	52.0	2.5	/experiments/knapen_AOT/AOT_stimuli/rescaled_final/0633_rv.mp4	0.0	261.8345789909363	0.10004520416259766
55	243.51976919174194	fix_pre	0		120	53.0	2.5	/experiments/knapen_AOT/AOT_stimuli/rescaled_final/1655_rv.mp4	0.0	261.9346241950989	1.016810417175293
55	244.1033751964569	pulse	0	t		53.0	2.5	/experiments/knapen_AOT/AOT_stimuli/rescaled_final/1655_rv.mp4	0.0	262.51823019981384	
55	244.53657960891724	movie	1		283	53.0	2.5	/experiments/knapen_AOT/AOT_stimuli/rescaled_final/1655_rv.mp4	0.0	262.95143461227417	2.483720541000366
55	245.70161724090576	pulse	1	t		53.0	2.5	/experiments/knapen_AOT/AOT_stimuli/rescaled_final/1655_rv.mp4	0.0	264.1164722442627	
55	247.0203001499176	fix_post	2		12	53.0	2.5	/experiments/knapen_AOT/AOT_stimuli/rescaled_final/1655_rv.mp4	0.0	265.43515515327454	0.10006380081176758
56	247.12036395072937	fix_pre	0		120	54.0	2.5	/experiments/knapen_AOT/AOT_stimuli/rescaled_final/1880_rv.mp4	0.0	265.5352189540863	1.0251247882843018
56	247.30393886566162	pulse	0	t		54.0	2.5	/experiments/knapen_AOT/AOT_stimuli/rescaled_final/1880_rv.mp4	0.0	265.71879386901855	
56	248.14548873901367	movie	1		274	54.0	2.5	/experiments/knapen_AOT/AOT_stimuli/rescaled_final/1880_rv.mp4	0.0	266.5603437423706	2.475358724594116
56	248.9019501209259	pulse	1	t		54.0	2.5	/experiments/knapen_AOT/AOT_stimuli/rescaled_final/1880_rv.mp4	0.0	267.31680512428284	
56	250.50222754478455	pulse	1	t		54.0	2.5	/experiments/knapen_AOT/AOT_stimuli/rescaled_final/1880_rv.mp4	0.0	268.9170825481415	
56	250.6208474636078	fix_post	2		12	54.0	2.5	/experiments/knapen_AOT/AOT_stimuli/rescaled_final/1880_rv.mp4	0.0	269.0357024669647	0.09998083114624023
57	250.72082829475403	fix_pre	0		120	55.0	2.5	blank	1.0	269.13568329811096	1.0001435279846191
57	251.72097182273865	movie	1		300	55.0	2.5	blank	1.0	270.1358268260956	2.500391721725464
57	252.10457849502563	pulse	1	t		55.0	2.5	blank	1.0	270.51943349838257	
57	253.70477533340454	pulse	1	t		55.0	2.5	blank	1.0	272.1196303367615	
57	254.2213635444641	fix_post	2		12	55.0	2.5	blank	1.0	272.63621854782104	0.10001111030578613
58	254.3213746547699	fix_pre	0		119	56.0	2.5	/experiments/knapen_AOT/AOT_stimuli/rescaled_final/0530_fw.mp4	0.0	272.73622965812683	1.00850510597229
58	255.30511021614075	pulse	0	t		56.0	2.5	/experiments/knapen_AOT/AOT_stimuli/rescaled_final/0530_fw.mp4	0.0	273.7199652194977	
58	255.3298797607422	movie	1		273	56.0	2.5	/experiments/knapen_AOT/AOT_stimuli/rescaled_final/0530_fw.mp4	0.0	273.7447347640991	2.4920175075531006
58	256.90366077423096	pulse	1	t		56.0	2.5	/experiments/knapen_AOT/AOT_stimuli/rescaled_final/0530_fw.mp4	0.0	275.3185157775879	
58	257.8218972682953	fix_post	2		12	56.0	2.5	/experiments/knapen_AOT/AOT_stimuli/rescaled_final/0530_fw.mp4	0.0	276.2367522716522	0.10000967979431152
59	257.9219069480896	fix_pre	0		120	57.0	2.5	/experiments/knapen_AOT/AOT_stimuli/rescaled_final/1208_rv.mp4	0.0	276.33676195144653	1.0168390274047852
59	258.505610704422	pulse	0	t		57.0	2.5	/experiments/knapen_AOT/AOT_stimuli/rescaled_final/1208_rv.mp4	0.0	276.92046570777893	
59	258.9387459754944	movie	1		258	57.0	2.5	/experiments/knapen_AOT/AOT_stimuli/rescaled_final/1208_rv.mp4	0.0	277.3536009788513	2.483912944793701
59	260.10602164268494	pulse	1	t		57.0	2.5	/experiments/knapen_AOT/AOT_stimuli/rescaled_final/1208_rv.mp4	0.0	278.52087664604187	
59	261.4226589202881	fix_post	2		12	57.0	2.5	/experiments/knapen_AOT/AOT_stimuli/rescaled_final/1208_rv.mp4	0.0	279.837513923645	0.09980416297912598
60	261.5224630832672	fix_pre	0		120	58.0	2.5	/experiments/knapen_AOT/AOT_stimuli/rescaled_final/0030_rv.mp4	0.0	279.93731808662415	1.0168499946594238
60	261.70601773262024	pulse	0	t		58.0	2.5	/experiments/knapen_AOT/AOT_stimuli/rescaled_final/0030_rv.mp4	0.0	280.1208727359772	
60	262.53931307792664	movie	1		271	58.0	2.5	/experiments/knapen_AOT/AOT_stimuli/rescaled_final/0030_rv.mp4	0.0	280.95416808128357	2.4836556911468506
60	263.3045506477356	pulse	1	t		58.0	2.5	/experiments/knapen_AOT/AOT_stimuli/rescaled_final/0030_rv.mp4	0.0	281.71940565109253	
60	264.9066848754883	pulse	1	t		58.0	2.5	/experiments/knapen_AOT/AOT_stimuli/rescaled_final/0030_rv.mp4	0.0	283.3215398788452	
60	265.0229687690735	fix_post	2		12	58.0	2.5	/experiments/knapen_AOT/AOT_stimuli/rescaled_final/0030_rv.mp4	0.0	283.4378237724304	0.10001540184020996
61	265.1229841709137	fix_pre	0		120	59.0	2.5	/experiments/knapen_AOT/AOT_stimuli/rescaled_final/0681_rv.mp4	0.0	283.53783917427063	1.0168402194976807
61	266.1398243904114	movie	1		276	59.0	2.5	/experiments/knapen_AOT/AOT_stimuli/rescaled_final/0681_rv.mp4	0.0	284.5546793937683	2.4837167263031006
61	266.50701689720154	pulse	1	t		59.0	2.5	/experiments/knapen_AOT/AOT_stimuli/rescaled_final/0681_rv.mp4	0.0	284.9218719005585	
61	268.1070499420166	pulse	1	t		59.0	2.5	/experiments/knapen_AOT/AOT_stimuli/rescaled_final/0681_rv.mp4	0.0	286.52190494537354	
61	268.6235411167145	fix_post	2		12	59.0	2.5	/experiments/knapen_AOT/AOT_stimuli/rescaled_final/0681_rv.mp4	0.0	287.0383961200714	0.10002732276916504
62	268.72356843948364	fix_pre	0		119	60.0	2.5	/experiments/knapen_AOT/AOT_stimuli/rescaled_final/1682_fw.mp4	0.0	287.1384234428406	1.0170009136199951
62	269.70727157592773	pulse	0	t		60.0	2.5	/experiments/knapen_AOT/AOT_stimuli/rescaled_final/1682_fw.mp4	0.0	288.12212657928467	
62	269.74056935310364	movie	1		274	60.0	2.5	/experiments/knapen_AOT/AOT_stimuli/rescaled_final/1682_fw.mp4	0.0	288.15542435646057	2.4834840297698975
62	271.30619645118713	pulse	1	t		60.0	2.5	/experiments/knapen_AOT/AOT_stimuli/rescaled_final/1682_fw.mp4	0.0	289.72105145454407	
62	272.22405338287354	fix_post	2		12	60.0	2.5	/experiments/knapen_AOT/AOT_stimuli/rescaled_final/1682_fw.mp4	0.0	290.63890838623047	0.10005021095275879
63	272.3241035938263	fix_pre	0		120	61.0	2.5	/experiments/knapen_AOT/AOT_stimuli/rescaled_final/1381_fw.mp4	0.0	290.7389585971832	1.025193214416504
63	272.9077146053314	pulse	0	t		61.0	2.5	/experiments/knapen_AOT/AOT_stimuli/rescaled_final/1381_fw.mp4	0.0	291.32256960868835	
63	273.3492968082428	movie	1		277	61.0	2.5	/experiments/knapen_AOT/AOT_stimuli/rescaled_final/1381_fw.mp4	0.0	291.76415181159973	2.4753410816192627
63	274.50593614578247	pulse	1	t		61.0	2.5	/experiments/knapen_AOT/AOT_stimuli/rescaled_final/1381_fw.mp4	0.0	292.9207911491394	
63	275.82463788986206	fix_post	2		12	61.0	2.5	/experiments/knapen_AOT/AOT_stimuli/rescaled_final/1381_fw.mp4	0.0	294.239492893219	0.10001873970031738
64	275.9246566295624	fix_pre	0		120	62.0	2.5	blank	1.0	294.3395116329193	1.0001025199890137
64	276.1081962585449	pulse	0	t		62.0	2.5	blank	1.0	294.52305126190186	
64	276.9247591495514	movie	1		300	62.0	2.5	blank	1.0	295.3396141529083	2.500368595123291
64	277.7085311412811	pulse	1	t		62.0	2.5	blank	1.0	296.12338614463806	
64	279.30865001678467	pulse	1	t		62.0	2.5	blank	1.0	297.7235050201416	
64	279.4251277446747	fix_post	2		12	62.0	2.5	blank	1.0	297.8399827480316	0.10001754760742188
65	279.5251452922821	fix_pre	0		120	63.0	2.5	/experiments/knapen_AOT/AOT_stimuli/rescaled_final/0854_rv.mp4	0.0	297.94000029563904	1.0252535343170166
65	280.5503988265991	movie	1		274	63.0	2.5	/experiments/knapen_AOT/AOT_stimuli/rescaled_final/0854_rv.mp4	0.0	298.96525382995605	2.475308418273926
65	280.90768337249756	pulse	1	t		63.0	2.5	/experiments/knapen_AOT/AOT_stimuli/rescaled_final/0854_rv.mp4	0.0	299.3225383758545	
65	282.5068829059601	pulse	1	t		63.0	2.5	/experiments/knapen_AOT/AOT_stimuli/rescaled_final/0854_rv.mp4	0.0	300.921737909317	
65	283.02570724487305	fix_post	2		12	63.0	2.5	/experiments/knapen_AOT/AOT_stimuli/rescaled_final/0854_rv.mp4	0.0	301.44056224823	0.1000518798828125
66	283.12575912475586	fix_pre	0		119	64.0	2.5	/experiments/knapen_AOT/AOT_stimuli/rescaled_final/1214_fw.mp4	0.0	301.5406141281128	1.016805648803711
66	284.1024823188782	pulse	0	t		64.0	2.5	/experiments/knapen_AOT/AOT_stimuli/rescaled_final/1214_fw.mp4	0.0	302.5173373222351	
66	284.14256477355957	movie	1		285	64.0	2.5	/experiments/knapen_AOT/AOT_stimuli/rescaled_final/1214_fw.mp4	0.0	302.5574197769165	2.4836785793304443
66	285.7080190181732	pulse	1	t		64.0	2.5	/experiments/knapen_AOT/AOT_stimuli/rescaled_final/1214_fw.mp4	0.0	304.12287402153015	
66	286.62624335289	fix_post	2		12	64.0	2.5	/experiments/knapen_AOT/AOT_stimuli/rescaled_final/1214_fw.mp4	0.0	305.04109835624695	0.09999942779541016
67	286.7262427806854	fix_pre	0		120	65.0	2.5	/experiments/knapen_AOT/AOT_stimuli/rescaled_final/1710_fw.mp4	0.0	305.14109778404236	1.0168023109436035
67	287.30183005332947	pulse	0	t		65.0	2.5	/experiments/knapen_AOT/AOT_stimuli/rescaled_final/1710_fw.mp4	0.0	305.7166850566864	
67	287.743045091629	movie	1		282	65.0	2.5	/experiments/knapen_AOT/AOT_stimuli/rescaled_final/1710_fw.mp4	0.0	306.15790009498596	2.483766555786133
67	288.9019043445587	pulse	1	t		65.0	2.5	/experiments/knapen_AOT/AOT_stimuli/rescaled_final/1710_fw.mp4	0.0	307.31675934791565	
67	290.22681164741516	fix_post	2		12	65.0	2.5	/experiments/knapen_AOT/AOT_stimuli/rescaled_final/1710_fw.mp4	0.0	308.6416666507721	0.09997773170471191
68	290.3267893791199	fix_pre	0		120	66.0	2.5	/experiments/knapen_AOT/AOT_stimuli/rescaled_final/0263_fw.mp4	0.0	308.7416443824768	1.0169692039489746
68	290.50225019454956	pulse	0	t		66.0	2.5	/experiments/knapen_AOT/AOT_stimuli/rescaled_final/0263_fw.mp4	0.0	308.9171051979065	
68	291.34375858306885	movie	1		273	66.0	2.5	/experiments/knapen_AOT/AOT_stimuli/rescaled_final/0263_fw.mp4	0.0	309.7586135864258	2.4835891723632812
68	292.1023061275482	pulse	1	t		66.0	2.5	/experiments/knapen_AOT/AOT_stimuli/rescaled_final/0263_fw.mp4	0.0	310.51716113090515	
68	293.7024972438812	pulse	1	t		66.0	2.5	/experiments/knapen_AOT/AOT_stimuli/rescaled_final/0263_fw.mp4	0.0	312.11735224723816	
68	293.82734775543213	fix_post	2		12	66.0	2.5	/experiments/knapen_AOT/AOT_stimuli/rescaled_final/0263_fw.mp4	0.0	312.24220275878906	0.10001087188720703
69	293.92735862731934	fix_pre	0		120	67.0	2.5	/experiments/knapen_AOT/AOT_stimuli/rescaled_final/0319_rv.mp4	0.0	312.34221363067627	1.0085461139678955
69	294.93590474128723	movie	1		269	67.0	2.5	/experiments/knapen_AOT/AOT_stimuli/rescaled_final/0319_rv.mp4	0.0	313.35075974464417	2.500290632247925
69	295.3017838001251	pulse	1	t		67.0	2.5	/experiments/knapen_AOT/AOT_stimuli/rescaled_final/0319_rv.mp4	0.0	313.71663880348206	
69	296.90323281288147	pulse	1	t		67.0	2.5	/experiments/knapen_AOT/AOT_stimuli/rescaled_final/0319_rv.mp4	0.0	315.3180878162384	
69	297.43619537353516	fix_post	2		11	67.0	2.5	/experiments/knapen_AOT/AOT_stimuli/rescaled_final/0319_rv.mp4	0.0	315.8510503768921	0.09176778793334961
70	297.5279631614685	fix_pre	0		118	68.0	2.5	/experiments/knapen_AOT/AOT_stimuli/rescaled_final/1908_rv.mp4	0.0	315.94281816482544	0.9917294979095459
70	298.5032238960266	pulse	0	t		68.0	2.5	/experiments/knapen_AOT/AOT_stimuli/rescaled_final/1908_rv.mp4	0.0	316.91807889938354	
70	298.51969265937805	movie	1		284	68.0	2.5	/experiments/knapen_AOT/AOT_stimuli/rescaled_final/1908_rv.mp4	0.0	316.934547662735	2.500352144241333
70	300.10256004333496	pulse	1	t		68.0	2.5	/experiments/knapen_AOT/AOT_stimuli/rescaled_final/1908_rv.mp4	0.0	318.5174150466919	
70	301.0200448036194	fix_post	2		12	68.0	2.5	/experiments/knapen_AOT/AOT_stimuli/rescaled_final/1908_rv.mp4	0.0	319.4348998069763	0.10002565383911133
71	301.1200704574585	fix_pre	0		120	69.0	2.5	blank	1.0	319.53492546081543	1.0001575946807861
71	301.70368790626526	pulse	0	t		69.0	2.5	blank	1.0	320.1185429096222	
71	302.1202280521393	movie	1		300	69.0	2.5	blank	1.0	320.5350830554962	2.5003678798675537
71	303.30406880378723	pulse	1	t		69.0	2.5	blank	1.0	321.71892380714417	
71	304.62059593200684	fix_post	2		12	69.0	2.5	blank	1.0	323.03545093536377	0.10004901885986328
72	304.7206449508667	fix_pre	0		120	70.0	2.5	/experiments/knapen_AOT/AOT_stimuli/rescaled_final/0813_fw.mp4	0.0	323.13549995422363	1.008453607559204
72	304.904328584671	pulse	0	t		70.0	2.5	/experiments/knapen_AOT/AOT_stimuli/rescaled_final/0813_fw.mp4	0.0	323.31918358802795	
72	305.7290985584259	movie	1		285	70.0	2.5	/experiments/knapen_AOT/AOT_stimuli/rescaled_final/0813_fw.mp4	0.0	324.14395356178284	2.492039918899536
72	306.50273871421814	pulse	1	t		70.0	2.5	/experiments/knapen_AOT/AOT_stimuli/rescaled_final/0813_fw.mp4	0.0	324.9175937175751	
72	308.1027874946594	pulse	1	t		70.0	2.5	/experiments/knapen_AOT/AOT_stimuli/rescaled_final/0813_fw.mp4	0.0	326.51764249801636	
72	308.22113847732544	fix_post	2		12	70.0	2.5	/experiments/knapen_AOT/AOT_stimuli/rescaled_final/0813_fw.mp4	0.0	326.6359934806824	0.10002899169921875
73	308.32116746902466	fix_pre	0		120	71.0	2.5	/experiments/knapen_AOT/AOT_stimuli/rescaled_final/0132_rv.mp4	0.0	326.7360224723816	1.0084724426269531
73	309.3296399116516	movie	1		279	71.0	2.5	/experiments/knapen_AOT/AOT_stimuli/rescaled_final/0132_rv.mp4	0.0	327.74449491500854	2.500429391860962
73	309.70321106910706	pulse	1	t		71.0	2.5	/experiments/knapen_AOT/AOT_stimuli/rescaled_final/0132_rv.mp4	0.0	328.118066072464	
73	311.30307507514954	pulse	1	t		71.0	2.5	/experiments/knapen_AOT/AOT_stimuli/rescaled_final/0132_rv.mp4	0.0	329.71793007850647	
73	311.8300693035126	fix_post	2		11	71.0	2.5	/experiments/knapen_AOT/AOT_stimuli/rescaled_final/0132_rv.mp4	0.0	330.2449243068695	0.09163284301757812
74	311.92170214653015	fix_pre	0		119	72.0	2.5	/experiments/knapen_AOT/AOT_stimuli/rescaled_final/0091_fw.mp4	0.0	330.3365571498871	1.000159502029419
74	312.90538215637207	pulse	0	t		72.0	2.5	/experiments/knapen_AOT/AOT_stimuli/rescaled_final/0091_fw.mp4	0.0	331.320237159729	
74	312.92186164855957	movie	1		280	72.0	2.5	/experiments/knapen_AOT/AOT_stimuli/rescaled_final/0091_fw.mp4	0.0	331.3367166519165	2.5003702640533447
74	314.5040946006775	pulse	1	t		72.0	2.5	/experiments/knapen_AOT/AOT_stimuli/rescaled_final/0091_fw.mp4	0.0	332.9189496040344	
74	315.4222319126129	fix_post	2		12	72.0	2.5	/experiments/knapen_AOT/AOT_stimuli/rescaled_final/0091_fw.mp4	0.0	333.83708691596985	0.10005855560302734
75	315.52229046821594	fix_pre	0		120	73.0	2.5	/experiments/knapen_AOT/AOT_stimuli/rescaled_final/0692_fw.mp4	0.0	333.9371454715729	1.008458137512207
75	316.1058392524719	pulse	0	t		73.0	2.5	/experiments/knapen_AOT/AOT_stimuli/rescaled_final/0692_fw.mp4	0.0	334.52069425582886	
75	316.53074860572815	movie	1		282	73.0	2.5	/experiments/knapen_AOT/AOT_stimuli/rescaled_final/0692_fw.mp4	0.0	334.9456036090851	2.492229461669922
75	317.70411705970764	pulse	1	t		73.0	2.5	/experiments/knapen_AOT/AOT_stimuli/rescaled_final/0692_fw.mp4	0.0	336.1189720630646	
75	319.02297806739807	fix_post	2		12	73.0	2.5	/experiments/knapen_AOT/AOT_stimuli/rescaled_final/0692_fw.mp4	0.0	337.437833070755	0.09979724884033203
76	319.1227753162384	fix_pre	0		120	74.0	2.5	/experiments/knapen_AOT/AOT_stimuli/rescaled_final/1745_fw.mp4	0.0	337.53763031959534	1.0085084438323975
76	319.30633330345154	pulse	0	t		74.0	2.5	/experiments/knapen_AOT/AOT_stimuli/rescaled_final/1745_fw.mp4	0.0	337.7211883068085	
76	320.1312837600708	movie	1		285	74.0	2.5	/experiments/knapen_AOT/AOT_stimuli/rescaled_final/1745_fw.mp4	0.0	338.54613876342773	2.4920730590820312
76	320.90461015701294	pulse	1	t		74.0	2.5	/experiments/knapen_AOT/AOT_stimuli/rescaled_final/1745_fw.mp4	0.0	339.3194651603699	
76	322.50501322746277	pulse	1	t		74.0	2.5	/experiments/knapen_AOT/AOT_stimuli/rescaled_final/1745_fw.mp4	0.0	340.9198682308197	
76	322.62335681915283	fix_post	2		12	74.0	2.5	/experiments/knapen_AOT/AOT_stimuli/rescaled_final/1745_fw.mp4	0.0	341.03821182250977	0.10001730918884277
77	322.7233741283417	fix_pre	0		120	75.0	2.5	/experiments/knapen_AOT/AOT_stimuli/rescaled_final/1513_fw.mp4	0.0	341.1382291316986	1.0084304809570312
77	323.7318046092987	movie	1		274	75.0	2.5	/experiments/knapen_AOT/AOT_stimuli/rescaled_final/1513_fw.mp4	0.0	342.14665961265564	2.4920597076416016
77	324.1073317527771	pulse	1	t		75.0	2.5	/experiments/knapen_AOT/AOT_stimuli/rescaled_final/1513_fw.mp4	0.0	342.52218675613403	
77	325.7060446739197	pulse	1	t		75.0	2.5	/experiments/knapen_AOT/AOT_stimuli/rescaled_final/1513_fw.mp4	0.0	344.1208996772766	
77	326.2238643169403	fix_post	2		12	75.0	2.5	/experiments/knapen_AOT/AOT_stimuli/rescaled_final/1513_fw.mp4	0.0	344.63871932029724	0.10001635551452637
78	326.32388067245483	fix_pre	0		119	76.0	2.5	/experiments/knapen_AOT/AOT_stimuli/rescaled_final/0844_fw.mp4	0.0	344.73873567581177	1.0001440048217773
78	327.3076493740082	pulse	0	t		76.0	2.5	/experiments/knapen_AOT/AOT_stimuli/rescaled_final/0844_fw.mp4	0.0	345.7225043773651	
78	327.3240246772766	movie	1		279	76.0	2.5	/experiments/knapen_AOT/AOT_stimuli/rescaled_final/0844_fw.mp4	0.0	345.73887968063354	2.5003647804260254
78	328.90639638900757	pulse	1	t		76.0	2.5	/experiments/knapen_AOT/AOT_stimuli/rescaled_final/0844_fw.mp4	0.0	347.3212513923645	
78	329.82438945770264	fix_post	2		12	76.0	2.5	/experiments/knapen_AOT/AOT_stimuli/rescaled_final/0844_fw.mp4	0.0	348.23924446105957	0.10002970695495605
79	329.9244191646576	fix_pre	0		120	77.0	2.5	blank	1.0	348.3392741680145	1.0001263618469238
79	330.50820565223694	pulse	0	t		77.0	2.5	blank	1.0	348.9230606555939	
79	330.9245455265045	movie	1		300	77.0	2.5	blank	1.0	349.33940052986145	2.500389575958252
79	332.10262513160706	pulse	1	t		77.0	2.5	blank	1.0	350.517480134964	
79	333.42493510246277	fix_post	2		12	77.0	2.5	blank	1.0	351.8397901058197	0.10001039505004883
80	333.5249454975128	fix_pre	0		120	78.0	2.5	/experiments/knapen_AOT/AOT_stimuli/rescaled_final/1448_fw.mp4	0.0	351.93980050086975	1.0085070133209229
80	333.7016177177429	pulse	0	t		78.0	2.5	/experiments/knapen_AOT/AOT_stimuli/rescaled_final/1448_fw.mp4	0.0	352.11647272109985	
80	334.53345251083374	movie	1		284	78.0	2.5	/experiments/knapen_AOT/AOT_stimuli/rescaled_final/1448_fw.mp4	0.0	352.9483075141907	2.4920294284820557
80	335.3069887161255	pulse	1	t		78.0	2.5	/experiments/knapen_AOT/AOT_stimuli/rescaled_final/1448_fw.mp4	0.0	353.7218437194824	
80	336.9087107181549	pulse	1	t		78.0	2.5	/experiments/knapen_AOT/AOT_stimuli/rescaled_final/1448_fw.mp4	0.0	355.32356572151184	
80	337.0254819393158	fix_post	2		12	78.0	2.5	/experiments/knapen_AOT/AOT_stimuli/rescaled_final/1448_fw.mp4	0.0	355.44033694267273	0.1000051498413086
81	337.1254870891571	fix_pre	0		120	79.0	2.5	/experiments/knapen_AOT/AOT_stimuli/rescaled_final/1298_fw.mp4	0.0	355.54034209251404	1.008500099182129
81	338.13398718833923	movie	1		270	79.0	2.5	/experiments/knapen_AOT/AOT_stimuli/rescaled_final/1298_fw.mp4	0.0	356.54884219169617	2.4920437335968018
81	338.5012094974518	pulse	1	t		79.0	2.5	/experiments/knapen_AOT/AOT_stimuli/rescaled_final/1298_fw.mp4	0.0	356.9160645008087	
81	340.1012189388275	pulse	1	t		79.0	2.5	/experiments/knapen_AOT/AOT_stimuli/rescaled_final/1298_fw.mp4	0.0	358.51607394218445	
81	340.62603092193604	fix_post	2		12	79.0	2.5	/experiments/knapen_AOT/AOT_stimuli/rescaled_final/1298_fw.mp4	0.0	359.04088592529297	0.10000395774841309
82	340.72603487968445	fix_pre	0		118	80.0	2.5	/experiments/knapen_AOT/AOT_stimuli/rescaled_final/1568_rv.mp4	0.0	359.1408898830414	0.9918417930603027
82	341.7015132904053	pulse	0	t		80.0	2.5	/experiments/knapen_AOT/AOT_stimuli/rescaled_final/1568_rv.mp4	0.0	360.1163682937622	
82	341.71787667274475	movie	1		290	80.0	2.5	/experiments/knapen_AOT/AOT_stimuli/rescaled_final/1568_rv.mp4	0.0	360.1327316761017	2.500361204147339
82	343.3017566204071	pulse	1	t		80.0	2.5	/experiments/knapen_AOT/AOT_stimuli/rescaled_final/1568_rv.mp4	0.0	361.71661162376404	
82	344.2182378768921	fix_post	2		12	80.0	2.5	/experiments/knapen_AOT/AOT_stimuli/rescaled_final/1568_rv.mp4	0.0	362.633092880249	0.10001921653747559
83	344.31825709342957	fix_pre	0		120	81.0	2.5	/experiments/knapen_AOT/AOT_stimuli/rescaled_final/0760_rv.mp4	0.0	362.7331120967865	1.0084574222564697
83	344.9018795490265	pulse	0	t		81.0	2.5	/experiments/knapen_AOT/AOT_stimuli/rescaled_final/0760_rv.mp4	0.0	363.3167345523834	
83	345.32671451568604	movie	1		277	81.0	2.5	/experiments/knapen_AOT/AOT_stimuli/rescaled_final/0760_rv.mp4	0.0	363.74156951904297	2.492070436477661
83	346.502290725708	pulse	1	t		81.0	2.5	/experiments/knapen_AOT/AOT_stimuli/rescaled_final/0760_rv.mp4	0.0	364.91714572906494	
83	347.8187849521637	fix_post	2		12	81.0	2.5	/experiments/knapen_AOT/AOT_stimuli/rescaled_final/0760_rv.mp4	0.0	366.23363995552063	0.09998393058776855
84	347.91876888275146	fix_pre	0		120	82.0	2.5	blank	1.0	366.3336238861084	1.0001552104949951
84	348.10238790512085	pulse	0	t		82.0	2.5	blank	1.0	366.5172429084778	
84	348.91892409324646	movie	1		300	82.0	2.5	blank	1.0	367.3337790966034	2.500413656234741
84	349.70282006263733	pulse	1	t		82.0	2.5	blank	1.0	368.11767506599426	
84	351.30285453796387	pulse	1	t		82.0	2.5	blank	1.0	369.7177095413208	
84	351.4193377494812	fix_post	2		12	82.0	2.5	blank	1.0	369.83419275283813	0.10001277923583984
85	351.51935052871704	fix_pre	0		120	83.0	2.5	/experiments/knapen_AOT/AOT_stimuli/rescaled_final/0548_rv.mp4	0.0	369.934205532074	1.0084705352783203
85	352.52782106399536	movie	1		279	83.0	2.5	/experiments/knapen_AOT/AOT_stimuli/rescaled_final/0548_rv.mp4	0.0	370.9426760673523	2.49204158782959
85	352.9015989303589	pulse	1	t		83.0	2.5	/experiments/knapen_AOT/AOT_stimuli/rescaled_final/0548_rv.mp4	0.0	371.3164539337158	
85	354.5033221244812	pulse	1	t		83.0	2.5	/experiments/knapen_AOT/AOT_stimuli/rescaled_final/0548_rv.mp4	0.0	372.91817712783813	
85	355.01986265182495	fix_post	2		12	83.0	2.5	/experiments/knapen_AOT/AOT_stimuli/rescaled_final/0548_rv.mp4	0.0	373.4347176551819	0.11670279502868652
87	355.13656544685364	stim	0		1713					373.55142045021057	14.27712082862854
87	356.10353899002075	pulse	0	t						374.5183939933777	
87	357.703830242157	pulse	0	t						376.1186852455139	
87	359.30408358573914	pulse	0	t						377.71893858909607	
87	360.9043276309967	pulse	0	t						379.31918263435364	
87	362.50452733039856	pulse	0	t						380.9193823337555	
87	364.10479283332825	pulse	0	t						382.5196478366852	
87	365.7050096988678	pulse	0	t						384.11986470222473	
87	367.3053033351898	pulse	0	t						385.72015833854675	
87	368.90572571754456	pulse	0	t						387.3205807209015	
