trial_nr	onset	event_type	phase	response	nr_frames	movie_index	movie_duration	movie_file	blank	onset_abs	duration
0	0.20824289321899414	stim	0		4					18.557671785354614	0.03327512741088867
0	0.23351287841796875	response	0	space						18.58294177055359	
1	0.2415180206298828	stim	0		4243					18.590946912765503	35.374199867248535
1	35.606112003326416	pulse	0	t						53.955540895462036	
1	35.61571788787842	stim	1		1715					53.96514678001404	14.299880981445312
1	37.19724202156067	pulse	1	t						55.54667091369629	
1	38.797459840774536	pulse	1	t						57.146888732910156	
1	40.397610902786255	pulse	1	t						58.747039794921875	
1	41.9978768825531	pulse	1	t						60.34730577468872	
1	43.590553998947144	pulse	1	t						61.939982891082764	
1	45.19075393676758	pulse	1	t						63.5401828289032	
1	46.79101896286011	pulse	1	t						65.14044785499573	
1	48.39049983024597	pulse	1	t						66.73992872238159	
2	49.91559886932373	fix_pre	0		10	0.0	2.5	/experiments/knapen_AOT/AOT_stimuli/rescaled_final/1844_fw.mp4	0.0	68.26502776145935	0.08341312408447266
2	49.99067187309265	pulse	0	t		0.0	2.5	/experiments/knapen_AOT/AOT_stimuli/rescaled_final/1844_fw.mp4	0.0	68.34010076522827	
2	49.9990119934082	movie	1		246	0.0	2.5	/experiments/knapen_AOT/AOT_stimuli/rescaled_final/1844_fw.mp4	0.0	68.34844088554382	2.5086560249328613
2	51.591816902160645	pulse	1	t		0.0	2.5	/experiments/knapen_AOT/AOT_stimuli/rescaled_final/1844_fw.mp4	0.0	69.94124579429626	
2	52.507668018341064	fix_post	2		12	0.0	2.5	/experiments/knapen_AOT/AOT_stimuli/rescaled_final/1844_fw.mp4	0.0	70.85709691047668	0.09999394416809082
3	52.607661962509155	fix_pre	0		120	1.0	2.5	/experiments/knapen_AOT/AOT_stimuli/rescaled_final/1796_fw.mp4	0.0	70.95709085464478	1.0001208782196045
3	53.19133687019348	pulse	0	t		1.0	2.5	/experiments/knapen_AOT/AOT_stimuli/rescaled_final/1796_fw.mp4	0.0	71.5407657623291	
3	53.60778284072876	movie	1		244	1.0	2.5	/experiments/knapen_AOT/AOT_stimuli/rescaled_final/1796_fw.mp4	0.0	71.95721173286438	2.5003981590270996
3	54.791528940200806	pulse	1	t		1.0	2.5	/experiments/knapen_AOT/AOT_stimuli/rescaled_final/1796_fw.mp4	0.0	73.14095783233643	
3	56.10818099975586	fix_post	2		12	1.0	2.5	/experiments/knapen_AOT/AOT_stimuli/rescaled_final/1796_fw.mp4	0.0	74.45760989189148	0.10004496574401855
4	56.20822596549988	fix_pre	0		120	2.0	2.5	/experiments/knapen_AOT/AOT_stimuli/rescaled_final/1914_rv.mp4	0.0	74.5576548576355	1.0001158714294434
4	56.39178991317749	pulse	0	t		2.0	2.5	/experiments/knapen_AOT/AOT_stimuli/rescaled_final/1914_rv.mp4	0.0	74.74121880531311	
4	57.20834183692932	movie	1		244	2.0	2.5	/experiments/knapen_AOT/AOT_stimuli/rescaled_final/1914_rv.mp4	0.0	75.55777072906494	2.500404119491577
4	57.99201989173889	pulse	1	t		2.0	2.5	/experiments/knapen_AOT/AOT_stimuli/rescaled_final/1914_rv.mp4	0.0	76.34144878387451	
4	59.59236788749695	pulse	1	t		2.0	2.5	/experiments/knapen_AOT/AOT_stimuli/rescaled_final/1914_rv.mp4	0.0	77.94179677963257	
4	59.7087459564209	fix_post	2		12	2.0	2.5	/experiments/knapen_AOT/AOT_stimuli/rescaled_final/1914_rv.mp4	0.0	78.05817484855652	0.10001587867736816
5	59.80876183509827	fix_pre	0		120	3.0	2.5	/experiments/knapen_AOT/AOT_stimuli/rescaled_final/0603_rv.mp4	0.0	78.15819072723389	1.0000829696655273
5	60.808844804763794	movie	1		241	3.0	2.5	/experiments/knapen_AOT/AOT_stimuli/rescaled_final/0603_rv.mp4	0.0	79.15827369689941	2.492140054702759
5	61.197409868240356	pulse	1	t		3.0	2.5	/experiments/knapen_AOT/AOT_stimuli/rescaled_final/0603_rv.mp4	0.0	79.54683876037598	
5	62.79272794723511	pulse	1	t		3.0	2.5	/experiments/knapen_AOT/AOT_stimuli/rescaled_final/0603_rv.mp4	0.0	81.14215683937073	
5	63.30098485946655	fix_post	2		12	3.0	2.5	/experiments/knapen_AOT/AOT_stimuli/rescaled_final/0603_rv.mp4	0.0	81.65041375160217	0.09992599487304688
6	63.4009108543396	fix_pre	0		120	4.0	2.5	/experiments/knapen_AOT/AOT_stimuli/rescaled_final/0936_rv.mp4	0.0	81.75033974647522	1.0002100467681885
6	64.3930299282074	pulse	0	t		4.0	2.5	/experiments/knapen_AOT/AOT_stimuli/rescaled_final/0936_rv.mp4	0.0	82.74245882034302	
6	64.40112090110779	movie	1		244	4.0	2.5	/experiments/knapen_AOT/AOT_stimuli/rescaled_final/0936_rv.mp4	0.0	82.75054979324341	2.5086770057678223
6	65.99362397193909	pulse	1	t		4.0	2.5	/experiments/knapen_AOT/AOT_stimuli/rescaled_final/0936_rv.mp4	0.0	84.3430528640747	
6	66.90979790687561	fix_post	2		12	4.0	2.5	/experiments/knapen_AOT/AOT_stimuli/rescaled_final/0936_rv.mp4	0.0	85.25922679901123	0.10003805160522461
7	67.00983595848083	fix_pre	0		120	5.0	2.5	/experiments/knapen_AOT/AOT_stimuli/rescaled_final/1436_rv.mp4	0.0	85.35926485061646	1.000128984451294
7	67.5933768749237	pulse	0	t		5.0	2.5	/experiments/knapen_AOT/AOT_stimuli/rescaled_final/1436_rv.mp4	0.0	85.94280576705933	
7	68.00996494293213	movie	1		243	5.0	2.5	/experiments/knapen_AOT/AOT_stimuli/rescaled_final/1436_rv.mp4	0.0	86.35939383506775	2.5003790855407715
7	69.19374585151672	pulse	1	t		5.0	2.5	/experiments/knapen_AOT/AOT_stimuli/rescaled_final/1436_rv.mp4	0.0	87.54317474365234	
7	70.5103440284729	fix_post	2		12	5.0	2.5	/experiments/knapen_AOT/AOT_stimuli/rescaled_final/1436_rv.mp4	0.0	88.85977292060852	0.09997797012329102
8	70.61032199859619	fix_pre	0		120	6.0	2.5	/experiments/knapen_AOT/AOT_stimuli/rescaled_final/1128_rv.mp4	0.0	88.95975089073181	1.0002219676971436
8	70.79397702217102	pulse	0	t		6.0	2.5	/experiments/knapen_AOT/AOT_stimuli/rescaled_final/1128_rv.mp4	0.0	89.14340591430664	
8	71.61054396629333	movie	1		243	6.0	2.5	/experiments/knapen_AOT/AOT_stimuli/rescaled_final/1128_rv.mp4	0.0	89.95997285842896	2.5004830360412598
8	72.39411187171936	pulse	1	t		6.0	2.5	/experiments/knapen_AOT/AOT_stimuli/rescaled_final/1128_rv.mp4	0.0	90.74354076385498	
8	73.99440598487854	pulse	1	t		6.0	2.5	/experiments/knapen_AOT/AOT_stimuli/rescaled_final/1128_rv.mp4	0.0	92.34383487701416	
8	74.1110270023346	fix_post	2		12	6.0	2.5	/experiments/knapen_AOT/AOT_stimuli/rescaled_final/1128_rv.mp4	0.0	92.46045589447021	0.09985780715942383
9	74.21088480949402	fix_pre	0		120	7.0	2.5	blank	1.0	92.56031370162964	1.0001380443572998
9	75.21102285385132	movie	1		299	7.0	2.5	blank	1.0	93.56045174598694	2.492061138153076
9	75.59464597702026	pulse	1	t		7.0	2.5	blank	1.0	93.94407486915588	
9	77.19496703147888	pulse	1	t		7.0	2.5	blank	1.0	95.5443959236145	
9	77.7030839920044	fix_post	2		12	7.0	2.5	blank	1.0	96.05251288414001	0.0999908447265625
10	77.80307483673096	fix_pre	0		120	8.0	2.5	/experiments/knapen_AOT/AOT_stimuli/rescaled_final/0036_rv.mp4	0.0	96.15250372886658	1.0001599788665771
10	78.79521203041077	pulse	0	t		8.0	2.5	/experiments/knapen_AOT/AOT_stimuli/rescaled_final/0036_rv.mp4	0.0	97.14464092254639	
10	78.80323481559753	movie	1		243	8.0	2.5	/experiments/knapen_AOT/AOT_stimuli/rescaled_final/0036_rv.mp4	0.0	97.15266370773315	2.5086870193481445
10	80.39740896224976	pulse	1	t		8.0	2.5	/experiments/knapen_AOT/AOT_stimuli/rescaled_final/0036_rv.mp4	0.0	98.74683785438538	
10	81.31192183494568	fix_post	2		12	8.0	2.5	/experiments/knapen_AOT/AOT_stimuli/rescaled_final/0036_rv.mp4	0.0	99.6613507270813	0.1000661849975586
11	81.41198801994324	fix_pre	0		120	9.0	2.5	/experiments/knapen_AOT/AOT_stimuli/rescaled_final/0605_rv.mp4	0.0	99.76141691207886	1.0001299381256104
11	81.99553489685059	pulse	0	t		9.0	2.5	/experiments/knapen_AOT/AOT_stimuli/rescaled_final/0605_rv.mp4	0.0	100.3449637889862	
11	82.41211795806885	movie	1		242	9.0	2.5	/experiments/knapen_AOT/AOT_stimuli/rescaled_final/0605_rv.mp4	0.0	100.76154685020447	2.5004420280456543
11	83.59203481674194	pulse	1	t		9.0	2.5	/experiments/knapen_AOT/AOT_stimuli/rescaled_final/0605_rv.mp4	0.0	101.94146370887756	
11	84.9125599861145	fix_post	2		12	9.0	2.5	/experiments/knapen_AOT/AOT_stimuli/rescaled_final/0605_rv.mp4	0.0	103.26198887825012	0.09999990463256836
12	85.01255989074707	fix_pre	0		120	10.0	2.5	/experiments/knapen_AOT/AOT_stimuli/rescaled_final/0954_fw.mp4	0.0	103.36198878288269	1.0001001358032227
12	85.19608783721924	pulse	0	t		10.0	2.5	/experiments/knapen_AOT/AOT_stimuli/rescaled_final/0954_fw.mp4	0.0	103.54551672935486	
12	86.0126600265503	movie	1		244	10.0	2.5	/experiments/knapen_AOT/AOT_stimuli/rescaled_final/0954_fw.mp4	0.0	104.36208891868591	2.5003468990325928
12	86.7962818145752	pulse	1	t		10.0	2.5	/experiments/knapen_AOT/AOT_stimuli/rescaled_final/0954_fw.mp4	0.0	105.14571070671082	
12	88.39659094810486	pulse	1	t		10.0	2.5	/experiments/knapen_AOT/AOT_stimuli/rescaled_final/0954_fw.mp4	0.0	106.74601984024048	
12	88.51300692558289	fix_post	2		12	10.0	2.5	/experiments/knapen_AOT/AOT_stimuli/rescaled_final/0954_fw.mp4	0.0	106.8624358177185	0.10003900527954102
13	88.61304593086243	fix_pre	0		120	11.0	2.5	/experiments/knapen_AOT/AOT_stimuli/rescaled_final/0972_rv.mp4	0.0	106.96247482299805	1.0001320838928223
13	89.61317801475525	movie	1		241	11.0	2.5	/experiments/knapen_AOT/AOT_stimuli/rescaled_final/0972_rv.mp4	0.0	107.96260690689087	2.492086887359619
13	89.9971559047699	pulse	1	t		11.0	2.5	/experiments/knapen_AOT/AOT_stimuli/rescaled_final/0972_rv.mp4	0.0	108.34658479690552	
13	91.59711289405823	pulse	1	t		11.0	2.5	/experiments/knapen_AOT/AOT_stimuli/rescaled_final/0972_rv.mp4	0.0	109.94654178619385	
13	92.10526490211487	fix_post	2		10	11.0	2.5	/experiments/knapen_AOT/AOT_stimuli/rescaled_final/0972_rv.mp4	0.0	110.45469379425049	0.0999290943145752
14	92.20519399642944	fix_pre	0		120	12.0	2.5	blank	1.0	110.55462288856506	1.0001318454742432
14	93.19731783866882	pulse	0	t		12.0	2.5	blank	1.0	111.54674673080444	
14	93.20532584190369	movie	1		301	12.0	2.5	blank	1.0	111.5547547340393	2.5087730884552
14	94.79741787910461	pulse	1	t		12.0	2.5	blank	1.0	113.14684677124023	
14	95.71409893035889	fix_post	2		12	12.0	2.5	blank	1.0	114.0635278224945	0.09998607635498047
15	95.81408500671387	fix_pre	0		120	13.0	2.5	/experiments/knapen_AOT/AOT_stimuli/rescaled_final/0019_rv.mp4	0.0	114.16351389884949	1.0001318454742432
15	96.39029288291931	pulse	0	t		13.0	2.5	/experiments/knapen_AOT/AOT_stimuli/rescaled_final/0019_rv.mp4	0.0	114.73972177505493	
15	96.81421685218811	movie	1		243	13.0	2.5	/experiments/knapen_AOT/AOT_stimuli/rescaled_final/0019_rv.mp4	0.0	115.16364574432373	2.500486135482788
15	97.99019598960876	pulse	1	t		13.0	2.5	/experiments/knapen_AOT/AOT_stimuli/rescaled_final/0019_rv.mp4	0.0	116.33962488174438	
15	99.3147029876709	fix_post	2		12	13.0	2.5	/experiments/knapen_AOT/AOT_stimuli/rescaled_final/0019_rv.mp4	0.0	117.66413187980652	0.09996795654296875
16	99.41467094421387	fix_pre	0		120	14.0	2.5	/experiments/knapen_AOT/AOT_stimuli/rescaled_final/1397_rv.mp4	0.0	117.76409983634949	1.0001220703125
16	99.59074902534485	pulse	0	t		14.0	2.5	/experiments/knapen_AOT/AOT_stimuli/rescaled_final/1397_rv.mp4	0.0	117.94017791748047	
16	100.41479301452637	movie	1		243	14.0	2.5	/experiments/knapen_AOT/AOT_stimuli/rescaled_final/1397_rv.mp4	0.0	118.76422190666199	2.5004069805145264
16	101.19091987609863	pulse	1	t		14.0	2.5	/experiments/knapen_AOT/AOT_stimuli/rescaled_final/1397_rv.mp4	0.0	119.54034876823425	
16	102.7904360294342	pulse	1	t		14.0	2.5	/experiments/knapen_AOT/AOT_stimuli/rescaled_final/1397_rv.mp4	0.0	121.13986492156982	
16	102.9151999950409	fix_post	2		12	14.0	2.5	/experiments/knapen_AOT/AOT_stimuli/rescaled_final/1397_rv.mp4	0.0	121.26462888717651	0.09997987747192383
17	103.01517987251282	fix_pre	0		120	15.0	2.5	/experiments/knapen_AOT/AOT_stimuli/rescaled_final/0127_fw.mp4	0.0	121.36460876464844	1.0001120567321777
17	104.015291929245	movie	1		241	15.0	2.5	/experiments/knapen_AOT/AOT_stimuli/rescaled_final/0127_fw.mp4	0.0	122.36472082138062	2.4921319484710693
17	104.39047288894653	pulse	1	t		15.0	2.5	/experiments/knapen_AOT/AOT_stimuli/rescaled_final/0127_fw.mp4	0.0	122.73990178108215	
17	105.9909679889679	pulse	1	t		15.0	2.5	/experiments/knapen_AOT/AOT_stimuli/rescaled_final/0127_fw.mp4	0.0	124.34039688110352	
17	106.50742387771606	fix_post	2		12	15.0	2.5	/experiments/knapen_AOT/AOT_stimuli/rescaled_final/0127_fw.mp4	0.0	124.85685276985168	0.0999300479888916
18	106.60735392570496	fix_pre	0		119	16.0	2.5	/experiments/knapen_AOT/AOT_stimuli/rescaled_final/0067_fw.mp4	0.0	124.95678281784058	0.99180006980896
18	107.59112286567688	pulse	0	t		16.0	2.5	/experiments/knapen_AOT/AOT_stimuli/rescaled_final/0067_fw.mp4	0.0	125.9405517578125	
18	107.59915399551392	movie	1		245	16.0	2.5	/experiments/knapen_AOT/AOT_stimuli/rescaled_final/0067_fw.mp4	0.0	125.94858288764954	2.508765935897827
18	109.19254183769226	pulse	1	t		16.0	2.5	/experiments/knapen_AOT/AOT_stimuli/rescaled_final/0067_fw.mp4	0.0	127.54197072982788	
18	110.10791993141174	fix_post	2		12	16.0	2.5	/experiments/knapen_AOT/AOT_stimuli/rescaled_final/0067_fw.mp4	0.0	128.45734882354736	0.0999760627746582
19	110.2078959941864	fix_pre	0		120	17.0	2.5	/experiments/knapen_AOT/AOT_stimuli/rescaled_final/1011_fw.mp4	0.0	128.55732488632202	1.0002529621124268
19	110.79144501686096	pulse	0	t		17.0	2.5	/experiments/knapen_AOT/AOT_stimuli/rescaled_final/1011_fw.mp4	0.0	129.14087390899658	
19	111.20814895629883	movie	1		243	17.0	2.5	/experiments/knapen_AOT/AOT_stimuli/rescaled_final/1011_fw.mp4	0.0	129.55757784843445	2.5002939701080322
19	112.39177584648132	pulse	1	t		17.0	2.5	/experiments/knapen_AOT/AOT_stimuli/rescaled_final/1011_fw.mp4	0.0	130.74120473861694	
19	113.70844292640686	fix_post	2		12	17.0	2.5	/experiments/knapen_AOT/AOT_stimuli/rescaled_final/1011_fw.mp4	0.0	132.05787181854248	0.09998607635498047
20	113.80842900276184	fix_pre	0		120	18.0	2.5	/experiments/knapen_AOT/AOT_stimuli/rescaled_final/1250_fw.mp4	0.0	132.15785789489746	1.0001327991485596
20	113.99207091331482	pulse	0	t		18.0	2.5	/experiments/knapen_AOT/AOT_stimuli/rescaled_final/1250_fw.mp4	0.0	132.34149980545044	
20	114.8085618019104	movie	1		243	18.0	2.5	/experiments/knapen_AOT/AOT_stimuli/rescaled_final/1250_fw.mp4	0.0	133.15799069404602	2.5005860328674316
20	115.59231901168823	pulse	1	t		18.0	2.5	/experiments/knapen_AOT/AOT_stimuli/rescaled_final/1250_fw.mp4	0.0	133.94174790382385	
20	117.19220280647278	pulse	1	t		18.0	2.5	/experiments/knapen_AOT/AOT_stimuli/rescaled_final/1250_fw.mp4	0.0	135.5416316986084	
20	117.30914783477783	fix_post	2		12	18.0	2.5	/experiments/knapen_AOT/AOT_stimuli/rescaled_final/1250_fw.mp4	0.0	135.65857672691345	0.09988617897033691
21	117.40903401374817	fix_pre	0		120	19.0	2.5	/experiments/knapen_AOT/AOT_stimuli/rescaled_final/1772_rv.mp4	0.0	135.7584629058838	1.000133991241455
21	118.40916800498962	movie	1		241	19.0	2.5	/experiments/knapen_AOT/AOT_stimuli/rescaled_final/1772_rv.mp4	0.0	136.75859689712524	2.492136001586914
21	118.79310297966003	pulse	1	t		19.0	2.5	/experiments/knapen_AOT/AOT_stimuli/rescaled_final/1772_rv.mp4	0.0	137.14253187179565	
21	120.39294791221619	pulse	1	t		19.0	2.5	/experiments/knapen_AOT/AOT_stimuli/rescaled_final/1772_rv.mp4	0.0	138.7423768043518	
21	120.90130400657654	fix_post	2		12	19.0	2.5	/experiments/knapen_AOT/AOT_stimuli/rescaled_final/1772_rv.mp4	0.0	139.25073289871216	0.09989190101623535
22	121.00119590759277	fix_pre	0		120	20.0	2.5	blank	1.0	139.3506247997284	1.0001161098480225
22	121.9932689666748	pulse	0	t		20.0	2.5	blank	1.0	140.34269785881042	
22	122.0013120174408	movie	1		301	20.0	2.5	blank	1.0	140.35074090957642	2.508762836456299
22	123.59341883659363	pulse	1	t		20.0	2.5	blank	1.0	141.94284772872925	
22	124.5100748538971	fix_post	2		12	20.0	2.5	blank	1.0	142.85950374603271	0.10003900527954102
23	124.61011385917664	fix_pre	0		120	21.0	2.5	/experiments/knapen_AOT/AOT_stimuli/rescaled_final/1471_fw.mp4	0.0	142.95954275131226	1.0001349449157715
23	125.19363784790039	pulse	0	t		21.0	2.5	/experiments/knapen_AOT/AOT_stimuli/rescaled_final/1471_fw.mp4	0.0	143.543066740036	
23	125.61024880409241	movie	1		242	21.0	2.5	/experiments/knapen_AOT/AOT_stimuli/rescaled_final/1471_fw.mp4	0.0	143.95967769622803	2.5003740787506104
23	126.79394793510437	pulse	1	t		21.0	2.5	/experiments/knapen_AOT/AOT_stimuli/rescaled_final/1471_fw.mp4	0.0	145.14337682724	
23	128.11062288284302	fix_post	2		12	21.0	2.5	/experiments/knapen_AOT/AOT_stimuli/rescaled_final/1471_fw.mp4	0.0	146.46005177497864	0.09996700286865234
24	128.21058988571167	fix_pre	0		120	22.0	2.5	/experiments/knapen_AOT/AOT_stimuli/rescaled_final/0450_rv.mp4	0.0	146.5600187778473	1.0001509189605713
24	128.3942379951477	pulse	0	t		22.0	2.5	/experiments/knapen_AOT/AOT_stimuli/rescaled_final/0450_rv.mp4	0.0	146.74366688728333	
24	129.21074080467224	movie	1		243	22.0	2.5	/experiments/knapen_AOT/AOT_stimuli/rescaled_final/0450_rv.mp4	0.0	147.56016969680786	2.5004920959472656
24	129.99447894096375	pulse	1	t		22.0	2.5	/experiments/knapen_AOT/AOT_stimuli/rescaled_final/0450_rv.mp4	0.0	148.34390783309937	
24	131.59459900856018	pulse	1	t		22.0	2.5	/experiments/knapen_AOT/AOT_stimuli/rescaled_final/0450_rv.mp4	0.0	149.9440279006958	
24	131.7112329006195	fix_post	2		12	22.0	2.5	/experiments/knapen_AOT/AOT_stimuli/rescaled_final/0450_rv.mp4	0.0	150.06066179275513	0.0999290943145752
25	131.81116199493408	fix_pre	0		120	23.0	2.5	/experiments/knapen_AOT/AOT_stimuli/rescaled_final/0324_rv.mp4	0.0	150.1605908870697	1.000154972076416
25	132.8113169670105	movie	1		241	23.0	2.5	/experiments/knapen_AOT/AOT_stimuli/rescaled_final/0324_rv.mp4	0.0	151.16074585914612	2.492089033126831
25	133.19554591178894	pulse	1	t		23.0	2.5	/experiments/knapen_AOT/AOT_stimuli/rescaled_final/0324_rv.mp4	0.0	151.54497480392456	
25	134.79510593414307	pulse	1	t		23.0	2.5	/experiments/knapen_AOT/AOT_stimuli/rescaled_final/0324_rv.mp4	0.0	153.1445348262787	
25	135.30340600013733	fix_post	2		12	23.0	2.5	/experiments/knapen_AOT/AOT_stimuli/rescaled_final/0324_rv.mp4	0.0	153.65283489227295	0.09991884231567383
26	135.403324842453	fix_pre	0		120	24.0	2.5	/experiments/knapen_AOT/AOT_stimuli/rescaled_final/0318_fw.mp4	0.0	153.75275373458862	1.0001649856567383
26	136.3953788280487	pulse	0	t		24.0	2.5	/experiments/knapen_AOT/AOT_stimuli/rescaled_final/0318_fw.mp4	0.0	154.74480772018433	
26	136.40348982810974	movie	1		244	24.0	2.5	/experiments/knapen_AOT/AOT_stimuli/rescaled_final/0318_fw.mp4	0.0	154.75291872024536	2.5087761878967285
26	137.99695897102356	pulse	1	t		24.0	2.5	/experiments/knapen_AOT/AOT_stimuli/rescaled_final/0318_fw.mp4	0.0	156.34638786315918	
26	138.91226601600647	fix_post	2		12	24.0	2.5	/experiments/knapen_AOT/AOT_stimuli/rescaled_final/0318_fw.mp4	0.0	157.2616949081421	0.09993195533752441
27	139.012197971344	fix_pre	0		120	25.0	2.5	/experiments/knapen_AOT/AOT_stimuli/rescaled_final/0941_fw.mp4	0.0	157.36162686347961	1.0001518726348877
27	139.5958709716797	pulse	0	t		25.0	2.5	/experiments/knapen_AOT/AOT_stimuli/rescaled_final/0941_fw.mp4	0.0	157.9452998638153	
27	140.01234984397888	movie	1		244	25.0	2.5	/experiments/knapen_AOT/AOT_stimuli/rescaled_final/0941_fw.mp4	0.0	158.3617787361145	2.5003859996795654
27	141.1961269378662	pulse	1	t		25.0	2.5	/experiments/knapen_AOT/AOT_stimuli/rescaled_final/0941_fw.mp4	0.0	159.54555583000183	
27	142.51273584365845	fix_post	2		12	25.0	2.5	/experiments/knapen_AOT/AOT_stimuli/rescaled_final/0941_fw.mp4	0.0	160.86216473579407	0.0999751091003418
28	142.6127109527588	fix_pre	0		120	26.0	2.5	blank	1.0	160.9621398448944	1.0002028942108154
28	142.7964198589325	pulse	0	t		26.0	2.5	blank	1.0	161.14584875106812	
28	143.6129138469696	movie	1		300	26.0	2.5	blank	1.0	161.96234273910522	2.5003390312194824
28	144.3965368270874	pulse	1	t		26.0	2.5	blank	1.0	162.74596571922302	
28	145.99677991867065	pulse	1	t		26.0	2.5	blank	1.0	164.34620881080627	
28	146.1132528781891	fix_post	2		12	26.0	2.5	blank	1.0	164.4626817703247	0.10001707077026367
29	146.21326994895935	fix_pre	0		120	27.0	2.5	/experiments/knapen_AOT/AOT_stimuli/rescaled_final/0050_fw.mp4	0.0	164.56269884109497	1.0001709461212158
29	147.21344089508057	movie	1		242	27.0	2.5	/experiments/knapen_AOT/AOT_stimuli/rescaled_final/0050_fw.mp4	0.0	165.5628697872162	2.4920239448547363
29	147.59763503074646	pulse	1	t		27.0	2.5	/experiments/knapen_AOT/AOT_stimuli/rescaled_final/0050_fw.mp4	0.0	165.94706392288208	
29	149.19724583625793	pulse	1	t		27.0	2.5	/experiments/knapen_AOT/AOT_stimuli/rescaled_final/0050_fw.mp4	0.0	167.54667472839355	
29	149.7054648399353	fix_post	2		12	27.0	2.5	/experiments/knapen_AOT/AOT_stimuli/rescaled_final/0050_fw.mp4	0.0	168.05489373207092	0.10006213188171387
30	149.80552697181702	fix_pre	0		120	28.0	2.5	/experiments/knapen_AOT/AOT_stimuli/rescaled_final/1331_fw.mp4	0.0	168.15495586395264	1.0001938343048096
30	150.79752802848816	pulse	0	t		28.0	2.5	/experiments/knapen_AOT/AOT_stimuli/rescaled_final/1331_fw.mp4	0.0	169.14695692062378	
30	150.80572080612183	movie	1		245	28.0	2.5	/experiments/knapen_AOT/AOT_stimuli/rescaled_final/1331_fw.mp4	0.0	169.15514969825745	2.5086112022399902
30	152.3987009525299	pulse	1	t		28.0	2.5	/experiments/knapen_AOT/AOT_stimuli/rescaled_final/1331_fw.mp4	0.0	170.74812984466553	
30	153.31433200836182	fix_post	2		12	28.0	2.5	/experiments/knapen_AOT/AOT_stimuli/rescaled_final/1331_fw.mp4	0.0	171.66376090049744	0.09999680519104004
31	153.41432881355286	fix_pre	0		117	29.0	2.5	/experiments/knapen_AOT/AOT_stimuli/rescaled_final/0115_fw.mp4	0.0	171.76375770568848	1.0001890659332275
31	153.99802899360657	pulse	0	t		29.0	2.5	/experiments/knapen_AOT/AOT_stimuli/rescaled_final/0115_fw.mp4	0.0	172.3474578857422	
31	154.41451787948608	movie	1		244	29.0	2.5	/experiments/knapen_AOT/AOT_stimuli/rescaled_final/0115_fw.mp4	0.0	172.7639467716217	2.500396966934204
31	155.59827089309692	pulse	1	t		29.0	2.5	/experiments/knapen_AOT/AOT_stimuli/rescaled_final/0115_fw.mp4	0.0	173.94769978523254	
31	156.9149148464203	fix_post	2		12	29.0	2.5	/experiments/knapen_AOT/AOT_stimuli/rescaled_final/0115_fw.mp4	0.0	175.2643437385559	0.10001802444458008
32	157.01493287086487	fix_pre	0		120	30.0	2.5	/experiments/knapen_AOT/AOT_stimuli/rescaled_final/0126_fw.mp4	0.0	175.3643617630005	1.0001111030578613
32	157.1908609867096	pulse	0	t		30.0	2.5	/experiments/knapen_AOT/AOT_stimuli/rescaled_final/0126_fw.mp4	0.0	175.54028987884521	
32	158.01504397392273	movie	1		242	30.0	2.5	/experiments/knapen_AOT/AOT_stimuli/rescaled_final/0126_fw.mp4	0.0	176.36447286605835	2.500462055206299
32	158.79136395454407	pulse	1	t		30.0	2.5	/experiments/knapen_AOT/AOT_stimuli/rescaled_final/0126_fw.mp4	0.0	177.1407928466797	
32	160.39891695976257	pulse	1	t		30.0	2.5	/experiments/knapen_AOT/AOT_stimuli/rescaled_final/0126_fw.mp4	0.0	178.7483458518982	
32	160.51550602912903	fix_post	2		12	30.0	2.5	/experiments/knapen_AOT/AOT_stimuli/rescaled_final/0126_fw.mp4	0.0	178.86493492126465	0.09999394416809082
33	160.61549997329712	fix_pre	0		120	31.0	2.5	/experiments/knapen_AOT/AOT_stimuli/rescaled_final/0920_rv.mp4	0.0	178.96492886543274	1.0001299381256104
33	161.61562991142273	movie	1		241	31.0	2.5	/experiments/knapen_AOT/AOT_stimuli/rescaled_final/0920_rv.mp4	0.0	179.96505880355835	2.4922049045562744
33	162.00051093101501	pulse	1	t		31.0	2.5	/experiments/knapen_AOT/AOT_stimuli/rescaled_final/0920_rv.mp4	0.0	180.34993982315063	
33	163.59124183654785	pulse	1	t		31.0	2.5	/experiments/knapen_AOT/AOT_stimuli/rescaled_final/0920_rv.mp4	0.0	181.94067072868347	
33	164.107834815979	fix_post	2		12	31.0	2.5	/experiments/knapen_AOT/AOT_stimuli/rescaled_final/0920_rv.mp4	0.0	182.45726370811462	0.09982609748840332
34	164.2076609134674	fix_pre	0		119	32.0	2.5	/experiments/knapen_AOT/AOT_stimuli/rescaled_final/1636_rv.mp4	0.0	182.55708980560303	0.9918510913848877
34	165.1912670135498	pulse	0	t		32.0	2.5	/experiments/knapen_AOT/AOT_stimuli/rescaled_final/1636_rv.mp4	0.0	183.54069590568542	
34	165.1995120048523	movie	1		245	32.0	2.5	/experiments/knapen_AOT/AOT_stimuli/rescaled_final/1636_rv.mp4	0.0	183.54894089698792	2.5086259841918945
34	166.79212403297424	pulse	1	t		32.0	2.5	/experiments/knapen_AOT/AOT_stimuli/rescaled_final/1636_rv.mp4	0.0	185.14155292510986	
34	167.7081379890442	fix_post	2		12	32.0	2.5	/experiments/knapen_AOT/AOT_stimuli/rescaled_final/1636_rv.mp4	0.0	186.0575668811798	0.10002684593200684
35	167.8081648349762	fix_pre	0		120	33.0	2.5	/experiments/knapen_AOT/AOT_stimuli/rescaled_final/1841_rv.mp4	0.0	186.15759372711182	1.0001270771026611
35	168.39185786247253	pulse	0	t		33.0	2.5	/experiments/knapen_AOT/AOT_stimuli/rescaled_final/1841_rv.mp4	0.0	186.74128675460815	
35	168.80829191207886	movie	1		243	33.0	2.5	/experiments/knapen_AOT/AOT_stimuli/rescaled_final/1841_rv.mp4	0.0	187.15772080421448	2.500541925430298
35	169.9921839237213	pulse	1	t		33.0	2.5	/experiments/knapen_AOT/AOT_stimuli/rescaled_final/1841_rv.mp4	0.0	188.34161281585693	
35	171.30883383750916	fix_post	2		12	33.0	2.5	/experiments/knapen_AOT/AOT_stimuli/rescaled_final/1841_rv.mp4	0.0	189.65826272964478	0.09992814064025879
36	171.4087619781494	fix_pre	0		120	34.0	2.5	/experiments/knapen_AOT/AOT_stimuli/rescaled_final/1479_fw.mp4	0.0	189.75819087028503	1.0001418590545654
36	171.5922658443451	pulse	0	t		34.0	2.5	/experiments/knapen_AOT/AOT_stimuli/rescaled_final/1479_fw.mp4	0.0	189.9416947364807	
36	172.40890383720398	movie	1		242	34.0	2.5	/experiments/knapen_AOT/AOT_stimuli/rescaled_final/1479_fw.mp4	0.0	190.7583327293396	2.50034499168396
36	173.1924238204956	pulse	1	t		34.0	2.5	/experiments/knapen_AOT/AOT_stimuli/rescaled_final/1479_fw.mp4	0.0	191.54185271263123	
36	174.79258489608765	pulse	1	t		34.0	2.5	/experiments/knapen_AOT/AOT_stimuli/rescaled_final/1479_fw.mp4	0.0	193.14201378822327	
36	174.90924882888794	fix_post	2		12	34.0	2.5	/experiments/knapen_AOT/AOT_stimuli/rescaled_final/1479_fw.mp4	0.0	193.25867772102356	0.09996318817138672
37	175.00921201705933	fix_pre	0		120	35.0	2.5	blank	1.0	193.35864090919495	1.0001819133758545
37	176.00939393043518	movie	1		299	35.0	2.5	blank	1.0	194.3588228225708	2.492053985595703
37	176.39295291900635	pulse	1	t		35.0	2.5	blank	1.0	194.74238181114197	
37	177.99329495429993	pulse	1	t		35.0	2.5	blank	1.0	196.34272384643555	
37	178.50144791603088	fix_post	2		12	35.0	2.5	blank	1.0	196.8508768081665	0.10004496574401855
38	178.6014928817749	fix_pre	0		120	36.0	2.5	/experiments/knapen_AOT/AOT_stimuli/rescaled_final/0653_fw.mp4	0.0	196.95092177391052	1.0001380443572998
38	179.59341597557068	pulse	0	t		36.0	2.5	/experiments/knapen_AOT/AOT_stimuli/rescaled_final/0653_fw.mp4	0.0	197.9428448677063	
38	179.6016309261322	movie	1		244	36.0	2.5	/experiments/knapen_AOT/AOT_stimuli/rescaled_final/0653_fw.mp4	0.0	197.95105981826782	2.5086710453033447
38	181.1949338912964	pulse	1	t		36.0	2.5	/experiments/knapen_AOT/AOT_stimuli/rescaled_final/0653_fw.mp4	0.0	199.544362783432	
38	182.11030197143555	fix_post	2		12	36.0	2.5	/experiments/knapen_AOT/AOT_stimuli/rescaled_final/0653_fw.mp4	0.0	200.45973086357117	0.09999990463256836
39	182.21030187606812	fix_pre	0		120	37.0	2.5	/experiments/knapen_AOT/AOT_stimuli/rescaled_final/1131_fw.mp4	0.0	200.55973076820374	1.0001399517059326
39	182.79400491714478	pulse	0	t		37.0	2.5	/experiments/knapen_AOT/AOT_stimuli/rescaled_final/1131_fw.mp4	0.0	201.1434338092804	
39	183.21044182777405	movie	1		243	37.0	2.5	/experiments/knapen_AOT/AOT_stimuli/rescaled_final/1131_fw.mp4	0.0	201.55987071990967	2.5005290508270264
39	184.39432191848755	pulse	1	t		37.0	2.5	/experiments/knapen_AOT/AOT_stimuli/rescaled_final/1131_fw.mp4	0.0	202.74375081062317	
39	185.71097087860107	fix_post	2		12	37.0	2.5	/experiments/knapen_AOT/AOT_stimuli/rescaled_final/1131_fw.mp4	0.0	204.0603997707367	0.09996294975280762
40	185.81093382835388	fix_pre	0		120	38.0	2.5	/experiments/knapen_AOT/AOT_stimuli/rescaled_final/0411_rv.mp4	0.0	204.1603627204895	1.0001120567321777
40	185.99434781074524	pulse	0	t		38.0	2.5	/experiments/knapen_AOT/AOT_stimuli/rescaled_final/0411_rv.mp4	0.0	204.34377670288086	
40	186.81104588508606	movie	1		243	38.0	2.5	/experiments/knapen_AOT/AOT_stimuli/rescaled_final/0411_rv.mp4	0.0	205.16047477722168	2.5003421306610107
40	187.59462881088257	pulse	1	t		38.0	2.5	/experiments/knapen_AOT/AOT_stimuli/rescaled_final/0411_rv.mp4	0.0	205.9440577030182	
40	189.19467091560364	pulse	1	t		38.0	2.5	/experiments/knapen_AOT/AOT_stimuli/rescaled_final/0411_rv.mp4	0.0	207.54409980773926	
40	189.31138801574707	fix_post	2		12	38.0	2.5	/experiments/knapen_AOT/AOT_stimuli/rescaled_final/0411_rv.mp4	0.0	207.6608169078827	0.09997701644897461
41	189.41136503219604	fix_pre	0		119	39.0	2.5	/experiments/knapen_AOT/AOT_stimuli/rescaled_final/1160_rv.mp4	0.0	207.76079392433167	0.9918959140777588
41	190.4032609462738	movie	1		243	39.0	2.5	/experiments/knapen_AOT/AOT_stimuli/rescaled_final/1160_rv.mp4	0.0	208.75268983840942	2.5004589557647705
41	190.79526591300964	pulse	1	t		39.0	2.5	/experiments/knapen_AOT/AOT_stimuli/rescaled_final/1160_rv.mp4	0.0	209.14469480514526	
41	192.3953628540039	pulse	1	t		39.0	2.5	/experiments/knapen_AOT/AOT_stimuli/rescaled_final/1160_rv.mp4	0.0	210.74479174613953	
41	192.90371990203857	fix_post	2		12	39.0	2.5	/experiments/knapen_AOT/AOT_stimuli/rescaled_final/1160_rv.mp4	0.0	211.2531487941742	0.09991312026977539
42	193.00363302230835	fix_pre	0		120	40.0	2.5	blank	1.0	211.35306191444397	1.0001378059387207
42	193.99555802345276	pulse	0	t		40.0	2.5	blank	1.0	212.34498691558838	
42	194.00377082824707	movie	1		301	40.0	2.5	blank	1.0	212.3531997203827	2.5087761878967285
42	195.59577298164368	pulse	1	t		40.0	2.5	blank	1.0	213.9452018737793	
42	196.5125470161438	fix_post	2		12	40.0	2.5	blank	1.0	214.86197590827942	0.09993481636047363
43	196.61248183250427	fix_pre	0		120	41.0	2.5	/experiments/knapen_AOT/AOT_stimuli/rescaled_final/0880_fw.mp4	0.0	214.9619107246399	1.0001142024993896
43	197.1961328983307	pulse	0	t		41.0	2.5	/experiments/knapen_AOT/AOT_stimuli/rescaled_final/0880_fw.mp4	0.0	215.5455617904663	
43	197.61259603500366	movie	1		243	41.0	2.5	/experiments/knapen_AOT/AOT_stimuli/rescaled_final/0880_fw.mp4	0.0	215.96202492713928	2.5005288124084473
43	198.79221487045288	pulse	1	t		41.0	2.5	/experiments/knapen_AOT/AOT_stimuli/rescaled_final/0880_fw.mp4	0.0	217.1416437625885	
43	200.1131248474121	fix_post	2		12	41.0	2.5	/experiments/knapen_AOT/AOT_stimuli/rescaled_final/0880_fw.mp4	0.0	218.46255373954773	0.09993815422058105
44	200.2130630016327	fix_pre	0		120	42.0	2.5	/experiments/knapen_AOT/AOT_stimuli/rescaled_final/1032_fw.mp4	0.0	218.5624918937683	1.0001850128173828
44	200.39662885665894	pulse	0	t		42.0	2.5	/experiments/knapen_AOT/AOT_stimuli/rescaled_final/1032_fw.mp4	0.0	218.74605774879456	
44	201.21324801445007	movie	1		242	42.0	2.5	/experiments/knapen_AOT/AOT_stimuli/rescaled_final/1032_fw.mp4	0.0	219.5626769065857	2.5004029273986816
44	201.99676489830017	pulse	1	t		42.0	2.5	/experiments/knapen_AOT/AOT_stimuli/rescaled_final/1032_fw.mp4	0.0	220.3461937904358	
44	203.5970118045807	pulse	1	t		42.0	2.5	/experiments/knapen_AOT/AOT_stimuli/rescaled_final/1032_fw.mp4	0.0	221.9464406967163	
44	203.71365094184875	fix_post	2		12	42.0	2.5	/experiments/knapen_AOT/AOT_stimuli/rescaled_final/1032_fw.mp4	0.0	222.06307983398438	0.09993100166320801
45	203.81358194351196	fix_pre	0		119	43.0	2.5	/experiments/knapen_AOT/AOT_stimuli/rescaled_final/1608_rv.mp4	0.0	222.16301083564758	0.9917929172515869
45	204.80537486076355	movie	1		243	43.0	2.5	/experiments/knapen_AOT/AOT_stimuli/rescaled_final/1608_rv.mp4	0.0	223.15480375289917	2.5003809928894043
45	205.19744896888733	pulse	1	t		43.0	2.5	/experiments/knapen_AOT/AOT_stimuli/rescaled_final/1608_rv.mp4	0.0	223.54687786102295	
45	206.79751586914062	pulse	1	t		43.0	2.5	/experiments/knapen_AOT/AOT_stimuli/rescaled_final/1608_rv.mp4	0.0	225.14694476127625	
45	207.30575585365295	fix_post	2		12	43.0	2.5	/experiments/knapen_AOT/AOT_stimuli/rescaled_final/1608_rv.mp4	0.0	225.65518474578857	0.10004806518554688
46	207.4058039188385	fix_pre	0		120	44.0	2.5	/experiments/knapen_AOT/AOT_stimuli/rescaled_final/1164_fw.mp4	0.0	225.75523281097412	1.0001189708709717
46	208.397766828537	pulse	0	t		44.0	2.5	/experiments/knapen_AOT/AOT_stimuli/rescaled_final/1164_fw.mp4	0.0	226.7471957206726	
46	208.40592288970947	movie	1		243	44.0	2.5	/experiments/knapen_AOT/AOT_stimuli/rescaled_final/1164_fw.mp4	0.0	226.7553517818451	2.5087101459503174
46	209.99920296669006	pulse	1	t		44.0	2.5	/experiments/knapen_AOT/AOT_stimuli/rescaled_final/1164_fw.mp4	0.0	228.34863185882568	
46	210.9146330356598	fix_post	2		12	44.0	2.5	/experiments/knapen_AOT/AOT_stimuli/rescaled_final/1164_fw.mp4	0.0	229.2640619277954	0.10007381439208984
47	211.01470685005188	fix_pre	0		120	45.0	2.5	/experiments/knapen_AOT/AOT_stimuli/rescaled_final/0041_rv.mp4	0.0	229.3641357421875	1.000063180923462
47	211.59071397781372	pulse	0	t		45.0	2.5	/experiments/knapen_AOT/AOT_stimuli/rescaled_final/0041_rv.mp4	0.0	229.94014286994934	
47	212.01477003097534	movie	1		240	45.0	2.5	/experiments/knapen_AOT/AOT_stimuli/rescaled_final/0041_rv.mp4	0.0	230.36419892311096	2.50038480758667
47	213.19136500358582	pulse	1	t		45.0	2.5	/experiments/knapen_AOT/AOT_stimuli/rescaled_final/0041_rv.mp4	0.0	231.54079389572144	
47	214.515154838562	fix_post	2		12	45.0	2.5	/experiments/knapen_AOT/AOT_stimuli/rescaled_final/0041_rv.mp4	0.0	232.86458373069763	0.10004401206970215
48	214.6151988506317	fix_pre	0		120	46.0	2.5	/experiments/knapen_AOT/AOT_stimuli/rescaled_final/0924_rv.mp4	0.0	232.96462774276733	1.0000970363616943
48	214.79116702079773	pulse	0	t		46.0	2.5	/experiments/knapen_AOT/AOT_stimuli/rescaled_final/0924_rv.mp4	0.0	233.14059591293335	
48	215.6152958869934	movie	1		243	46.0	2.5	/experiments/knapen_AOT/AOT_stimuli/rescaled_final/0924_rv.mp4	0.0	233.96472477912903	2.5004360675811768
48	216.39079594612122	pulse	1	t		46.0	2.5	/experiments/knapen_AOT/AOT_stimuli/rescaled_final/0924_rv.mp4	0.0	234.74022483825684	
48	217.99077081680298	pulse	1	t		46.0	2.5	/experiments/knapen_AOT/AOT_stimuli/rescaled_final/0924_rv.mp4	0.0	236.3401997089386	
48	218.11573195457458	fix_post	2		12	46.0	2.5	/experiments/knapen_AOT/AOT_stimuli/rescaled_final/0924_rv.mp4	0.0	236.4651608467102	0.09996199607849121
49	218.21569395065308	fix_pre	0		120	47.0	2.5	blank	1.0	236.5651228427887	1.0001320838928223
49	219.2158260345459	movie	1		299	47.0	2.5	blank	1.0	237.56525492668152	2.492090940475464
49	219.5910198688507	pulse	1	t		47.0	2.5	blank	1.0	237.94044876098633	
49	221.19124698638916	pulse	1	t		47.0	2.5	blank	1.0	239.54067587852478	
49	221.70791697502136	fix_post	2		12	47.0	2.5	blank	1.0	240.05734586715698	0.0999760627746582
50	221.80789303779602	fix_pre	0		119	48.0	2.5	/experiments/knapen_AOT/AOT_stimuli/rescaled_final/1107_fw.mp4	0.0	240.15732192993164	0.991898775100708
50	222.7914788722992	pulse	0	t		48.0	2.5	/experiments/knapen_AOT/AOT_stimuli/rescaled_final/1107_fw.mp4	0.0	241.14090776443481	
50	222.79979181289673	movie	1		243	48.0	2.5	/experiments/knapen_AOT/AOT_stimuli/rescaled_final/1107_fw.mp4	0.0	241.14922070503235	2.508634090423584
50	224.39627480506897	pulse	1	t		48.0	2.5	/experiments/knapen_AOT/AOT_stimuli/rescaled_final/1107_fw.mp4	0.0	242.7457036972046	
50	225.3084259033203	fix_post	2		12	48.0	2.5	/experiments/knapen_AOT/AOT_stimuli/rescaled_final/1107_fw.mp4	0.0	243.65785479545593	0.10001111030578613
51	225.4084370136261	fix_pre	0		120	49.0	2.5	/experiments/knapen_AOT/AOT_stimuli/rescaled_final/1331_fw.mp4	0.0	243.75786590576172	1.0002210140228271
51	225.9919559955597	pulse	0	t		49.0	2.5	/experiments/knapen_AOT/AOT_stimuli/rescaled_final/1331_fw.mp4	0.0	244.3413848876953	
51	226.40865802764893	movie	1		244	49.0	2.5	/experiments/knapen_AOT/AOT_stimuli/rescaled_final/1331_fw.mp4	0.0	244.75808691978455	2.5003838539123535
51	227.59240984916687	pulse	1	t		49.0	2.5	/experiments/knapen_AOT/AOT_stimuli/rescaled_final/1331_fw.mp4	0.0	245.9418387413025	
51	228.90904188156128	fix_post	2		12	49.0	2.5	/experiments/knapen_AOT/AOT_stimuli/rescaled_final/1331_fw.mp4	0.0	247.2584707736969	0.09995794296264648
52	229.00899982452393	fix_pre	0		120	50.0	2.5	/experiments/knapen_AOT/AOT_stimuli/rescaled_final/1064_fw.mp4	0.0	247.35842871665955	1.000171184539795
52	229.19242596626282	pulse	0	t		50.0	2.5	/experiments/knapen_AOT/AOT_stimuli/rescaled_final/1064_fw.mp4	0.0	247.54185485839844	
52	230.00917100906372	movie	1		243	50.0	2.5	/experiments/knapen_AOT/AOT_stimuli/rescaled_final/1064_fw.mp4	0.0	248.35859990119934	2.5004079341888428
52	230.7927849292755	pulse	1	t		50.0	2.5	/experiments/knapen_AOT/AOT_stimuli/rescaled_final/1064_fw.mp4	0.0	249.14221382141113	
52	232.39296793937683	pulse	1	t		50.0	2.5	/experiments/knapen_AOT/AOT_stimuli/rescaled_final/1064_fw.mp4	0.0	250.74239683151245	
52	232.50957894325256	fix_post	2		12	50.0	2.5	/experiments/knapen_AOT/AOT_stimuli/rescaled_final/1064_fw.mp4	0.0	250.85900783538818	0.1000208854675293
53	232.6095998287201	fix_pre	0		119	51.0	2.5	/experiments/knapen_AOT/AOT_stimuli/rescaled_final/0974_rv.mp4	0.0	250.9590287208557	0.9917051792144775
53	233.60130500793457	movie	1		242	51.0	2.5	/experiments/knapen_AOT/AOT_stimuli/rescaled_final/0974_rv.mp4	0.0	251.9507339000702	2.5005388259887695
53	233.99327683448792	pulse	1	t		51.0	2.5	/experiments/knapen_AOT/AOT_stimuli/rescaled_final/0974_rv.mp4	0.0	252.34270572662354	
53	235.59338188171387	pulse	1	t		51.0	2.5	/experiments/knapen_AOT/AOT_stimuli/rescaled_final/0974_rv.mp4	0.0	253.9428107738495	
53	236.10184383392334	fix_post	2		12	51.0	2.5	/experiments/knapen_AOT/AOT_stimuli/rescaled_final/0974_rv.mp4	0.0	254.45127272605896	0.09986209869384766
54	236.2017059326172	fix_pre	0		120	52.0	2.5	/experiments/knapen_AOT/AOT_stimuli/rescaled_final/1055_fw.mp4	0.0	254.5511348247528	1.0002360343933105
54	237.19373202323914	pulse	0	t		52.0	2.5	/experiments/knapen_AOT/AOT_stimuli/rescaled_final/1055_fw.mp4	0.0	255.54316091537476	
54	237.2019419670105	movie	1		243	52.0	2.5	/experiments/knapen_AOT/AOT_stimuli/rescaled_final/1055_fw.mp4	0.0	255.55137085914612	2.5086729526519775
54	238.7943079471588	pulse	1	t		52.0	2.5	/experiments/knapen_AOT/AOT_stimuli/rescaled_final/1055_fw.mp4	0.0	257.14373683929443	
54	239.71061491966248	fix_post	2		12	52.0	2.5	/experiments/knapen_AOT/AOT_stimuli/rescaled_final/1055_fw.mp4	0.0	258.0600438117981	0.10001611709594727
55	239.81063103675842	fix_pre	0		120	53.0	2.5	/experiments/knapen_AOT/AOT_stimuli/rescaled_final/0732_rv.mp4	0.0	258.16005992889404	1.0000848770141602
55	240.39411902427673	pulse	0	t		53.0	2.5	/experiments/knapen_AOT/AOT_stimuli/rescaled_final/0732_rv.mp4	0.0	258.74354791641235	
55	240.81071591377258	movie	1		244	53.0	2.5	/experiments/knapen_AOT/AOT_stimuli/rescaled_final/0732_rv.mp4	0.0	259.1601448059082	2.5004570484161377
55	241.99449586868286	pulse	1	t		53.0	2.5	/experiments/knapen_AOT/AOT_stimuli/rescaled_final/0732_rv.mp4	0.0	260.3439247608185	
55	243.31117296218872	fix_post	2		12	53.0	2.5	/experiments/knapen_AOT/AOT_stimuli/rescaled_final/0732_rv.mp4	0.0	261.66060185432434	0.09996795654296875
56	243.4111409187317	fix_pre	0		120	54.0	2.5	/experiments/knapen_AOT/AOT_stimuli/rescaled_final/1014_fw.mp4	0.0	261.7605698108673	1.000135898590088
56	243.594712972641	pulse	0	t		54.0	2.5	/experiments/knapen_AOT/AOT_stimuli/rescaled_final/1014_fw.mp4	0.0	261.9441418647766	
56	244.41127681732178	movie	1		242	54.0	2.5	/experiments/knapen_AOT/AOT_stimuli/rescaled_final/1014_fw.mp4	0.0	262.7607057094574	2.500493049621582
56	245.1949269771576	pulse	1	t		54.0	2.5	/experiments/knapen_AOT/AOT_stimuli/rescaled_final/1014_fw.mp4	0.0	263.5443558692932	
56	246.79512286186218	pulse	1	t		54.0	2.5	/experiments/knapen_AOT/AOT_stimuli/rescaled_final/1014_fw.mp4	0.0	265.1445517539978	
56	246.91176986694336	fix_post	2		12	54.0	2.5	/experiments/knapen_AOT/AOT_stimuli/rescaled_final/1014_fw.mp4	0.0	265.261198759079	0.09988903999328613
57	247.01165890693665	fix_pre	0		120	55.0	2.5	/experiments/knapen_AOT/AOT_stimuli/rescaled_final/0640_fw.mp4	0.0	265.36108779907227	1.0002028942108154
57	248.01186180114746	movie	1		241	55.0	2.5	/experiments/knapen_AOT/AOT_stimuli/rescaled_final/0640_fw.mp4	0.0	266.3612906932831	2.492155075073242
57	248.39611196517944	pulse	1	t		55.0	2.5	/experiments/knapen_AOT/AOT_stimuli/rescaled_final/0640_fw.mp4	0.0	266.74554085731506	
57	249.9955449104309	pulse	1	t		55.0	2.5	/experiments/knapen_AOT/AOT_stimuli/rescaled_final/0640_fw.mp4	0.0	268.3449738025665	
57	250.5040168762207	fix_post	2		12	55.0	2.5	/experiments/knapen_AOT/AOT_stimuli/rescaled_final/0640_fw.mp4	0.0	268.8534457683563	0.09989213943481445
58	250.60390901565552	fix_pre	0		120	56.0	2.5	blank	1.0	268.95333790779114	1.0001678466796875
58	251.59590196609497	pulse	0	t		56.0	2.5	blank	1.0	269.9453308582306	
58	251.6040768623352	movie	1		301	56.0	2.5	blank	1.0	269.9535057544708	2.5086469650268555
58	253.19612789154053	pulse	1	t		56.0	2.5	blank	1.0	271.54555678367615	
58	254.11272382736206	fix_post	2		12	56.0	2.5	blank	1.0	272.4621527194977	0.10005402565002441
59	254.21277785301208	fix_pre	0		120	57.0	2.5	/experiments/knapen_AOT/AOT_stimuli/rescaled_final/1760_rv.mp4	0.0	272.5622067451477	1.0001859664916992
59	254.79627585411072	pulse	0	t		57.0	2.5	/experiments/knapen_AOT/AOT_stimuli/rescaled_final/1760_rv.mp4	0.0	273.14570474624634	
59	255.21296381950378	movie	1		243	57.0	2.5	/experiments/knapen_AOT/AOT_stimuli/rescaled_final/1760_rv.mp4	0.0	273.5623927116394	2.5002691745758057
59	256.3924000263214	pulse	1	t		57.0	2.5	/experiments/knapen_AOT/AOT_stimuli/rescaled_final/1760_rv.mp4	0.0	274.74182891845703	
59	257.7132329940796	fix_post	2		12	57.0	2.5	/experiments/knapen_AOT/AOT_stimuli/rescaled_final/1760_rv.mp4	0.0	276.0626618862152	0.1000208854675293
60	257.8132538795471	fix_pre	0		120	58.0	2.5	/experiments/knapen_AOT/AOT_stimuli/rescaled_final/1240_rv.mp4	0.0	276.16268277168274	1.0001540184020996
60	257.99689984321594	pulse	0	t		58.0	2.5	/experiments/knapen_AOT/AOT_stimuli/rescaled_final/1240_rv.mp4	0.0	276.34632873535156	
60	258.8134078979492	movie	1		243	58.0	2.5	/experiments/knapen_AOT/AOT_stimuli/rescaled_final/1240_rv.mp4	0.0	277.16283679008484	2.5005319118499756
60	259.5971050262451	pulse	1	t		58.0	2.5	/experiments/knapen_AOT/AOT_stimuli/rescaled_final/1240_rv.mp4	0.0	277.94653391838074	
60	261.19783902168274	pulse	1	t		58.0	2.5	/experiments/knapen_AOT/AOT_stimuli/rescaled_final/1240_rv.mp4	0.0	279.54726791381836	
60	261.3139398097992	fix_post	2		12	58.0	2.5	/experiments/knapen_AOT/AOT_stimuli/rescaled_final/1240_rv.mp4	0.0	279.6633687019348	0.09994101524353027
61	261.4138808250427	fix_pre	0		120	59.0	2.5	/experiments/knapen_AOT/AOT_stimuli/rescaled_final/1909_fw.mp4	0.0	279.76330971717834	1.000190019607544
61	262.41407084465027	movie	1		242	59.0	2.5	/experiments/knapen_AOT/AOT_stimuli/rescaled_final/1909_fw.mp4	0.0	280.7634997367859	2.4921000003814697
61	262.80172395706177	pulse	1	t		59.0	2.5	/experiments/knapen_AOT/AOT_stimuli/rescaled_final/1909_fw.mp4	0.0	281.1511528491974	
61	264.3978478908539	pulse	1	t		59.0	2.5	/experiments/knapen_AOT/AOT_stimuli/rescaled_final/1909_fw.mp4	0.0	282.7472767829895	
61	264.90617084503174	fix_post	2		12	59.0	2.5	/experiments/knapen_AOT/AOT_stimuli/rescaled_final/1909_fw.mp4	0.0	283.25559973716736	0.09986996650695801
62	265.0060408115387	fix_pre	0		120	60.0	2.5	/experiments/knapen_AOT/AOT_stimuli/rescaled_final/1816_rv.mp4	0.0	283.3554697036743	1.0001661777496338
62	265.9980049133301	pulse	0	t		60.0	2.5	/experiments/knapen_AOT/AOT_stimuli/rescaled_final/1816_rv.mp4	0.0	284.3474338054657	
62	266.00620698928833	movie	1		244	60.0	2.5	/experiments/knapen_AOT/AOT_stimuli/rescaled_final/1816_rv.mp4	0.0	284.35563588142395	2.5087008476257324
62	267.5989468097687	pulse	1	t		60.0	2.5	/experiments/knapen_AOT/AOT_stimuli/rescaled_final/1816_rv.mp4	0.0	285.9483757019043	
62	268.51490783691406	fix_post	2		12	60.0	2.5	/experiments/knapen_AOT/AOT_stimuli/rescaled_final/1816_rv.mp4	0.0	286.8643367290497	0.10001206398010254
63	268.61491990089417	fix_pre	0		120	61.0	2.5	blank	1.0	286.9643487930298	1.0001261234283447
63	269.1984119415283	pulse	0	t		61.0	2.5	blank	1.0	287.54784083366394	
63	269.6150460243225	movie	1		300	61.0	2.5	blank	1.0	287.96447491645813	2.5004079341888428
63	270.7903950214386	pulse	1	t		61.0	2.5	blank	1.0	289.1398239135742	
63	272.11545395851135	fix_post	2		12	61.0	2.5	blank	1.0	290.464882850647	0.0999760627746582
64	272.215430021286	fix_pre	0		120	62.0	2.5	/experiments/knapen_AOT/AOT_stimuli/rescaled_final/0262_rv.mp4	0.0	290.56485891342163	1.0001959800720215
64	272.39157485961914	pulse	0	t		62.0	2.5	/experiments/knapen_AOT/AOT_stimuli/rescaled_final/0262_rv.mp4	0.0	290.74100375175476	
64	273.21562600135803	movie	1		246	62.0	2.5	/experiments/knapen_AOT/AOT_stimuli/rescaled_final/0262_rv.mp4	0.0	291.56505489349365	2.5003390312194824
64	273.990797996521	pulse	1	t		62.0	2.5	/experiments/knapen_AOT/AOT_stimuli/rescaled_final/0262_rv.mp4	0.0	292.3402268886566	
64	275.59123182296753	pulse	1	t		62.0	2.5	/experiments/knapen_AOT/AOT_stimuli/rescaled_final/0262_rv.mp4	0.0	293.94066071510315	
64	275.7159650325775	fix_post	2		9	62.0	2.5	/experiments/knapen_AOT/AOT_stimuli/rescaled_final/0262_rv.mp4	0.0	294.06539392471313	0.10002899169921875
65	275.81599402427673	fix_pre	0		120	63.0	2.5	/experiments/knapen_AOT/AOT_stimuli/rescaled_final/2013_rv.mp4	0.0	294.16542291641235	1.000173807144165
65	276.8161678314209	movie	1		242	63.0	2.5	/experiments/knapen_AOT/AOT_stimuli/rescaled_final/2013_rv.mp4	0.0	295.1655967235565	2.492079973220825
65	277.1913208961487	pulse	1	t		63.0	2.5	/experiments/knapen_AOT/AOT_stimuli/rescaled_final/2013_rv.mp4	0.0	295.5407497882843	
65	278.7915759086609	pulse	1	t		63.0	2.5	/experiments/knapen_AOT/AOT_stimuli/rescaled_final/2013_rv.mp4	0.0	297.1410048007965	
65	279.3082478046417	fix_post	2		12	63.0	2.5	/experiments/knapen_AOT/AOT_stimuli/rescaled_final/2013_rv.mp4	0.0	297.65767669677734	0.09998917579650879
66	279.40823698043823	fix_pre	0		119	64.0	2.5	/experiments/knapen_AOT/AOT_stimuli/rescaled_final/1540_rv.mp4	0.0	297.75766587257385	0.9917469024658203
66	280.39179491996765	pulse	0	t		64.0	2.5	/experiments/knapen_AOT/AOT_stimuli/rescaled_final/1540_rv.mp4	0.0	298.74122381210327	
66	280.39998388290405	movie	1		244	64.0	2.5	/experiments/knapen_AOT/AOT_stimuli/rescaled_final/1540_rv.mp4	0.0	298.7494127750397	2.5086700916290283
66	281.99324584007263	pulse	1	t		64.0	2.5	/experiments/knapen_AOT/AOT_stimuli/rescaled_final/1540_rv.mp4	0.0	300.34267473220825	
66	282.9086539745331	fix_post	2		12	64.0	2.5	/experiments/knapen_AOT/AOT_stimuli/rescaled_final/1540_rv.mp4	0.0	301.2580828666687	0.10006189346313477
67	283.0087158679962	fix_pre	0		120	65.0	2.5	/experiments/knapen_AOT/AOT_stimuli/rescaled_final/0086_rv.mp4	0.0	301.35814476013184	1.0001420974731445
67	283.5923249721527	pulse	0	t		65.0	2.5	/experiments/knapen_AOT/AOT_stimuli/rescaled_final/0086_rv.mp4	0.0	301.94175386428833	
67	284.00885796546936	movie	1		242	65.0	2.5	/experiments/knapen_AOT/AOT_stimuli/rescaled_final/0086_rv.mp4	0.0	302.358286857605	2.5004098415374756
67	285.1925690174103	pulse	1	t		65.0	2.5	/experiments/knapen_AOT/AOT_stimuli/rescaled_final/0086_rv.mp4	0.0	303.5419979095459	
67	286.50926780700684	fix_post	2		12	65.0	2.5	/experiments/knapen_AOT/AOT_stimuli/rescaled_final/0086_rv.mp4	0.0	304.85869669914246	0.09995222091674805
68	286.6092200279236	fix_pre	0		120	66.0	2.5	/experiments/knapen_AOT/AOT_stimuli/rescaled_final/0115_rv.mp4	0.0	304.9586489200592	1.0002830028533936
68	286.79284596443176	pulse	0	t		66.0	2.5	/experiments/knapen_AOT/AOT_stimuli/rescaled_final/0115_rv.mp4	0.0	305.1422748565674	
68	287.609503030777	movie	1		244	66.0	2.5	/experiments/knapen_AOT/AOT_stimuli/rescaled_final/0115_rv.mp4	0.0	305.9589319229126	2.500234842300415
68	288.3929798603058	pulse	1	t		66.0	2.5	/experiments/knapen_AOT/AOT_stimuli/rescaled_final/0115_rv.mp4	0.0	306.7424087524414	
68	289.9933259487152	pulse	1	t		66.0	2.5	/experiments/knapen_AOT/AOT_stimuli/rescaled_final/0115_rv.mp4	0.0	308.34275484085083	
68	290.1097378730774	fix_post	2		12	66.0	2.5	/experiments/knapen_AOT/AOT_stimuli/rescaled_final/0115_rv.mp4	0.0	308.459166765213	0.10005807876586914
69	290.20979595184326	fix_pre	0		120	67.0	2.5	/experiments/knapen_AOT/AOT_stimuli/rescaled_final/0972_rv.mp4	0.0	308.5592248439789	1.0001130104064941
69	291.20990896224976	movie	1		241	67.0	2.5	/experiments/knapen_AOT/AOT_stimuli/rescaled_final/0972_rv.mp4	0.0	309.5593378543854	2.4920549392700195
69	291.594074010849	pulse	1	t		67.0	2.5	/experiments/knapen_AOT/AOT_stimuli/rescaled_final/0972_rv.mp4	0.0	309.9435029029846	
69	293.1936819553375	pulse	1	t		67.0	2.5	/experiments/knapen_AOT/AOT_stimuli/rescaled_final/0972_rv.mp4	0.0	311.54311084747314	
69	293.7019639015198	fix_post	2		12	67.0	2.5	/experiments/knapen_AOT/AOT_stimuli/rescaled_final/0972_rv.mp4	0.0	312.0513927936554	0.10008001327514648
70	293.8020439147949	fix_pre	0		120	68.0	2.5	blank	1.0	312.15147280693054	1.0001249313354492
70	294.7940809726715	pulse	0	t		68.0	2.5	blank	1.0	313.14350986480713	
70	294.80216884613037	movie	1		301	68.0	2.5	blank	1.0	313.151597738266	2.5087151527404785
70	296.39425683021545	pulse	1	t		68.0	2.5	blank	1.0	314.7436857223511	
70	297.31088399887085	fix_post	2		12	68.0	2.5	blank	1.0	315.66031289100647	0.10001492500305176
71	297.4108989238739	fix_pre	0		120	69.0	2.5	/experiments/knapen_AOT/AOT_stimuli/rescaled_final/0319_rv.mp4	0.0	315.7603278160095	1.0001130104064941
71	297.99448895454407	pulse	0	t		69.0	2.5	/experiments/knapen_AOT/AOT_stimuli/rescaled_final/0319_rv.mp4	0.0	316.3439178466797	
71	298.4110119342804	movie	1		242	69.0	2.5	/experiments/knapen_AOT/AOT_stimuli/rescaled_final/0319_rv.mp4	0.0	316.760440826416	2.500454902648926
71	299.5947289466858	pulse	1	t		69.0	2.5	/experiments/knapen_AOT/AOT_stimuli/rescaled_final/0319_rv.mp4	0.0	317.9441578388214	
71	300.9114668369293	fix_post	2		12	69.0	2.5	/experiments/knapen_AOT/AOT_stimuli/rescaled_final/0319_rv.mp4	0.0	319.26089572906494	0.09990715980529785
72	301.0113739967346	fix_pre	0		120	70.0	2.5	/experiments/knapen_AOT/AOT_stimuli/rescaled_final/0250_fw.mp4	0.0	319.36080288887024	1.0001850128173828
72	301.19488883018494	pulse	0	t		70.0	2.5	/experiments/knapen_AOT/AOT_stimuli/rescaled_final/0250_fw.mp4	0.0	319.54431772232056	
72	302.011559009552	movie	1		243	70.0	2.5	/experiments/knapen_AOT/AOT_stimuli/rescaled_final/0250_fw.mp4	0.0	320.3609879016876	2.5005478858947754
72	302.79520893096924	pulse	1	t		70.0	2.5	/experiments/knapen_AOT/AOT_stimuli/rescaled_final/0250_fw.mp4	0.0	321.14463782310486	
72	304.3954939842224	pulse	1	t		70.0	2.5	/experiments/knapen_AOT/AOT_stimuli/rescaled_final/0250_fw.mp4	0.0	322.74492287635803	
72	304.5121068954468	fix_post	2		12	70.0	2.5	/experiments/knapen_AOT/AOT_stimuli/rescaled_final/0250_fw.mp4	0.0	322.8615357875824	0.09987092018127441
73	304.61197781562805	fix_pre	0		120	71.0	2.5	/experiments/knapen_AOT/AOT_stimuli/rescaled_final/1250_rv.mp4	0.0	322.9614067077637	1.0001511573791504
73	305.6121289730072	movie	1		243	71.0	2.5	/experiments/knapen_AOT/AOT_stimuli/rescaled_final/1250_rv.mp4	0.0	323.9615578651428	2.49202299118042
73	305.99701595306396	pulse	1	t		71.0	2.5	/experiments/knapen_AOT/AOT_stimuli/rescaled_final/1250_rv.mp4	0.0	324.3464448451996	
73	307.5958659648895	pulse	1	t		71.0	2.5	/experiments/knapen_AOT/AOT_stimuli/rescaled_final/1250_rv.mp4	0.0	325.94529485702515	
73	308.1041519641876	fix_post	2		12	71.0	2.5	/experiments/knapen_AOT/AOT_stimuli/rescaled_final/1250_rv.mp4	0.0	326.45358085632324	0.10003304481506348
74	308.2041850090027	fix_pre	0		120	72.0	2.5	/experiments/knapen_AOT/AOT_stimuli/rescaled_final/1498_fw.mp4	0.0	326.5536139011383	1.0000619888305664
74	309.196182012558	pulse	0	t		72.0	2.5	/experiments/knapen_AOT/AOT_stimuli/rescaled_final/1498_fw.mp4	0.0	327.5456109046936	
74	309.20424699783325	movie	1		243	72.0	2.5	/experiments/knapen_AOT/AOT_stimuli/rescaled_final/1498_fw.mp4	0.0	327.5536758899689	2.508733034133911
74	310.79690885543823	pulse	1	t		72.0	2.5	/experiments/knapen_AOT/AOT_stimuli/rescaled_final/1498_fw.mp4	0.0	329.14633774757385	
74	311.71298003196716	fix_post	2		12	72.0	2.5	/experiments/knapen_AOT/AOT_stimuli/rescaled_final/1498_fw.mp4	0.0	330.0624089241028	0.10002899169921875
75	311.8130090236664	fix_pre	0		120	73.0	2.5	/experiments/knapen_AOT/AOT_stimuli/rescaled_final/0481_rv.mp4	0.0	330.162437915802	1.0001509189605713
75	312.3965299129486	pulse	0	t		73.0	2.5	/experiments/knapen_AOT/AOT_stimuli/rescaled_final/0481_rv.mp4	0.0	330.74595880508423	
75	312.81315994262695	movie	1		244	73.0	2.5	/experiments/knapen_AOT/AOT_stimuli/rescaled_final/0481_rv.mp4	0.0	331.1625888347626	2.500375986099243
75	313.996878862381	pulse	1	t		73.0	2.5	/experiments/knapen_AOT/AOT_stimuli/rescaled_final/0481_rv.mp4	0.0	332.3463077545166	
75	315.3135359287262	fix_post	2		12	73.0	2.5	/experiments/knapen_AOT/AOT_stimuli/rescaled_final/0481_rv.mp4	0.0	333.6629648208618	0.10009002685546875
76	315.41362595558167	fix_pre	0		120	74.0	2.5	/experiments/knapen_AOT/AOT_stimuli/rescaled_final/1999_fw.mp4	0.0	333.7630548477173	1.0001170635223389
76	315.597039937973	pulse	0	t		74.0	2.5	/experiments/knapen_AOT/AOT_stimuli/rescaled_final/1999_fw.mp4	0.0	333.94646883010864	
76	316.413743019104	movie	1		242	74.0	2.5	/experiments/knapen_AOT/AOT_stimuli/rescaled_final/1999_fw.mp4	0.0	334.7631719112396	2.500440835952759
76	317.19732093811035	pulse	1	t		74.0	2.5	/experiments/knapen_AOT/AOT_stimuli/rescaled_final/1999_fw.mp4	0.0	335.546749830246	
76	318.79754400253296	pulse	1	t		74.0	2.5	/experiments/knapen_AOT/AOT_stimuli/rescaled_final/1999_fw.mp4	0.0	337.1469728946686	
76	318.91418385505676	fix_post	2		12	74.0	2.5	/experiments/knapen_AOT/AOT_stimuli/rescaled_final/1999_fw.mp4	0.0	337.2636127471924	0.09993410110473633
77	319.0141179561615	fix_pre	0		120	75.0	2.5	/experiments/knapen_AOT/AOT_stimuli/rescaled_final/0526_rv.mp4	0.0	337.3635468482971	1.000128984451294
77	320.0142469406128	movie	1		242	75.0	2.5	/experiments/knapen_AOT/AOT_stimuli/rescaled_final/0526_rv.mp4	0.0	338.3636758327484	2.4920010566711426
77	320.3980920314789	pulse	1	t		75.0	2.5	/experiments/knapen_AOT/AOT_stimuli/rescaled_final/0526_rv.mp4	0.0	338.7475209236145	
77	321.9979989528656	pulse	1	t		75.0	2.5	/experiments/knapen_AOT/AOT_stimuli/rescaled_final/0526_rv.mp4	0.0	340.3474278450012	
77	322.50624799728394	fix_post	2		12	75.0	2.5	/experiments/knapen_AOT/AOT_stimuli/rescaled_final/0526_rv.mp4	0.0	340.85567688941956	0.1000359058380127
78	322.60628390312195	fix_pre	0		120	76.0	2.5	blank	1.0	340.95571279525757	1.000196933746338
78	323.59077191352844	pulse	0	t		76.0	2.5	blank	1.0	341.94020080566406	
78	323.6064808368683	movie	1		301	76.0	2.5	blank	1.0	341.9559097290039	2.50870418548584
78	325.19088101387024	pulse	1	t		76.0	2.5	blank	1.0	343.54030990600586	
78	326.1151850223541	fix_post	2		12	76.0	2.5	blank	1.0	344.46461391448975	0.10003185272216797
79	326.2152168750763	fix_pre	0		120	77.0	2.5	/experiments/knapen_AOT/AOT_stimuli/rescaled_final/2128_fw.mp4	0.0	344.5646457672119	1.0001001358032227
79	326.7912118434906	pulse	0	t		77.0	2.5	/experiments/knapen_AOT/AOT_stimuli/rescaled_final/2128_fw.mp4	0.0	345.1406407356262	
79	327.2153170108795	movie	1		244	77.0	2.5	/experiments/knapen_AOT/AOT_stimuli/rescaled_final/2128_fw.mp4	0.0	345.56474590301514	2.500502824783325
79	328.3918948173523	pulse	1	t		77.0	2.5	/experiments/knapen_AOT/AOT_stimuli/rescaled_final/2128_fw.mp4	0.0	346.7413237094879	
79	329.71581983566284	fix_post	2		12	77.0	2.5	/experiments/knapen_AOT/AOT_stimuli/rescaled_final/2128_fw.mp4	0.0	348.06524872779846	0.09990596771240234
80	329.81572580337524	fix_pre	0		120	78.0	2.5	/experiments/knapen_AOT/AOT_stimuli/rescaled_final/1998_fw.mp4	0.0	348.16515469551086	1.000136137008667
80	329.9916639328003	pulse	0	t		78.0	2.5	/experiments/knapen_AOT/AOT_stimuli/rescaled_final/1998_fw.mp4	0.0	348.3410928249359	
80	330.8158619403839	movie	1		242	78.0	2.5	/experiments/knapen_AOT/AOT_stimuli/rescaled_final/1998_fw.mp4	0.0	349.16529083251953	2.5004210472106934
80	331.59115195274353	pulse	1	t		78.0	2.5	/experiments/knapen_AOT/AOT_stimuli/rescaled_final/1998_fw.mp4	0.0	349.94058084487915	
80	333.19127202033997	pulse	1	t		78.0	2.5	/experiments/knapen_AOT/AOT_stimuli/rescaled_final/1998_fw.mp4	0.0	351.5407009124756	
80	333.3162829875946	fix_post	2		12	78.0	2.5	/experiments/knapen_AOT/AOT_stimuli/rescaled_final/1998_fw.mp4	0.0	351.6657118797302	0.09993290901184082
81	333.41621589660645	fix_pre	0		119	79.0	2.5	/experiments/knapen_AOT/AOT_stimuli/rescaled_final/1930_fw.mp4	0.0	351.76564478874207	0.9918079376220703
81	334.4080238342285	movie	1		243	79.0	2.5	/experiments/knapen_AOT/AOT_stimuli/rescaled_final/1930_fw.mp4	0.0	352.75745272636414	2.5004470348358154
81	334.79201102256775	pulse	1	t		79.0	2.5	/experiments/knapen_AOT/AOT_stimuli/rescaled_final/1930_fw.mp4	0.0	353.14143991470337	
81	336.3919208049774	pulse	1	t		79.0	2.5	/experiments/knapen_AOT/AOT_stimuli/rescaled_final/1930_fw.mp4	0.0	354.74134969711304	
81	336.90847086906433	fix_post	2		12	79.0	2.5	/experiments/knapen_AOT/AOT_stimuli/rescaled_final/1930_fw.mp4	0.0	355.25789976119995	0.09991908073425293
82	337.0083899497986	fix_pre	0		117	80.0	2.5	/experiments/knapen_AOT/AOT_stimuli/rescaled_final/0638_fw.mp4	0.0	355.3578188419342	0.9918360710144043
82	337.992045879364	pulse	0	t		80.0	2.5	/experiments/knapen_AOT/AOT_stimuli/rescaled_final/0638_fw.mp4	0.0	356.34147477149963	
82	338.000226020813	movie	1		244	80.0	2.5	/experiments/knapen_AOT/AOT_stimuli/rescaled_final/0638_fw.mp4	0.0	356.3496549129486	2.508729934692383
82	339.5962278842926	pulse	1	t		80.0	2.5	/experiments/knapen_AOT/AOT_stimuli/rescaled_final/0638_fw.mp4	0.0	357.9456567764282	
82	340.50895595550537	fix_post	2		12	80.0	2.5	/experiments/knapen_AOT/AOT_stimuli/rescaled_final/0638_fw.mp4	0.0	358.858384847641	0.10009884834289551
83	340.60905480384827	fix_pre	0		120	81.0	2.5	/experiments/knapen_AOT/AOT_stimuli/rescaled_final/0412_rv.mp4	0.0	358.9584836959839	1.0000901222229004
83	341.1924648284912	pulse	0	t		81.0	2.5	/experiments/knapen_AOT/AOT_stimuli/rescaled_final/0412_rv.mp4	0.0	359.54189372062683	
83	341.60914492607117	movie	1		244	81.0	2.5	/experiments/knapen_AOT/AOT_stimuli/rescaled_final/0412_rv.mp4	0.0	359.9585738182068	2.5003159046173096
83	342.79291582107544	pulse	1	t		81.0	2.5	/experiments/knapen_AOT/AOT_stimuli/rescaled_final/0412_rv.mp4	0.0	361.14234471321106	
83	344.1094608306885	fix_post	2		12	81.0	2.5	/experiments/knapen_AOT/AOT_stimuli/rescaled_final/0412_rv.mp4	0.0	362.4588897228241	0.10003519058227539
84	344.20949602127075	fix_pre	0		120	82.0	2.5	/experiments/knapen_AOT/AOT_stimuli/rescaled_final/0347_fw.mp4	0.0	362.5589249134064	1.0001800060272217
84	344.3931269645691	pulse	0	t		82.0	2.5	/experiments/knapen_AOT/AOT_stimuli/rescaled_final/0347_fw.mp4	0.0	362.7425558567047	
84	345.209676027298	movie	1		242	82.0	2.5	/experiments/knapen_AOT/AOT_stimuli/rescaled_final/0347_fw.mp4	0.0	363.5591049194336	2.500458002090454
84	345.993225812912	pulse	1	t		82.0	2.5	/experiments/knapen_AOT/AOT_stimuli/rescaled_final/0347_fw.mp4	0.0	364.3426547050476	
84	347.59332489967346	pulse	1	t		82.0	2.5	/experiments/knapen_AOT/AOT_stimuli/rescaled_final/0347_fw.mp4	0.0	365.9427537918091	
84	347.7101340293884	fix_post	2		12	82.0	2.5	/experiments/knapen_AOT/AOT_stimuli/rescaled_final/0347_fw.mp4	0.0	366.05956292152405	0.09997892379760742
85	347.81011295318604	fix_pre	0		119	83.0	2.5	blank	1.0	366.15954184532166	0.991724967956543
85	348.8018379211426	movie	1		300	83.0	2.5	blank	1.0	367.1512668132782	2.500385046005249
85	349.19384694099426	pulse	1	t		83.0	2.5	blank	1.0	367.5432758331299	
85	350.7941288948059	pulse	1	t		83.0	2.5	blank	1.0	369.1435577869415	
85	351.3022229671478	fix_post	2		12	83.0	2.5	blank	1.0	369.65165185928345	0.0999898910522461
87	351.4022128582001	stim	0		1716					369.7516417503357	14.302152156829834
87	352.3942639827728	pulse	0	t						370.74369287490845	
87	353.99436497688293	pulse	0	t						372.34379386901855	
87	355.5947768688202	pulse	0	t						373.9442057609558	
87	357.19499588012695	pulse	0	t						375.5444247722626	
87	358.7952208518982	pulse	0	t						377.1446497440338	
87	360.3953239917755	pulse	0	t						378.74475288391113	
87	361.99558901786804	pulse	0	t						380.34501791000366	
87	363.5959379673004	pulse	0	t						381.94536685943604	
87	365.19617891311646	pulse	0	t						383.5456078052521	
