trial_nr	onset	event_type	phase	response	nr_frames	movie_index	movie_duration	movie_file	blank	onset_abs	duration
0	0.10817289352416992	stim	0		27					36.581196784973145	0.22498703002929688
0	0.3251328468322754	response	0	space						36.79815673828125	
1	0.3331599235534668	stim	0		4895					36.80618381500244	40.7909369468689
1	41.12114095687866	pulse	0	t						77.59416484832764	
1	41.12409687042236	stim	1		1717					77.59712076187134	14.308372020721436
1	42.716387033462524	pulse	1	t						79.1894109249115	
1	44.3163800239563	pulse	1	t						80.78940391540527	
1	45.91635799407959	pulse	1	t						82.38938188552856	
1	47.51655197143555	pulse	1	t						83.98957586288452	
1	49.116339921951294	pulse	1	t						85.58936381340027	
1	50.71637296676636	pulse	1	t						87.18939685821533	
1	52.31636881828308	pulse	1	t						88.78939270973206	
1	53.916308879852295	pulse	1	t						90.38933277130127	
2	55.4324688911438	fix_pre	0		11	0.0	2.5	/experiments/AOT/AOT_stimuli/rescaled_final/0649_fw.mp4	0.0	91.90549278259277	0.09206104278564453
2	55.51641392707825	pulse	0	t		0.0	2.5	/experiments/AOT/AOT_stimuli/rescaled_final/0649_fw.mp4	0.0	91.98943781852722	
2	55.52452993392944	movie	1		243	0.0	2.5	/experiments/AOT/AOT_stimuli/rescaled_final/0649_fw.mp4	0.0	91.99755382537842	2.508280038833618
2	57.11608386039734	pulse	1	t		0.0	2.5	/experiments/AOT/AOT_stimuli/rescaled_final/0649_fw.mp4	0.0	93.58910775184631	
2	58.03280997276306	fix_post	2		12	0.0	2.5	/experiments/AOT/AOT_stimuli/rescaled_final/0649_fw.mp4	0.0	94.50583386421204	0.09999704360961914
3	58.13280701637268	fix_pre	0		120	1.0	2.5	/experiments/AOT/AOT_stimuli/rescaled_final/0671_fw.mp4	0.0	94.60583090782166	1.0001308917999268
3	58.71641993522644	pulse	0	t		1.0	2.5	/experiments/AOT/AOT_stimuli/rescaled_final/0671_fw.mp4	0.0	95.18944382667542	
3	59.13293790817261	movie	1		244	1.0	2.5	/experiments/AOT/AOT_stimuli/rescaled_final/0671_fw.mp4	0.0	95.60596179962158	2.499501943588257
3	60.31639289855957	pulse	1	t		1.0	2.5	/experiments/AOT/AOT_stimuli/rescaled_final/0671_fw.mp4	0.0	96.78941679000854	
3	61.632439851760864	fix_post	2		12	1.0	2.5	/experiments/AOT/AOT_stimuli/rescaled_final/0671_fw.mp4	0.0	98.10546374320984	0.10048103332519531
4	61.73292088508606	fix_pre	0		120	2.0	2.5	/experiments/AOT/AOT_stimuli/rescaled_final/0174_rv.mp4	0.0	98.20594477653503	0.9999351501464844
4	61.916329860687256	pulse	0	t		2.0	2.5	/experiments/AOT/AOT_stimuli/rescaled_final/0174_rv.mp4	0.0	98.38935375213623	
4	62.732856035232544	movie	1		245	2.0	2.5	/experiments/AOT/AOT_stimuli/rescaled_final/0174_rv.mp4	0.0	99.20587992668152	2.500091791152954
4	63.51576900482178	pulse	1	t		2.0	2.5	/experiments/AOT/AOT_stimuli/rescaled_final/0174_rv.mp4	0.0	99.98879289627075	
4	65.12476396560669	pulse	1	t		2.0	2.5	/experiments/AOT/AOT_stimuli/rescaled_final/0174_rv.mp4	0.0	101.59778785705566	
4	65.2329478263855	fix_post	2		12	2.0	2.5	/experiments/AOT/AOT_stimuli/rescaled_final/0174_rv.mp4	0.0	101.70597171783447	0.09990119934082031
5	65.33284902572632	fix_pre	0		120	3.0	2.5	/experiments/AOT/AOT_stimuli/rescaled_final/1463_rv.mp4	0.0	101.8058729171753	0.9996798038482666
5	66.33252882957458	movie	1		244	3.0	2.5	/experiments/AOT/AOT_stimuli/rescaled_final/1463_rv.mp4	0.0	102.80555272102356	2.5002942085266113
5	66.72453093528748	pulse	1	t		3.0	2.5	/experiments/AOT/AOT_stimuli/rescaled_final/1463_rv.mp4	0.0	103.19755482673645	
5	68.31637501716614	pulse	1	t		3.0	2.5	/experiments/AOT/AOT_stimuli/rescaled_final/1463_rv.mp4	0.0	104.78939890861511	
5	68.8328230381012	fix_post	2		12	3.0	2.5	/experiments/AOT/AOT_stimuli/rescaled_final/1463_rv.mp4	0.0	105.30584692955017	0.10003185272216797
6	68.93285489082336	fix_pre	0		119	4.0	2.5	/experiments/AOT/AOT_stimuli/rescaled_final/2155_rv.mp4	0.0	105.40587878227234	0.9916350841522217
6	69.91630482673645	pulse	0	t		4.0	2.5	/experiments/AOT/AOT_stimuli/rescaled_final/2155_rv.mp4	0.0	106.38932871818542	
6	69.92448997497559	movie	1		245	4.0	2.5	/experiments/AOT/AOT_stimuli/rescaled_final/2155_rv.mp4	0.0	106.39751386642456	2.5083420276641846
6	71.51762700080872	pulse	1	t		4.0	2.5	/experiments/AOT/AOT_stimuli/rescaled_final/2155_rv.mp4	0.0	107.99065089225769	
6	72.43283200263977	fix_post	2		12	4.0	2.5	/experiments/AOT/AOT_stimuli/rescaled_final/2155_rv.mp4	0.0	108.90585589408875	0.09985589981079102
7	72.53268790245056	fix_pre	0		120	5.0	2.5	/experiments/AOT/AOT_stimuli/rescaled_final/1387_rv.mp4	0.0	109.00571179389954	1.0000181198120117
7	73.11621189117432	pulse	0	t		5.0	2.5	/experiments/AOT/AOT_stimuli/rescaled_final/1387_rv.mp4	0.0	109.58923578262329	
7	73.53270602226257	movie	1		246	5.0	2.5	/experiments/AOT/AOT_stimuli/rescaled_final/1387_rv.mp4	0.0	110.00572991371155	2.500027894973755
7	74.71641492843628	pulse	1	t		5.0	2.5	/experiments/AOT/AOT_stimuli/rescaled_final/1387_rv.mp4	0.0	111.18943881988525	
7	76.03273391723633	fix_post	2		12	5.0	2.5	/experiments/AOT/AOT_stimuli/rescaled_final/1387_rv.mp4	0.0	112.5057578086853	0.10003113746643066
8	76.13276505470276	fix_pre	0		120	6.0	2.5	/experiments/AOT/AOT_stimuli/rescaled_final/1223_fw.mp4	0.0	112.60578894615173	0.9999308586120605
8	76.31635093688965	pulse	0	t		6.0	2.5	/experiments/AOT/AOT_stimuli/rescaled_final/1223_fw.mp4	0.0	112.78937482833862	
8	77.13269591331482	movie	1		245	6.0	2.5	/experiments/AOT/AOT_stimuli/rescaled_final/1223_fw.mp4	0.0	113.6057198047638	2.5001280307769775
8	77.91618084907532	pulse	1	t		6.0	2.5	/experiments/AOT/AOT_stimuli/rescaled_final/1223_fw.mp4	0.0	114.38920474052429	
8	79.52465295791626	pulse	1	t		6.0	2.5	/experiments/AOT/AOT_stimuli/rescaled_final/1223_fw.mp4	0.0	115.99767684936523	
8	79.6328239440918	fix_post	2		12	6.0	2.5	/experiments/AOT/AOT_stimuli/rescaled_final/1223_fw.mp4	0.0	116.10584783554077	0.09989404678344727
9	79.73271799087524	fix_pre	0		120	7.0	2.5	blank	1.0	116.20574188232422	0.9999969005584717
9	80.73271489143372	movie	1		300	7.0	2.5	blank	1.0	117.20573878288269	2.5000250339508057
9	81.11627888679504	pulse	1	t		7.0	2.5	blank	1.0	117.58930277824402	
9	82.71625089645386	pulse	1	t		7.0	2.5	blank	1.0	119.18927478790283	
9	83.23273992538452	fix_post	2		12	7.0	2.5	blank	1.0	119.7057638168335	0.09996891021728516
10	83.3327088356018	fix_pre	0		119	8.0	2.5	/experiments/AOT/AOT_stimuli/rescaled_final/1751_fw.mp4	0.0	119.80573272705078	0.9916272163391113
10	84.31621384620667	pulse	0	t		8.0	2.5	/experiments/AOT/AOT_stimuli/rescaled_final/1751_fw.mp4	0.0	120.78923773765564	
10	84.32433605194092	movie	1		243	8.0	2.5	/experiments/AOT/AOT_stimuli/rescaled_final/1751_fw.mp4	0.0	120.79735994338989	2.5079798698425293
10	85.91660690307617	pulse	1	t		8.0	2.5	/experiments/AOT/AOT_stimuli/rescaled_final/1751_fw.mp4	0.0	122.38963079452515	
10	86.83231592178345	fix_post	2		12	8.0	2.5	/experiments/AOT/AOT_stimuli/rescaled_final/1751_fw.mp4	0.0	123.30533981323242	0.1004021167755127
11	86.93271803855896	fix_pre	0		120	9.0	2.5	/experiments/AOT/AOT_stimuli/rescaled_final/0545_rv.mp4	0.0	123.40574193000793	1.000072956085205
11	87.51609802246094	pulse	0	t		9.0	2.5	/experiments/AOT/AOT_stimuli/rescaled_final/0545_rv.mp4	0.0	123.98912191390991	
11	87.93279099464417	movie	1		243	9.0	2.5	/experiments/AOT/AOT_stimuli/rescaled_final/0545_rv.mp4	0.0	124.40581488609314	2.4998748302459717
11	89.11623883247375	pulse	1	t		9.0	2.5	/experiments/AOT/AOT_stimuli/rescaled_final/0545_rv.mp4	0.0	125.58926272392273	
11	90.43266582489014	fix_post	2		12	9.0	2.5	/experiments/AOT/AOT_stimuli/rescaled_final/0545_rv.mp4	0.0	126.90568971633911	0.09996914863586426
12	90.532634973526	fix_pre	0		120	10.0	2.5	/experiments/AOT/AOT_stimuli/rescaled_final/1578_rv.mp4	0.0	127.00565886497498	1.000079870223999
12	90.71618700027466	pulse	0	t		10.0	2.5	/experiments/AOT/AOT_stimuli/rescaled_final/1578_rv.mp4	0.0	127.18921089172363	
12	91.53271484375	movie	1		248	10.0	2.5	/experiments/AOT/AOT_stimuli/rescaled_final/1578_rv.mp4	0.0	128.00573873519897	2.5000240802764893
12	92.31618285179138	pulse	1	t		10.0	2.5	/experiments/AOT/AOT_stimuli/rescaled_final/1578_rv.mp4	0.0	128.78920674324036	
12	93.91623783111572	pulse	1	t		10.0	2.5	/experiments/AOT/AOT_stimuli/rescaled_final/1578_rv.mp4	0.0	130.3892617225647	
12	94.03273892402649	fix_post	2		12	10.0	2.5	/experiments/AOT/AOT_stimuli/rescaled_final/1578_rv.mp4	0.0	130.50576281547546	0.09987711906433105
13	94.13261604309082	fix_pre	0		120	11.0	2.5	/experiments/AOT/AOT_stimuli/rescaled_final/0083_rv.mp4	0.0	130.6056399345398	1.000091791152954
13	95.13270783424377	movie	1		244	11.0	2.5	/experiments/AOT/AOT_stimuli/rescaled_final/0083_rv.mp4	0.0	131.60573172569275	2.4999611377716064
13	95.51567482948303	pulse	1	t		11.0	2.5	/experiments/AOT/AOT_stimuli/rescaled_final/0083_rv.mp4	0.0	131.988698720932	
13	97.11617302894592	pulse	1	t		11.0	2.5	/experiments/AOT/AOT_stimuli/rescaled_final/0083_rv.mp4	0.0	133.5891969203949	
13	97.63266897201538	fix_post	2		12	11.0	2.5	/experiments/AOT/AOT_stimuli/rescaled_final/0083_rv.mp4	0.0	134.10569286346436	0.09998893737792969
14	97.73265790939331	fix_pre	0		119	12.0	2.5	blank	1.0	134.20568180084229	0.9917500019073486
14	98.71616983413696	pulse	0	t		12.0	2.5	blank	1.0	135.18919372558594	
14	98.72440791130066	movie	1		301	12.0	2.5	blank	1.0	135.19743180274963	2.5082850456237793
14	100.31615996360779	pulse	1	t		12.0	2.5	blank	1.0	136.78918385505676	
14	101.23269295692444	fix_post	2		12	12.0	2.5	blank	1.0	137.7057168483734	0.10001301765441895
15	101.33270597457886	fix_pre	0		120	13.0	2.5	/experiments/AOT/AOT_stimuli/rescaled_final/0805_fw.mp4	0.0	137.80572986602783	0.9999959468841553
15	101.9162540435791	pulse	0	t		13.0	2.5	/experiments/AOT/AOT_stimuli/rescaled_final/0805_fw.mp4	0.0	138.38927793502808	
15	102.33270192146301	movie	1		244	13.0	2.5	/experiments/AOT/AOT_stimuli/rescaled_final/0805_fw.mp4	0.0	138.805725812912	2.49960994720459
15	103.51615691184998	pulse	1	t		13.0	2.5	/experiments/AOT/AOT_stimuli/rescaled_final/0805_fw.mp4	0.0	139.98918080329895	
15	104.8323118686676	fix_post	2		12	13.0	2.5	/experiments/AOT/AOT_stimuli/rescaled_final/0805_fw.mp4	0.0	141.30533576011658	0.1003110408782959
16	104.9326229095459	fix_pre	0		120	14.0	2.5	/experiments/AOT/AOT_stimuli/rescaled_final/0710_rv.mp4	0.0	141.40564680099487	1.000014066696167
16	105.11615300178528	pulse	0	t		14.0	2.5	/experiments/AOT/AOT_stimuli/rescaled_final/0710_rv.mp4	0.0	141.58917689323425	
16	105.93263697624207	movie	1		244	14.0	2.5	/experiments/AOT/AOT_stimuli/rescaled_final/0710_rv.mp4	0.0	142.40566086769104	2.4995360374450684
16	106.71609997749329	pulse	1	t		14.0	2.5	/experiments/AOT/AOT_stimuli/rescaled_final/0710_rv.mp4	0.0	143.18912386894226	
16	108.32450485229492	pulse	1	t		14.0	2.5	/experiments/AOT/AOT_stimuli/rescaled_final/0710_rv.mp4	0.0	144.7975287437439	
16	108.43217301368713	fix_post	2		12	14.0	2.5	/experiments/AOT/AOT_stimuli/rescaled_final/0710_rv.mp4	0.0	144.9051969051361	0.10059285163879395
17	108.53276586532593	fix_pre	0		120	15.0	2.5	/experiments/AOT/AOT_stimuli/rescaled_final/0983_rv.mp4	0.0	145.0057897567749	0.9998111724853516
17	109.53257703781128	movie	1		243	15.0	2.5	/experiments/AOT/AOT_stimuli/rescaled_final/0983_rv.mp4	0.0	146.00560092926025	2.4999959468841553
17	109.91630697250366	pulse	1	t		15.0	2.5	/experiments/AOT/AOT_stimuli/rescaled_final/0983_rv.mp4	0.0	146.38933086395264	
17	111.51601791381836	pulse	1	t		15.0	2.5	/experiments/AOT/AOT_stimuli/rescaled_final/0983_rv.mp4	0.0	147.98904180526733	
17	112.03257298469543	fix_post	2		12	15.0	2.5	/experiments/AOT/AOT_stimuli/rescaled_final/0983_rv.mp4	0.0	148.5055968761444	0.0999610424041748
18	112.13253402709961	fix_pre	0		119	16.0	2.5	/experiments/AOT/AOT_stimuli/rescaled_final/0083_rv.mp4	0.0	148.60555791854858	0.9917628765106201
18	113.11622500419617	pulse	0	t		16.0	2.5	/experiments/AOT/AOT_stimuli/rescaled_final/0083_rv.mp4	0.0	149.58924889564514	
18	113.12429690361023	movie	1		244	16.0	2.5	/experiments/AOT/AOT_stimuli/rescaled_final/0083_rv.mp4	0.0	149.5973207950592	2.508216142654419
18	114.71731686592102	pulse	1	t		16.0	2.5	/experiments/AOT/AOT_stimuli/rescaled_final/0083_rv.mp4	0.0	151.19034075737	
18	115.63251304626465	fix_post	2		12	16.0	2.5	/experiments/AOT/AOT_stimuli/rescaled_final/0083_rv.mp4	0.0	152.10553693771362	0.10000777244567871
19	115.73252081871033	fix_pre	0		120	17.0	2.5	/experiments/AOT/AOT_stimuli/rescaled_final/0528_rv.mp4	0.0	152.2055447101593	0.9999911785125732
19	116.31607985496521	pulse	0	t		17.0	2.5	/experiments/AOT/AOT_stimuli/rescaled_final/0528_rv.mp4	0.0	152.78910374641418	
19	116.7325119972229	movie	1		245	17.0	2.5	/experiments/AOT/AOT_stimuli/rescaled_final/0528_rv.mp4	0.0	153.20553588867188	2.500143051147461
19	117.91625499725342	pulse	1	t		17.0	2.5	/experiments/AOT/AOT_stimuli/rescaled_final/0528_rv.mp4	0.0	154.3892788887024	
19	119.23265504837036	fix_post	2		12	17.0	2.5	/experiments/AOT/AOT_stimuli/rescaled_final/0528_rv.mp4	0.0	155.70567893981934	0.09956884384155273
20	119.33222389221191	fix_pre	0		120	18.0	2.5	/experiments/AOT/AOT_stimuli/rescaled_final/0931_fw.mp4	0.0	155.8052477836609	1.000427007675171
20	119.51609992980957	pulse	0	t		18.0	2.5	/experiments/AOT/AOT_stimuli/rescaled_final/0931_fw.mp4	0.0	155.98912382125854	
20	120.33265089988708	movie	1		244	18.0	2.5	/experiments/AOT/AOT_stimuli/rescaled_final/0931_fw.mp4	0.0	156.80567479133606	2.500138998031616
20	121.11563301086426	pulse	1	t		18.0	2.5	/experiments/AOT/AOT_stimuli/rescaled_final/0931_fw.mp4	0.0	157.58865690231323	
20	122.71680784225464	pulse	1	t		18.0	2.5	/experiments/AOT/AOT_stimuli/rescaled_final/0931_fw.mp4	0.0	159.1898317337036	
20	122.8327898979187	fix_post	2		12	18.0	2.5	/experiments/AOT/AOT_stimuli/rescaled_final/0931_fw.mp4	0.0	159.30581378936768	0.10002303123474121
21	122.93281292915344	fix_pre	0		120	19.0	2.5	blank	1.0	159.40583682060242	0.9998230934143066
21	123.93263602256775	movie	1		300	19.0	2.5	blank	1.0	160.40565991401672	2.499955892562866
21	124.31615400314331	pulse	1	t		19.0	2.5	blank	1.0	160.78917789459229	
21	125.91603994369507	pulse	1	t		19.0	2.5	blank	1.0	162.38906383514404	
21	126.43259191513062	fix_post	2		12	19.0	2.5	blank	1.0	162.9056158065796	0.10000491142272949
22	126.53259682655334	fix_pre	0		119	20.0	2.5	/experiments/AOT/AOT_stimuli/rescaled_final/0090_rv.mp4	0.0	163.00562071800232	0.9916040897369385
22	127.51601696014404	pulse	0	t		20.0	2.5	/experiments/AOT/AOT_stimuli/rescaled_final/0090_rv.mp4	0.0	163.98904085159302	
22	127.52420091629028	movie	1		246	20.0	2.5	/experiments/AOT/AOT_stimuli/rescaled_final/0090_rv.mp4	0.0	163.99722480773926	2.5078940391540527
22	129.12438201904297	pulse	1	t		20.0	2.5	/experiments/AOT/AOT_stimuli/rescaled_final/0090_rv.mp4	0.0	165.59740591049194	
22	130.03209495544434	fix_post	2		12	20.0	2.5	/experiments/AOT/AOT_stimuli/rescaled_final/0090_rv.mp4	0.0	166.5051188468933	0.1004638671875
23	130.13255882263184	fix_pre	0		120	21.0	2.5	/experiments/AOT/AOT_stimuli/rescaled_final/1153_rv.mp4	0.0	166.6055827140808	0.9995410442352295
23	130.71672987937927	pulse	0	t		21.0	2.5	/experiments/AOT/AOT_stimuli/rescaled_final/1153_rv.mp4	0.0	167.18975377082825	
23	131.13209986686707	movie	1		244	21.0	2.5	/experiments/AOT/AOT_stimuli/rescaled_final/1153_rv.mp4	0.0	167.60512375831604	2.5001220703125
23	132.3160719871521	pulse	1	t		21.0	2.5	/experiments/AOT/AOT_stimuli/rescaled_final/1153_rv.mp4	0.0	168.78909587860107	
23	133.63222193717957	fix_post	2		12	21.0	2.5	/experiments/AOT/AOT_stimuli/rescaled_final/1153_rv.mp4	0.0	170.10524582862854	0.10024905204772949
24	133.7324709892273	fix_pre	0		120	22.0	2.5	/experiments/AOT/AOT_stimuli/rescaled_final/0487_fw.mp4	0.0	170.20549488067627	1.0000460147857666
24	133.9159300327301	pulse	0	t		22.0	2.5	/experiments/AOT/AOT_stimuli/rescaled_final/0487_fw.mp4	0.0	170.38895392417908	
24	134.73251700401306	movie	1		248	22.0	2.5	/experiments/AOT/AOT_stimuli/rescaled_final/0487_fw.mp4	0.0	171.20554089546204	2.4999990463256836
24	135.51590085029602	pulse	1	t		22.0	2.5	/experiments/AOT/AOT_stimuli/rescaled_final/0487_fw.mp4	0.0	171.988924741745	
24	137.11594104766846	pulse	1	t		22.0	2.5	/experiments/AOT/AOT_stimuli/rescaled_final/0487_fw.mp4	0.0	173.58896493911743	
24	137.23251605033875	fix_post	2		12	22.0	2.5	/experiments/AOT/AOT_stimuli/rescaled_final/0487_fw.mp4	0.0	173.70553994178772	0.09995388984680176
25	137.33246994018555	fix_pre	0		120	23.0	2.5	/experiments/AOT/AOT_stimuli/rescaled_final/1156_fw.mp4	0.0	173.80549383163452	0.9996581077575684
25	138.33212804794312	movie	1		246	23.0	2.5	/experiments/AOT/AOT_stimuli/rescaled_final/1156_fw.mp4	0.0	174.8051519393921	2.499945878982544
25	138.71565294265747	pulse	1	t		23.0	2.5	/experiments/AOT/AOT_stimuli/rescaled_final/1156_fw.mp4	0.0	175.18867683410645	
25	140.3159019947052	pulse	1	t		23.0	2.5	/experiments/AOT/AOT_stimuli/rescaled_final/1156_fw.mp4	0.0	176.78892588615417	
25	140.83207392692566	fix_post	2		12	23.0	2.5	/experiments/AOT/AOT_stimuli/rescaled_final/1156_fw.mp4	0.0	177.30509781837463	0.10037803649902344
26	140.93245196342468	fix_pre	0		119	24.0	2.5	/experiments/AOT/AOT_stimuli/rescaled_final/1156_rv.mp4	0.0	177.40547585487366	0.9917159080505371
26	141.9159939289093	pulse	0	t		24.0	2.5	/experiments/AOT/AOT_stimuli/rescaled_final/1156_rv.mp4	0.0	178.38901782035828	
26	141.92416787147522	movie	1		246	24.0	2.5	/experiments/AOT/AOT_stimuli/rescaled_final/1156_rv.mp4	0.0	178.3971917629242	2.5079619884490967
26	143.51593589782715	pulse	1	t		24.0	2.5	/experiments/AOT/AOT_stimuli/rescaled_final/1156_rv.mp4	0.0	179.98895978927612	
26	144.43212985992432	fix_post	2		12	24.0	2.5	/experiments/AOT/AOT_stimuli/rescaled_final/1156_rv.mp4	0.0	180.9051537513733	0.10032010078430176
27	144.53244996070862	fix_pre	0		120	25.0	2.5	/experiments/AOT/AOT_stimuli/rescaled_final/1721_rv.mp4	0.0	181.0054738521576	1.0000040531158447
27	145.11667799949646	pulse	0	t		25.0	2.5	/experiments/AOT/AOT_stimuli/rescaled_final/1721_rv.mp4	0.0	181.58970189094543	
27	145.53245401382446	movie	1		244	25.0	2.5	/experiments/AOT/AOT_stimuli/rescaled_final/1721_rv.mp4	0.0	182.00547790527344	2.499910831451416
27	146.71611094474792	pulse	1	t		25.0	2.5	/experiments/AOT/AOT_stimuli/rescaled_final/1721_rv.mp4	0.0	183.1891348361969	
27	148.03236484527588	fix_post	2		12	25.0	2.5	/experiments/AOT/AOT_stimuli/rescaled_final/1721_rv.mp4	0.0	184.50538873672485	0.09995198249816895
28	148.13231682777405	fix_pre	0		120	26.0	2.5	/experiments/AOT/AOT_stimuli/rescaled_final/2168_fw.mp4	0.0	184.60534071922302	1.0000171661376953
28	148.3166069984436	pulse	0	t		26.0	2.5	/experiments/AOT/AOT_stimuli/rescaled_final/2168_fw.mp4	0.0	184.78963088989258	
28	149.13233399391174	movie	1		244	26.0	2.5	/experiments/AOT/AOT_stimuli/rescaled_final/2168_fw.mp4	0.0	185.60535788536072	2.49960994720459
28	149.9159369468689	pulse	1	t		26.0	2.5	/experiments/AOT/AOT_stimuli/rescaled_final/2168_fw.mp4	0.0	186.38896083831787	
28	151.52426290512085	pulse	1	t		26.0	2.5	/experiments/AOT/AOT_stimuli/rescaled_final/2168_fw.mp4	0.0	187.99728679656982	
28	151.63194394111633	fix_post	2		12	26.0	2.5	/experiments/AOT/AOT_stimuli/rescaled_final/2168_fw.mp4	0.0	188.1049678325653	0.10043096542358398
29	151.73237490653992	fix_pre	0		120	27.0	2.5	/experiments/AOT/AOT_stimuli/rescaled_final/0661_fw.mp4	0.0	188.2053987979889	0.9999909400939941
29	152.7323658466339	movie	1		243	27.0	2.5	/experiments/AOT/AOT_stimuli/rescaled_final/0661_fw.mp4	0.0	189.20538973808289	2.5000929832458496
29	153.11673498153687	pulse	1	t		27.0	2.5	/experiments/AOT/AOT_stimuli/rescaled_final/0661_fw.mp4	0.0	189.58975887298584	
29	154.71582698822021	pulse	1	t		27.0	2.5	/experiments/AOT/AOT_stimuli/rescaled_final/0661_fw.mp4	0.0	191.1888508796692	
29	155.23245882987976	fix_post	2		12	27.0	2.5	/experiments/AOT/AOT_stimuli/rescaled_final/0661_fw.mp4	0.0	191.70548272132874	0.09994220733642578
30	155.3324010372162	fix_pre	0		119	28.0	2.5	blank	1.0	191.80542492866516	0.9916119575500488
30	156.31584787368774	pulse	0	t		28.0	2.5	blank	1.0	192.78887176513672	
30	156.32401299476624	movie	1		301	28.0	2.5	blank	1.0	192.7970368862152	2.508362054824829
30	157.91585898399353	pulse	1	t		28.0	2.5	blank	1.0	194.3888828754425	
30	158.83237504959106	fix_post	2		12	28.0	2.5	blank	1.0	195.30539894104004	0.0999138355255127
31	158.93228888511658	fix_pre	0		120	29.0	2.5	/experiments/AOT/AOT_stimuli/rescaled_final/0180_fw.mp4	0.0	195.40531277656555	1.0000500679016113
31	159.51584005355835	pulse	0	t		29.0	2.5	/experiments/AOT/AOT_stimuli/rescaled_final/0180_fw.mp4	0.0	195.98886394500732	
31	159.9323389530182	movie	1		244	29.0	2.5	/experiments/AOT/AOT_stimuli/rescaled_final/0180_fw.mp4	0.0	196.40536284446716	2.499919891357422
31	161.11704182624817	pulse	1	t		29.0	2.5	/experiments/AOT/AOT_stimuli/rescaled_final/0180_fw.mp4	0.0	197.59006571769714	
31	162.4322588443756	fix_post	2		12	29.0	2.5	/experiments/AOT/AOT_stimuli/rescaled_final/0180_fw.mp4	0.0	198.90528273582458	0.10007405281066895
32	162.53233289718628	fix_pre	0		120	30.0	2.5	/experiments/AOT/AOT_stimuli/rescaled_final/1748_rv.mp4	0.0	199.00535678863525	1.000014066696167
32	162.71667504310608	pulse	0	t		30.0	2.5	/experiments/AOT/AOT_stimuli/rescaled_final/1748_rv.mp4	0.0	199.18969893455505	
32	163.53234696388245	movie	1		243	30.0	2.5	/experiments/AOT/AOT_stimuli/rescaled_final/1748_rv.mp4	0.0	200.00537085533142	2.4995689392089844
32	164.31674885749817	pulse	1	t		30.0	2.5	/experiments/AOT/AOT_stimuli/rescaled_final/1748_rv.mp4	0.0	200.78977274894714	
32	165.92423391342163	pulse	1	t		30.0	2.5	/experiments/AOT/AOT_stimuli/rescaled_final/1748_rv.mp4	0.0	202.3972578048706	
32	166.03191590309143	fix_post	2		12	30.0	2.5	/experiments/AOT/AOT_stimuli/rescaled_final/1748_rv.mp4	0.0	202.5049397945404	0.10038900375366211
33	166.1323049068451	fix_pre	0		120	31.0	2.5	/experiments/AOT/AOT_stimuli/rescaled_final/1791_rv.mp4	0.0	202.60532879829407	1.0001020431518555
33	167.13240694999695	movie	1		244	31.0	2.5	/experiments/AOT/AOT_stimuli/rescaled_final/1791_rv.mp4	0.0	203.60543084144592	2.49992299079895
33	167.5241539478302	pulse	1	t		31.0	2.5	/experiments/AOT/AOT_stimuli/rescaled_final/1791_rv.mp4	0.0	203.99717783927917	
33	169.11584401130676	pulse	1	t		31.0	2.5	/experiments/AOT/AOT_stimuli/rescaled_final/1791_rv.mp4	0.0	205.58886790275574	
33	169.6323299407959	fix_post	2		12	31.0	2.5	/experiments/AOT/AOT_stimuli/rescaled_final/1791_rv.mp4	0.0	206.10535383224487	0.10000205039978027
34	169.73233199119568	fix_pre	0		119	32.0	2.5	/experiments/AOT/AOT_stimuli/rescaled_final/1997_rv.mp4	0.0	206.20535588264465	0.9916088581085205
34	170.71581888198853	pulse	0	t		32.0	2.5	/experiments/AOT/AOT_stimuli/rescaled_final/1997_rv.mp4	0.0	207.1888427734375	
34	170.7239408493042	movie	1		244	32.0	2.5	/experiments/AOT/AOT_stimuli/rescaled_final/1997_rv.mp4	0.0	207.19696474075317	2.5079240798950195
34	172.31579995155334	pulse	1	t		32.0	2.5	/experiments/AOT/AOT_stimuli/rescaled_final/1997_rv.mp4	0.0	208.78882384300232	
34	173.23186492919922	fix_post	2		12	32.0	2.5	/experiments/AOT/AOT_stimuli/rescaled_final/1997_rv.mp4	0.0	209.7048888206482	0.10053491592407227
35	173.3323998451233	fix_pre	0		120	33.0	2.5	/experiments/AOT/AOT_stimuli/rescaled_final/1449_rv.mp4	0.0	209.80542373657227	0.9999229907989502
35	173.91583704948425	pulse	0	t		33.0	2.5	/experiments/AOT/AOT_stimuli/rescaled_final/1449_rv.mp4	0.0	210.38886094093323	
35	174.33232283592224	movie	1		246	33.0	2.5	/experiments/AOT/AOT_stimuli/rescaled_final/1449_rv.mp4	0.0	210.80534672737122	2.499566078186035
35	175.51585483551025	pulse	1	t		33.0	2.5	/experiments/AOT/AOT_stimuli/rescaled_final/1449_rv.mp4	0.0	211.98887872695923	
35	176.83188891410828	fix_post	2		12	33.0	2.5	/experiments/AOT/AOT_stimuli/rescaled_final/1449_rv.mp4	0.0	213.30491280555725	0.10000896453857422
36	176.93189787864685	fix_pre	0		120	34.0	2.5	/experiments/AOT/AOT_stimuli/rescaled_final/1748_fw.mp4	0.0	213.40492177009583	1.0004830360412598
36	177.1162760257721	pulse	0	t		34.0	2.5	/experiments/AOT/AOT_stimuli/rescaled_final/1748_fw.mp4	0.0	213.58929991722107	
36	177.9323809146881	movie	1		243	34.0	2.5	/experiments/AOT/AOT_stimuli/rescaled_final/1748_fw.mp4	0.0	214.40540480613708	2.4999349117279053
36	178.71641182899475	pulse	1	t		34.0	2.5	/experiments/AOT/AOT_stimuli/rescaled_final/1748_fw.mp4	0.0	215.18943572044373	
36	180.32413482666016	pulse	1	t		34.0	2.5	/experiments/AOT/AOT_stimuli/rescaled_final/1748_fw.mp4	0.0	216.79715871810913	
36	180.43231582641602	fix_post	2		12	34.0	2.5	/experiments/AOT/AOT_stimuli/rescaled_final/1748_fw.mp4	0.0	216.905339717865	0.099945068359375
37	180.5322608947754	fix_pre	0		120	35.0	2.5	blank	1.0	217.00528478622437	1.0000131130218506
37	181.53227400779724	movie	1		300	35.0	2.5	blank	1.0	218.00529789924622	2.499966859817505
37	181.91654682159424	pulse	1	t		35.0	2.5	blank	1.0	218.3895707130432	
37	183.51650881767273	pulse	1	t		35.0	2.5	blank	1.0	219.9895327091217	
37	184.03224086761475	fix_post	2		12	35.0	2.5	blank	1.0	220.50526475906372	0.10003995895385742
38	184.1322808265686	fix_pre	0		120	36.0	2.5	/experiments/AOT/AOT_stimuli/rescaled_final/1849_fw.mp4	0.0	220.60530471801758	0.9998910427093506
38	185.11642289161682	pulse	0	t		36.0	2.5	/experiments/AOT/AOT_stimuli/rescaled_final/1849_fw.mp4	0.0	221.5894467830658	
38	185.13217186927795	movie	1		246	36.0	2.5	/experiments/AOT/AOT_stimuli/rescaled_final/1849_fw.mp4	0.0	221.60519576072693	2.5083370208740234
38	186.7156629562378	pulse	1	t		36.0	2.5	/experiments/AOT/AOT_stimuli/rescaled_final/1849_fw.mp4	0.0	223.18868684768677	
38	187.64050889015198	fix_post	2		12	36.0	2.5	/experiments/AOT/AOT_stimuli/rescaled_final/1849_fw.mp4	0.0	224.11353278160095	0.10013294219970703
39	187.74064183235168	fix_pre	0		120	37.0	2.5	/experiments/AOT/AOT_stimuli/rescaled_final/1838_rv.mp4	0.0	224.21366572380066	0.9994871616363525
39	188.3156499862671	pulse	0	t		37.0	2.5	/experiments/AOT/AOT_stimuli/rescaled_final/1838_rv.mp4	0.0	224.78867387771606	
39	188.74012899398804	movie	1		244	37.0	2.5	/experiments/AOT/AOT_stimuli/rescaled_final/1838_rv.mp4	0.0	225.213152885437	2.4999608993530273
39	189.92409086227417	pulse	1	t		37.0	2.5	/experiments/AOT/AOT_stimuli/rescaled_final/1838_rv.mp4	0.0	226.39711475372314	
39	191.24008989334106	fix_post	2		12	37.0	2.5	/experiments/AOT/AOT_stimuli/rescaled_final/1838_rv.mp4	0.0	227.71311378479004	0.10043692588806152
40	191.34052681922913	fix_pre	0		120	38.0	2.5	/experiments/AOT/AOT_stimuli/rescaled_final/1688_rv.mp4	0.0	227.8135507106781	0.9999940395355225
40	191.5157289505005	pulse	0	t		38.0	2.5	/experiments/AOT/AOT_stimuli/rescaled_final/1688_rv.mp4	0.0	227.98875284194946	
40	192.34052085876465	movie	1		244	38.0	2.5	/experiments/AOT/AOT_stimuli/rescaled_final/1688_rv.mp4	0.0	228.81354475021362	2.4999430179595947
40	193.11662697792053	pulse	1	t		38.0	2.5	/experiments/AOT/AOT_stimuli/rescaled_final/1688_rv.mp4	0.0	229.5896508693695	
40	194.722491979599	pulse	1	t		38.0	2.5	/experiments/AOT/AOT_stimuli/rescaled_final/1688_rv.mp4	0.0	231.19551587104797	
40	194.84046387672424	fix_post	2		12	38.0	2.5	/experiments/AOT/AOT_stimuli/rescaled_final/1688_rv.mp4	0.0	231.31348776817322	0.10000109672546387
41	194.9404649734497	fix_pre	0		120	39.0	2.5	/experiments/AOT/AOT_stimuli/rescaled_final/2140_rv.mp4	0.0	231.41348886489868	1.0000040531158447
41	195.94046902656555	movie	1		244	39.0	2.5	/experiments/AOT/AOT_stimuli/rescaled_final/2140_rv.mp4	0.0	232.41349291801453	2.5000059604644775
41	196.32364296913147	pulse	1	t		39.0	2.5	/experiments/AOT/AOT_stimuli/rescaled_final/2140_rv.mp4	0.0	232.79666686058044	
41	197.91662096977234	pulse	1	t		39.0	2.5	/experiments/AOT/AOT_stimuli/rescaled_final/2140_rv.mp4	0.0	234.3896448612213	
41	198.44047498703003	fix_post	2		12	39.0	2.5	/experiments/AOT/AOT_stimuli/rescaled_final/2140_rv.mp4	0.0	234.913498878479	0.09993886947631836
42	198.54041385650635	fix_pre	0		119	40.0	2.5	/experiments/AOT/AOT_stimuli/rescaled_final/0642_rv.mp4	0.0	235.01343774795532	0.9917020797729492
42	199.5164589881897	pulse	0	t		40.0	2.5	/experiments/AOT/AOT_stimuli/rescaled_final/0642_rv.mp4	0.0	235.98948287963867	
42	199.5321159362793	movie	1		244	40.0	2.5	/experiments/AOT/AOT_stimuli/rescaled_final/0642_rv.mp4	0.0	236.00513982772827	2.508323907852173
42	201.1253468990326	pulse	1	t		40.0	2.5	/experiments/AOT/AOT_stimuli/rescaled_final/0642_rv.mp4	0.0	237.59837079048157	
42	202.04043984413147	fix_post	2		12	40.0	2.5	/experiments/AOT/AOT_stimuli/rescaled_final/0642_rv.mp4	0.0	238.51346373558044	0.10002517700195312
43	202.14046502113342	fix_pre	0		120	41.0	2.5	/experiments/AOT/AOT_stimuli/rescaled_final/1811_fw.mp4	0.0	238.6134889125824	0.99993896484375
43	202.71572184562683	pulse	0	t		41.0	2.5	/experiments/AOT/AOT_stimuli/rescaled_final/1811_fw.mp4	0.0	239.1887457370758	
43	203.14040398597717	movie	1		244	41.0	2.5	/experiments/AOT/AOT_stimuli/rescaled_final/1811_fw.mp4	0.0	239.61342787742615	2.500035047531128
43	204.32401990890503	pulse	1	t		41.0	2.5	/experiments/AOT/AOT_stimuli/rescaled_final/1811_fw.mp4	0.0	240.797043800354	
43	205.6404390335083	fix_post	2		12	41.0	2.5	/experiments/AOT/AOT_stimuli/rescaled_final/1811_fw.mp4	0.0	242.11346292495728	0.09996485710144043
44	205.74040389060974	fix_pre	0		120	42.0	2.5	blank	1.0	242.21342778205872	0.9999761581420898
44	205.91560888290405	pulse	0	t		42.0	2.5	blank	1.0	242.38863277435303	
44	206.74038004875183	movie	1		300	42.0	2.5	blank	1.0	243.2134039402008	2.5001308917999268
44	207.51557683944702	pulse	1	t		42.0	2.5	blank	1.0	243.988600730896	
44	209.1163878440857	pulse	1	t		42.0	2.5	blank	1.0	245.58941173553467	
44	209.24051094055176	fix_post	2		12	42.0	2.5	blank	1.0	245.71353483200073	0.0999910831451416
45	209.3405020236969	fix_pre	0		120	43.0	2.5	/experiments/AOT/AOT_stimuli/rescaled_final/0649_fw.mp4	0.0	245.81352591514587	0.9999299049377441
45	210.34043192863464	movie	1		245	43.0	2.5	/experiments/AOT/AOT_stimuli/rescaled_final/0649_fw.mp4	0.0	246.81345582008362	2.499988079071045
45	210.72366786003113	pulse	1	t		43.0	2.5	/experiments/AOT/AOT_stimuli/rescaled_final/0649_fw.mp4	0.0	247.1966917514801	
45	212.31666588783264	pulse	1	t		43.0	2.5	/experiments/AOT/AOT_stimuli/rescaled_final/0649_fw.mp4	0.0	248.78968977928162	
45	212.8404200077057	fix_post	2		12	43.0	2.5	/experiments/AOT/AOT_stimuli/rescaled_final/0649_fw.mp4	0.0	249.31344389915466	0.10002303123474121
46	212.94044303894043	fix_pre	0		119	44.0	2.5	/experiments/AOT/AOT_stimuli/rescaled_final/1819_fw.mp4	0.0	249.4134669303894	0.9916889667510986
46	213.91661095619202	pulse	0	t		44.0	2.5	/experiments/AOT/AOT_stimuli/rescaled_final/1819_fw.mp4	0.0	250.389634847641	
46	213.93213200569153	movie	1		246	44.0	2.5	/experiments/AOT/AOT_stimuli/rescaled_final/1819_fw.mp4	0.0	250.4051558971405	2.5083329677581787
46	215.5232379436493	pulse	1	t		44.0	2.5	/experiments/AOT/AOT_stimuli/rescaled_final/1819_fw.mp4	0.0	251.99626183509827	
46	216.4404649734497	fix_post	2		12	44.0	2.5	/experiments/AOT/AOT_stimuli/rescaled_final/1819_fw.mp4	0.0	252.91348886489868	0.09996604919433594
47	216.54043102264404	fix_pre	0		120	45.0	2.5	/experiments/AOT/AOT_stimuli/rescaled_final/1387_fw.mp4	0.0	253.01345491409302	1.0000319480895996
47	217.11633896827698	pulse	0	t		45.0	2.5	/experiments/AOT/AOT_stimuli/rescaled_final/1387_fw.mp4	0.0	253.58936285972595	
47	217.54046297073364	movie	1		244	45.0	2.5	/experiments/AOT/AOT_stimuli/rescaled_final/1387_fw.mp4	0.0	254.01348686218262	2.50004506111145
47	218.72393989562988	pulse	1	t		45.0	2.5	/experiments/AOT/AOT_stimuli/rescaled_final/1387_fw.mp4	0.0	255.19696378707886	
47	220.0405080318451	fix_post	2		12	45.0	2.5	/experiments/AOT/AOT_stimuli/rescaled_final/1387_fw.mp4	0.0	256.51353192329407	0.09981989860534668
48	220.14032793045044	fix_pre	0		120	46.0	2.5	/experiments/AOT/AOT_stimuli/rescaled_final/1267_fw.mp4	0.0	256.6133518218994	0.9997389316558838
48	220.31643295288086	pulse	0	t		46.0	2.5	/experiments/AOT/AOT_stimuli/rescaled_final/1267_fw.mp4	0.0	256.78945684432983	
48	221.14006686210632	movie	1		245	46.0	2.5	/experiments/AOT/AOT_stimuli/rescaled_final/1267_fw.mp4	0.0	257.6130907535553	2.5002341270446777
48	221.91549587249756	pulse	1	t		46.0	2.5	/experiments/AOT/AOT_stimuli/rescaled_final/1267_fw.mp4	0.0	258.38851976394653	
48	223.51551604270935	pulse	1	t		46.0	2.5	/experiments/AOT/AOT_stimuli/rescaled_final/1267_fw.mp4	0.0	259.9885399341583	
48	223.640300989151	fix_post	2		12	46.0	2.5	/experiments/AOT/AOT_stimuli/rescaled_final/1267_fw.mp4	0.0	260.1133248806	0.10002994537353516
49	223.74033093452454	fix_pre	0		120	47.0	2.5	/experiments/AOT/AOT_stimuli/rescaled_final/0556_fw.mp4	0.0	260.2133548259735	0.9999639987945557
49	224.7402949333191	movie	1		244	47.0	2.5	/experiments/AOT/AOT_stimuli/rescaled_final/0556_fw.mp4	0.0	261.21331882476807	2.4996590614318848
49	225.1235408782959	pulse	1	t		47.0	2.5	/experiments/AOT/AOT_stimuli/rescaled_final/0556_fw.mp4	0.0	261.5965647697449	
49	226.71657705307007	pulse	1	t		47.0	2.5	/experiments/AOT/AOT_stimuli/rescaled_final/0556_fw.mp4	0.0	263.18960094451904	
49	227.23995399475098	fix_post	2		12	47.0	2.5	/experiments/AOT/AOT_stimuli/rescaled_final/0556_fw.mp4	0.0	263.71297788619995	0.10040283203125
50	227.34035682678223	fix_pre	0		119	48.0	2.5	/experiments/AOT/AOT_stimuli/rescaled_final/1677_rv.mp4	0.0	263.8133807182312	0.9916419982910156
50	228.31632494926453	pulse	0	t		48.0	2.5	/experiments/AOT/AOT_stimuli/rescaled_final/1677_rv.mp4	0.0	264.7893488407135	
50	228.33199882507324	movie	1		246	48.0	2.5	/experiments/AOT/AOT_stimuli/rescaled_final/1677_rv.mp4	0.0	264.8050227165222	2.507979154586792
50	229.92366194725037	pulse	1	t		48.0	2.5	/experiments/AOT/AOT_stimuli/rescaled_final/1677_rv.mp4	0.0	266.39668583869934	
50	230.83997797966003	fix_post	2		12	48.0	2.5	/experiments/AOT/AOT_stimuli/rescaled_final/1677_rv.mp4	0.0	267.313001871109	0.10042786598205566
51	230.9404058456421	fix_pre	0		120	49.0	2.5	blank	1.0	267.41342973709106	0.9995090961456299
51	231.51641297340393	pulse	0	t		49.0	2.5	blank	1.0	267.9894368648529	
51	231.93991494178772	movie	1		300	49.0	2.5	blank	1.0	268.4129388332367	2.5002670288085938
51	233.11588382720947	pulse	1	t		49.0	2.5	blank	1.0	269.58890771865845	
51	234.4401819705963	fix_post	2		12	49.0	2.5	blank	1.0	270.9132058620453	0.09996390342712402
52	234.54014587402344	fix_pre	0		120	50.0	2.5	/experiments/AOT/AOT_stimuli/rescaled_final/1260_fw.mp4	0.0	271.0131697654724	1.0002391338348389
52	234.71617794036865	pulse	0	t		50.0	2.5	/experiments/AOT/AOT_stimuli/rescaled_final/1260_fw.mp4	0.0	271.1892018318176	
52	235.54038500785828	movie	1		246	50.0	2.5	/experiments/AOT/AOT_stimuli/rescaled_final/1260_fw.mp4	0.0	272.01340889930725	2.499940872192383
52	236.31637692451477	pulse	1	t		50.0	2.5	/experiments/AOT/AOT_stimuli/rescaled_final/1260_fw.mp4	0.0	272.78940081596375	
52	237.91625499725342	pulse	1	t		50.0	2.5	/experiments/AOT/AOT_stimuli/rescaled_final/1260_fw.mp4	0.0	274.3892788887024	
52	238.04032588005066	fix_post	2		12	50.0	2.5	/experiments/AOT/AOT_stimuli/rescaled_final/1260_fw.mp4	0.0	274.51334977149963	0.09995508193969727
53	238.14028096199036	fix_pre	0		120	51.0	2.5	/experiments/AOT/AOT_stimuli/rescaled_final/1530_fw.mp4	0.0	274.61330485343933	1.000053882598877
53	239.14033484458923	movie	1		243	51.0	2.5	/experiments/AOT/AOT_stimuli/rescaled_final/1530_fw.mp4	0.0	275.6133587360382	2.49996018409729
53	239.5154368877411	pulse	1	t		51.0	2.5	/experiments/AOT/AOT_stimuli/rescaled_final/1530_fw.mp4	0.0	275.98846077919006	
53	241.11633682250977	pulse	1	t		51.0	2.5	/experiments/AOT/AOT_stimuli/rescaled_final/1530_fw.mp4	0.0	277.58936071395874	
53	241.64029502868652	fix_post	2		12	51.0	2.5	/experiments/AOT/AOT_stimuli/rescaled_final/1530_fw.mp4	0.0	278.1133189201355	0.10001802444458008
54	241.7403130531311	fix_pre	0		119	52.0	2.5	/experiments/AOT/AOT_stimuli/rescaled_final/1651_fw.mp4	0.0	278.2133369445801	0.9916107654571533
54	242.716374874115	pulse	0	t		52.0	2.5	/experiments/AOT/AOT_stimuli/rescaled_final/1651_fw.mp4	0.0	279.18939876556396	
54	242.73192381858826	movie	1		244	52.0	2.5	/experiments/AOT/AOT_stimuli/rescaled_final/1651_fw.mp4	0.0	279.20494771003723	2.5079550743103027
54	244.3235478401184	pulse	1	t		52.0	2.5	/experiments/AOT/AOT_stimuli/rescaled_final/1651_fw.mp4	0.0	280.7965717315674	
54	245.23987889289856	fix_post	2		12	52.0	2.5	/experiments/AOT/AOT_stimuli/rescaled_final/1651_fw.mp4	0.0	281.71290278434753	0.10036802291870117
55	245.34024691581726	fix_pre	0		120	53.0	2.5	/experiments/AOT/AOT_stimuli/rescaled_final/0389_fw.mp4	0.0	281.81327080726624	0.9999949932098389
55	245.91615986824036	pulse	0	t		53.0	2.5	/experiments/AOT/AOT_stimuli/rescaled_final/0389_fw.mp4	0.0	282.38918375968933	
55	246.3402419090271	movie	1		244	53.0	2.5	/experiments/AOT/AOT_stimuli/rescaled_final/0389_fw.mp4	0.0	282.8132658004761	2.499997138977051
55	247.5238389968872	pulse	1	t		53.0	2.5	/experiments/AOT/AOT_stimuli/rescaled_final/0389_fw.mp4	0.0	283.9968628883362	
55	248.84023904800415	fix_post	2		12	53.0	2.5	/experiments/AOT/AOT_stimuli/rescaled_final/0389_fw.mp4	0.0	285.3132629394531	0.09999585151672363
56	248.94023489952087	fix_pre	0		120	54.0	2.5	blank	1.0	285.41325879096985	1.000101089477539
56	249.11636686325073	pulse	0	t		54.0	2.5	blank	1.0	285.5893907546997	
56	249.9403359889984	movie	1		300	54.0	2.5	blank	1.0	286.4133598804474	2.4999539852142334
56	250.7162778377533	pulse	1	t		54.0	2.5	blank	1.0	287.18930172920227	
56	252.3163058757782	pulse	1	t		54.0	2.5	blank	1.0	288.7893297672272	
56	252.44028997421265	fix_post	2		12	54.0	2.5	blank	1.0	288.9133138656616	0.09970498085021973
57	252.53999495506287	fix_pre	0		120	55.0	2.5	/experiments/AOT/AOT_stimuli/rescaled_final/0860_fw.mp4	0.0	289.01301884651184	1.0003159046173096
57	253.54031085968018	movie	1		245	55.0	2.5	/experiments/AOT/AOT_stimuli/rescaled_final/0860_fw.mp4	0.0	290.01333475112915	2.4999170303344727
57	253.92397904396057	pulse	1	t		55.0	2.5	/experiments/AOT/AOT_stimuli/rescaled_final/0860_fw.mp4	0.0	290.39700293540955	
57	255.5163218975067	pulse	1	t		55.0	2.5	/experiments/AOT/AOT_stimuli/rescaled_final/0860_fw.mp4	0.0	291.9893457889557	
57	256.04022789001465	fix_post	2		12	55.0	2.5	/experiments/AOT/AOT_stimuli/rescaled_final/0860_fw.mp4	0.0	292.5132517814636	0.09994006156921387
58	256.14016795158386	fix_pre	0		119	56.0	2.5	/experiments/AOT/AOT_stimuli/rescaled_final/1980_fw.mp4	0.0	292.61319184303284	0.9916660785675049
58	257.12374782562256	pulse	0	t		56.0	2.5	/experiments/AOT/AOT_stimuli/rescaled_final/1980_fw.mp4	0.0	293.59677171707153	
58	257.13183403015137	movie	1		245	56.0	2.5	/experiments/AOT/AOT_stimuli/rescaled_final/1980_fw.mp4	0.0	293.60485792160034	2.508373975753784
58	258.72333884239197	pulse	1	t		56.0	2.5	/experiments/AOT/AOT_stimuli/rescaled_final/1980_fw.mp4	0.0	295.19636273384094	
58	259.64020800590515	fix_post	2		12	56.0	2.5	/experiments/AOT/AOT_stimuli/rescaled_final/1980_fw.mp4	0.0	296.1132318973541	0.0999598503112793
59	259.74016785621643	fix_pre	0		120	57.0	2.5	/experiments/AOT/AOT_stimuli/rescaled_final/0076_rv.mp4	0.0	296.2131917476654	0.999981164932251
59	260.31613993644714	pulse	0	t		57.0	2.5	/experiments/AOT/AOT_stimuli/rescaled_final/0076_rv.mp4	0.0	296.7891638278961	
59	260.7401490211487	movie	1		244	57.0	2.5	/experiments/AOT/AOT_stimuli/rescaled_final/0076_rv.mp4	0.0	297.21317291259766	2.499971866607666
59	261.9237048625946	pulse	1	t		57.0	2.5	/experiments/AOT/AOT_stimuli/rescaled_final/0076_rv.mp4	0.0	298.3967287540436	
59	263.24012088775635	fix_post	2		12	57.0	2.5	/experiments/AOT/AOT_stimuli/rescaled_final/0076_rv.mp4	0.0	299.7131447792053	0.1000521183013916
60	263.34017300605774	fix_pre	0		120	58.0	2.5	/experiments/AOT/AOT_stimuli/rescaled_final/1217_fw.mp4	0.0	299.8131968975067	0.9999468326568604
60	263.51619696617126	pulse	0	t		58.0	2.5	/experiments/AOT/AOT_stimuli/rescaled_final/1217_fw.mp4	0.0	299.98922085762024	
60	264.3401198387146	movie	1		244	58.0	2.5	/experiments/AOT/AOT_stimuli/rescaled_final/1217_fw.mp4	0.0	300.8131437301636	2.4995920658111572
60	265.1164610385895	pulse	1	t		58.0	2.5	/experiments/AOT/AOT_stimuli/rescaled_final/1217_fw.mp4	0.0	301.58948493003845	
60	266.7225069999695	pulse	1	t		58.0	2.5	/experiments/AOT/AOT_stimuli/rescaled_final/1217_fw.mp4	0.0	303.19553089141846	
60	266.83971190452576	fix_post	2		12	58.0	2.5	/experiments/AOT/AOT_stimuli/rescaled_final/1217_fw.mp4	0.0	303.31273579597473	0.10046792030334473
61	266.9401798248291	fix_pre	0		120	59.0	2.5	/experiments/AOT/AOT_stimuli/rescaled_final/0727_rv.mp4	0.0	303.4132037162781	0.9999840259552002
61	267.9401638507843	movie	1		246	59.0	2.5	/experiments/AOT/AOT_stimuli/rescaled_final/0727_rv.mp4	0.0	304.4131877422333	2.4998841285705566
61	268.32347083091736	pulse	1	t		59.0	2.5	/experiments/AOT/AOT_stimuli/rescaled_final/0727_rv.mp4	0.0	304.79649472236633	
61	269.91629099845886	pulse	1	t		59.0	2.5	/experiments/AOT/AOT_stimuli/rescaled_final/0727_rv.mp4	0.0	306.38931488990784	
61	270.44004797935486	fix_post	2		12	59.0	2.5	/experiments/AOT/AOT_stimuli/rescaled_final/0727_rv.mp4	0.0	306.91307187080383	0.10004305839538574
62	270.54009103775024	fix_pre	0		119	60.0	2.5	/experiments/AOT/AOT_stimuli/rescaled_final/0621_fw.mp4	0.0	307.0131149291992	0.991722822189331
62	271.5160479545593	pulse	0	t		60.0	2.5	/experiments/AOT/AOT_stimuli/rescaled_final/0621_fw.mp4	0.0	307.9890718460083	
62	271.5318138599396	movie	1		246	60.0	2.5	/experiments/AOT/AOT_stimuli/rescaled_final/0621_fw.mp4	0.0	308.00483775138855	2.5079360008239746
62	273.1231310367584	pulse	1	t		60.0	2.5	/experiments/AOT/AOT_stimuli/rescaled_final/0621_fw.mp4	0.0	309.5961549282074	
62	274.03974986076355	fix_post	2		12	60.0	2.5	/experiments/AOT/AOT_stimuli/rescaled_final/0621_fw.mp4	0.0	310.5127737522125	0.10038518905639648
63	274.14013504981995	fix_pre	0		120	61.0	2.5	blank	1.0	310.6131589412689	0.9995629787445068
63	274.72356605529785	pulse	0	t		61.0	2.5	blank	1.0	311.1965899467468	
63	275.13969802856445	movie	1		300	61.0	2.5	blank	1.0	311.6127219200134	2.500450849533081
63	276.3235788345337	pulse	1	t		61.0	2.5	blank	1.0	312.79660272598267	
63	277.64014887809753	fix_post	2		12	61.0	2.5	blank	1.0	314.1131727695465	0.09995913505554199
64	277.7401080131531	fix_pre	0		120	62.0	2.5	/experiments/AOT/AOT_stimuli/rescaled_final/0860_rv.mp4	0.0	314.21313190460205	0.9995238780975342
64	277.916090965271	pulse	0	t		62.0	2.5	/experiments/AOT/AOT_stimuli/rescaled_final/0860_rv.mp4	0.0	314.38911485671997	
64	278.7396318912506	movie	1		244	62.0	2.5	/experiments/AOT/AOT_stimuli/rescaled_final/0860_rv.mp4	0.0	315.2126557826996	2.5004351139068604
64	279.5161290168762	pulse	1	t		62.0	2.5	/experiments/AOT/AOT_stimuli/rescaled_final/0860_rv.mp4	0.0	315.9891529083252	
64	281.12216997146606	pulse	1	t		62.0	2.5	/experiments/AOT/AOT_stimuli/rescaled_final/0860_rv.mp4	0.0	317.59519386291504	
64	281.24006700515747	fix_post	2		12	62.0	2.5	/experiments/AOT/AOT_stimuli/rescaled_final/0860_rv.mp4	0.0	317.71309089660645	0.10002493858337402
65	281.34009194374084	fix_pre	0		120	63.0	2.5	/experiments/AOT/AOT_stimuli/rescaled_final/0115_rv.mp4	0.0	317.8131158351898	1.000011920928955
65	282.3401038646698	movie	1		245	63.0	2.5	/experiments/AOT/AOT_stimuli/rescaled_final/0115_rv.mp4	0.0	318.8131277561188	2.499690055847168
65	282.7235219478607	pulse	1	t		63.0	2.5	/experiments/AOT/AOT_stimuli/rescaled_final/0115_rv.mp4	0.0	319.1965458393097	
65	284.31618785858154	pulse	1	t		63.0	2.5	/experiments/AOT/AOT_stimuli/rescaled_final/0115_rv.mp4	0.0	320.7892117500305	
65	284.83979392051697	fix_post	2		12	63.0	2.5	/experiments/AOT/AOT_stimuli/rescaled_final/0115_rv.mp4	0.0	321.31281781196594	0.10022091865539551
66	284.94001483917236	fix_pre	0		119	64.0	2.5	/experiments/AOT/AOT_stimuli/rescaled_final/1885_rv.mp4	0.0	321.41303873062134	0.9917521476745605
66	285.9160568714142	pulse	0	t		64.0	2.5	/experiments/AOT/AOT_stimuli/rescaled_final/1885_rv.mp4	0.0	322.38908076286316	
66	285.9317669868469	movie	1		245	64.0	2.5	/experiments/AOT/AOT_stimuli/rescaled_final/1885_rv.mp4	0.0	322.4047908782959	2.5079598426818848
66	287.52323293685913	pulse	1	t		64.0	2.5	/experiments/AOT/AOT_stimuli/rescaled_final/1885_rv.mp4	0.0	323.9962568283081	
66	288.4397268295288	fix_post	2		12	64.0	2.5	/experiments/AOT/AOT_stimuli/rescaled_final/1885_rv.mp4	0.0	324.9127507209778	0.09998202323913574
67	288.53970885276794	fix_pre	0		120	65.0	2.5	/experiments/AOT/AOT_stimuli/rescaled_final/0577_fw.mp4	0.0	325.0127327442169	1.0004830360412598
67	289.1232409477234	pulse	0	t		65.0	2.5	/experiments/AOT/AOT_stimuli/rescaled_final/0577_fw.mp4	0.0	325.59626483917236	
67	289.5401918888092	movie	1		243	65.0	2.5	/experiments/AOT/AOT_stimuli/rescaled_final/0577_fw.mp4	0.0	326.0132157802582	2.4994940757751465
67	290.7234709262848	pulse	1	t		65.0	2.5	/experiments/AOT/AOT_stimuli/rescaled_final/0577_fw.mp4	0.0	327.19649481773376	
67	292.03968596458435	fix_post	2		12	65.0	2.5	/experiments/AOT/AOT_stimuli/rescaled_final/0577_fw.mp4	0.0	328.5127098560333	0.10036206245422363
68	292.1400480270386	fix_pre	0		120	66.0	2.5	/experiments/AOT/AOT_stimuli/rescaled_final/0359_rv.mp4	0.0	328.61307191848755	1.000065803527832
68	292.3235149383545	pulse	0	t		66.0	2.5	/experiments/AOT/AOT_stimuli/rescaled_final/0359_rv.mp4	0.0	328.79653882980347	
68	293.1401138305664	movie	1		246	66.0	2.5	/experiments/AOT/AOT_stimuli/rescaled_final/0359_rv.mp4	0.0	329.6131377220154	2.499821186065674
68	293.9235129356384	pulse	1	t		66.0	2.5	/experiments/AOT/AOT_stimuli/rescaled_final/0359_rv.mp4	0.0	330.3965368270874	
68	295.52206802368164	pulse	1	t		66.0	2.5	/experiments/AOT/AOT_stimuli/rescaled_final/0359_rv.mp4	0.0	331.9950919151306	
68	295.6399350166321	fix_post	2		12	66.0	2.5	/experiments/AOT/AOT_stimuli/rescaled_final/0359_rv.mp4	0.0	332.11295890808105	0.10010886192321777
69	295.7400438785553	fix_pre	0		120	67.0	2.5	/experiments/AOT/AOT_stimuli/rescaled_final/0173_rv.mp4	0.0	332.2130677700043	0.999547004699707
69	296.739590883255	movie	1		247	67.0	2.5	/experiments/AOT/AOT_stimuli/rescaled_final/0173_rv.mp4	0.0	333.212614774704	2.5003671646118164
69	297.12293696403503	pulse	1	t		67.0	2.5	/experiments/AOT/AOT_stimuli/rescaled_final/0173_rv.mp4	0.0	333.595960855484	
69	298.7161099910736	pulse	1	t		67.0	2.5	/experiments/AOT/AOT_stimuli/rescaled_final/0173_rv.mp4	0.0	335.1891338825226	
69	299.2399580478668	fix_post	2		12	67.0	2.5	/experiments/AOT/AOT_stimuli/rescaled_final/0173_rv.mp4	0.0	335.7129819393158	0.09999990463256836
70	299.3399579524994	fix_pre	0		119	68.0	2.5	/experiments/AOT/AOT_stimuli/rescaled_final/0835_rv.mp4	0.0	335.81298184394836	0.9916400909423828
70	300.3160400390625	pulse	0	t		68.0	2.5	/experiments/AOT/AOT_stimuli/rescaled_final/0835_rv.mp4	0.0	336.7890639305115	
70	300.3315980434418	movie	1		245	68.0	2.5	/experiments/AOT/AOT_stimuli/rescaled_final/0835_rv.mp4	0.0	336.80462193489075	2.5083279609680176
70	301.9236350059509	pulse	1	t		68.0	2.5	/experiments/AOT/AOT_stimuli/rescaled_final/0835_rv.mp4	0.0	338.3966588973999	
70	302.8399260044098	fix_post	2		12	68.0	2.5	/experiments/AOT/AOT_stimuli/rescaled_final/0835_rv.mp4	0.0	339.31294989585876	0.09996700286865234
71	302.93989300727844	fix_pre	0		120	69.0	2.5	/experiments/AOT/AOT_stimuli/rescaled_final/1942_rv.mp4	0.0	339.4129168987274	1.0001158714294434
71	303.51587891578674	pulse	0	t		69.0	2.5	/experiments/AOT/AOT_stimuli/rescaled_final/1942_rv.mp4	0.0	339.9889028072357	
71	303.9400088787079	movie	1		244	69.0	2.5	/experiments/AOT/AOT_stimuli/rescaled_final/1942_rv.mp4	0.0	340.41303277015686	2.499988079071045
71	305.1235580444336	pulse	1	t		69.0	2.5	/experiments/AOT/AOT_stimuli/rescaled_final/1942_rv.mp4	0.0	341.59658193588257	
71	306.43999695777893	fix_post	2		12	69.0	2.5	/experiments/AOT/AOT_stimuli/rescaled_final/1942_rv.mp4	0.0	342.9130208492279	0.09997701644897461
72	306.5399739742279	fix_pre	0		120	70.0	2.5	blank	1.0	343.0129978656769	0.999582052230835
72	306.7234718799591	pulse	0	t		70.0	2.5	blank	1.0	343.1964957714081	
72	307.53955602645874	movie	1		300	70.0	2.5	blank	1.0	344.0125799179077	2.5003769397735596
72	308.3234899044037	pulse	1	t		70.0	2.5	blank	1.0	344.79651379585266	
72	309.9234399795532	pulse	1	t		70.0	2.5	blank	1.0	346.3964638710022	
72	310.0399329662323	fix_post	2		12	70.0	2.5	blank	1.0	346.5129568576813	0.09998202323913574
73	310.13991498947144	fix_pre	0		120	71.0	2.5	/experiments/AOT/AOT_stimuli/rescaled_final/0696_rv.mp4	0.0	346.6129388809204	1.0000450611114502
73	311.1399600505829	movie	1		244	71.0	2.5	/experiments/AOT/AOT_stimuli/rescaled_final/0696_rv.mp4	0.0	347.61298394203186	2.4998939037323
73	311.5237669944763	pulse	1	t		71.0	2.5	/experiments/AOT/AOT_stimuli/rescaled_final/0696_rv.mp4	0.0	347.9967908859253	
73	313.1161439418793	pulse	1	t		71.0	2.5	/experiments/AOT/AOT_stimuli/rescaled_final/0696_rv.mp4	0.0	349.58916783332825	
73	313.6398539543152	fix_post	2		12	71.0	2.5	/experiments/AOT/AOT_stimuli/rescaled_final/0696_rv.mp4	0.0	350.11287784576416	0.10013103485107422
74	313.73998498916626	fix_pre	0		119	72.0	2.5	/experiments/AOT/AOT_stimuli/rescaled_final/1551_fw.mp4	0.0	350.21300888061523	0.9915728569030762
74	314.7160120010376	pulse	0	t		72.0	2.5	/experiments/AOT/AOT_stimuli/rescaled_final/1551_fw.mp4	0.0	351.1890358924866	
74	314.73155784606934	movie	1		249	72.0	2.5	/experiments/AOT/AOT_stimuli/rescaled_final/1551_fw.mp4	0.0	351.2045817375183	2.5083611011505127
74	316.3229470252991	pulse	1	t		72.0	2.5	/experiments/AOT/AOT_stimuli/rescaled_final/1551_fw.mp4	0.0	352.79597091674805	
74	317.23991894721985	fix_post	2		12	72.0	2.5	/experiments/AOT/AOT_stimuli/rescaled_final/1551_fw.mp4	0.0	353.7129428386688	0.10010409355163574
75	317.3400230407715	fix_pre	0		120	73.0	2.5	/experiments/AOT/AOT_stimuli/rescaled_final/1751_fw.mp4	0.0	353.81304693222046	0.9998908042907715
75	317.91582894325256	pulse	0	t		73.0	2.5	/experiments/AOT/AOT_stimuli/rescaled_final/1751_fw.mp4	0.0	354.38885283470154	
75	318.33991384506226	movie	1		245	73.0	2.5	/experiments/AOT/AOT_stimuli/rescaled_final/1751_fw.mp4	0.0	354.81293773651123	2.500020980834961
75	319.52343583106995	pulse	1	t		73.0	2.5	/experiments/AOT/AOT_stimuli/rescaled_final/1751_fw.mp4	0.0	355.9964597225189	
75	320.8399348258972	fix_post	2		12	73.0	2.5	/experiments/AOT/AOT_stimuli/rescaled_final/1751_fw.mp4	0.0	357.3129587173462	0.0999150276184082
76	320.9398498535156	fix_pre	0		120	74.0	2.5	/experiments/AOT/AOT_stimuli/rescaled_final/0571_rv.mp4	0.0	357.4128737449646	1.000054121017456
76	321.12339997291565	pulse	0	t		74.0	2.5	/experiments/AOT/AOT_stimuli/rescaled_final/0571_rv.mp4	0.0	357.5964238643646	
76	321.9399039745331	movie	1		245	74.0	2.5	/experiments/AOT/AOT_stimuli/rescaled_final/0571_rv.mp4	0.0	358.41292786598206	2.499897003173828
76	322.7233958244324	pulse	1	t		74.0	2.5	/experiments/AOT/AOT_stimuli/rescaled_final/0571_rv.mp4	0.0	359.19641971588135	
76	324.32188296318054	pulse	1	t		74.0	2.5	/experiments/AOT/AOT_stimuli/rescaled_final/0571_rv.mp4	0.0	360.7949068546295	
76	324.4398009777069	fix_post	2		12	74.0	2.5	/experiments/AOT/AOT_stimuli/rescaled_final/0571_rv.mp4	0.0	360.9128248691559	0.09962105751037598
77	324.5394220352173	fix_pre	0		120	75.0	2.5	/experiments/AOT/AOT_stimuli/rescaled_final/0661_fw.mp4	0.0	361.01244592666626	1.0004398822784424
77	325.5398619174957	movie	1		244	75.0	2.5	/experiments/AOT/AOT_stimuli/rescaled_final/0661_fw.mp4	0.0	362.0128858089447	2.5000340938568115
77	325.9244079589844	pulse	1	t		75.0	2.5	/experiments/AOT/AOT_stimuli/rescaled_final/0661_fw.mp4	0.0	362.39743185043335	
77	327.523344039917	pulse	1	t		75.0	2.5	/experiments/AOT/AOT_stimuli/rescaled_final/0661_fw.mp4	0.0	363.99636793136597	
77	328.03989601135254	fix_post	2		12	75.0	2.5	/experiments/AOT/AOT_stimuli/rescaled_final/0661_fw.mp4	0.0	364.5129199028015	0.0998988151550293
78	328.13979482650757	fix_pre	0		119	76.0	2.5	/experiments/AOT/AOT_stimuli/rescaled_final/0673_rv.mp4	0.0	364.61281871795654	0.9916741847991943
78	329.12337589263916	pulse	0	t		76.0	2.5	/experiments/AOT/AOT_stimuli/rescaled_final/0673_rv.mp4	0.0	365.59639978408813	
78	329.13146901130676	movie	1		246	76.0	2.5	/experiments/AOT/AOT_stimuli/rescaled_final/0673_rv.mp4	0.0	365.60449290275574	2.5083999633789062
78	330.7228298187256	pulse	1	t		76.0	2.5	/experiments/AOT/AOT_stimuli/rescaled_final/0673_rv.mp4	0.0	367.19585371017456	
78	331.63986897468567	fix_post	2		12	76.0	2.5	/experiments/AOT/AOT_stimuli/rescaled_final/0673_rv.mp4	0.0	368.11289286613464	0.09997200965881348
79	331.7398409843445	fix_pre	0		120	77.0	2.5	blank	1.0	368.21286487579346	0.9999890327453613
79	332.31582283973694	pulse	0	t		77.0	2.5	blank	1.0	368.7888467311859	
79	332.73983001708984	movie	1		300	77.0	2.5	blank	1.0	369.2128539085388	2.4999468326568604
79	333.91586685180664	pulse	1	t		77.0	2.5	blank	1.0	370.3888907432556	
79	335.2397768497467	fix_post	2		12	77.0	2.5	blank	1.0	371.7128007411957	0.10004210472106934
80	335.3398189544678	fix_pre	0		120	78.0	2.5	/experiments/AOT/AOT_stimuli/rescaled_final/1083_rv.mp4	0.0	371.81284284591675	1.0000560283660889
80	335.5157198905945	pulse	0	t		78.0	2.5	/experiments/AOT/AOT_stimuli/rescaled_final/1083_rv.mp4	0.0	371.98874378204346	
80	336.33987498283386	movie	1		245	78.0	2.5	/experiments/AOT/AOT_stimuli/rescaled_final/1083_rv.mp4	0.0	372.81289887428284	2.499891996383667
80	337.1233420372009	pulse	1	t		78.0	2.5	/experiments/AOT/AOT_stimuli/rescaled_final/1083_rv.mp4	0.0	373.5963659286499	
80	338.71941900253296	pulse	1	t		78.0	2.5	/experiments/AOT/AOT_stimuli/rescaled_final/1083_rv.mp4	0.0	375.19244289398193	
80	338.83976697921753	fix_post	2		12	78.0	2.5	/experiments/AOT/AOT_stimuli/rescaled_final/1083_rv.mp4	0.0	375.3127908706665	0.09997892379760742
81	338.93974590301514	fix_pre	0		120	79.0	2.5	/experiments/AOT/AOT_stimuli/rescaled_final/0581_fw.mp4	0.0	375.4127697944641	1.0000519752502441
81	339.9397978782654	movie	1		245	79.0	2.5	/experiments/AOT/AOT_stimuli/rescaled_final/0581_fw.mp4	0.0	376.41282176971436	2.4999420642852783
81	340.3229749202728	pulse	1	t		79.0	2.5	/experiments/AOT/AOT_stimuli/rescaled_final/0581_fw.mp4	0.0	376.7959988117218	
81	341.92340993881226	pulse	1	t		79.0	2.5	/experiments/AOT/AOT_stimuli/rescaled_final/0581_fw.mp4	0.0	378.39643383026123	
81	342.43973994255066	fix_post	2		12	79.0	2.5	/experiments/AOT/AOT_stimuli/rescaled_final/0581_fw.mp4	0.0	378.91276383399963	0.10015606880187988
82	342.53989601135254	fix_pre	0		119	80.0	2.5	/experiments/AOT/AOT_stimuli/rescaled_final/0760_fw.mp4	0.0	379.0129199028015	0.9915809631347656
82	343.5228669643402	pulse	0	t		80.0	2.5	/experiments/AOT/AOT_stimuli/rescaled_final/0760_fw.mp4	0.0	379.9958908557892	
82	343.5314769744873	movie	1		246	80.0	2.5	/experiments/AOT/AOT_stimuli/rescaled_final/0760_fw.mp4	0.0	380.0045008659363	2.5085089206695557
82	345.12284898757935	pulse	1	t		80.0	2.5	/experiments/AOT/AOT_stimuli/rescaled_final/0760_fw.mp4	0.0	381.5958728790283	
82	346.03998589515686	fix_post	2		12	80.0	2.5	/experiments/AOT/AOT_stimuli/rescaled_final/0760_fw.mp4	0.0	382.51300978660583	0.09998011589050293
83	346.13996601104736	fix_pre	0		120	81.0	2.5	/experiments/AOT/AOT_stimuli/rescaled_final/2148_rv.mp4	0.0	382.61298990249634	0.9997448921203613
83	346.7231628894806	pulse	0	t		81.0	2.5	/experiments/AOT/AOT_stimuli/rescaled_final/2148_rv.mp4	0.0	383.19618678092957	
83	347.1397109031677	movie	1		246	81.0	2.5	/experiments/AOT/AOT_stimuli/rescaled_final/2148_rv.mp4	0.0	383.6127347946167	2.499980926513672
83	348.32336497306824	pulse	1	t		81.0	2.5	/experiments/AOT/AOT_stimuli/rescaled_final/2148_rv.mp4	0.0	384.7963888645172	
83	349.6396918296814	fix_post	2		12	81.0	2.5	/experiments/AOT/AOT_stimuli/rescaled_final/2148_rv.mp4	0.0	386.11271572113037	0.10006499290466309
84	349.73975682258606	fix_pre	0		120	82.0	2.5	/experiments/AOT/AOT_stimuli/rescaled_final/0528_fw.mp4	0.0	386.21278071403503	0.9995951652526855
84	349.9158990383148	pulse	0	t		82.0	2.5	/experiments/AOT/AOT_stimuli/rescaled_final/0528_fw.mp4	0.0	386.3889229297638	
84	350.73935198783875	movie	1		245	82.0	2.5	/experiments/AOT/AOT_stimuli/rescaled_final/0528_fw.mp4	0.0	387.2123758792877	2.5003578662872314
84	351.5158200263977	pulse	1	t		82.0	2.5	/experiments/AOT/AOT_stimuli/rescaled_final/0528_fw.mp4	0.0	387.9888439178467	
84	353.1156859397888	pulse	1	t		82.0	2.5	/experiments/AOT/AOT_stimuli/rescaled_final/0528_fw.mp4	0.0	389.5887098312378	
84	353.239709854126	fix_post	2		12	82.0	2.5	/experiments/AOT/AOT_stimuli/rescaled_final/0528_fw.mp4	0.0	389.71273374557495	0.09998011589050293
85	353.3396899700165	fix_pre	0		120	83.0	2.5	blank	1.0	389.81271386146545	0.9999599456787109
85	354.3396499156952	movie	1		300	83.0	2.5	blank	1.0	390.81267380714417	2.500025987625122
85	354.723247051239	pulse	1	t		83.0	2.5	blank	1.0	391.196270942688	
85	356.3231420516968	pulse	1	t		83.0	2.5	blank	1.0	392.79616594314575	
85	356.8396759033203	fix_post	2		12	83.0	2.5	blank	1.0	393.3126997947693	0.09972310066223145
87	356.93939900398254	stim	0		1716					393.4124228954315	14.300336837768555
87	357.9232189655304	pulse	0	t						394.39624285697937	
87	359.52315497398376	pulse	0	t						395.99617886543274	
87	361.12310695648193	pulse	0	t						397.5961308479309	
87	362.7231869697571	pulse	0	t						399.19621086120605	
87	364.31579184532166	pulse	0	t						400.78881573677063	
87	365.9157350063324	pulse	0	t						402.3887588977814	
87	367.5157289505005	pulse	0	t						403.98875284194946	
87	369.12313985824585	pulse	0	t						405.5961637496948	
87	370.72330498695374	pulse	0	t						407.1963288784027	
