trial_nr	onset	event_type	phase	response	nr_frames	movie_index	movie_duration	movie_file	blank	onset_abs	duration
0	0.14998316764831543	stim	0		37					20.488778114318848	0.30884385108947754
0	0.45036816596984863	response	0	space						20.78916311264038	
1	0.45882701873779297	stim	0		4315					20.797621965408325	35.95780611038208
1	36.410820960998535	pulse	0	t						56.74961590766907	
1	36.41663312911987	stim	1		1717					56.755428075790405	14.308385848999023
1	38.008514165878296	pulse	1	t						58.34730911254883	
1	39.60855507850647	pulse	1	t						59.947350025177	
1	41.20854997634888	pulse	1	t						61.54734492301941	
1	42.80855417251587	pulse	1	t						63.1473491191864	
1	44.408486127853394	pulse	1	t						64.74728107452393	
1	46.008480072021484	pulse	1	t						66.34727501869202	
1	47.60847306251526	pulse	1	t						67.94726800918579	
1	49.20844006538391	pulse	1	t						69.54723501205444	
2	50.7250189781189	fix_pre	0		11	0.0	2.5	/experiments/AOT/AOT_stimuli/rescaled_final/0725_fw.mp4	0.0	71.06381392478943	0.09169816970825195
2	50.80849003791809	pulse	0	t		0.0	2.5	/experiments/AOT/AOT_stimuli/rescaled_final/0725_fw.mp4	0.0	71.14728498458862	
2	50.81671714782715	movie	1		245	0.0	2.5	/experiments/AOT/AOT_stimuli/rescaled_final/0725_fw.mp4	0.0	71.15551209449768	2.508415937423706
2	52.40804409980774	pulse	1	t		0.0	2.5	/experiments/AOT/AOT_stimuli/rescaled_final/0725_fw.mp4	0.0	72.74683904647827	
2	53.325133085250854	fix_post	2		12	0.0	2.5	/experiments/AOT/AOT_stimuli/rescaled_final/0725_fw.mp4	0.0	73.66392803192139	0.09984207153320312
3	53.42497515678406	fix_pre	0		120	1.0	2.5	/experiments/AOT/AOT_stimuli/rescaled_final/0439_rv.mp4	0.0	73.76377010345459	0.9999828338623047
3	54.007989168167114	pulse	0	t		1.0	2.5	/experiments/AOT/AOT_stimuli/rescaled_final/0439_rv.mp4	0.0	74.34678411483765	
3	54.42495799064636	movie	1		243	1.0	2.5	/experiments/AOT/AOT_stimuli/rescaled_final/0439_rv.mp4	0.0	74.7637529373169	2.499861001968384
3	55.60813117027283	pulse	1	t		1.0	2.5	/experiments/AOT/AOT_stimuli/rescaled_final/0439_rv.mp4	0.0	75.94692611694336	
3	56.924818992614746	fix_post	2		12	1.0	2.5	/experiments/AOT/AOT_stimuli/rescaled_final/0439_rv.mp4	0.0	77.26361393928528	0.10041213035583496
4	57.02523112297058	fix_pre	0		120	2.0	2.5	/experiments/AOT/AOT_stimuli/rescaled_final/1043_fw.mp4	0.0	77.36402606964111	0.999755859375
4	57.20876407623291	pulse	0	t		2.0	2.5	/experiments/AOT/AOT_stimuli/rescaled_final/1043_fw.mp4	0.0	77.54755902290344	
4	58.02498698234558	movie	1		243	2.0	2.5	/experiments/AOT/AOT_stimuli/rescaled_final/1043_fw.mp4	0.0	78.36378192901611	2.4999351501464844
4	58.80840611457825	pulse	1	t		2.0	2.5	/experiments/AOT/AOT_stimuli/rescaled_final/1043_fw.mp4	0.0	79.14720106124878	
4	60.40707015991211	pulse	1	t		2.0	2.5	/experiments/AOT/AOT_stimuli/rescaled_final/1043_fw.mp4	0.0	80.74586510658264	
4	60.524922132492065	fix_post	2		12	2.0	2.5	/experiments/AOT/AOT_stimuli/rescaled_final/1043_fw.mp4	0.0	80.8637170791626	0.10002493858337402
5	60.62494707107544	fix_pre	0		120	3.0	2.5	/experiments/AOT/AOT_stimuli/rescaled_final/1544_fw.mp4	0.0	80.96374201774597	0.9999570846557617
5	61.6249041557312	movie	1		247	3.0	2.5	/experiments/AOT/AOT_stimuli/rescaled_final/1544_fw.mp4	0.0	81.96369910240173	2.500013828277588
5	62.007917165756226	pulse	1	t		3.0	2.5	/experiments/AOT/AOT_stimuli/rescaled_final/1544_fw.mp4	0.0	82.34671211242676	
5	63.6083619594574	pulse	1	t		3.0	2.5	/experiments/AOT/AOT_stimuli/rescaled_final/1544_fw.mp4	0.0	83.94715690612793	
5	64.12491798400879	fix_post	2		12	3.0	2.5	/experiments/AOT/AOT_stimuli/rescaled_final/1544_fw.mp4	0.0	84.46371293067932	0.10011410713195801
6	64.22503209114075	fix_pre	0		119	4.0	2.5	/experiments/AOT/AOT_stimuli/rescaled_final/0830_fw.mp4	0.0	84.56382703781128	0.9915120601654053
6	65.20837306976318	pulse	0	t		4.0	2.5	/experiments/AOT/AOT_stimuli/rescaled_final/0830_fw.mp4	0.0	85.54716801643372	
6	65.21654415130615	movie	1		247	4.0	2.5	/experiments/AOT/AOT_stimuli/rescaled_final/0830_fw.mp4	0.0	85.55533909797668	2.50834584236145
6	66.80888295173645	pulse	1	t		4.0	2.5	/experiments/AOT/AOT_stimuli/rescaled_final/0830_fw.mp4	0.0	87.14767789840698	
6	67.7248899936676	fix_post	2		12	4.0	2.5	/experiments/AOT/AOT_stimuli/rescaled_final/0830_fw.mp4	0.0	88.06368494033813	0.10001897811889648
7	67.8249089717865	fix_pre	0		120	5.0	2.5	blank	1.0	88.16370391845703	0.9999921321868896
7	68.40837407112122	pulse	0	t		5.0	2.5	blank	1.0	88.74716901779175	
7	68.82490110397339	movie	1		300	5.0	2.5	blank	1.0	89.16369605064392	2.500030994415283
7	70.00845003128052	pulse	1	t		5.0	2.5	blank	1.0	90.34724497795105	
7	71.32493209838867	fix_post	2		12	5.0	2.5	blank	1.0	91.6637270450592	0.0999288558959961
8	71.42486095428467	fix_pre	0		120	6.0	2.5	/experiments/AOT/AOT_stimuli/rescaled_final/0517_fw.mp4	0.0	91.7636559009552	0.9999911785125732
8	71.60845708847046	pulse	0	t		6.0	2.5	/experiments/AOT/AOT_stimuli/rescaled_final/0517_fw.mp4	0.0	91.94725203514099	
8	72.42485213279724	movie	1		245	6.0	2.5	/experiments/AOT/AOT_stimuli/rescaled_final/0517_fw.mp4	0.0	92.76364707946777	2.5000059604644775
8	73.20856714248657	pulse	1	t		6.0	2.5	/experiments/AOT/AOT_stimuli/rescaled_final/0517_fw.mp4	0.0	93.5473620891571	
8	74.80682802200317	pulse	1	t		6.0	2.5	/experiments/AOT/AOT_stimuli/rescaled_final/0517_fw.mp4	0.0	95.1456229686737	
8	74.92485809326172	fix_post	2		12	6.0	2.5	/experiments/AOT/AOT_stimuli/rescaled_final/0517_fw.mp4	0.0	95.26365303993225	0.1000058650970459
9	75.02486395835876	fix_pre	0		120	7.0	2.5	/experiments/AOT/AOT_stimuli/rescaled_final/2126_rv.mp4	0.0	95.3636589050293	1.0000050067901611
9	76.02486896514893	movie	1		243	7.0	2.5	/experiments/AOT/AOT_stimuli/rescaled_final/2126_rv.mp4	0.0	96.36366391181946	2.499584197998047
9	76.40784907341003	pulse	1	t		7.0	2.5	/experiments/AOT/AOT_stimuli/rescaled_final/2126_rv.mp4	0.0	96.74664402008057	
9	78.00842809677124	pulse	1	t		7.0	2.5	/experiments/AOT/AOT_stimuli/rescaled_final/2126_rv.mp4	0.0	98.34722304344177	
9	78.52445316314697	fix_post	2		12	7.0	2.5	/experiments/AOT/AOT_stimuli/rescaled_final/2126_rv.mp4	0.0	98.8632481098175	0.10050082206726074
10	78.62495398521423	fix_pre	0		119	8.0	2.5	/experiments/AOT/AOT_stimuli/rescaled_final/1460_rv.mp4	0.0	98.96374893188477	0.9915051460266113
10	79.60830998420715	pulse	0	t		8.0	2.5	/experiments/AOT/AOT_stimuli/rescaled_final/1460_rv.mp4	0.0	99.94710493087769	
10	79.61645913124084	movie	1		246	8.0	2.5	/experiments/AOT/AOT_stimuli/rescaled_final/1460_rv.mp4	0.0	99.95525407791138	2.50836181640625
10	81.20829200744629	pulse	1	t		8.0	2.5	/experiments/AOT/AOT_stimuli/rescaled_final/1460_rv.mp4	0.0	101.54708695411682	
10	82.1248209476471	fix_post	2		12	8.0	2.5	/experiments/AOT/AOT_stimuli/rescaled_final/1460_rv.mp4	0.0	102.46361589431763	0.10003805160522461
11	82.22485899925232	fix_pre	0		120	9.0	2.5	/experiments/AOT/AOT_stimuli/rescaled_final/1566_rv.mp4	0.0	102.56365394592285	0.999561071395874
11	82.80833506584167	pulse	0	t		9.0	2.5	/experiments/AOT/AOT_stimuli/rescaled_final/1566_rv.mp4	0.0	103.1471300125122	
11	83.2244200706482	movie	1		244	9.0	2.5	/experiments/AOT/AOT_stimuli/rescaled_final/1566_rv.mp4	0.0	103.56321501731873	2.5004210472106934
11	84.40835404396057	pulse	1	t		9.0	2.5	/experiments/AOT/AOT_stimuli/rescaled_final/1566_rv.mp4	0.0	104.7471489906311	
11	85.72484111785889	fix_post	2		12	9.0	2.5	/experiments/AOT/AOT_stimuli/rescaled_final/1566_rv.mp4	0.0	106.06363606452942	0.09989404678344727
12	85.82473516464233	fix_pre	0		120	10.0	2.5	/experiments/AOT/AOT_stimuli/rescaled_final/0674_fw.mp4	0.0	106.16353011131287	1.0000219345092773
12	86.00828909873962	pulse	0	t		10.0	2.5	/experiments/AOT/AOT_stimuli/rescaled_final/0674_fw.mp4	0.0	106.34708404541016	
12	86.82475709915161	movie	1		245	10.0	2.5	/experiments/AOT/AOT_stimuli/rescaled_final/0674_fw.mp4	0.0	107.16355204582214	2.500046968460083
12	87.60825896263123	pulse	1	t		10.0	2.5	/experiments/AOT/AOT_stimuli/rescaled_final/0674_fw.mp4	0.0	107.94705390930176	
12	89.20716595649719	pulse	1	t		10.0	2.5	/experiments/AOT/AOT_stimuli/rescaled_final/0674_fw.mp4	0.0	109.54596090316772	
12	89.3248040676117	fix_post	2		12	10.0	2.5	/experiments/AOT/AOT_stimuli/rescaled_final/0674_fw.mp4	0.0	109.66359901428223	0.09999990463256836
13	89.42480397224426	fix_pre	0		120	11.0	2.5	/experiments/AOT/AOT_stimuli/rescaled_final/1172_rv.mp4	0.0	109.7635989189148	0.9999949932098389
13	90.4247989654541	movie	1		244	11.0	2.5	/experiments/AOT/AOT_stimuli/rescaled_final/1172_rv.mp4	0.0	110.76359391212463	2.4999539852142334
13	90.80836701393127	pulse	1	t		11.0	2.5	/experiments/AOT/AOT_stimuli/rescaled_final/1172_rv.mp4	0.0	111.1471619606018	
13	92.40824794769287	pulse	1	t		11.0	2.5	/experiments/AOT/AOT_stimuli/rescaled_final/1172_rv.mp4	0.0	112.7470428943634	
13	92.92475295066833	fix_post	2		12	11.0	2.5	/experiments/AOT/AOT_stimuli/rescaled_final/1172_rv.mp4	0.0	113.26354789733887	0.10003805160522461
14	93.02479100227356	fix_pre	0		119	12.0	2.5	/experiments/AOT/AOT_stimuli/rescaled_final/0892_fw.mp4	0.0	113.36358594894409	0.991671085357666
14	94.0082380771637	pulse	0	t		12.0	2.5	/experiments/AOT/AOT_stimuli/rescaled_final/0892_fw.mp4	0.0	114.34703302383423	
14	94.01646208763123	movie	1		245	12.0	2.5	/experiments/AOT/AOT_stimuli/rescaled_final/0892_fw.mp4	0.0	114.35525703430176	2.5083138942718506
14	95.60935997962952	pulse	1	t		12.0	2.5	/experiments/AOT/AOT_stimuli/rescaled_final/0892_fw.mp4	0.0	115.94815492630005	
14	96.52477598190308	fix_post	2		12	12.0	2.5	/experiments/AOT/AOT_stimuli/rescaled_final/0892_fw.mp4	0.0	116.86357092857361	0.09998512268066406
15	96.62476110458374	fix_pre	0		120	13.0	2.5	/experiments/AOT/AOT_stimuli/rescaled_final/0206_rv.mp4	0.0	116.96355605125427	1.0001380443572998
15	97.20822596549988	pulse	0	t		13.0	2.5	/experiments/AOT/AOT_stimuli/rescaled_final/0206_rv.mp4	0.0	117.54702091217041	
15	97.62489914894104	movie	1		243	13.0	2.5	/experiments/AOT/AOT_stimuli/rescaled_final/0206_rv.mp4	0.0	117.96369409561157	2.4998598098754883
15	98.80822801589966	pulse	1	t		13.0	2.5	/experiments/AOT/AOT_stimuli/rescaled_final/0206_rv.mp4	0.0	119.14702296257019	
15	100.12475895881653	fix_post	2		12	13.0	2.5	/experiments/AOT/AOT_stimuli/rescaled_final/0206_rv.mp4	0.0	120.46355390548706	0.10003113746643066
16	100.22479009628296	fix_pre	0		120	14.0	2.5	blank	1.0	120.56358504295349	0.9998810291290283
16	100.40836501121521	pulse	0	t		14.0	2.5	blank	1.0	120.74715995788574	
16	101.22467112541199	movie	1		300	14.0	2.5	blank	1.0	121.56346607208252	2.5001039505004883
16	102.00826907157898	pulse	1	t		14.0	2.5	blank	1.0	122.34706401824951	
16	103.60818910598755	pulse	1	t		14.0	2.5	blank	1.0	123.94698405265808	
16	103.72477507591248	fix_post	2		12	14.0	2.5	blank	1.0	124.06357002258301	0.09998393058776855
17	103.82475900650024	fix_pre	0		120	15.0	2.5	/experiments/AOT/AOT_stimuli/rescaled_final/0625_fw.mp4	0.0	124.16355395317078	0.999932050704956
17	104.8246910572052	movie	1		243	15.0	2.5	/experiments/AOT/AOT_stimuli/rescaled_final/0625_fw.mp4	0.0	125.16348600387573	2.4999969005584717
17	105.20776605606079	pulse	1	t		15.0	2.5	/experiments/AOT/AOT_stimuli/rescaled_final/0625_fw.mp4	0.0	125.54656100273132	
17	106.80810308456421	pulse	1	t		15.0	2.5	/experiments/AOT/AOT_stimuli/rescaled_final/0625_fw.mp4	0.0	127.14689803123474	
17	107.32468795776367	fix_post	2		12	15.0	2.5	/experiments/AOT/AOT_stimuli/rescaled_final/0625_fw.mp4	0.0	127.6634829044342	0.09999418258666992
18	107.42468214035034	fix_pre	0		119	16.0	2.5	/experiments/AOT/AOT_stimuli/rescaled_final/0561_rv.mp4	0.0	127.76347708702087	0.9916608333587646
18	108.4082601070404	pulse	0	t		16.0	2.5	/experiments/AOT/AOT_stimuli/rescaled_final/0561_rv.mp4	0.0	128.74705505371094	
18	108.4163429737091	movie	1		244	16.0	2.5	/experiments/AOT/AOT_stimuli/rescaled_final/0561_rv.mp4	0.0	128.75513792037964	2.5080721378326416
18	110.00750613212585	pulse	1	t		16.0	2.5	/experiments/AOT/AOT_stimuli/rescaled_final/0561_rv.mp4	0.0	130.3463010787964	
18	110.92441511154175	fix_post	2		12	16.0	2.5	/experiments/AOT/AOT_stimuli/rescaled_final/0561_rv.mp4	0.0	131.26321005821228	0.09990191459655762
19	111.0243170261383	fix_pre	0		120	17.0	2.5	/experiments/AOT/AOT_stimuli/rescaled_final/1921_fw.mp4	0.0	131.36311197280884	1.0001471042633057
19	111.6078519821167	pulse	0	t		17.0	2.5	/experiments/AOT/AOT_stimuli/rescaled_final/1921_fw.mp4	0.0	131.94664692878723	
19	112.02446413040161	movie	1		244	17.0	2.5	/experiments/AOT/AOT_stimuli/rescaled_final/1921_fw.mp4	0.0	132.36325907707214	2.5003159046173096
19	113.20847201347351	pulse	1	t		17.0	2.5	/experiments/AOT/AOT_stimuli/rescaled_final/1921_fw.mp4	0.0	133.54726696014404	
19	114.52478003501892	fix_post	2		12	17.0	2.5	/experiments/AOT/AOT_stimuli/rescaled_final/1921_fw.mp4	0.0	134.86357498168945	0.09989809989929199
20	114.62467813491821	fix_pre	0		120	18.0	2.5	/experiments/AOT/AOT_stimuli/rescaled_final/0640_rv.mp4	0.0	134.96347308158875	0.9999909400939941
20	114.80821204185486	pulse	0	t		18.0	2.5	/experiments/AOT/AOT_stimuli/rescaled_final/0640_rv.mp4	0.0	135.1470069885254	
20	115.6246690750122	movie	1		243	18.0	2.5	/experiments/AOT/AOT_stimuli/rescaled_final/0640_rv.mp4	0.0	135.96346402168274	2.500011920928955
20	116.40810012817383	pulse	1	t		18.0	2.5	/experiments/AOT/AOT_stimuli/rescaled_final/0640_rv.mp4	0.0	136.74689507484436	
20	118.00639605522156	pulse	1	t		18.0	2.5	/experiments/AOT/AOT_stimuli/rescaled_final/0640_rv.mp4	0.0	138.3451910018921	
20	118.12468099594116	fix_post	2		12	18.0	2.5	/experiments/AOT/AOT_stimuli/rescaled_final/0640_rv.mp4	0.0	138.4634759426117	0.10001707077026367
21	118.22469806671143	fix_pre	0		120	19.0	2.5	blank	1.0	138.56349301338196	0.9999330043792725
21	119.2246310710907	movie	1		300	19.0	2.5	blank	1.0	139.56342601776123	2.499967098236084
21	119.60810995101929	pulse	1	t		19.0	2.5	blank	1.0	139.94690489768982	
21	121.20808911323547	pulse	1	t		19.0	2.5	blank	1.0	141.546884059906	
21	121.72459816932678	fix_post	2		12	19.0	2.5	blank	1.0	142.06339311599731	0.10004687309265137
22	121.82464504241943	fix_pre	0		119	20.0	2.5	/experiments/AOT/AOT_stimuli/rescaled_final/1829_fw.mp4	0.0	142.16343998908997	0.9915981292724609
22	122.80820298194885	pulse	0	t		20.0	2.5	/experiments/AOT/AOT_stimuli/rescaled_final/1829_fw.mp4	0.0	143.14699792861938	
22	122.8162431716919	movie	1		245	20.0	2.5	/experiments/AOT/AOT_stimuli/rescaled_final/1829_fw.mp4	0.0	143.15503811836243	2.508445978164673
22	124.40775299072266	pulse	1	t		20.0	2.5	/experiments/AOT/AOT_stimuli/rescaled_final/1829_fw.mp4	0.0	144.7465479373932	
22	125.32468914985657	fix_post	2		12	20.0	2.5	/experiments/AOT/AOT_stimuli/rescaled_final/1829_fw.mp4	0.0	145.6634840965271	0.09990596771240234
23	125.42459511756897	fix_pre	0		120	21.0	2.5	/experiments/AOT/AOT_stimuli/rescaled_final/0406_fw.mp4	0.0	145.7633900642395	1.0000178813934326
23	126.00815010070801	pulse	0	t		21.0	2.5	/experiments/AOT/AOT_stimuli/rescaled_final/0406_fw.mp4	0.0	146.34694504737854	
23	126.4246129989624	movie	1		245	21.0	2.5	/experiments/AOT/AOT_stimuli/rescaled_final/0406_fw.mp4	0.0	146.76340794563293	2.499959945678711
23	127.6081690788269	pulse	1	t		21.0	2.5	/experiments/AOT/AOT_stimuli/rescaled_final/0406_fw.mp4	0.0	147.94696402549744	
23	128.9245729446411	fix_post	2		12	21.0	2.5	/experiments/AOT/AOT_stimuli/rescaled_final/0406_fw.mp4	0.0	149.26336789131165	0.10004520416259766
24	129.0246181488037	fix_pre	0		120	22.0	2.5	/experiments/AOT/AOT_stimuli/rescaled_final/0925_rv.mp4	0.0	149.36341309547424	0.9999959468841553
24	129.20807099342346	pulse	0	t		22.0	2.5	/experiments/AOT/AOT_stimuli/rescaled_final/0925_rv.mp4	0.0	149.546865940094	
24	130.02461409568787	movie	1		246	22.0	2.5	/experiments/AOT/AOT_stimuli/rescaled_final/0925_rv.mp4	0.0	150.3634090423584	2.49993896484375
24	130.80809998512268	pulse	1	t		22.0	2.5	/experiments/AOT/AOT_stimuli/rescaled_final/0925_rv.mp4	0.0	151.1468949317932	
24	132.40680694580078	pulse	1	t		22.0	2.5	/experiments/AOT/AOT_stimuli/rescaled_final/0925_rv.mp4	0.0	152.7456018924713	
24	132.52455306053162	fix_post	2		12	22.0	2.5	/experiments/AOT/AOT_stimuli/rescaled_final/0925_rv.mp4	0.0	152.86334800720215	0.10002708435058594
25	132.6245801448822	fix_pre	0		120	23.0	2.5	/experiments/AOT/AOT_stimuli/rescaled_final/0640_rv.mp4	0.0	152.96337509155273	0.9996299743652344
25	133.62421011924744	movie	1		245	23.0	2.5	/experiments/AOT/AOT_stimuli/rescaled_final/0640_rv.mp4	0.0	153.96300506591797	2.5003159046173096
25	134.00755715370178	pulse	1	t		23.0	2.5	/experiments/AOT/AOT_stimuli/rescaled_final/0640_rv.mp4	0.0	154.34635210037231	
25	135.60817193984985	pulse	1	t		23.0	2.5	/experiments/AOT/AOT_stimuli/rescaled_final/0640_rv.mp4	0.0	155.94696688652039	
25	136.12452602386475	fix_post	2		12	23.0	2.5	/experiments/AOT/AOT_stimuli/rescaled_final/0640_rv.mp4	0.0	156.46332097053528	0.1000509262084961
26	136.22457695007324	fix_pre	0		119	24.0	2.5	/experiments/AOT/AOT_stimuli/rescaled_final/1927_fw.mp4	0.0	156.56337189674377	0.9916601181030273
26	137.20803594589233	pulse	0	t		24.0	2.5	/experiments/AOT/AOT_stimuli/rescaled_final/1927_fw.mp4	0.0	157.54683089256287	
26	137.21623706817627	movie	1		246	24.0	2.5	/experiments/AOT/AOT_stimuli/rescaled_final/1927_fw.mp4	0.0	157.5550320148468	2.5083189010620117
26	138.8074769973755	pulse	1	t		24.0	2.5	/experiments/AOT/AOT_stimuli/rescaled_final/1927_fw.mp4	0.0	159.14627194404602	
26	139.72455596923828	fix_post	2		12	24.0	2.5	/experiments/AOT/AOT_stimuli/rescaled_final/1927_fw.mp4	0.0	160.0633509159088	0.09998106956481934
27	139.8245370388031	fix_pre	0		120	25.0	2.5	/experiments/AOT/AOT_stimuli/rescaled_final/1172_fw.mp4	0.0	160.16333198547363	0.9996340274810791
27	140.40805411338806	pulse	0	t		25.0	2.5	/experiments/AOT/AOT_stimuli/rescaled_final/1172_fw.mp4	0.0	160.7468490600586	
27	140.82417106628418	movie	1		243	25.0	2.5	/experiments/AOT/AOT_stimuli/rescaled_final/1172_fw.mp4	0.0	161.1629660129547	2.5003809928894043
27	142.00802302360535	pulse	1	t		25.0	2.5	/experiments/AOT/AOT_stimuli/rescaled_final/1172_fw.mp4	0.0	162.34681797027588	
27	143.32455205917358	fix_post	2		12	25.0	2.5	/experiments/AOT/AOT_stimuli/rescaled_final/1172_fw.mp4	0.0	163.66334700584412	0.09998893737792969
28	143.4245409965515	fix_pre	0		120	26.0	2.5	/experiments/AOT/AOT_stimuli/rescaled_final/1345_fw.mp4	0.0	163.76333594322205	0.9999489784240723
28	143.60801696777344	pulse	0	t		26.0	2.5	/experiments/AOT/AOT_stimuli/rescaled_final/1345_fw.mp4	0.0	163.94681191444397	
28	144.4244899749756	movie	1		243	26.0	2.5	/experiments/AOT/AOT_stimuli/rescaled_final/1345_fw.mp4	0.0	164.76328492164612	2.500009059906006
28	145.20800399780273	pulse	1	t		26.0	2.5	/experiments/AOT/AOT_stimuli/rescaled_final/1345_fw.mp4	0.0	165.54679894447327	
28	146.8063449859619	pulse	1	t		26.0	2.5	/experiments/AOT/AOT_stimuli/rescaled_final/1345_fw.mp4	0.0	167.14513993263245	
28	146.9244990348816	fix_post	2		12	26.0	2.5	/experiments/AOT/AOT_stimuli/rescaled_final/1345_fw.mp4	0.0	167.26329398155212	0.1000220775604248
29	147.02452111244202	fix_pre	0		120	27.0	2.5	blank	1.0	167.36331605911255	0.9999308586120605
29	148.02445197105408	movie	1		300	27.0	2.5	blank	1.0	168.3632469177246	2.49961519241333
29	148.40800404548645	pulse	1	t		27.0	2.5	blank	1.0	168.74679899215698	
29	150.00792407989502	pulse	1	t		27.0	2.5	blank	1.0	170.34671902656555	
29	150.5240671634674	fix_post	2		12	27.0	2.5	blank	1.0	170.86286211013794	0.10041999816894531
30	150.62448716163635	fix_pre	0		119	28.0	2.5	/experiments/AOT/AOT_stimuli/rescaled_final/1823_fw.mp4	0.0	170.96328210830688	0.9917459487915039
30	151.60794615745544	pulse	0	t		28.0	2.5	/experiments/AOT/AOT_stimuli/rescaled_final/1823_fw.mp4	0.0	171.94674110412598	
30	151.61623311042786	movie	1		248	28.0	2.5	/experiments/AOT/AOT_stimuli/rescaled_final/1823_fw.mp4	0.0	171.9550280570984	2.5077810287475586
30	153.20901894569397	pulse	1	t		28.0	2.5	/experiments/AOT/AOT_stimuli/rescaled_final/1823_fw.mp4	0.0	173.5478138923645	
30	154.12401413917542	fix_post	2		12	28.0	2.5	/experiments/AOT/AOT_stimuli/rescaled_final/1823_fw.mp4	0.0	174.46280908584595	0.10048103332519531
31	154.2244951725006	fix_pre	0		120	29.0	2.5	/experiments/AOT/AOT_stimuli/rescaled_final/0632_rv.mp4	0.0	174.56329011917114	0.9995667934417725
31	154.80794715881348	pulse	0	t		29.0	2.5	/experiments/AOT/AOT_stimuli/rescaled_final/0632_rv.mp4	0.0	175.146742105484	
31	155.22406196594238	movie	1		245	29.0	2.5	/experiments/AOT/AOT_stimuli/rescaled_final/0632_rv.mp4	0.0	175.56285691261292	2.4999771118164062
31	156.40809106826782	pulse	1	t		29.0	2.5	/experiments/AOT/AOT_stimuli/rescaled_final/0632_rv.mp4	0.0	176.74688601493835	
31	157.7240390777588	fix_post	2		12	29.0	2.5	/experiments/AOT/AOT_stimuli/rescaled_final/0632_rv.mp4	0.0	178.06283402442932	0.10045790672302246
32	157.8244969844818	fix_pre	0		120	30.0	2.5	/experiments/AOT/AOT_stimuli/rescaled_final/1942_fw.mp4	0.0	178.16329193115234	0.9999651908874512
32	158.00799012184143	pulse	0	t		30.0	2.5	/experiments/AOT/AOT_stimuli/rescaled_final/1942_fw.mp4	0.0	178.34678506851196	
32	158.82446217536926	movie	1		243	30.0	2.5	/experiments/AOT/AOT_stimuli/rescaled_final/1942_fw.mp4	0.0	179.1632571220398	2.4995369911193848
32	159.6078519821167	pulse	1	t		30.0	2.5	/experiments/AOT/AOT_stimuli/rescaled_final/1942_fw.mp4	0.0	179.94664692878723	
32	161.2062849998474	pulse	1	t		30.0	2.5	/experiments/AOT/AOT_stimuli/rescaled_final/1942_fw.mp4	0.0	181.54507994651794	
32	161.32399916648865	fix_post	2		12	30.0	2.5	/experiments/AOT/AOT_stimuli/rescaled_final/1942_fw.mp4	0.0	181.66279411315918	0.10013794898986816
33	161.42413711547852	fix_pre	0		120	31.0	2.5	/experiments/AOT/AOT_stimuli/rescaled_final/1798_rv.mp4	0.0	181.76293206214905	1.0003578662872314
33	162.42449498176575	movie	1		243	31.0	2.5	/experiments/AOT/AOT_stimuli/rescaled_final/1798_rv.mp4	0.0	182.76328992843628	2.4999780654907227
33	162.80794215202332	pulse	1	t		31.0	2.5	/experiments/AOT/AOT_stimuli/rescaled_final/1798_rv.mp4	0.0	183.14673709869385	
33	164.40786695480347	pulse	1	t		31.0	2.5	/experiments/AOT/AOT_stimuli/rescaled_final/1798_rv.mp4	0.0	184.746661901474	
33	164.92447304725647	fix_post	2		12	31.0	2.5	/experiments/AOT/AOT_stimuli/rescaled_final/1798_rv.mp4	0.0	185.263267993927	0.09997892379760742
34	165.02445197105408	fix_pre	0		119	32.0	2.5	/experiments/AOT/AOT_stimuli/rescaled_final/0989_fw.mp4	0.0	185.3632469177246	0.9912090301513672
34	166.00747513771057	pulse	0	t		32.0	2.5	/experiments/AOT/AOT_stimuli/rescaled_final/0989_fw.mp4	0.0	186.3462700843811	
34	166.01566100120544	movie	1		247	32.0	2.5	/experiments/AOT/AOT_stimuli/rescaled_final/0989_fw.mp4	0.0	186.35445594787598	2.508608102798462
34	167.60715794563293	pulse	1	t		32.0	2.5	/experiments/AOT/AOT_stimuli/rescaled_final/0989_fw.mp4	0.0	187.94595289230347	
34	168.5242691040039	fix_post	2		12	32.0	2.5	/experiments/AOT/AOT_stimuli/rescaled_final/0989_fw.mp4	0.0	188.86306405067444	0.10045790672302246
35	168.62472701072693	fix_pre	0		120	33.0	2.5	/experiments/AOT/AOT_stimuli/rescaled_final/1774_rv.mp4	0.0	188.96352195739746	0.9997210502624512
35	169.20790195465088	pulse	0	t		33.0	2.5	/experiments/AOT/AOT_stimuli/rescaled_final/1774_rv.mp4	0.0	189.5466969013214	
35	169.62444806098938	movie	1		243	33.0	2.5	/experiments/AOT/AOT_stimuli/rescaled_final/1774_rv.mp4	0.0	189.9632430076599	2.499979019165039
35	170.80786108970642	pulse	1	t		33.0	2.5	/experiments/AOT/AOT_stimuli/rescaled_final/1774_rv.mp4	0.0	191.14665603637695	
35	172.12442708015442	fix_post	2		12	33.0	2.5	/experiments/AOT/AOT_stimuli/rescaled_final/1774_rv.mp4	0.0	192.46322202682495	0.09999203681945801
36	172.22441911697388	fix_pre	0		120	34.0	2.5	/experiments/AOT/AOT_stimuli/rescaled_final/0223_rv.mp4	0.0	192.5632140636444	0.9999969005584717
36	172.40789198875427	pulse	0	t		34.0	2.5	/experiments/AOT/AOT_stimuli/rescaled_final/0223_rv.mp4	0.0	192.7466869354248	
36	173.22441601753235	movie	1		242	34.0	2.5	/experiments/AOT/AOT_stimuli/rescaled_final/0223_rv.mp4	0.0	193.56321096420288	2.4999821186065674
36	174.0077519416809	pulse	1	t		34.0	2.5	/experiments/AOT/AOT_stimuli/rescaled_final/0223_rv.mp4	0.0	194.34654688835144	
36	175.60611009597778	pulse	1	t		34.0	2.5	/experiments/AOT/AOT_stimuli/rescaled_final/0223_rv.mp4	0.0	195.94490504264832	
36	175.72439813613892	fix_post	2		12	34.0	2.5	/experiments/AOT/AOT_stimuli/rescaled_final/0223_rv.mp4	0.0	196.06319308280945	0.10004091262817383
37	175.8244390487671	fix_pre	0		120	35.0	2.5	blank	1.0	196.16323399543762	0.9999771118164062
37	176.8244161605835	movie	1		300	35.0	2.5	blank	1.0	197.16321110725403	2.5000128746032715
37	177.20780515670776	pulse	1	t		35.0	2.5	blank	1.0	197.5466001033783	
37	178.80778908729553	pulse	1	t		35.0	2.5	blank	1.0	199.14658403396606	
37	179.32442903518677	fix_post	2		12	35.0	2.5	blank	1.0	199.6632239818573	0.09995698928833008
38	179.4243860244751	fix_pre	0		119	36.0	2.5	/experiments/AOT/AOT_stimuli/rescaled_final/1982_fw.mp4	0.0	199.76318097114563	0.9916911125183105
38	180.40776109695435	pulse	0	t		36.0	2.5	/experiments/AOT/AOT_stimuli/rescaled_final/1982_fw.mp4	0.0	200.74655604362488	
38	180.4160771369934	movie	1		245	36.0	2.5	/experiments/AOT/AOT_stimuli/rescaled_final/1982_fw.mp4	0.0	200.75487208366394	2.5082390308380127
38	182.00741696357727	pulse	1	t		36.0	2.5	/experiments/AOT/AOT_stimuli/rescaled_final/1982_fw.mp4	0.0	202.3462119102478	
38	182.92431616783142	fix_post	2		12	36.0	2.5	/experiments/AOT/AOT_stimuli/rescaled_final/1982_fw.mp4	0.0	203.26311111450195	0.10006380081176758
39	183.0243799686432	fix_pre	0		120	37.0	2.5	/experiments/AOT/AOT_stimuli/rescaled_final/0710_fw.mp4	0.0	203.36317491531372	0.9995231628417969
39	183.6077950000763	pulse	0	t		37.0	2.5	/experiments/AOT/AOT_stimuli/rescaled_final/0710_fw.mp4	0.0	203.94658994674683	
39	184.02390313148499	movie	1		246	37.0	2.5	/experiments/AOT/AOT_stimuli/rescaled_final/0710_fw.mp4	0.0	204.36269807815552	2.50044584274292
39	185.2078731060028	pulse	1	t		37.0	2.5	/experiments/AOT/AOT_stimuli/rescaled_final/0710_fw.mp4	0.0	205.54666805267334	
39	186.5243489742279	fix_post	2		12	37.0	2.5	/experiments/AOT/AOT_stimuli/rescaled_final/0710_fw.mp4	0.0	206.86314392089844	0.09991097450256348
40	186.62425994873047	fix_pre	0		120	38.0	2.5	/experiments/AOT/AOT_stimuli/rescaled_final/1848_rv.mp4	0.0	206.963054895401	1.00006103515625
40	186.8077609539032	pulse	0	t		38.0	2.5	/experiments/AOT/AOT_stimuli/rescaled_final/1848_rv.mp4	0.0	207.14655590057373	
40	187.62432098388672	movie	1		243	38.0	2.5	/experiments/AOT/AOT_stimuli/rescaled_final/1848_rv.mp4	0.0	207.96311593055725	2.5000460147857666
40	188.4078710079193	pulse	1	t		38.0	2.5	/experiments/AOT/AOT_stimuli/rescaled_final/1848_rv.mp4	0.0	208.74666595458984	
40	190.0060760974884	pulse	1	t		38.0	2.5	/experiments/AOT/AOT_stimuli/rescaled_final/1848_rv.mp4	0.0	210.34487104415894	
40	190.12436699867249	fix_post	2		12	38.0	2.5	/experiments/AOT/AOT_stimuli/rescaled_final/1848_rv.mp4	0.0	210.46316194534302	0.09995198249816895
41	190.22431898117065	fix_pre	0		120	39.0	2.5	/experiments/AOT/AOT_stimuli/rescaled_final/1728_rv.mp4	0.0	210.5631139278412	1.0
41	191.22431898117065	movie	1		243	39.0	2.5	/experiments/AOT/AOT_stimuli/rescaled_final/1728_rv.mp4	0.0	211.5631139278412	2.499567985534668
41	191.6078760623932	pulse	1	t		39.0	2.5	/experiments/AOT/AOT_stimuli/rescaled_final/1728_rv.mp4	0.0	211.94667100906372	
41	193.20776915550232	pulse	1	t		39.0	2.5	/experiments/AOT/AOT_stimuli/rescaled_final/1728_rv.mp4	0.0	213.54656410217285	
41	193.72388696670532	fix_post	2		12	39.0	2.5	/experiments/AOT/AOT_stimuli/rescaled_final/1728_rv.mp4	0.0	214.06268191337585	0.10045003890991211
42	193.82433700561523	fix_pre	0		119	40.0	2.5	blank	1.0	214.16313195228577	0.9916040897369385
42	194.80780410766602	pulse	0	t		40.0	2.5	blank	1.0	215.14659905433655	
42	194.81594109535217	movie	1		301	40.0	2.5	blank	1.0	215.1547360420227	2.5082108974456787
42	196.4077010154724	pulse	1	t		40.0	2.5	blank	1.0	216.74649596214294	
42	197.32415199279785	fix_post	2		12	40.0	2.5	blank	1.0	217.66294693946838	0.10009002685546875
43	197.42424201965332	fix_pre	0		120	41.0	2.5	/experiments/AOT/AOT_stimuli/rescaled_final/0406_rv.mp4	0.0	217.76303696632385	0.9996099472045898
43	198.00770902633667	pulse	0	t		41.0	2.5	/experiments/AOT/AOT_stimuli/rescaled_final/0406_rv.mp4	0.0	218.3465039730072	
43	198.4238519668579	movie	1		244	41.0	2.5	/experiments/AOT/AOT_stimuli/rescaled_final/0406_rv.mp4	0.0	218.76264691352844	2.5004100799560547
43	199.60783910751343	pulse	1	t		41.0	2.5	/experiments/AOT/AOT_stimuli/rescaled_final/0406_rv.mp4	0.0	219.94663405418396	
43	200.92426204681396	fix_post	2		12	41.0	2.5	/experiments/AOT/AOT_stimuli/rescaled_final/0406_rv.mp4	0.0	221.2630569934845	0.09993410110473633
44	201.0241961479187	fix_pre	0		120	42.0	2.5	/experiments/AOT/AOT_stimuli/rescaled_final/0575_rv.mp4	0.0	221.36299109458923	1.0000238418579102
44	201.20768213272095	pulse	0	t		42.0	2.5	/experiments/AOT/AOT_stimuli/rescaled_final/0575_rv.mp4	0.0	221.54647707939148	
44	202.0242199897766	movie	1		244	42.0	2.5	/experiments/AOT/AOT_stimuli/rescaled_final/0575_rv.mp4	0.0	222.36301493644714	2.499969959259033
44	202.8077540397644	pulse	1	t		42.0	2.5	/experiments/AOT/AOT_stimuli/rescaled_final/0575_rv.mp4	0.0	223.14654898643494	
44	204.4060821533203	pulse	1	t		42.0	2.5	/experiments/AOT/AOT_stimuli/rescaled_final/0575_rv.mp4	0.0	224.74487709999084	
44	204.52418994903564	fix_post	2		12	42.0	2.5	/experiments/AOT/AOT_stimuli/rescaled_final/0575_rv.mp4	0.0	224.86298489570618	0.10002422332763672
45	204.62421417236328	fix_pre	0		120	43.0	2.5	/experiments/AOT/AOT_stimuli/rescaled_final/2021_rv.mp4	0.0	224.9630091190338	1.0000579357147217
45	205.624272108078	movie	1		244	43.0	2.5	/experiments/AOT/AOT_stimuli/rescaled_final/2021_rv.mp4	0.0	225.96306705474854	2.4995169639587402
45	206.00736498832703	pulse	1	t		43.0	2.5	/experiments/AOT/AOT_stimuli/rescaled_final/2021_rv.mp4	0.0	226.34615993499756	
45	207.60767602920532	pulse	1	t		43.0	2.5	/experiments/AOT/AOT_stimuli/rescaled_final/2021_rv.mp4	0.0	227.94647097587585	
45	208.12378907203674	fix_post	2		12	43.0	2.5	/experiments/AOT/AOT_stimuli/rescaled_final/2021_rv.mp4	0.0	228.46258401870728	0.1004800796508789
46	208.22426915168762	fix_pre	0		119	44.0	2.5	/experiments/AOT/AOT_stimuli/rescaled_final/1997_rv.mp4	0.0	228.56306409835815	0.9917299747467041
46	209.2076210975647	pulse	0	t		44.0	2.5	/experiments/AOT/AOT_stimuli/rescaled_final/1997_rv.mp4	0.0	229.54641604423523	
46	209.21599912643433	movie	1		244	44.0	2.5	/experiments/AOT/AOT_stimuli/rescaled_final/1997_rv.mp4	0.0	229.55479407310486	2.508188009262085
46	210.8077540397644	pulse	1	t		44.0	2.5	/experiments/AOT/AOT_stimuli/rescaled_final/1997_rv.mp4	0.0	231.14654898643494	
46	211.7241871356964	fix_post	2		12	44.0	2.5	/experiments/AOT/AOT_stimuli/rescaled_final/1997_rv.mp4	0.0	232.06298208236694	0.1000068187713623
47	211.82419395446777	fix_pre	0		120	45.0	2.5	/experiments/AOT/AOT_stimuli/rescaled_final/1263_fw.mp4	0.0	232.1629889011383	1.0000200271606445
47	212.40764498710632	pulse	0	t		45.0	2.5	/experiments/AOT/AOT_stimuli/rescaled_final/1263_fw.mp4	0.0	232.74643993377686	
47	212.82421398162842	movie	1		244	45.0	2.5	/experiments/AOT/AOT_stimuli/rescaled_final/1263_fw.mp4	0.0	233.16300892829895	2.5000030994415283
47	214.007719039917	pulse	1	t		45.0	2.5	/experiments/AOT/AOT_stimuli/rescaled_final/1263_fw.mp4	0.0	234.34651398658752	
47	215.32421708106995	fix_post	2		12	45.0	2.5	/experiments/AOT/AOT_stimuli/rescaled_final/1263_fw.mp4	0.0	235.66301202774048	0.10000085830688477
48	215.42421793937683	fix_pre	0		120	46.0	2.5	/experiments/AOT/AOT_stimuli/rescaled_final/2110_rv.mp4	0.0	235.76301288604736	0.9999592304229736
48	215.60767197608948	pulse	0	t		46.0	2.5	/experiments/AOT/AOT_stimuli/rescaled_final/2110_rv.mp4	0.0	235.94646692276	
48	216.4241771697998	movie	1		244	46.0	2.5	/experiments/AOT/AOT_stimuli/rescaled_final/2110_rv.mp4	0.0	236.76297211647034	2.499945878982544
48	217.20758700370789	pulse	1	t		46.0	2.5	/experiments/AOT/AOT_stimuli/rescaled_final/2110_rv.mp4	0.0	237.54638195037842	
48	218.80773210525513	pulse	1	t		46.0	2.5	/experiments/AOT/AOT_stimuli/rescaled_final/2110_rv.mp4	0.0	239.14652705192566	
48	218.92412304878235	fix_post	2		12	46.0	2.5	/experiments/AOT/AOT_stimuli/rescaled_final/2110_rv.mp4	0.0	239.26291799545288	0.10010790824890137
49	219.02423095703125	fix_pre	0		120	47.0	2.5	/experiments/AOT/AOT_stimuli/rescaled_final/0748_fw.mp4	0.0	239.36302590370178	1.0000650882720947
49	220.02429604530334	movie	1		246	47.0	2.5	/experiments/AOT/AOT_stimuli/rescaled_final/0748_fw.mp4	0.0	240.36309099197388	2.499927043914795
49	220.40761494636536	pulse	1	t		47.0	2.5	/experiments/AOT/AOT_stimuli/rescaled_final/0748_fw.mp4	0.0	240.7464098930359	
49	222.00718808174133	pulse	1	t		47.0	2.5	/experiments/AOT/AOT_stimuli/rescaled_final/0748_fw.mp4	0.0	242.34598302841187	
49	222.52422308921814	fix_post	2		12	47.0	2.5	/experiments/AOT/AOT_stimuli/rescaled_final/0748_fw.mp4	0.0	242.86301803588867	0.09952592849731445
50	222.62374901771545	fix_pre	0		119	48.0	2.5	blank	1.0	242.962543964386	0.9918410778045654
50	223.6077950000763	pulse	0	t		48.0	2.5	blank	1.0	243.94658994674683	
50	223.61559009552002	movie	1		301	48.0	2.5	blank	1.0	243.95438504219055	2.5086429119110107
50	225.207661151886	pulse	1	t		48.0	2.5	blank	1.0	245.54645609855652	
50	226.12423300743103	fix_post	2		12	48.0	2.5	blank	1.0	246.46302795410156	0.1000521183013916
51	226.22428512573242	fix_pre	0		120	49.0	2.5	/experiments/AOT/AOT_stimuli/rescaled_final/1003_fw.mp4	0.0	246.56308007240295	1.0000028610229492
51	226.80757308006287	pulse	0	t		49.0	2.5	/experiments/AOT/AOT_stimuli/rescaled_final/1003_fw.mp4	0.0	247.1463680267334	
51	227.22428798675537	movie	1		244	49.0	2.5	/experiments/AOT/AOT_stimuli/rescaled_final/1003_fw.mp4	0.0	247.5630829334259	2.4997761249542236
51	228.40768909454346	pulse	1	t		49.0	2.5	/experiments/AOT/AOT_stimuli/rescaled_final/1003_fw.mp4	0.0	248.746484041214	
51	229.7240641117096	fix_post	2		12	49.0	2.5	/experiments/AOT/AOT_stimuli/rescaled_final/1003_fw.mp4	0.0	250.06285905838013	0.09997701644897461
52	229.82404112815857	fix_pre	0		120	50.0	2.5	/experiments/AOT/AOT_stimuli/rescaled_final/1460_rv.mp4	0.0	250.1628360748291	1.0000150203704834
52	230.00760507583618	pulse	0	t		50.0	2.5	/experiments/AOT/AOT_stimuli/rescaled_final/1460_rv.mp4	0.0	250.3464000225067	
52	230.82405614852905	movie	1		245	50.0	2.5	/experiments/AOT/AOT_stimuli/rescaled_final/1460_rv.mp4	0.0	251.16285109519958	2.49996280670166
52	231.60759615898132	pulse	1	t		50.0	2.5	/experiments/AOT/AOT_stimuli/rescaled_final/1460_rv.mp4	0.0	251.94639110565186	
52	233.2075641155243	pulse	1	t		50.0	2.5	/experiments/AOT/AOT_stimuli/rescaled_final/1460_rv.mp4	0.0	253.54635906219482	
52	233.3240189552307	fix_post	2		12	50.0	2.5	/experiments/AOT/AOT_stimuli/rescaled_final/1460_rv.mp4	0.0	253.66281390190125	0.10000109672546387
53	233.42402005195618	fix_pre	0		120	51.0	2.5	/experiments/AOT/AOT_stimuli/rescaled_final/1344_rv.mp4	0.0	253.7628149986267	0.9996330738067627
53	234.42365312576294	movie	1		248	51.0	2.5	/experiments/AOT/AOT_stimuli/rescaled_final/1344_rv.mp4	0.0	254.76244807243347	2.500382900238037
53	234.80749702453613	pulse	1	t		51.0	2.5	/experiments/AOT/AOT_stimuli/rescaled_final/1344_rv.mp4	0.0	255.14629197120667	
53	236.40752696990967	pulse	1	t		51.0	2.5	/experiments/AOT/AOT_stimuli/rescaled_final/1344_rv.mp4	0.0	256.7463219165802	
53	236.92403602600098	fix_post	2		12	51.0	2.5	/experiments/AOT/AOT_stimuli/rescaled_final/1344_rv.mp4	0.0	257.2628309726715	0.09958004951477051
54	237.02361607551575	fix_pre	0		119	52.0	2.5	/experiments/AOT/AOT_stimuli/rescaled_final/0763_fw.mp4	0.0	257.3624110221863	0.9920790195465088
54	238.00762701034546	pulse	0	t		52.0	2.5	/experiments/AOT/AOT_stimuli/rescaled_final/0763_fw.mp4	0.0	258.346421957016	
54	238.01569509506226	movie	1		246	52.0	2.5	/experiments/AOT/AOT_stimuli/rescaled_final/0763_fw.mp4	0.0	258.3544900417328	2.5084500312805176
54	239.60732102394104	pulse	1	t		52.0	2.5	/experiments/AOT/AOT_stimuli/rescaled_final/0763_fw.mp4	0.0	259.9461159706116	
54	240.52414512634277	fix_post	2		12	52.0	2.5	/experiments/AOT/AOT_stimuli/rescaled_final/0763_fw.mp4	0.0	260.8629400730133	0.09999394416809082
55	240.62413907051086	fix_pre	0		120	53.0	2.5	/experiments/AOT/AOT_stimuli/rescaled_final/0309_fw.mp4	0.0	260.9629340171814	0.9999659061431885
55	241.2075810432434	pulse	0	t		53.0	2.5	/experiments/AOT/AOT_stimuli/rescaled_final/0309_fw.mp4	0.0	261.54637598991394	
55	241.62410497665405	movie	1		244	53.0	2.5	/experiments/AOT/AOT_stimuli/rescaled_final/0309_fw.mp4	0.0	261.9628999233246	2.4995791912078857
55	242.8075520992279	pulse	1	t		53.0	2.5	/experiments/AOT/AOT_stimuli/rescaled_final/0309_fw.mp4	0.0	263.14634704589844	
55	244.12368416786194	fix_post	2		12	53.0	2.5	/experiments/AOT/AOT_stimuli/rescaled_final/0309_fw.mp4	0.0	264.46247911453247	0.10031700134277344
56	244.2240011692047	fix_pre	0		120	54.0	2.5	/experiments/AOT/AOT_stimuli/rescaled_final/0863_fw.mp4	0.0	264.56279611587524	0.9999649524688721
56	244.4075150489807	pulse	0	t		54.0	2.5	/experiments/AOT/AOT_stimuli/rescaled_final/0863_fw.mp4	0.0	264.74630999565125	
56	245.22396612167358	movie	1		243	54.0	2.5	/experiments/AOT/AOT_stimuli/rescaled_final/0863_fw.mp4	0.0	265.5627610683441	2.4995899200439453
56	246.00750398635864	pulse	1	t		54.0	2.5	/experiments/AOT/AOT_stimuli/rescaled_final/0863_fw.mp4	0.0	266.3462989330292	
56	247.60584807395935	pulse	1	t		54.0	2.5	/experiments/AOT/AOT_stimuli/rescaled_final/0863_fw.mp4	0.0	267.9446430206299	
56	247.72355604171753	fix_post	2		12	54.0	2.5	/experiments/AOT/AOT_stimuli/rescaled_final/0863_fw.mp4	0.0	268.06235098838806	0.1004331111907959
57	247.82398915290833	fix_pre	0		120	55.0	2.5	blank	1.0	268.16278409957886	0.9998998641967773
57	248.8238890171051	movie	1		300	55.0	2.5	blank	1.0	269.16268396377563	2.5001420974731445
57	249.20749497413635	pulse	1	t		55.0	2.5	blank	1.0	269.5462899208069	
57	250.80740094184875	pulse	1	t		55.0	2.5	blank	1.0	271.1461958885193	
57	251.32403111457825	fix_post	2		12	55.0	2.5	blank	1.0	271.6628260612488	0.09999990463256836
58	251.42403101921082	fix_pre	0		119	56.0	2.5	/experiments/AOT/AOT_stimuli/rescaled_final/1923_fw.mp4	0.0	271.76282596588135	0.9915480613708496
58	252.4073929786682	pulse	0	t		56.0	2.5	/experiments/AOT/AOT_stimuli/rescaled_final/1923_fw.mp4	0.0	272.74618792533875	
58	252.41557908058167	movie	1		248	56.0	2.5	/experiments/AOT/AOT_stimuli/rescaled_final/1923_fw.mp4	0.0	272.7543740272522	2.5084168910980225
58	254.00692105293274	pulse	1	t		56.0	2.5	/experiments/AOT/AOT_stimuli/rescaled_final/1923_fw.mp4	0.0	274.34571599960327	
58	254.9239959716797	fix_post	2		12	56.0	2.5	/experiments/AOT/AOT_stimuli/rescaled_final/1923_fw.mp4	0.0	275.2627909183502	0.10006308555603027
59	255.02405905723572	fix_pre	0		120	57.0	2.5	/experiments/AOT/AOT_stimuli/rescaled_final/1563_fw.mp4	0.0	275.36285400390625	0.9999120235443115
59	255.60746216773987	pulse	0	t		57.0	2.5	/experiments/AOT/AOT_stimuli/rescaled_final/1563_fw.mp4	0.0	275.9462571144104	
59	256.02397108078003	movie	1		244	57.0	2.5	/experiments/AOT/AOT_stimuli/rescaled_final/1563_fw.mp4	0.0	276.36276602745056	2.4995710849761963
59	257.2075731754303	pulse	1	t		57.0	2.5	/experiments/AOT/AOT_stimuli/rescaled_final/1563_fw.mp4	0.0	277.54636812210083	
59	258.5235421657562	fix_post	2		12	57.0	2.5	/experiments/AOT/AOT_stimuli/rescaled_final/1563_fw.mp4	0.0	278.86233711242676	0.10038995742797852
60	258.6239321231842	fix_pre	0		120	58.0	2.5	/experiments/AOT/AOT_stimuli/rescaled_final/0936_rv.mp4	0.0	278.96272706985474	0.9995980262756348
60	258.8074941635132	pulse	0	t		58.0	2.5	/experiments/AOT/AOT_stimuli/rescaled_final/0936_rv.mp4	0.0	279.1462891101837	
60	259.62353014945984	movie	1		244	58.0	2.5	/experiments/AOT/AOT_stimuli/rescaled_final/0936_rv.mp4	0.0	279.96232509613037	2.5004258155822754
60	260.40743112564087	pulse	1	t		58.0	2.5	/experiments/AOT/AOT_stimuli/rescaled_final/0936_rv.mp4	0.0	280.7462260723114	
60	262.0063271522522	pulse	1	t		58.0	2.5	/experiments/AOT/AOT_stimuli/rescaled_final/0936_rv.mp4	0.0	282.34512209892273	
60	262.1239559650421	fix_post	2		12	58.0	2.5	/experiments/AOT/AOT_stimuli/rescaled_final/0936_rv.mp4	0.0	282.46275091171265	0.0999600887298584
61	262.223916053772	fix_pre	0		120	59.0	2.5	/experiments/AOT/AOT_stimuli/rescaled_final/0212_rv.mp4	0.0	282.5627110004425	1.0000391006469727
61	263.22395515441895	movie	1		244	59.0	2.5	/experiments/AOT/AOT_stimuli/rescaled_final/0212_rv.mp4	0.0	283.5627501010895	2.499898910522461
61	263.60733294487	pulse	1	t		59.0	2.5	/experiments/AOT/AOT_stimuli/rescaled_final/0212_rv.mp4	0.0	283.9461278915405	
61	265.2073919773102	pulse	1	t		59.0	2.5	/experiments/AOT/AOT_stimuli/rescaled_final/0212_rv.mp4	0.0	285.5461869239807	
61	265.7238540649414	fix_post	2		12	59.0	2.5	/experiments/AOT/AOT_stimuli/rescaled_final/0212_rv.mp4	0.0	286.06264901161194	0.1000509262084961
62	265.8239049911499	fix_pre	0		119	60.0	2.5	/experiments/AOT/AOT_stimuli/rescaled_final/0839_fw.mp4	0.0	286.16269993782043	0.9916961193084717
62	266.8073580265045	pulse	0	t		60.0	2.5	/experiments/AOT/AOT_stimuli/rescaled_final/0839_fw.mp4	0.0	287.14615297317505	
62	266.8156011104584	movie	1		244	60.0	2.5	/experiments/AOT/AOT_stimuli/rescaled_final/0839_fw.mp4	0.0	287.1543960571289	2.5082650184631348
62	268.40830516815186	pulse	1	t		60.0	2.5	/experiments/AOT/AOT_stimuli/rescaled_final/0839_fw.mp4	0.0	288.7471001148224	
62	269.3238661289215	fix_post	2		12	60.0	2.5	/experiments/AOT/AOT_stimuli/rescaled_final/0839_fw.mp4	0.0	289.66266107559204	0.10004687309265137
63	269.42391300201416	fix_pre	0		120	61.0	2.5	blank	1.0	289.7627079486847	0.9999439716339111
63	270.00743317604065	pulse	0	t		61.0	2.5	blank	1.0	290.3462281227112	
63	270.42385697364807	movie	1		300	61.0	2.5	blank	1.0	290.7626519203186	2.5000159740448
63	271.6074380874634	pulse	1	t		61.0	2.5	blank	1.0	291.9462330341339	
63	272.92387294769287	fix_post	2		12	61.0	2.5	blank	1.0	293.2626678943634	0.09997916221618652
64	273.02385210990906	fix_pre	0		120	62.0	2.5	/experiments/AOT/AOT_stimuli/rescaled_final/1713_fw.mp4	0.0	293.3626470565796	1.0000059604644775
64	273.20740699768066	pulse	0	t		62.0	2.5	/experiments/AOT/AOT_stimuli/rescaled_final/1713_fw.mp4	0.0	293.5462019443512	
64	274.02385807037354	movie	1		243	62.0	2.5	/experiments/AOT/AOT_stimuli/rescaled_final/1713_fw.mp4	0.0	294.36265301704407	2.5000569820404053
64	274.80741596221924	pulse	1	t		62.0	2.5	/experiments/AOT/AOT_stimuli/rescaled_final/1713_fw.mp4	0.0	295.14621090888977	
64	276.40581703186035	pulse	1	t		62.0	2.5	/experiments/AOT/AOT_stimuli/rescaled_final/1713_fw.mp4	0.0	296.7446119785309	
64	276.52391505241394	fix_post	2		12	62.0	2.5	/experiments/AOT/AOT_stimuli/rescaled_final/1713_fw.mp4	0.0	296.8627099990845	0.10003089904785156
65	276.6239459514618	fix_pre	0		120	63.0	2.5	/experiments/AOT/AOT_stimuli/rescaled_final/1210_fw.mp4	0.0	296.9627408981323	0.9999380111694336
65	277.6238839626312	movie	1		243	63.0	2.5	/experiments/AOT/AOT_stimuli/rescaled_final/1210_fw.mp4	0.0	297.96267890930176	2.500211000442505
65	278.00673604011536	pulse	1	t		63.0	2.5	/experiments/AOT/AOT_stimuli/rescaled_final/1210_fw.mp4	0.0	298.3455309867859	
65	279.6075041294098	pulse	1	t		63.0	2.5	/experiments/AOT/AOT_stimuli/rescaled_final/1210_fw.mp4	0.0	299.9462990760803	
65	280.12409496307373	fix_post	2		12	63.0	2.5	/experiments/AOT/AOT_stimuli/rescaled_final/1210_fw.mp4	0.0	300.46288990974426	0.10003900527954102
66	280.22413396835327	fix_pre	0		119	64.0	2.5	/experiments/AOT/AOT_stimuli/rescaled_final/1047_fw.mp4	0.0	300.5629289150238	0.9914581775665283
66	281.207328081131	pulse	0	t		64.0	2.5	/experiments/AOT/AOT_stimuli/rescaled_final/1047_fw.mp4	0.0	301.5461230278015	
66	281.2155921459198	movie	1		244	64.0	2.5	/experiments/AOT/AOT_stimuli/rescaled_final/1047_fw.mp4	0.0	301.55438709259033	2.508237838745117
66	282.8069181442261	pulse	1	t		64.0	2.5	/experiments/AOT/AOT_stimuli/rescaled_final/1047_fw.mp4	0.0	303.1457130908966	
66	283.7238299846649	fix_post	2		12	64.0	2.5	/experiments/AOT/AOT_stimuli/rescaled_final/1047_fw.mp4	0.0	304.06262493133545	0.09962916374206543
67	283.823459148407	fix_pre	0		120	65.0	2.5	/experiments/AOT/AOT_stimuli/rescaled_final/1349_rv.mp4	0.0	304.1622540950775	1.0003719329833984
67	284.4072790145874	pulse	0	t		65.0	2.5	/experiments/AOT/AOT_stimuli/rescaled_final/1349_rv.mp4	0.0	304.74607396125793	
67	284.8238310813904	movie	1		244	65.0	2.5	/experiments/AOT/AOT_stimuli/rescaled_final/1349_rv.mp4	0.0	305.1626260280609	2.499994993209839
67	286.0072901248932	pulse	1	t		65.0	2.5	/experiments/AOT/AOT_stimuli/rescaled_final/1349_rv.mp4	0.0	306.3460850715637	
67	287.3238260746002	fix_post	2		12	65.0	2.5	/experiments/AOT/AOT_stimuli/rescaled_final/1349_rv.mp4	0.0	307.66262102127075	0.09995889663696289
68	287.4237849712372	fix_pre	0		120	66.0	2.5	/experiments/AOT/AOT_stimuli/rescaled_final/0774_rv.mp4	0.0	307.7625799179077	0.9999611377716064
68	287.6073429584503	pulse	0	t		66.0	2.5	/experiments/AOT/AOT_stimuli/rescaled_final/0774_rv.mp4	0.0	307.94613790512085	
68	288.4237461090088	movie	1		245	66.0	2.5	/experiments/AOT/AOT_stimuli/rescaled_final/0774_rv.mp4	0.0	308.7625410556793	2.500025987625122
68	289.20720195770264	pulse	1	t		66.0	2.5	/experiments/AOT/AOT_stimuli/rescaled_final/0774_rv.mp4	0.0	309.54599690437317	
68	290.80721497535706	pulse	1	t		66.0	2.5	/experiments/AOT/AOT_stimuli/rescaled_final/0774_rv.mp4	0.0	311.1460099220276	
68	290.9237720966339	fix_post	2		12	66.0	2.5	/experiments/AOT/AOT_stimuli/rescaled_final/0774_rv.mp4	0.0	311.26256704330444	0.10001707077026367
69	291.0237891674042	fix_pre	0		120	67.0	2.5	/experiments/AOT/AOT_stimuli/rescaled_final/2000_fw.mp4	0.0	311.3625841140747	0.99997878074646
69	292.02376794815063	movie	1		243	67.0	2.5	/experiments/AOT/AOT_stimuli/rescaled_final/2000_fw.mp4	0.0	312.36256289482117	2.5000340938568115
69	292.4068989753723	pulse	1	t		67.0	2.5	/experiments/AOT/AOT_stimuli/rescaled_final/2000_fw.mp4	0.0	312.74569392204285	
69	294.00727701187134	pulse	1	t		67.0	2.5	/experiments/AOT/AOT_stimuli/rescaled_final/2000_fw.mp4	0.0	314.34607195854187	
69	294.52380204200745	fix_post	2		12	67.0	2.5	/experiments/AOT/AOT_stimuli/rescaled_final/2000_fw.mp4	0.0	314.862596988678	0.09999704360961914
70	294.62379908561707	fix_pre	0		119	68.0	2.5	/experiments/AOT/AOT_stimuli/rescaled_final/0185_rv.mp4	0.0	314.9625940322876	0.991671085357666
70	295.60731315612793	pulse	0	t		68.0	2.5	/experiments/AOT/AOT_stimuli/rescaled_final/0185_rv.mp4	0.0	315.94610810279846	
70	295.61547017097473	movie	1		247	68.0	2.5	/experiments/AOT/AOT_stimuli/rescaled_final/0185_rv.mp4	0.0	315.95426511764526	2.5079188346862793
70	297.2070300579071	pulse	1	t		68.0	2.5	/experiments/AOT/AOT_stimuli/rescaled_final/0185_rv.mp4	0.0	317.54582500457764	
70	298.123389005661	fix_post	2		12	68.0	2.5	/experiments/AOT/AOT_stimuli/rescaled_final/0185_rv.mp4	0.0	318.46218395233154	0.10048198699951172
71	298.2238709926605	fix_pre	0		120	69.0	2.5	blank	1.0	318.56266593933105	0.9998431205749512
71	298.8072760105133	pulse	0	t		69.0	2.5	blank	1.0	319.14607095718384	
71	299.2237141132355	movie	1		300	69.0	2.5	blank	1.0	319.562509059906	2.500041961669922
71	300.40721797943115	pulse	1	t		69.0	2.5	blank	1.0	320.7460129261017	
71	301.7237560749054	fix_post	2		12	69.0	2.5	blank	1.0	322.0625510215759	0.09998798370361328
72	301.823744058609	fix_pre	0		120	70.0	2.5	/experiments/AOT/AOT_stimuli/rescaled_final/1061_fw.mp4	0.0	322.16253900527954	0.9999089241027832
72	302.0072500705719	pulse	0	t		70.0	2.5	/experiments/AOT/AOT_stimuli/rescaled_final/1061_fw.mp4	0.0	322.34604501724243	
72	302.8236529827118	movie	1		244	70.0	2.5	/experiments/AOT/AOT_stimuli/rescaled_final/1061_fw.mp4	0.0	323.1624479293823	2.5000200271606445
72	303.6072270870209	pulse	1	t		70.0	2.5	/experiments/AOT/AOT_stimuli/rescaled_final/1061_fw.mp4	0.0	323.9460220336914	
72	305.20586109161377	pulse	1	t		70.0	2.5	/experiments/AOT/AOT_stimuli/rescaled_final/1061_fw.mp4	0.0	325.5446560382843	
72	305.32367300987244	fix_post	2		12	70.0	2.5	/experiments/AOT/AOT_stimuli/rescaled_final/1061_fw.mp4	0.0	325.66246795654297	0.1001291275024414
73	305.4238021373749	fix_pre	0		120	71.0	2.5	/experiments/AOT/AOT_stimuli/rescaled_final/1058_rv.mp4	0.0	325.7625970840454	0.9999308586120605
73	306.42373299598694	movie	1		244	71.0	2.5	/experiments/AOT/AOT_stimuli/rescaled_final/1058_rv.mp4	0.0	326.76252794265747	2.4995501041412354
73	306.8067891597748	pulse	1	t		71.0	2.5	/experiments/AOT/AOT_stimuli/rescaled_final/1058_rv.mp4	0.0	327.1455841064453	
73	308.40715408325195	pulse	1	t		71.0	2.5	/experiments/AOT/AOT_stimuli/rescaled_final/1058_rv.mp4	0.0	328.7459490299225	
73	308.9232831001282	fix_post	2		12	71.0	2.5	/experiments/AOT/AOT_stimuli/rescaled_final/1058_rv.mp4	0.0	329.2620780467987	0.1004178524017334
74	309.0237009525299	fix_pre	0		119	72.0	2.5	/experiments/AOT/AOT_stimuli/rescaled_final/0081_rv.mp4	0.0	329.36249589920044	0.9916841983795166
74	310.007208108902	pulse	0	t		72.0	2.5	/experiments/AOT/AOT_stimuli/rescaled_final/0081_rv.mp4	0.0	330.3460030555725	
74	310.0153851509094	movie	1		244	72.0	2.5	/experiments/AOT/AOT_stimuli/rescaled_final/0081_rv.mp4	0.0	330.35418009757996	2.5078659057617188
74	311.607134103775	pulse	1	t		72.0	2.5	/experiments/AOT/AOT_stimuli/rescaled_final/0081_rv.mp4	0.0	331.94592905044556	
74	312.52325105667114	fix_post	2		12	72.0	2.5	/experiments/AOT/AOT_stimuli/rescaled_final/0081_rv.mp4	0.0	332.8620460033417	0.10040688514709473
75	312.62365794181824	fix_pre	0		120	73.0	2.5	/experiments/AOT/AOT_stimuli/rescaled_final/0055_rv.mp4	0.0	332.96245288848877	1.000016212463379
75	313.2072160243988	pulse	0	t		73.0	2.5	/experiments/AOT/AOT_stimuli/rescaled_final/0055_rv.mp4	0.0	333.54601097106934	
75	313.6236741542816	movie	1		242	73.0	2.5	/experiments/AOT/AOT_stimuli/rescaled_final/0055_rv.mp4	0.0	333.96246910095215	2.49959397315979
75	314.8072371482849	pulse	1	t		73.0	2.5	/experiments/AOT/AOT_stimuli/rescaled_final/0055_rv.mp4	0.0	335.14603209495544	
75	316.1232681274414	fix_post	2		12	73.0	2.5	/experiments/AOT/AOT_stimuli/rescaled_final/0055_rv.mp4	0.0	336.46206307411194	0.10032892227172852
76	316.22359704971313	fix_pre	0		120	74.0	2.5	/experiments/AOT/AOT_stimuli/rescaled_final/1923_rv.mp4	0.0	336.56239199638367	0.9996941089630127
76	316.4071011543274	pulse	0	t		74.0	2.5	/experiments/AOT/AOT_stimuli/rescaled_final/1923_rv.mp4	0.0	336.7458961009979	
76	317.22329115867615	movie	1		249	74.0	2.5	/experiments/AOT/AOT_stimuli/rescaled_final/1923_rv.mp4	0.0	337.5620861053467	2.500335931777954
76	318.0071620941162	pulse	1	t		74.0	2.5	/experiments/AOT/AOT_stimuli/rescaled_final/1923_rv.mp4	0.0	338.34595704078674	
76	319.60666513442993	pulse	1	t		74.0	2.5	/experiments/AOT/AOT_stimuli/rescaled_final/1923_rv.mp4	0.0	339.94546008110046	
76	319.7236270904541	fix_post	2		12	74.0	2.5	/experiments/AOT/AOT_stimuli/rescaled_final/1923_rv.mp4	0.0	340.06242203712463	0.09998798370361328
77	319.8236150741577	fix_pre	0		120	75.0	2.5	/experiments/AOT/AOT_stimuli/rescaled_final/1332_rv.mp4	0.0	340.16241002082825	0.9999818801879883
77	320.8235969543457	movie	1		244	75.0	2.5	/experiments/AOT/AOT_stimuli/rescaled_final/1332_rv.mp4	0.0	341.16239190101624	2.4996089935302734
77	321.20684599876404	pulse	1	t		75.0	2.5	/experiments/AOT/AOT_stimuli/rescaled_final/1332_rv.mp4	0.0	341.54564094543457	
77	322.807067155838	pulse	1	t		75.0	2.5	/experiments/AOT/AOT_stimuli/rescaled_final/1332_rv.mp4	0.0	343.14586210250854	
77	323.323205947876	fix_post	2		12	75.0	2.5	/experiments/AOT/AOT_stimuli/rescaled_final/1332_rv.mp4	0.0	343.6620008945465	0.10039114952087402
78	323.42359709739685	fix_pre	0		119	76.0	2.5	/experiments/AOT/AOT_stimuli/rescaled_final/1345_rv.mp4	0.0	343.7623920440674	0.9916970729827881
78	324.40708899497986	pulse	0	t		76.0	2.5	/experiments/AOT/AOT_stimuli/rescaled_final/1345_rv.mp4	0.0	344.7458839416504	
78	324.41529417037964	movie	1		244	76.0	2.5	/experiments/AOT/AOT_stimuli/rescaled_final/1345_rv.mp4	0.0	344.75408911705017	2.508288860321045
78	326.00681805610657	pulse	1	t		76.0	2.5	/experiments/AOT/AOT_stimuli/rescaled_final/1345_rv.mp4	0.0	346.3456130027771	
78	326.9235830307007	fix_post	2		12	76.0	2.5	/experiments/AOT/AOT_stimuli/rescaled_final/1345_rv.mp4	0.0	347.2623779773712	0.09998893737792969
79	327.0235719680786	fix_pre	0		120	77.0	2.5	blank	1.0	347.36236691474915	1.0000710487365723
79	327.60706996917725	pulse	0	t		77.0	2.5	blank	1.0	347.9458649158478	
79	328.0236430168152	movie	1		300	77.0	2.5	blank	1.0	348.3624379634857	2.4999639987945557
79	329.20711398124695	pulse	1	t		77.0	2.5	blank	1.0	349.5459089279175	
79	330.52360701560974	fix_post	2		12	77.0	2.5	blank	1.0	350.8624019622803	0.09994101524353027
80	330.62354803085327	fix_pre	0		120	78.0	2.5	/experiments/AOT/AOT_stimuli/rescaled_final/0081_rv.mp4	0.0	350.9623429775238	0.9996299743652344
80	330.80701208114624	pulse	0	t		78.0	2.5	/experiments/AOT/AOT_stimuli/rescaled_final/0081_rv.mp4	0.0	351.1458070278168	
80	331.6231780052185	movie	1		244	78.0	2.5	/experiments/AOT/AOT_stimuli/rescaled_final/0081_rv.mp4	0.0	351.96197295188904	2.5003931522369385
80	332.4070420265198	pulse	1	t		78.0	2.5	/experiments/AOT/AOT_stimuli/rescaled_final/0081_rv.mp4	0.0	352.7458369731903	
80	334.01501512527466	pulse	1	t		78.0	2.5	/experiments/AOT/AOT_stimuli/rescaled_final/0081_rv.mp4	0.0	354.3538100719452	
80	334.12357115745544	fix_post	2		12	78.0	2.5	/experiments/AOT/AOT_stimuli/rescaled_final/0081_rv.mp4	0.0	354.462366104126	0.09974098205566406
81	334.2233121395111	fix_pre	0		120	79.0	2.5	/experiments/AOT/AOT_stimuli/rescaled_final/1259_rv.mp4	0.0	354.56210708618164	1.0000059604644775
81	335.2233180999756	movie	1		244	79.0	2.5	/experiments/AOT/AOT_stimuli/rescaled_final/1259_rv.mp4	0.0	355.5621130466461	2.4998369216918945
81	335.6081190109253	pulse	1	t		79.0	2.5	/experiments/AOT/AOT_stimuli/rescaled_final/1259_rv.mp4	0.0	355.9469139575958	
81	337.2070071697235	pulse	1	t		79.0	2.5	/experiments/AOT/AOT_stimuli/rescaled_final/1259_rv.mp4	0.0	357.54580211639404	
81	337.7231550216675	fix_post	2		12	79.0	2.5	/experiments/AOT/AOT_stimuli/rescaled_final/1259_rv.mp4	0.0	358.061949968338	0.1004331111907959
82	337.8235881328583	fix_pre	0		119	80.0	2.5	/experiments/AOT/AOT_stimuli/rescaled_final/1473_rv.mp4	0.0	358.1623830795288	0.9916698932647705
82	338.8070139884949	pulse	0	t		80.0	2.5	/experiments/AOT/AOT_stimuli/rescaled_final/1473_rv.mp4	0.0	359.1458089351654	
82	338.81525802612305	movie	1		247	80.0	2.5	/experiments/AOT/AOT_stimuli/rescaled_final/1473_rv.mp4	0.0	359.1540529727936	2.5082170963287354
82	340.4065201282501	pulse	1	t		80.0	2.5	/experiments/AOT/AOT_stimuli/rescaled_final/1473_rv.mp4	0.0	360.74531507492065	
82	341.3234751224518	fix_post	2		12	80.0	2.5	/experiments/AOT/AOT_stimuli/rescaled_final/1473_rv.mp4	0.0	361.6622700691223	0.10002899169921875
83	341.423504114151	fix_pre	0		120	81.0	2.5	/experiments/AOT/AOT_stimuli/rescaled_final/0835_rv.mp4	0.0	361.76229906082153	1.0000410079956055
83	342.006973028183	pulse	0	t		81.0	2.5	/experiments/AOT/AOT_stimuli/rescaled_final/0835_rv.mp4	0.0	362.3457679748535	
83	342.4235451221466	movie	1		247	81.0	2.5	/experiments/AOT/AOT_stimuli/rescaled_final/0835_rv.mp4	0.0	362.76234006881714	2.4996888637542725
83	343.6071500778198	pulse	1	t		81.0	2.5	/experiments/AOT/AOT_stimuli/rescaled_final/0835_rv.mp4	0.0	363.94594502449036	
83	344.9232339859009	fix_post	2		12	81.0	2.5	/experiments/AOT/AOT_stimuli/rescaled_final/0835_rv.mp4	0.0	365.2620289325714	0.10030102729797363
84	345.02353501319885	fix_pre	0		120	82.0	2.5	/experiments/AOT/AOT_stimuli/rescaled_final/1344_rv.mp4	0.0	365.3623299598694	1.0000181198120117
84	345.2069411277771	pulse	0	t		82.0	2.5	/experiments/AOT/AOT_stimuli/rescaled_final/1344_rv.mp4	0.0	365.54573607444763	
84	346.02355313301086	movie	1		247	82.0	2.5	/experiments/AOT/AOT_stimuli/rescaled_final/1344_rv.mp4	0.0	366.3623480796814	2.4999239444732666
84	346.8069131374359	pulse	1	t		82.0	2.5	/experiments/AOT/AOT_stimuli/rescaled_final/1344_rv.mp4	0.0	367.14570808410645	
84	348.40650701522827	pulse	1	t		82.0	2.5	/experiments/AOT/AOT_stimuli/rescaled_final/1344_rv.mp4	0.0	368.7453019618988	
84	348.52347707748413	fix_post	2		12	82.0	2.5	/experiments/AOT/AOT_stimuli/rescaled_final/1344_rv.mp4	0.0	368.86227202415466	0.10007095336914062
85	348.62354803085327	fix_pre	0		120	83.0	2.5	blank	1.0	368.9623429775238	0.999535083770752
85	349.623083114624	movie	1		300	83.0	2.5	blank	1.0	369.96187806129456	2.500321865081787
85	350.00693798065186	pulse	1	t		83.0	2.5	blank	1.0	370.3457329273224	
85	351.6069300174713	pulse	1	t		83.0	2.5	blank	1.0	371.94572496414185	
85	352.1234049797058	fix_post	2		12	83.0	2.5	blank	1.0	372.46219992637634	0.10019302368164062
87	352.22359800338745	stim	0		1716					372.562392950058	14.299867153167725
87	353.20686411857605	pulse	0	t						373.5456590652466	
87	354.8068599700928	pulse	0	t						375.1456549167633	
87	356.40686798095703	pulse	0	t						376.74566292762756	
87	358.00685811042786	pulse	0	t						378.3456530570984	
87	359.6069519519806	pulse	0	t						379.9457468986511	
87	361.20688915252686	pulse	0	t						381.5456840991974	
87	362.8069281578064	pulse	0	t						383.14572310447693	
87	364.4068911075592	pulse	0	t						384.74568605422974	
87	366.0069990158081	pulse	0	t						386.34579396247864	
