trial_nr	onset	event_type	phase	response	nr_frames	movie_index	movie_duration	movie_file	blank	onset_abs	duration
0	0.20825695991516113	stim	0		45					23.795578956604004	0.37493109703063965
0	0.5751371383666992	response	0	space						24.162459135055542	
1	0.5831880569458008	stim	0		4180					24.170510053634644	34.84824800491333
1	35.42177414894104	pulse	0	t						59.00909614562988	
1	35.43143606185913	stim	1		1716					59.018758058547974	14.30079197883606
1	37.01378798484802	pulse	1	t						60.601109981536865	
1	38.61408710479736	pulse	1	t						62.201409101486206	
1	40.21421003341675	pulse	1	t						63.80153203010559	
1	41.81457996368408	pulse	1	t						65.40190196037292	
1	43.41476106643677	pulse	1	t						67.00208306312561	
1	45.01498603820801	pulse	1	t						68.60230803489685	
1	46.61515498161316	pulse	1	t						70.202476978302	
1	48.21544003486633	pulse	1	t						71.80276203155518	
2	49.73222804069519	fix_pre	0		11	0.0	2.5	/experiments/knapen_AOT/AOT_stimuli/rescaled_final/1085_rv.mp4	0.0	73.31955003738403	0.09157705307006836
2	49.81572413444519	pulse	0	t		0.0	2.5	/experiments/knapen_AOT/AOT_stimuli/rescaled_final/1085_rv.mp4	0.0	73.40304613113403	
2	49.82380509376526	movie	1		244	0.0	2.5	/experiments/knapen_AOT/AOT_stimuli/rescaled_final/1085_rv.mp4	0.0	73.4111270904541	2.5087578296661377
2	51.416664123535156	pulse	1	t		0.0	2.5	/experiments/knapen_AOT/AOT_stimuli/rescaled_final/1085_rv.mp4	0.0	75.003986120224	
2	52.3325629234314	fix_post	2		12	0.0	2.5	/experiments/knapen_AOT/AOT_stimuli/rescaled_final/1085_rv.mp4	0.0	75.91988492012024	0.10001921653747559
3	52.43258213996887	fix_pre	0		120	1.0	2.5	/experiments/knapen_AOT/AOT_stimuli/rescaled_final/0505_rv.mp4	0.0	76.01990413665771	1.000227928161621
3	53.01618814468384	pulse	0	t		1.0	2.5	/experiments/knapen_AOT/AOT_stimuli/rescaled_final/0505_rv.mp4	0.0	76.60351014137268	
3	53.43281006813049	movie	1		244	1.0	2.5	/experiments/knapen_AOT/AOT_stimuli/rescaled_final/0505_rv.mp4	0.0	77.02013206481934	2.5002808570861816
3	54.616552114486694	pulse	1	t		1.0	2.5	/experiments/knapen_AOT/AOT_stimuli/rescaled_final/0505_rv.mp4	0.0	78.20387411117554	
3	55.933090925216675	fix_post	2		12	1.0	2.5	/experiments/knapen_AOT/AOT_stimuli/rescaled_final/0505_rv.mp4	0.0	79.52041292190552	0.10004115104675293
4	56.03313207626343	fix_pre	0		120	2.0	2.5	/experiments/knapen_AOT/AOT_stimuli/rescaled_final/0706_rv.mp4	0.0	79.62045407295227	1.000169038772583
4	56.21664214134216	pulse	0	t		2.0	2.5	/experiments/knapen_AOT/AOT_stimuli/rescaled_final/0706_rv.mp4	0.0	79.803964138031	
4	57.03330111503601	movie	1		245	2.0	2.5	/experiments/knapen_AOT/AOT_stimuli/rescaled_final/0706_rv.mp4	0.0	80.62062311172485	2.5003178119659424
4	57.81699013710022	pulse	1	t		2.0	2.5	/experiments/knapen_AOT/AOT_stimuli/rescaled_final/0706_rv.mp4	0.0	81.40431213378906	
4	59.41724109649658	pulse	1	t		2.0	2.5	/experiments/knapen_AOT/AOT_stimuli/rescaled_final/0706_rv.mp4	0.0	83.00456309318542	
4	59.53361892700195	fix_post	2		12	2.0	2.5	/experiments/knapen_AOT/AOT_stimuli/rescaled_final/0706_rv.mp4	0.0	83.1209409236908	0.10001111030578613
5	59.63363003730774	fix_pre	0		120	3.0	2.5	/experiments/knapen_AOT/AOT_stimuli/rescaled_final/1998_fw.mp4	0.0	83.22095203399658	1.000157117843628
5	60.63378715515137	movie	1		242	3.0	2.5	/experiments/knapen_AOT/AOT_stimuli/rescaled_final/1998_fw.mp4	0.0	84.22110915184021	2.4920408725738525
5	61.0181200504303	pulse	1	t		3.0	2.5	/experiments/knapen_AOT/AOT_stimuli/rescaled_final/1998_fw.mp4	0.0	84.60544204711914	
5	62.61765098571777	pulse	1	t		3.0	2.5	/experiments/knapen_AOT/AOT_stimuli/rescaled_final/1998_fw.mp4	0.0	86.20497298240662	
5	63.12582802772522	fix_post	2		12	3.0	2.5	/experiments/knapen_AOT/AOT_stimuli/rescaled_final/1998_fw.mp4	0.0	86.71315002441406	0.10001206398010254
6	63.22584009170532	fix_pre	0		120	4.0	2.5	/experiments/knapen_AOT/AOT_stimuli/rescaled_final/1873_fw.mp4	0.0	86.81316208839417	1.0001978874206543
6	64.21793794631958	pulse	0	t		4.0	2.5	/experiments/knapen_AOT/AOT_stimuli/rescaled_final/1873_fw.mp4	0.0	87.80525994300842	
6	64.22603797912598	movie	1		245	4.0	2.5	/experiments/knapen_AOT/AOT_stimuli/rescaled_final/1873_fw.mp4	0.0	87.81335997581482	2.5086669921875
6	65.81908011436462	pulse	1	t		4.0	2.5	/experiments/knapen_AOT/AOT_stimuli/rescaled_final/1873_fw.mp4	0.0	89.40640211105347	
6	66.73470497131348	fix_post	2		12	4.0	2.5	/experiments/knapen_AOT/AOT_stimuli/rescaled_final/1873_fw.mp4	0.0	90.32202696800232	0.1000211238861084
7	66.83472609519958	fix_pre	0		120	5.0	2.5	/experiments/knapen_AOT/AOT_stimuli/rescaled_final/1541_fw.mp4	0.0	90.42204809188843	1.000148057937622
7	67.41842603683472	pulse	0	t		5.0	2.5	/experiments/knapen_AOT/AOT_stimuli/rescaled_final/1541_fw.mp4	0.0	91.00574803352356	
7	67.8348741531372	movie	1		245	5.0	2.5	/experiments/knapen_AOT/AOT_stimuli/rescaled_final/1541_fw.mp4	0.0	91.42219614982605	2.5004138946533203
7	69.01864004135132	pulse	1	t		5.0	2.5	/experiments/knapen_AOT/AOT_stimuli/rescaled_final/1541_fw.mp4	0.0	92.60596203804016	
7	70.33528804779053	fix_post	2		12	5.0	2.5	/experiments/knapen_AOT/AOT_stimuli/rescaled_final/1541_fw.mp4	0.0	93.92261004447937	0.09994101524353027
8	70.43522906303406	fix_pre	0		120	6.0	2.5	blank	1.0	94.0225510597229	1.0002219676971436
8	70.61877393722534	pulse	0	t		6.0	2.5	blank	1.0	94.20609593391418	
8	71.4354510307312	movie	1		300	6.0	2.5	blank	1.0	95.02277302742004	2.5003459453582764
8	72.2115170955658	pulse	1	t		6.0	2.5	blank	1.0	95.79883909225464	
8	73.81175398826599	pulse	1	t		6.0	2.5	blank	1.0	97.39907598495483	
8	73.93579697608948	fix_post	2		12	6.0	2.5	blank	1.0	97.52311897277832	0.09998416900634766
9	74.03578114509583	fix_pre	0		120	7.0	2.5	/experiments/knapen_AOT/AOT_stimuli/rescaled_final/1359_fw.mp4	0.0	97.62310314178467	1.000175952911377
9	75.0359570980072	movie	1		242	7.0	2.5	/experiments/knapen_AOT/AOT_stimuli/rescaled_final/1359_fw.mp4	0.0	98.62327909469604	2.492079019546509
9	75.42089796066284	pulse	1	t		7.0	2.5	/experiments/knapen_AOT/AOT_stimuli/rescaled_final/1359_fw.mp4	0.0	99.00821995735168	
9	77.01262402534485	pulse	1	t		7.0	2.5	/experiments/knapen_AOT/AOT_stimuli/rescaled_final/1359_fw.mp4	0.0	100.59994602203369	
9	77.52803611755371	fix_post	2		12	7.0	2.5	/experiments/knapen_AOT/AOT_stimuli/rescaled_final/1359_fw.mp4	0.0	101.11535811424255	0.10000300407409668
10	77.62803912162781	fix_pre	0		119	8.0	2.5	/experiments/knapen_AOT/AOT_stimuli/rescaled_final/0663_rv.mp4	0.0	101.21536111831665	0.9917788505554199
10	78.61162495613098	pulse	0	t		8.0	2.5	/experiments/knapen_AOT/AOT_stimuli/rescaled_final/0663_rv.mp4	0.0	102.19894695281982	
10	78.61981797218323	movie	1		244	8.0	2.5	/experiments/knapen_AOT/AOT_stimuli/rescaled_final/0663_rv.mp4	0.0	102.20713996887207	2.508692979812622
10	80.2135579586029	pulse	1	t		8.0	2.5	/experiments/knapen_AOT/AOT_stimuli/rescaled_final/0663_rv.mp4	0.0	103.80087995529175	
10	81.12851095199585	fix_post	2		12	8.0	2.5	/experiments/knapen_AOT/AOT_stimuli/rescaled_final/0663_rv.mp4	0.0	104.71583294868469	0.10003209114074707
11	81.2285430431366	fix_pre	0		120	9.0	2.5	/experiments/knapen_AOT/AOT_stimuli/rescaled_final/2119_fw.mp4	0.0	104.81586503982544	1.0001590251922607
11	81.8121440410614	pulse	0	t		9.0	2.5	/experiments/knapen_AOT/AOT_stimuli/rescaled_final/2119_fw.mp4	0.0	105.39946603775024	
11	82.22870206832886	movie	1		246	9.0	2.5	/experiments/knapen_AOT/AOT_stimuli/rescaled_final/2119_fw.mp4	0.0	105.8160240650177	2.5003628730773926
11	83.41250896453857	pulse	1	t		9.0	2.5	/experiments/knapen_AOT/AOT_stimuli/rescaled_final/2119_fw.mp4	0.0	106.99983096122742	
11	84.72906494140625	fix_post	2		12	9.0	2.5	/experiments/knapen_AOT/AOT_stimuli/rescaled_final/2119_fw.mp4	0.0	108.31638693809509	0.10000205039978027
12	84.82906699180603	fix_pre	0		120	10.0	2.5	/experiments/knapen_AOT/AOT_stimuli/rescaled_final/0730_fw.mp4	0.0	108.41638898849487	1.0002341270446777
12	85.0125961303711	pulse	0	t		10.0	2.5	/experiments/knapen_AOT/AOT_stimuli/rescaled_final/0730_fw.mp4	0.0	108.59991812705994	
12	85.82930111885071	movie	1		243	10.0	2.5	/experiments/knapen_AOT/AOT_stimuli/rescaled_final/0730_fw.mp4	0.0	109.41662311553955	2.5003108978271484
12	86.61287093162537	pulse	1	t		10.0	2.5	/experiments/knapen_AOT/AOT_stimuli/rescaled_final/0730_fw.mp4	0.0	110.20019292831421	
12	88.21297311782837	pulse	1	t		10.0	2.5	/experiments/knapen_AOT/AOT_stimuli/rescaled_final/0730_fw.mp4	0.0	111.80029511451721	
12	88.32961201667786	fix_post	2		12	10.0	2.5	/experiments/knapen_AOT/AOT_stimuli/rescaled_final/0730_fw.mp4	0.0	111.9169340133667	0.09999608993530273
13	88.42960810661316	fix_pre	0		119	11.0	2.5	/experiments/knapen_AOT/AOT_stimuli/rescaled_final/0119_fw.mp4	0.0	112.016930103302	0.9918508529663086
13	89.42145895957947	movie	1		243	11.0	2.5	/experiments/knapen_AOT/AOT_stimuli/rescaled_final/0119_fw.mp4	0.0	113.00878095626831	2.5003390312194824
13	89.81341600418091	pulse	1	t		11.0	2.5	/experiments/knapen_AOT/AOT_stimuli/rescaled_final/0119_fw.mp4	0.0	113.40073800086975	
13	91.41357398033142	pulse	1	t		11.0	2.5	/experiments/knapen_AOT/AOT_stimuli/rescaled_final/0119_fw.mp4	0.0	115.00089597702026	
13	91.92179799079895	fix_post	2		12	11.0	2.5	/experiments/knapen_AOT/AOT_stimuli/rescaled_final/0119_fw.mp4	0.0	115.5091199874878	0.10002303123474121
14	92.02182102203369	fix_pre	0		120	12.0	2.5	blank	1.0	115.60914301872253	1.0001630783081055
14	93.01379203796387	pulse	0	t		12.0	2.5	blank	1.0	116.60111403465271	
14	93.0219841003418	movie	1		301	12.0	2.5	blank	1.0	116.60930609703064	2.5087080001831055
14	94.61409592628479	pulse	1	t		12.0	2.5	blank	1.0	118.20141792297363	
14	95.5306921005249	fix_post	2		12	12.0	2.5	blank	1.0	119.11801409721375	0.10002398490905762
15	95.63071608543396	fix_pre	0		120	13.0	2.5	/experiments/knapen_AOT/AOT_stimuli/rescaled_final/0920_fw.mp4	0.0	119.2180380821228	1.0001330375671387
15	96.21436309814453	pulse	0	t		13.0	2.5	/experiments/knapen_AOT/AOT_stimuli/rescaled_final/0920_fw.mp4	0.0	119.80168509483337	
15	96.6308491230011	movie	1		243	13.0	2.5	/experiments/knapen_AOT/AOT_stimuli/rescaled_final/0920_fw.mp4	0.0	120.21817111968994	2.5004467964172363
15	97.81467294692993	pulse	1	t		13.0	2.5	/experiments/knapen_AOT/AOT_stimuli/rescaled_final/0920_fw.mp4	0.0	121.40199494361877	
15	99.13129591941833	fix_post	2		12	13.0	2.5	/experiments/knapen_AOT/AOT_stimuli/rescaled_final/0920_fw.mp4	0.0	122.71861791610718	0.09995508193969727
16	99.23125100135803	fix_pre	0		120	14.0	2.5	/experiments/knapen_AOT/AOT_stimuli/rescaled_final/1742_fw.mp4	0.0	122.81857299804688	1.0001420974731445
16	99.41474294662476	pulse	0	t		14.0	2.5	/experiments/knapen_AOT/AOT_stimuli/rescaled_final/1742_fw.mp4	0.0	123.0020649433136	
16	100.23139309883118	movie	1		243	14.0	2.5	/experiments/knapen_AOT/AOT_stimuli/rescaled_final/1742_fw.mp4	0.0	123.81871509552002	2.5003349781036377
16	101.0150671005249	pulse	1	t		14.0	2.5	/experiments/knapen_AOT/AOT_stimuli/rescaled_final/1742_fw.mp4	0.0	124.60238909721375	
16	102.61517000198364	pulse	1	t		14.0	2.5	/experiments/knapen_AOT/AOT_stimuli/rescaled_final/1742_fw.mp4	0.0	126.20249199867249	
16	102.73172807693481	fix_post	2		12	14.0	2.5	/experiments/knapen_AOT/AOT_stimuli/rescaled_final/1742_fw.mp4	0.0	126.31905007362366	0.10001802444458008
17	102.8317461013794	fix_pre	0		119	15.0	2.5	/experiments/knapen_AOT/AOT_stimuli/rescaled_final/2087_rv.mp4	0.0	126.41906809806824	0.9918708801269531
17	103.82361698150635	movie	1		243	15.0	2.5	/experiments/knapen_AOT/AOT_stimuli/rescaled_final/2087_rv.mp4	0.0	127.41093897819519	2.5003199577331543
17	104.21565103530884	pulse	1	t		15.0	2.5	/experiments/knapen_AOT/AOT_stimuli/rescaled_final/2087_rv.mp4	0.0	127.80297303199768	
17	105.81569194793701	pulse	1	t		15.0	2.5	/experiments/knapen_AOT/AOT_stimuli/rescaled_final/2087_rv.mp4	0.0	129.40301394462585	
17	106.3239369392395	fix_post	2		12	15.0	2.5	/experiments/knapen_AOT/AOT_stimuli/rescaled_final/2087_rv.mp4	0.0	129.91125893592834	0.10003018379211426
18	106.42396712303162	fix_pre	0		120	16.0	2.5	/experiments/knapen_AOT/AOT_stimuli/rescaled_final/2148_fw.mp4	0.0	130.01128911972046	1.0001428127288818
18	107.41603493690491	pulse	0	t		16.0	2.5	/experiments/knapen_AOT/AOT_stimuli/rescaled_final/2148_fw.mp4	0.0	131.00335693359375	
18	107.4241099357605	movie	1		244	16.0	2.5	/experiments/knapen_AOT/AOT_stimuli/rescaled_final/2148_fw.mp4	0.0	131.01143193244934	2.508730173110962
18	109.02024507522583	pulse	1	t		16.0	2.5	/experiments/knapen_AOT/AOT_stimuli/rescaled_final/2148_fw.mp4	0.0	132.60756707191467	
18	109.93284010887146	fix_post	2		12	16.0	2.5	/experiments/knapen_AOT/AOT_stimuli/rescaled_final/2148_fw.mp4	0.0	133.5201621055603	0.10001301765441895
19	110.03285312652588	fix_pre	0		120	17.0	2.5	/experiments/knapen_AOT/AOT_stimuli/rescaled_final/0706_fw.mp4	0.0	133.62017512321472	1.000147819519043
19	110.61655497550964	pulse	0	t		17.0	2.5	/experiments/knapen_AOT/AOT_stimuli/rescaled_final/0706_fw.mp4	0.0	134.2038769721985	
19	111.03300094604492	movie	1		245	17.0	2.5	/experiments/knapen_AOT/AOT_stimuli/rescaled_final/0706_fw.mp4	0.0	134.62032294273376	2.500370979309082
19	112.21684312820435	pulse	1	t		17.0	2.5	/experiments/knapen_AOT/AOT_stimuli/rescaled_final/0706_fw.mp4	0.0	135.8041651248932	
19	113.533371925354	fix_post	2		12	17.0	2.5	/experiments/knapen_AOT/AOT_stimuli/rescaled_final/0706_fw.mp4	0.0	137.12069392204285	0.10002613067626953
20	113.63339805603027	fix_pre	0		120	18.0	2.5	/experiments/knapen_AOT/AOT_stimuli/rescaled_final/0701_rv.mp4	0.0	137.22072005271912	1.000154972076416
20	113.8169150352478	pulse	0	t		18.0	2.5	/experiments/knapen_AOT/AOT_stimuli/rescaled_final/0701_rv.mp4	0.0	137.40423703193665	
20	114.63355302810669	movie	1		243	18.0	2.5	/experiments/knapen_AOT/AOT_stimuli/rescaled_final/0701_rv.mp4	0.0	138.22087502479553	2.5003230571746826
20	115.41721510887146	pulse	1	t		18.0	2.5	/experiments/knapen_AOT/AOT_stimuli/rescaled_final/0701_rv.mp4	0.0	139.0045371055603	
20	117.01716494560242	pulse	1	t		18.0	2.5	/experiments/knapen_AOT/AOT_stimuli/rescaled_final/0701_rv.mp4	0.0	140.60448694229126	
20	117.13387608528137	fix_post	2		12	18.0	2.5	/experiments/knapen_AOT/AOT_stimuli/rescaled_final/0701_rv.mp4	0.0	140.72119808197021	0.10001993179321289
21	117.23389601707458	fix_pre	0		120	19.0	2.5	/experiments/knapen_AOT/AOT_stimuli/rescaled_final/0901_rv.mp4	0.0	140.82121801376343	1.0001630783081055
21	118.23405909538269	movie	1		247	19.0	2.5	/experiments/knapen_AOT/AOT_stimuli/rescaled_final/0901_rv.mp4	0.0	141.82138109207153	2.4920480251312256
21	118.61820006370544	pulse	1	t		19.0	2.5	/experiments/knapen_AOT/AOT_stimuli/rescaled_final/0901_rv.mp4	0.0	142.2055220603943	
21	120.21790409088135	pulse	1	t		19.0	2.5	/experiments/knapen_AOT/AOT_stimuli/rescaled_final/0901_rv.mp4	0.0	143.8052260875702	
21	120.72610712051392	fix_post	2		12	19.0	2.5	/experiments/knapen_AOT/AOT_stimuli/rescaled_final/0901_rv.mp4	0.0	144.31342911720276	0.10005688667297363
22	120.82616400718689	fix_pre	0		120	20.0	2.5	blank	1.0	144.41348600387573	1.0001170635223389
22	121.81813502311707	pulse	0	t		20.0	2.5	blank	1.0	145.4054570198059	
22	121.82628107070923	movie	1		301	20.0	2.5	blank	1.0	145.41360306739807	2.508681058883667
22	123.41841793060303	pulse	1	t		20.0	2.5	blank	1.0	147.00573992729187	
22	124.3349621295929	fix_post	2		12	20.0	2.5	blank	1.0	147.92228412628174	0.10001802444458008
23	124.43498015403748	fix_pre	0		120	21.0	2.5	/experiments/knapen_AOT/AOT_stimuli/rescaled_final/1746_rv.mp4	0.0	148.02230215072632	1.0001609325408936
23	125.01111912727356	pulse	0	t		21.0	2.5	/experiments/knapen_AOT/AOT_stimuli/rescaled_final/1746_rv.mp4	0.0	148.5984411239624	
23	125.43514108657837	movie	1		243	21.0	2.5	/experiments/knapen_AOT/AOT_stimuli/rescaled_final/1746_rv.mp4	0.0	149.0224630832672	2.5003600120544434
23	126.61120295524597	pulse	1	t		21.0	2.5	/experiments/knapen_AOT/AOT_stimuli/rescaled_final/1746_rv.mp4	0.0	150.19852495193481	
23	127.93550109863281	fix_post	2		12	21.0	2.5	/experiments/knapen_AOT/AOT_stimuli/rescaled_final/1746_rv.mp4	0.0	151.52282309532166	0.10001301765441895
24	128.03551411628723	fix_pre	0		120	22.0	2.5	/experiments/knapen_AOT/AOT_stimuli/rescaled_final/0790_fw.mp4	0.0	151.62283611297607	1.00016188621521
24	128.21148896217346	pulse	0	t		22.0	2.5	/experiments/knapen_AOT/AOT_stimuli/rescaled_final/0790_fw.mp4	0.0	151.7988109588623	
24	129.03567600250244	movie	1		244	22.0	2.5	/experiments/knapen_AOT/AOT_stimuli/rescaled_final/0790_fw.mp4	0.0	152.62299799919128	2.5003459453582764
24	129.8118770122528	pulse	1	t		22.0	2.5	/experiments/knapen_AOT/AOT_stimuli/rescaled_final/0790_fw.mp4	0.0	153.39919900894165	
24	131.41139698028564	pulse	1	t		22.0	2.5	/experiments/knapen_AOT/AOT_stimuli/rescaled_final/0790_fw.mp4	0.0	154.9987189769745	
24	131.53602194786072	fix_post	2		12	22.0	2.5	/experiments/knapen_AOT/AOT_stimuli/rescaled_final/0790_fw.mp4	0.0	155.12334394454956	0.10002517700195312
25	131.63604712486267	fix_pre	0		120	23.0	2.5	/experiments/knapen_AOT/AOT_stimuli/rescaled_final/0702_rv.mp4	0.0	155.2233691215515	1.000199794769287
25	132.63624691963196	movie	1		242	23.0	2.5	/experiments/knapen_AOT/AOT_stimuli/rescaled_final/0702_rv.mp4	0.0	156.2235689163208	2.4919850826263428
25	133.01146793365479	pulse	1	t		23.0	2.5	/experiments/knapen_AOT/AOT_stimuli/rescaled_final/0702_rv.mp4	0.0	156.59878993034363	
25	134.61173295974731	pulse	1	t		23.0	2.5	/experiments/knapen_AOT/AOT_stimuli/rescaled_final/0702_rv.mp4	0.0	158.19905495643616	
25	135.1282320022583	fix_post	2		12	23.0	2.5	/experiments/knapen_AOT/AOT_stimuli/rescaled_final/0702_rv.mp4	0.0	158.71555399894714	0.10008907318115234
26	135.22832107543945	fix_pre	0		119	24.0	2.5	/experiments/knapen_AOT/AOT_stimuli/rescaled_final/1491_rv.mp4	0.0	158.8156430721283	0.9917349815368652
26	136.21201515197754	pulse	0	t		24.0	2.5	/experiments/knapen_AOT/AOT_stimuli/rescaled_final/1491_rv.mp4	0.0	159.79933714866638	
26	136.22005605697632	movie	1		245	24.0	2.5	/experiments/knapen_AOT/AOT_stimuli/rescaled_final/1491_rv.mp4	0.0	159.80737805366516	2.508744955062866
26	137.81734108924866	pulse	1	t		24.0	2.5	/experiments/knapen_AOT/AOT_stimuli/rescaled_final/1491_rv.mp4	0.0	161.4046630859375	
26	138.72880101203918	fix_post	2		12	24.0	2.5	/experiments/knapen_AOT/AOT_stimuli/rescaled_final/1491_rv.mp4	0.0	162.31612300872803	0.10002613067626953
27	138.82882714271545	fix_pre	0		120	25.0	2.5	/experiments/knapen_AOT/AOT_stimuli/rescaled_final/0029_rv.mp4	0.0	162.4161491394043	1.000173807144165
27	139.41242003440857	pulse	0	t		25.0	2.5	/experiments/knapen_AOT/AOT_stimuli/rescaled_final/0029_rv.mp4	0.0	162.9997420310974	
27	139.82900094985962	movie	1		244	25.0	2.5	/experiments/knapen_AOT/AOT_stimuli/rescaled_final/0029_rv.mp4	0.0	163.41632294654846	2.500326156616211
27	141.0127239227295	pulse	1	t		25.0	2.5	/experiments/knapen_AOT/AOT_stimuli/rescaled_final/0029_rv.mp4	0.0	164.60004591941833	
27	142.32932710647583	fix_post	2		12	25.0	2.5	/experiments/knapen_AOT/AOT_stimuli/rescaled_final/0029_rv.mp4	0.0	165.91664910316467	0.1000528335571289
28	142.42937994003296	fix_pre	0		120	26.0	2.5	/experiments/knapen_AOT/AOT_stimuli/rescaled_final/1843_fw.mp4	0.0	166.0167019367218	1.000110149383545
28	142.61291003227234	pulse	0	t		26.0	2.5	/experiments/knapen_AOT/AOT_stimuli/rescaled_final/1843_fw.mp4	0.0	166.20023202896118	
28	143.4294900894165	movie	1		239	26.0	2.5	/experiments/knapen_AOT/AOT_stimuli/rescaled_final/1843_fw.mp4	0.0	167.01681208610535	2.5003910064697266
28	144.2131850719452	pulse	1	t		26.0	2.5	/experiments/knapen_AOT/AOT_stimuli/rescaled_final/1843_fw.mp4	0.0	167.80050706863403	
28	145.81326293945312	pulse	1	t		26.0	2.5	/experiments/knapen_AOT/AOT_stimuli/rescaled_final/1843_fw.mp4	0.0	169.40058493614197	
28	145.92988109588623	fix_post	2		12	26.0	2.5	/experiments/knapen_AOT/AOT_stimuli/rescaled_final/1843_fw.mp4	0.0	169.51720309257507	0.09996891021728516
29	146.02985000610352	fix_pre	0		120	27.0	2.5	/experiments/knapen_AOT/AOT_stimuli/rescaled_final/1771_rv.mp4	0.0	169.61717200279236	1.0002319812774658
29	147.03008198738098	movie	1		243	27.0	2.5	/experiments/knapen_AOT/AOT_stimuli/rescaled_final/1771_rv.mp4	0.0	170.61740398406982	2.4919800758361816
29	147.4150459766388	pulse	1	t		27.0	2.5	/experiments/knapen_AOT/AOT_stimuli/rescaled_final/1771_rv.mp4	0.0	171.00236797332764	
29	149.01389503479004	pulse	1	t		27.0	2.5	/experiments/knapen_AOT/AOT_stimuli/rescaled_final/1771_rv.mp4	0.0	172.60121703147888	
29	149.52206206321716	fix_post	2		12	27.0	2.5	/experiments/knapen_AOT/AOT_stimuli/rescaled_final/1771_rv.mp4	0.0	173.109384059906	0.10002398490905762
30	149.62208604812622	fix_pre	0		120	28.0	2.5	blank	1.0	173.20940804481506	1.0001180171966553
30	150.6142020225525	pulse	0	t		28.0	2.5	blank	1.0	174.20152401924133	
30	150.62220406532288	movie	1		301	28.0	2.5	blank	1.0	174.20952606201172	2.508768081665039
30	152.21436500549316	pulse	1	t		28.0	2.5	blank	1.0	175.801687002182	
30	153.13097214698792	fix_post	2		12	28.0	2.5	blank	1.0	176.71829414367676	0.09998583793640137
31	153.23095798492432	fix_pre	0		120	29.0	2.5	/experiments/knapen_AOT/AOT_stimuli/rescaled_final/0142_fw.mp4	0.0	176.81827998161316	1.000128984451294
31	153.81456899642944	pulse	0	t		29.0	2.5	/experiments/knapen_AOT/AOT_stimuli/rescaled_final/0142_fw.mp4	0.0	177.4018909931183	
31	154.2310869693756	movie	1		245	29.0	2.5	/experiments/knapen_AOT/AOT_stimuli/rescaled_final/0142_fw.mp4	0.0	177.81840896606445	2.5003700256347656
31	155.41483402252197	pulse	1	t		29.0	2.5	/experiments/knapen_AOT/AOT_stimuli/rescaled_final/0142_fw.mp4	0.0	179.00215601921082	
31	156.73145699501038	fix_post	2		12	29.0	2.5	/experiments/knapen_AOT/AOT_stimuli/rescaled_final/0142_fw.mp4	0.0	180.31877899169922	0.1000370979309082
32	156.83149409294128	fix_pre	0		120	30.0	2.5	/experiments/knapen_AOT/AOT_stimuli/rescaled_final/0702_fw.mp4	0.0	180.41881608963013	1.0001468658447266
32	157.0151560306549	pulse	0	t		30.0	2.5	/experiments/knapen_AOT/AOT_stimuli/rescaled_final/0702_fw.mp4	0.0	180.60247802734375	
32	157.831640958786	movie	1		243	30.0	2.5	/experiments/knapen_AOT/AOT_stimuli/rescaled_final/0702_fw.mp4	0.0	181.41896295547485	2.500359058380127
32	158.61531114578247	pulse	1	t		30.0	2.5	/experiments/knapen_AOT/AOT_stimuli/rescaled_final/0702_fw.mp4	0.0	182.2026331424713	
32	160.21558904647827	pulse	1	t		30.0	2.5	/experiments/knapen_AOT/AOT_stimuli/rescaled_final/0702_fw.mp4	0.0	183.80291104316711	
32	160.33200001716614	fix_post	2		12	30.0	2.5	/experiments/knapen_AOT/AOT_stimuli/rescaled_final/0702_fw.mp4	0.0	183.91932201385498	0.10000205039978027
33	160.43200206756592	fix_pre	0		120	31.0	2.5	/experiments/knapen_AOT/AOT_stimuli/rescaled_final/0531_rv.mp4	0.0	184.01932406425476	1.000262975692749
33	161.43226504325867	movie	1		243	31.0	2.5	/experiments/knapen_AOT/AOT_stimuli/rescaled_final/0531_rv.mp4	0.0	185.0195870399475	2.491931915283203
33	161.81649899482727	pulse	1	t		31.0	2.5	/experiments/knapen_AOT/AOT_stimuli/rescaled_final/0531_rv.mp4	0.0	185.4038209915161	
33	163.41611695289612	pulse	1	t		31.0	2.5	/experiments/knapen_AOT/AOT_stimuli/rescaled_final/0531_rv.mp4	0.0	187.00343894958496	
33	163.92419695854187	fix_post	2		12	31.0	2.5	/experiments/knapen_AOT/AOT_stimuli/rescaled_final/0531_rv.mp4	0.0	187.5115189552307	0.10005903244018555
34	164.02425599098206	fix_pre	0		120	32.0	2.5	/experiments/knapen_AOT/AOT_stimuli/rescaled_final/0255_fw.mp4	0.0	187.6115779876709	1.0001230239868164
34	165.01632404327393	pulse	0	t		32.0	2.5	/experiments/knapen_AOT/AOT_stimuli/rescaled_final/0255_fw.mp4	0.0	188.60364603996277	
34	165.02437901496887	movie	1		244	32.0	2.5	/experiments/knapen_AOT/AOT_stimuli/rescaled_final/0255_fw.mp4	0.0	188.61170101165771	2.508692979812622
34	166.6171009540558	pulse	1	t		32.0	2.5	/experiments/knapen_AOT/AOT_stimuli/rescaled_final/0255_fw.mp4	0.0	190.20442295074463	
34	167.5330719947815	fix_post	2		12	32.0	2.5	/experiments/knapen_AOT/AOT_stimuli/rescaled_final/0255_fw.mp4	0.0	191.12039399147034	0.10004711151123047
35	167.63311910629272	fix_pre	0		120	33.0	2.5	blank	1.0	191.22044110298157	1.0001418590545654
35	168.21665811538696	pulse	0	t		33.0	2.5	blank	1.0	191.8039801120758	
35	168.6332609653473	movie	1		300	33.0	2.5	blank	1.0	192.22058296203613	2.500375986099243
35	169.81706595420837	pulse	1	t		33.0	2.5	blank	1.0	193.40438795089722	
35	171.13363695144653	fix_post	2		12	33.0	2.5	blank	1.0	194.72095894813538	0.1000661849975586
36	171.2337031364441	fix_pre	0		120	34.0	2.5	/experiments/knapen_AOT/AOT_stimuli/rescaled_final/1681_rv.mp4	0.0	194.82102513313293	1.0000829696655273
36	171.41730499267578	pulse	0	t		34.0	2.5	/experiments/knapen_AOT/AOT_stimuli/rescaled_final/1681_rv.mp4	0.0	195.00462698936462	
36	172.23378610610962	movie	1		243	34.0	2.5	/experiments/knapen_AOT/AOT_stimuli/rescaled_final/1681_rv.mp4	0.0	195.82110810279846	2.50042986869812
36	173.0174081325531	pulse	1	t		34.0	2.5	/experiments/knapen_AOT/AOT_stimuli/rescaled_final/1681_rv.mp4	0.0	196.60473012924194	
36	174.6177680492401	pulse	1	t		34.0	2.5	/experiments/knapen_AOT/AOT_stimuli/rescaled_final/1681_rv.mp4	0.0	198.20509004592896	
36	174.73421597480774	fix_post	2		12	34.0	2.5	/experiments/knapen_AOT/AOT_stimuli/rescaled_final/1681_rv.mp4	0.0	198.32153797149658	0.10000896453857422
37	174.8342249393463	fix_pre	0		120	35.0	2.5	/experiments/knapen_AOT/AOT_stimuli/rescaled_final/0818_fw.mp4	0.0	198.42154693603516	1.0001661777496338
37	175.83439111709595	movie	1		242	35.0	2.5	/experiments/knapen_AOT/AOT_stimuli/rescaled_final/0818_fw.mp4	0.0	199.4217131137848	2.4919638633728027
37	176.21917009353638	pulse	1	t		35.0	2.5	/experiments/knapen_AOT/AOT_stimuli/rescaled_final/0818_fw.mp4	0.0	199.80649209022522	
37	177.81084394454956	pulse	1	t		35.0	2.5	/experiments/knapen_AOT/AOT_stimuli/rescaled_final/0818_fw.mp4	0.0	201.3981659412384	
37	178.32635498046875	fix_post	2		12	35.0	2.5	/experiments/knapen_AOT/AOT_stimuli/rescaled_final/0818_fw.mp4	0.0	201.9136769771576	0.10004806518554688
38	178.4264030456543	fix_pre	0		120	36.0	2.5	/experiments/knapen_AOT/AOT_stimuli/rescaled_final/0013_fw.mp4	0.0	202.01372504234314	1.0001039505004883
38	179.41093111038208	pulse	0	t		36.0	2.5	/experiments/knapen_AOT/AOT_stimuli/rescaled_final/0013_fw.mp4	0.0	202.99825310707092	
38	179.42650699615479	movie	1		245	36.0	2.5	/experiments/knapen_AOT/AOT_stimuli/rescaled_final/0013_fw.mp4	0.0	203.01382899284363	2.508723020553589
38	181.0191810131073	pulse	1	t		36.0	2.5	/experiments/knapen_AOT/AOT_stimuli/rescaled_final/0013_fw.mp4	0.0	204.60650300979614	
38	181.93523001670837	fix_post	2		12	36.0	2.5	/experiments/knapen_AOT/AOT_stimuli/rescaled_final/0013_fw.mp4	0.0	205.52255201339722	0.10009598731994629
39	182.03532600402832	fix_pre	0		120	37.0	2.5	/experiments/knapen_AOT/AOT_stimuli/rescaled_final/0787_fw.mp4	0.0	205.62264800071716	1.0000669956207275
39	182.61136198043823	pulse	0	t		37.0	2.5	/experiments/knapen_AOT/AOT_stimuli/rescaled_final/0787_fw.mp4	0.0	206.19868397712708	
39	183.03539299964905	movie	1		245	37.0	2.5	/experiments/knapen_AOT/AOT_stimuli/rescaled_final/0787_fw.mp4	0.0	206.6227149963379	2.500375986099243
39	184.21202611923218	pulse	1	t		37.0	2.5	/experiments/knapen_AOT/AOT_stimuli/rescaled_final/0787_fw.mp4	0.0	207.79934811592102	
39	185.5357689857483	fix_post	2		12	37.0	2.5	/experiments/knapen_AOT/AOT_stimuli/rescaled_final/0787_fw.mp4	0.0	209.12309098243713	0.0999901294708252
40	185.63575911521912	fix_pre	0		120	38.0	2.5	/experiments/knapen_AOT/AOT_stimuli/rescaled_final/0399_fw.mp4	0.0	209.22308111190796	1.0001800060272217
40	185.81094098091125	pulse	0	t		38.0	2.5	/experiments/knapen_AOT/AOT_stimuli/rescaled_final/0399_fw.mp4	0.0	209.3982629776001	
40	186.63593912124634	movie	1		245	38.0	2.5	/experiments/knapen_AOT/AOT_stimuli/rescaled_final/0399_fw.mp4	0.0	210.22326111793518	2.5004019737243652
40	187.41121411323547	pulse	1	t		38.0	2.5	/experiments/knapen_AOT/AOT_stimuli/rescaled_final/0399_fw.mp4	0.0	210.99853610992432	
40	189.01150512695312	pulse	1	t		38.0	2.5	/experiments/knapen_AOT/AOT_stimuli/rescaled_final/0399_fw.mp4	0.0	212.59882712364197	
40	189.1363410949707	fix_post	2		12	38.0	2.5	/experiments/knapen_AOT/AOT_stimuli/rescaled_final/0399_fw.mp4	0.0	212.72366309165955	0.0999898910522461
41	189.23633098602295	fix_pre	0		119	39.0	2.5	/experiments/knapen_AOT/AOT_stimuli/rescaled_final/1706_fw.mp4	0.0	212.8236529827118	0.9918010234832764
41	190.22813200950623	movie	1		244	39.0	2.5	/experiments/knapen_AOT/AOT_stimuli/rescaled_final/1706_fw.mp4	0.0	213.81545400619507	2.5004079341888428
41	190.61233711242676	pulse	1	t		39.0	2.5	/experiments/knapen_AOT/AOT_stimuli/rescaled_final/1706_fw.mp4	0.0	214.1996591091156	
41	192.2119710445404	pulse	1	t		39.0	2.5	/experiments/knapen_AOT/AOT_stimuli/rescaled_final/1706_fw.mp4	0.0	215.79929304122925	
41	192.72853994369507	fix_post	2		12	39.0	2.5	/experiments/knapen_AOT/AOT_stimuli/rescaled_final/1706_fw.mp4	0.0	216.3158619403839	0.09998297691345215
42	192.82852292060852	fix_pre	0		119	40.0	2.5	blank	1.0	216.41584491729736	0.9918420314788818
42	193.81220698356628	pulse	0	t		40.0	2.5	blank	1.0	217.39952898025513	
42	193.8203649520874	movie	1		301	40.0	2.5	blank	1.0	217.40768694877625	2.508686065673828
42	195.41240906715393	pulse	1	t		40.0	2.5	blank	1.0	218.99973106384277	
42	196.32905101776123	fix_post	2		12	40.0	2.5	blank	1.0	219.91637301445007	0.09999299049377441
43	196.429044008255	fix_pre	0		120	41.0	2.5	/experiments/knapen_AOT/AOT_stimuli/rescaled_final/0977_rv.mp4	0.0	220.01636600494385	1.000148057937622
43	197.01260614395142	pulse	0	t		41.0	2.5	/experiments/knapen_AOT/AOT_stimuli/rescaled_final/0977_rv.mp4	0.0	220.59992814064026	
43	197.42919206619263	movie	1		245	41.0	2.5	/experiments/knapen_AOT/AOT_stimuli/rescaled_final/0977_rv.mp4	0.0	221.01651406288147	2.5003809928894043
43	198.613037109375	pulse	1	t		41.0	2.5	/experiments/knapen_AOT/AOT_stimuli/rescaled_final/0977_rv.mp4	0.0	222.20035910606384	
43	199.92957305908203	fix_post	2		12	41.0	2.5	/experiments/knapen_AOT/AOT_stimuli/rescaled_final/0977_rv.mp4	0.0	223.51689505577087	0.10004997253417969
44	200.0296230316162	fix_pre	0		120	42.0	2.5	/experiments/knapen_AOT/AOT_stimuli/rescaled_final/1439_fw.mp4	0.0	223.61694502830505	1.0001220703125
44	200.21332001686096	pulse	0	t		42.0	2.5	/experiments/knapen_AOT/AOT_stimuli/rescaled_final/1439_fw.mp4	0.0	223.8006420135498	
44	201.0297451019287	movie	1		243	42.0	2.5	/experiments/knapen_AOT/AOT_stimuli/rescaled_final/1439_fw.mp4	0.0	224.61706709861755	2.5003838539123535
44	201.81346011161804	pulse	1	t		42.0	2.5	/experiments/knapen_AOT/AOT_stimuli/rescaled_final/1439_fw.mp4	0.0	225.40078210830688	
44	203.41375303268433	pulse	1	t		42.0	2.5	/experiments/knapen_AOT/AOT_stimuli/rescaled_final/1439_fw.mp4	0.0	227.00107502937317	
44	203.53012895584106	fix_post	2		12	42.0	2.5	/experiments/knapen_AOT/AOT_stimuli/rescaled_final/1439_fw.mp4	0.0	227.1174509525299	0.09998011589050293
45	203.63010907173157	fix_pre	0		120	43.0	2.5	/experiments/knapen_AOT/AOT_stimuli/rescaled_final/0857_rv.mp4	0.0	227.2174310684204	1.000274896621704
45	204.63038396835327	movie	1		240	43.0	2.5	/experiments/knapen_AOT/AOT_stimuli/rescaled_final/0857_rv.mp4	0.0	228.21770596504211	2.491955041885376
45	205.01432609558105	pulse	1	t		43.0	2.5	/experiments/knapen_AOT/AOT_stimuli/rescaled_final/0857_rv.mp4	0.0	228.6016480922699	
45	206.61421704292297	pulse	1	t		43.0	2.5	/experiments/knapen_AOT/AOT_stimuli/rescaled_final/0857_rv.mp4	0.0	230.20153903961182	
45	207.12233901023865	fix_post	2		12	43.0	2.5	/experiments/knapen_AOT/AOT_stimuli/rescaled_final/0857_rv.mp4	0.0	230.7096610069275	0.0999910831451416
46	207.2223300933838	fix_pre	0		120	44.0	2.5	/experiments/knapen_AOT/AOT_stimuli/rescaled_final/0730_rv.mp4	0.0	230.80965209007263	1.000154972076416
46	208.2144660949707	pulse	0	t		44.0	2.5	/experiments/knapen_AOT/AOT_stimuli/rescaled_final/0730_rv.mp4	0.0	231.80178809165955	
46	208.2224850654602	movie	1		245	44.0	2.5	/experiments/knapen_AOT/AOT_stimuli/rescaled_final/0730_rv.mp4	0.0	231.80980706214905	2.508704900741577
46	209.8152129650116	pulse	1	t		44.0	2.5	/experiments/knapen_AOT/AOT_stimuli/rescaled_final/0730_rv.mp4	0.0	233.40253496170044	
46	210.73118996620178	fix_post	2		12	44.0	2.5	/experiments/knapen_AOT/AOT_stimuli/rescaled_final/0730_rv.mp4	0.0	234.31851196289062	0.10004615783691406
47	210.8312361240387	fix_pre	0		120	45.0	2.5	/experiments/knapen_AOT/AOT_stimuli/rescaled_final/0840_fw.mp4	0.0	234.41855812072754	1.0001230239868164
47	211.41481614112854	pulse	0	t		45.0	2.5	/experiments/knapen_AOT/AOT_stimuli/rescaled_final/0840_fw.mp4	0.0	235.00213813781738	
47	211.8313591480255	movie	1		244	45.0	2.5	/experiments/knapen_AOT/AOT_stimuli/rescaled_final/0840_fw.mp4	0.0	235.41868114471436	2.5003697872161865
47	213.015202999115	pulse	1	t		45.0	2.5	/experiments/knapen_AOT/AOT_stimuli/rescaled_final/0840_fw.mp4	0.0	236.60252499580383	
47	214.3317289352417	fix_post	2		12	45.0	2.5	/experiments/knapen_AOT/AOT_stimuli/rescaled_final/0840_fw.mp4	0.0	237.91905093193054	0.10006403923034668
48	214.43179297447205	fix_pre	0		120	46.0	2.5	/experiments/knapen_AOT/AOT_stimuli/rescaled_final/0175_rv.mp4	0.0	238.0191149711609	1.0000860691070557
48	214.6154170036316	pulse	0	t		46.0	2.5	/experiments/knapen_AOT/AOT_stimuli/rescaled_final/0175_rv.mp4	0.0	238.20273900032043	
48	215.4318790435791	movie	1		245	46.0	2.5	/experiments/knapen_AOT/AOT_stimuli/rescaled_final/0175_rv.mp4	0.0	239.01920104026794	2.500375986099243
48	216.2156219482422	pulse	1	t		46.0	2.5	/experiments/knapen_AOT/AOT_stimuli/rescaled_final/0175_rv.mp4	0.0	239.80294394493103	
48	217.81585502624512	pulse	1	t		46.0	2.5	/experiments/knapen_AOT/AOT_stimuli/rescaled_final/0175_rv.mp4	0.0	241.40317702293396	
48	217.93225502967834	fix_post	2		12	46.0	2.5	/experiments/knapen_AOT/AOT_stimuli/rescaled_final/0175_rv.mp4	0.0	241.5195770263672	0.10007095336914062
49	218.03232598304749	fix_pre	0		120	47.0	2.5	/experiments/knapen_AOT/AOT_stimuli/rescaled_final/1267_fw.mp4	0.0	241.61964797973633	1.0000979900360107
49	219.0324239730835	movie	1		244	47.0	2.5	/experiments/knapen_AOT/AOT_stimuli/rescaled_final/1267_fw.mp4	0.0	242.61974596977234	2.492043972015381
49	219.4171450138092	pulse	1	t		47.0	2.5	/experiments/knapen_AOT/AOT_stimuli/rescaled_final/1267_fw.mp4	0.0	243.00446701049805	
49	221.01622700691223	pulse	1	t		47.0	2.5	/experiments/knapen_AOT/AOT_stimuli/rescaled_final/1267_fw.mp4	0.0	244.60354900360107	
49	221.52446794509888	fix_post	2		12	47.0	2.5	/experiments/knapen_AOT/AOT_stimuli/rescaled_final/1267_fw.mp4	0.0	245.11178994178772	0.10000300407409668
50	221.62447094917297	fix_pre	0		120	48.0	2.5	/experiments/knapen_AOT/AOT_stimuli/rescaled_final/1479_fw.mp4	0.0	245.21179294586182	1.0001471042633057
50	222.61662912368774	pulse	0	t		48.0	2.5	/experiments/knapen_AOT/AOT_stimuli/rescaled_final/1479_fw.mp4	0.0	246.2039511203766	
50	222.62461805343628	movie	1		244	48.0	2.5	/experiments/knapen_AOT/AOT_stimuli/rescaled_final/1479_fw.mp4	0.0	246.21194005012512	2.508707046508789
50	224.2172429561615	pulse	1	t		48.0	2.5	/experiments/knapen_AOT/AOT_stimuli/rescaled_final/1479_fw.mp4	0.0	247.80456495285034	
50	225.13332509994507	fix_post	2		12	48.0	2.5	/experiments/knapen_AOT/AOT_stimuli/rescaled_final/1479_fw.mp4	0.0	248.7206470966339	0.10002493858337402
51	225.23335003852844	fix_pre	0		120	49.0	2.5	blank	1.0	248.82067203521729	1.0001649856567383
51	225.81701493263245	pulse	0	t		49.0	2.5	blank	1.0	249.4043369293213	
51	226.23351502418518	movie	1		300	49.0	2.5	blank	1.0	249.82083702087402	2.500443935394287
51	227.4171860218048	pulse	1	t		49.0	2.5	blank	1.0	251.00450801849365	
51	228.73395895957947	fix_post	2		12	49.0	2.5	blank	1.0	252.3212809562683	0.09991812705993652
52	228.8338770866394	fix_pre	0		120	50.0	2.5	/experiments/knapen_AOT/AOT_stimuli/rescaled_final/1026_rv.mp4	0.0	252.42119908332825	1.000195026397705
52	229.0174629688263	pulse	0	t		50.0	2.5	/experiments/knapen_AOT/AOT_stimuli/rescaled_final/1026_rv.mp4	0.0	252.60478496551514	
52	229.8340721130371	movie	1		244	50.0	2.5	/experiments/knapen_AOT/AOT_stimuli/rescaled_final/1026_rv.mp4	0.0	253.42139410972595	2.500356912612915
52	230.61767292022705	pulse	1	t		50.0	2.5	/experiments/knapen_AOT/AOT_stimuli/rescaled_final/1026_rv.mp4	0.0	254.2049949169159	
52	232.21984004974365	pulse	1	t		50.0	2.5	/experiments/knapen_AOT/AOT_stimuli/rescaled_final/1026_rv.mp4	0.0	255.8071620464325	
52	232.33442902565002	fix_post	2		12	50.0	2.5	/experiments/knapen_AOT/AOT_stimuli/rescaled_final/1026_rv.mp4	0.0	255.92175102233887	0.10000896453857422
53	232.4344379901886	fix_pre	0		120	51.0	2.5	/experiments/knapen_AOT/AOT_stimuli/rescaled_final/1804_fw.mp4	0.0	256.02175998687744	1.0001511573791504
53	233.43458914756775	movie	1		245	51.0	2.5	/experiments/knapen_AOT/AOT_stimuli/rescaled_final/1804_fw.mp4	0.0	257.0219111442566	2.4920008182525635
53	233.8187551498413	pulse	1	t		51.0	2.5	/experiments/knapen_AOT/AOT_stimuli/rescaled_final/1804_fw.mp4	0.0	257.40607714653015	
53	235.41847109794617	pulse	1	t		51.0	2.5	/experiments/knapen_AOT/AOT_stimuli/rescaled_final/1804_fw.mp4	0.0	259.005793094635	
53	235.9265899658203	fix_post	2		13	51.0	2.5	/experiments/knapen_AOT/AOT_stimuli/rescaled_final/1804_fw.mp4	0.0	259.51391196250916	0.10841202735900879
54	236.03500199317932	fix_pre	0		119	52.0	2.5	/experiments/knapen_AOT/AOT_stimuli/rescaled_final/0517_fw.mp4	0.0	259.62232398986816	0.9917781352996826
54	237.01858592033386	pulse	0	t		52.0	2.5	/experiments/knapen_AOT/AOT_stimuli/rescaled_final/0517_fw.mp4	0.0	260.6059079170227	
54	237.026780128479	movie	1		245	52.0	2.5	/experiments/knapen_AOT/AOT_stimuli/rescaled_final/0517_fw.mp4	0.0	260.61410212516785	2.5087080001831055
54	238.61946892738342	pulse	1	t		52.0	2.5	/experiments/knapen_AOT/AOT_stimuli/rescaled_final/0517_fw.mp4	0.0	262.20679092407227	
54	239.5354881286621	fix_post	2		12	52.0	2.5	/experiments/knapen_AOT/AOT_stimuli/rescaled_final/0517_fw.mp4	0.0	263.12281012535095	0.09999990463256836
55	239.63548803329468	fix_pre	0		120	53.0	2.5	/experiments/knapen_AOT/AOT_stimuli/rescaled_final/0156_fw.mp4	0.0	263.2228100299835	1.000157117843628
55	240.21167302131653	pulse	0	t		53.0	2.5	/experiments/knapen_AOT/AOT_stimuli/rescaled_final/0156_fw.mp4	0.0	263.79899501800537	
55	240.6356451511383	movie	1		244	53.0	2.5	/experiments/knapen_AOT/AOT_stimuli/rescaled_final/0156_fw.mp4	0.0	264.22296714782715	2.5004069805145264
55	241.81171202659607	pulse	1	t		53.0	2.5	/experiments/knapen_AOT/AOT_stimuli/rescaled_final/0156_fw.mp4	0.0	265.3990340232849	
55	243.13605213165283	fix_post	2		12	53.0	2.5	/experiments/knapen_AOT/AOT_stimuli/rescaled_final/0156_fw.mp4	0.0	266.7233741283417	0.10007190704345703
56	243.2361240386963	fix_pre	0		120	54.0	2.5	blank	1.0	266.82344603538513	1.0001029968261719
56	243.41207814216614	pulse	0	t		54.0	2.5	blank	1.0	266.999400138855	
56	244.23622703552246	movie	1		300	54.0	2.5	blank	1.0	267.8235490322113	2.500356912612915
56	245.01167011260986	pulse	1	t		54.0	2.5	blank	1.0	268.5989921092987	
56	246.61169409751892	pulse	1	t		54.0	2.5	blank	1.0	270.19901609420776	
56	246.73658394813538	fix_post	2		12	54.0	2.5	blank	1.0	270.3239059448242	0.10001707077026367
57	246.83660101890564	fix_pre	0		120	55.0	2.5	/experiments/knapen_AOT/AOT_stimuli/rescaled_final/2098_rv.mp4	0.0	270.4239230155945	1.0001440048217773
57	247.83674502372742	movie	1		244	55.0	2.5	/experiments/knapen_AOT/AOT_stimuli/rescaled_final/2098_rv.mp4	0.0	271.42406702041626	2.4920830726623535
57	248.2119381427765	pulse	1	t		55.0	2.5	/experiments/knapen_AOT/AOT_stimuli/rescaled_final/2098_rv.mp4	0.0	271.79926013946533	
57	249.8123459815979	pulse	1	t		55.0	2.5	/experiments/knapen_AOT/AOT_stimuli/rescaled_final/2098_rv.mp4	0.0	273.39966797828674	
57	250.32882809638977	fix_post	2		12	55.0	2.5	/experiments/knapen_AOT/AOT_stimuli/rescaled_final/2098_rv.mp4	0.0	273.9161500930786	0.09993600845336914
58	250.42876410484314	fix_pre	0		119	56.0	2.5	/experiments/knapen_AOT/AOT_stimuli/rescaled_final/0502_fw.mp4	0.0	274.016086101532	0.9918098449707031
58	251.41244196891785	pulse	0	t		56.0	2.5	/experiments/knapen_AOT/AOT_stimuli/rescaled_final/0502_fw.mp4	0.0	274.9997639656067	
58	251.42057394981384	movie	1		244	56.0	2.5	/experiments/knapen_AOT/AOT_stimuli/rescaled_final/0502_fw.mp4	0.0	275.0078959465027	2.5087192058563232
58	253.01326203346252	pulse	1	t		56.0	2.5	/experiments/knapen_AOT/AOT_stimuli/rescaled_final/0502_fw.mp4	0.0	276.60058403015137	
58	253.92929315567017	fix_post	2		12	56.0	2.5	/experiments/knapen_AOT/AOT_stimuli/rescaled_final/0502_fw.mp4	0.0	277.516615152359	0.10000777244567871
59	254.02930092811584	fix_pre	0		120	57.0	2.5	/experiments/knapen_AOT/AOT_stimuli/rescaled_final/1399_fw.mp4	0.0	277.6166229248047	1.0001630783081055
59	254.61300992965698	pulse	0	t		57.0	2.5	/experiments/knapen_AOT/AOT_stimuli/rescaled_final/1399_fw.mp4	0.0	278.2003319263458	
59	255.02946400642395	movie	1		244	57.0	2.5	/experiments/knapen_AOT/AOT_stimuli/rescaled_final/1399_fw.mp4	0.0	278.6167860031128	2.5003550052642822
59	256.2132320404053	pulse	1	t		57.0	2.5	/experiments/knapen_AOT/AOT_stimuli/rescaled_final/1399_fw.mp4	0.0	279.8005540370941	
59	257.52981901168823	fix_post	2		12	57.0	2.5	/experiments/knapen_AOT/AOT_stimuli/rescaled_final/1399_fw.mp4	0.0	281.1171410083771	0.10002493858337402
60	257.6298439502716	fix_pre	0		120	58.0	2.5	/experiments/knapen_AOT/AOT_stimuli/rescaled_final/1102_fw.mp4	0.0	281.21716594696045	1.000162124633789
60	257.81350111961365	pulse	0	t		58.0	2.5	/experiments/knapen_AOT/AOT_stimuli/rescaled_final/1102_fw.mp4	0.0	281.4008231163025	
60	258.6300060749054	movie	1		243	58.0	2.5	/experiments/knapen_AOT/AOT_stimuli/rescaled_final/1102_fw.mp4	0.0	282.21732807159424	2.5003819465637207
60	259.4135961532593	pulse	1	t		58.0	2.5	/experiments/knapen_AOT/AOT_stimuli/rescaled_final/1102_fw.mp4	0.0	283.0009181499481	
60	261.0139491558075	pulse	1	t		58.0	2.5	/experiments/knapen_AOT/AOT_stimuli/rescaled_final/1102_fw.mp4	0.0	284.60127115249634	
60	261.1303880214691	fix_post	2		12	58.0	2.5	/experiments/knapen_AOT/AOT_stimuli/rescaled_final/1102_fw.mp4	0.0	284.71771001815796	0.10001111030578613
61	261.2303991317749	fix_pre	0		120	59.0	2.5	/experiments/knapen_AOT/AOT_stimuli/rescaled_final/0320_fw.mp4	0.0	284.81772112846375	1.000121831893921
61	262.2305209636688	movie	1		244	59.0	2.5	/experiments/knapen_AOT/AOT_stimuli/rescaled_final/0320_fw.mp4	0.0	285.81784296035767	2.492030143737793
61	262.6187081336975	pulse	1	t		59.0	2.5	/experiments/knapen_AOT/AOT_stimuli/rescaled_final/0320_fw.mp4	0.0	286.20603013038635	
61	264.2143750190735	pulse	1	t		59.0	2.5	/experiments/knapen_AOT/AOT_stimuli/rescaled_final/0320_fw.mp4	0.0	287.80169701576233	
61	264.7225511074066	fix_post	2		9	59.0	2.5	/experiments/knapen_AOT/AOT_stimuli/rescaled_final/0320_fw.mp4	0.0	288.30987310409546	0.1000359058380127
62	264.82258701324463	fix_pre	0		120	60.0	2.5	/experiments/knapen_AOT/AOT_stimuli/rescaled_final/0997_fw.mp4	0.0	288.4099090099335	1.0001940727233887
62	265.81458497047424	pulse	0	t		60.0	2.5	/experiments/knapen_AOT/AOT_stimuli/rescaled_final/0997_fw.mp4	0.0	289.4019069671631	
62	265.822781085968	movie	1		245	60.0	2.5	/experiments/knapen_AOT/AOT_stimuli/rescaled_final/0997_fw.mp4	0.0	289.41010308265686	2.508633852005005
62	267.4161710739136	pulse	1	t		60.0	2.5	/experiments/knapen_AOT/AOT_stimuli/rescaled_final/0997_fw.mp4	0.0	291.0034930706024	
62	268.331414937973	fix_post	2		12	60.0	2.5	/experiments/knapen_AOT/AOT_stimuli/rescaled_final/0997_fw.mp4	0.0	291.91873693466187	0.10004305839538574
63	268.4314579963684	fix_pre	0		120	61.0	2.5	/experiments/knapen_AOT/AOT_stimuli/rescaled_final/0549_rv.mp4	0.0	292.01877999305725	1.000157117843628
63	269.0151619911194	pulse	0	t		61.0	2.5	/experiments/knapen_AOT/AOT_stimuli/rescaled_final/0549_rv.mp4	0.0	292.6024839878082	
63	269.43161511421204	movie	1		243	61.0	2.5	/experiments/knapen_AOT/AOT_stimuli/rescaled_final/0549_rv.mp4	0.0	293.0189371109009	2.500396966934204
63	270.61555099487305	pulse	1	t		61.0	2.5	/experiments/knapen_AOT/AOT_stimuli/rescaled_final/0549_rv.mp4	0.0	294.2028729915619	
63	271.93201208114624	fix_post	2		12	61.0	2.5	/experiments/knapen_AOT/AOT_stimuli/rescaled_final/0549_rv.mp4	0.0	295.5193340778351	0.09999394416809082
64	272.03200602531433	fix_pre	0		120	62.0	2.5	blank	1.0	295.6193280220032	1.0001399517059326
64	272.21568512916565	pulse	0	t		62.0	2.5	blank	1.0	295.8030071258545	
64	273.03214597702026	movie	1		300	62.0	2.5	blank	1.0	296.6194679737091	2.500394105911255
64	273.8157570362091	pulse	1	t		62.0	2.5	blank	1.0	297.40307903289795	
64	275.41613698005676	pulse	1	t		62.0	2.5	blank	1.0	299.0034589767456	
64	275.5325400829315	fix_post	2		12	62.0	2.5	blank	1.0	299.11986207962036	0.09996700286865234
65	275.63250708580017	fix_pre	0		120	63.0	2.5	/experiments/knapen_AOT/AOT_stimuli/rescaled_final/0863_fw.mp4	0.0	299.219829082489	1.0001869201660156
65	276.6326940059662	movie	1		242	63.0	2.5	/experiments/knapen_AOT/AOT_stimuli/rescaled_final/0863_fw.mp4	0.0	300.22001600265503	2.4920289516448975
65	277.0166609287262	pulse	1	t		63.0	2.5	/experiments/knapen_AOT/AOT_stimuli/rescaled_final/0863_fw.mp4	0.0	300.60398292541504	
65	278.61657309532166	pulse	1	t		63.0	2.5	/experiments/knapen_AOT/AOT_stimuli/rescaled_final/0863_fw.mp4	0.0	302.2038950920105	
65	279.1247229576111	fix_post	2		12	63.0	2.5	/experiments/knapen_AOT/AOT_stimuli/rescaled_final/0863_fw.mp4	0.0	302.7120449542999	0.10001897811889648
66	279.22474193573	fix_pre	0		120	64.0	2.5	/experiments/knapen_AOT/AOT_stimuli/rescaled_final/2096_fw.mp4	0.0	302.8120639324188	1.0001530647277832
66	280.21670508384705	pulse	0	t		64.0	2.5	/experiments/knapen_AOT/AOT_stimuli/rescaled_final/2096_fw.mp4	0.0	303.8040270805359	
66	280.22489500045776	movie	1		246	64.0	2.5	/experiments/knapen_AOT/AOT_stimuli/rescaled_final/2096_fw.mp4	0.0	303.8122169971466	2.50871205329895
66	281.81739711761475	pulse	1	t		64.0	2.5	/experiments/knapen_AOT/AOT_stimuli/rescaled_final/2096_fw.mp4	0.0	305.4047191143036	
66	282.7336070537567	fix_post	2		12	64.0	2.5	/experiments/knapen_AOT/AOT_stimuli/rescaled_final/2096_fw.mp4	0.0	306.32092905044556	0.09999704360961914
67	282.83360409736633	fix_pre	0		120	65.0	2.5	/experiments/knapen_AOT/AOT_stimuli/rescaled_final/1315_rv.mp4	0.0	306.4209260940552	1.0001749992370605
67	283.41732692718506	pulse	0	t		65.0	2.5	/experiments/knapen_AOT/AOT_stimuli/rescaled_final/1315_rv.mp4	0.0	307.0046489238739	
67	283.8337790966034	movie	1		245	65.0	2.5	/experiments/knapen_AOT/AOT_stimuli/rescaled_final/1315_rv.mp4	0.0	307.42110109329224	2.5003440380096436
67	285.017676115036	pulse	1	t		65.0	2.5	/experiments/knapen_AOT/AOT_stimuli/rescaled_final/1315_rv.mp4	0.0	308.60499811172485	
67	286.33412313461304	fix_post	2		12	65.0	2.5	/experiments/knapen_AOT/AOT_stimuli/rescaled_final/1315_rv.mp4	0.0	309.9214451313019	0.10002684593200684
68	286.43414998054504	fix_pre	0		120	66.0	2.5	/experiments/knapen_AOT/AOT_stimuli/rescaled_final/1439_rv.mp4	0.0	310.0214719772339	1.0001659393310547
68	286.6177010536194	pulse	0	t		66.0	2.5	/experiments/knapen_AOT/AOT_stimuli/rescaled_final/1439_rv.mp4	0.0	310.2050230503082	
68	287.4343159198761	movie	1		243	66.0	2.5	/experiments/knapen_AOT/AOT_stimuli/rescaled_final/1439_rv.mp4	0.0	311.02163791656494	2.50032114982605
68	288.2180540561676	pulse	1	t		66.0	2.5	/experiments/knapen_AOT/AOT_stimuli/rescaled_final/1439_rv.mp4	0.0	311.80537605285645	
68	289.8180990219116	pulse	1	t		66.0	2.5	/experiments/knapen_AOT/AOT_stimuli/rescaled_final/1439_rv.mp4	0.0	313.40542101860046	
68	289.93463706970215	fix_post	2		12	66.0	2.5	/experiments/knapen_AOT/AOT_stimuli/rescaled_final/1439_rv.mp4	0.0	313.521959066391	0.10004806518554688
69	290.0346851348877	fix_pre	0		119	67.0	2.5	/experiments/knapen_AOT/AOT_stimuli/rescaled_final/0369_rv.mp4	0.0	313.62200713157654	0.9918229579925537
69	291.02650809288025	movie	1		244	67.0	2.5	/experiments/knapen_AOT/AOT_stimuli/rescaled_final/0369_rv.mp4	0.0	314.6138300895691	2.5003459453582764
69	291.4185559749603	pulse	1	t		67.0	2.5	/experiments/knapen_AOT/AOT_stimuli/rescaled_final/0369_rv.mp4	0.0	315.00587797164917	
69	293.0114130973816	pulse	1	t		67.0	2.5	/experiments/knapen_AOT/AOT_stimuli/rescaled_final/0369_rv.mp4	0.0	316.59873509407043	
69	293.5268540382385	fix_post	2		12	67.0	2.5	/experiments/knapen_AOT/AOT_stimuli/rescaled_final/0369_rv.mp4	0.0	317.11417603492737	0.10002994537353516
70	293.62688398361206	fix_pre	0		120	68.0	2.5	/experiments/knapen_AOT/AOT_stimuli/rescaled_final/1114_fw.mp4	0.0	317.2142059803009	1.0001740455627441
70	294.6115651130676	pulse	0	t		68.0	2.5	/experiments/knapen_AOT/AOT_stimuli/rescaled_final/1114_fw.mp4	0.0	318.19888710975647	
70	294.6270580291748	movie	1		245	68.0	2.5	/experiments/knapen_AOT/AOT_stimuli/rescaled_final/1114_fw.mp4	0.0	318.21438002586365	2.508697986602783
70	296.22052812576294	pulse	1	t		68.0	2.5	/experiments/knapen_AOT/AOT_stimuli/rescaled_final/1114_fw.mp4	0.0	319.8078501224518	
70	297.1357560157776	fix_post	2		12	68.0	2.5	/experiments/knapen_AOT/AOT_stimuli/rescaled_final/1114_fw.mp4	0.0	320.72307801246643	0.10009312629699707
71	297.2358491420746	fix_pre	0		120	69.0	2.5	blank	1.0	320.8231711387634	1.0000519752502441
71	297.8118431568146	pulse	0	t		69.0	2.5	blank	1.0	321.3991651535034	
71	298.23590111732483	movie	1		300	69.0	2.5	blank	1.0	321.8232231140137	2.500393867492676
71	299.4114339351654	pulse	1	t		69.0	2.5	blank	1.0	322.99875593185425	
71	300.7362949848175	fix_post	2		12	69.0	2.5	blank	1.0	324.32361698150635	0.10003805160522461
72	300.83633303642273	fix_pre	0		120	70.0	2.5	/experiments/knapen_AOT/AOT_stimuli/rescaled_final/1665_fw.mp4	0.0	324.4236550331116	1.0001509189605713
72	301.01145005226135	pulse	0	t		70.0	2.5	/experiments/knapen_AOT/AOT_stimuli/rescaled_final/1665_fw.mp4	0.0	324.5987720489502	
72	301.8364839553833	movie	1		243	70.0	2.5	/experiments/knapen_AOT/AOT_stimuli/rescaled_final/1665_fw.mp4	0.0	325.42380595207214	2.5003201961517334
72	302.61171793937683	pulse	1	t		70.0	2.5	/experiments/knapen_AOT/AOT_stimuli/rescaled_final/1665_fw.mp4	0.0	326.1990399360657	
72	304.21207213401794	pulse	1	t		70.0	2.5	/experiments/knapen_AOT/AOT_stimuli/rescaled_final/1665_fw.mp4	0.0	327.7993941307068	
72	304.33680415153503	fix_post	2		12	70.0	2.5	/experiments/knapen_AOT/AOT_stimuli/rescaled_final/1665_fw.mp4	0.0	327.9241261482239	0.09999799728393555
73	304.43680214881897	fix_pre	0		119	71.0	2.5	/experiments/knapen_AOT/AOT_stimuli/rescaled_final/1006_fw.mp4	0.0	328.0241241455078	0.9918558597564697
73	305.42865800857544	movie	1		244	71.0	2.5	/experiments/knapen_AOT/AOT_stimuli/rescaled_final/1006_fw.mp4	0.0	329.0159800052643	2.5003550052642822
73	305.81401896476746	pulse	1	t		71.0	2.5	/experiments/knapen_AOT/AOT_stimuli/rescaled_final/1006_fw.mp4	0.0	329.4013409614563	
73	307.41256308555603	pulse	1	t		71.0	2.5	/experiments/knapen_AOT/AOT_stimuli/rescaled_final/1006_fw.mp4	0.0	330.9998850822449	
73	307.9290130138397	fix_post	2		12	71.0	2.5	/experiments/knapen_AOT/AOT_stimuli/rescaled_final/1006_fw.mp4	0.0	331.51633501052856	0.10006594657897949
74	308.0290789604187	fix_pre	0		119	72.0	2.5	/experiments/knapen_AOT/AOT_stimuli/rescaled_final/1124_rv.mp4	0.0	331.61640095710754	0.991765022277832
74	309.0127010345459	pulse	0	t		72.0	2.5	/experiments/knapen_AOT/AOT_stimuli/rescaled_final/1124_rv.mp4	0.0	332.60002303123474	
74	309.02084398269653	movie	1		247	72.0	2.5	/experiments/knapen_AOT/AOT_stimuli/rescaled_final/1124_rv.mp4	0.0	332.6081659793854	2.5087220668792725
74	310.61373114585876	pulse	1	t		72.0	2.5	/experiments/knapen_AOT/AOT_stimuli/rescaled_final/1124_rv.mp4	0.0	334.2010531425476	
74	311.5295660495758	fix_post	2		12	72.0	2.5	/experiments/knapen_AOT/AOT_stimuli/rescaled_final/1124_rv.mp4	0.0	335.11688804626465	0.10000205039978027
75	311.6295680999756	fix_pre	0		120	73.0	2.5	/experiments/knapen_AOT/AOT_stimuli/rescaled_final/0131_rv.mp4	0.0	335.21689009666443	1.000154972076416
75	312.21323895454407	pulse	0	t		73.0	2.5	/experiments/knapen_AOT/AOT_stimuli/rescaled_final/0131_rv.mp4	0.0	335.8005609512329	
75	312.629723072052	movie	1		243	73.0	2.5	/experiments/knapen_AOT/AOT_stimuli/rescaled_final/0131_rv.mp4	0.0	336.21704506874084	2.5003678798675537
75	313.8136270046234	pulse	1	t		73.0	2.5	/experiments/knapen_AOT/AOT_stimuli/rescaled_final/0131_rv.mp4	0.0	337.40094900131226	
75	315.13009095191956	fix_post	2		12	73.0	2.5	/experiments/knapen_AOT/AOT_stimuli/rescaled_final/0131_rv.mp4	0.0	338.7174129486084	0.10004401206970215
76	315.23013496398926	fix_pre	0		120	74.0	2.5	/experiments/knapen_AOT/AOT_stimuli/rescaled_final/0863_rv.mp4	0.0	338.8174569606781	1.0001060962677002
76	315.4137170314789	pulse	0	t		74.0	2.5	/experiments/knapen_AOT/AOT_stimuli/rescaled_final/0863_rv.mp4	0.0	339.0010390281677	
76	316.23024106025696	movie	1		244	74.0	2.5	/experiments/knapen_AOT/AOT_stimuli/rescaled_final/0863_rv.mp4	0.0	339.8175630569458	2.5003809928894043
76	317.01394414901733	pulse	1	t		74.0	2.5	/experiments/knapen_AOT/AOT_stimuli/rescaled_final/0863_rv.mp4	0.0	340.6012661457062	
76	318.6141390800476	pulse	1	t		74.0	2.5	/experiments/knapen_AOT/AOT_stimuli/rescaled_final/0863_rv.mp4	0.0	342.20146107673645	
76	318.73062205314636	fix_post	2		12	74.0	2.5	/experiments/knapen_AOT/AOT_stimuli/rescaled_final/0863_rv.mp4	0.0	342.3179440498352	0.10000300407409668
77	318.83062505722046	fix_pre	0		120	75.0	2.5	/experiments/knapen_AOT/AOT_stimuli/rescaled_final/1913_rv.mp4	0.0	342.4179470539093	1.00016188621521
77	319.83078694343567	movie	1		240	75.0	2.5	/experiments/knapen_AOT/AOT_stimuli/rescaled_final/1913_rv.mp4	0.0	343.4181089401245	2.4920451641082764
77	320.2153239250183	pulse	1	t		75.0	2.5	/experiments/knapen_AOT/AOT_stimuli/rescaled_final/1913_rv.mp4	0.0	343.80264592170715	
77	321.81463408470154	pulse	1	t		75.0	2.5	/experiments/knapen_AOT/AOT_stimuli/rescaled_final/1913_rv.mp4	0.0	345.4019560813904	
77	322.32283210754395	fix_post	2		12	75.0	2.5	/experiments/knapen_AOT/AOT_stimuli/rescaled_final/1913_rv.mp4	0.0	345.9101541042328	0.10005593299865723
78	322.4228880405426	fix_pre	0		120	76.0	2.5	/experiments/knapen_AOT/AOT_stimuli/rescaled_final/0701_fw.mp4	0.0	346.01021003723145	1.000108003616333
78	323.41486406326294	pulse	0	t		76.0	2.5	/experiments/knapen_AOT/AOT_stimuli/rescaled_final/0701_fw.mp4	0.0	347.0021860599518	
78	323.42299604415894	movie	1		245	76.0	2.5	/experiments/knapen_AOT/AOT_stimuli/rescaled_final/0701_fw.mp4	0.0	347.0103180408478	2.508708953857422
78	325.0155761241913	pulse	1	t		76.0	2.5	/experiments/knapen_AOT/AOT_stimuli/rescaled_final/0701_fw.mp4	0.0	348.6028981208801	
78	325.93170499801636	fix_post	2		12	76.0	2.5	/experiments/knapen_AOT/AOT_stimuli/rescaled_final/0701_fw.mp4	0.0	349.5190269947052	0.10001802444458008
79	326.03172302246094	fix_pre	0		120	77.0	2.5	blank	1.0	349.6190450191498	1.0002710819244385
79	326.61537194252014	pulse	0	t		77.0	2.5	blank	1.0	350.202693939209	
79	327.0319941043854	movie	1		300	77.0	2.5	blank	1.0	350.6193161010742	2.500264883041382
79	328.2156889438629	pulse	1	t		77.0	2.5	blank	1.0	351.80301094055176	
79	329.53225898742676	fix_post	2		12	77.0	2.5	blank	1.0	353.1195809841156	0.10001707077026367
80	329.632276058197	fix_pre	0		120	78.0	2.5	/experiments/knapen_AOT/AOT_stimuli/rescaled_final/1414_fw.mp4	0.0	353.21959805488586	1.0001299381256104
80	329.8158030509949	pulse	0	t		78.0	2.5	/experiments/knapen_AOT/AOT_stimuli/rescaled_final/1414_fw.mp4	0.0	353.4031250476837	
80	330.63240599632263	movie	1		243	78.0	2.5	/experiments/knapen_AOT/AOT_stimuli/rescaled_final/1414_fw.mp4	0.0	354.2197279930115	2.500385046005249
80	331.4161801338196	pulse	1	t		78.0	2.5	/experiments/knapen_AOT/AOT_stimuli/rescaled_final/1414_fw.mp4	0.0	355.0035021305084	
80	333.0165169239044	pulse	1	t		78.0	2.5	/experiments/knapen_AOT/AOT_stimuli/rescaled_final/1414_fw.mp4	0.0	356.60383892059326	
80	333.1327910423279	fix_post	2		12	78.0	2.5	/experiments/knapen_AOT/AOT_stimuli/rescaled_final/1414_fw.mp4	0.0	356.7201130390167	0.09999203681945801
81	333.23278307914734	fix_pre	0		120	79.0	2.5	/experiments/knapen_AOT/AOT_stimuli/rescaled_final/0491_fw.mp4	0.0	356.8201050758362	1.0001890659332275
81	334.23297214508057	movie	1		243	79.0	2.5	/experiments/knapen_AOT/AOT_stimuli/rescaled_final/0491_fw.mp4	0.0	357.8202941417694	2.491987943649292
81	334.61719012260437	pulse	1	t		79.0	2.5	/experiments/knapen_AOT/AOT_stimuli/rescaled_final/0491_fw.mp4	0.0	358.2045121192932	
81	336.21673107147217	pulse	1	t		79.0	2.5	/experiments/knapen_AOT/AOT_stimuli/rescaled_final/0491_fw.mp4	0.0	359.804053068161	
81	336.72496008872986	fix_post	2		12	79.0	2.5	/experiments/knapen_AOT/AOT_stimuli/rescaled_final/0491_fw.mp4	0.0	360.3122820854187	0.10005497932434082
82	336.8250150680542	fix_pre	0		120	80.0	2.5	/experiments/knapen_AOT/AOT_stimuli/rescaled_final/1803_fw.mp4	0.0	360.41233706474304	1.000119924545288
82	337.81711602211	pulse	0	t		80.0	2.5	/experiments/knapen_AOT/AOT_stimuli/rescaled_final/1803_fw.mp4	0.0	361.4044380187988	
82	337.8251349925995	movie	1		244	80.0	2.5	/experiments/knapen_AOT/AOT_stimuli/rescaled_final/1803_fw.mp4	0.0	361.41245698928833	2.5087080001831055
82	339.41782808303833	pulse	1	t		80.0	2.5	/experiments/knapen_AOT/AOT_stimuli/rescaled_final/1803_fw.mp4	0.0	363.0051500797272	
82	340.3338429927826	fix_post	2		12	80.0	2.5	/experiments/knapen_AOT/AOT_stimuli/rescaled_final/1803_fw.mp4	0.0	363.92116498947144	0.10001516342163086
83	340.4338581562042	fix_pre	0		120	81.0	2.5	/experiments/knapen_AOT/AOT_stimuli/rescaled_final/0442_rv.mp4	0.0	364.02118015289307	1.000166893005371
83	341.0175030231476	pulse	0	t		81.0	2.5	/experiments/knapen_AOT/AOT_stimuli/rescaled_final/0442_rv.mp4	0.0	364.6048250198364	
83	341.4340250492096	movie	1		245	81.0	2.5	/experiments/knapen_AOT/AOT_stimuli/rescaled_final/0442_rv.mp4	0.0	365.02134704589844	2.5003669261932373
83	342.6177430152893	pulse	1	t		81.0	2.5	/experiments/knapen_AOT/AOT_stimuli/rescaled_final/0442_rv.mp4	0.0	366.20506501197815	
83	343.93439197540283	fix_post	2		12	81.0	2.5	/experiments/knapen_AOT/AOT_stimuli/rescaled_final/0442_rv.mp4	0.0	367.5217139720917	0.10003995895385742
84	344.0344319343567	fix_pre	0		120	82.0	2.5	/experiments/knapen_AOT/AOT_stimuli/rescaled_final/1491_fw.mp4	0.0	367.62175393104553	1.0001301765441895
84	344.2180709838867	pulse	0	t		82.0	2.5	/experiments/knapen_AOT/AOT_stimuli/rescaled_final/1491_fw.mp4	0.0	367.80539298057556	
84	345.0345621109009	movie	1		244	82.0	2.5	/experiments/knapen_AOT/AOT_stimuli/rescaled_final/1491_fw.mp4	0.0	368.6218841075897	2.5003628730773926
84	345.8182201385498	pulse	1	t		82.0	2.5	/experiments/knapen_AOT/AOT_stimuli/rescaled_final/1491_fw.mp4	0.0	369.40554213523865	
84	347.4161169528961	pulse	1	t		82.0	2.5	/experiments/knapen_AOT/AOT_stimuli/rescaled_final/1491_fw.mp4	0.0	371.00343894958496	
84	347.53492498397827	fix_post	2		12	82.0	2.5	/experiments/knapen_AOT/AOT_stimuli/rescaled_final/1491_fw.mp4	0.0	371.1222469806671	0.10001015663146973
85	347.63493514060974	fix_pre	0		120	83.0	2.5	blank	1.0	371.2222571372986	1.000182867050171
85	348.6351180076599	movie	1		299	83.0	2.5	blank	1.0	372.22244000434875	2.4920220375061035
85	349.0186619758606	pulse	1	t		83.0	2.5	blank	1.0	372.60598397254944	
85	350.6189811229706	pulse	1	t		83.0	2.5	blank	1.0	374.2063031196594	
85	351.127140045166	fix_post	2		12	83.0	2.5	blank	1.0	374.71446204185486	0.10002803802490234
87	351.2271680831909	stim	0		1716					374.81449007987976	14.302217960357666
87	352.21195793151855	pulse	0	t						375.7992799282074	
87	353.8121371269226	pulse	0	t						377.39945912361145	
87	355.4123239517212	pulse	0	t						378.99964594841003	
87	357.0115020275116	pulse	0	t						380.59882402420044	
87	358.61263704299927	pulse	0	t						382.1999590396881	
87	360.2120530605316	pulse	0	t						383.79937505722046	
87	361.8121659755707	pulse	0	t						385.3994879722595	
87	363.4125030040741	pulse	0	t						386.99982500076294	
87	365.01262307167053	pulse	0	t						388.5999450683594	
