trial_nr	onset	event_type	phase	response	nr_frames	movie_index	movie_duration	movie_file	blank	onset_abs	duration
0	0.2081739902496338	stim	0		12					56.53420901298523	0.10000395774841309
0	0.3001999855041504	response	0	space						56.626235008239746	
1	0.3081779479980469	stim	0		4505					56.63421297073364	37.55954194068909
1	37.85250186920166	pulse	0	t						94.17853689193726	
1	37.867719888687134	stim	1		1715					94.19375491142273	14.29819107055664
1	39.44748306274414	pulse	1	t						95.77351808547974	
1	41.047698974609375	pulse	1	t						97.37373399734497	
1	42.6480598449707	pulse	1	t						98.9740948677063	
1	44.24830484390259	pulse	1	t						100.57433986663818	
1	45.84848189353943	pulse	1	t						102.17451691627502	
1	47.44861698150635	pulse	1	t						103.77465200424194	
1	49.04896903038025	pulse	1	t						105.37500405311584	
1	50.649214029312134	pulse	1	t						106.97524905204773	
2	52.165910959243774	fix_pre	0		11	0.0	2.5	/experiments/knapen_AOT/AOT_stimuli/rescaled_final/0459_fw.mp4	0.0	108.49194598197937	0.09163188934326172
2	52.24943494796753	pulse	0	t		0.0	2.5	/experiments/knapen_AOT/AOT_stimuli/rescaled_final/0459_fw.mp4	0.0	108.57546997070312	
2	52.257542848587036	movie	1		243	0.0	2.5	/experiments/knapen_AOT/AOT_stimuli/rescaled_final/0459_fw.mp4	0.0	108.58357787132263	2.508784055709839
2	53.85033297538757	pulse	1	t		0.0	2.5	/experiments/knapen_AOT/AOT_stimuli/rescaled_final/0459_fw.mp4	0.0	110.17636799812317	
2	54.766326904296875	fix_post	2		12	0.0	2.5	/experiments/knapen_AOT/AOT_stimuli/rescaled_final/0459_fw.mp4	0.0	111.09236192703247	0.09998011589050293
3	54.86630702018738	fix_pre	0		120	1.0	2.5	/experiments/knapen_AOT/AOT_stimuli/rescaled_final/0357_rv.mp4	0.0	111.19234204292297	1.0001249313354492
3	55.44989800453186	pulse	0	t		1.0	2.5	/experiments/knapen_AOT/AOT_stimuli/rescaled_final/0357_rv.mp4	0.0	111.77593302726746	
3	55.86643195152283	movie	1		242	1.0	2.5	/experiments/knapen_AOT/AOT_stimuli/rescaled_final/0357_rv.mp4	0.0	112.19246697425842	2.5005900859832764
3	57.0503568649292	pulse	1	t		1.0	2.5	/experiments/knapen_AOT/AOT_stimuli/rescaled_final/0357_rv.mp4	0.0	113.3763918876648	
3	58.3670220375061	fix_post	2		12	1.0	2.5	/experiments/knapen_AOT/AOT_stimuli/rescaled_final/0357_rv.mp4	0.0	114.6930570602417	0.09985184669494629
4	58.46687388420105	fix_pre	0		120	2.0	2.5	/experiments/knapen_AOT/AOT_stimuli/rescaled_final/1415_fw.mp4	0.0	114.79290890693665	1.0001540184020996
4	58.650521993637085	pulse	0	t		2.0	2.5	/experiments/knapen_AOT/AOT_stimuli/rescaled_final/1415_fw.mp4	0.0	114.97655701637268	
4	59.46702790260315	movie	1		242	2.0	2.5	/experiments/knapen_AOT/AOT_stimuli/rescaled_final/1415_fw.mp4	0.0	115.79306292533875	2.500486135482788
4	60.25061893463135	pulse	1	t		2.0	2.5	/experiments/knapen_AOT/AOT_stimuli/rescaled_final/1415_fw.mp4	0.0	116.57665395736694	
4	61.85067296028137	pulse	1	t		2.0	2.5	/experiments/knapen_AOT/AOT_stimuli/rescaled_final/1415_fw.mp4	0.0	118.17670798301697	
4	61.96751403808594	fix_post	2		12	2.0	2.5	/experiments/knapen_AOT/AOT_stimuli/rescaled_final/1415_fw.mp4	0.0	118.29354906082153	0.09988999366760254
5	62.06740403175354	fix_pre	0		119	3.0	2.5	/experiments/knapen_AOT/AOT_stimuli/rescaled_final/1393_fw.mp4	0.0	118.39343905448914	0.9917669296264648
5	63.059170961380005	movie	1		243	3.0	2.5	/experiments/knapen_AOT/AOT_stimuli/rescaled_final/1393_fw.mp4	0.0	119.3852059841156	2.5004680156707764
5	63.4512779712677	pulse	1	t		3.0	2.5	/experiments/knapen_AOT/AOT_stimuli/rescaled_final/1393_fw.mp4	0.0	119.7773129940033	
5	65.05143594741821	pulse	1	t		3.0	2.5	/experiments/knapen_AOT/AOT_stimuli/rescaled_final/1393_fw.mp4	0.0	121.37747097015381	
5	65.55963897705078	fix_post	2		12	3.0	2.5	/experiments/knapen_AOT/AOT_stimuli/rescaled_final/1393_fw.mp4	0.0	121.88567399978638	0.09993290901184082
6	65.65957188606262	fix_pre	0		120	4.0	2.5	/experiments/knapen_AOT/AOT_stimuli/rescaled_final/1308_fw.mp4	0.0	121.98560690879822	1.0001580715179443
6	66.65160799026489	pulse	0	t		4.0	2.5	/experiments/knapen_AOT/AOT_stimuli/rescaled_final/1308_fw.mp4	0.0	122.97764301300049	
6	66.65972995758057	movie	1		244	4.0	2.5	/experiments/knapen_AOT/AOT_stimuli/rescaled_final/1308_fw.mp4	0.0	122.98576498031616	2.508780002593994
6	68.2531430721283	pulse	1	t		4.0	2.5	/experiments/knapen_AOT/AOT_stimuli/rescaled_final/1308_fw.mp4	0.0	124.57917809486389	
6	69.16850996017456	fix_post	2		12	4.0	2.5	/experiments/knapen_AOT/AOT_stimuli/rescaled_final/1308_fw.mp4	0.0	125.49454498291016	0.09997892379760742
7	69.26848888397217	fix_pre	0		120	5.0	2.5	blank	1.0	125.59452390670776	1.000087022781372
7	69.85214185714722	pulse	0	t		5.0	2.5	blank	1.0	126.17817687988281	
7	70.26857590675354	movie	1		300	5.0	2.5	blank	1.0	126.59461092948914	2.5004470348358154
7	71.45240807533264	pulse	1	t		5.0	2.5	blank	1.0	127.77844309806824	
7	72.76902294158936	fix_post	2		12	5.0	2.5	blank	1.0	129.09505796432495	0.0999441146850586
8	72.86896705627441	fix_pre	0		120	6.0	2.5	/experiments/knapen_AOT/AOT_stimuli/rescaled_final/2146_fw.mp4	0.0	129.19500207901	1.0002098083496094
8	73.05264592170715	pulse	0	t		6.0	2.5	/experiments/knapen_AOT/AOT_stimuli/rescaled_final/2146_fw.mp4	0.0	129.37868094444275	
8	73.86917686462402	movie	1		243	6.0	2.5	/experiments/knapen_AOT/AOT_stimuli/rescaled_final/2146_fw.mp4	0.0	130.19521188735962	2.500460147857666
8	74.65271806716919	pulse	1	t		6.0	2.5	/experiments/knapen_AOT/AOT_stimuli/rescaled_final/2146_fw.mp4	0.0	130.97875308990479	
8	76.2527768611908	pulse	1	t		6.0	2.5	/experiments/knapen_AOT/AOT_stimuli/rescaled_final/2146_fw.mp4	0.0	132.5788118839264	
8	76.36963701248169	fix_post	2		12	6.0	2.5	/experiments/knapen_AOT/AOT_stimuli/rescaled_final/2146_fw.mp4	0.0	132.69567203521729	0.09987497329711914
9	76.46951198577881	fix_pre	0		119	7.0	2.5	/experiments/knapen_AOT/AOT_stimuli/rescaled_final/1575_rv.mp4	0.0	132.7955470085144	0.9918580055236816
9	77.46136999130249	movie	1		243	7.0	2.5	/experiments/knapen_AOT/AOT_stimuli/rescaled_final/1575_rv.mp4	0.0	133.7874050140381	2.5004539489746094
9	77.853355884552	pulse	1	t		7.0	2.5	/experiments/knapen_AOT/AOT_stimuli/rescaled_final/1575_rv.mp4	0.0	134.1793909072876	
9	79.45363306999207	pulse	1	t		7.0	2.5	/experiments/knapen_AOT/AOT_stimuli/rescaled_final/1575_rv.mp4	0.0	135.77966809272766	
9	79.9618239402771	fix_post	2		12	7.0	2.5	/experiments/knapen_AOT/AOT_stimuli/rescaled_final/1575_rv.mp4	0.0	136.2878589630127	0.09994792938232422
10	80.06177186965942	fix_pre	0		120	8.0	2.5	/experiments/knapen_AOT/AOT_stimuli/rescaled_final/1468_rv.mp4	0.0	136.38780689239502	1.0001370906829834
10	81.05366706848145	pulse	0	t		8.0	2.5	/experiments/knapen_AOT/AOT_stimuli/rescaled_final/1468_rv.mp4	0.0	137.37970209121704	
10	81.06190896034241	movie	1		243	8.0	2.5	/experiments/knapen_AOT/AOT_stimuli/rescaled_final/1468_rv.mp4	0.0	137.387943983078	2.5087199211120605
10	82.65458989143372	pulse	1	t		8.0	2.5	/experiments/knapen_AOT/AOT_stimuli/rescaled_final/1468_rv.mp4	0.0	138.9806249141693	
10	83.57062888145447	fix_post	2		12	8.0	2.5	/experiments/knapen_AOT/AOT_stimuli/rescaled_final/1468_rv.mp4	0.0	139.89666390419006	0.09995102882385254
11	83.67057991027832	fix_pre	0		120	9.0	2.5	/experiments/knapen_AOT/AOT_stimuli/rescaled_final/0420_fw.mp4	0.0	139.99661493301392	1.0001850128173828
11	84.24666285514832	pulse	0	t		9.0	2.5	/experiments/knapen_AOT/AOT_stimuli/rescaled_final/0420_fw.mp4	0.0	140.5726978778839	
11	84.6707649230957	movie	1		243	9.0	2.5	/experiments/knapen_AOT/AOT_stimuli/rescaled_final/0420_fw.mp4	0.0	140.9967999458313	2.5005741119384766
11	85.8472888469696	pulse	1	t		9.0	2.5	/experiments/knapen_AOT/AOT_stimuli/rescaled_final/0420_fw.mp4	0.0	142.1733238697052	
11	87.17133903503418	fix_post	2		12	9.0	2.5	/experiments/knapen_AOT/AOT_stimuli/rescaled_final/0420_fw.mp4	0.0	143.49737405776978	0.09981489181518555
12	87.27115392684937	fix_pre	0		120	10.0	2.5	/experiments/knapen_AOT/AOT_stimuli/rescaled_final/2140_rv.mp4	0.0	143.59718894958496	1.0002081394195557
12	87.44720888137817	pulse	0	t		10.0	2.5	/experiments/knapen_AOT/AOT_stimuli/rescaled_final/2140_rv.mp4	0.0	143.77324390411377	
12	88.27136206626892	movie	1		242	10.0	2.5	/experiments/knapen_AOT/AOT_stimuli/rescaled_final/2140_rv.mp4	0.0	144.59739708900452	2.5004539489746094
12	89.04754304885864	pulse	1	t		10.0	2.5	/experiments/knapen_AOT/AOT_stimuli/rescaled_final/2140_rv.mp4	0.0	145.37357807159424	
12	90.64696002006531	pulse	1	t		10.0	2.5	/experiments/knapen_AOT/AOT_stimuli/rescaled_final/2140_rv.mp4	0.0	146.9729950428009	
12	90.77181601524353	fix_post	2		12	10.0	2.5	/experiments/knapen_AOT/AOT_stimuli/rescaled_final/2140_rv.mp4	0.0	147.09785103797913	0.09983301162719727
13	90.87164902687073	fix_pre	0		119	11.0	2.5	/experiments/knapen_AOT/AOT_stimuli/rescaled_final/0312_fw.mp4	0.0	147.19768404960632	0.9918298721313477
13	91.86347889900208	movie	1		242	11.0	2.5	/experiments/knapen_AOT/AOT_stimuli/rescaled_final/0312_fw.mp4	0.0	148.18951392173767	2.5005409717559814
13	92.24780797958374	pulse	1	t		11.0	2.5	/experiments/knapen_AOT/AOT_stimuli/rescaled_final/0312_fw.mp4	0.0	148.57384300231934	
13	93.84724998474121	pulse	1	t		11.0	2.5	/experiments/knapen_AOT/AOT_stimuli/rescaled_final/0312_fw.mp4	0.0	150.1732850074768	
13	94.36401987075806	fix_post	2		12	11.0	2.5	/experiments/knapen_AOT/AOT_stimuli/rescaled_final/0312_fw.mp4	0.0	150.69005489349365	0.09983706474304199
14	94.4638569355011	fix_pre	0		119	12.0	2.5	/experiments/knapen_AOT/AOT_stimuli/rescaled_final/1951_fw.mp4	0.0	150.7898919582367	0.9918179512023926
14	95.44759106636047	pulse	0	t		12.0	2.5	/experiments/knapen_AOT/AOT_stimuli/rescaled_final/1951_fw.mp4	0.0	151.77362608909607	
14	95.45567488670349	movie	1		243	12.0	2.5	/experiments/knapen_AOT/AOT_stimuli/rescaled_final/1951_fw.mp4	0.0	151.7817099094391	2.508836030960083
14	97.04836201667786	pulse	1	t		12.0	2.5	/experiments/knapen_AOT/AOT_stimuli/rescaled_final/1951_fw.mp4	0.0	153.37439703941345	
14	97.96451091766357	fix_post	2		12	12.0	2.5	/experiments/knapen_AOT/AOT_stimuli/rescaled_final/1951_fw.mp4	0.0	154.29054594039917	0.09993410110473633
15	98.06444501876831	fix_pre	0		120	13.0	2.5	blank	1.0	154.3904800415039	1.0001099109649658
15	98.64803004264832	pulse	0	t		13.0	2.5	blank	1.0	154.9740650653839	
15	99.06455492973328	movie	1		300	13.0	2.5	blank	1.0	155.39058995246887	2.5003910064697266
15	100.24830794334412	pulse	1	t		13.0	2.5	blank	1.0	156.5743429660797	
15	101.564945936203	fix_post	2		12	13.0	2.5	blank	1.0	157.8909809589386	0.09997010231018066
16	101.66491603851318	fix_pre	0		118	14.0	2.5	/experiments/knapen_AOT/AOT_stimuli/rescaled_final/0025_fw.mp4	0.0	157.99095106124878	1.000234842300415
16	101.84853601455688	pulse	0	t		14.0	2.5	/experiments/knapen_AOT/AOT_stimuli/rescaled_final/0025_fw.mp4	0.0	158.17457103729248	
16	102.6651508808136	movie	1		243	14.0	2.5	/experiments/knapen_AOT/AOT_stimuli/rescaled_final/0025_fw.mp4	0.0	158.9911859035492	2.5004830360412598
16	103.44875288009644	pulse	1	t		14.0	2.5	/experiments/knapen_AOT/AOT_stimuli/rescaled_final/0025_fw.mp4	0.0	159.77478790283203	
16	105.04914903640747	pulse	1	t		14.0	2.5	/experiments/knapen_AOT/AOT_stimuli/rescaled_final/0025_fw.mp4	0.0	161.37518405914307	
16	105.16563391685486	fix_post	2		12	14.0	2.5	/experiments/knapen_AOT/AOT_stimuli/rescaled_final/0025_fw.mp4	0.0	161.49166893959045	0.0998389720916748
17	105.26547288894653	fix_pre	0		120	15.0	2.5	/experiments/knapen_AOT/AOT_stimuli/rescaled_final/0380_fw.mp4	0.0	161.59150791168213	1.000154972076416
17	106.26562786102295	movie	1		241	15.0	2.5	/experiments/knapen_AOT/AOT_stimuli/rescaled_final/0380_fw.mp4	0.0	162.59166288375854	2.492112159729004
17	106.65387296676636	pulse	1	t		15.0	2.5	/experiments/knapen_AOT/AOT_stimuli/rescaled_final/0380_fw.mp4	0.0	162.97990798950195	
17	108.24942398071289	pulse	1	t		15.0	2.5	/experiments/knapen_AOT/AOT_stimuli/rescaled_final/0380_fw.mp4	0.0	164.5754590034485	
17	108.75774002075195	fix_post	2		12	15.0	2.5	/experiments/knapen_AOT/AOT_stimuli/rescaled_final/0380_fw.mp4	0.0	165.08377504348755	0.09996604919433594
18	108.85770606994629	fix_pre	0		120	16.0	2.5	/experiments/knapen_AOT/AOT_stimuli/rescaled_final/1008_fw.mp4	0.0	165.18374109268188	1.0001089572906494
18	109.84973192214966	pulse	0	t		16.0	2.5	/experiments/knapen_AOT/AOT_stimuli/rescaled_final/1008_fw.mp4	0.0	166.17576694488525	
18	109.85781502723694	movie	1		243	16.0	2.5	/experiments/knapen_AOT/AOT_stimuli/rescaled_final/1008_fw.mp4	0.0	166.18385004997253	2.5087718963623047
18	111.45078301429749	pulse	1	t		16.0	2.5	/experiments/knapen_AOT/AOT_stimuli/rescaled_final/1008_fw.mp4	0.0	167.77681803703308	
18	112.36658692359924	fix_post	2		12	16.0	2.5	/experiments/knapen_AOT/AOT_stimuli/rescaled_final/1008_fw.mp4	0.0	168.69262194633484	0.09996795654296875
19	112.46655488014221	fix_pre	0		120	17.0	2.5	/experiments/knapen_AOT/AOT_stimuli/rescaled_final/0178_rv.mp4	0.0	168.7925899028778	1.000171184539795
19	113.05012488365173	pulse	0	t		17.0	2.5	/experiments/knapen_AOT/AOT_stimuli/rescaled_final/0178_rv.mp4	0.0	169.37615990638733	
19	113.466726064682	movie	1		243	17.0	2.5	/experiments/knapen_AOT/AOT_stimuli/rescaled_final/0178_rv.mp4	0.0	169.7927610874176	2.500333786010742
19	114.65050792694092	pulse	1	t		17.0	2.5	/experiments/knapen_AOT/AOT_stimuli/rescaled_final/0178_rv.mp4	0.0	170.9765429496765	
19	115.96705985069275	fix_post	2		12	17.0	2.5	/experiments/knapen_AOT/AOT_stimuli/rescaled_final/0178_rv.mp4	0.0	172.29309487342834	0.10004305839538574
20	116.06710290908813	fix_pre	0		120	18.0	2.5	/experiments/knapen_AOT/AOT_stimuli/rescaled_final/1012_fw.mp4	0.0	172.39313793182373	1.000148057937622
20	116.25084400177002	pulse	0	t		18.0	2.5	/experiments/knapen_AOT/AOT_stimuli/rescaled_final/1012_fw.mp4	0.0	172.57687902450562	
20	117.06725096702576	movie	1		242	18.0	2.5	/experiments/knapen_AOT/AOT_stimuli/rescaled_final/1012_fw.mp4	0.0	173.39328598976135	2.5005738735198975
20	117.85095691680908	pulse	1	t		18.0	2.5	/experiments/knapen_AOT/AOT_stimuli/rescaled_final/1012_fw.mp4	0.0	174.17699193954468	
20	119.4517560005188	pulse	1	t		18.0	2.5	/experiments/knapen_AOT/AOT_stimuli/rescaled_final/1012_fw.mp4	0.0	175.7777910232544	
20	119.56782484054565	fix_post	2		12	18.0	2.5	/experiments/knapen_AOT/AOT_stimuli/rescaled_final/1012_fw.mp4	0.0	175.89385986328125	0.09979414939880371
21	119.66761898994446	fix_pre	0		120	19.0	2.5	/experiments/knapen_AOT/AOT_stimuli/rescaled_final/2121_rv.mp4	0.0	175.99365401268005	1.000187873840332
21	120.66780686378479	movie	1		241	19.0	2.5	/experiments/knapen_AOT/AOT_stimuli/rescaled_final/2121_rv.mp4	0.0	176.99384188652039	2.4921610355377197
21	121.05285000801086	pulse	1	t		19.0	2.5	/experiments/knapen_AOT/AOT_stimuli/rescaled_final/2121_rv.mp4	0.0	177.37888503074646	
21	122.65159702301025	pulse	1	t		19.0	2.5	/experiments/knapen_AOT/AOT_stimuli/rescaled_final/2121_rv.mp4	0.0	178.97763204574585	
21	123.15996789932251	fix_post	2		12	19.0	2.5	/experiments/knapen_AOT/AOT_stimuli/rescaled_final/2121_rv.mp4	0.0	179.4860029220581	0.09995508193969727
22	123.2599229812622	fix_pre	0		120	20.0	2.5	/experiments/knapen_AOT/AOT_stimuli/rescaled_final/0397_rv.mp4	0.0	179.5859580039978	1.0000560283660889
22	124.25177788734436	pulse	0	t		20.0	2.5	/experiments/knapen_AOT/AOT_stimuli/rescaled_final/0397_rv.mp4	0.0	180.57781291007996	
22	124.2599790096283	movie	1		244	20.0	2.5	/experiments/knapen_AOT/AOT_stimuli/rescaled_final/0397_rv.mp4	0.0	180.5860140323639	2.5087649822235107
22	125.85266399383545	pulse	1	t		20.0	2.5	/experiments/knapen_AOT/AOT_stimuli/rescaled_final/0397_rv.mp4	0.0	182.17869901657104	
22	126.7687439918518	fix_post	2		12	20.0	2.5	/experiments/knapen_AOT/AOT_stimuli/rescaled_final/0397_rv.mp4	0.0	183.0947790145874	0.09997701644897461
23	126.86872100830078	fix_pre	0		120	21.0	2.5	blank	1.0	183.19475603103638	1.0001840591430664
23	127.45230603218079	pulse	0	t		21.0	2.5	blank	1.0	183.77834105491638	
23	127.86890506744385	movie	1		300	21.0	2.5	blank	1.0	184.19494009017944	2.5003459453582764
23	129.05254006385803	pulse	1	t		21.0	2.5	blank	1.0	185.37857508659363	
23	130.36925101280212	fix_post	2		12	21.0	2.5	blank	1.0	186.69528603553772	0.10006594657897949
24	130.4693169593811	fix_pre	0		120	22.0	2.5	/experiments/knapen_AOT/AOT_stimuli/rescaled_final/2126_fw.mp4	0.0	186.7953519821167	1.0001029968261719
24	130.65278792381287	pulse	0	t		22.0	2.5	/experiments/knapen_AOT/AOT_stimuli/rescaled_final/2126_fw.mp4	0.0	186.97882294654846	
24	131.46941995620728	movie	1		242	22.0	2.5	/experiments/knapen_AOT/AOT_stimuli/rescaled_final/2126_fw.mp4	0.0	187.79545497894287	2.5005528926849365
24	132.2531659603119	pulse	1	t		22.0	2.5	/experiments/knapen_AOT/AOT_stimuli/rescaled_final/2126_fw.mp4	0.0	188.57920098304749	
24	133.85380387306213	pulse	1	t		22.0	2.5	/experiments/knapen_AOT/AOT_stimuli/rescaled_final/2126_fw.mp4	0.0	190.17983889579773	
24	133.9699728488922	fix_post	2		12	22.0	2.5	/experiments/knapen_AOT/AOT_stimuli/rescaled_final/2126_fw.mp4	0.0	190.2960078716278	0.09991312026977539
25	134.069885969162	fix_pre	0		120	23.0	2.5	/experiments/knapen_AOT/AOT_stimuli/rescaled_final/1748_fw.mp4	0.0	190.39592099189758	1.0000629425048828
25	135.06994891166687	movie	1		241	23.0	2.5	/experiments/knapen_AOT/AOT_stimuli/rescaled_final/1748_fw.mp4	0.0	191.39598393440247	2.4920859336853027
25	135.45423197746277	pulse	1	t		23.0	2.5	/experiments/knapen_AOT/AOT_stimuli/rescaled_final/1748_fw.mp4	0.0	191.78026700019836	
25	137.05383896827698	pulse	1	t		23.0	2.5	/experiments/knapen_AOT/AOT_stimuli/rescaled_final/1748_fw.mp4	0.0	193.37987399101257	
25	137.56203484535217	fix_post	2		12	23.0	2.5	/experiments/knapen_AOT/AOT_stimuli/rescaled_final/1748_fw.mp4	0.0	193.88806986808777	0.09998917579650879
26	137.66202402114868	fix_pre	0		120	24.0	2.5	/experiments/knapen_AOT/AOT_stimuli/rescaled_final/0367_fw.mp4	0.0	193.98805904388428	1.0000879764556885
26	138.65411186218262	pulse	0	t		24.0	2.5	/experiments/knapen_AOT/AOT_stimuli/rescaled_final/0367_fw.mp4	0.0	194.9801468849182	
26	138.66211199760437	movie	1		245	24.0	2.5	/experiments/knapen_AOT/AOT_stimuli/rescaled_final/0367_fw.mp4	0.0	194.98814702033997	2.5087718963623047
26	140.25478100776672	pulse	1	t		24.0	2.5	/experiments/knapen_AOT/AOT_stimuli/rescaled_final/0367_fw.mp4	0.0	196.58081603050232	
26	141.17088389396667	fix_post	2		12	24.0	2.5	/experiments/knapen_AOT/AOT_stimuli/rescaled_final/0367_fw.mp4	0.0	197.49691891670227	0.10001206398010254
27	141.27089595794678	fix_pre	0		120	25.0	2.5	/experiments/knapen_AOT/AOT_stimuli/rescaled_final/1061_fw.mp4	0.0	197.59693098068237	1.0001330375671387
27	141.85446095466614	pulse	0	t		25.0	2.5	/experiments/knapen_AOT/AOT_stimuli/rescaled_final/1061_fw.mp4	0.0	198.18049597740173	
27	142.27102899551392	movie	1		243	25.0	2.5	/experiments/knapen_AOT/AOT_stimuli/rescaled_final/1061_fw.mp4	0.0	198.5970640182495	2.5005149841308594
27	143.447527885437	pulse	1	t		25.0	2.5	/experiments/knapen_AOT/AOT_stimuli/rescaled_final/1061_fw.mp4	0.0	199.7735629081726	
27	144.77154397964478	fix_post	2		12	25.0	2.5	/experiments/knapen_AOT/AOT_stimuli/rescaled_final/1061_fw.mp4	0.0	201.09757900238037	0.09987688064575195
28	144.87142086029053	fix_pre	0		120	26.0	2.5	/experiments/knapen_AOT/AOT_stimuli/rescaled_final/1170_rv.mp4	0.0	201.19745588302612	1.0001180171966553
28	145.0474259853363	pulse	0	t		26.0	2.5	/experiments/knapen_AOT/AOT_stimuli/rescaled_final/1170_rv.mp4	0.0	201.3734610080719	
28	145.87153887748718	movie	1		242	26.0	2.5	/experiments/knapen_AOT/AOT_stimuli/rescaled_final/1170_rv.mp4	0.0	202.19757390022278	2.500596046447754
28	146.6477348804474	pulse	1	t		26.0	2.5	/experiments/knapen_AOT/AOT_stimuli/rescaled_final/1170_rv.mp4	0.0	202.97376990318298	
28	148.25616097450256	pulse	1	t		26.0	2.5	/experiments/knapen_AOT/AOT_stimuli/rescaled_final/1170_rv.mp4	0.0	204.58219599723816	
28	148.37213492393494	fix_post	2		12	26.0	2.5	/experiments/knapen_AOT/AOT_stimuli/rescaled_final/1170_rv.mp4	0.0	204.69816994667053	0.09984803199768066
29	148.47198295593262	fix_pre	0		120	27.0	2.5	blank	1.0	204.7980179786682	1.0001490116119385
29	149.47213196754456	movie	1		299	27.0	2.5	blank	1.0	205.79816699028015	2.4919910430908203
29	149.84815192222595	pulse	1	t		27.0	2.5	blank	1.0	206.17418694496155	
29	151.44831085205078	pulse	1	t		27.0	2.5	blank	1.0	207.77434587478638	
29	151.96412301063538	fix_post	2		12	27.0	2.5	blank	1.0	208.29015803337097	0.10008001327514648
30	152.06420302391052	fix_pre	0		119	28.0	2.5	/experiments/knapen_AOT/AOT_stimuli/rescaled_final/0729_rv.mp4	0.0	208.39023804664612	0.9918038845062256
30	153.0477578639984	pulse	0	t		28.0	2.5	/experiments/knapen_AOT/AOT_stimuli/rescaled_final/0729_rv.mp4	0.0	209.373792886734	
30	153.05600690841675	movie	1		243	28.0	2.5	/experiments/knapen_AOT/AOT_stimuli/rescaled_final/0729_rv.mp4	0.0	209.38204193115234	2.508674144744873
30	154.64845085144043	pulse	1	t		28.0	2.5	/experiments/knapen_AOT/AOT_stimuli/rescaled_final/0729_rv.mp4	0.0	210.97448587417603	
30	155.56468105316162	fix_post	2		12	28.0	2.5	/experiments/knapen_AOT/AOT_stimuli/rescaled_final/0729_rv.mp4	0.0	211.89071607589722	0.09998798370361328
31	155.66466903686523	fix_pre	0		120	29.0	2.5	/experiments/knapen_AOT/AOT_stimuli/rescaled_final/0195_rv.mp4	0.0	211.99070405960083	1.0001599788665771
31	156.24837183952332	pulse	0	t		29.0	2.5	/experiments/knapen_AOT/AOT_stimuli/rescaled_final/0195_rv.mp4	0.0	212.5744068622589	
31	156.6648290157318	movie	1		242	29.0	2.5	/experiments/knapen_AOT/AOT_stimuli/rescaled_final/0195_rv.mp4	0.0	212.9908640384674	2.500602960586548
31	157.84859895706177	pulse	1	t		29.0	2.5	/experiments/knapen_AOT/AOT_stimuli/rescaled_final/0195_rv.mp4	0.0	214.17463397979736	
31	159.16543197631836	fix_post	2		12	29.0	2.5	/experiments/knapen_AOT/AOT_stimuli/rescaled_final/0195_rv.mp4	0.0	215.49146699905396	0.09980201721191406
32	159.26523399353027	fix_pre	0		120	30.0	2.5	/experiments/knapen_AOT/AOT_stimuli/rescaled_final/1935_rv.mp4	0.0	215.59126901626587	1.0001919269561768
32	159.44871187210083	pulse	0	t		30.0	2.5	/experiments/knapen_AOT/AOT_stimuli/rescaled_final/1935_rv.mp4	0.0	215.77474689483643	
32	160.26542592048645	movie	1		242	30.0	2.5	/experiments/knapen_AOT/AOT_stimuli/rescaled_final/1935_rv.mp4	0.0	216.59146094322205	2.492159128189087
32	161.04915595054626	pulse	1	t		30.0	2.5	/experiments/knapen_AOT/AOT_stimuli/rescaled_final/1935_rv.mp4	0.0	217.37519097328186	
32	162.6490020751953	pulse	1	t		30.0	2.5	/experiments/knapen_AOT/AOT_stimuli/rescaled_final/1935_rv.mp4	0.0	218.9750370979309	
32	162.75758504867554	fix_post	2		13	30.0	2.5	/experiments/knapen_AOT/AOT_stimuli/rescaled_final/1935_rv.mp4	0.0	219.08362007141113	0.10816097259521484
33	162.86574602127075	fix_pre	0		119	31.0	2.5	/experiments/knapen_AOT/AOT_stimuli/rescaled_final/0205_rv.mp4	0.0	219.19178104400635	0.9918038845062256
33	163.85754990577698	movie	1		244	31.0	2.5	/experiments/knapen_AOT/AOT_stimuli/rescaled_final/0205_rv.mp4	0.0	220.18358492851257	2.5004169940948486
33	164.24966287612915	pulse	1	t		31.0	2.5	/experiments/knapen_AOT/AOT_stimuli/rescaled_final/0205_rv.mp4	0.0	220.57569789886475	
33	165.8496389389038	pulse	1	t		31.0	2.5	/experiments/knapen_AOT/AOT_stimuli/rescaled_final/0205_rv.mp4	0.0	222.1756739616394	
33	166.35796689987183	fix_post	2		12	31.0	2.5	/experiments/knapen_AOT/AOT_stimuli/rescaled_final/0205_rv.mp4	0.0	222.68400192260742	0.10002493858337402
34	166.4579918384552	fix_pre	0		120	32.0	2.5	/experiments/knapen_AOT/AOT_stimuli/rescaled_final/0081_fw.mp4	0.0	222.7840268611908	1.0001590251922607
34	167.44997692108154	pulse	0	t		32.0	2.5	/experiments/knapen_AOT/AOT_stimuli/rescaled_final/0081_fw.mp4	0.0	223.77601194381714	
34	167.45815086364746	movie	1		243	32.0	2.5	/experiments/knapen_AOT/AOT_stimuli/rescaled_final/0081_fw.mp4	0.0	223.78418588638306	2.5088021755218506
34	169.0506558418274	pulse	1	t		32.0	2.5	/experiments/knapen_AOT/AOT_stimuli/rescaled_final/0081_fw.mp4	0.0	225.376690864563	
34	169.9669530391693	fix_post	2		12	32.0	2.5	/experiments/knapen_AOT/AOT_stimuli/rescaled_final/0081_fw.mp4	0.0	226.2929880619049	0.09994292259216309
35	170.06689596176147	fix_pre	0		117	33.0	2.5	/experiments/knapen_AOT/AOT_stimuli/rescaled_final/0707_fw.mp4	0.0	226.39293098449707	1.0001399517059326
35	170.65054202079773	pulse	0	t		33.0	2.5	/experiments/knapen_AOT/AOT_stimuli/rescaled_final/0707_fw.mp4	0.0	226.97657704353333	
35	171.0670359134674	movie	1		243	33.0	2.5	/experiments/knapen_AOT/AOT_stimuli/rescaled_final/0707_fw.mp4	0.0	227.393070936203	2.50032901763916
35	172.25079703330994	pulse	1	t		33.0	2.5	/experiments/knapen_AOT/AOT_stimuli/rescaled_final/0707_fw.mp4	0.0	228.57683205604553	
35	173.56736493110657	fix_post	2		12	33.0	2.5	/experiments/knapen_AOT/AOT_stimuli/rescaled_final/0707_fw.mp4	0.0	229.89339995384216	0.0999910831451416
36	173.6673560142517	fix_pre	0		120	34.0	2.5	blank	1.0	229.9933910369873	1.0001330375671387
36	173.8508689403534	pulse	0	t		34.0	2.5	blank	1.0	230.176903963089	
36	174.66748905181885	movie	1		300	34.0	2.5	blank	1.0	230.99352407455444	2.500494956970215
36	175.45121598243713	pulse	1	t		34.0	2.5	blank	1.0	231.77725100517273	
36	177.05147194862366	pulse	1	t		34.0	2.5	blank	1.0	233.37750697135925	
36	177.16798400878906	fix_post	2		12	34.0	2.5	blank	1.0	233.49401903152466	0.0999898910522461
37	177.2679738998413	fix_pre	0		120	35.0	2.5	/experiments/knapen_AOT/AOT_stimuli/rescaled_final/1775_rv.mp4	0.0	233.5940089225769	1.0000951290130615
37	178.26806902885437	movie	1		241	35.0	2.5	/experiments/knapen_AOT/AOT_stimuli/rescaled_final/1775_rv.mp4	0.0	234.59410405158997	2.4924099445343018
37	178.65237402915955	pulse	1	t		35.0	2.5	/experiments/knapen_AOT/AOT_stimuli/rescaled_final/1775_rv.mp4	0.0	234.97840905189514	
37	180.25181484222412	pulse	1	t		35.0	2.5	/experiments/knapen_AOT/AOT_stimuli/rescaled_final/1775_rv.mp4	0.0	236.57784986495972	
37	180.76047897338867	fix_post	2		12	35.0	2.5	/experiments/knapen_AOT/AOT_stimuli/rescaled_final/1775_rv.mp4	0.0	237.08651399612427	0.0996549129486084
38	180.86013388633728	fix_pre	0		120	36.0	2.5	/experiments/knapen_AOT/AOT_stimuli/rescaled_final/0239_rv.mp4	0.0	237.18616890907288	1.0002081394195557
38	181.8521330356598	pulse	0	t		36.0	2.5	/experiments/knapen_AOT/AOT_stimuli/rescaled_final/0239_rv.mp4	0.0	238.17816805839539	
38	181.86034202575684	movie	1		244	36.0	2.5	/experiments/knapen_AOT/AOT_stimuli/rescaled_final/0239_rv.mp4	0.0	238.18637704849243	2.5088019371032715
38	183.45280599594116	pulse	1	t		36.0	2.5	/experiments/knapen_AOT/AOT_stimuli/rescaled_final/0239_rv.mp4	0.0	239.77884101867676	
38	184.3691439628601	fix_post	2		12	36.0	2.5	/experiments/knapen_AOT/AOT_stimuli/rescaled_final/0239_rv.mp4	0.0	240.6951789855957	0.09980607032775879
39	184.46895003318787	fix_pre	0		120	37.0	2.5	/experiments/knapen_AOT/AOT_stimuli/rescaled_final/0187_rv.mp4	0.0	240.79498505592346	1.0002009868621826
39	185.0527060031891	pulse	0	t		37.0	2.5	/experiments/knapen_AOT/AOT_stimuli/rescaled_final/0187_rv.mp4	0.0	241.37874102592468	
39	185.46915102005005	movie	1		244	37.0	2.5	/experiments/knapen_AOT/AOT_stimuli/rescaled_final/0187_rv.mp4	0.0	241.79518604278564	2.500339984893799
39	186.6488699913025	pulse	1	t		37.0	2.5	/experiments/knapen_AOT/AOT_stimuli/rescaled_final/0187_rv.mp4	0.0	242.9749050140381	
39	187.96949100494385	fix_post	2		12	37.0	2.5	/experiments/knapen_AOT/AOT_stimuli/rescaled_final/0187_rv.mp4	0.0	244.29552602767944	0.10000205039978027
40	188.06949305534363	fix_pre	0		120	38.0	2.5	/experiments/knapen_AOT/AOT_stimuli/rescaled_final/0949_rv.mp4	0.0	244.39552807807922	1.0001509189605713
40	188.2530448436737	pulse	0	t		38.0	2.5	/experiments/knapen_AOT/AOT_stimuli/rescaled_final/0949_rv.mp4	0.0	244.5790798664093	
40	189.0696439743042	movie	1		243	38.0	2.5	/experiments/knapen_AOT/AOT_stimuli/rescaled_final/0949_rv.mp4	0.0	245.3956789970398	2.5006070137023926
40	189.85334491729736	pulse	1	t		38.0	2.5	/experiments/knapen_AOT/AOT_stimuli/rescaled_final/0949_rv.mp4	0.0	246.17937994003296	
40	191.45341086387634	pulse	1	t		38.0	2.5	/experiments/knapen_AOT/AOT_stimuli/rescaled_final/0949_rv.mp4	0.0	247.77944588661194	
40	191.5702509880066	fix_post	2		12	38.0	2.5	/experiments/knapen_AOT/AOT_stimuli/rescaled_final/0949_rv.mp4	0.0	247.8962860107422	0.09981298446655273
41	191.67006397247314	fix_pre	0		120	39.0	2.5	/experiments/knapen_AOT/AOT_stimuli/rescaled_final/0013_rv.mp4	0.0	247.99609899520874	1.000143051147461
41	192.6702070236206	movie	1		242	39.0	2.5	/experiments/knapen_AOT/AOT_stimuli/rescaled_final/0013_rv.mp4	0.0	248.9962420463562	2.4922289848327637
41	193.05839586257935	pulse	1	t		39.0	2.5	/experiments/knapen_AOT/AOT_stimuli/rescaled_final/0013_rv.mp4	0.0	249.38443088531494	
41	194.6540129184723	pulse	1	t		39.0	2.5	/experiments/knapen_AOT/AOT_stimuli/rescaled_final/0013_rv.mp4	0.0	250.98004794120789	
41	195.16243600845337	fix_post	2		12	39.0	2.5	/experiments/knapen_AOT/AOT_stimuli/rescaled_final/0013_rv.mp4	0.0	251.48847103118896	0.09984588623046875
42	195.26228189468384	fix_pre	0		120	40.0	2.5	/experiments/knapen_AOT/AOT_stimuli/rescaled_final/1716_rv.mp4	0.0	251.58831691741943	1.000162124633789
42	196.25433707237244	pulse	0	t		40.0	2.5	/experiments/knapen_AOT/AOT_stimuli/rescaled_final/1716_rv.mp4	0.0	252.58037209510803	
42	196.26244401931763	movie	1		243	40.0	2.5	/experiments/knapen_AOT/AOT_stimuli/rescaled_final/1716_rv.mp4	0.0	252.58847904205322	2.5087850093841553
42	197.8560390472412	pulse	1	t		40.0	2.5	/experiments/knapen_AOT/AOT_stimuli/rescaled_final/1716_rv.mp4	0.0	254.1820740699768	
42	198.77122902870178	fix_post	2		12	40.0	2.5	/experiments/knapen_AOT/AOT_stimuli/rescaled_final/1716_rv.mp4	0.0	255.09726405143738	0.09993386268615723
43	198.87116289138794	fix_pre	0		120	41.0	2.5	/experiments/knapen_AOT/AOT_stimuli/rescaled_final/0568_rv.mp4	0.0	255.19719791412354	1.0001471042633057
43	199.44714999198914	pulse	0	t		41.0	2.5	/experiments/knapen_AOT/AOT_stimuli/rescaled_final/0568_rv.mp4	0.0	255.77318501472473	
43	199.87130999565125	movie	1		242	41.0	2.5	/experiments/knapen_AOT/AOT_stimuli/rescaled_final/0568_rv.mp4	0.0	256.19734501838684	2.500441074371338
43	201.04714703559875	pulse	1	t		41.0	2.5	/experiments/knapen_AOT/AOT_stimuli/rescaled_final/0568_rv.mp4	0.0	257.37318205833435	
43	202.37175107002258	fix_post	2		12	41.0	2.5	/experiments/knapen_AOT/AOT_stimuli/rescaled_final/0568_rv.mp4	0.0	258.6977860927582	0.09993791580200195
44	202.47168898582458	fix_pre	0		120	42.0	2.5	blank	1.0	258.7977240085602	1.0001718997955322
44	202.6476058959961	pulse	0	t		42.0	2.5	blank	1.0	258.9736409187317	
44	203.47186088562012	movie	1		300	42.0	2.5	blank	1.0	259.7978959083557	2.5003671646118164
44	204.2472219467163	pulse	1	t		42.0	2.5	blank	1.0	260.5732569694519	
44	205.8473289012909	pulse	1	t		42.0	2.5	blank	1.0	262.1733639240265	
44	205.97222805023193	fix_post	2		12	42.0	2.5	blank	1.0	262.29826307296753	0.10000801086425781
45	206.0722360610962	fix_pre	0		120	43.0	2.5	/experiments/knapen_AOT/AOT_stimuli/rescaled_final/0069_fw.mp4	0.0	262.3982710838318	1.0001258850097656
45	207.07236194610596	movie	1		243	43.0	2.5	/experiments/knapen_AOT/AOT_stimuli/rescaled_final/0069_fw.mp4	0.0	263.39839696884155	2.4920520782470703
45	207.4475438594818	pulse	1	t		43.0	2.5	/experiments/knapen_AOT/AOT_stimuli/rescaled_final/0069_fw.mp4	0.0	263.7735788822174	
45	209.04790091514587	pulse	1	t		43.0	2.5	/experiments/knapen_AOT/AOT_stimuli/rescaled_final/0069_fw.mp4	0.0	265.37393593788147	
45	209.56441402435303	fix_post	2		12	43.0	2.5	/experiments/knapen_AOT/AOT_stimuli/rescaled_final/0069_fw.mp4	0.0	265.8904490470886	0.1000068187713623
46	209.6644208431244	fix_pre	0		119	44.0	2.5	/experiments/knapen_AOT/AOT_stimuli/rescaled_final/1061_fw.mp4	0.0	265.99045586586	0.991873025894165
46	210.64815187454224	pulse	0	t		44.0	2.5	/experiments/knapen_AOT/AOT_stimuli/rescaled_final/1061_fw.mp4	0.0	266.97418689727783	
46	210.65629386901855	movie	1		244	44.0	2.5	/experiments/knapen_AOT/AOT_stimuli/rescaled_final/1061_fw.mp4	0.0	266.98232889175415	2.5086381435394287
46	212.24983096122742	pulse	1	t		44.0	2.5	/experiments/knapen_AOT/AOT_stimuli/rescaled_final/1061_fw.mp4	0.0	268.575865983963	
46	213.16493201255798	fix_post	2		12	44.0	2.5	/experiments/knapen_AOT/AOT_stimuli/rescaled_final/1061_fw.mp4	0.0	269.4909670352936	0.10004305839538574
47	213.26497507095337	fix_pre	0		120	45.0	2.5	/experiments/knapen_AOT/AOT_stimuli/rescaled_final/1937_fw.mp4	0.0	269.59101009368896	1.000126838684082
47	213.84854102134705	pulse	0	t		45.0	2.5	/experiments/knapen_AOT/AOT_stimuli/rescaled_final/1937_fw.mp4	0.0	270.17457604408264	
47	214.26510190963745	movie	1		243	45.0	2.5	/experiments/knapen_AOT/AOT_stimuli/rescaled_final/1937_fw.mp4	0.0	270.59113693237305	2.500540018081665
47	215.44881105422974	pulse	1	t		45.0	2.5	/experiments/knapen_AOT/AOT_stimuli/rescaled_final/1937_fw.mp4	0.0	271.77484607696533	
47	216.76564192771912	fix_post	2		12	45.0	2.5	/experiments/knapen_AOT/AOT_stimuli/rescaled_final/1937_fw.mp4	0.0	273.0916769504547	0.09983992576599121
48	216.8654818534851	fix_pre	0		120	46.0	2.5	/experiments/knapen_AOT/AOT_stimuli/rescaled_final/1086_rv.mp4	0.0	273.1915168762207	1.0001380443572998
48	217.04908299446106	pulse	0	t		46.0	2.5	/experiments/knapen_AOT/AOT_stimuli/rescaled_final/1086_rv.mp4	0.0	273.37511801719666	
48	217.8656198978424	movie	1		243	46.0	2.5	/experiments/knapen_AOT/AOT_stimuli/rescaled_final/1086_rv.mp4	0.0	274.191654920578	2.50058913230896
48	218.64932703971863	pulse	1	t		46.0	2.5	/experiments/knapen_AOT/AOT_stimuli/rescaled_final/1086_rv.mp4	0.0	274.9753620624542	
48	220.25020098686218	pulse	1	t		46.0	2.5	/experiments/knapen_AOT/AOT_stimuli/rescaled_final/1086_rv.mp4	0.0	276.5762360095978	
48	220.36620903015137	fix_post	2		12	46.0	2.5	/experiments/knapen_AOT/AOT_stimuli/rescaled_final/1086_rv.mp4	0.0	276.69224405288696	0.09984087944030762
49	220.46604990959167	fix_pre	0		120	47.0	2.5	/experiments/knapen_AOT/AOT_stimuli/rescaled_final/2000_fw.mp4	0.0	276.79208493232727	1.0001001358032227
49	221.4661500453949	movie	1		241	47.0	2.5	/experiments/knapen_AOT/AOT_stimuli/rescaled_final/2000_fw.mp4	0.0	277.7921850681305	2.4921998977661133
49	221.85023283958435	pulse	1	t		47.0	2.5	/experiments/knapen_AOT/AOT_stimuli/rescaled_final/2000_fw.mp4	0.0	278.17626786231995	
49	223.45005202293396	pulse	1	t		47.0	2.5	/experiments/knapen_AOT/AOT_stimuli/rescaled_final/2000_fw.mp4	0.0	279.77608704566956	
49	223.958349943161	fix_post	2		12	47.0	2.5	/experiments/knapen_AOT/AOT_stimuli/rescaled_final/2000_fw.mp4	0.0	280.2843849658966	0.09983491897583008
50	224.05818486213684	fix_pre	0		120	48.0	2.5	blank	1.0	280.38421988487244	1.0001490116119385
50	225.05033588409424	pulse	0	t		48.0	2.5	blank	1.0	281.37637090682983	
50	225.05833387374878	movie	1		301	48.0	2.5	blank	1.0	281.3843688964844	2.5087130069732666
50	226.65048503875732	pulse	1	t		48.0	2.5	blank	1.0	282.9765200614929	
50	227.56704688072205	fix_post	2		12	48.0	2.5	blank	1.0	283.89308190345764	0.10007119178771973
51	227.66711807250977	fix_pre	0		120	49.0	2.5	/experiments/knapen_AOT/AOT_stimuli/rescaled_final/1861_fw.mp4	0.0	283.99315309524536	1.0001568794250488
51	228.25061988830566	pulse	0	t		49.0	2.5	/experiments/knapen_AOT/AOT_stimuli/rescaled_final/1861_fw.mp4	0.0	284.57665491104126	
51	228.66727495193481	movie	1		242	49.0	2.5	/experiments/knapen_AOT/AOT_stimuli/rescaled_final/1861_fw.mp4	0.0	284.9933099746704	2.500446081161499
51	229.8511040210724	pulse	1	t		49.0	2.5	/experiments/knapen_AOT/AOT_stimuli/rescaled_final/1861_fw.mp4	0.0	286.177139043808	
51	231.1677210330963	fix_post	2		12	49.0	2.5	/experiments/knapen_AOT/AOT_stimuli/rescaled_final/1861_fw.mp4	0.0	287.4937560558319	0.09989500045776367
52	231.26761603355408	fix_pre	0		120	50.0	2.5	/experiments/knapen_AOT/AOT_stimuli/rescaled_final/1308_rv.mp4	0.0	287.5936510562897	1.00016188621521
52	231.45129799842834	pulse	0	t		50.0	2.5	/experiments/knapen_AOT/AOT_stimuli/rescaled_final/1308_rv.mp4	0.0	287.77733302116394	
52	232.2677779197693	movie	1		243	50.0	2.5	/experiments/knapen_AOT/AOT_stimuli/rescaled_final/1308_rv.mp4	0.0	288.5938129425049	2.500594139099121
52	233.05142784118652	pulse	1	t		50.0	2.5	/experiments/knapen_AOT/AOT_stimuli/rescaled_final/1308_rv.mp4	0.0	289.3774628639221	
52	234.65162897109985	pulse	1	t		50.0	2.5	/experiments/knapen_AOT/AOT_stimuli/rescaled_final/1308_rv.mp4	0.0	290.97766399383545	
52	234.7683720588684	fix_post	2		12	50.0	2.5	/experiments/knapen_AOT/AOT_stimuli/rescaled_final/1308_rv.mp4	0.0	291.094407081604	0.09984278678894043
53	234.86821484565735	fix_pre	0		120	51.0	2.5	/experiments/knapen_AOT/AOT_stimuli/rescaled_final/0729_fw.mp4	0.0	291.19424986839294	1.0001411437988281
53	235.86835598945618	movie	1		236	51.0	2.5	/experiments/knapen_AOT/AOT_stimuli/rescaled_final/0729_fw.mp4	0.0	292.1943910121918	2.492116928100586
53	236.25301790237427	pulse	1	t		51.0	2.5	/experiments/knapen_AOT/AOT_stimuli/rescaled_final/0729_fw.mp4	0.0	292.57905292510986	
53	237.852215051651	pulse	1	t		51.0	2.5	/experiments/knapen_AOT/AOT_stimuli/rescaled_final/0729_fw.mp4	0.0	294.1782500743866	
53	238.36047291755676	fix_post	2		12	51.0	2.5	/experiments/knapen_AOT/AOT_stimuli/rescaled_final/0729_fw.mp4	0.0	294.68650794029236	0.09991693496704102
54	238.4603898525238	fix_pre	0		120	52.0	2.5	/experiments/knapen_AOT/AOT_stimuli/rescaled_final/2171_rv.mp4	0.0	294.7864248752594	1.0001020431518555
54	239.452467918396	pulse	0	t		52.0	2.5	/experiments/knapen_AOT/AOT_stimuli/rescaled_final/2171_rv.mp4	0.0	295.7785029411316	
54	239.46049189567566	movie	1		243	52.0	2.5	/experiments/knapen_AOT/AOT_stimuli/rescaled_final/2171_rv.mp4	0.0	295.78652691841125	2.5087530612945557
54	241.05327105522156	pulse	1	t		52.0	2.5	/experiments/knapen_AOT/AOT_stimuli/rescaled_final/2171_rv.mp4	0.0	297.37930607795715	
54	241.96924495697021	fix_post	2		12	52.0	2.5	/experiments/knapen_AOT/AOT_stimuli/rescaled_final/2171_rv.mp4	0.0	298.2952799797058	0.10000205039978027
55	242.06924700737	fix_pre	0		120	53.0	2.5	/experiments/knapen_AOT/AOT_stimuli/rescaled_final/1184_rv.mp4	0.0	298.3952820301056	1.000128984451294
55	242.65282201766968	pulse	0	t		53.0	2.5	/experiments/knapen_AOT/AOT_stimuli/rescaled_final/1184_rv.mp4	0.0	298.9788570404053	
55	243.0693759918213	movie	1		243	53.0	2.5	/experiments/knapen_AOT/AOT_stimuli/rescaled_final/1184_rv.mp4	0.0	299.3954110145569	2.500520944595337
55	244.25327897071838	pulse	1	t		53.0	2.5	/experiments/knapen_AOT/AOT_stimuli/rescaled_final/1184_rv.mp4	0.0	300.579313993454	
55	245.56989693641663	fix_post	2		12	53.0	2.5	/experiments/knapen_AOT/AOT_stimuli/rescaled_final/1184_rv.mp4	0.0	301.8959319591522	0.09990811347961426
56	245.66980504989624	fix_pre	0		120	54.0	2.5	blank	1.0	301.99584007263184	1.000105857849121
56	245.85343503952026	pulse	0	t		54.0	2.5	blank	1.0	302.17947006225586	
56	246.66991090774536	movie	1		300	54.0	2.5	blank	1.0	302.99594593048096	2.500452995300293
56	247.45356106758118	pulse	1	t		54.0	2.5	blank	1.0	303.7795960903168	
56	249.0537610054016	pulse	1	t		54.0	2.5	blank	1.0	305.3797960281372	
56	249.17036390304565	fix_post	2		12	54.0	2.5	blank	1.0	305.49639892578125	0.09998297691345215
57	249.2703468799591	fix_pre	0		120	55.0	2.5	/experiments/knapen_AOT/AOT_stimuli/rescaled_final/1739_rv.mp4	0.0	305.5963819026947	1.0001521110534668
57	250.27049899101257	movie	1		241	55.0	2.5	/experiments/knapen_AOT/AOT_stimuli/rescaled_final/1739_rv.mp4	0.0	306.59653401374817	2.4920780658721924
57	250.65450191497803	pulse	1	t		55.0	2.5	/experiments/knapen_AOT/AOT_stimuli/rescaled_final/1739_rv.mp4	0.0	306.9805369377136	
57	252.2544128894806	pulse	1	t		55.0	2.5	/experiments/knapen_AOT/AOT_stimuli/rescaled_final/1739_rv.mp4	0.0	308.5804479122162	
57	252.76257705688477	fix_post	2		12	55.0	2.5	/experiments/knapen_AOT/AOT_stimuli/rescaled_final/1739_rv.mp4	0.0	309.08861207962036	0.09993481636047363
58	252.86251187324524	fix_pre	0		120	56.0	2.5	/experiments/knapen_AOT/AOT_stimuli/rescaled_final/1066_rv.mp4	0.0	309.18854689598083	1.0001330375671387
58	253.85463190078735	pulse	0	t		56.0	2.5	/experiments/knapen_AOT/AOT_stimuli/rescaled_final/1066_rv.mp4	0.0	310.18066692352295	
58	253.86264491081238	movie	1		244	56.0	2.5	/experiments/knapen_AOT/AOT_stimuli/rescaled_final/1066_rv.mp4	0.0	310.188679933548	2.508829116821289
58	255.4554488658905	pulse	1	t		56.0	2.5	/experiments/knapen_AOT/AOT_stimuli/rescaled_final/1066_rv.mp4	0.0	311.7814838886261	
58	256.37147402763367	fix_post	2		12	56.0	2.5	/experiments/knapen_AOT/AOT_stimuli/rescaled_final/1066_rv.mp4	0.0	312.69750905036926	0.09994292259216309
59	256.47141695022583	fix_pre	0		120	57.0	2.5	/experiments/knapen_AOT/AOT_stimuli/rescaled_final/1432_fw.mp4	0.0	312.7974519729614	1.0001060962677002
59	257.0474588871002	pulse	0	t		57.0	2.5	/experiments/knapen_AOT/AOT_stimuli/rescaled_final/1432_fw.mp4	0.0	313.3734939098358	
59	257.47152304649353	movie	1		243	57.0	2.5	/experiments/knapen_AOT/AOT_stimuli/rescaled_final/1432_fw.mp4	0.0	313.7975580692291	2.5005478858947754
59	258.64742398262024	pulse	1	t		57.0	2.5	/experiments/knapen_AOT/AOT_stimuli/rescaled_final/1432_fw.mp4	0.0	314.97345900535583	
59	259.9720709323883	fix_post	2		12	57.0	2.5	/experiments/knapen_AOT/AOT_stimuli/rescaled_final/1432_fw.mp4	0.0	316.2981059551239	0.09990692138671875
60	260.071977853775	fix_pre	0		120	58.0	2.5	/experiments/knapen_AOT/AOT_stimuli/rescaled_final/1413_fw.mp4	0.0	316.3980128765106	1.0001270771026611
60	260.24711298942566	pulse	0	t		58.0	2.5	/experiments/knapen_AOT/AOT_stimuli/rescaled_final/1413_fw.mp4	0.0	316.57314801216125	
60	261.0721049308777	movie	1		244	58.0	2.5	/experiments/knapen_AOT/AOT_stimuli/rescaled_final/1413_fw.mp4	0.0	317.3981399536133	2.5003960132598877
60	261.84738302230835	pulse	1	t		58.0	2.5	/experiments/knapen_AOT/AOT_stimuli/rescaled_final/1413_fw.mp4	0.0	318.17341804504395	
60	263.44766306877136	pulse	1	t		58.0	2.5	/experiments/knapen_AOT/AOT_stimuli/rescaled_final/1413_fw.mp4	0.0	319.77369809150696	
60	263.5725009441376	fix_post	2		12	58.0	2.5	/experiments/knapen_AOT/AOT_stimuli/rescaled_final/1413_fw.mp4	0.0	319.89853596687317	0.10002899169921875
61	263.6725299358368	fix_pre	0		120	59.0	2.5	/experiments/knapen_AOT/AOT_stimuli/rescaled_final/2159_rv.mp4	0.0	319.9985649585724	1.00006103515625
61	264.67259097099304	movie	1		241	59.0	2.5	/experiments/knapen_AOT/AOT_stimuli/rescaled_final/2159_rv.mp4	0.0	320.99862599372864	2.492182970046997
61	265.04778504371643	pulse	1	t		59.0	2.5	/experiments/knapen_AOT/AOT_stimuli/rescaled_final/2159_rv.mp4	0.0	321.373820066452	
61	266.6482949256897	pulse	1	t		59.0	2.5	/experiments/knapen_AOT/AOT_stimuli/rescaled_final/2159_rv.mp4	0.0	322.9743299484253	
61	267.16477394104004	fix_post	2		12	59.0	2.5	/experiments/knapen_AOT/AOT_stimuli/rescaled_final/2159_rv.mp4	0.0	323.49080896377563	0.09988212585449219
62	267.26465606689453	fix_pre	0		119	60.0	2.5	/experiments/knapen_AOT/AOT_stimuli/rescaled_final/2070_fw.mp4	0.0	323.5906910896301	0.9918129444122314
62	268.2482750415802	pulse	0	t		60.0	2.5	/experiments/knapen_AOT/AOT_stimuli/rescaled_final/2070_fw.mp4	0.0	324.5743100643158	
62	268.25646901130676	movie	1		245	60.0	2.5	/experiments/knapen_AOT/AOT_stimuli/rescaled_final/2070_fw.mp4	0.0	324.58250403404236	2.508784055709839
62	269.84980487823486	pulse	1	t		60.0	2.5	/experiments/knapen_AOT/AOT_stimuli/rescaled_final/2070_fw.mp4	0.0	326.17583990097046	
62	270.7652530670166	fix_post	2		12	60.0	2.5	/experiments/knapen_AOT/AOT_stimuli/rescaled_final/2070_fw.mp4	0.0	327.0912880897522	0.09995293617248535
63	270.8652060031891	fix_pre	0		120	61.0	2.5	blank	1.0	327.1912410259247	1.0001859664916992
63	271.4487268924713	pulse	0	t		61.0	2.5	blank	1.0	327.7747619152069	
63	271.8653919696808	movie	1		300	61.0	2.5	blank	1.0	328.1914269924164	2.5003180503845215
63	273.0491089820862	pulse	1	t		61.0	2.5	blank	1.0	329.3751440048218	
63	274.3657100200653	fix_post	2		12	61.0	2.5	blank	1.0	330.6917450428009	0.10003805160522461
64	274.46574807167053	fix_pre	0		120	62.0	2.5	/experiments/knapen_AOT/AOT_stimuli/rescaled_final/1033_fw.mp4	0.0	330.7917830944061	1.000135898590088
64	274.6493010520935	pulse	0	t		62.0	2.5	/experiments/knapen_AOT/AOT_stimuli/rescaled_final/1033_fw.mp4	0.0	330.9753360748291	
64	275.4658839702606	movie	1		242	62.0	2.5	/experiments/knapen_AOT/AOT_stimuli/rescaled_final/1033_fw.mp4	0.0	331.7919189929962	2.5006730556488037
64	276.2495229244232	pulse	1	t		62.0	2.5	/experiments/knapen_AOT/AOT_stimuli/rescaled_final/1033_fw.mp4	0.0	332.5755579471588	
64	277.8498408794403	pulse	1	t		62.0	2.5	/experiments/knapen_AOT/AOT_stimuli/rescaled_final/1033_fw.mp4	0.0	334.1758759021759	
64	277.9665570259094	fix_post	2		12	62.0	2.5	/experiments/knapen_AOT/AOT_stimuli/rescaled_final/1033_fw.mp4	0.0	334.292592048645	0.09972000122070312
65	278.0662770271301	fix_pre	0		120	63.0	2.5	/experiments/knapen_AOT/AOT_stimuli/rescaled_final/2018_rv.mp4	0.0	334.3923120498657	1.0001778602600098
65	279.06645488739014	movie	1		242	63.0	2.5	/experiments/knapen_AOT/AOT_stimuli/rescaled_final/2018_rv.mp4	0.0	335.39248991012573	2.492042064666748
65	279.45114493370056	pulse	1	t		63.0	2.5	/experiments/knapen_AOT/AOT_stimuli/rescaled_final/2018_rv.mp4	0.0	335.77717995643616	
65	281.0502099990845	pulse	1	t		63.0	2.5	/experiments/knapen_AOT/AOT_stimuli/rescaled_final/2018_rv.mp4	0.0	337.37624502182007	
65	281.5584969520569	fix_post	2		12	63.0	2.5	/experiments/knapen_AOT/AOT_stimuli/rescaled_final/2018_rv.mp4	0.0	337.8845319747925	0.10005998611450195
66	281.6585569381714	fix_pre	0		120	64.0	2.5	/experiments/knapen_AOT/AOT_stimuli/rescaled_final/1951_fw.mp4	0.0	337.984591960907	1.0000319480895996
66	282.6505630016327	pulse	0	t		64.0	2.5	/experiments/knapen_AOT/AOT_stimuli/rescaled_final/1951_fw.mp4	0.0	338.9765980243683	
66	282.658588886261	movie	1		243	64.0	2.5	/experiments/knapen_AOT/AOT_stimuli/rescaled_final/1951_fw.mp4	0.0	338.9846239089966	2.5087549686431885
66	284.25110697746277	pulse	1	t		64.0	2.5	/experiments/knapen_AOT/AOT_stimuli/rescaled_final/1951_fw.mp4	0.0	340.57714200019836	
66	285.1673438549042	fix_post	2		12	64.0	2.5	/experiments/knapen_AOT/AOT_stimuli/rescaled_final/1951_fw.mp4	0.0	341.49337887763977	0.10002517700195312
67	285.2673690319061	fix_pre	0		120	65.0	2.5	/experiments/knapen_AOT/AOT_stimuli/rescaled_final/1098_fw.mp4	0.0	341.5934040546417	1.0001139640808105
67	285.85093998908997	pulse	0	t		65.0	2.5	/experiments/knapen_AOT/AOT_stimuli/rescaled_final/1098_fw.mp4	0.0	342.17697501182556	
67	286.26748299598694	movie	1		244	65.0	2.5	/experiments/knapen_AOT/AOT_stimuli/rescaled_final/1098_fw.mp4	0.0	342.59351801872253	2.500412940979004
67	287.45121598243713	pulse	1	t		65.0	2.5	/experiments/knapen_AOT/AOT_stimuli/rescaled_final/1098_fw.mp4	0.0	343.77725100517273	
67	288.76789593696594	fix_post	2		12	65.0	2.5	/experiments/knapen_AOT/AOT_stimuli/rescaled_final/1098_fw.mp4	0.0	345.09393095970154	0.0999760627746582
68	288.8678719997406	fix_pre	0		120	66.0	2.5	/experiments/knapen_AOT/AOT_stimuli/rescaled_final/0025_rv.mp4	0.0	345.1939070224762	1.0002150535583496
68	289.05150604248047	pulse	0	t		66.0	2.5	/experiments/knapen_AOT/AOT_stimuli/rescaled_final/0025_rv.mp4	0.0	345.37754106521606	
68	289.86808705329895	movie	1		243	66.0	2.5	/experiments/knapen_AOT/AOT_stimuli/rescaled_final/0025_rv.mp4	0.0	346.19412207603455	2.5005087852478027
68	290.6516809463501	pulse	1	t		66.0	2.5	/experiments/knapen_AOT/AOT_stimuli/rescaled_final/0025_rv.mp4	0.0	346.9777159690857	
68	292.2518858909607	pulse	1	t		66.0	2.5	/experiments/knapen_AOT/AOT_stimuli/rescaled_final/0025_rv.mp4	0.0	348.5779209136963	
68	292.36859583854675	fix_post	2		12	66.0	2.5	/experiments/knapen_AOT/AOT_stimuli/rescaled_final/0025_rv.mp4	0.0	348.69463086128235	0.09985113143920898
69	292.46844696998596	fix_pre	0		120	67.0	2.5	/experiments/knapen_AOT/AOT_stimuli/rescaled_final/0261_fw.mp4	0.0	348.79448199272156	1.0001220703125
69	293.46856904029846	movie	1		243	67.0	2.5	/experiments/knapen_AOT/AOT_stimuli/rescaled_final/0261_fw.mp4	0.0	349.79460406303406	2.4920339584350586
69	293.8526749610901	pulse	1	t		67.0	2.5	/experiments/knapen_AOT/AOT_stimuli/rescaled_final/0261_fw.mp4	0.0	350.1787099838257	
69	295.45242404937744	pulse	1	t		67.0	2.5	/experiments/knapen_AOT/AOT_stimuli/rescaled_final/0261_fw.mp4	0.0	351.77845907211304	
69	295.9606029987335	fix_post	2		12	67.0	2.5	/experiments/knapen_AOT/AOT_stimuli/rescaled_final/0261_fw.mp4	0.0	352.2866380214691	0.1000058650970459
70	296.06060886383057	fix_pre	0		120	68.0	2.5	blank	1.0	352.38664388656616	1.0002491474151611
70	297.0526418685913	pulse	0	t		68.0	2.5	blank	1.0	353.3786768913269	
70	297.0608580112457	movie	1		301	68.0	2.5	blank	1.0	353.3868930339813	2.5086429119110107
70	298.6528379917145	pulse	1	t		68.0	2.5	blank	1.0	354.9788730144501	
70	299.56950092315674	fix_post	2		12	68.0	2.5	blank	1.0	355.89553594589233	0.1000211238861084
71	299.66952204704285	fix_pre	0		120	69.0	2.5	/experiments/knapen_AOT/AOT_stimuli/rescaled_final/0803_rv.mp4	0.0	355.99555706977844	1.000121831893921
71	300.2531979084015	pulse	0	t		69.0	2.5	/experiments/knapen_AOT/AOT_stimuli/rescaled_final/0803_rv.mp4	0.0	356.5792329311371	
71	300.66964387893677	movie	1		242	69.0	2.5	/experiments/knapen_AOT/AOT_stimuli/rescaled_final/0803_rv.mp4	0.0	356.99567890167236	2.500490188598633
71	301.8494770526886	pulse	1	t		69.0	2.5	/experiments/knapen_AOT/AOT_stimuli/rescaled_final/0803_rv.mp4	0.0	358.1755120754242	
71	303.1701340675354	fix_post	2		12	69.0	2.5	/experiments/knapen_AOT/AOT_stimuli/rescaled_final/0803_rv.mp4	0.0	359.496169090271	0.09990096092224121
72	303.27003502845764	fix_pre	0		120	70.0	2.5	/experiments/knapen_AOT/AOT_stimuli/rescaled_final/1333_rv.mp4	0.0	359.59607005119324	1.0001459121704102
72	303.45359086990356	pulse	0	t		70.0	2.5	/experiments/knapen_AOT/AOT_stimuli/rescaled_final/1333_rv.mp4	0.0	359.77962589263916	
72	304.27018094062805	movie	1		239	70.0	2.5	/experiments/knapen_AOT/AOT_stimuli/rescaled_final/1333_rv.mp4	0.0	360.59621596336365	2.5003700256347656
72	305.0539040565491	pulse	1	t		70.0	2.5	/experiments/knapen_AOT/AOT_stimuli/rescaled_final/1333_rv.mp4	0.0	361.37993907928467	
72	306.6541590690613	pulse	1	t		70.0	2.5	/experiments/knapen_AOT/AOT_stimuli/rescaled_final/1333_rv.mp4	0.0	362.9801940917969	
72	306.7705509662628	fix_post	2		12	70.0	2.5	/experiments/knapen_AOT/AOT_stimuli/rescaled_final/1333_rv.mp4	0.0	363.0965859889984	0.09999394416809082
73	306.8705449104309	fix_pre	0		120	71.0	2.5	/experiments/knapen_AOT/AOT_stimuli/rescaled_final/2146_rv.mp4	0.0	363.1965799331665	1.0001821517944336
73	307.87072706222534	movie	1		242	71.0	2.5	/experiments/knapen_AOT/AOT_stimuli/rescaled_final/2146_rv.mp4	0.0	364.19676208496094	2.492241859436035
73	308.2583599090576	pulse	1	t		71.0	2.5	/experiments/knapen_AOT/AOT_stimuli/rescaled_final/2146_rv.mp4	0.0	364.5843949317932	
73	309.8545310497284	pulse	1	t		71.0	2.5	/experiments/knapen_AOT/AOT_stimuli/rescaled_final/2146_rv.mp4	0.0	366.180566072464	
73	310.3629689216614	fix_post	2		12	71.0	2.5	/experiments/knapen_AOT/AOT_stimuli/rescaled_final/2146_rv.mp4	0.0	366.689003944397	0.0998079776763916
74	310.46277689933777	fix_pre	0		120	72.0	2.5	/experiments/knapen_AOT/AOT_stimuli/rescaled_final/0026_fw.mp4	0.0	366.78881192207336	1.0001740455627441
74	311.4548020362854	pulse	0	t		72.0	2.5	/experiments/knapen_AOT/AOT_stimuli/rescaled_final/0026_fw.mp4	0.0	367.780837059021	
74	311.4629509449005	movie	1		245	72.0	2.5	/experiments/knapen_AOT/AOT_stimuli/rescaled_final/0026_fw.mp4	0.0	367.7889859676361	2.5087039470672607
74	313.0554940700531	pulse	1	t		72.0	2.5	/experiments/knapen_AOT/AOT_stimuli/rescaled_final/0026_fw.mp4	0.0	369.3815290927887	
74	313.9716548919678	fix_post	2		12	72.0	2.5	/experiments/knapen_AOT/AOT_stimuli/rescaled_final/0026_fw.mp4	0.0	370.29768991470337	0.10000014305114746
75	314.0716550350189	fix_pre	0		120	73.0	2.5	/experiments/knapen_AOT/AOT_stimuli/rescaled_final/0812_rv.mp4	0.0	370.3976900577545	1.0001699924468994
75	314.6477429866791	pulse	0	t		73.0	2.5	/experiments/knapen_AOT/AOT_stimuli/rescaled_final/0812_rv.mp4	0.0	370.9737780094147	
75	315.0718250274658	movie	1		242	73.0	2.5	/experiments/knapen_AOT/AOT_stimuli/rescaled_final/0812_rv.mp4	0.0	371.3978600502014	2.5004899501800537
75	316.24787402153015	pulse	1	t		73.0	2.5	/experiments/knapen_AOT/AOT_stimuli/rescaled_final/0812_rv.mp4	0.0	372.57390904426575	
75	317.5723149776459	fix_post	2		12	73.0	2.5	/experiments/knapen_AOT/AOT_stimuli/rescaled_final/0812_rv.mp4	0.0	373.89835000038147	0.09988594055175781
76	317.67220091819763	fix_pre	0		120	74.0	2.5	/experiments/knapen_AOT/AOT_stimuli/rescaled_final/1671_fw.mp4	0.0	373.9982359409332	1.0001039505004883
76	317.84812688827515	pulse	0	t		74.0	2.5	/experiments/knapen_AOT/AOT_stimuli/rescaled_final/1671_fw.mp4	0.0	374.17416191101074	
76	318.6723048686981	movie	1		243	74.0	2.5	/experiments/knapen_AOT/AOT_stimuli/rescaled_final/1671_fw.mp4	0.0	374.9983398914337	2.5004019737243652
76	319.4476659297943	pulse	1	t		74.0	2.5	/experiments/knapen_AOT/AOT_stimuli/rescaled_final/1671_fw.mp4	0.0	375.7737009525299	
76	321.0477659702301	pulse	1	t		74.0	2.5	/experiments/knapen_AOT/AOT_stimuli/rescaled_final/1671_fw.mp4	0.0	377.3738009929657	
76	321.1727068424225	fix_post	2		12	74.0	2.5	/experiments/knapen_AOT/AOT_stimuli/rescaled_final/1671_fw.mp4	0.0	377.4987418651581	0.10002613067626953
77	321.27273297309875	fix_pre	0		120	75.0	2.5	/experiments/knapen_AOT/AOT_stimuli/rescaled_final/1324_rv.mp4	0.0	377.59876799583435	1.000133991241455
77	322.2728669643402	movie	1		241	75.0	2.5	/experiments/knapen_AOT/AOT_stimuli/rescaled_final/1324_rv.mp4	0.0	378.5989019870758	2.4921300411224365
77	322.6480779647827	pulse	1	t		75.0	2.5	/experiments/knapen_AOT/AOT_stimuli/rescaled_final/1324_rv.mp4	0.0	378.9741129875183	
77	324.2484378814697	pulse	1	t		75.0	2.5	/experiments/knapen_AOT/AOT_stimuli/rescaled_final/1324_rv.mp4	0.0	380.5744729042053	
77	324.76499700546265	fix_post	2		12	75.0	2.5	/experiments/knapen_AOT/AOT_stimuli/rescaled_final/1324_rv.mp4	0.0	381.09103202819824	0.09996485710144043
78	324.8649618625641	fix_pre	0		119	76.0	2.5	blank	1.0	381.1909968852997	0.9917709827423096
78	325.84854102134705	pulse	0	t		76.0	2.5	blank	1.0	382.17457604408264	
78	325.8567328453064	movie	1		301	76.0	2.5	blank	1.0	382.182767868042	2.508707046508789
78	327.448853969574	pulse	1	t		76.0	2.5	blank	1.0	383.77488899230957	
78	328.3654398918152	fix_post	2		12	76.0	2.5	blank	1.0	384.6914749145508	0.10001301765441895
79	328.4654529094696	fix_pre	0		120	77.0	2.5	/experiments/knapen_AOT/AOT_stimuli/rescaled_final/2083_fw.mp4	0.0	384.7914879322052	1.000148057937622
79	329.04905104637146	pulse	0	t		77.0	2.5	/experiments/knapen_AOT/AOT_stimuli/rescaled_final/2083_fw.mp4	0.0	385.37508606910706	
79	329.4656009674072	movie	1		242	77.0	2.5	/experiments/knapen_AOT/AOT_stimuli/rescaled_final/2083_fw.mp4	0.0	385.7916359901428	2.5006370544433594
79	330.64935207366943	pulse	1	t		77.0	2.5	/experiments/knapen_AOT/AOT_stimuli/rescaled_final/2083_fw.mp4	0.0	386.97538709640503	
79	331.9662380218506	fix_post	2		12	77.0	2.5	/experiments/knapen_AOT/AOT_stimuli/rescaled_final/2083_fw.mp4	0.0	388.2922730445862	0.09974193572998047
80	332.06597995758057	fix_pre	0		120	78.0	2.5	/experiments/knapen_AOT/AOT_stimuli/rescaled_final/1078_rv.mp4	0.0	388.39201498031616	1.00018310546875
80	332.2495639324188	pulse	0	t		78.0	2.5	/experiments/knapen_AOT/AOT_stimuli/rescaled_final/1078_rv.mp4	0.0	388.5755989551544	
80	333.0661630630493	movie	1		242	78.0	2.5	/experiments/knapen_AOT/AOT_stimuli/rescaled_final/1078_rv.mp4	0.0	389.3921980857849	2.5005059242248535
80	333.8497200012207	pulse	1	t		78.0	2.5	/experiments/knapen_AOT/AOT_stimuli/rescaled_final/1078_rv.mp4	0.0	390.1757550239563	
80	335.4499008655548	pulse	1	t		78.0	2.5	/experiments/knapen_AOT/AOT_stimuli/rescaled_final/1078_rv.mp4	0.0	391.7759358882904	
80	335.56666898727417	fix_post	2		12	78.0	2.5	/experiments/knapen_AOT/AOT_stimuli/rescaled_final/1078_rv.mp4	0.0	391.89270401000977	0.09984207153320312
81	335.6665110588074	fix_pre	0		119	79.0	2.5	/experiments/knapen_AOT/AOT_stimuli/rescaled_final/1078_fw.mp4	0.0	391.99254608154297	0.9918239116668701
81	336.65833497047424	movie	1		242	79.0	2.5	/experiments/knapen_AOT/AOT_stimuli/rescaled_final/1078_fw.mp4	0.0	392.98436999320984	2.500523090362549
81	337.0503408908844	pulse	1	t		79.0	2.5	/experiments/knapen_AOT/AOT_stimuli/rescaled_final/1078_fw.mp4	0.0	393.37637591362	
81	338.65046787261963	pulse	1	t		79.0	2.5	/experiments/knapen_AOT/AOT_stimuli/rescaled_final/1078_fw.mp4	0.0	394.9765028953552	
81	339.1588580608368	fix_post	2		12	79.0	2.5	/experiments/knapen_AOT/AOT_stimuli/rescaled_final/1078_fw.mp4	0.0	395.4848930835724	0.09987187385559082
82	339.2587299346924	fix_pre	0		120	80.0	2.5	/experiments/knapen_AOT/AOT_stimuli/rescaled_final/1480_fw.mp4	0.0	395.584764957428	1.000162124633789
82	340.25074887275696	pulse	0	t		80.0	2.5	/experiments/knapen_AOT/AOT_stimuli/rescaled_final/1480_fw.mp4	0.0	396.57678389549255	
82	340.2588920593262	movie	1		244	80.0	2.5	/experiments/knapen_AOT/AOT_stimuli/rescaled_final/1480_fw.mp4	0.0	396.58492708206177	2.5087058544158936
82	341.85154390335083	pulse	1	t		80.0	2.5	/experiments/knapen_AOT/AOT_stimuli/rescaled_final/1480_fw.mp4	0.0	398.1775789260864	
82	342.76759791374207	fix_post	2		12	80.0	2.5	/experiments/knapen_AOT/AOT_stimuli/rescaled_final/1480_fw.mp4	0.0	399.09363293647766	0.09999704360961914
83	342.8675949573517	fix_pre	0		120	81.0	2.5	/experiments/knapen_AOT/AOT_stimuli/rescaled_final/0613_fw.mp4	0.0	399.1936299800873	1.0001769065856934
83	343.45131492614746	pulse	0	t		81.0	2.5	/experiments/knapen_AOT/AOT_stimuli/rescaled_final/0613_fw.mp4	0.0	399.77734994888306	
83	343.8677718639374	movie	1		242	81.0	2.5	/experiments/knapen_AOT/AOT_stimuli/rescaled_final/0613_fw.mp4	0.0	400.193806886673	2.500584125518799
83	345.0516269207001	pulse	1	t		81.0	2.5	/experiments/knapen_AOT/AOT_stimuli/rescaled_final/0613_fw.mp4	0.0	401.37766194343567	
83	346.3683559894562	fix_post	2		12	81.0	2.5	/experiments/knapen_AOT/AOT_stimuli/rescaled_final/0613_fw.mp4	0.0	402.6943910121918	0.09985494613647461
84	346.46821093559265	fix_pre	0		120	82.0	2.5	blank	1.0	402.79424595832825	1.0001261234283447
84	346.65173506736755	pulse	0	t		82.0	2.5	blank	1.0	402.97777009010315	
84	347.468337059021	movie	1		300	82.0	2.5	blank	1.0	403.7943720817566	2.5003349781036377
84	348.2519030570984	pulse	1	t		82.0	2.5	blank	1.0	404.577938079834	
84	349.85224890708923	pulse	1	t		82.0	2.5	blank	1.0	406.17828392982483	
84	349.96867203712463	fix_post	2		12	82.0	2.5	blank	1.0	406.29470705986023	0.09999489784240723
85	350.06866693496704	fix_pre	0		120	83.0	2.5	/experiments/knapen_AOT/AOT_stimuli/rescaled_final/1671_fw.mp4	0.0	406.39470195770264	1.0001740455627441
85	351.0688409805298	movie	1		242	83.0	2.5	/experiments/knapen_AOT/AOT_stimuli/rescaled_final/1671_fw.mp4	0.0	407.3948760032654	2.492076873779297
85	351.4530529975891	pulse	1	t		83.0	2.5	/experiments/knapen_AOT/AOT_stimuli/rescaled_final/1671_fw.mp4	0.0	407.7790880203247	
85	353.0526728630066	pulse	1	t		83.0	2.5	/experiments/knapen_AOT/AOT_stimuli/rescaled_final/1671_fw.mp4	0.0	409.3787078857422	
85	353.5609178543091	fix_post	2		12	83.0	2.5	/experiments/knapen_AOT/AOT_stimuli/rescaled_final/1671_fw.mp4	0.0	409.8869528770447	0.09995508193969727
87	353.6608729362488	stim	0		1716					409.9869079589844	14.302235126495361
87	354.65283489227295	pulse	0	t						410.97886991500854	
87	356.25316405296326	pulse	0	t						412.57919907569885	
87	357.85343289375305	pulse	0	t						414.17946791648865	
87	359.4536769390106	pulse	0	t						415.7797119617462	
87	361.0537328720093	pulse	0	t						417.3797678947449	
87	362.65401887893677	pulse	0	t						418.98005390167236	
87	364.24705505371094	pulse	0	t						420.57309007644653	
87	365.84718799591064	pulse	0	t						422.17322301864624	
87	367.4474799633026	pulse	0	t						423.7735149860382	
