trial_nr	onset	event_type	phase	response	nr_frames	movie_index	movie_duration	movie_file	blank	onset_abs	duration
0	0.14993906021118164	stim	0		125					23.04680609703064	1.041637897491455
0	1.1761178970336914	response	0	space						24.07298493385315	
1	1.1915769577026367	stim	0		3894					24.088443994522095	32.449427127838135
1	33.63800597190857	pulse	0	t						56.53487300872803	
1	33.64100408554077	stim	1		1717					56.53787112236023	14.30866289138794
1	35.2332980632782	pulse	1	t						58.130165100097656	
1	36.83325505256653	pulse	1	t						59.730122089385986	
1	38.433067083358765	pulse	1	t						61.32993412017822	
1	40.03332591056824	pulse	1	t						62.930192947387695	
1	41.633338928222656	pulse	1	t						64.53020596504211	
1	43.23318696022034	pulse	1	t						66.1300539970398	
1	44.83313989639282	pulse	1	t						67.73000693321228	
1	46.433204889297485	pulse	1	t						69.33007192611694	
2	47.94966697692871	fix_pre	0		11	0.0	2.5	/experiments/aot/S_ILSVRC2015_train_00425000.mp4	0.0	70.84653401374817	0.09171509742736816
2	48.03323006629944	pulse	0	t		0.0	2.5	/experiments/aot/S_ILSVRC2015_train_00425000.mp4	0.0	70.9300971031189	
2	48.04138207435608	movie	1		300	0.0	2.5	/experiments/aot/S_ILSVRC2015_train_00425000.mp4	0.0	70.93824911117554	2.5081558227539062
2	49.63289999961853	pulse	1	t		0.0	2.5	/experiments/aot/S_ILSVRC2015_train_00425000.mp4	0.0	72.52976703643799	
2	50.549537897109985	fix_post	2		12	0.0	2.5	/experiments/aot/S_ILSVRC2015_train_00425000.mp4	0.0	73.44640493392944	0.10033607482910156
3	50.64987397193909	fix_pre	0		120	1.0	2.5	/experiments/aot/R_S_flickr-southeasternstar-3464778323_10.mp4	0.0	73.54674100875854	1.0001609325408936
3	51.2334349155426	pulse	0	t		1.0	2.5	/experiments/aot/R_S_flickr-southeasternstar-3464778323_10.mp4	0.0	74.13030195236206	
3	51.65003490447998	movie	1		300	1.0	2.5	/experiments/aot/R_S_flickr-southeasternstar-3464778323_10.mp4	0.0	74.54690194129944	2.499207019805908
3	52.83312010765076	pulse	1	t		1.0	2.5	/experiments/aot/R_S_flickr-southeasternstar-3464778323_10.mp4	0.0	75.72998714447021	
3	54.14924192428589	fix_post	2		12	1.0	2.5	/experiments/aot/R_S_flickr-southeasternstar-3464778323_10.mp4	0.0	77.04610896110535	0.0999610424041748
4	54.24920296669006	fix_pre	0		120	2.0	2.5	/experiments/aot/S_flickr-claywakening-27928940166_2.mp4	0.0	77.14607000350952	1.000441074371338
4	54.43310904502869	pulse	0	t		2.0	2.5	/experiments/aot/S_flickr-claywakening-27928940166_2.mp4	0.0	77.32997608184814	
4	55.2496440410614	movie	1		166	2.0	2.5	/experiments/aot/S_flickr-claywakening-27928940166_2.mp4	0.0	78.14651107788086	2.4999659061431885
4	56.0332190990448	pulse	1	t		2.0	2.5	/experiments/aot/S_flickr-claywakening-27928940166_2.mp4	0.0	78.93008613586426	
4	57.6330840587616	pulse	1	t		2.0	2.5	/experiments/aot/S_flickr-claywakening-27928940166_2.mp4	0.0	80.52995109558105	
4	57.74960994720459	fix_post	2		12	2.0	2.5	/experiments/aot/S_flickr-claywakening-27928940166_2.mp4	0.0	80.64647698402405	0.09994912147521973
5	57.84955906867981	fix_pre	0		120	3.0	2.5	/experiments/aot/R_S_ILSVRC2015_train_00165011.mp4	0.0	80.74642610549927	0.9996440410614014
5	58.84920310974121	movie	1		300	3.0	2.5	/experiments/aot/R_S_ILSVRC2015_train_00165011.mp4	0.0	81.74607014656067	2.5004029273986816
5	59.233078956604004	pulse	1	t		3.0	2.5	/experiments/aot/R_S_ILSVRC2015_train_00165011.mp4	0.0	82.12994599342346	
5	60.833040952682495	pulse	1	t		3.0	2.5	/experiments/aot/R_S_ILSVRC2015_train_00165011.mp4	0.0	83.72990798950195	
5	61.34960603713989	fix_post	2		12	3.0	2.5	/experiments/aot/R_S_ILSVRC2015_train_00165011.mp4	0.0	84.24647307395935	0.10002994537353516
6	61.44963598251343	fix_pre	0		119	4.0	2.5	/experiments/aot/S_yt-pO5SVq-9EhU_114.mp4	0.0	84.34650301933289	0.9915599822998047
6	62.4330940246582	pulse	0	t		4.0	2.5	/experiments/aot/S_yt-pO5SVq-9EhU_114.mp4	0.0	85.32996106147766	
6	62.44119596481323	movie	1		301	4.0	2.5	/experiments/aot/S_yt-pO5SVq-9EhU_114.mp4	0.0	85.33806300163269	2.5083770751953125
6	64.0331540107727	pulse	1	t		4.0	2.5	/experiments/aot/S_yt-pO5SVq-9EhU_114.mp4	0.0	86.93002104759216	
6	64.94957304000854	fix_post	2		12	4.0	2.5	/experiments/aot/S_yt-pO5SVq-9EhU_114.mp4	0.0	87.846440076828	0.10002684593200684
7	65.04959988594055	fix_pre	0		120	5.0	2.5	/experiments/aot/S_yt-F2x6e7e7cAE_70.mp4	0.0	87.94646692276001	0.9999182224273682
7	65.63317394256592	pulse	0	t		5.0	2.5	/experiments/aot/S_yt-F2x6e7e7cAE_70.mp4	0.0	88.53004097938538	
7	66.04951810836792	movie	1		299	5.0	2.5	/experiments/aot/S_yt-F2x6e7e7cAE_70.mp4	0.0	88.94638514518738	2.5001068115234375
7	67.23308300971985	pulse	1	t		5.0	2.5	/experiments/aot/S_yt-F2x6e7e7cAE_70.mp4	0.0	90.1299500465393	
7	68.54962491989136	fix_post	2		12	5.0	2.5	/experiments/aot/S_yt-F2x6e7e7cAE_70.mp4	0.0	91.44649195671082	0.09993815422058105
8	68.64956307411194	fix_pre	0		120	6.0	2.5	blank	1.0	91.5464301109314	0.9999699592590332
8	68.83316206932068	pulse	0	t		6.0	2.5	blank	1.0	91.73002910614014	
8	69.64953303337097	movie	1		300	6.0	2.5	blank	1.0	92.54640007019043	2.500072956085205
8	70.43302607536316	pulse	1	t		6.0	2.5	blank	1.0	93.32989311218262	
8	72.03296089172363	pulse	1	t		6.0	2.5	blank	1.0	94.92982792854309	
8	72.14960598945618	fix_post	2		12	6.0	2.5	blank	1.0	95.04647302627563	0.09998202323913574
9	72.24958801269531	fix_pre	0		120	7.0	2.5	/experiments/aot/S_pexels-roman-odintsov-8232443_1.mp4	0.0	95.14645504951477	0.9999260902404785
9	73.24951410293579	movie	1		162	7.0	2.5	/experiments/aot/S_pexels-roman-odintsov-8232443_1.mp4	0.0	96.14638113975525	2.4996838569641113
9	73.63301396369934	pulse	1	t		7.0	2.5	/experiments/aot/S_pexels-roman-odintsov-8232443_1.mp4	0.0	96.5298810005188	
9	75.23324298858643	pulse	1	t		7.0	2.5	/experiments/aot/S_pexels-roman-odintsov-8232443_1.mp4	0.0	98.13011002540588	
9	75.7491979598999	fix_post	2		12	7.0	2.5	/experiments/aot/S_pexels-roman-odintsov-8232443_1.mp4	0.0	98.64606499671936	0.09997296333312988
10	75.84917092323303	fix_pre	0		119	8.0	2.5	/experiments/aot/R_S_production_ID_5139371.mp4	0.0	98.74603796005249	0.9921340942382812
10	76.83309507369995	pulse	0	t		8.0	2.5	/experiments/aot/R_S_production_ID_5139371.mp4	0.0	99.72996211051941	
10	76.84130501747131	movie	1		161	8.0	2.5	/experiments/aot/R_S_production_ID_5139371.mp4	0.0	99.73817205429077	2.508301019668579
10	78.43295097351074	pulse	1	t		8.0	2.5	/experiments/aot/R_S_production_ID_5139371.mp4	0.0	101.3298180103302	
10	79.34960603713989	fix_post	2		12	8.0	2.5	/experiments/aot/R_S_production_ID_5139371.mp4	0.0	102.24647307395935	0.09995102882385254
11	79.44955706596375	fix_pre	0		120	9.0	2.5	/experiments/aot/S_yt-6xXEMHBQ08A_28.mp4	0.0	102.3464241027832	1.0000569820404053
11	80.03313088417053	pulse	0	t		9.0	2.5	/experiments/aot/S_yt-6xXEMHBQ08A_28.mp4	0.0	102.92999792098999	
11	80.44961404800415	movie	1		300	9.0	2.5	/experiments/aot/S_yt-6xXEMHBQ08A_28.mp4	0.0	103.34648108482361	2.4999468326568604
11	81.63301706314087	pulse	1	t		9.0	2.5	/experiments/aot/S_yt-6xXEMHBQ08A_28.mp4	0.0	104.52988409996033	
11	82.94956088066101	fix_post	2		12	9.0	2.5	/experiments/aot/S_yt-6xXEMHBQ08A_28.mp4	0.0	105.84642791748047	0.10002803802490234
12	83.04958891868591	fix_pre	0		120	10.0	2.5	/experiments/aot/R_S_yt-3NMDWrZr1Z4_255.mp4	0.0	105.94645595550537	0.99989914894104
12	83.23309993743896	pulse	0	t		10.0	2.5	/experiments/aot/R_S_yt-3NMDWrZr1Z4_255.mp4	0.0	106.12996697425842	
12	84.04948806762695	movie	1		300	10.0	2.5	/experiments/aot/R_S_yt-3NMDWrZr1Z4_255.mp4	0.0	106.94635510444641	2.5000288486480713
12	84.83304500579834	pulse	1	t		10.0	2.5	/experiments/aot/R_S_yt-3NMDWrZr1Z4_255.mp4	0.0	107.7299120426178	
12	86.43302392959595	pulse	1	t		10.0	2.5	/experiments/aot/R_S_yt-3NMDWrZr1Z4_255.mp4	0.0	109.3298909664154	
12	86.54951691627502	fix_post	2		12	10.0	2.5	/experiments/aot/R_S_yt-3NMDWrZr1Z4_255.mp4	0.0	109.44638395309448	0.09997010231018066
13	86.6494870185852	fix_pre	0		120	11.0	2.5	/experiments/aot/R_S_comp_DB_D002_C003_PSNK_v04_SDR_PS_20180914_SDR_2K_AVC.mp4	0.0	109.54635405540466	1.000087022781372
13	87.64957404136658	movie	1		160	11.0	2.5	/experiments/aot/R_S_comp_DB_D002_C003_PSNK_v04_SDR_PS_20180914_SDR_2K_AVC.mp4	0.0	110.54644107818604	2.4999430179595947
13	88.03307700157166	pulse	1	t		11.0	2.5	/experiments/aot/R_S_comp_DB_D002_C003_PSNK_v04_SDR_PS_20180914_SDR_2K_AVC.mp4	0.0	110.92994403839111	
13	89.633052110672	pulse	1	t		11.0	2.5	/experiments/aot/R_S_comp_DB_D002_C003_PSNK_v04_SDR_PS_20180914_SDR_2K_AVC.mp4	0.0	112.52991914749146	
13	90.14951705932617	fix_post	2		12	11.0	2.5	/experiments/aot/R_S_comp_DB_D002_C003_PSNK_v04_SDR_PS_20180914_SDR_2K_AVC.mp4	0.0	113.04638409614563	0.09999895095825195
14	90.24951601028442	fix_pre	0		119	12.0	2.5	/experiments/aot/R_S_yt-pO5SVq-9EhU_114.mp4	0.0	113.14638304710388	0.9916479587554932
14	91.23297810554504	pulse	0	t		12.0	2.5	/experiments/aot/R_S_yt-pO5SVq-9EhU_114.mp4	0.0	114.1298451423645	
14	91.24116396903992	movie	1		301	12.0	2.5	/experiments/aot/R_S_yt-pO5SVq-9EhU_114.mp4	0.0	114.13803100585938	2.508342981338501
14	92.83295202255249	pulse	1	t		12.0	2.5	/experiments/aot/R_S_yt-pO5SVq-9EhU_114.mp4	0.0	115.72981905937195	
14	93.74950695037842	fix_post	2		12	12.0	2.5	/experiments/aot/R_S_yt-pO5SVq-9EhU_114.mp4	0.0	116.64637398719788	0.0999140739440918
15	93.84942102432251	fix_pre	0		120	13.0	2.5	blank	1.0	116.74628806114197	0.9996469020843506
15	94.4337329864502	pulse	0	t		13.0	2.5	blank	1.0	117.33060002326965	
15	94.84906792640686	movie	1		300	13.0	2.5	blank	1.0	117.74593496322632	2.500437021255493
15	96.03309607505798	pulse	1	t		13.0	2.5	blank	1.0	118.92996311187744	
15	97.34950494766235	fix_post	2		12	13.0	2.5	blank	1.0	120.24637198448181	0.09996294975280762
16	97.44946789741516	fix_pre	0		120	14.0	2.5	/experiments/aot/S_yt-7WYXuBHeorw_188.mp4	0.0	120.34633493423462	0.9995541572570801
16	97.63292098045349	pulse	0	t		14.0	2.5	/experiments/aot/S_yt-7WYXuBHeorw_188.mp4	0.0	120.52978801727295	
16	98.44902205467224	movie	1		299	14.0	2.5	/experiments/aot/S_yt-7WYXuBHeorw_188.mp4	0.0	121.3458890914917	2.500459909439087
16	99.23293089866638	pulse	1	t		14.0	2.5	/experiments/aot/S_yt-7WYXuBHeorw_188.mp4	0.0	122.12979793548584	
16	100.83283996582031	pulse	1	t		14.0	2.5	/experiments/aot/S_yt-7WYXuBHeorw_188.mp4	0.0	123.72970700263977	
16	100.94948196411133	fix_post	2		12	14.0	2.5	/experiments/aot/S_yt-7WYXuBHeorw_188.mp4	0.0	123.84634900093079	0.10001206398010254
17	101.04949402809143	fix_pre	0		120	15.0	2.5	/experiments/aot/R_S_video-7.mp4	0.0	123.94636106491089	0.999932050704956
17	102.04942607879639	movie	1		163	15.0	2.5	/experiments/aot/R_S_video-7.mp4	0.0	124.94629311561584	2.4999868869781494
17	102.43301391601562	pulse	1	t		15.0	2.5	/experiments/aot/R_S_video-7.mp4	0.0	125.32988095283508	
17	104.03292798995972	pulse	1	t		15.0	2.5	/experiments/aot/R_S_video-7.mp4	0.0	126.92979502677917	
17	104.54941296577454	fix_post	2		12	15.0	2.5	/experiments/aot/R_S_video-7.mp4	0.0	127.446280002594	0.09962606430053711
18	104.64903903007507	fix_pre	0		119	16.0	2.5	/experiments/aot/S_b3TCugtX0h0_108.mp4	0.0	127.54590606689453	0.9920840263366699
18	105.63296794891357	pulse	0	t		16.0	2.5	/experiments/aot/S_b3TCugtX0h0_108.mp4	0.0	128.52983498573303	
18	105.64112305641174	movie	1		301	16.0	2.5	/experiments/aot/S_b3TCugtX0h0_108.mp4	0.0	128.5379900932312	2.5078630447387695
18	107.23314094543457	pulse	1	t		16.0	2.5	/experiments/aot/S_b3TCugtX0h0_108.mp4	0.0	130.13000798225403	
18	108.14898610115051	fix_post	2		12	16.0	2.5	/experiments/aot/S_b3TCugtX0h0_108.mp4	0.0	131.04585313796997	0.10045289993286133
19	108.24943900108337	fix_pre	0		120	17.0	2.5	/experiments/aot/R_S_yt-HMAa2QbfFPI_216.mp4	0.0	131.14630603790283	0.9999420642852783
19	108.83290791511536	pulse	0	t		17.0	2.5	/experiments/aot/R_S_yt-HMAa2QbfFPI_216.mp4	0.0	131.72977495193481	
19	109.24938106536865	movie	1		300	17.0	2.5	/experiments/aot/R_S_yt-HMAa2QbfFPI_216.mp4	0.0	132.1462481021881	2.4996390342712402
19	110.43281888961792	pulse	1	t		17.0	2.5	/experiments/aot/R_S_yt-HMAa2QbfFPI_216.mp4	0.0	133.32968592643738	
19	111.74902009963989	fix_post	2		12	17.0	2.5	/experiments/aot/R_S_yt-HMAa2QbfFPI_216.mp4	0.0	134.64588713645935	0.10031795501708984
20	111.84933805465698	fix_pre	0		120	18.0	2.5	/experiments/aot/S_yt-isJga8ec5UM_32.mp4	0.0	134.74620509147644	1.0000090599060059
20	112.03279995918274	pulse	0	t		18.0	2.5	/experiments/aot/S_yt-isJga8ec5UM_32.mp4	0.0	134.9296669960022	
20	112.84934711456299	movie	1		300	18.0	2.5	/experiments/aot/S_yt-isJga8ec5UM_32.mp4	0.0	135.74621415138245	2.4999799728393555
20	113.6327691078186	pulse	1	t		18.0	2.5	/experiments/aot/S_yt-isJga8ec5UM_32.mp4	0.0	136.52963614463806	
20	115.23282289505005	pulse	1	t		18.0	2.5	/experiments/aot/S_yt-isJga8ec5UM_32.mp4	0.0	138.1296899318695	
20	115.34932708740234	fix_post	2		12	18.0	2.5	/experiments/aot/S_yt-isJga8ec5UM_32.mp4	0.0	138.2461941242218	0.10003399848937988
21	115.44936108589172	fix_pre	0		120	19.0	2.5	/experiments/aot/S_yt-6mRpmfIvdew_1435.mp4	0.0	138.34622812271118	0.9999558925628662
21	116.44931697845459	movie	1		300	19.0	2.5	/experiments/aot/S_yt-6mRpmfIvdew_1435.mp4	0.0	139.34618401527405	2.5000460147857666
21	116.83281087875366	pulse	1	t		19.0	2.5	/experiments/aot/S_yt-6mRpmfIvdew_1435.mp4	0.0	139.72967791557312	
21	118.43291211128235	pulse	1	t		19.0	2.5	/experiments/aot/S_yt-6mRpmfIvdew_1435.mp4	0.0	141.3297791481018	
21	118.94936299324036	fix_post	2		12	19.0	2.5	/experiments/aot/S_yt-6mRpmfIvdew_1435.mp4	0.0	141.84623003005981	0.09996390342712402
22	119.04932689666748	fix_pre	0		119	20.0	2.5	/experiments/aot/R_S_yt-R-SETZtYWaA_336.mp4	0.0	141.94619393348694	0.991645097732544
22	120.03280210494995	pulse	0	t		20.0	2.5	/experiments/aot/R_S_yt-R-SETZtYWaA_336.mp4	0.0	142.9296691417694	
22	120.04097199440002	movie	1		301	20.0	2.5	/experiments/aot/R_S_yt-R-SETZtYWaA_336.mp4	0.0	142.93783903121948	2.508312940597534
22	121.63291096687317	pulse	1	t		20.0	2.5	/experiments/aot/R_S_yt-R-SETZtYWaA_336.mp4	0.0	144.52977800369263	
22	122.54928493499756	fix_post	2		12	20.0	2.5	/experiments/aot/R_S_yt-R-SETZtYWaA_336.mp4	0.0	145.44615197181702	0.09995102882385254
23	122.64923596382141	fix_pre	0		120	21.0	2.5	blank	1.0	145.54610300064087	1.0002620220184326
23	123.23363399505615	pulse	0	t		21.0	2.5	blank	1.0	146.1305010318756	
23	123.64949798583984	movie	1		300	21.0	2.5	blank	1.0	146.5463650226593	2.4997849464416504
23	124.83287906646729	pulse	1	t		21.0	2.5	blank	1.0	147.72974610328674	
23	126.1492829322815	fix_post	2		12	21.0	2.5	blank	1.0	149.04614996910095	0.10002899169921875
24	126.24931192398071	fix_pre	0		120	22.0	2.5	/experiments/aot/S_yt-h8wy6x6oytA_25.mp4	0.0	149.14617896080017	0.9999191761016846
24	126.43284201622009	pulse	0	t		22.0	2.5	/experiments/aot/S_yt-h8wy6x6oytA_25.mp4	0.0	149.32970905303955	
24	127.2492311000824	movie	1		300	22.0	2.5	/experiments/aot/S_yt-h8wy6x6oytA_25.mp4	0.0	150.14609813690186	2.4996488094329834
24	128.03283309936523	pulse	1	t		22.0	2.5	/experiments/aot/S_yt-h8wy6x6oytA_25.mp4	0.0	150.9297001361847	
24	129.63273191452026	pulse	1	t		22.0	2.5	/experiments/aot/S_yt-h8wy6x6oytA_25.mp4	0.0	152.52959895133972	
24	129.74887990951538	fix_post	2		12	22.0	2.5	/experiments/aot/S_yt-h8wy6x6oytA_25.mp4	0.0	152.64574694633484	0.1003580093383789
25	129.84923791885376	fix_pre	0		120	23.0	2.5	/experiments/aot/R_S_pexels-roman-odintsov-8232443_1.mp4	0.0	152.74610495567322	1.0000150203704834
25	130.84925293922424	movie	1		163	23.0	2.5	/experiments/aot/R_S_pexels-roman-odintsov-8232443_1.mp4	0.0	153.7461199760437	2.5000159740448
25	131.2329158782959	pulse	1	t		23.0	2.5	/experiments/aot/R_S_pexels-roman-odintsov-8232443_1.mp4	0.0	154.12978291511536	
25	132.8328459262848	pulse	1	t		23.0	2.5	/experiments/aot/R_S_pexels-roman-odintsov-8232443_1.mp4	0.0	155.72971296310425	
25	133.34926891326904	fix_post	2		12	23.0	2.5	/experiments/aot/R_S_pexels-roman-odintsov-8232443_1.mp4	0.0	156.2461359500885	0.10004115104675293
26	133.4493100643158	fix_pre	0		119	24.0	2.5	/experiments/aot/R_S_1y-EvnfGO9Y_70.mp4	0.0	156.34617710113525	0.9916410446166992
26	134.43282794952393	pulse	0	t		24.0	2.5	/experiments/aot/R_S_1y-EvnfGO9Y_70.mp4	0.0	157.32969498634338	
26	134.4409511089325	movie	1		301	24.0	2.5	/experiments/aot/R_S_1y-EvnfGO9Y_70.mp4	0.0	157.33781814575195	2.507948875427246
26	136.03298211097717	pulse	1	t		24.0	2.5	/experiments/aot/R_S_1y-EvnfGO9Y_70.mp4	0.0	158.92984914779663	
26	136.94889998435974	fix_post	2		12	24.0	2.5	/experiments/aot/R_S_1y-EvnfGO9Y_70.mp4	0.0	159.8457670211792	0.10050296783447266
27	137.0494029521942	fix_pre	0		120	25.0	2.5	/experiments/aot/S_yt-r7brAHgxZSU_248.mp4	0.0	159.94626998901367	0.9995131492614746
27	137.6327610015869	pulse	0	t		25.0	2.5	/experiments/aot/S_yt-r7brAHgxZSU_248.mp4	0.0	160.52962803840637	
27	138.0489161014557	movie	1		300	25.0	2.5	/experiments/aot/S_yt-r7brAHgxZSU_248.mp4	0.0	160.94578313827515	2.5000109672546387
27	139.23694610595703	pulse	1	t		25.0	2.5	/experiments/aot/S_yt-r7brAHgxZSU_248.mp4	0.0	162.1338131427765	
27	140.54892706871033	fix_post	2		12	25.0	2.5	/experiments/aot/S_yt-r7brAHgxZSU_248.mp4	0.0	163.44579410552979	0.10040593147277832
28	140.6493330001831	fix_pre	0		120	26.0	2.5	blank	1.0	163.54620003700256	0.9999659061431885
28	140.83355593681335	pulse	0	t		26.0	2.5	blank	1.0	163.7304229736328	
28	141.6492989063263	movie	1		300	26.0	2.5	blank	1.0	164.54616594314575	2.4999489784240723
28	142.43279790878296	pulse	1	t		26.0	2.5	blank	1.0	165.32966494560242	
28	144.03278994560242	pulse	1	t		26.0	2.5	blank	1.0	166.92965698242188	
28	144.14924788475037	fix_post	2		12	26.0	2.5	blank	1.0	167.04611492156982	0.09998416900634766
29	144.2492320537567	fix_pre	0		120	27.0	2.5	/experiments/aot/R_S_comp_GL_G002_C002_PSNK_v03_SDR_PS_20180925_SDR_2K_AVC.mp4	0.0	167.14609909057617	0.9999589920043945
29	145.2491910457611	movie	1		163	27.0	2.5	/experiments/aot/R_S_comp_GL_G002_C002_PSNK_v03_SDR_PS_20180925_SDR_2K_AVC.mp4	0.0	168.14605808258057	2.5000410079956055
29	145.63271403312683	pulse	1	t		27.0	2.5	/experiments/aot/R_S_comp_GL_G002_C002_PSNK_v03_SDR_PS_20180925_SDR_2K_AVC.mp4	0.0	168.5295810699463	
29	147.23274302482605	pulse	1	t		27.0	2.5	/experiments/aot/R_S_comp_GL_G002_C002_PSNK_v03_SDR_PS_20180925_SDR_2K_AVC.mp4	0.0	170.1296100616455	
29	147.7492320537567	fix_post	2		12	27.0	2.5	/experiments/aot/R_S_comp_GL_G002_C002_PSNK_v03_SDR_PS_20180925_SDR_2K_AVC.mp4	0.0	170.64609909057617	0.09994292259216309
30	147.84917497634888	fix_pre	0		119	28.0	2.5	/experiments/aot/S_pexels-roman-odintsov-8232443_1.mp4	0.0	170.74604201316833	0.9916009902954102
30	148.83275294303894	pulse	0	t		28.0	2.5	/experiments/aot/S_pexels-roman-odintsov-8232443_1.mp4	0.0	171.7296199798584	
30	148.8407759666443	movie	1		162	28.0	2.5	/experiments/aot/S_pexels-roman-odintsov-8232443_1.mp4	0.0	171.73764300346375	2.5083699226379395
30	150.43246388435364	pulse	1	t		28.0	2.5	/experiments/aot/S_pexels-roman-odintsov-8232443_1.mp4	0.0	173.3293309211731	
30	151.34914588928223	fix_post	2		12	28.0	2.5	/experiments/aot/S_pexels-roman-odintsov-8232443_1.mp4	0.0	174.24601292610168	0.100067138671875
31	151.4492130279541	fix_pre	0		120	29.0	2.5	/experiments/aot/R_S_8amznWxLS04_212.mp4	0.0	174.34608006477356	1.0000979900360107
31	152.03264594078064	pulse	0	t		29.0	2.5	/experiments/aot/R_S_8amznWxLS04_212.mp4	0.0	174.9295129776001	
31	152.4493110179901	movie	1		300	29.0	2.5	/experiments/aot/R_S_8amznWxLS04_212.mp4	0.0	175.34617805480957	2.499799966812134
31	153.6326389312744	pulse	1	t		29.0	2.5	/experiments/aot/R_S_8amznWxLS04_212.mp4	0.0	176.52950596809387	
31	154.94911098480225	fix_post	2		12	29.0	2.5	/experiments/aot/R_S_8amznWxLS04_212.mp4	0.0	177.8459780216217	0.10003209114074707
32	155.049143075943	fix_pre	0		120	30.0	2.5	/experiments/aot/S_production_ID_3712945.mp4	0.0	177.94601011276245	1.000067949295044
32	155.23352003097534	pulse	0	t		30.0	2.5	/experiments/aot/S_production_ID_3712945.mp4	0.0	178.1303870677948	
32	156.04921102523804	movie	1		161	30.0	2.5	/experiments/aot/S_production_ID_3712945.mp4	0.0	178.9460780620575	2.4999618530273438
32	156.84028601646423	pulse	1	t		30.0	2.5	/experiments/aot/S_production_ID_3712945.mp4	0.0	179.7371530532837	
32	158.43693494796753	pulse	1	t		30.0	2.5	/experiments/aot/S_production_ID_3712945.mp4	0.0	181.333801984787	
32	158.54917287826538	fix_post	2		12	30.0	2.5	/experiments/aot/S_production_ID_3712945.mp4	0.0	181.44603991508484	0.0999460220336914
33	158.64911890029907	fix_pre	0		120	31.0	2.5	/experiments/aot/S_yt-j3Sk8ZnAiEA_32.mp4	0.0	181.54598593711853	1.000087022781372
33	159.64920592308044	movie	1		300	31.0	2.5	/experiments/aot/S_yt-j3Sk8ZnAiEA_32.mp4	0.0	182.5460729598999	2.500040054321289
33	160.03627490997314	pulse	1	t		31.0	2.5	/experiments/aot/S_yt-j3Sk8ZnAiEA_32.mp4	0.0	182.9331419467926	
33	161.63640189170837	pulse	1	t		31.0	2.5	/experiments/aot/S_yt-j3Sk8ZnAiEA_32.mp4	0.0	184.53326892852783	
33	162.14924597740173	fix_post	2		12	31.0	2.5	/experiments/aot/S_yt-j3Sk8ZnAiEA_32.mp4	0.0	185.0461130142212	0.10006594657897949
34	162.2493119239807	fix_pre	0		119	32.0	2.5	/experiments/aot/S_yt-zam74qlzGtQ_122.mp4	0.0	185.14617896080017	0.9913821220397949
34	163.23289704322815	pulse	0	t		32.0	2.5	/experiments/aot/S_yt-zam74qlzGtQ_122.mp4	0.0	186.1297640800476	
34	163.2406940460205	movie	1		301	32.0	2.5	/experiments/aot/S_yt-zam74qlzGtQ_122.mp4	0.0	186.13756108283997	2.508404016494751
34	164.83263301849365	pulse	1	t		32.0	2.5	/experiments/aot/S_yt-zam74qlzGtQ_122.mp4	0.0	187.7295000553131	
34	165.74909806251526	fix_post	2		12	32.0	2.5	/experiments/aot/S_yt-zam74qlzGtQ_122.mp4	0.0	188.64596509933472	0.09997797012329102
35	165.84907603263855	fix_pre	0		120	33.0	2.5	blank	1.0	188.745943069458	1.0000619888305664
35	166.43263292312622	pulse	0	t		33.0	2.5	blank	1.0	189.32949995994568	
35	166.84913802146912	movie	1		300	33.0	2.5	blank	1.0	189.74600505828857	2.499945878982544
35	168.0325539112091	pulse	1	t		33.0	2.5	blank	1.0	190.92942094802856	
35	169.34908390045166	fix_post	2		12	33.0	2.5	blank	1.0	192.24595093727112	0.10010099411010742
36	169.44918489456177	fix_pre	0		120	34.0	2.5	/experiments/aot/S_yt-3NMDWrZr1Z4_255.mp4	0.0	192.34605193138123	0.9995150566101074
36	169.63260197639465	pulse	0	t		34.0	2.5	/experiments/aot/S_yt-3NMDWrZr1Z4_255.mp4	0.0	192.5294690132141	
36	170.44869995117188	movie	1		300	34.0	2.5	/experiments/aot/S_yt-3NMDWrZr1Z4_255.mp4	0.0	193.34556698799133	2.5003459453582764
36	171.23665499687195	pulse	1	t		34.0	2.5	/experiments/aot/S_yt-3NMDWrZr1Z4_255.mp4	0.0	194.1335220336914	
36	172.83612704277039	pulse	1	t		34.0	2.5	/experiments/aot/S_yt-3NMDWrZr1Z4_255.mp4	0.0	195.73299407958984	
36	172.94904589653015	fix_post	2		12	34.0	2.5	/experiments/aot/S_yt-3NMDWrZr1Z4_255.mp4	0.0	195.8459129333496	0.10006904602050781
37	173.04911494255066	fix_pre	0		120	35.0	2.5	/experiments/aot/R_S_yt-KM_SJx8CMGc_10.mp4	0.0	195.94598197937012	0.9999730587005615
37	174.04908800125122	movie	1		300	35.0	2.5	/experiments/aot/R_S_yt-KM_SJx8CMGc_10.mp4	0.0	196.94595503807068	2.499972105026245
37	174.43673610687256	pulse	1	t		35.0	2.5	/experiments/aot/R_S_yt-KM_SJx8CMGc_10.mp4	0.0	197.33360314369202	
37	176.03659200668335	pulse	1	t		35.0	2.5	/experiments/aot/R_S_yt-KM_SJx8CMGc_10.mp4	0.0	198.9334590435028	
37	176.54906010627747	fix_post	2		12	35.0	2.5	/experiments/aot/R_S_yt-KM_SJx8CMGc_10.mp4	0.0	199.44592714309692	0.09962797164916992
38	176.64868807792664	fix_pre	0		119	36.0	2.5	/experiments/aot/S_yt-EAMpitsjbbA_153.mp4	0.0	199.5455551147461	0.9920330047607422
38	177.63264107704163	pulse	0	t		36.0	2.5	/experiments/aot/S_yt-EAMpitsjbbA_153.mp4	0.0	200.52950811386108	
38	177.64072108268738	movie	1		301	36.0	2.5	/experiments/aot/S_yt-EAMpitsjbbA_153.mp4	0.0	200.53758811950684	2.508356809616089
38	179.23335695266724	pulse	1	t		36.0	2.5	/experiments/aot/S_yt-EAMpitsjbbA_153.mp4	0.0	202.1302239894867	
38	180.14907789230347	fix_post	2		12	36.0	2.5	/experiments/aot/S_yt-EAMpitsjbbA_153.mp4	0.0	203.04594492912292	0.09957504272460938
39	180.24865293502808	fix_pre	0		120	37.0	2.5	/experiments/aot/R_S_yt-4wYTkhggZNM_90.mp4	0.0	203.14551997184753	1.0003459453582764
39	180.83254289627075	pulse	0	t		37.0	2.5	/experiments/aot/R_S_yt-4wYTkhggZNM_90.mp4	0.0	203.7294099330902	
39	181.24899888038635	movie	1		300	37.0	2.5	/experiments/aot/R_S_yt-4wYTkhggZNM_90.mp4	0.0	204.1458659172058	2.4996261596679688
39	182.4325249195099	pulse	1	t		37.0	2.5	/experiments/aot/R_S_yt-4wYTkhggZNM_90.mp4	0.0	205.32939195632935	
39	183.74862504005432	fix_post	2		12	37.0	2.5	/experiments/aot/R_S_yt-4wYTkhggZNM_90.mp4	0.0	206.64549207687378	0.10032105445861816
40	183.84894609451294	fix_pre	0		120	38.0	2.5	/experiments/aot/R_S_production_ID_4802710.mp4	0.0	206.7458131313324	1.0000498294830322
40	184.0323829650879	pulse	0	t		38.0	2.5	/experiments/aot/R_S_production_ID_4802710.mp4	0.0	206.92925000190735	
40	184.84899592399597	movie	1		162	38.0	2.5	/experiments/aot/R_S_production_ID_4802710.mp4	0.0	207.74586296081543	2.499610185623169
40	185.6325080394745	pulse	1	t		38.0	2.5	/experiments/aot/R_S_production_ID_4802710.mp4	0.0	208.52937507629395	
40	187.24085807800293	pulse	1	t		38.0	2.5	/experiments/aot/R_S_production_ID_4802710.mp4	0.0	210.1377251148224	
40	187.34860610961914	fix_post	2		12	38.0	2.5	/experiments/aot/R_S_production_ID_4802710.mp4	0.0	210.2454731464386	0.10043096542358398
41	187.44903707504272	fix_pre	0		120	39.0	2.5	/experiments/aot/S_ILSVRC2015_train_00559000.mp4	0.0	210.34590411186218	0.9999589920043945
41	188.44899606704712	movie	1		300	39.0	2.5	/experiments/aot/S_ILSVRC2015_train_00559000.mp4	0.0	211.34586310386658	2.500053882598877
41	188.83678007125854	pulse	1	t		39.0	2.5	/experiments/aot/S_ILSVRC2015_train_00559000.mp4	0.0	211.733647108078	
41	190.4368190765381	pulse	1	t		39.0	2.5	/experiments/aot/S_ILSVRC2015_train_00559000.mp4	0.0	213.33368611335754	
41	190.949049949646	fix_post	2		12	39.0	2.5	/experiments/aot/S_ILSVRC2015_train_00559000.mp4	0.0	213.84591698646545	0.09999513626098633
42	191.04904508590698	fix_pre	0		120	40.0	2.5	/experiments/aot/S_comp_GL_G002_C002_PSNK_v03_SDR_PS_20180925_SDR_2K_AVC.mp4	0.0	213.94591212272644	0.9998729228973389
42	192.03327202796936	pulse	0	t		40.0	2.5	/experiments/aot/S_comp_GL_G002_C002_PSNK_v03_SDR_PS_20180925_SDR_2K_AVC.mp4	0.0	214.93013906478882	
42	192.04891800880432	movie	1		164	40.0	2.5	/experiments/aot/S_comp_GL_G002_C002_PSNK_v03_SDR_PS_20180925_SDR_2K_AVC.mp4	0.0	214.94578504562378	2.508415937423706
42	193.63259506225586	pulse	1	t		40.0	2.5	/experiments/aot/S_comp_GL_G002_C002_PSNK_v03_SDR_PS_20180925_SDR_2K_AVC.mp4	0.0	216.52946209907532	
42	194.55733394622803	fix_post	2		12	40.0	2.5	/experiments/aot/S_comp_GL_G002_C002_PSNK_v03_SDR_PS_20180925_SDR_2K_AVC.mp4	0.0	217.45420098304749	0.09993410110473633
43	194.65726804733276	fix_pre	0		120	41.0	2.5	blank	1.0	217.55413508415222	1.0000879764556885
43	195.23319005966187	pulse	0	t		41.0	2.5	blank	1.0	218.13005709648132	
43	195.65735602378845	movie	1		300	41.0	2.5	blank	1.0	218.5542230606079	2.49992299079895
43	196.8325390815735	pulse	1	t		41.0	2.5	blank	1.0	219.72940611839294	
43	198.1572790145874	fix_post	2		12	41.0	2.5	blank	1.0	221.05414605140686	0.10002899169921875
44	198.25730800628662	fix_pre	0		120	42.0	2.5	/experiments/aot/S_yt-nn-8LZcafGs_25.mp4	0.0	221.15417504310608	0.999993085861206
44	198.43247890472412	pulse	0	t		42.0	2.5	/experiments/aot/S_yt-nn-8LZcafGs_25.mp4	0.0	221.32934594154358	
44	199.25730109214783	movie	1		300	42.0	2.5	/experiments/aot/S_yt-nn-8LZcafGs_25.mp4	0.0	222.15416812896729	2.4999759197235107
44	200.03241896629333	pulse	1	t		42.0	2.5	/experiments/aot/S_yt-nn-8LZcafGs_25.mp4	0.0	222.9292860031128	
44	201.63247799873352	pulse	1	t		42.0	2.5	/experiments/aot/S_yt-nn-8LZcafGs_25.mp4	0.0	224.52934503555298	
44	201.75727701187134	fix_post	2		12	42.0	2.5	/experiments/aot/S_yt-nn-8LZcafGs_25.mp4	0.0	224.6541440486908	0.10005497932434082
45	201.85733199119568	fix_pre	0		120	43.0	2.5	/experiments/aot/R_S_video-11.mp4	0.0	224.75419902801514	0.9999699592590332
45	202.8573019504547	movie	1		161	43.0	2.5	/experiments/aot/R_S_video-11.mp4	0.0	225.75416898727417	2.4999170303344727
45	203.24028205871582	pulse	1	t		43.0	2.5	/experiments/aot/R_S_video-11.mp4	0.0	226.13714909553528	
45	204.84067487716675	pulse	1	t		43.0	2.5	/experiments/aot/R_S_video-11.mp4	0.0	227.7375419139862	
45	205.35721898078918	fix_post	2		12	43.0	2.5	/experiments/aot/R_S_video-11.mp4	0.0	228.25408601760864	0.0996088981628418
46	205.45682787895203	fix_pre	0		119	44.0	2.5	/experiments/aot/S_yt-n6aLw10f2Yw_317.mp4	0.0	228.35369491577148	0.9920761585235596
46	206.43314409255981	pulse	0	t		44.0	2.5	/experiments/aot/S_yt-n6aLw10f2Yw_317.mp4	0.0	229.33001112937927	
46	206.4489040374756	movie	1		301	44.0	2.5	/experiments/aot/S_yt-n6aLw10f2Yw_317.mp4	0.0	229.34577107429504	2.508436918258667
46	208.03650498390198	pulse	1	t		44.0	2.5	/experiments/aot/S_yt-n6aLw10f2Yw_317.mp4	0.0	230.93337202072144	
46	208.95734095573425	fix_post	2		12	44.0	2.5	/experiments/aot/S_yt-n6aLw10f2Yw_317.mp4	0.0	231.8542079925537	0.09992003440856934
47	209.05726099014282	fix_pre	0		120	45.0	2.5	/experiments/aot/S_ILSVRC2015_train_00165011.mp4	0.0	231.95412802696228	0.9999771118164062
47	209.63337898254395	pulse	0	t		45.0	2.5	/experiments/aot/S_ILSVRC2015_train_00165011.mp4	0.0	232.5302460193634	
47	210.05723810195923	movie	1		300	45.0	2.5	/experiments/aot/S_ILSVRC2015_train_00165011.mp4	0.0	232.9541051387787	2.4999568462371826
47	211.23330187797546	pulse	1	t		45.0	2.5	/experiments/aot/S_ILSVRC2015_train_00165011.mp4	0.0	234.13016891479492	
47	212.5571949481964	fix_post	2		12	45.0	2.5	/experiments/aot/S_ILSVRC2015_train_00165011.mp4	0.0	235.45406198501587	0.1001441478729248
48	212.65733909606934	fix_pre	0		120	46.0	2.5	/experiments/aot/R_S_production_ID_4802710.mp4	0.0	235.5542061328888	0.9994618892669678
48	212.83245706558228	pulse	0	t		46.0	2.5	/experiments/aot/R_S_production_ID_4802710.mp4	0.0	235.72932410240173	
48	213.6568009853363	movie	1		162	46.0	2.5	/experiments/aot/R_S_production_ID_4802710.mp4	0.0	236.55366802215576	2.500533103942871
48	214.43265795707703	pulse	1	t		46.0	2.5	/experiments/aot/R_S_production_ID_4802710.mp4	0.0	237.32952499389648	
48	216.0323269367218	pulse	1	t		46.0	2.5	/experiments/aot/R_S_production_ID_4802710.mp4	0.0	238.92919397354126	
48	216.15733408927917	fix_post	2		12	46.0	2.5	/experiments/aot/R_S_production_ID_4802710.mp4	0.0	239.05420112609863	0.09948587417602539
49	216.2568199634552	fix_pre	0		120	47.0	2.5	/experiments/aot/S_production_ID_3944248.mp4	0.0	239.15368700027466	1.0000309944152832
49	217.25685095787048	movie	1		162	47.0	2.5	/experiments/aot/S_production_ID_3944248.mp4	0.0	240.15371799468994	2.500335931777954
49	217.64031600952148	pulse	1	t		47.0	2.5	/experiments/aot/S_production_ID_3944248.mp4	0.0	240.53718304634094	
49	219.2410979270935	pulse	1	t		47.0	2.5	/experiments/aot/S_production_ID_3944248.mp4	0.0	242.13796496391296	
49	219.75718688964844	fix_post	2		12	47.0	2.5	/experiments/aot/S_production_ID_3944248.mp4	0.0	242.6540539264679	0.10005617141723633
50	219.85724306106567	fix_pre	0		119	48.0	2.5	blank	1.0	242.75411009788513	0.9916398525238037
50	220.83306503295898	pulse	0	t		48.0	2.5	blank	1.0	243.72993206977844	
50	220.84888291358948	movie	1		301	48.0	2.5	blank	1.0	243.74574995040894	2.5082781314849854
50	222.43305492401123	pulse	1	t		48.0	2.5	blank	1.0	245.3299219608307	
50	223.35716104507446	fix_post	2		12	48.0	2.5	blank	1.0	246.25402808189392	0.09999394416809082
51	223.45715498924255	fix_pre	0		120	49.0	2.5	/experiments/aot/R_S_yt-GaJaxp546lc_22.mp4	0.0	246.354022026062	0.9999020099639893
51	224.0331211090088	pulse	0	t		49.0	2.5	/experiments/aot/R_S_yt-GaJaxp546lc_22.mp4	0.0	246.92998814582825	
51	224.45705699920654	movie	1		300	49.0	2.5	/experiments/aot/R_S_yt-GaJaxp546lc_22.mp4	0.0	247.353924036026	2.4997129440307617
51	225.63317608833313	pulse	1	t		49.0	2.5	/experiments/aot/R_S_yt-GaJaxp546lc_22.mp4	0.0	248.5300431251526	
51	226.9567699432373	fix_post	2		12	49.0	2.5	/experiments/aot/R_S_yt-GaJaxp546lc_22.mp4	0.0	249.85363698005676	0.10037899017333984
52	227.05714893341064	fix_pre	0		120	50.0	2.5	/experiments/aot/R_S_video-7.mp4	0.0	249.9540159702301	0.9999630451202393
52	227.2331759929657	pulse	0	t		50.0	2.5	/experiments/aot/R_S_video-7.mp4	0.0	250.13004302978516	
52	228.05711197853088	movie	1		164	50.0	2.5	/experiments/aot/R_S_video-7.mp4	0.0	250.95397901535034	2.4999730587005615
52	228.84104800224304	pulse	1	t		50.0	2.5	/experiments/aot/R_S_video-7.mp4	0.0	251.7379150390625	
52	230.43312406539917	pulse	1	t		50.0	2.5	/experiments/aot/R_S_video-7.mp4	0.0	253.32999110221863	
52	230.55708503723145	fix_post	2		12	50.0	2.5	/experiments/aot/R_S_video-7.mp4	0.0	253.4539520740509	0.10004091262817383
53	230.65712594985962	fix_pre	0		120	51.0	2.5	/experiments/aot/S_comp_L007_C007_PS_v01_SDR_PS_20180925_SDR_2K_AVC.mp4	0.0	253.55399298667908	0.999993085861206
53	231.65711903572083	movie	1		165	51.0	2.5	/experiments/aot/S_comp_L007_C007_PS_v01_SDR_PS_20180925_SDR_2K_AVC.mp4	0.0	254.55398607254028	2.5
53	232.0406849384308	pulse	1	t		51.0	2.5	/experiments/aot/S_comp_L007_C007_PS_v01_SDR_PS_20180925_SDR_2K_AVC.mp4	0.0	254.93755197525024	
53	233.64069604873657	pulse	1	t		51.0	2.5	/experiments/aot/S_comp_L007_C007_PS_v01_SDR_PS_20180925_SDR_2K_AVC.mp4	0.0	256.53756308555603	
53	234.15711903572083	fix_post	2		12	51.0	2.5	/experiments/aot/S_comp_L007_C007_PS_v01_SDR_PS_20180925_SDR_2K_AVC.mp4	0.0	257.0539860725403	0.10001587867736816
54	234.2571349143982	fix_pre	0		119	52.0	2.5	/experiments/aot/S_yt-MEfljVFL0xw_375.mp4	0.0	257.15400195121765	0.9915981292724609
54	235.2331030368805	pulse	0	t		52.0	2.5	/experiments/aot/S_yt-MEfljVFL0xw_375.mp4	0.0	258.12997007369995	
54	235.24873304367065	movie	1		301	52.0	2.5	/experiments/aot/S_yt-MEfljVFL0xw_375.mp4	0.0	258.1456000804901	2.5083959102630615
54	236.83618688583374	pulse	1	t		52.0	2.5	/experiments/aot/S_yt-MEfljVFL0xw_375.mp4	0.0	259.7330539226532	
54	237.75712895393372	fix_post	2		12	52.0	2.5	/experiments/aot/S_yt-MEfljVFL0xw_375.mp4	0.0	260.6539959907532	0.0999000072479248
55	237.85702896118164	fix_pre	0		120	53.0	2.5	/experiments/aot/S_yt-JVhfcpV7OaY_71.mp4	0.0	260.7538959980011	0.9996099472045898
55	238.4331591129303	pulse	0	t		53.0	2.5	/experiments/aot/S_yt-JVhfcpV7OaY_71.mp4	0.0	261.33002614974976	
55	238.85663890838623	movie	1		300	53.0	2.5	/experiments/aot/S_yt-JVhfcpV7OaY_71.mp4	0.0	261.7535059452057	2.500020980834961
55	240.03313899040222	pulse	1	t		53.0	2.5	/experiments/aot/S_yt-JVhfcpV7OaY_71.mp4	0.0	262.9300060272217	
55	241.3566598892212	fix_post	2		12	53.0	2.5	/experiments/aot/S_yt-JVhfcpV7OaY_71.mp4	0.0	264.25352692604065	0.10045409202575684
56	241.45711398124695	fix_pre	0		120	54.0	2.5	/experiments/aot/R_S_yt-ebzrQh5ErI4_3.mp4	0.0	264.3539810180664	0.9999511241912842
56	241.6329789161682	pulse	0	t		54.0	2.5	/experiments/aot/R_S_yt-ebzrQh5ErI4_3.mp4	0.0	264.52984595298767	
56	242.45706510543823	movie	1		300	54.0	2.5	/experiments/aot/R_S_yt-ebzrQh5ErI4_3.mp4	0.0	265.3539321422577	2.5001208782196045
56	243.23317289352417	pulse	1	t		54.0	2.5	/experiments/aot/R_S_yt-ebzrQh5ErI4_3.mp4	0.0	266.1300399303436	
56	244.8325490951538	pulse	1	t		54.0	2.5	/experiments/aot/R_S_yt-ebzrQh5ErI4_3.mp4	0.0	267.72941613197327	
56	244.95718598365784	fix_post	2		12	54.0	2.5	/experiments/aot/R_S_yt-ebzrQh5ErI4_3.mp4	0.0	267.8540530204773	0.0994720458984375
57	245.05665802955627	fix_pre	0		120	55.0	2.5	blank	1.0	267.95352506637573	1.0003700256347656
57	246.05702805519104	movie	1		300	55.0	2.5	blank	1.0	268.9538950920105	2.4995830059051514
57	246.4329869747162	pulse	1	t		55.0	2.5	blank	1.0	269.32985401153564	
57	248.03222393989563	pulse	1	t		55.0	2.5	blank	1.0	270.9290909767151	
57	248.5566110610962	fix_post	2		12	55.0	2.5	blank	1.0	271.45347809791565	0.10045695304870605
58	248.6570680141449	fix_pre	0		118	56.0	2.5	/experiments/aot/S_flickr-southeasternstar-3464778323_10.mp4	0.0	271.55393505096436	0.9833219051361084
58	249.6323630809784	pulse	0	t		56.0	2.5	/experiments/aot/S_flickr-southeasternstar-3464778323_10.mp4	0.0	272.52923011779785	
58	249.640389919281	movie	1		301	56.0	2.5	/experiments/aot/S_flickr-southeasternstar-3464778323_10.mp4	0.0	272.53725695610046	2.5082781314849854
58	251.23313093185425	pulse	1	t		56.0	2.5	/experiments/aot/S_flickr-southeasternstar-3464778323_10.mp4	0.0	274.1299979686737	
58	252.148668050766	fix_post	2		12	56.0	2.5	/experiments/aot/S_flickr-southeasternstar-3464778323_10.mp4	0.0	275.04553508758545	0.10026097297668457
59	252.24892902374268	fix_pre	0		120	57.0	2.5	/experiments/aot/R_S_yt-P8vJa4YVcGU_488.mp4	0.0	275.14579606056213	0.9997348785400391
59	252.83298301696777	pulse	0	t		57.0	2.5	/experiments/aot/R_S_yt-P8vJa4YVcGU_488.mp4	0.0	275.72985005378723	
59	253.24866390228271	movie	1		300	57.0	2.5	/experiments/aot/R_S_yt-P8vJa4YVcGU_488.mp4	0.0	276.1455309391022	2.4995880126953125
59	254.43620610237122	pulse	1	t		57.0	2.5	/experiments/aot/R_S_yt-P8vJa4YVcGU_488.mp4	0.0	277.3330731391907	
59	255.74825191497803	fix_post	2		12	57.0	2.5	/experiments/aot/R_S_yt-P8vJa4YVcGU_488.mp4	0.0	278.6451189517975	0.10037517547607422
60	255.8486270904541	fix_pre	0		120	58.0	2.5	/experiments/aot/R_S_yt-_6j2NXrB-zE_28.mp4	0.0	278.74549412727356	1.000011920928955
60	256.0329899787903	pulse	0	t		58.0	2.5	/experiments/aot/R_S_yt-_6j2NXrB-zE_28.mp4	0.0	278.92985701560974	
60	256.84863901138306	movie	1		300	58.0	2.5	/experiments/aot/R_S_yt-_6j2NXrB-zE_28.mp4	0.0	279.7455060482025	2.4996159076690674
60	257.63626503944397	pulse	1	t		58.0	2.5	/experiments/aot/R_S_yt-_6j2NXrB-zE_28.mp4	0.0	280.5331320762634	
60	259.23304510116577	pulse	1	t		58.0	2.5	/experiments/aot/R_S_yt-_6j2NXrB-zE_28.mp4	0.0	282.12991213798523	
60	259.3482549190521	fix_post	2		12	58.0	2.5	/experiments/aot/R_S_yt-_6j2NXrB-zE_28.mp4	0.0	282.2451219558716	0.10010218620300293
61	259.4483571052551	fix_pre	0		120	59.0	2.5	/experiments/aot/R_S_yt-hvuC_2YXsTQ_73.mp4	0.0	282.3452241420746	1.0002520084381104
61	260.44860911369324	movie	1		300	59.0	2.5	/experiments/aot/R_S_yt-hvuC_2YXsTQ_73.mp4	0.0	283.3454761505127	2.499983787536621
61	260.836807012558	pulse	1	t		59.0	2.5	/experiments/aot/R_S_yt-hvuC_2YXsTQ_73.mp4	0.0	283.73367404937744	
61	262.43621301651	pulse	1	t		59.0	2.5	/experiments/aot/R_S_yt-hvuC_2YXsTQ_73.mp4	0.0	285.33308005332947	
61	262.94859290122986	fix_post	2		12	59.0	2.5	/experiments/aot/R_S_yt-hvuC_2YXsTQ_73.mp4	0.0	285.8454599380493	0.10002708435058594
62	263.04861998558044	fix_pre	0		120	60.0	2.5	/experiments/aot/S_yt-GVaF4tmJBZE_253.mp4	0.0	285.9454870223999	1.0000369548797607
62	264.0328710079193	pulse	0	t		60.0	2.5	/experiments/aot/S_yt-GVaF4tmJBZE_253.mp4	0.0	286.92973804473877	
62	264.0486569404602	movie	1		301	60.0	2.5	/experiments/aot/S_yt-GVaF4tmJBZE_253.mp4	0.0	286.94552397727966	2.5079050064086914
62	265.63653898239136	pulse	1	t		60.0	2.5	/experiments/aot/S_yt-GVaF4tmJBZE_253.mp4	0.0	288.5334060192108	
62	266.5565619468689	fix_post	2		12	60.0	2.5	/experiments/aot/S_yt-GVaF4tmJBZE_253.mp4	0.0	289.45342898368835	0.10046696662902832
63	266.6570289134979	fix_pre	0		120	61.0	2.5	/experiments/aot/S_yt-K-iCphzt_RE_17.mp4	0.0	289.5538959503174	0.9999721050262451
63	267.2404730319977	pulse	0	t		61.0	2.5	/experiments/aot/S_yt-K-iCphzt_RE_17.mp4	0.0	290.13734006881714	
63	267.65700101852417	movie	1		299	61.0	2.5	/experiments/aot/S_yt-K-iCphzt_RE_17.mp4	0.0	290.5538680553436	2.499969959259033
63	268.8332939147949	pulse	1	t		61.0	2.5	/experiments/aot/S_yt-K-iCphzt_RE_17.mp4	0.0	291.7301609516144	
63	270.1569709777832	fix_post	2		12	61.0	2.5	/experiments/aot/S_yt-K-iCphzt_RE_17.mp4	0.0	293.05383801460266	0.09958910942077637
64	270.256560087204	fix_pre	0		120	62.0	2.5	/experiments/aot/S_yt-0xzYSBvVfYM_197.mp4	0.0	293.15342712402344	1.0004849433898926
64	270.432923078537	pulse	0	t		62.0	2.5	/experiments/aot/S_yt-0xzYSBvVfYM_197.mp4	0.0	293.32979011535645	
64	271.2570450305939	movie	1		300	62.0	2.5	/experiments/aot/S_yt-0xzYSBvVfYM_197.mp4	0.0	294.15391206741333	2.499742031097412
64	272.03996205329895	pulse	1	t		62.0	2.5	/experiments/aot/S_yt-0xzYSBvVfYM_197.mp4	0.0	294.9368290901184	
64	273.6327259540558	pulse	1	t		62.0	2.5	/experiments/aot/S_yt-0xzYSBvVfYM_197.mp4	0.0	296.52959299087524	
64	273.7567870616913	fix_post	2		12	62.0	2.5	/experiments/aot/S_yt-0xzYSBvVfYM_197.mp4	0.0	296.65365409851074	0.09990787506103516
65	273.8566949367523	fix_pre	0		120	63.0	2.5	blank	1.0	296.7535619735718	1.0001931190490723
65	274.8568880558014	movie	1		300	63.0	2.5	blank	1.0	297.75375509262085	2.5001108646392822
65	275.2328300476074	pulse	1	t		63.0	2.5	blank	1.0	298.1296970844269	
65	276.83286595344543	pulse	1	t		63.0	2.5	blank	1.0	299.7297329902649	
65	277.3569989204407	fix_post	2		12	63.0	2.5	blank	1.0	300.25386595726013	0.09995102882385254
66	277.4569499492645	fix_pre	0		119	64.0	2.5	/experiments/aot/S_yt-nYi_FfCjepk_74.mp4	0.0	300.353816986084	0.99167799949646
66	278.43287205696106	pulse	0	t		64.0	2.5	/experiments/aot/S_yt-nYi_FfCjepk_74.mp4	0.0	301.3297390937805	
66	278.448627948761	movie	1		301	64.0	2.5	/experiments/aot/S_yt-nYi_FfCjepk_74.mp4	0.0	301.34549498558044	2.5078210830688477
66	280.0367159843445	pulse	1	t		64.0	2.5	/experiments/aot/S_yt-nYi_FfCjepk_74.mp4	0.0	302.93358302116394	
66	280.95644903182983	fix_post	2		12	64.0	2.5	/experiments/aot/S_yt-nYi_FfCjepk_74.mp4	0.0	303.8533160686493	0.1004190444946289
67	281.05686807632446	fix_pre	0		120	65.0	2.5	/experiments/aot/R_S_ILSVRC2015_train_00762000.mp4	0.0	303.9537351131439	0.9999549388885498
67	281.6328809261322	pulse	0	t		65.0	2.5	/experiments/aot/R_S_ILSVRC2015_train_00762000.mp4	0.0	304.52974796295166	
67	282.056823015213	movie	1		300	65.0	2.5	/experiments/aot/R_S_ILSVRC2015_train_00762000.mp4	0.0	304.95369005203247	2.5000948905944824
67	283.23352789878845	pulse	1	t		65.0	2.5	/experiments/aot/R_S_ILSVRC2015_train_00762000.mp4	0.0	306.1303949356079	
67	284.5569179058075	fix_post	2		12	65.0	2.5	/experiments/aot/R_S_ILSVRC2015_train_00762000.mp4	0.0	307.45378494262695	0.09988713264465332
68	284.65680503845215	fix_pre	0		120	66.0	2.5	/experiments/aot/S_yt-6xXEMHBQ08A_28.mp4	0.0	307.5536720752716	1.0000250339508057
68	284.84029388427734	pulse	0	t		66.0	2.5	/experiments/aot/S_yt-6xXEMHBQ08A_28.mp4	0.0	307.7371609210968	
68	285.65683007240295	movie	1		299	66.0	2.5	/experiments/aot/S_yt-6xXEMHBQ08A_28.mp4	0.0	308.5536971092224	2.4999868869781494
68	286.4403259754181	pulse	1	t		66.0	2.5	/experiments/aot/S_yt-6xXEMHBQ08A_28.mp4	0.0	309.33719301223755	
68	288.03300309181213	pulse	1	t		66.0	2.5	/experiments/aot/S_yt-6xXEMHBQ08A_28.mp4	0.0	310.9298701286316	
68	288.1568169593811	fix_post	2		12	66.0	2.5	/experiments/aot/S_yt-6xXEMHBQ08A_28.mp4	0.0	311.05368399620056	0.1000831127166748
69	288.2569000720978	fix_pre	0		120	67.0	2.5	/experiments/aot/R_S_video.mp4	0.0	311.15376710891724	0.9995629787445068
69	289.2564630508423	movie	1		163	67.0	2.5	/experiments/aot/R_S_video.mp4	0.0	312.15333008766174	2.5003418922424316
69	289.6332108974457	pulse	1	t		67.0	2.5	/experiments/aot/R_S_video.mp4	0.0	312.53007793426514	
69	291.2403829097748	pulse	1	t		67.0	2.5	/experiments/aot/R_S_video.mp4	0.0	314.13724994659424	
69	291.7568049430847	fix_post	2		12	67.0	2.5	/experiments/aot/R_S_video.mp4	0.0	314.6536719799042	0.09996414184570312
70	291.8567690849304	fix_pre	0		119	68.0	2.5	/experiments/aot/S_yt-OdTWn1U1mO4_68.mp4	0.0	314.7536361217499	0.9917387962341309
70	292.8328950405121	pulse	0	t		68.0	2.5	/experiments/aot/S_yt-OdTWn1U1mO4_68.mp4	0.0	315.72976207733154	
70	292.84850788116455	movie	1		301	68.0	2.5	/experiments/aot/S_yt-OdTWn1U1mO4_68.mp4	0.0	315.745374917984	2.5082180500030518
70	294.4363238811493	pulse	1	t		68.0	2.5	/experiments/aot/S_yt-OdTWn1U1mO4_68.mp4	0.0	317.33319091796875	
70	295.3567259311676	fix_post	2		12	68.0	2.5	/experiments/aot/S_yt-OdTWn1U1mO4_68.mp4	0.0	318.25359296798706	0.10014700889587402
71	295.4568729400635	fix_pre	0		120	69.0	2.5	blank	1.0	318.35373997688293	0.9998869895935059
71	296.0327489376068	pulse	0	t		69.0	2.5	blank	1.0	318.92961597442627	
71	296.456759929657	movie	1		300	69.0	2.5	blank	1.0	319.35362696647644	2.500030994415283
71	297.63284492492676	pulse	1	t		69.0	2.5	blank	1.0	320.5297119617462	
71	298.95679092407227	fix_post	2		12	69.0	2.5	blank	1.0	321.8536579608917	0.10004901885986328
72	299.05683994293213	fix_pre	0		120	70.0	2.5	/experiments/aot/R_S_yt-nMWqezngycw_10.mp4	0.0	321.9537069797516	0.999967098236084
72	299.2403540611267	pulse	0	t		70.0	2.5	/experiments/aot/R_S_yt-nMWqezngycw_10.mp4	0.0	322.13722109794617	
72	300.0568070411682	movie	1		299	70.0	2.5	/experiments/aot/R_S_yt-nMWqezngycw_10.mp4	0.0	322.95367407798767	2.5000429153442383
72	300.84027194976807	pulse	1	t		70.0	2.5	/experiments/aot/R_S_yt-nMWqezngycw_10.mp4	0.0	323.7371389865875	
72	302.4402549266815	pulse	1	t		70.0	2.5	/experiments/aot/R_S_yt-nMWqezngycw_10.mp4	0.0	325.337121963501	
72	302.55684995651245	fix_post	2		12	70.0	2.5	/experiments/aot/R_S_yt-nMWqezngycw_10.mp4	0.0	325.4537169933319	0.10001492500305176
73	302.6568648815155	fix_pre	0		120	71.0	2.5	/experiments/aot/S_pexels-diva-plavalaguna-6985395_1.mp4	0.0	325.55373191833496	1.0000050067901611
73	303.65686988830566	movie	1		161	71.0	2.5	/experiments/aot/S_pexels-diva-plavalaguna-6985395_1.mp4	0.0	326.5537369251251	2.4998672008514404
73	304.040323972702	pulse	1	t		71.0	2.5	/experiments/aot/S_pexels-diva-plavalaguna-6985395_1.mp4	0.0	326.9371910095215	
73	305.6404240131378	pulse	1	t		71.0	2.5	/experiments/aot/S_pexels-diva-plavalaguna-6985395_1.mp4	0.0	328.5372910499573	
73	306.1567370891571	fix_post	2		12	71.0	2.5	/experiments/aot/S_pexels-diva-plavalaguna-6985395_1.mp4	0.0	329.05360412597656	0.10004186630249023
74	306.2567789554596	fix_pre	0		119	72.0	2.5	/experiments/aot/R_S_yt-nn-8LZcafGs_25.mp4	0.0	329.15364599227905	0.99167799949646
74	307.23293590545654	pulse	0	t		72.0	2.5	/experiments/aot/R_S_yt-nn-8LZcafGs_25.mp4	0.0	330.129802942276	
74	307.24845695495605	movie	1		301	72.0	2.5	/experiments/aot/R_S_yt-nn-8LZcafGs_25.mp4	0.0	330.1453239917755	2.508296012878418
74	308.83589601516724	pulse	1	t		72.0	2.5	/experiments/aot/R_S_yt-nn-8LZcafGs_25.mp4	0.0	331.7327630519867	
74	309.7567529678345	fix_post	2		12	72.0	2.5	/experiments/aot/R_S_yt-nn-8LZcafGs_25.mp4	0.0	332.65362000465393	0.09993290901184082
75	309.8566858768463	fix_pre	0		120	73.0	2.5	/experiments/aot/S_production_ID_4325591.mp4	0.0	332.75355291366577	1.000016212463379
75	310.4327480792999	pulse	0	t		73.0	2.5	/experiments/aot/S_production_ID_4325591.mp4	0.0	333.3296151161194	
75	310.8567020893097	movie	1		167	73.0	2.5	/experiments/aot/S_production_ID_4325591.mp4	0.0	333.75356912612915	2.4995880126953125
75	312.0402669906616	pulse	1	t		73.0	2.5	/experiments/aot/S_production_ID_4325591.mp4	0.0	334.9371340274811	
75	313.356290102005	fix_post	2		12	73.0	2.5	/experiments/aot/S_production_ID_4325591.mp4	0.0	336.25315713882446	0.10039091110229492
76	313.4566810131073	fix_pre	0		120	74.0	2.5	/experiments/aot/S_yt-uE9XoCLZlFo_1.mp4	0.0	336.35354804992676	1.0001089572906494
76	313.63269305229187	pulse	0	t		74.0	2.5	/experiments/aot/S_yt-uE9XoCLZlFo_1.mp4	0.0	336.5295600891113	
76	314.45678997039795	movie	1		300	74.0	2.5	/experiments/aot/S_yt-uE9XoCLZlFo_1.mp4	0.0	337.3536570072174	2.499875068664551
76	315.2402160167694	pulse	1	t		74.0	2.5	/experiments/aot/S_yt-uE9XoCLZlFo_1.mp4	0.0	338.13708305358887	
76	316.8402090072632	pulse	1	t		74.0	2.5	/experiments/aot/S_yt-uE9XoCLZlFo_1.mp4	0.0	339.73707604408264	
76	316.9566650390625	fix_post	2		12	74.0	2.5	/experiments/aot/S_yt-uE9XoCLZlFo_1.mp4	0.0	339.85353207588196	0.10007190704345703
77	317.05673694610596	fix_pre	0		120	75.0	2.5	/experiments/aot/S_yt-etQaTgGOhR4_69.mp4	0.0	339.9536039829254	0.9999220371246338
77	318.0566589832306	movie	1		300	75.0	2.5	/experiments/aot/S_yt-etQaTgGOhR4_69.mp4	0.0	340.95352602005005	2.4996349811553955
77	318.44011306762695	pulse	1	t		75.0	2.5	/experiments/aot/S_yt-etQaTgGOhR4_69.mp4	0.0	341.3369801044464	
77	320.0402181148529	pulse	1	t		75.0	2.5	/experiments/aot/S_yt-etQaTgGOhR4_69.mp4	0.0	342.93708515167236	
77	320.556293964386	fix_post	2		12	75.0	2.5	/experiments/aot/S_yt-etQaTgGOhR4_69.mp4	0.0	343.45316100120544	0.10040092468261719
78	320.6566948890686	fix_pre	0		119	76.0	2.5	blank	1.0	343.55356192588806	0.9916172027587891
78	321.6401460170746	pulse	0	t		76.0	2.5	blank	1.0	344.53701305389404	
78	321.6483120918274	movie	1		301	76.0	2.5	blank	1.0	344.54517912864685	2.5082848072052
78	323.2326729297638	pulse	1	t		76.0	2.5	blank	1.0	346.12953996658325	
78	324.1565968990326	fix_post	2		12	76.0	2.5	blank	1.0	347.05346393585205	0.100067138671875
79	324.25666403770447	fix_pre	0		120	77.0	2.5	/experiments/aot/R_S_yt-wEbfIR14zZ8_7.mp4	0.0	347.1535310745239	0.9999580383300781
79	324.8327810764313	pulse	0	t		77.0	2.5	/experiments/aot/R_S_yt-wEbfIR14zZ8_7.mp4	0.0	347.72964811325073	
79	325.25662207603455	movie	1		300	77.0	2.5	/experiments/aot/R_S_yt-wEbfIR14zZ8_7.mp4	0.0	348.153489112854	2.5000388622283936
79	326.43281602859497	pulse	1	t		77.0	2.5	/experiments/aot/R_S_yt-wEbfIR14zZ8_7.mp4	0.0	349.32968306541443	
79	327.75666093826294	fix_post	2		12	77.0	2.5	/experiments/aot/R_S_yt-wEbfIR14zZ8_7.mp4	0.0	350.6535279750824	0.09994697570800781
80	327.85660791397095	fix_pre	0		120	78.0	2.5	/experiments/aot/S_Pexels_Videos_2791797.mp4	0.0	350.7534749507904	1.0000581741333008
80	328.03976798057556	pulse	0	t		78.0	2.5	/experiments/aot/S_Pexels_Videos_2791797.mp4	0.0	350.936635017395	
80	328.85666608810425	movie	1		165	78.0	2.5	/experiments/aot/S_Pexels_Videos_2791797.mp4	0.0	351.7535331249237	2.5000967979431152
80	329.63989901542664	pulse	1	t		78.0	2.5	/experiments/aot/S_Pexels_Videos_2791797.mp4	0.0	352.5367660522461	
80	331.2401111125946	pulse	1	t		78.0	2.5	/experiments/aot/S_Pexels_Videos_2791797.mp4	0.0	354.13697814941406	
80	331.35676288604736	fix_post	2		12	78.0	2.5	/experiments/aot/S_Pexels_Videos_2791797.mp4	0.0	354.2536299228668	0.09989500045776367
81	331.4566578865051	fix_pre	0		120	79.0	2.5	/experiments/aot/R_S_ILSVRC2015_train_00569006.mp4	0.0	354.3535249233246	1.000035047531128
81	332.45669293403625	movie	1		300	79.0	2.5	/experiments/aot/R_S_ILSVRC2015_train_00569006.mp4	0.0	355.3535599708557	2.49992299079895
81	332.8400490283966	pulse	1	t		79.0	2.5	/experiments/aot/R_S_ILSVRC2015_train_00569006.mp4	0.0	355.73691606521606	
81	334.4333550930023	pulse	1	t		79.0	2.5	/experiments/aot/R_S_ILSVRC2015_train_00569006.mp4	0.0	357.3302221298218	
81	334.9566159248352	fix_post	2		12	79.0	2.5	/experiments/aot/R_S_ILSVRC2015_train_00569006.mp4	0.0	357.85348296165466	0.09997296333312988
82	335.05658888816833	fix_pre	0		119	80.0	2.5	/experiments/aot/R_S_ILSVRC2015_train_00369000.mp4	0.0	357.9534559249878	0.9916331768035889
82	336.0401110649109	pulse	0	t		80.0	2.5	/experiments/aot/R_S_ILSVRC2015_train_00369000.mp4	0.0	358.93697810173035	
82	336.0482220649719	movie	1		301	80.0	2.5	/experiments/aot/R_S_ILSVRC2015_train_00369000.mp4	0.0	358.9450891017914	2.508344888687134
82	337.6370370388031	pulse	1	t		80.0	2.5	/experiments/aot/R_S_ILSVRC2015_train_00369000.mp4	0.0	360.53390407562256	
82	338.55656695365906	fix_post	2		12	80.0	2.5	/experiments/aot/R_S_ILSVRC2015_train_00369000.mp4	0.0	361.4534339904785	0.10016894340515137
83	338.6567358970642	fix_pre	0		120	81.0	2.5	/experiments/aot/S_yt-hvuC_2YXsTQ_73.mp4	0.0	361.55360293388367	0.999824047088623
83	339.2400999069214	pulse	0	t		81.0	2.5	/experiments/aot/S_yt-hvuC_2YXsTQ_73.mp4	0.0	362.13696694374084	
83	339.65655994415283	movie	1		299	81.0	2.5	/experiments/aot/S_yt-hvuC_2YXsTQ_73.mp4	0.0	362.5534269809723	2.500025987625122
83	340.832710981369	pulse	1	t		81.0	2.5	/experiments/aot/S_yt-hvuC_2YXsTQ_73.mp4	0.0	363.7295780181885	
83	342.15658593177795	fix_post	2		12	81.0	2.5	/experiments/aot/S_yt-hvuC_2YXsTQ_73.mp4	0.0	365.0534529685974	0.09998512268066406
84	342.2565710544586	fix_pre	0		120	82.0	2.5	/experiments/aot/R_S_ILSVRC2015_train_00762000.mp4	0.0	365.1534380912781	0.999567985534668
84	342.4325590133667	pulse	0	t		82.0	2.5	/experiments/aot/R_S_ILSVRC2015_train_00762000.mp4	0.0	365.32942605018616	
84	343.2561390399933	movie	1		300	82.0	2.5	/experiments/aot/R_S_ILSVRC2015_train_00762000.mp4	0.0	366.15300607681274	2.5004589557647705
84	344.03264594078064	pulse	1	t		82.0	2.5	/experiments/aot/R_S_ILSVRC2015_train_00762000.mp4	0.0	366.9295129776001	
84	345.6325409412384	pulse	1	t		82.0	2.5	/experiments/aot/R_S_ILSVRC2015_train_00762000.mp4	0.0	368.52940797805786	
84	345.75659799575806	fix_post	2		12	82.0	2.5	/experiments/aot/R_S_ILSVRC2015_train_00762000.mp4	0.0	368.6534650325775	0.09992694854736328
85	345.8565249443054	fix_pre	0		120	83.0	2.5	blank	1.0	368.7533919811249	0.999582052230835
85	346.85610699653625	movie	1		300	83.0	2.5	blank	1.0	369.7529740333557	2.500075101852417
85	347.24008297920227	pulse	1	t		83.0	2.5	blank	1.0	370.13695001602173	
85	348.8400709629059	pulse	1	t		83.0	2.5	blank	1.0	371.73693799972534	
85	349.3561820983887	fix_post	2		12	83.0	2.5	blank	1.0	372.25304913520813	0.10031890869140625
87	349.4565010070801	stim	0		1716					372.35336804389954	14.30005693435669
87	350.440062046051	pulse	0	t						373.3369290828705	
87	352.04000306129456	pulse	0	t						374.936870098114	
87	353.64001393318176	pulse	0	t						376.5368809700012	
87	355.23994398117065	pulse	0	t						378.1368110179901	
87	356.8325650691986	pulse	0	t						379.72943210601807	
87	358.43257308006287	pulse	0	t						381.3294401168823	
87	360.03257393836975	pulse	0	t						382.9294409751892	
87	361.6325829029083	pulse	0	t						384.5294499397278	
87	363.239953994751	pulse	0	t						386.13682103157043	
