trial_nr	onset	event_type	phase	response	nr_frames	movie_index	movie_duration	movie_file	blank	onset_abs	duration
0	0.16648292541503906	stim	0		8					16.909258365631104	0.06656885147094727
0	0.22515630722045898	response	0	space						16.967931747436523	
1	0.23305177688598633	stim	0		5052					16.97582721710205	42.11746621131897
1	42.3402042388916	pulse	0	t						59.082979679107666	
1	42.350517988204956	stim	1		1715					59.09329342842102	14.299377202987671
1	43.9315550327301	pulse	1	t						60.67433047294617	
1	45.531808853149414	pulse	1	t						62.27458429336548	
1	47.13199162483215	pulse	1	t						63.87476706504822	
1	48.73224115371704	pulse	1	t						65.4750165939331	
1	50.332520961761475	pulse	1	t						67.07529640197754	
1	51.932698249816895	pulse	1	t						68.67547369003296	
1	53.533016204833984	pulse	1	t						70.27579164505005	
1	55.13331127166748	pulse	1	t						71.87608671188354	
2	56.64989519119263	fix_pre	0		11	0.0	2.5	/experiments/knapen_AOT/AOT_stimuli/rescaled_final/1360_rv.mp4	0.0	73.39267063140869	0.1251828670501709
2	56.73346209526062	pulse	0	t		0.0	2.5	/experiments/knapen_AOT/AOT_stimuli/rescaled_final/1360_rv.mp4	0.0	73.47623753547668	
2	56.7750780582428	movie	1		262	0.0	2.5	/experiments/knapen_AOT/AOT_stimuli/rescaled_final/1360_rv.mp4	0.0	73.51785349845886	2.475226879119873
2	58.332157373428345	pulse	1	t		0.0	2.5	/experiments/knapen_AOT/AOT_stimuli/rescaled_final/1360_rv.mp4	0.0	75.07493281364441	
2	59.25030493736267	fix_post	2		12	0.0	2.5	/experiments/knapen_AOT/AOT_stimuli/rescaled_final/1360_rv.mp4	0.0	75.99308037757874	0.10002923011779785
3	59.35033416748047	fix_pre	0		120	1.0	2.5	/experiments/knapen_AOT/AOT_stimuli/rescaled_final/1846_rv.mp4	0.0	76.09310960769653	1.008484125137329
3	59.93401837348938	pulse	0	t		1.0	2.5	/experiments/knapen_AOT/AOT_stimuli/rescaled_final/1846_rv.mp4	0.0	76.67679381370544	
3	60.3588182926178	movie	1		275	1.0	2.5	/experiments/knapen_AOT/AOT_stimuli/rescaled_final/1846_rv.mp4	0.0	77.10159373283386	2.492016077041626
3	61.532217025756836	pulse	1	t		1.0	2.5	/experiments/knapen_AOT/AOT_stimuli/rescaled_final/1846_rv.mp4	0.0	78.2749924659729	
3	62.850834369659424	fix_post	2		12	1.0	2.5	/experiments/knapen_AOT/AOT_stimuli/rescaled_final/1846_rv.mp4	0.0	79.59360980987549	0.1000678539276123
4	62.950902223587036	fix_pre	0		120	2.0	2.5	/experiments/knapen_AOT/AOT_stimuli/rescaled_final/0251_rv.mp4	0.0	79.6936776638031	1.0084609985351562
4	63.13441205024719	pulse	0	t		2.0	2.5	/experiments/knapen_AOT/AOT_stimuli/rescaled_final/0251_rv.mp4	0.0	79.87718749046326	
4	63.95936322212219	movie	1		269	2.0	2.5	/experiments/knapen_AOT/AOT_stimuli/rescaled_final/0251_rv.mp4	0.0	80.70213866233826	2.492004871368408
4	64.73255681991577	pulse	1	t		2.0	2.5	/experiments/knapen_AOT/AOT_stimuli/rescaled_final/0251_rv.mp4	0.0	81.47533226013184	
4	66.3329246044159	pulse	1	t		2.0	2.5	/experiments/knapen_AOT/AOT_stimuli/rescaled_final/0251_rv.mp4	0.0	83.07570004463196	
4	66.4513680934906	fix_post	2		12	2.0	2.5	/experiments/knapen_AOT/AOT_stimuli/rescaled_final/0251_rv.mp4	0.0	83.19414353370667	0.10007309913635254
5	66.55144119262695	fix_pre	0		120	3.0	2.5	/experiments/knapen_AOT/AOT_stimuli/rescaled_final/0988_fw.mp4	0.0	83.29421663284302	1.0084378719329834
5	67.55987906455994	movie	1		269	3.0	2.5	/experiments/knapen_AOT/AOT_stimuli/rescaled_final/0988_fw.mp4	0.0	84.302654504776	2.4920406341552734
5	67.93412947654724	pulse	1	t		3.0	2.5	/experiments/knapen_AOT/AOT_stimuli/rescaled_final/0988_fw.mp4	0.0	84.6769049167633	
5	69.53337836265564	pulse	1	t		3.0	2.5	/experiments/knapen_AOT/AOT_stimuli/rescaled_final/0988_fw.mp4	0.0	86.2761538028717	
5	70.05191969871521	fix_post	2		12	3.0	2.5	/experiments/knapen_AOT/AOT_stimuli/rescaled_final/0988_fw.mp4	0.0	86.79469513893127	0.10000252723693848
6	70.15192222595215	fix_pre	0		119	4.0	2.5	/experiments/knapen_AOT/AOT_stimuli/rescaled_final/0454_fw.mp4	0.0	86.89469766616821	1.0002484321594238
6	71.13568568229675	pulse	0	t		4.0	2.5	/experiments/knapen_AOT/AOT_stimuli/rescaled_final/0454_fw.mp4	0.0	87.87846112251282	
6	71.15217065811157	movie	1		273	4.0	2.5	/experiments/knapen_AOT/AOT_stimuli/rescaled_final/0454_fw.mp4	0.0	87.89494609832764	2.500279426574707
6	72.73402309417725	pulse	1	t		4.0	2.5	/experiments/knapen_AOT/AOT_stimuli/rescaled_final/0454_fw.mp4	0.0	89.47679853439331	
6	73.65245008468628	fix_post	2		12	4.0	2.5	/experiments/knapen_AOT/AOT_stimuli/rescaled_final/0454_fw.mp4	0.0	90.39522552490234	0.1000056266784668
7	73.75245571136475	fix_pre	0		120	5.0	2.5	blank	1.0	90.49523115158081	1.0001516342163086
7	74.32848381996155	pulse	0	t		5.0	2.5	blank	1.0	91.07125926017761	
7	74.75260734558105	movie	1		300	5.0	2.5	blank	1.0	91.49538278579712	2.500375509262085
7	75.93640637397766	pulse	1	t		5.0	2.5	blank	1.0	92.67918181419373	
7	77.25298285484314	fix_post	2		12	5.0	2.5	blank	1.0	93.9957582950592	0.10003662109375
8	77.35301947593689	fix_pre	0		120	6.0	2.5	/experiments/knapen_AOT/AOT_stimuli/rescaled_final/0825_rv.mp4	0.0	94.09579491615295	1.008516788482666
8	77.52875638008118	pulse	0	t		6.0	2.5	/experiments/knapen_AOT/AOT_stimuli/rescaled_final/0825_rv.mp4	0.0	94.27153182029724	
8	78.36153626441956	movie	1		285	6.0	2.5	/experiments/knapen_AOT/AOT_stimuli/rescaled_final/0825_rv.mp4	0.0	95.10431170463562	2.4919888973236084
8	79.12881302833557	pulse	1	t		6.0	2.5	/experiments/knapen_AOT/AOT_stimuli/rescaled_final/0825_rv.mp4	0.0	95.87158846855164	
8	80.72885251045227	pulse	1	t		6.0	2.5	/experiments/knapen_AOT/AOT_stimuli/rescaled_final/0825_rv.mp4	0.0	97.47162795066833	
8	80.85352516174316	fix_post	2		12	6.0	2.5	/experiments/knapen_AOT/AOT_stimuli/rescaled_final/0825_rv.mp4	0.0	97.59630060195923	0.10009622573852539
9	80.95362138748169	fix_pre	0		120	7.0	2.5	/experiments/knapen_AOT/AOT_stimuli/rescaled_final/1559_rv.mp4	0.0	97.69639682769775	1.008427381515503
9	81.96204876899719	movie	1		273	7.0	2.5	/experiments/knapen_AOT/AOT_stimuli/rescaled_final/1559_rv.mp4	0.0	98.70482420921326	2.4922335147857666
9	82.32905912399292	pulse	1	t		7.0	2.5	/experiments/knapen_AOT/AOT_stimuli/rescaled_final/1559_rv.mp4	0.0	99.07183456420898	
9	83.92925214767456	pulse	1	t		7.0	2.5	/experiments/knapen_AOT/AOT_stimuli/rescaled_final/1559_rv.mp4	0.0	100.67202758789062	
9	84.45428228378296	fix_post	2		12	7.0	2.5	/experiments/knapen_AOT/AOT_stimuli/rescaled_final/1559_rv.mp4	0.0	101.19705772399902	0.09984827041625977
10	84.55413055419922	fix_pre	0		118	8.0	2.5	/experiments/knapen_AOT/AOT_stimuli/rescaled_final/0579_rv.mp4	0.0	101.29690599441528	0.9917819499969482
10	85.52962040901184	pulse	0	t		8.0	2.5	/experiments/knapen_AOT/AOT_stimuli/rescaled_final/0579_rv.mp4	0.0	102.2723958492279	
10	85.54591250419617	movie	1		264	8.0	2.5	/experiments/knapen_AOT/AOT_stimuli/rescaled_final/0579_rv.mp4	0.0	102.28868794441223	2.5003700256347656
10	87.12986660003662	pulse	1	t		8.0	2.5	/experiments/knapen_AOT/AOT_stimuli/rescaled_final/0579_rv.mp4	0.0	103.87264204025269	
10	88.04628252983093	fix_post	2		12	8.0	2.5	/experiments/knapen_AOT/AOT_stimuli/rescaled_final/0579_rv.mp4	0.0	104.789057970047	0.10002899169921875
11	88.14631152153015	fix_pre	0		120	9.0	2.5	/experiments/knapen_AOT/AOT_stimuli/rescaled_final/1497_rv.mp4	0.0	104.88908696174622	1.0085995197296143
11	88.72997856140137	pulse	0	t		9.0	2.5	/experiments/knapen_AOT/AOT_stimuli/rescaled_final/1497_rv.mp4	0.0	105.47275400161743	
11	89.15491104125977	movie	1		269	9.0	2.5	/experiments/knapen_AOT/AOT_stimuli/rescaled_final/1497_rv.mp4	0.0	105.89768648147583	2.4919626712799072
11	90.33021879196167	pulse	1	t		9.0	2.5	/experiments/knapen_AOT/AOT_stimuli/rescaled_final/1497_rv.mp4	0.0	107.07299423217773	
11	91.64687371253967	fix_post	2		12	9.0	2.5	/experiments/knapen_AOT/AOT_stimuli/rescaled_final/1497_rv.mp4	0.0	108.38964915275574	0.09997344017028809
12	91.74684715270996	fix_pre	0		120	10.0	2.5	/experiments/knapen_AOT/AOT_stimuli/rescaled_final/1314_rv.mp4	0.0	108.48962259292603	1.0084774494171143
12	91.93044590950012	pulse	0	t		10.0	2.5	/experiments/knapen_AOT/AOT_stimuli/rescaled_final/1314_rv.mp4	0.0	108.67322134971619	
12	92.75532460212708	movie	1		272	10.0	2.5	/experiments/knapen_AOT/AOT_stimuli/rescaled_final/1314_rv.mp4	0.0	109.49810004234314	2.492032766342163
12	93.5310537815094	pulse	1	t		10.0	2.5	/experiments/knapen_AOT/AOT_stimuli/rescaled_final/1314_rv.mp4	0.0	110.27382922172546	
12	95.12887978553772	pulse	1	t		10.0	2.5	/experiments/knapen_AOT/AOT_stimuli/rescaled_final/1314_rv.mp4	0.0	111.87165522575378	
12	95.24735736846924	fix_post	2		12	10.0	2.5	/experiments/knapen_AOT/AOT_stimuli/rescaled_final/1314_rv.mp4	0.0	111.9901328086853	0.10002279281616211
13	95.3473801612854	fix_pre	0		120	11.0	2.5	/experiments/knapen_AOT/AOT_stimuli/rescaled_final/0454_fw.mp4	0.0	112.09015560150146	1.0085303783416748
13	96.35591053962708	movie	1		271	11.0	2.5	/experiments/knapen_AOT/AOT_stimuli/rescaled_final/0454_fw.mp4	0.0	113.09868597984314	2.491997241973877
13	96.72915935516357	pulse	1	t		11.0	2.5	/experiments/knapen_AOT/AOT_stimuli/rescaled_final/0454_fw.mp4	0.0	113.47193479537964	
13	98.3320665359497	pulse	1	t		11.0	2.5	/experiments/knapen_AOT/AOT_stimuli/rescaled_final/0454_fw.mp4	0.0	115.07484197616577	
13	98.84790778160095	fix_post	2		12	11.0	2.5	/experiments/knapen_AOT/AOT_stimuli/rescaled_final/0454_fw.mp4	0.0	115.59068322181702	0.10001325607299805
14	98.94792103767395	fix_pre	0		119	12.0	2.5	/experiments/knapen_AOT/AOT_stimuli/rescaled_final/0137_rv.mp4	0.0	115.69069647789001	1.008657455444336
14	99.93163108825684	pulse	0	t		12.0	2.5	/experiments/knapen_AOT/AOT_stimuli/rescaled_final/0137_rv.mp4	0.0	116.6744065284729	
14	99.95657849311829	movie	1		270	12.0	2.5	/experiments/knapen_AOT/AOT_stimuli/rescaled_final/0137_rv.mp4	0.0	116.69935393333435	2.491936206817627
14	101.53045153617859	pulse	1	t		12.0	2.5	/experiments/knapen_AOT/AOT_stimuli/rescaled_final/0137_rv.mp4	0.0	118.27322697639465	
14	102.44851469993591	fix_post	2		12	12.0	2.5	/experiments/knapen_AOT/AOT_stimuli/rescaled_final/0137_rv.mp4	0.0	119.19129014015198	0.09993433952331543
15	102.54844903945923	fix_pre	0		120	13.0	2.5	/experiments/knapen_AOT/AOT_stimuli/rescaled_final/0919_rv.mp4	0.0	119.2912244796753	1.0085201263427734
15	103.13209104537964	pulse	0	t		13.0	2.5	/experiments/knapen_AOT/AOT_stimuli/rescaled_final/0919_rv.mp4	0.0	119.8748664855957	
15	103.556969165802	movie	1		268	13.0	2.5	/experiments/knapen_AOT/AOT_stimuli/rescaled_final/0919_rv.mp4	0.0	120.29974460601807	2.492074728012085
15	104.73141670227051	pulse	1	t		13.0	2.5	/experiments/knapen_AOT/AOT_stimuli/rescaled_final/0919_rv.mp4	0.0	121.47419214248657	
15	106.04904389381409	fix_post	2		12	13.0	2.5	/experiments/knapen_AOT/AOT_stimuli/rescaled_final/0919_rv.mp4	0.0	122.79181933403015	0.09995889663696289
16	106.14900279045105	fix_pre	0		120	14.0	2.5	blank	1.0	122.89177823066711	1.0001587867736816
16	106.3325719833374	pulse	0	t		14.0	2.5	blank	1.0	123.07534742355347	
16	107.14916157722473	movie	1		300	14.0	2.5	blank	1.0	123.8919370174408	2.500349283218384
16	107.93282628059387	pulse	1	t		14.0	2.5	blank	1.0	124.67560172080994	
16	109.533038854599	pulse	1	t		14.0	2.5	blank	1.0	126.27581429481506	
16	109.64951086044312	fix_post	2		12	14.0	2.5	blank	1.0	126.39228630065918	0.10003829002380371
17	109.74954915046692	fix_pre	0		120	15.0	2.5	/experiments/knapen_AOT/AOT_stimuli/rescaled_final/0851_rv.mp4	0.0	126.49232459068298	1.0084795951843262
17	110.75802874565125	movie	1		270	15.0	2.5	/experiments/knapen_AOT/AOT_stimuli/rescaled_final/0851_rv.mp4	0.0	127.50080418586731	2.492032527923584
17	111.13176703453064	pulse	1	t		15.0	2.5	/experiments/knapen_AOT/AOT_stimuli/rescaled_final/0851_rv.mp4	0.0	127.8745424747467	
17	112.73140001296997	pulse	1	t		15.0	2.5	/experiments/knapen_AOT/AOT_stimuli/rescaled_final/0851_rv.mp4	0.0	129.47417545318604	
17	113.25006127357483	fix_post	2		12	15.0	2.5	/experiments/knapen_AOT/AOT_stimuli/rescaled_final/0851_rv.mp4	0.0	129.9928367137909	0.1000814437866211
18	113.35014271736145	fix_pre	0		119	16.0	2.5	/experiments/knapen_AOT/AOT_stimuli/rescaled_final/1352_rv.mp4	0.0	130.09291815757751	1.0002317428588867
18	114.33374881744385	pulse	0	t		16.0	2.5	/experiments/knapen_AOT/AOT_stimuli/rescaled_final/1352_rv.mp4	0.0	131.0765242576599	
18	114.35037446022034	movie	1		267	16.0	2.5	/experiments/knapen_AOT/AOT_stimuli/rescaled_final/1352_rv.mp4	0.0	131.0931499004364	2.500222682952881
18	115.93356895446777	pulse	1	t		16.0	2.5	/experiments/knapen_AOT/AOT_stimuli/rescaled_final/1352_rv.mp4	0.0	132.67634439468384	
18	116.85059714317322	fix_post	2		12	16.0	2.5	/experiments/knapen_AOT/AOT_stimuli/rescaled_final/1352_rv.mp4	0.0	133.59337258338928	0.10001468658447266
19	116.95061182975769	fix_pre	0		120	17.0	2.5	/experiments/knapen_AOT/AOT_stimuli/rescaled_final/1231_rv.mp4	0.0	133.69338726997375	1.0085694789886475
19	117.53450012207031	pulse	0	t		17.0	2.5	/experiments/knapen_AOT/AOT_stimuli/rescaled_final/1231_rv.mp4	0.0	134.27727556228638	
19	117.95918130874634	movie	1		270	17.0	2.5	/experiments/knapen_AOT/AOT_stimuli/rescaled_final/1231_rv.mp4	0.0	134.7019567489624	2.4919722080230713
19	119.1324622631073	pulse	1	t		17.0	2.5	/experiments/knapen_AOT/AOT_stimuli/rescaled_final/1231_rv.mp4	0.0	135.87523770332336	
19	120.45115351676941	fix_post	2		12	17.0	2.5	/experiments/knapen_AOT/AOT_stimuli/rescaled_final/1231_rv.mp4	0.0	137.19392895698547	0.10006928443908691
20	120.5512228012085	fix_pre	0		120	18.0	2.5	/experiments/knapen_AOT/AOT_stimuli/rescaled_final/1681_rv.mp4	0.0	137.29399824142456	1.008579969406128
20	120.73480081558228	pulse	0	t		18.0	2.5	/experiments/knapen_AOT/AOT_stimuli/rescaled_final/1681_rv.mp4	0.0	137.47757625579834	
20	121.55980277061462	movie	1		282	18.0	2.5	/experiments/knapen_AOT/AOT_stimuli/rescaled_final/1681_rv.mp4	0.0	138.3025782108307	2.491886854171753
20	122.33271050453186	pulse	1	t		18.0	2.5	/experiments/knapen_AOT/AOT_stimuli/rescaled_final/1681_rv.mp4	0.0	139.07548594474792	
20	123.93325591087341	pulse	1	t		18.0	2.5	/experiments/knapen_AOT/AOT_stimuli/rescaled_final/1681_rv.mp4	0.0	140.67603135108948	
20	124.05168962478638	fix_post	2		12	18.0	2.5	/experiments/knapen_AOT/AOT_stimuli/rescaled_final/1681_rv.mp4	0.0	140.79446506500244	0.10005331039428711
21	124.15174293518066	fix_pre	0		120	19.0	2.5	/experiments/knapen_AOT/AOT_stimuli/rescaled_final/1449_rv.mp4	0.0	140.89451837539673	1.0084662437438965
21	125.16020917892456	movie	1		264	19.0	2.5	/experiments/knapen_AOT/AOT_stimuli/rescaled_final/1449_rv.mp4	0.0	141.90298461914062	2.492011070251465
21	125.53400039672852	pulse	1	t		19.0	2.5	/experiments/knapen_AOT/AOT_stimuli/rescaled_final/1449_rv.mp4	0.0	142.27677583694458	
21	127.13350296020508	pulse	1	t		19.0	2.5	/experiments/knapen_AOT/AOT_stimuli/rescaled_final/1449_rv.mp4	0.0	143.87627840042114	
21	127.65222024917603	fix_post	2		12	19.0	2.5	/experiments/knapen_AOT/AOT_stimuli/rescaled_final/1449_rv.mp4	0.0	144.3949956893921	0.10001802444458008
22	127.7522382736206	fix_pre	0		119	20.0	2.5	blank	1.0	144.49501371383667	0.991840124130249
22	128.7361617088318	pulse	0	t		20.0	2.5	blank	1.0	145.47893714904785	
22	128.74407839775085	movie	1		301	20.0	2.5	blank	1.0	145.48685383796692	2.5087194442749023
22	130.32943844795227	pulse	1	t		20.0	2.5	blank	1.0	147.07221388816833	
22	131.25279784202576	fix_post	2		12	20.0	2.5	blank	1.0	147.99557328224182	0.09999990463256836
23	131.35279774665833	fix_pre	0		120	21.0	2.5	/experiments/knapen_AOT/AOT_stimuli/rescaled_final/0808_fw.mp4	0.0	148.0955731868744	1.0084686279296875
23	131.93642449378967	pulse	0	t		21.0	2.5	/experiments/knapen_AOT/AOT_stimuli/rescaled_final/0808_fw.mp4	0.0	148.67919993400574	
23	132.361266374588	movie	1		265	21.0	2.5	/experiments/knapen_AOT/AOT_stimuli/rescaled_final/0808_fw.mp4	0.0	149.10404181480408	2.492056131362915
23	133.5362672805786	pulse	1	t		21.0	2.5	/experiments/knapen_AOT/AOT_stimuli/rescaled_final/0808_fw.mp4	0.0	150.27904272079468	
23	134.85332250595093	fix_post	2		12	21.0	2.5	/experiments/knapen_AOT/AOT_stimuli/rescaled_final/0808_fw.mp4	0.0	151.596097946167	0.10000467300415039
24	134.95332717895508	fix_pre	0		120	22.0	2.5	/experiments/knapen_AOT/AOT_stimuli/rescaled_final/1560_fw.mp4	0.0	151.69610261917114	1.0084738731384277
24	135.1290421485901	pulse	0	t		22.0	2.5	/experiments/knapen_AOT/AOT_stimuli/rescaled_final/1560_fw.mp4	0.0	151.87181758880615	
24	135.9618010520935	movie	1		282	22.0	2.5	/experiments/knapen_AOT/AOT_stimuli/rescaled_final/1560_fw.mp4	0.0	152.70457649230957	2.4920456409454346
24	136.72944593429565	pulse	1	t		22.0	2.5	/experiments/knapen_AOT/AOT_stimuli/rescaled_final/1560_fw.mp4	0.0	153.47222137451172	
24	138.32923221588135	pulse	1	t		22.0	2.5	/experiments/knapen_AOT/AOT_stimuli/rescaled_final/1560_fw.mp4	0.0	155.0720076560974	
24	138.45384669303894	fix_post	2		12	22.0	2.5	/experiments/knapen_AOT/AOT_stimuli/rescaled_final/1560_fw.mp4	0.0	155.196622133255	0.10001111030578613
25	138.55385780334473	fix_pre	0		120	23.0	2.5	/experiments/knapen_AOT/AOT_stimuli/rescaled_final/1546_fw.mp4	0.0	155.2966332435608	1.0085129737854004
25	139.56237077713013	movie	1		257	23.0	2.5	/experiments/knapen_AOT/AOT_stimuli/rescaled_final/1546_fw.mp4	0.0	156.3051462173462	2.4920077323913574
25	139.92936754226685	pulse	1	t		23.0	2.5	/experiments/knapen_AOT/AOT_stimuli/rescaled_final/1546_fw.mp4	0.0	156.6721429824829	
25	141.52951669692993	pulse	1	t		23.0	2.5	/experiments/knapen_AOT/AOT_stimuli/rescaled_final/1546_fw.mp4	0.0	158.272292137146	
25	142.05437850952148	fix_post	2		12	23.0	2.5	/experiments/knapen_AOT/AOT_stimuli/rescaled_final/1546_fw.mp4	0.0	158.79715394973755	0.10002517700195312
26	142.15440368652344	fix_pre	0		118	24.0	2.5	/experiments/knapen_AOT/AOT_stimuli/rescaled_final/1222_rv.mp4	0.0	158.8971791267395	0.9919068813323975
26	143.12990474700928	pulse	0	t		24.0	2.5	/experiments/knapen_AOT/AOT_stimuli/rescaled_final/1222_rv.mp4	0.0	159.87268018722534	
26	143.14631056785583	movie	1		278	24.0	2.5	/experiments/knapen_AOT/AOT_stimuli/rescaled_final/1222_rv.mp4	0.0	159.8890860080719	2.500284433364868
26	144.7303237915039	pulse	1	t		24.0	2.5	/experiments/knapen_AOT/AOT_stimuli/rescaled_final/1222_rv.mp4	0.0	161.47309923171997	
26	145.6465950012207	fix_post	2		12	24.0	2.5	/experiments/knapen_AOT/AOT_stimuli/rescaled_final/1222_rv.mp4	0.0	162.38937044143677	0.10001611709594727
27	145.74661111831665	fix_pre	0		120	25.0	2.5	/experiments/knapen_AOT/AOT_stimuli/rescaled_final/1388_rv.mp4	0.0	162.48938655853271	1.0085062980651855
27	146.33025550842285	pulse	0	t		25.0	2.5	/experiments/knapen_AOT/AOT_stimuli/rescaled_final/1388_rv.mp4	0.0	163.07303094863892	
27	146.75511741638184	movie	1		265	25.0	2.5	/experiments/knapen_AOT/AOT_stimuli/rescaled_final/1388_rv.mp4	0.0	163.4978928565979	2.49208664894104
27	147.93021297454834	pulse	1	t		25.0	2.5	/experiments/knapen_AOT/AOT_stimuli/rescaled_final/1388_rv.mp4	0.0	164.6729884147644	
27	149.24720406532288	fix_post	2		12	25.0	2.5	/experiments/knapen_AOT/AOT_stimuli/rescaled_final/1388_rv.mp4	0.0	165.98997950553894	0.10000729560852051
28	149.3472113609314	fix_pre	0		120	26.0	2.5	/experiments/knapen_AOT/AOT_stimuli/rescaled_final/0808_fw.mp4	0.0	166.08998680114746	1.0084376335144043
28	149.5307629108429	pulse	0	t		26.0	2.5	/experiments/knapen_AOT/AOT_stimuli/rescaled_final/0808_fw.mp4	0.0	166.27353835105896	
28	150.3556489944458	movie	1		277	26.0	2.5	/experiments/knapen_AOT/AOT_stimuli/rescaled_final/0808_fw.mp4	0.0	167.09842443466187	2.4920766353607178
28	151.13112592697144	pulse	1	t		26.0	2.5	/experiments/knapen_AOT/AOT_stimuli/rescaled_final/0808_fw.mp4	0.0	167.8739013671875	
28	152.7294089794159	pulse	1	t		26.0	2.5	/experiments/knapen_AOT/AOT_stimuli/rescaled_final/0808_fw.mp4	0.0	169.47218441963196	
28	152.84772562980652	fix_post	2		12	26.0	2.5	/experiments/knapen_AOT/AOT_stimuli/rescaled_final/0808_fw.mp4	0.0	169.59050107002258	0.10001325607299805
29	152.94773888587952	fix_pre	0		120	27.0	2.5	blank	1.0	169.69051432609558	1.0000884532928467
29	153.94782733917236	movie	1		300	27.0	2.5	blank	1.0	170.69060277938843	2.5004079341888428
29	154.3315086364746	pulse	1	t		27.0	2.5	blank	1.0	171.07428407669067	
29	155.93183064460754	pulse	1	t		27.0	2.5	blank	1.0	172.6746060848236	
29	156.4482352733612	fix_post	2		12	27.0	2.5	blank	1.0	173.19101071357727	0.09998488426208496
30	156.5482201576233	fix_pre	0		119	28.0	2.5	/experiments/knapen_AOT/AOT_stimuli/rescaled_final/1138_rv.mp4	0.0	173.29099559783936	1.0003478527069092
30	157.53192901611328	pulse	0	t		28.0	2.5	/experiments/knapen_AOT/AOT_stimuli/rescaled_final/1138_rv.mp4	0.0	174.27470445632935	
30	157.5485680103302	movie	1		263	28.0	2.5	/experiments/knapen_AOT/AOT_stimuli/rescaled_final/1138_rv.mp4	0.0	174.29134345054626	2.500229597091675
30	159.13100504875183	pulse	1	t		28.0	2.5	/experiments/knapen_AOT/AOT_stimuli/rescaled_final/1138_rv.mp4	0.0	175.8737804889679	
30	160.04879760742188	fix_post	2		12	28.0	2.5	/experiments/knapen_AOT/AOT_stimuli/rescaled_final/1138_rv.mp4	0.0	176.79157304763794	0.09999418258666992
31	160.14879179000854	fix_pre	0		120	29.0	2.5	/experiments/knapen_AOT/AOT_stimuli/rescaled_final/1658_rv.mp4	0.0	176.8915672302246	1.0084879398345947
31	160.73250913619995	pulse	0	t		29.0	2.5	/experiments/knapen_AOT/AOT_stimuli/rescaled_final/1658_rv.mp4	0.0	177.47528457641602	
31	161.15727972984314	movie	1		280	29.0	2.5	/experiments/knapen_AOT/AOT_stimuli/rescaled_final/1658_rv.mp4	0.0	177.9000551700592	2.4920544624328613
31	162.3311312198639	pulse	1	t		29.0	2.5	/experiments/knapen_AOT/AOT_stimuli/rescaled_final/1658_rv.mp4	0.0	179.07390666007996	
31	163.649334192276	fix_post	2		12	29.0	2.5	/experiments/knapen_AOT/AOT_stimuli/rescaled_final/1658_rv.mp4	0.0	180.39210963249207	0.10001158714294434
32	163.74934577941895	fix_pre	0		120	30.0	2.5	/experiments/knapen_AOT/AOT_stimuli/rescaled_final/1434_rv.mp4	0.0	180.492121219635	1.0084922313690186
32	163.93297004699707	pulse	0	t		30.0	2.5	/experiments/knapen_AOT/AOT_stimuli/rescaled_final/1434_rv.mp4	0.0	180.67574548721313	
32	164.75783801078796	movie	1		260	30.0	2.5	/experiments/knapen_AOT/AOT_stimuli/rescaled_final/1434_rv.mp4	0.0	181.50061345100403	2.492004871368408
32	165.53120875358582	pulse	1	t		30.0	2.5	/experiments/knapen_AOT/AOT_stimuli/rescaled_final/1434_rv.mp4	0.0	182.27398419380188	
32	167.133620262146	pulse	1	t		30.0	2.5	/experiments/knapen_AOT/AOT_stimuli/rescaled_final/1434_rv.mp4	0.0	183.87639570236206	
32	167.24984288215637	fix_post	2		12	30.0	2.5	/experiments/knapen_AOT/AOT_stimuli/rescaled_final/1434_rv.mp4	0.0	183.99261832237244	0.10001969337463379
33	167.349862575531	fix_pre	0		120	31.0	2.5	/experiments/knapen_AOT/AOT_stimuli/rescaled_final/0878_rv.mp4	0.0	184.09263801574707	1.008474349975586
33	168.3583369255066	movie	1		274	31.0	2.5	/experiments/knapen_AOT/AOT_stimuli/rescaled_final/0878_rv.mp4	0.0	185.10111236572266	2.4920341968536377
33	168.7320122718811	pulse	1	t		31.0	2.5	/experiments/knapen_AOT/AOT_stimuli/rescaled_final/0878_rv.mp4	0.0	185.47478771209717	
33	170.33188915252686	pulse	1	t		31.0	2.5	/experiments/knapen_AOT/AOT_stimuli/rescaled_final/0878_rv.mp4	0.0	187.07466459274292	
33	170.85037112236023	fix_post	2		12	31.0	2.5	/experiments/knapen_AOT/AOT_stimuli/rescaled_final/0878_rv.mp4	0.0	187.5931465625763	0.10015273094177246
34	170.950523853302	fix_pre	0		119	32.0	2.5	/experiments/knapen_AOT/AOT_stimuli/rescaled_final/1789_fw.mp4	0.0	187.69329929351807	1.0000243186950684
34	171.9340808391571	pulse	0	t		32.0	2.5	/experiments/knapen_AOT/AOT_stimuli/rescaled_final/1789_fw.mp4	0.0	188.67685627937317	
34	171.95054817199707	movie	1		284	32.0	2.5	/experiments/knapen_AOT/AOT_stimuli/rescaled_final/1789_fw.mp4	0.0	188.69332361221313	2.5005273818969727
34	173.53252911567688	pulse	1	t		32.0	2.5	/experiments/knapen_AOT/AOT_stimuli/rescaled_final/1789_fw.mp4	0.0	190.27530455589294	
34	174.45107555389404	fix_post	2		12	32.0	2.5	/experiments/knapen_AOT/AOT_stimuli/rescaled_final/1789_fw.mp4	0.0	191.1938509941101	0.09984230995178223
35	174.55091786384583	fix_pre	0		120	33.0	2.5	/experiments/knapen_AOT/AOT_stimuli/rescaled_final/1394_fw.mp4	0.0	191.2936933040619	1.0085113048553467
35	175.1345500946045	pulse	0	t		33.0	2.5	/experiments/knapen_AOT/AOT_stimuli/rescaled_final/1394_fw.mp4	0.0	191.87732553482056	
35	175.55942916870117	movie	1		274	33.0	2.5	/experiments/knapen_AOT/AOT_stimuli/rescaled_final/1394_fw.mp4	0.0	192.30220460891724	2.4920222759246826
35	176.73312425613403	pulse	1	t		33.0	2.5	/experiments/knapen_AOT/AOT_stimuli/rescaled_final/1394_fw.mp4	0.0	193.4758996963501	
35	178.05145144462585	fix_post	2		12	33.0	2.5	/experiments/knapen_AOT/AOT_stimuli/rescaled_final/1394_fw.mp4	0.0	194.79422688484192	0.10007452964782715
36	178.15152597427368	fix_pre	0		120	34.0	2.5	blank	1.0	194.89430141448975	1.0000855922698975
36	178.33506417274475	pulse	0	t		34.0	2.5	blank	1.0	195.07783961296082	
36	179.15161156654358	movie	1		300	34.0	2.5	blank	1.0	195.89438700675964	2.500492811203003
36	179.93528652191162	pulse	1	t		34.0	2.5	blank	1.0	196.67806196212769	
36	181.53561067581177	pulse	1	t		34.0	2.5	blank	1.0	198.27838611602783	
36	181.65210437774658	fix_post	2		12	34.0	2.5	blank	1.0	198.39487981796265	0.09992027282714844
37	181.75202465057373	fix_pre	0		120	35.0	2.5	/experiments/knapen_AOT/AOT_stimuli/rescaled_final/0927_rv.mp4	0.0	198.4948000907898	1.0084917545318604
37	182.7605164051056	movie	1		281	35.0	2.5	/experiments/knapen_AOT/AOT_stimuli/rescaled_final/0927_rv.mp4	0.0	199.50329184532166	2.492304563522339
37	183.1342475414276	pulse	1	t		35.0	2.5	/experiments/knapen_AOT/AOT_stimuli/rescaled_final/0927_rv.mp4	0.0	199.87702298164368	
37	184.73577117919922	pulse	1	t		35.0	2.5	/experiments/knapen_AOT/AOT_stimuli/rescaled_final/0927_rv.mp4	0.0	201.47854661941528	
37	185.25282096862793	fix_post	2		12	35.0	2.5	/experiments/knapen_AOT/AOT_stimuli/rescaled_final/0927_rv.mp4	0.0	201.995596408844	0.09978294372558594
38	185.35260391235352	fix_pre	0		119	36.0	2.5	/experiments/knapen_AOT/AOT_stimuli/rescaled_final/0243_rv.mp4	0.0	202.09537935256958	1.000126838684082
38	186.33622908592224	pulse	0	t		36.0	2.5	/experiments/knapen_AOT/AOT_stimuli/rescaled_final/0243_rv.mp4	0.0	203.0790045261383	
38	186.3527307510376	movie	1		282	36.0	2.5	/experiments/knapen_AOT/AOT_stimuli/rescaled_final/0243_rv.mp4	0.0	203.09550619125366	2.500345468521118
38	187.9349548816681	pulse	1	t		36.0	2.5	/experiments/knapen_AOT/AOT_stimuli/rescaled_final/0243_rv.mp4	0.0	204.67773032188416	
38	188.85307621955872	fix_post	2		12	36.0	2.5	/experiments/knapen_AOT/AOT_stimuli/rescaled_final/0243_rv.mp4	0.0	205.59585165977478	0.10002255439758301
39	188.9530987739563	fix_pre	0		120	37.0	2.5	/experiments/knapen_AOT/AOT_stimuli/rescaled_final/1530_rv.mp4	0.0	205.69587421417236	1.008493185043335
39	189.53694105148315	pulse	0	t		37.0	2.5	/experiments/knapen_AOT/AOT_stimuli/rescaled_final/1530_rv.mp4	0.0	206.27971649169922	
39	189.96159195899963	movie	1		272	37.0	2.5	/experiments/knapen_AOT/AOT_stimuli/rescaled_final/1530_rv.mp4	0.0	206.7043673992157	2.4920296669006348
39	191.13516449928284	pulse	1	t		37.0	2.5	/experiments/knapen_AOT/AOT_stimuli/rescaled_final/1530_rv.mp4	0.0	207.8779399394989	
39	192.45362162590027	fix_post	2		12	37.0	2.5	/experiments/knapen_AOT/AOT_stimuli/rescaled_final/1530_rv.mp4	0.0	209.19639706611633	0.10004568099975586
40	192.55366730690002	fix_pre	0		120	38.0	2.5	/experiments/knapen_AOT/AOT_stimuli/rescaled_final/0006_fw.mp4	0.0	209.2964427471161	1.0084896087646484
40	192.7295982837677	pulse	0	t		38.0	2.5	/experiments/knapen_AOT/AOT_stimuli/rescaled_final/0006_fw.mp4	0.0	209.47237372398376	
40	193.56215691566467	movie	1		271	38.0	2.5	/experiments/knapen_AOT/AOT_stimuli/rescaled_final/0006_fw.mp4	0.0	210.30493235588074	2.4920547008514404
40	194.33549118041992	pulse	1	t		38.0	2.5	/experiments/knapen_AOT/AOT_stimuli/rescaled_final/0006_fw.mp4	0.0	211.078266620636	
40	195.9299554824829	pulse	1	t		38.0	2.5	/experiments/knapen_AOT/AOT_stimuli/rescaled_final/0006_fw.mp4	0.0	212.67273092269897	
40	196.0542116165161	fix_post	2		12	38.0	2.5	/experiments/knapen_AOT/AOT_stimuli/rescaled_final/0006_fw.mp4	0.0	212.79698705673218	0.09996771812438965
41	196.1541793346405	fix_pre	0		120	39.0	2.5	/experiments/knapen_AOT/AOT_stimuli/rescaled_final/1394_rv.mp4	0.0	212.89695477485657	1.0085113048553467
41	197.16269063949585	movie	1		267	39.0	2.5	/experiments/knapen_AOT/AOT_stimuli/rescaled_final/1394_rv.mp4	0.0	213.9054660797119	2.492032766342163
41	197.53028512001038	pulse	1	t		39.0	2.5	/experiments/knapen_AOT/AOT_stimuli/rescaled_final/1394_rv.mp4	0.0	214.27306056022644	
41	199.12997484207153	pulse	1	t		39.0	2.5	/experiments/knapen_AOT/AOT_stimuli/rescaled_final/1394_rv.mp4	0.0	215.8727502822876	
41	199.654723405838	fix_post	2		12	39.0	2.5	/experiments/knapen_AOT/AOT_stimuli/rescaled_final/1394_rv.mp4	0.0	216.39749884605408	0.1000363826751709
42	199.75475978851318	fix_pre	0		118	40.0	2.5	blank	1.0	216.49753522872925	0.9834408760070801
42	200.73017263412476	pulse	0	t		40.0	2.5	blank	1.0	217.47294807434082	
42	200.73820066452026	movie	1		301	40.0	2.5	blank	1.0	217.48097610473633	2.508716344833374
42	202.330331325531	pulse	1	t		40.0	2.5	blank	1.0	219.07310676574707	
42	203.24691700935364	fix_post	2		12	40.0	2.5	blank	1.0	219.9896924495697	0.10001158714294434
43	203.34692859649658	fix_pre	0		120	41.0	2.5	/experiments/knapen_AOT/AOT_stimuli/rescaled_final/0299_rv.mp4	0.0	220.08970403671265	1.0084741115570068
43	203.93092131614685	pulse	0	t		41.0	2.5	/experiments/knapen_AOT/AOT_stimuli/rescaled_final/0299_rv.mp4	0.0	220.67369675636292	
43	204.3554027080536	movie	1		283	41.0	2.5	/experiments/knapen_AOT/AOT_stimuli/rescaled_final/0299_rv.mp4	0.0	221.09817814826965	2.492093563079834
43	205.5308165550232	pulse	1	t		41.0	2.5	/experiments/knapen_AOT/AOT_stimuli/rescaled_final/0299_rv.mp4	0.0	222.27359199523926	
43	206.84749627113342	fix_post	2		12	41.0	2.5	/experiments/knapen_AOT/AOT_stimuli/rescaled_final/0299_rv.mp4	0.0	223.5902717113495	0.09998965263366699
44	206.9474859237671	fix_pre	0		120	42.0	2.5	/experiments/knapen_AOT/AOT_stimuli/rescaled_final/1449_fw.mp4	0.0	223.69026136398315	1.0085079669952393
44	207.13104009628296	pulse	0	t		42.0	2.5	/experiments/knapen_AOT/AOT_stimuli/rescaled_final/1449_fw.mp4	0.0	223.87381553649902	
44	207.95599389076233	movie	1		278	42.0	2.5	/experiments/knapen_AOT/AOT_stimuli/rescaled_final/1449_fw.mp4	0.0	224.6987693309784	2.492048501968384
44	208.72986245155334	pulse	1	t		42.0	2.5	/experiments/knapen_AOT/AOT_stimuli/rescaled_final/1449_fw.mp4	0.0	225.4726378917694	
44	210.32951474189758	pulse	1	t		42.0	2.5	/experiments/knapen_AOT/AOT_stimuli/rescaled_final/1449_fw.mp4	0.0	227.07229018211365	
44	210.4480423927307	fix_post	2		12	42.0	2.5	/experiments/knapen_AOT/AOT_stimuli/rescaled_final/1449_fw.mp4	0.0	227.19081783294678	0.09996628761291504
45	210.54800868034363	fix_pre	0		120	43.0	2.5	/experiments/knapen_AOT/AOT_stimuli/rescaled_final/0224_fw.mp4	0.0	227.2907841205597	1.0085055828094482
45	211.55651426315308	movie	1		267	43.0	2.5	/experiments/knapen_AOT/AOT_stimuli/rescaled_final/0224_fw.mp4	0.0	228.29928970336914	2.4920384883880615
45	211.93215584754944	pulse	1	t		43.0	2.5	/experiments/knapen_AOT/AOT_stimuli/rescaled_final/0224_fw.mp4	0.0	228.6749312877655	
45	213.52989029884338	pulse	1	t		43.0	2.5	/experiments/knapen_AOT/AOT_stimuli/rescaled_final/0224_fw.mp4	0.0	230.27266573905945	
45	214.04855275154114	fix_post	2		12	43.0	2.5	/experiments/knapen_AOT/AOT_stimuli/rescaled_final/0224_fw.mp4	0.0	230.7913281917572	0.10000157356262207
46	214.14855432510376	fix_pre	0		119	44.0	2.5	/experiments/knapen_AOT/AOT_stimuli/rescaled_final/1045_rv.mp4	0.0	230.89132976531982	1.0001773834228516
46	215.13230323791504	pulse	0	t		44.0	2.5	/experiments/knapen_AOT/AOT_stimuli/rescaled_final/1045_rv.mp4	0.0	231.8750786781311	
46	215.1487317085266	movie	1		270	44.0	2.5	/experiments/knapen_AOT/AOT_stimuli/rescaled_final/1045_rv.mp4	0.0	231.89150714874268	2.500343084335327
46	216.73219680786133	pulse	1	t		44.0	2.5	/experiments/knapen_AOT/AOT_stimuli/rescaled_final/1045_rv.mp4	0.0	233.4749722480774	
46	217.64907479286194	fix_post	2		12	44.0	2.5	/experiments/knapen_AOT/AOT_stimuli/rescaled_final/1045_rv.mp4	0.0	234.391850233078	0.10003376007080078
47	217.74910855293274	fix_pre	0		120	45.0	2.5	/experiments/knapen_AOT/AOT_stimuli/rescaled_final/0057_rv.mp4	0.0	234.4918839931488	1.008450984954834
47	218.33273124694824	pulse	0	t		45.0	2.5	/experiments/knapen_AOT/AOT_stimuli/rescaled_final/0057_rv.mp4	0.0	235.0755066871643	
47	218.75755953788757	movie	1		281	45.0	2.5	/experiments/knapen_AOT/AOT_stimuli/rescaled_final/0057_rv.mp4	0.0	235.50033497810364	2.492048740386963
47	219.93072295188904	pulse	1	t		45.0	2.5	/experiments/knapen_AOT/AOT_stimuli/rescaled_final/0057_rv.mp4	0.0	236.6734983921051	
47	221.24960827827454	fix_post	2		12	45.0	2.5	/experiments/knapen_AOT/AOT_stimuli/rescaled_final/0057_rv.mp4	0.0	237.9923837184906	0.10002994537353516
48	221.34963822364807	fix_pre	0		104	46.0	2.5	/experiments/knapen_AOT/AOT_stimuli/rescaled_final/1622_fw.mp4	0.0	238.09241366386414	1.0085148811340332
48	221.57006406784058	pulse	0	t		46.0	2.5	/experiments/knapen_AOT/AOT_stimuli/rescaled_final/1622_fw.mp4	0.0	238.31283950805664	
48	222.3581531047821	movie	1		283	46.0	2.5	/experiments/knapen_AOT/AOT_stimuli/rescaled_final/1622_fw.mp4	0.0	239.10092854499817	2.500351905822754
48	223.13126754760742	pulse	1	t		46.0	2.5	/experiments/knapen_AOT/AOT_stimuli/rescaled_final/1622_fw.mp4	0.0	239.8740429878235	
48	224.73168468475342	pulse	1	t		46.0	2.5	/experiments/knapen_AOT/AOT_stimuli/rescaled_final/1622_fw.mp4	0.0	241.47446012496948	
48	224.85850501060486	fix_post	2		11	46.0	2.5	/experiments/knapen_AOT/AOT_stimuli/rescaled_final/1622_fw.mp4	0.0	241.60128045082092	0.0918428897857666
49	224.95034790039062	fix_pre	0		120	47.0	2.5	/experiments/knapen_AOT/AOT_stimuli/rescaled_final/0647_rv.mp4	0.0	241.6931233406067	1.0083158016204834
49	225.9586637020111	movie	1		273	47.0	2.5	/experiments/knapen_AOT/AOT_stimuli/rescaled_final/0647_rv.mp4	0.0	242.70143914222717	2.4920713901519775
49	226.33191776275635	pulse	1	t		47.0	2.5	/experiments/knapen_AOT/AOT_stimuli/rescaled_final/0647_rv.mp4	0.0	243.0746932029724	
49	227.9321038722992	pulse	1	t		47.0	2.5	/experiments/knapen_AOT/AOT_stimuli/rescaled_final/0647_rv.mp4	0.0	244.67487931251526	
49	228.4507350921631	fix_post	2		12	47.0	2.5	/experiments/knapen_AOT/AOT_stimuli/rescaled_final/0647_rv.mp4	0.0	245.19351053237915	0.10001420974731445
50	228.5507493019104	fix_pre	0		119	48.0	2.5	blank	1.0	245.29352474212646	0.9917678833007812
50	229.5344877243042	pulse	0	t		48.0	2.5	blank	1.0	246.27726316452026	
50	229.54251718521118	movie	1		301	48.0	2.5	blank	1.0	246.28529262542725	2.5087199211120605
50	231.13465476036072	pulse	1	t		48.0	2.5	blank	1.0	247.87743020057678	
50	232.05123710632324	fix_post	2		12	48.0	2.5	blank	1.0	248.7940125465393	0.10009527206420898
51	232.15133237838745	fix_pre	0		120	49.0	2.5	/experiments/knapen_AOT/AOT_stimuli/rescaled_final/0743_rv.mp4	0.0	248.89410781860352	1.0084936618804932
51	232.73489713668823	pulse	0	t		49.0	2.5	/experiments/knapen_AOT/AOT_stimuli/rescaled_final/0743_rv.mp4	0.0	249.4776725769043	
51	233.15982604026794	movie	1		288	49.0	2.5	/experiments/knapen_AOT/AOT_stimuli/rescaled_final/0743_rv.mp4	0.0	249.902601480484	2.4919724464416504
51	234.33303022384644	pulse	1	t		49.0	2.5	/experiments/knapen_AOT/AOT_stimuli/rescaled_final/0743_rv.mp4	0.0	251.0758056640625	
51	235.6517984867096	fix_post	2		12	49.0	2.5	/experiments/knapen_AOT/AOT_stimuli/rescaled_final/0743_rv.mp4	0.0	252.39457392692566	0.10000324249267578
52	235.75180172920227	fix_pre	0		120	50.0	2.5	/experiments/knapen_AOT/AOT_stimuli/rescaled_final/1045_fw.mp4	0.0	252.49457716941833	1.0085444450378418
52	235.93551564216614	pulse	0	t		50.0	2.5	/experiments/knapen_AOT/AOT_stimuli/rescaled_final/1045_fw.mp4	0.0	252.6782910823822	
52	236.7603461742401	movie	1		282	50.0	2.5	/experiments/knapen_AOT/AOT_stimuli/rescaled_final/1045_fw.mp4	0.0	253.50312161445618	2.491968870162964
52	237.53331518173218	pulse	1	t		50.0	2.5	/experiments/knapen_AOT/AOT_stimuli/rescaled_final/1045_fw.mp4	0.0	254.27609062194824	
52	239.1341528892517	pulse	1	t		50.0	2.5	/experiments/knapen_AOT/AOT_stimuli/rescaled_final/1045_fw.mp4	0.0	255.87692832946777	
52	239.25231504440308	fix_post	2		12	50.0	2.5	/experiments/knapen_AOT/AOT_stimuli/rescaled_final/1045_fw.mp4	0.0	255.99509048461914	0.10004234313964844
53	239.35235738754272	fix_pre	0		120	51.0	2.5	/experiments/knapen_AOT/AOT_stimuli/rescaled_final/1789_fw.mp4	0.0	256.0951328277588	1.0084807872772217
53	240.36083817481995	movie	1		283	51.0	2.5	/experiments/knapen_AOT/AOT_stimuli/rescaled_final/1789_fw.mp4	0.0	257.103613615036	2.4920310974121094
53	240.73426151275635	pulse	1	t		51.0	2.5	/experiments/knapen_AOT/AOT_stimuli/rescaled_final/1789_fw.mp4	0.0	257.4770369529724	
53	242.3344328403473	pulse	1	t		51.0	2.5	/experiments/knapen_AOT/AOT_stimuli/rescaled_final/1789_fw.mp4	0.0	259.07720828056335	
53	242.85286927223206	fix_post	2		12	51.0	2.5	/experiments/knapen_AOT/AOT_stimuli/rescaled_final/1789_fw.mp4	0.0	259.5956447124481	0.10001897811889648
54	242.95288825035095	fix_pre	0		119	52.0	2.5	/experiments/knapen_AOT/AOT_stimuli/rescaled_final/1622_rv.mp4	0.0	259.695663690567	1.0001320838928223
54	243.93662309646606	pulse	0	t		52.0	2.5	/experiments/knapen_AOT/AOT_stimuli/rescaled_final/1622_rv.mp4	0.0	260.67939853668213	
54	243.95302033424377	movie	1		289	52.0	2.5	/experiments/knapen_AOT/AOT_stimuli/rescaled_final/1622_rv.mp4	0.0	260.69579577445984	2.5003833770751953
54	245.53547763824463	pulse	1	t		52.0	2.5	/experiments/knapen_AOT/AOT_stimuli/rescaled_final/1622_rv.mp4	0.0	262.2782530784607	
54	246.45340371131897	fix_post	2		12	52.0	2.5	/experiments/knapen_AOT/AOT_stimuli/rescaled_final/1622_rv.mp4	0.0	263.19617915153503	0.10002326965332031
55	246.5534269809723	fix_pre	0		120	53.0	2.5	/experiments/knapen_AOT/AOT_stimuli/rescaled_final/1974_fw.mp4	0.0	263.29620242118835	1.0084967613220215
55	247.12904453277588	pulse	0	t		53.0	2.5	/experiments/knapen_AOT/AOT_stimuli/rescaled_final/1974_fw.mp4	0.0	263.87181997299194	
55	247.5619237422943	movie	1		287	53.0	2.5	/experiments/knapen_AOT/AOT_stimuli/rescaled_final/1974_fw.mp4	0.0	264.3046991825104	2.492053508758545
55	248.72898817062378	pulse	1	t		53.0	2.5	/experiments/knapen_AOT/AOT_stimuli/rescaled_final/1974_fw.mp4	0.0	265.47176361083984	
55	250.05397725105286	fix_post	2		12	53.0	2.5	/experiments/knapen_AOT/AOT_stimuli/rescaled_final/1974_fw.mp4	0.0	266.7967526912689	0.09996247291564941
56	250.1539397239685	fix_pre	0		120	54.0	2.5	/experiments/knapen_AOT/AOT_stimuli/rescaled_final/0434_rv.mp4	0.0	266.89671516418457	1.0085160732269287
56	250.32922768592834	pulse	0	t		54.0	2.5	/experiments/knapen_AOT/AOT_stimuli/rescaled_final/0434_rv.mp4	0.0	267.0720031261444	
56	251.16245579719543	movie	1		284	54.0	2.5	/experiments/knapen_AOT/AOT_stimuli/rescaled_final/0434_rv.mp4	0.0	267.9052312374115	2.4920613765716553
56	251.92943811416626	pulse	1	t		54.0	2.5	/experiments/knapen_AOT/AOT_stimuli/rescaled_final/0434_rv.mp4	0.0	268.6722135543823	
56	253.53009295463562	pulse	1	t		54.0	2.5	/experiments/knapen_AOT/AOT_stimuli/rescaled_final/0434_rv.mp4	0.0	270.2728683948517	
56	253.6545171737671	fix_post	2		12	54.0	2.5	/experiments/knapen_AOT/AOT_stimuli/rescaled_final/0434_rv.mp4	0.0	270.39729261398315	0.09999346733093262
57	253.75451064109802	fix_pre	0		120	55.0	2.5	blank	1.0	270.4972860813141	1.000133991241455
57	254.75464463233948	movie	1		300	55.0	2.5	blank	1.0	271.49742007255554	2.5003716945648193
57	255.12997579574585	pulse	1	t		55.0	2.5	blank	1.0	271.8727512359619	
57	256.73014998435974	pulse	1	t		55.0	2.5	blank	1.0	273.4729254245758	
57	257.2550163269043	fix_post	2		12	55.0	2.5	blank	1.0	273.99779176712036	0.10005497932434082
58	257.35507130622864	fix_pre	0		118	56.0	2.5	/experiments/knapen_AOT/AOT_stimuli/rescaled_final/1434_fw.mp4	0.0	274.0978467464447	0.9917759895324707
58	258.3304281234741	pulse	0	t		56.0	2.5	/experiments/knapen_AOT/AOT_stimuli/rescaled_final/1434_fw.mp4	0.0	275.0732035636902	
58	258.3468472957611	movie	1		282	56.0	2.5	/experiments/knapen_AOT/AOT_stimuli/rescaled_final/1434_fw.mp4	0.0	275.0896227359772	2.5003607273101807
58	259.929212808609	pulse	1	t		56.0	2.5	/experiments/knapen_AOT/AOT_stimuli/rescaled_final/1434_fw.mp4	0.0	276.6719882488251	
58	260.8472080230713	fix_post	2		12	56.0	2.5	/experiments/knapen_AOT/AOT_stimuli/rescaled_final/1434_fw.mp4	0.0	277.58998346328735	0.10004281997680664
59	260.9472508430481	fix_pre	0		120	57.0	2.5	/experiments/knapen_AOT/AOT_stimuli/rescaled_final/2173_fw.mp4	0.0	277.69002628326416	1.0085718631744385
59	261.530925989151	pulse	0	t		57.0	2.5	/experiments/knapen_AOT/AOT_stimuli/rescaled_final/2173_fw.mp4	0.0	278.27370142936707	
59	261.95582270622253	movie	1		280	57.0	2.5	/experiments/knapen_AOT/AOT_stimuli/rescaled_final/2173_fw.mp4	0.0	278.6985981464386	2.4919872283935547
59	263.1298260688782	pulse	1	t		57.0	2.5	/experiments/knapen_AOT/AOT_stimuli/rescaled_final/2173_fw.mp4	0.0	279.87260150909424	
59	264.4478099346161	fix_post	2		12	57.0	2.5	/experiments/knapen_AOT/AOT_stimuli/rescaled_final/2173_fw.mp4	0.0	281.19058537483215	0.10011553764343262
60	264.5479254722595	fix_pre	0		120	58.0	2.5	/experiments/knapen_AOT/AOT_stimuli/rescaled_final/1789_rv.mp4	0.0	281.2907009124756	1.0083391666412354
60	264.7314076423645	pulse	0	t		58.0	2.5	/experiments/knapen_AOT/AOT_stimuli/rescaled_final/1789_rv.mp4	0.0	281.47418308258057	
60	265.55626463890076	movie	1		276	58.0	2.5	/experiments/knapen_AOT/AOT_stimuli/rescaled_final/1789_rv.mp4	0.0	282.2990400791168	2.492035388946533
60	266.3296961784363	pulse	1	t		58.0	2.5	/experiments/knapen_AOT/AOT_stimuli/rescaled_final/1789_rv.mp4	0.0	283.07247161865234	
60	267.92971658706665	pulse	1	t		58.0	2.5	/experiments/knapen_AOT/AOT_stimuli/rescaled_final/1789_rv.mp4	0.0	284.6724920272827	
60	268.0483000278473	fix_post	2		12	58.0	2.5	/experiments/knapen_AOT/AOT_stimuli/rescaled_final/1789_rv.mp4	0.0	284.79107546806335	0.10001730918884277
61	268.14831733703613	fix_pre	0		120	59.0	2.5	/experiments/knapen_AOT/AOT_stimuli/rescaled_final/0740_fw.mp4	0.0	284.8910927772522	1.00852370262146
61	269.1568410396576	movie	1		285	59.0	2.5	/experiments/knapen_AOT/AOT_stimuli/rescaled_final/0740_fw.mp4	0.0	285.89961647987366	2.491990566253662
61	269.5305733680725	pulse	1	t		59.0	2.5	/experiments/knapen_AOT/AOT_stimuli/rescaled_final/0740_fw.mp4	0.0	286.2733488082886	
61	271.1303000450134	pulse	1	t		59.0	2.5	/experiments/knapen_AOT/AOT_stimuli/rescaled_final/0740_fw.mp4	0.0	287.8730754852295	
61	271.64883160591125	fix_post	2		12	59.0	2.5	/experiments/knapen_AOT/AOT_stimuli/rescaled_final/0740_fw.mp4	0.0	288.3916070461273	0.10013365745544434
62	271.7489652633667	fix_pre	0		119	60.0	2.5	/experiments/knapen_AOT/AOT_stimuli/rescaled_final/0743_rv.mp4	0.0	288.49174070358276	1.00006103515625
62	272.732638835907	pulse	0	t		60.0	2.5	/experiments/knapen_AOT/AOT_stimuli/rescaled_final/0743_rv.mp4	0.0	289.47541427612305	
62	272.74902629852295	movie	1		278	60.0	2.5	/experiments/knapen_AOT/AOT_stimuli/rescaled_final/0743_rv.mp4	0.0	289.491801738739	2.500406503677368
62	274.33120131492615	pulse	1	t		60.0	2.5	/experiments/knapen_AOT/AOT_stimuli/rescaled_final/0743_rv.mp4	0.0	291.0739767551422	
62	275.2494328022003	fix_post	2		12	60.0	2.5	/experiments/knapen_AOT/AOT_stimuli/rescaled_final/0743_rv.mp4	0.0	291.9922082424164	0.09996676445007324
63	275.3493995666504	fix_pre	0		120	61.0	2.5	/experiments/knapen_AOT/AOT_stimuli/rescaled_final/0238_rv.mp4	0.0	292.09217500686646	1.0085136890411377
63	275.93303871154785	pulse	0	t		61.0	2.5	/experiments/knapen_AOT/AOT_stimuli/rescaled_final/0238_rv.mp4	0.0	292.6758141517639	
63	276.3579132556915	movie	1		285	61.0	2.5	/experiments/knapen_AOT/AOT_stimuli/rescaled_final/0238_rv.mp4	0.0	293.1006886959076	2.49202299118042
63	277.53151178359985	pulse	1	t		61.0	2.5	/experiments/knapen_AOT/AOT_stimuli/rescaled_final/0238_rv.mp4	0.0	294.2742872238159	
63	278.84993624687195	fix_post	2		12	61.0	2.5	/experiments/knapen_AOT/AOT_stimuli/rescaled_final/0238_rv.mp4	0.0	295.592711687088	0.10003066062927246
64	278.9499669075012	fix_pre	0		120	62.0	2.5	/experiments/knapen_AOT/AOT_stimuli/rescaled_final/0819_fw.mp4	0.0	295.6927423477173	1.0084898471832275
64	279.13351035118103	pulse	0	t		62.0	2.5	/experiments/knapen_AOT/AOT_stimuli/rescaled_final/0819_fw.mp4	0.0	295.8762857913971	
64	279.95845675468445	movie	1		281	62.0	2.5	/experiments/knapen_AOT/AOT_stimuli/rescaled_final/0819_fw.mp4	0.0	296.7012321949005	2.4920170307159424
64	280.732248544693	pulse	1	t		62.0	2.5	/experiments/knapen_AOT/AOT_stimuli/rescaled_final/0819_fw.mp4	0.0	297.47502398490906	
64	282.3322284221649	pulse	1	t		62.0	2.5	/experiments/knapen_AOT/AOT_stimuli/rescaled_final/0819_fw.mp4	0.0	299.075003862381	
64	282.4504737854004	fix_post	2		12	62.0	2.5	/experiments/knapen_AOT/AOT_stimuli/rescaled_final/0819_fw.mp4	0.0	299.19324922561646	0.10001420974731445
65	282.5504879951477	fix_pre	0		120	63.0	2.5	blank	1.0	299.29326343536377	1.0001511573791504
65	283.55063915252686	movie	1		300	63.0	2.5	blank	1.0	300.2934145927429	2.5003502368927
65	283.9342381954193	pulse	1	t		63.0	2.5	blank	1.0	300.6770136356354	
65	285.5344252586365	pulse	1	t		63.0	2.5	blank	1.0	302.27720069885254	
65	286.05098938941956	fix_post	2		12	63.0	2.5	blank	1.0	302.7937648296356	0.10004067420959473
66	286.15103006362915	fix_pre	0		119	64.0	2.5	/experiments/knapen_AOT/AOT_stimuli/rescaled_final/0267_fw.mp4	0.0	302.8938055038452	1.000159740447998
66	287.13472747802734	pulse	0	t		64.0	2.5	/experiments/knapen_AOT/AOT_stimuli/rescaled_final/0267_fw.mp4	0.0	303.8775029182434	
66	287.15118980407715	movie	1		295	64.0	2.5	/experiments/knapen_AOT/AOT_stimuli/rescaled_final/0267_fw.mp4	0.0	303.8939652442932	2.500363826751709
66	288.73352336883545	pulse	1	t		64.0	2.5	/experiments/knapen_AOT/AOT_stimuli/rescaled_final/0267_fw.mp4	0.0	305.4762988090515	
66	289.65155363082886	fix_post	2		12	64.0	2.5	/experiments/knapen_AOT/AOT_stimuli/rescaled_final/0267_fw.mp4	0.0	306.3943290710449	0.10000920295715332
67	289.751562833786	fix_pre	0		120	65.0	2.5	/experiments/knapen_AOT/AOT_stimuli/rescaled_final/1729_fw.mp4	0.0	306.4943382740021	1.0085091590881348
67	290.3353316783905	pulse	0	t		65.0	2.5	/experiments/knapen_AOT/AOT_stimuli/rescaled_final/1729_fw.mp4	0.0	307.07810711860657	
67	290.76007199287415	movie	1		283	65.0	2.5	/experiments/knapen_AOT/AOT_stimuli/rescaled_final/1729_fw.mp4	0.0	307.5028474330902	2.4920289516448975
67	291.93352365493774	pulse	1	t		65.0	2.5	/experiments/knapen_AOT/AOT_stimuli/rescaled_final/1729_fw.mp4	0.0	308.6762990951538	
67	293.25210094451904	fix_post	2		12	65.0	2.5	/experiments/knapen_AOT/AOT_stimuli/rescaled_final/1729_fw.mp4	0.0	309.9948763847351	0.10001230239868164
68	293.3521132469177	fix_pre	0		120	66.0	2.5	/experiments/knapen_AOT/AOT_stimuli/rescaled_final/0779_fw.mp4	0.0	310.0948886871338	1.0085537433624268
68	293.53569078445435	pulse	0	t		66.0	2.5	/experiments/knapen_AOT/AOT_stimuli/rescaled_final/0779_fw.mp4	0.0	310.2784662246704	
68	294.36066699028015	movie	1		288	66.0	2.5	/experiments/knapen_AOT/AOT_stimuli/rescaled_final/0779_fw.mp4	0.0	311.1034424304962	2.4919581413269043
68	295.1338257789612	pulse	1	t		66.0	2.5	/experiments/knapen_AOT/AOT_stimuli/rescaled_final/0779_fw.mp4	0.0	311.87660121917725	
68	296.73406767845154	pulse	1	t		66.0	2.5	/experiments/knapen_AOT/AOT_stimuli/rescaled_final/0779_fw.mp4	0.0	313.4768431186676	
68	296.85262513160706	fix_post	2		12	66.0	2.5	/experiments/knapen_AOT/AOT_stimuli/rescaled_final/0779_fw.mp4	0.0	313.5954005718231	0.10003042221069336
69	296.95265555381775	fix_pre	0		120	67.0	2.5	/experiments/knapen_AOT/AOT_stimuli/rescaled_final/1689_fw.mp4	0.0	313.6954309940338	1.0085928440093994
69	297.96124839782715	movie	1		278	67.0	2.5	/experiments/knapen_AOT/AOT_stimuli/rescaled_final/1689_fw.mp4	0.0	314.7040238380432	2.4919283390045166
69	298.3349356651306	pulse	1	t		67.0	2.5	/experiments/knapen_AOT/AOT_stimuli/rescaled_final/1689_fw.mp4	0.0	315.0777111053467	
69	299.93486166000366	pulse	1	t		67.0	2.5	/experiments/knapen_AOT/AOT_stimuli/rescaled_final/1689_fw.mp4	0.0	316.6776371002197	
69	300.45317673683167	fix_post	2		12	67.0	2.5	/experiments/knapen_AOT/AOT_stimuli/rescaled_final/1689_fw.mp4	0.0	317.19595217704773	0.1000204086303711
70	300.55319714546204	fix_pre	0		119	68.0	2.5	blank	1.0	317.2959725856781	0.9917964935302734
70	301.5368881225586	pulse	0	t		68.0	2.5	blank	1.0	318.27966356277466	
70	301.5449936389923	movie	1		301	68.0	2.5	blank	1.0	318.2877690792084	2.508723258972168
70	303.129403591156	pulse	1	t		68.0	2.5	blank	1.0	319.87217903137207	
70	304.0537168979645	fix_post	2		12	68.0	2.5	blank	1.0	320.79649233818054	0.10013628005981445
71	304.1538531780243	fix_pre	0		120	69.0	2.5	/experiments/knapen_AOT/AOT_stimuli/rescaled_final/0620_fw.mp4	0.0	320.89662861824036	1.0083482265472412
71	304.7296416759491	pulse	0	t		69.0	2.5	/experiments/knapen_AOT/AOT_stimuli/rescaled_final/0620_fw.mp4	0.0	321.47241711616516	
71	305.16220140457153	movie	1		278	69.0	2.5	/experiments/knapen_AOT/AOT_stimuli/rescaled_final/0620_fw.mp4	0.0	321.9049768447876	2.4920554161071777
71	306.32951378822327	pulse	1	t		69.0	2.5	/experiments/knapen_AOT/AOT_stimuli/rescaled_final/0620_fw.mp4	0.0	323.07228922843933	
71	307.6542568206787	fix_post	2		12	69.0	2.5	/experiments/knapen_AOT/AOT_stimuli/rescaled_final/0620_fw.mp4	0.0	324.3970322608948	0.10005044937133789
72	307.75430727005005	fix_pre	0		120	70.0	2.5	/experiments/knapen_AOT/AOT_stimuli/rescaled_final/1034_fw.mp4	0.0	324.4970827102661	1.0084865093231201
72	307.92961263656616	pulse	0	t		70.0	2.5	/experiments/knapen_AOT/AOT_stimuli/rescaled_final/1034_fw.mp4	0.0	324.6723880767822	
72	308.76279377937317	movie	1		281	70.0	2.5	/experiments/knapen_AOT/AOT_stimuli/rescaled_final/1034_fw.mp4	0.0	325.50556921958923	2.492189645767212
72	309.52976727485657	pulse	1	t		70.0	2.5	/experiments/knapen_AOT/AOT_stimuli/rescaled_final/1034_fw.mp4	0.0	326.27254271507263	
72	311.13003492355347	pulse	1	t		70.0	2.5	/experiments/knapen_AOT/AOT_stimuli/rescaled_final/1034_fw.mp4	0.0	327.87281036376953	
72	311.2549834251404	fix_post	2		12	70.0	2.5	/experiments/knapen_AOT/AOT_stimuli/rescaled_final/1034_fw.mp4	0.0	327.99775886535645	0.09982943534851074
73	311.3548128604889	fix_pre	0		120	71.0	2.5	/experiments/knapen_AOT/AOT_stimuli/rescaled_final/1290_rv.mp4	0.0	328.09758830070496	1.0085170269012451
73	312.36332988739014	movie	1		278	71.0	2.5	/experiments/knapen_AOT/AOT_stimuli/rescaled_final/1290_rv.mp4	0.0	329.1061053276062	2.492022752761841
73	312.73028326034546	pulse	1	t		71.0	2.5	/experiments/knapen_AOT/AOT_stimuli/rescaled_final/1290_rv.mp4	0.0	329.4730587005615	
73	314.33078479766846	pulse	1	t		71.0	2.5	/experiments/knapen_AOT/AOT_stimuli/rescaled_final/1290_rv.mp4	0.0	331.0735602378845	
73	314.855352640152	fix_post	2		12	71.0	2.5	/experiments/knapen_AOT/AOT_stimuli/rescaled_final/1290_rv.mp4	0.0	331.59812808036804	0.10000967979431152
74	314.9553623199463	fix_pre	0		118	72.0	2.5	/experiments/knapen_AOT/AOT_stimuli/rescaled_final/1974_rv.mp4	0.0	331.69813776016235	0.9918160438537598
74	315.9307255744934	pulse	0	t		72.0	2.5	/experiments/knapen_AOT/AOT_stimuli/rescaled_final/1974_rv.mp4	0.0	332.6735010147095	
74	315.94717836380005	movie	1		280	72.0	2.5	/experiments/knapen_AOT/AOT_stimuli/rescaled_final/1974_rv.mp4	0.0	332.6899538040161	2.5003879070281982
74	317.5307261943817	pulse	1	t		72.0	2.5	/experiments/knapen_AOT/AOT_stimuli/rescaled_final/1974_rv.mp4	0.0	334.2735016345978	
74	318.44756627082825	fix_post	2		12	72.0	2.5	/experiments/knapen_AOT/AOT_stimuli/rescaled_final/1974_rv.mp4	0.0	335.1903417110443	0.10005021095275879
75	318.547616481781	fix_pre	0		120	73.0	2.5	/experiments/knapen_AOT/AOT_stimuli/rescaled_final/0007_rv.mp4	0.0	335.29039192199707	1.0084915161132812
75	319.1311993598938	pulse	0	t		73.0	2.5	/experiments/knapen_AOT/AOT_stimuli/rescaled_final/0007_rv.mp4	0.0	335.87397480010986	
75	319.5561079978943	movie	1		278	73.0	2.5	/experiments/knapen_AOT/AOT_stimuli/rescaled_final/0007_rv.mp4	0.0	336.29888343811035	2.4919686317443848
75	320.7317409515381	pulse	1	t		73.0	2.5	/experiments/knapen_AOT/AOT_stimuli/rescaled_final/0007_rv.mp4	0.0	337.47451639175415	
75	322.0480766296387	fix_post	2		12	73.0	2.5	/experiments/knapen_AOT/AOT_stimuli/rescaled_final/0007_rv.mp4	0.0	338.79085206985474	0.10002708435058594
76	322.14810371398926	fix_pre	0		120	74.0	2.5	/experiments/knapen_AOT/AOT_stimuli/rescaled_final/1497_fw.mp4	0.0	338.8908791542053	1.0084903240203857
76	322.3317229747772	pulse	0	t		74.0	2.5	/experiments/knapen_AOT/AOT_stimuli/rescaled_final/1497_fw.mp4	0.0	339.0744984149933	
76	323.15659403800964	movie	1		282	74.0	2.5	/experiments/knapen_AOT/AOT_stimuli/rescaled_final/1497_fw.mp4	0.0	339.8993694782257	2.492032051086426
76	323.9313519001007	pulse	1	t		74.0	2.5	/experiments/knapen_AOT/AOT_stimuli/rescaled_final/1497_fw.mp4	0.0	340.6741273403168	
76	325.53026247024536	pulse	1	t		74.0	2.5	/experiments/knapen_AOT/AOT_stimuli/rescaled_final/1497_fw.mp4	0.0	342.2730379104614	
76	325.64862608909607	fix_post	2		12	74.0	2.5	/experiments/knapen_AOT/AOT_stimuli/rescaled_final/1497_fw.mp4	0.0	342.39140152931213	0.10001540184020996
77	325.7486414909363	fix_pre	0		120	75.0	2.5	/experiments/knapen_AOT/AOT_stimuli/rescaled_final/1579_rv.mp4	0.0	342.49141693115234	1.0084881782531738
77	326.75712966918945	movie	1		278	75.0	2.5	/experiments/knapen_AOT/AOT_stimuli/rescaled_final/1579_rv.mp4	0.0	343.4999051094055	2.49202561378479
77	327.1315920352936	pulse	1	t		75.0	2.5	/experiments/knapen_AOT/AOT_stimuli/rescaled_final/1579_rv.mp4	0.0	343.87436747550964	
77	328.7314507961273	pulse	1	t		75.0	2.5	/experiments/knapen_AOT/AOT_stimuli/rescaled_final/1579_rv.mp4	0.0	345.4742262363434	
77	329.24915528297424	fix_post	2		12	75.0	2.5	/experiments/knapen_AOT/AOT_stimuli/rescaled_final/1579_rv.mp4	0.0	345.9919307231903	0.10002684593200684
78	329.34918212890625	fix_pre	0		119	76.0	2.5	blank	1.0	346.0919575691223	0.9918060302734375
78	330.33319878578186	pulse	0	t		76.0	2.5	blank	1.0	347.0759742259979	
78	330.3409881591797	movie	1		301	76.0	2.5	blank	1.0	347.08376359939575	2.50874662399292
78	331.9333188533783	pulse	1	t		76.0	2.5	blank	1.0	348.67609429359436	
78	332.8497347831726	fix_post	2		12	76.0	2.5	blank	1.0	349.5925102233887	0.09999918937683105
79	332.94973397254944	fix_pre	0		120	77.0	2.5	/experiments/knapen_AOT/AOT_stimuli/rescaled_final/0322_fw.mp4	0.0	349.6925094127655	1.008622407913208
79	333.5336492061615	pulse	0	t		77.0	2.5	/experiments/knapen_AOT/AOT_stimuli/rescaled_final/0322_fw.mp4	0.0	350.27642464637756	
79	333.95835638046265	movie	1		275	77.0	2.5	/experiments/knapen_AOT/AOT_stimuli/rescaled_final/0322_fw.mp4	0.0	350.7011318206787	2.4918909072875977
79	335.1321346759796	pulse	1	t		77.0	2.5	/experiments/knapen_AOT/AOT_stimuli/rescaled_final/0322_fw.mp4	0.0	351.8749101161957	
79	336.45024728775024	fix_post	2		12	77.0	2.5	/experiments/knapen_AOT/AOT_stimuli/rescaled_final/0322_fw.mp4	0.0	353.1930227279663	0.10001826286315918
80	336.5502655506134	fix_pre	0		120	78.0	2.5	/experiments/knapen_AOT/AOT_stimuli/rescaled_final/2047_fw.mp4	0.0	353.29304099082947	1.0085713863372803
80	336.73402190208435	pulse	0	t		78.0	2.5	/experiments/knapen_AOT/AOT_stimuli/rescaled_final/2047_fw.mp4	0.0	353.4767973423004	
80	337.5588369369507	movie	1		273	78.0	2.5	/experiments/knapen_AOT/AOT_stimuli/rescaled_final/2047_fw.mp4	0.0	354.30161237716675	2.4919750690460205
80	338.3320457935333	pulse	1	t		78.0	2.5	/experiments/knapen_AOT/AOT_stimuli/rescaled_final/2047_fw.mp4	0.0	355.0748212337494	
80	339.9324462413788	pulse	1	t		78.0	2.5	/experiments/knapen_AOT/AOT_stimuli/rescaled_final/2047_fw.mp4	0.0	356.67522168159485	
80	340.0508120059967	fix_post	2		12	78.0	2.5	/experiments/knapen_AOT/AOT_stimuli/rescaled_final/2047_fw.mp4	0.0	356.79358744621277	0.10000419616699219
81	340.1508162021637	fix_pre	0		120	79.0	2.5	/experiments/knapen_AOT/AOT_stimuli/rescaled_final/1729_fw.mp4	0.0	356.89359164237976	1.0084905624389648
81	341.15930676460266	movie	1		287	79.0	2.5	/experiments/knapen_AOT/AOT_stimuli/rescaled_final/1729_fw.mp4	0.0	357.9020822048187	2.492081642150879
81	341.5327649116516	pulse	1	t		79.0	2.5	/experiments/knapen_AOT/AOT_stimuli/rescaled_final/1729_fw.mp4	0.0	358.2755403518677	
81	343.1329219341278	pulse	1	t		79.0	2.5	/experiments/knapen_AOT/AOT_stimuli/rescaled_final/1729_fw.mp4	0.0	359.8756973743439	
81	343.65138840675354	fix_post	2		12	79.0	2.5	/experiments/knapen_AOT/AOT_stimuli/rescaled_final/1729_fw.mp4	0.0	360.3941638469696	0.0999612808227539
82	343.7513496875763	fix_pre	0		119	80.0	2.5	/experiments/knapen_AOT/AOT_stimuli/rescaled_final/2087_fw.mp4	0.0	360.49412512779236	1.0001444816589355
82	344.73513674736023	pulse	0	t		80.0	2.5	/experiments/knapen_AOT/AOT_stimuli/rescaled_final/2087_fw.mp4	0.0	361.4779121875763	
82	344.75149416923523	movie	1		290	80.0	2.5	/experiments/knapen_AOT/AOT_stimuli/rescaled_final/2087_fw.mp4	0.0	361.4942696094513	2.5003957748413086
82	346.333890914917	pulse	1	t		80.0	2.5	/experiments/knapen_AOT/AOT_stimuli/rescaled_final/2087_fw.mp4	0.0	363.07666635513306	
82	347.25188994407654	fix_post	2		12	80.0	2.5	/experiments/knapen_AOT/AOT_stimuli/rescaled_final/2087_fw.mp4	0.0	363.9946653842926	0.09999918937683105
83	347.35188913345337	fix_pre	0		120	81.0	2.5	/experiments/knapen_AOT/AOT_stimuli/rescaled_final/1689_fw.mp4	0.0	364.09466457366943	1.008500576019287
83	347.9358344078064	pulse	0	t		81.0	2.5	/experiments/knapen_AOT/AOT_stimuli/rescaled_final/1689_fw.mp4	0.0	364.67860984802246	
83	348.36038970947266	movie	1		268	81.0	2.5	/experiments/knapen_AOT/AOT_stimuli/rescaled_final/1689_fw.mp4	0.0	365.1031651496887	2.492259979248047
83	349.5357847213745	pulse	1	t		81.0	2.5	/experiments/knapen_AOT/AOT_stimuli/rescaled_final/1689_fw.mp4	0.0	366.2785601615906	
83	350.8526496887207	fix_post	2		12	81.0	2.5	/experiments/knapen_AOT/AOT_stimuli/rescaled_final/1689_fw.mp4	0.0	367.59542512893677	0.09977364540100098
84	350.9524233341217	fix_pre	0		120	82.0	2.5	blank	1.0	367.69519877433777	1.0003068447113037
84	351.1359314918518	pulse	0	t		82.0	2.5	blank	1.0	367.87870693206787	
84	351.952730178833	movie	1		300	82.0	2.5	blank	1.0	368.6955056190491	2.5002360343933105
84	352.73621797561646	pulse	1	t		82.0	2.5	blank	1.0	369.4789934158325	
84	354.3364362716675	pulse	1	t		82.0	2.5	blank	1.0	371.07921171188354	
84	354.4529662132263	fix_post	2		12	82.0	2.5	blank	1.0	371.1957416534424	0.1000523567199707
85	354.5530185699463	fix_pre	0		120	83.0	2.5	/experiments/knapen_AOT/AOT_stimuli/rescaled_final/0105_rv.mp4	0.0	371.29579401016235	1.0084552764892578
85	355.56147384643555	movie	1		272	83.0	2.5	/experiments/knapen_AOT/AOT_stimuli/rescaled_final/0105_rv.mp4	0.0	372.3042492866516	2.492025375366211
85	355.9350039958954	pulse	1	t		83.0	2.5	/experiments/knapen_AOT/AOT_stimuli/rescaled_final/0105_rv.mp4	0.0	372.67777943611145	
85	357.5353584289551	pulse	1	t		83.0	2.5	/experiments/knapen_AOT/AOT_stimuli/rescaled_final/0105_rv.mp4	0.0	374.27813386917114	
85	358.05349922180176	fix_post	2		12	83.0	2.5	/experiments/knapen_AOT/AOT_stimuli/rescaled_final/0105_rv.mp4	0.0	374.7962746620178	0.1000661849975586
87	358.1535654067993	stim	0		1716					374.8963408470154	14.302101135253906
87	359.13756942749023	pulse	0	t						375.8803448677063	
87	360.7308495044708	pulse	0	t						377.4736249446869	
87	362.3300130367279	pulse	0	t						379.07278847694397	
87	363.92975306510925	pulse	0	t						380.6725285053253	
87	365.52982544898987	pulse	0	t						382.27260088920593	
87	367.1300551891327	pulse	0	t						383.87283062934875	
87	368.7304186820984	pulse	0	t						385.47319412231445	
87	370.33064913749695	pulse	0	t						387.073424577713	
87	371.93100786209106	pulse	0	t						388.67378330230713	
