trial_nr	onset	event_type	phase	response	nr_frames	movie_index	movie_duration	movie_file	blank	onset_abs	duration
0	0.15877890586853027	stim	0		42					20.8971529006958	0.34947896003723145
0	0.50022292137146	response	0	space						21.23859691619873	
1	0.5082578659057617	stim	0		4358					21.246631860733032	36.31646108627319
1	36.8181848526001	pulse	0	t						57.55655884742737	
1	36.824718952178955	stim	1		1717					57.563092947006226	14.30832290649414
1	38.41654300689697	pulse	1	t						59.15491700172424	
1	40.01652789115906	pulse	1	t						60.75490188598633	
1	41.61650991439819	pulse	1	t						62.354883909225464	
1	43.216500997543335	pulse	1	t						63.954874992370605	
1	44.81650185585022	pulse	1	t						65.55487585067749	
1	46.41643691062927	pulse	1	t						67.15481090545654	
1	48.01643991470337	pulse	1	t						68.75481390953064	
1	49.61651086807251	pulse	1	t						70.35488486289978	
2	51.133041858673096	fix_pre	0		11	0.0	2.5	/experiments/AOT/AOT_stimuli/rescaled_final/0624_fw.mp4	0.0	71.87141585350037	0.09156608581542969
2	51.21654486656189	pulse	0	t		0.0	2.5	/experiments/AOT/AOT_stimuli/rescaled_final/0624_fw.mp4	0.0	71.95491886138916	
2	51.224607944488525	movie	1		241	0.0	2.5	/experiments/AOT/AOT_stimuli/rescaled_final/0624_fw.mp4	0.0	71.9629819393158	2.5078890323638916
2	52.816149950027466	pulse	1	t		0.0	2.5	/experiments/AOT/AOT_stimuli/rescaled_final/0624_fw.mp4	0.0	73.55452394485474	
2	53.73249697685242	fix_post	2		12	0.0	2.5	/experiments/AOT/AOT_stimuli/rescaled_final/0624_fw.mp4	0.0	74.47087097167969	0.10043692588806152
3	53.83293390274048	fix_pre	0		120	1.0	2.5	/experiments/AOT/AOT_stimuli/rescaled_final/0663_rv.mp4	0.0	74.57130789756775	0.9999909400939941
3	54.41645884513855	pulse	0	t		1.0	2.5	/experiments/AOT/AOT_stimuli/rescaled_final/0663_rv.mp4	0.0	75.15483283996582	
3	54.83292484283447	movie	1		243	1.0	2.5	/experiments/AOT/AOT_stimuli/rescaled_final/0663_rv.mp4	0.0	75.57129883766174	2.49996018409729
3	56.01647686958313	pulse	1	t		1.0	2.5	/experiments/AOT/AOT_stimuli/rescaled_final/0663_rv.mp4	0.0	76.7548508644104	
3	57.33288502693176	fix_post	2		12	1.0	2.5	/experiments/AOT/AOT_stimuli/rescaled_final/0663_rv.mp4	0.0	78.07125902175903	0.1000068187713623
4	57.432891845703125	fix_pre	0		120	2.0	2.5	/experiments/AOT/AOT_stimuli/rescaled_final/0411_rv.mp4	0.0	78.1712658405304	1.0000970363616943
4	57.6164448261261	pulse	0	t		2.0	2.5	/experiments/AOT/AOT_stimuli/rescaled_final/0411_rv.mp4	0.0	78.35481882095337	
4	58.43298888206482	movie	1		243	2.0	2.5	/experiments/AOT/AOT_stimuli/rescaled_final/0411_rv.mp4	0.0	79.17136287689209	2.4995510578155518
4	59.216403007507324	pulse	1	t		2.0	2.5	/experiments/AOT/AOT_stimuli/rescaled_final/0411_rv.mp4	0.0	79.9547770023346	
4	60.814854860305786	pulse	1	t		2.0	2.5	/experiments/AOT/AOT_stimuli/rescaled_final/0411_rv.mp4	0.0	81.55322885513306	
4	60.93253993988037	fix_post	2		12	2.0	2.5	/experiments/AOT/AOT_stimuli/rescaled_final/0411_rv.mp4	0.0	81.67091393470764	0.10044288635253906
5	61.03298282623291	fix_pre	0		120	3.0	2.5	/experiments/AOT/AOT_stimuli/rescaled_final/0289_rv.mp4	0.0	81.77135682106018	0.999953031539917
5	62.03293585777283	movie	1		247	3.0	2.5	/experiments/AOT/AOT_stimuli/rescaled_final/0289_rv.mp4	0.0	82.7713098526001	2.4995579719543457
5	62.41629600524902	pulse	1	t		3.0	2.5	/experiments/AOT/AOT_stimuli/rescaled_final/0289_rv.mp4	0.0	83.1546700000763	
5	64.01590204238892	pulse	1	t		3.0	2.5	/experiments/AOT/AOT_stimuli/rescaled_final/0289_rv.mp4	0.0	84.75427603721619	
5	64.53249382972717	fix_post	2		12	3.0	2.5	/experiments/AOT/AOT_stimuli/rescaled_final/0289_rv.mp4	0.0	85.27086782455444	0.10039615631103516
6	64.63288998603821	fix_pre	0		119	4.0	2.5	/experiments/AOT/AOT_stimuli/rescaled_final/1538_rv.mp4	0.0	85.37126398086548	0.9917619228363037
6	65.61644196510315	pulse	0	t		4.0	2.5	/experiments/AOT/AOT_stimuli/rescaled_final/1538_rv.mp4	0.0	86.35481595993042	
6	65.62465190887451	movie	1		244	4.0	2.5	/experiments/AOT/AOT_stimuli/rescaled_final/1538_rv.mp4	0.0	86.36302590370178	2.508302927017212
6	67.21622800827026	pulse	1	t		4.0	2.5	/experiments/AOT/AOT_stimuli/rescaled_final/1538_rv.mp4	0.0	87.95460200309753	
6	68.13295483589172	fix_post	2		12	4.0	2.5	/experiments/AOT/AOT_stimuli/rescaled_final/1538_rv.mp4	0.0	88.871328830719	0.10001206398010254
7	68.23296689987183	fix_pre	0		120	5.0	2.5	/experiments/AOT/AOT_stimuli/rescaled_final/1079_fw.mp4	0.0	88.9713408946991	0.9999549388885498
7	68.81640005111694	pulse	0	t		5.0	2.5	/experiments/AOT/AOT_stimuli/rescaled_final/1079_fw.mp4	0.0	89.55477404594421	
7	69.23292183876038	movie	1		244	5.0	2.5	/experiments/AOT/AOT_stimuli/rescaled_final/1079_fw.mp4	0.0	89.97129583358765	2.4999070167541504
7	70.41647791862488	pulse	1	t		5.0	2.5	/experiments/AOT/AOT_stimuli/rescaled_final/1079_fw.mp4	0.0	91.15485191345215	
7	71.73282885551453	fix_post	2		12	5.0	2.5	/experiments/AOT/AOT_stimuli/rescaled_final/1079_fw.mp4	0.0	92.4712028503418	0.10001516342163086
8	71.83284401893616	fix_pre	0		120	6.0	2.5	/experiments/AOT/AOT_stimuli/rescaled_final/2005_fw.mp4	0.0	92.57121801376343	1.0000519752502441
8	72.01640105247498	pulse	0	t		6.0	2.5	/experiments/AOT/AOT_stimuli/rescaled_final/2005_fw.mp4	0.0	92.75477504730225	
8	72.8328959941864	movie	1		249	6.0	2.5	/experiments/AOT/AOT_stimuli/rescaled_final/2005_fw.mp4	0.0	93.57126998901367	2.4999120235443115
8	73.61638283729553	pulse	1	t		6.0	2.5	/experiments/AOT/AOT_stimuli/rescaled_final/2005_fw.mp4	0.0	94.3547568321228	
8	75.21634984016418	pulse	1	t		6.0	2.5	/experiments/AOT/AOT_stimuli/rescaled_final/2005_fw.mp4	0.0	95.95472383499146	
8	75.33280801773071	fix_post	2		12	6.0	2.5	/experiments/AOT/AOT_stimuli/rescaled_final/2005_fw.mp4	0.0	96.07118201255798	0.10004281997680664
9	75.43285083770752	fix_pre	0		120	7.0	2.5	blank	1.0	96.17122483253479	0.9999279975891113
9	76.43277883529663	movie	1		300	7.0	2.5	blank	1.0	97.1711528301239	2.5000221729278564
9	76.8163549900055	pulse	1	t		7.0	2.5	blank	1.0	97.55472898483276	
9	78.41626691818237	pulse	1	t		7.0	2.5	blank	1.0	99.15464091300964	
9	78.93280100822449	fix_post	2		12	7.0	2.5	blank	1.0	99.67117500305176	0.10001897811889648
10	79.03281998634338	fix_pre	0		119	8.0	2.5	/experiments/AOT/AOT_stimuli/rescaled_final/1452_rv.mp4	0.0	99.77119398117065	0.9917008876800537
10	80.01632595062256	pulse	0	t		8.0	2.5	/experiments/AOT/AOT_stimuli/rescaled_final/1452_rv.mp4	0.0	100.75469994544983	
10	80.02452087402344	movie	1		244	8.0	2.5	/experiments/AOT/AOT_stimuli/rescaled_final/1452_rv.mp4	0.0	100.76289486885071	2.5082850456237793
10	81.61606788635254	pulse	1	t		8.0	2.5	/experiments/AOT/AOT_stimuli/rescaled_final/1452_rv.mp4	0.0	102.35444188117981	
10	82.53280591964722	fix_post	2		12	8.0	2.5	/experiments/AOT/AOT_stimuli/rescaled_final/1452_rv.mp4	0.0	103.27117991447449	0.09993600845336914
11	82.63274192810059	fix_pre	0		120	9.0	2.5	/experiments/AOT/AOT_stimuli/rescaled_final/0945_rv.mp4	0.0	103.37111592292786	1.0000669956207275
11	83.21629905700684	pulse	0	t		9.0	2.5	/experiments/AOT/AOT_stimuli/rescaled_final/0945_rv.mp4	0.0	103.9546730518341	
11	83.63280892372131	movie	1		244	9.0	2.5	/experiments/AOT/AOT_stimuli/rescaled_final/0945_rv.mp4	0.0	104.37118291854858	2.4995200634002686
11	84.81634998321533	pulse	1	t		9.0	2.5	/experiments/AOT/AOT_stimuli/rescaled_final/0945_rv.mp4	0.0	105.5547239780426	
11	86.13232898712158	fix_post	2		12	9.0	2.5	/experiments/AOT/AOT_stimuli/rescaled_final/0945_rv.mp4	0.0	106.87070298194885	0.10055184364318848
12	86.23288083076477	fix_pre	0		120	10.0	2.5	/experiments/AOT/AOT_stimuli/rescaled_final/1202_fw.mp4	0.0	106.97125482559204	0.9999480247497559
12	86.41630291938782	pulse	0	t		10.0	2.5	/experiments/AOT/AOT_stimuli/rescaled_final/1202_fw.mp4	0.0	107.15467691421509	
12	87.23282885551453	movie	1		245	10.0	2.5	/experiments/AOT/AOT_stimuli/rescaled_final/1202_fw.mp4	0.0	107.9712028503418	2.499526023864746
12	88.01634192466736	pulse	1	t		10.0	2.5	/experiments/AOT/AOT_stimuli/rescaled_final/1202_fw.mp4	0.0	108.75471591949463	
12	89.61447882652283	pulse	1	t		10.0	2.5	/experiments/AOT/AOT_stimuli/rescaled_final/1202_fw.mp4	0.0	110.3528528213501	
12	89.73235487937927	fix_post	2		12	10.0	2.5	/experiments/AOT/AOT_stimuli/rescaled_final/1202_fw.mp4	0.0	110.47072887420654	0.10037398338317871
13	89.83272886276245	fix_pre	0		120	11.0	2.5	/experiments/AOT/AOT_stimuli/rescaled_final/0397_rv.mp4	0.0	110.57110285758972	1.000169038772583
13	90.83289790153503	movie	1		244	11.0	2.5	/experiments/AOT/AOT_stimuli/rescaled_final/0397_rv.mp4	0.0	111.5712718963623	2.499444007873535
13	91.21636295318604	pulse	1	t		11.0	2.5	/experiments/AOT/AOT_stimuli/rescaled_final/0397_rv.mp4	0.0	111.9547369480133	
13	92.81622290611267	pulse	1	t		11.0	2.5	/experiments/AOT/AOT_stimuli/rescaled_final/0397_rv.mp4	0.0	113.55459690093994	
13	93.33234190940857	fix_post	2		12	11.0	2.5	/experiments/AOT/AOT_stimuli/rescaled_final/0397_rv.mp4	0.0	114.07071590423584	0.10037803649902344
14	93.43271994590759	fix_pre	0		119	12.0	2.5	/experiments/AOT/AOT_stimuli/rescaled_final/0667_rv.mp4	0.0	114.17109394073486	0.9916810989379883
14	94.4162700176239	pulse	0	t		12.0	2.5	/experiments/AOT/AOT_stimuli/rescaled_final/0667_rv.mp4	0.0	115.15464401245117	
14	94.42440104484558	movie	1		244	12.0	2.5	/experiments/AOT/AOT_stimuli/rescaled_final/0667_rv.mp4	0.0	115.16277503967285	2.5079050064086914
14	96.01595401763916	pulse	1	t		12.0	2.5	/experiments/AOT/AOT_stimuli/rescaled_final/0667_rv.mp4	0.0	116.75432801246643	
14	96.93230605125427	fix_post	2		12	12.0	2.5	/experiments/AOT/AOT_stimuli/rescaled_final/0667_rv.mp4	0.0	117.67068004608154	0.10048890113830566
15	97.03279495239258	fix_pre	0		120	13.0	2.5	/experiments/AOT/AOT_stimuli/rescaled_final/1910_fw.mp4	0.0	117.77116894721985	0.999932050704956
15	97.61624598503113	pulse	0	t		13.0	2.5	/experiments/AOT/AOT_stimuli/rescaled_final/1910_fw.mp4	0.0	118.3546199798584	
15	98.03272700309753	movie	1		244	13.0	2.5	/experiments/AOT/AOT_stimuli/rescaled_final/1910_fw.mp4	0.0	118.7711009979248	2.4999749660491943
15	99.21622705459595	pulse	1	t		13.0	2.5	/experiments/AOT/AOT_stimuli/rescaled_final/1910_fw.mp4	0.0	119.95460104942322	
15	100.53270196914673	fix_post	2		12	13.0	2.5	/experiments/AOT/AOT_stimuli/rescaled_final/1910_fw.mp4	0.0	121.271075963974	0.09999799728393555
16	100.63269996643066	fix_pre	0		120	14.0	2.5	blank	1.0	121.37107396125793	1.0000269412994385
16	100.81618595123291	pulse	0	t		14.0	2.5	blank	1.0	121.55455994606018	
16	101.6327269077301	movie	1		300	14.0	2.5	blank	1.0	122.37110090255737	2.49991512298584
16	102.41623187065125	pulse	1	t		14.0	2.5	blank	1.0	123.15460586547852	
16	104.01620697975159	pulse	1	t		14.0	2.5	blank	1.0	124.75458097457886	
16	104.13264203071594	fix_post	2		12	14.0	2.5	blank	1.0	124.87101602554321	0.10004281997680664
17	104.23268485069275	fix_pre	0		120	15.0	2.5	/experiments/AOT/AOT_stimuli/rescaled_final/1910_rv.mp4	0.0	124.97105884552002	0.999596118927002
17	105.23228096961975	movie	1		245	15.0	2.5	/experiments/AOT/AOT_stimuli/rescaled_final/1910_rv.mp4	0.0	125.97065496444702	2.5000159740448
17	105.6158390045166	pulse	1	t		15.0	2.5	/experiments/AOT/AOT_stimuli/rescaled_final/1910_rv.mp4	0.0	126.35421299934387	
17	107.21606683731079	pulse	1	t		15.0	2.5	/experiments/AOT/AOT_stimuli/rescaled_final/1910_rv.mp4	0.0	127.95444083213806	
17	107.73229694366455	fix_post	2		12	15.0	2.5	/experiments/AOT/AOT_stimuli/rescaled_final/1910_rv.mp4	0.0	128.47067093849182	0.10033011436462402
18	107.83262705802917	fix_pre	0		119	16.0	2.5	/experiments/AOT/AOT_stimuli/rescaled_final/2139_fw.mp4	0.0	128.57100105285645	0.9916107654571533
18	108.81620788574219	pulse	0	t		16.0	2.5	/experiments/AOT/AOT_stimuli/rescaled_final/2139_fw.mp4	0.0	129.55458188056946	
18	108.82423782348633	movie	1		245	16.0	2.5	/experiments/AOT/AOT_stimuli/rescaled_final/2139_fw.mp4	0.0	129.5626118183136	2.5084290504455566
18	110.41576886177063	pulse	1	t		16.0	2.5	/experiments/AOT/AOT_stimuli/rescaled_final/2139_fw.mp4	0.0	131.1541428565979	
18	111.33266687393188	fix_post	2		12	16.0	2.5	/experiments/AOT/AOT_stimuli/rescaled_final/2139_fw.mp4	0.0	132.07104086875916	0.10004711151123047
19	111.43271398544312	fix_pre	0		120	17.0	2.5	/experiments/AOT/AOT_stimuli/rescaled_final/1452_fw.mp4	0.0	132.17108798027039	0.9999580383300781
19	112.01610493659973	pulse	0	t		17.0	2.5	/experiments/AOT/AOT_stimuli/rescaled_final/1452_fw.mp4	0.0	132.754478931427	
19	112.4326720237732	movie	1		243	17.0	2.5	/experiments/AOT/AOT_stimuli/rescaled_final/1452_fw.mp4	0.0	133.17104601860046	2.5000689029693604
19	113.6162269115448	pulse	1	t		17.0	2.5	/experiments/AOT/AOT_stimuli/rescaled_final/1452_fw.mp4	0.0	134.35460090637207	
19	114.93274092674255	fix_post	2		12	17.0	2.5	/experiments/AOT/AOT_stimuli/rescaled_final/1452_fw.mp4	0.0	135.67111492156982	0.09953594207763672
20	115.03227686882019	fix_pre	0		120	18.0	2.5	/experiments/AOT/AOT_stimuli/rescaled_final/0790_rv.mp4	0.0	135.77065086364746	1.0004069805145264
20	115.21612286567688	pulse	0	t		18.0	2.5	/experiments/AOT/AOT_stimuli/rescaled_final/0790_rv.mp4	0.0	135.95449686050415	
20	116.03268384933472	movie	1		243	18.0	2.5	/experiments/AOT/AOT_stimuli/rescaled_final/0790_rv.mp4	0.0	136.771057844162	2.499486207962036
20	116.81610798835754	pulse	1	t		18.0	2.5	/experiments/AOT/AOT_stimuli/rescaled_final/0790_rv.mp4	0.0	137.55448198318481	
20	118.41477394104004	pulse	1	t		18.0	2.5	/experiments/AOT/AOT_stimuli/rescaled_final/0790_rv.mp4	0.0	139.1531479358673	
20	118.53217005729675	fix_post	2		12	18.0	2.5	/experiments/AOT/AOT_stimuli/rescaled_final/0790_rv.mp4	0.0	139.27054405212402	0.10045385360717773
21	118.63262391090393	fix_pre	0		120	19.0	2.5	/experiments/AOT/AOT_stimuli/rescaled_final/0057_rv.mp4	0.0	139.3709979057312	0.999535083770752
21	119.63215899467468	movie	1		244	19.0	2.5	/experiments/AOT/AOT_stimuli/rescaled_final/0057_rv.mp4	0.0	140.37053298950195	2.500638008117676
21	120.01560497283936	pulse	1	t		19.0	2.5	/experiments/AOT/AOT_stimuli/rescaled_final/0057_rv.mp4	0.0	140.75397896766663	
21	121.61615085601807	pulse	1	t		19.0	2.5	/experiments/AOT/AOT_stimuli/rescaled_final/0057_rv.mp4	0.0	142.35452485084534	
21	122.13279700279236	fix_post	2		12	19.0	2.5	/experiments/AOT/AOT_stimuli/rescaled_final/0057_rv.mp4	0.0	142.87117099761963	0.09956693649291992
22	122.23236393928528	fix_pre	0		119	20.0	2.5	/experiments/AOT/AOT_stimuli/rescaled_final/1869_fw.mp4	0.0	142.97073793411255	0.9918100833892822
22	123.21614384651184	pulse	0	t		20.0	2.5	/experiments/AOT/AOT_stimuli/rescaled_final/1869_fw.mp4	0.0	143.9545178413391	
22	123.22417402267456	movie	1		245	20.0	2.5	/experiments/AOT/AOT_stimuli/rescaled_final/1869_fw.mp4	0.0	143.96254801750183	2.508415937423706
22	124.81562399864197	pulse	1	t		20.0	2.5	/experiments/AOT/AOT_stimuli/rescaled_final/1869_fw.mp4	0.0	145.55399799346924	
22	125.73258996009827	fix_post	2		12	20.0	2.5	/experiments/AOT/AOT_stimuli/rescaled_final/1869_fw.mp4	0.0	146.47096395492554	0.09999895095825195
23	125.83258891105652	fix_pre	0		120	21.0	2.5	blank	1.0	146.5709629058838	0.9999759197235107
23	126.41613483428955	pulse	0	t		21.0	2.5	blank	1.0	147.15450882911682	
23	126.83256483078003	movie	1		300	21.0	2.5	blank	1.0	147.5709388256073	2.5001180171966553
23	128.0161418914795	pulse	1	t		21.0	2.5	blank	1.0	148.75451588630676	
23	129.33268284797668	fix_post	2		12	21.0	2.5	blank	1.0	150.07105684280396	0.09985208511352539
24	129.4325349330902	fix_pre	0		120	22.0	2.5	/experiments/AOT/AOT_stimuli/rescaled_final/1364_rv.mp4	0.0	150.17090892791748	1.0000190734863281
24	129.61606287956238	pulse	0	t		22.0	2.5	/experiments/AOT/AOT_stimuli/rescaled_final/1364_rv.mp4	0.0	150.35443687438965	
24	130.43255400657654	movie	1		245	22.0	2.5	/experiments/AOT/AOT_stimuli/rescaled_final/1364_rv.mp4	0.0	151.1709280014038	2.500006914138794
24	131.21611785888672	pulse	1	t		22.0	2.5	/experiments/AOT/AOT_stimuli/rescaled_final/1364_rv.mp4	0.0	151.954491853714	
24	132.81459283828735	pulse	1	t		22.0	2.5	/experiments/AOT/AOT_stimuli/rescaled_final/1364_rv.mp4	0.0	153.55296683311462	
24	132.93256092071533	fix_post	2		12	22.0	2.5	/experiments/AOT/AOT_stimuli/rescaled_final/1364_rv.mp4	0.0	153.6709349155426	0.09992313385009766
25	133.03248405456543	fix_pre	0		120	23.0	2.5	/experiments/AOT/AOT_stimuli/rescaled_final/1405_fw.mp4	0.0	153.7708580493927	1.0001568794250488
25	134.03264093399048	movie	1		246	23.0	2.5	/experiments/AOT/AOT_stimuli/rescaled_final/1405_fw.mp4	0.0	154.77101492881775	2.4994421005249023
25	134.4154908657074	pulse	1	t		23.0	2.5	/experiments/AOT/AOT_stimuli/rescaled_final/1405_fw.mp4	0.0	155.15386486053467	
25	136.01605105400085	pulse	1	t		23.0	2.5	/experiments/AOT/AOT_stimuli/rescaled_final/1405_fw.mp4	0.0	156.75442504882812	
25	136.53208303451538	fix_post	2		12	23.0	2.5	/experiments/AOT/AOT_stimuli/rescaled_final/1405_fw.mp4	0.0	157.27045702934265	0.1004948616027832
26	136.63257789611816	fix_pre	0		119	24.0	2.5	/experiments/AOT/AOT_stimuli/rescaled_final/1437_fw.mp4	0.0	157.37095189094543	0.9916620254516602
26	137.6161618232727	pulse	0	t		24.0	2.5	/experiments/AOT/AOT_stimuli/rescaled_final/1437_fw.mp4	0.0	158.35453581809998	
26	137.62423992156982	movie	1		244	24.0	2.5	/experiments/AOT/AOT_stimuli/rescaled_final/1437_fw.mp4	0.0	158.3626139163971	2.5083179473876953
26	139.2155258655548	pulse	1	t		24.0	2.5	/experiments/AOT/AOT_stimuli/rescaled_final/1437_fw.mp4	0.0	159.95389986038208	
26	140.13255786895752	fix_post	2		12	24.0	2.5	/experiments/AOT/AOT_stimuli/rescaled_final/1437_fw.mp4	0.0	160.8709318637848	0.09999608993530273
27	140.23255395889282	fix_pre	0		120	25.0	2.5	/experiments/AOT/AOT_stimuli/rescaled_final/0154_fw.mp4	0.0	160.9709279537201	1.000046968460083
27	140.81606197357178	pulse	0	t		25.0	2.5	/experiments/AOT/AOT_stimuli/rescaled_final/0154_fw.mp4	0.0	161.55443596839905	
27	141.2326009273529	movie	1		245	25.0	2.5	/experiments/AOT/AOT_stimuli/rescaled_final/0154_fw.mp4	0.0	161.97097492218018	2.4999749660491943
27	142.41607999801636	pulse	1	t		25.0	2.5	/experiments/AOT/AOT_stimuli/rescaled_final/0154_fw.mp4	0.0	163.15445399284363	
27	143.7325758934021	fix_post	2		12	25.0	2.5	/experiments/AOT/AOT_stimuli/rescaled_final/0154_fw.mp4	0.0	164.47094988822937	0.1000370979309082
28	143.832612991333	fix_pre	0		120	26.0	2.5	/experiments/AOT/AOT_stimuli/rescaled_final/1619_fw.mp4	0.0	164.57098698616028	0.9999949932098389
28	144.0160310268402	pulse	0	t		26.0	2.5	/experiments/AOT/AOT_stimuli/rescaled_final/1619_fw.mp4	0.0	164.75440502166748	
28	144.83260798454285	movie	1		244	26.0	2.5	/experiments/AOT/AOT_stimuli/rescaled_final/1619_fw.mp4	0.0	165.57098197937012	2.499837875366211
28	145.61606001853943	pulse	1	t		26.0	2.5	/experiments/AOT/AOT_stimuli/rescaled_final/1619_fw.mp4	0.0	166.3544340133667	
28	147.2144320011139	pulse	1	t		26.0	2.5	/experiments/AOT/AOT_stimuli/rescaled_final/1619_fw.mp4	0.0	167.95280599594116	
28	147.33244585990906	fix_post	2		12	26.0	2.5	/experiments/AOT/AOT_stimuli/rescaled_final/1619_fw.mp4	0.0	168.07081985473633	0.10000109672546387
29	147.43244695663452	fix_pre	0		120	27.0	2.5	blank	1.0	168.1708209514618	0.9996440410614014
29	148.43209099769592	movie	1		300	27.0	2.5	blank	1.0	169.1704649925232	2.5004148483276367
29	148.81595993041992	pulse	1	t		27.0	2.5	blank	1.0	169.5543339252472	
29	150.41586804389954	pulse	1	t		27.0	2.5	blank	1.0	171.1542420387268	
29	150.93250584602356	fix_post	2		12	27.0	2.5	blank	1.0	171.67087984085083	0.09957504272460938
30	151.03208088874817	fix_pre	0		119	28.0	2.5	/experiments/AOT/AOT_stimuli/rescaled_final/0540_fw.mp4	0.0	171.77045488357544	0.9920380115509033
30	152.01595187187195	pulse	0	t		28.0	2.5	/experiments/AOT/AOT_stimuli/rescaled_final/0540_fw.mp4	0.0	172.75432586669922	
30	152.02411890029907	movie	1		249	28.0	2.5	/experiments/AOT/AOT_stimuli/rescaled_final/0540_fw.mp4	0.0	172.76249289512634	2.5082919597625732
30	153.61550998687744	pulse	1	t		28.0	2.5	/experiments/AOT/AOT_stimuli/rescaled_final/0540_fw.mp4	0.0	174.3538839817047	
30	154.53241086006165	fix_post	2		12	28.0	2.5	/experiments/AOT/AOT_stimuli/rescaled_final/0540_fw.mp4	0.0	175.27078485488892	0.1000521183013916
31	154.63246297836304	fix_pre	0		120	29.0	2.5	/experiments/AOT/AOT_stimuli/rescaled_final/1664_fw.mp4	0.0	175.3708369731903	0.9999768733978271
31	155.21593594551086	pulse	0	t		29.0	2.5	/experiments/AOT/AOT_stimuli/rescaled_final/1664_fw.mp4	0.0	175.95430994033813	
31	155.63243985176086	movie	1		245	29.0	2.5	/experiments/AOT/AOT_stimuli/rescaled_final/1664_fw.mp4	0.0	176.37081384658813	2.499925136566162
31	156.81598091125488	pulse	1	t		29.0	2.5	/experiments/AOT/AOT_stimuli/rescaled_final/1664_fw.mp4	0.0	177.55435490608215	
31	158.13236498832703	fix_post	2		12	29.0	2.5	/experiments/AOT/AOT_stimuli/rescaled_final/1664_fw.mp4	0.0	178.8707389831543	0.10010290145874023
32	158.23246788978577	fix_pre	0		120	30.0	2.5	/experiments/AOT/AOT_stimuli/rescaled_final/0866_fw.mp4	0.0	178.97084188461304	1.0000090599060059
32	158.41606903076172	pulse	0	t		30.0	2.5	/experiments/AOT/AOT_stimuli/rescaled_final/0866_fw.mp4	0.0	179.154443025589	
32	159.23247694969177	movie	1		243	30.0	2.5	/experiments/AOT/AOT_stimuli/rescaled_final/0866_fw.mp4	0.0	179.97085094451904	2.49953293800354
32	160.0159089565277	pulse	1	t		30.0	2.5	/experiments/AOT/AOT_stimuli/rescaled_final/0866_fw.mp4	0.0	180.75428295135498	
32	161.61445498466492	pulse	1	t		30.0	2.5	/experiments/AOT/AOT_stimuli/rescaled_final/0866_fw.mp4	0.0	182.3528289794922	
32	161.7320098876953	fix_post	2		12	30.0	2.5	/experiments/AOT/AOT_stimuli/rescaled_final/0866_fw.mp4	0.0	182.47038388252258	0.10000395774841309
33	161.83201384544373	fix_pre	0		120	31.0	2.5	/experiments/AOT/AOT_stimuli/rescaled_final/0516_rv.mp4	0.0	182.570387840271	0.9999899864196777
33	162.8320038318634	movie	1		244	31.0	2.5	/experiments/AOT/AOT_stimuli/rescaled_final/0516_rv.mp4	0.0	183.57037782669067	2.500335216522217
33	163.21544885635376	pulse	1	t		31.0	2.5	/experiments/AOT/AOT_stimuli/rescaled_final/0516_rv.mp4	0.0	183.95382285118103	
33	164.81595301628113	pulse	1	t		31.0	2.5	/experiments/AOT/AOT_stimuli/rescaled_final/0516_rv.mp4	0.0	185.5543270111084	
33	165.33233904838562	fix_post	2		12	31.0	2.5	/experiments/AOT/AOT_stimuli/rescaled_final/0516_rv.mp4	0.0	186.0707130432129	0.10003495216369629
34	165.43237400054932	fix_pre	0		119	32.0	2.5	/experiments/AOT/AOT_stimuli/rescaled_final/0913_rv.mp4	0.0	186.1707479953766	0.9917399883270264
34	166.41584396362305	pulse	0	t		32.0	2.5	/experiments/AOT/AOT_stimuli/rescaled_final/0913_rv.mp4	0.0	187.15421795845032	
34	166.42411398887634	movie	1		245	32.0	2.5	/experiments/AOT/AOT_stimuli/rescaled_final/0913_rv.mp4	0.0	187.1624879837036	2.5083229541778564
34	168.01523303985596	pulse	1	t		32.0	2.5	/experiments/AOT/AOT_stimuli/rescaled_final/0913_rv.mp4	0.0	188.75360703468323	
34	168.9324369430542	fix_post	2		12	32.0	2.5	/experiments/AOT/AOT_stimuli/rescaled_final/0913_rv.mp4	0.0	189.67081093788147	0.09995293617248535
35	169.03238987922668	fix_pre	0		120	33.0	2.5	/experiments/AOT/AOT_stimuli/rescaled_final/0136_fw.mp4	0.0	189.77076387405396	0.9995920658111572
35	169.6158950328827	pulse	0	t		33.0	2.5	/experiments/AOT/AOT_stimuli/rescaled_final/0136_fw.mp4	0.0	190.35426902770996	
35	170.03198194503784	movie	1		243	33.0	2.5	/experiments/AOT/AOT_stimuli/rescaled_final/0136_fw.mp4	0.0	190.7703559398651	2.5003550052642822
35	171.21600890159607	pulse	1	t		33.0	2.5	/experiments/AOT/AOT_stimuli/rescaled_final/0136_fw.mp4	0.0	191.95438289642334	
35	172.53233695030212	fix_post	2		12	33.0	2.5	/experiments/AOT/AOT_stimuli/rescaled_final/0136_fw.mp4	0.0	193.2707109451294	0.10006904602050781
36	172.63240599632263	fix_pre	0		120	34.0	2.5	/experiments/AOT/AOT_stimuli/rescaled_final/1991_fw.mp4	0.0	193.3707799911499	0.9995608329772949
36	172.81590604782104	pulse	0	t		34.0	2.5	/experiments/AOT/AOT_stimuli/rescaled_final/1991_fw.mp4	0.0	193.55428004264832	
36	173.63196682929993	movie	1		243	34.0	2.5	/experiments/AOT/AOT_stimuli/rescaled_final/1991_fw.mp4	0.0	194.3703408241272	2.5003161430358887
36	174.41585898399353	pulse	1	t		34.0	2.5	/experiments/AOT/AOT_stimuli/rescaled_final/1991_fw.mp4	0.0	195.1542329788208	
36	176.01364302635193	pulse	1	t		34.0	2.5	/experiments/AOT/AOT_stimuli/rescaled_final/1991_fw.mp4	0.0	196.7520170211792	
36	176.13228297233582	fix_post	2		12	34.0	2.5	/experiments/AOT/AOT_stimuli/rescaled_final/1991_fw.mp4	0.0	196.8706569671631	0.09965991973876953
37	176.23194289207458	fix_pre	0		120	35.0	2.5	blank	1.0	196.97031688690186	1.0004620552062988
37	177.23240494728088	movie	1		300	35.0	2.5	blank	1.0	197.97077894210815	2.5001120567321777
37	177.6155378818512	pulse	1	t		35.0	2.5	blank	1.0	198.35391187667847	
37	179.21579384803772	pulse	1	t		35.0	2.5	blank	1.0	199.954167842865	
37	179.73251700401306	fix_post	2		12	35.0	2.5	blank	1.0	200.47089099884033	0.09996795654296875
38	179.83248496055603	fix_pre	0		119	36.0	2.5	/experiments/AOT/AOT_stimuli/rescaled_final/1028_rv.mp4	0.0	200.5708589553833	0.9915430545806885
38	180.81590390205383	pulse	0	t		36.0	2.5	/experiments/AOT/AOT_stimuli/rescaled_final/1028_rv.mp4	0.0	201.5542778968811	
38	180.82402801513672	movie	1		247	36.0	2.5	/experiments/AOT/AOT_stimuli/rescaled_final/1028_rv.mp4	0.0	201.562402009964	2.508366823196411
38	182.41559386253357	pulse	1	t		36.0	2.5	/experiments/AOT/AOT_stimuli/rescaled_final/1028_rv.mp4	0.0	203.15396785736084	
38	183.33239483833313	fix_post	2		12	36.0	2.5	/experiments/AOT/AOT_stimuli/rescaled_final/1028_rv.mp4	0.0	204.0707688331604	0.09994816780090332
39	183.43234300613403	fix_pre	0		120	37.0	2.5	/experiments/AOT/AOT_stimuli/rescaled_final/1388_fw.mp4	0.0	204.1707170009613	0.9999439716339111
39	184.01587891578674	pulse	0	t		37.0	2.5	/experiments/AOT/AOT_stimuli/rescaled_final/1388_fw.mp4	0.0	204.754252910614	
39	184.43228697776794	movie	1		246	37.0	2.5	/experiments/AOT/AOT_stimuli/rescaled_final/1388_fw.mp4	0.0	205.17066097259521	2.4995548725128174
39	185.61585688591003	pulse	1	t		37.0	2.5	/experiments/AOT/AOT_stimuli/rescaled_final/1388_fw.mp4	0.0	206.3542308807373	
39	186.93184185028076	fix_post	2		12	37.0	2.5	/experiments/AOT/AOT_stimuli/rescaled_final/1388_fw.mp4	0.0	207.67021584510803	0.1003730297088623
40	187.03221487998962	fix_pre	0		120	38.0	2.5	/experiments/AOT/AOT_stimuli/rescaled_final/1422_fw.mp4	0.0	207.7705888748169	1.0001840591430664
40	187.21575093269348	pulse	0	t		38.0	2.5	/experiments/AOT/AOT_stimuli/rescaled_final/1422_fw.mp4	0.0	207.95412492752075	
40	188.0323989391327	movie	1		245	38.0	2.5	/experiments/AOT/AOT_stimuli/rescaled_final/1422_fw.mp4	0.0	208.77077293395996	2.4998350143432617
40	188.81577801704407	pulse	1	t		38.0	2.5	/experiments/AOT/AOT_stimuli/rescaled_final/1422_fw.mp4	0.0	209.55415201187134	
40	190.41591000556946	pulse	1	t		38.0	2.5	/experiments/AOT/AOT_stimuli/rescaled_final/1422_fw.mp4	0.0	211.15428400039673	
40	190.53223395347595	fix_post	2		12	38.0	2.5	/experiments/AOT/AOT_stimuli/rescaled_final/1422_fw.mp4	0.0	211.27060794830322	0.09999799728393555
41	190.6322319507599	fix_pre	0		120	39.0	2.5	/experiments/AOT/AOT_stimuli/rescaled_final/0027_fw.mp4	0.0	211.37060594558716	1.0000250339508057
41	191.6322569847107	movie	1		243	39.0	2.5	/experiments/AOT/AOT_stimuli/rescaled_final/0027_fw.mp4	0.0	212.37063097953796	2.500011920928955
41	192.01547288894653	pulse	1	t		39.0	2.5	/experiments/AOT/AOT_stimuli/rescaled_final/0027_fw.mp4	0.0	212.7538468837738	
41	193.61583805084229	pulse	1	t		39.0	2.5	/experiments/AOT/AOT_stimuli/rescaled_final/0027_fw.mp4	0.0	214.35421204566956	
41	194.13226890563965	fix_post	2		12	39.0	2.5	/experiments/AOT/AOT_stimuli/rescaled_final/0027_fw.mp4	0.0	214.87064290046692	0.09992313385009766
42	194.23219203948975	fix_pre	0		119	40.0	2.5	/experiments/AOT/AOT_stimuli/rescaled_final/0663_rv.mp4	0.0	214.97056603431702	0.9917359352111816
42	195.2157690525055	pulse	0	t		40.0	2.5	/experiments/AOT/AOT_stimuli/rescaled_final/0663_rv.mp4	0.0	215.95414304733276	
42	195.22392797470093	movie	1		244	40.0	2.5	/experiments/AOT/AOT_stimuli/rescaled_final/0663_rv.mp4	0.0	215.9623019695282	2.5083019733428955
42	196.8153669834137	pulse	1	t		40.0	2.5	/experiments/AOT/AOT_stimuli/rescaled_final/0663_rv.mp4	0.0	217.55374097824097	
42	197.73222994804382	fix_post	2		12	40.0	2.5	/experiments/AOT/AOT_stimuli/rescaled_final/0663_rv.mp4	0.0	218.4706039428711	0.09997391700744629
43	197.83220386505127	fix_pre	0		120	41.0	2.5	blank	1.0	218.57057785987854	0.999596118927002
43	198.41578698158264	pulse	0	t		41.0	2.5	blank	1.0	219.1541609764099	
43	198.83179998397827	movie	1		300	41.0	2.5	blank	1.0	219.57017397880554	2.4999849796295166
43	200.01579904556274	pulse	1	t		41.0	2.5	blank	1.0	220.75417304039001	
43	201.3317849636078	fix_post	2		12	41.0	2.5	blank	1.0	222.07015895843506	0.1004340648651123
44	201.4322190284729	fix_pre	0		120	42.0	2.5	/experiments/AOT/AOT_stimuli/rescaled_final/0308_fw.mp4	0.0	222.17059302330017	1.0000298023223877
44	201.61568188667297	pulse	0	t		42.0	2.5	/experiments/AOT/AOT_stimuli/rescaled_final/0308_fw.mp4	0.0	222.35405588150024	
44	202.4322488307953	movie	1		245	42.0	2.5	/experiments/AOT/AOT_stimuli/rescaled_final/0308_fw.mp4	0.0	223.17062282562256	2.4995460510253906
44	203.21571493148804	pulse	1	t		42.0	2.5	/experiments/AOT/AOT_stimuli/rescaled_final/0308_fw.mp4	0.0	223.9540889263153	
44	204.81425786018372	pulse	1	t		42.0	2.5	/experiments/AOT/AOT_stimuli/rescaled_final/0308_fw.mp4	0.0	225.552631855011	
44	204.93179488182068	fix_post	2		12	42.0	2.5	/experiments/AOT/AOT_stimuli/rescaled_final/0308_fw.mp4	0.0	225.67016887664795	0.10038995742797852
45	205.03218483924866	fix_pre	0		120	43.0	2.5	/experiments/AOT/AOT_stimuli/rescaled_final/1314_rv.mp4	0.0	225.77055883407593	0.9995801448822021
45	206.03176498413086	movie	1		243	43.0	2.5	/experiments/AOT/AOT_stimuli/rescaled_final/1314_rv.mp4	0.0	226.77013897895813	2.4999899864196777
45	206.4158308506012	pulse	1	t		43.0	2.5	/experiments/AOT/AOT_stimuli/rescaled_final/1314_rv.mp4	0.0	227.15420484542847	
45	208.0157608985901	pulse	1	t		43.0	2.5	/experiments/AOT/AOT_stimuli/rescaled_final/1314_rv.mp4	0.0	228.75413489341736	
45	208.53175497055054	fix_post	2		12	43.0	2.5	/experiments/AOT/AOT_stimuli/rescaled_final/1314_rv.mp4	0.0	229.2701289653778	0.10047698020935059
46	208.6322319507599	fix_pre	0		119	44.0	2.5	/experiments/AOT/AOT_stimuli/rescaled_final/0370_rv.mp4	0.0	229.37060594558716	0.9915719032287598
46	209.61567902565002	pulse	0	t		44.0	2.5	/experiments/AOT/AOT_stimuli/rescaled_final/0370_rv.mp4	0.0	230.3540530204773	
46	209.62380385398865	movie	1		244	44.0	2.5	/experiments/AOT/AOT_stimuli/rescaled_final/0370_rv.mp4	0.0	230.36217784881592	2.5083651542663574
46	211.21593284606934	pulse	1	t		44.0	2.5	/experiments/AOT/AOT_stimuli/rescaled_final/0370_rv.mp4	0.0	231.9543068408966	
46	212.132169008255	fix_post	2		12	44.0	2.5	/experiments/AOT/AOT_stimuli/rescaled_final/0370_rv.mp4	0.0	232.87054300308228	0.09997391700744629
47	212.23214292526245	fix_pre	0		120	45.0	2.5	/experiments/AOT/AOT_stimuli/rescaled_final/0494_fw.mp4	0.0	232.97051692008972	0.9996380805969238
47	212.8156599998474	pulse	0	t		45.0	2.5	/experiments/AOT/AOT_stimuli/rescaled_final/0494_fw.mp4	0.0	233.55403399467468	
47	213.23178100585938	movie	1		243	45.0	2.5	/experiments/AOT/AOT_stimuli/rescaled_final/0494_fw.mp4	0.0	233.97015500068665	2.4999890327453613
47	214.41575384140015	pulse	1	t		45.0	2.5	/experiments/AOT/AOT_stimuli/rescaled_final/0494_fw.mp4	0.0	235.15412783622742	
47	215.73177003860474	fix_post	2		12	45.0	2.5	/experiments/AOT/AOT_stimuli/rescaled_final/0494_fw.mp4	0.0	236.470144033432	0.10037088394165039
48	215.8321409225464	fix_pre	0		120	46.0	2.5	/experiments/AOT/AOT_stimuli/rescaled_final/0246_rv.mp4	0.0	236.57051491737366	0.9999549388885498
48	216.01569390296936	pulse	0	t		46.0	2.5	/experiments/AOT/AOT_stimuli/rescaled_final/0246_rv.mp4	0.0	236.75406789779663	
48	216.83209586143494	movie	1		245	46.0	2.5	/experiments/AOT/AOT_stimuli/rescaled_final/0246_rv.mp4	0.0	237.5704698562622	2.499674081802368
48	217.61560988426208	pulse	1	t		46.0	2.5	/experiments/AOT/AOT_stimuli/rescaled_final/0246_rv.mp4	0.0	238.35398387908936	
48	219.21401190757751	pulse	1	t		46.0	2.5	/experiments/AOT/AOT_stimuli/rescaled_final/0246_rv.mp4	0.0	239.95238590240479	
48	219.3317699432373	fix_post	2		12	46.0	2.5	/experiments/AOT/AOT_stimuli/rescaled_final/0246_rv.mp4	0.0	240.07014393806458	0.1004331111907959
49	219.4322030544281	fix_pre	0		120	47.0	2.5	/experiments/AOT/AOT_stimuli/rescaled_final/0233_fw.mp4	0.0	240.17057704925537	0.9994809627532959
49	220.4316840171814	movie	1		243	47.0	2.5	/experiments/AOT/AOT_stimuli/rescaled_final/0233_fw.mp4	0.0	241.17005801200867	2.5000150203704834
49	220.81528687477112	pulse	1	t		47.0	2.5	/experiments/AOT/AOT_stimuli/rescaled_final/0233_fw.mp4	0.0	241.5536608695984	
49	222.41559100151062	pulse	1	t		47.0	2.5	/experiments/AOT/AOT_stimuli/rescaled_final/0233_fw.mp4	0.0	243.1539649963379	
49	222.93169903755188	fix_post	2		12	47.0	2.5	/experiments/AOT/AOT_stimuli/rescaled_final/0233_fw.mp4	0.0	243.67007303237915	0.10043978691101074
50	223.0321388244629	fix_pre	0		119	48.0	2.5	/experiments/AOT/AOT_stimuli/rescaled_final/0531_fw.mp4	0.0	243.77051281929016	0.9916400909423828
50	224.01563596725464	pulse	0	t		48.0	2.5	/experiments/AOT/AOT_stimuli/rescaled_final/0531_fw.mp4	0.0	244.7540099620819	
50	224.02377891540527	movie	1		244	48.0	2.5	/experiments/AOT/AOT_stimuli/rescaled_final/0531_fw.mp4	0.0	244.76215291023254	2.5083260536193848
50	225.61561489105225	pulse	1	t		48.0	2.5	/experiments/AOT/AOT_stimuli/rescaled_final/0531_fw.mp4	0.0	246.35398888587952	
50	226.53210496902466	fix_post	2		12	48.0	2.5	/experiments/AOT/AOT_stimuli/rescaled_final/0531_fw.mp4	0.0	247.27047896385193	0.10001397132873535
51	226.6321189403534	fix_pre	0		120	49.0	2.5	blank	1.0	247.37049293518066	0.9999299049377441
51	227.21554589271545	pulse	0	t		49.0	2.5	blank	1.0	247.95391988754272	
51	227.63204884529114	movie	1		300	49.0	2.5	blank	1.0	248.3704228401184	2.499660015106201
51	228.81570982933044	pulse	1	t		49.0	2.5	blank	1.0	249.55408382415771	
51	230.13170886039734	fix_post	2		12	49.0	2.5	blank	1.0	250.8700828552246	0.10039710998535156
52	230.2321059703827	fix_pre	0		120	50.0	2.5	/experiments/AOT/AOT_stimuli/rescaled_final/0602_fw.mp4	0.0	250.97047996520996	0.9999809265136719
52	230.41575503349304	pulse	0	t		50.0	2.5	/experiments/AOT/AOT_stimuli/rescaled_final/0602_fw.mp4	0.0	251.1541290283203	
52	231.23208689689636	movie	1		245	50.0	2.5	/experiments/AOT/AOT_stimuli/rescaled_final/0602_fw.mp4	0.0	251.97046089172363	2.5002291202545166
52	232.01509594917297	pulse	1	t		50.0	2.5	/experiments/AOT/AOT_stimuli/rescaled_final/0602_fw.mp4	0.0	252.75346994400024	
52	233.6142189502716	pulse	1	t		50.0	2.5	/experiments/AOT/AOT_stimuli/rescaled_final/0602_fw.mp4	0.0	254.35259294509888	
52	233.73231601715088	fix_post	2		12	50.0	2.5	/experiments/AOT/AOT_stimuli/rescaled_final/0602_fw.mp4	0.0	254.47069001197815	0.0996558666229248
53	233.8319718837738	fix_pre	0		120	51.0	2.5	/experiments/AOT/AOT_stimuli/rescaled_final/0627_rv.mp4	0.0	254.57034587860107	1.0000250339508057
53	234.8319969177246	movie	1		245	51.0	2.5	/experiments/AOT/AOT_stimuli/rescaled_final/0627_rv.mp4	0.0	255.57037091255188	2.500098943710327
53	235.2167649269104	pulse	1	t		51.0	2.5	/experiments/AOT/AOT_stimuli/rescaled_final/0627_rv.mp4	0.0	255.95513892173767	
53	236.81554698944092	pulse	1	t		51.0	2.5	/experiments/AOT/AOT_stimuli/rescaled_final/0627_rv.mp4	0.0	257.5539209842682	
53	237.33209586143494	fix_post	2		12	51.0	2.5	/experiments/AOT/AOT_stimuli/rescaled_final/0627_rv.mp4	0.0	258.0704698562622	0.10003519058227539
54	237.4321310520172	fix_pre	0		119	52.0	2.5	/experiments/AOT/AOT_stimuli/rescaled_final/1669_rv.mp4	0.0	258.1705050468445	0.9916179180145264
54	238.41564989089966	pulse	0	t		52.0	2.5	/experiments/AOT/AOT_stimuli/rescaled_final/1669_rv.mp4	0.0	259.15402388572693	
54	238.42374897003174	movie	1		243	52.0	2.5	/experiments/AOT/AOT_stimuli/rescaled_final/1669_rv.mp4	0.0	259.162122964859	2.5082778930664062
54	240.01570105552673	pulse	1	t		52.0	2.5	/experiments/AOT/AOT_stimuli/rescaled_final/1669_rv.mp4	0.0	260.754075050354	
54	240.93202686309814	fix_post	2		12	52.0	2.5	/experiments/AOT/AOT_stimuli/rescaled_final/1669_rv.mp4	0.0	261.6704008579254	0.09996509552001953
55	241.03199195861816	fix_pre	0		120	53.0	2.5	/experiments/AOT/AOT_stimuli/rescaled_final/1878_fw.mp4	0.0	261.77036595344543	1.0000169277191162
55	241.61564087867737	pulse	0	t		53.0	2.5	/experiments/AOT/AOT_stimuli/rescaled_final/1878_fw.mp4	0.0	262.35401487350464	
55	242.03200888633728	movie	1		245	53.0	2.5	/experiments/AOT/AOT_stimuli/rescaled_final/1878_fw.mp4	0.0	262.77038288116455	2.4999680519104004
55	243.21553802490234	pulse	1	t		53.0	2.5	/experiments/AOT/AOT_stimuli/rescaled_final/1878_fw.mp4	0.0	263.9539120197296	
55	244.53197693824768	fix_post	2		12	53.0	2.5	/experiments/AOT/AOT_stimuli/rescaled_final/1878_fw.mp4	0.0	265.27035093307495	0.10005807876586914
56	244.63203501701355	fix_pre	0		120	54.0	2.5	blank	1.0	265.3704090118408	0.9996168613433838
56	244.81547284126282	pulse	0	t		54.0	2.5	blank	1.0	265.5538468360901	
56	245.63165187835693	movie	1		300	54.0	2.5	blank	1.0	266.3700258731842	2.500352144241333
56	246.41550302505493	pulse	1	t		54.0	2.5	blank	1.0	267.1538770198822	
56	248.01551795005798	pulse	1	t		54.0	2.5	blank	1.0	268.75389194488525	
56	248.13200402259827	fix_post	2		12	54.0	2.5	blank	1.0	268.87037801742554	0.09999799728393555
57	248.2320020198822	fix_pre	0		120	55.0	2.5	/experiments/AOT/AOT_stimuli/rescaled_final/1758_rv.mp4	0.0	268.9703760147095	0.9999659061431885
57	249.2319679260254	movie	1		244	55.0	2.5	/experiments/AOT/AOT_stimuli/rescaled_final/1758_rv.mp4	0.0	269.97034192085266	2.4995980262756348
57	249.61682987213135	pulse	1	t		55.0	2.5	/experiments/AOT/AOT_stimuli/rescaled_final/1758_rv.mp4	0.0	270.3552038669586	
57	251.21552205085754	pulse	1	t		55.0	2.5	/experiments/AOT/AOT_stimuli/rescaled_final/1758_rv.mp4	0.0	271.9538960456848	
57	251.73156595230103	fix_post	2		12	55.0	2.5	/experiments/AOT/AOT_stimuli/rescaled_final/1758_rv.mp4	0.0	272.4699399471283	0.10056710243225098
58	251.83213305473328	fix_pre	0		119	56.0	2.5	/experiments/AOT/AOT_stimuli/rescaled_final/1038_fw.mp4	0.0	272.57050704956055	0.9915118217468262
58	252.81551384925842	pulse	0	t		56.0	2.5	/experiments/AOT/AOT_stimuli/rescaled_final/1038_fw.mp4	0.0	273.5538878440857	
58	252.8236448764801	movie	1		244	56.0	2.5	/experiments/AOT/AOT_stimuli/rescaled_final/1038_fw.mp4	0.0	273.5620188713074	2.5082931518554688
58	254.41579389572144	pulse	1	t		56.0	2.5	/experiments/AOT/AOT_stimuli/rescaled_final/1038_fw.mp4	0.0	275.1541678905487	
58	255.33193802833557	fix_post	2		12	56.0	2.5	/experiments/AOT/AOT_stimuli/rescaled_final/1038_fw.mp4	0.0	276.07031202316284	0.10015988349914551
59	255.43209791183472	fix_pre	0		120	57.0	2.5	/experiments/AOT/AOT_stimuli/rescaled_final/2041_fw.mp4	0.0	276.170471906662	0.9998209476470947
59	256.0154118537903	pulse	0	t		57.0	2.5	/experiments/AOT/AOT_stimuli/rescaled_final/2041_fw.mp4	0.0	276.75378584861755	
59	256.4319188594818	movie	1		243	57.0	2.5	/experiments/AOT/AOT_stimuli/rescaled_final/2041_fw.mp4	0.0	277.1702928543091	2.4999520778656006
59	257.61555194854736	pulse	1	t		57.0	2.5	/experiments/AOT/AOT_stimuli/rescaled_final/2041_fw.mp4	0.0	278.35392594337463	
59	258.9318709373474	fix_post	2		12	57.0	2.5	/experiments/AOT/AOT_stimuli/rescaled_final/2041_fw.mp4	0.0	279.6702449321747	0.10002398490905762
60	259.03189492225647	fix_pre	0		120	58.0	2.5	/experiments/AOT/AOT_stimuli/rescaled_final/0731_rv.mp4	0.0	279.77026891708374	0.9997200965881348
60	259.2154598236084	pulse	0	t		58.0	2.5	/experiments/AOT/AOT_stimuli/rescaled_final/0731_rv.mp4	0.0	279.95383381843567	
60	260.0316150188446	movie	1		244	58.0	2.5	/experiments/AOT/AOT_stimuli/rescaled_final/0731_rv.mp4	0.0	280.7699890136719	2.500173807144165
60	260.815486907959	pulse	1	t		58.0	2.5	/experiments/AOT/AOT_stimuli/rescaled_final/0731_rv.mp4	0.0	281.55386090278625	
60	262.4154179096222	pulse	1	t		58.0	2.5	/experiments/AOT/AOT_stimuli/rescaled_final/0731_rv.mp4	0.0	283.15379190444946	
60	262.53178882598877	fix_post	2		12	58.0	2.5	/experiments/AOT/AOT_stimuli/rescaled_final/0731_rv.mp4	0.0	283.27016282081604	0.1000981330871582
61	262.6318869590759	fix_pre	0		120	59.0	2.5	/experiments/AOT/AOT_stimuli/rescaled_final/1963_rv.mp4	0.0	283.3702609539032	1.0001239776611328
61	263.63201093673706	movie	1		244	59.0	2.5	/experiments/AOT/AOT_stimuli/rescaled_final/1963_rv.mp4	0.0	284.37038493156433	2.499901056289673
61	264.0153160095215	pulse	1	t		59.0	2.5	/experiments/AOT/AOT_stimuli/rescaled_final/1963_rv.mp4	0.0	284.75369000434875	
61	265.61545491218567	pulse	1	t		59.0	2.5	/experiments/AOT/AOT_stimuli/rescaled_final/1963_rv.mp4	0.0	286.35382890701294	
61	266.13191199302673	fix_post	2		12	59.0	2.5	/experiments/AOT/AOT_stimuli/rescaled_final/1963_rv.mp4	0.0	286.870285987854	0.10002803802490234
62	266.23194003105164	fix_pre	0		119	60.0	2.5	/experiments/AOT/AOT_stimuli/rescaled_final/0996_rv.mp4	0.0	286.9703140258789	0.991628885269165
62	267.2153830528259	pulse	0	t		60.0	2.5	/experiments/AOT/AOT_stimuli/rescaled_final/0996_rv.mp4	0.0	287.9537570476532	
62	267.2235689163208	movie	1		248	60.0	2.5	/experiments/AOT/AOT_stimuli/rescaled_final/0996_rv.mp4	0.0	287.96194291114807	2.5083179473876953
62	268.8162839412689	pulse	1	t		60.0	2.5	/experiments/AOT/AOT_stimuli/rescaled_final/0996_rv.mp4	0.0	289.5546579360962	
62	269.7318868637085	fix_post	2		12	60.0	2.5	/experiments/AOT/AOT_stimuli/rescaled_final/0996_rv.mp4	0.0	290.47026085853577	0.10006213188171387
63	269.8319489955902	fix_pre	0		120	61.0	2.5	/experiments/AOT/AOT_stimuli/rescaled_final/1687_fw.mp4	0.0	290.5703229904175	0.9995038509368896
63	270.41542291641235	pulse	0	t		61.0	2.5	/experiments/AOT/AOT_stimuli/rescaled_final/1687_fw.mp4	0.0	291.1537969112396	
63	270.8314528465271	movie	1		245	61.0	2.5	/experiments/AOT/AOT_stimuli/rescaled_final/1687_fw.mp4	0.0	291.56982684135437	2.499994993209839
63	272.015380859375	pulse	1	t		61.0	2.5	/experiments/AOT/AOT_stimuli/rescaled_final/1687_fw.mp4	0.0	292.75375485420227	
63	273.33144783973694	fix_post	2		12	61.0	2.5	/experiments/AOT/AOT_stimuli/rescaled_final/1687_fw.mp4	0.0	294.0698218345642	0.1004490852355957
64	273.43189692497253	fix_pre	0		120	62.0	2.5	blank	1.0	294.1702709197998	1.0000460147857666
64	273.6153440475464	pulse	0	t		62.0	2.5	blank	1.0	294.35371804237366	
64	274.4319429397583	movie	1		300	62.0	2.5	blank	1.0	295.17031693458557	2.4995100498199463
64	275.2153060436249	pulse	1	t		62.0	2.5	blank	1.0	295.95368003845215	
64	276.8153429031372	pulse	1	t		62.0	2.5	blank	1.0	297.5537168979645	
64	276.93145298957825	fix_post	2		12	62.0	2.5	blank	1.0	297.6698269844055	0.10043787956237793
65	277.0318908691406	fix_pre	0		120	63.0	2.5	/experiments/AOT/AOT_stimuli/rescaled_final/1644_rv.mp4	0.0	297.7702648639679	1.0000231266021729
65	278.0319139957428	movie	1		245	63.0	2.5	/experiments/AOT/AOT_stimuli/rescaled_final/1644_rv.mp4	0.0	298.77028799057007	2.4998650550842285
65	278.4147570133209	pulse	1	t		63.0	2.5	/experiments/AOT/AOT_stimuli/rescaled_final/1644_rv.mp4	0.0	299.1531310081482	
65	280.0153839588165	pulse	1	t		63.0	2.5	/experiments/AOT/AOT_stimuli/rescaled_final/1644_rv.mp4	0.0	300.7537579536438	
65	280.531779050827	fix_post	2		12	63.0	2.5	/experiments/AOT/AOT_stimuli/rescaled_final/1644_rv.mp4	0.0	301.2701530456543	0.10006594657897949
66	280.631844997406	fix_pre	0		119	64.0	2.5	/experiments/AOT/AOT_stimuli/rescaled_final/0731_fw.mp4	0.0	301.3702189922333	0.9916989803314209
66	281.6154019832611	pulse	0	t		64.0	2.5	/experiments/AOT/AOT_stimuli/rescaled_final/0731_fw.mp4	0.0	302.3537759780884	
66	281.6235439777374	movie	1		246	64.0	2.5	/experiments/AOT/AOT_stimuli/rescaled_final/0731_fw.mp4	0.0	302.3619179725647	2.5078749656677246
66	283.21528482437134	pulse	1	t		64.0	2.5	/experiments/AOT/AOT_stimuli/rescaled_final/0731_fw.mp4	0.0	303.9536588191986	
66	284.13141894340515	fix_post	2		12	64.0	2.5	/experiments/AOT/AOT_stimuli/rescaled_final/0731_fw.mp4	0.0	304.8697929382324	0.10039591789245605
67	284.2318148612976	fix_pre	0		120	65.0	2.5	/experiments/AOT/AOT_stimuli/rescaled_final/2104_fw.mp4	0.0	304.9701888561249	1.0000991821289062
67	284.81533694267273	pulse	0	t		65.0	2.5	/experiments/AOT/AOT_stimuli/rescaled_final/2104_fw.mp4	0.0	305.5537109375	
67	285.2319140434265	movie	1		245	65.0	2.5	/experiments/AOT/AOT_stimuli/rescaled_final/2104_fw.mp4	0.0	305.9702880382538	2.499537944793701
67	286.41540598869324	pulse	1	t		65.0	2.5	/experiments/AOT/AOT_stimuli/rescaled_final/2104_fw.mp4	0.0	307.1537799835205	
67	287.7314519882202	fix_post	2		12	65.0	2.5	/experiments/AOT/AOT_stimuli/rescaled_final/2104_fw.mp4	0.0	308.4698259830475	0.10048604011535645
68	287.83193802833557	fix_pre	0		120	66.0	2.5	/experiments/AOT/AOT_stimuli/rescaled_final/1620_fw.mp4	0.0	308.57031202316284	1.0000920295715332
68	288.01536798477173	pulse	0	t		66.0	2.5	/experiments/AOT/AOT_stimuli/rescaled_final/1620_fw.mp4	0.0	308.753741979599	
68	288.8320300579071	movie	1		246	66.0	2.5	/experiments/AOT/AOT_stimuli/rescaled_final/1620_fw.mp4	0.0	309.5704040527344	2.4998109340667725
68	289.61540699005127	pulse	1	t		66.0	2.5	/experiments/AOT/AOT_stimuli/rescaled_final/1620_fw.mp4	0.0	310.35378098487854	
68	291.21533203125	pulse	1	t		66.0	2.5	/experiments/AOT/AOT_stimuli/rescaled_final/1620_fw.mp4	0.0	311.95370602607727	
68	291.3318409919739	fix_post	2		12	66.0	2.5	/experiments/AOT/AOT_stimuli/rescaled_final/1620_fw.mp4	0.0	312.07021498680115	0.09996604919433594
69	291.4318070411682	fix_pre	0		120	67.0	2.5	/experiments/AOT/AOT_stimuli/rescaled_final/0630_fw.mp4	0.0	312.1701810359955	1.0000858306884766
69	292.4318928718567	movie	1		246	67.0	2.5	/experiments/AOT/AOT_stimuli/rescaled_final/0630_fw.mp4	0.0	313.17026686668396	2.4998600482940674
69	292.81476497650146	pulse	1	t		67.0	2.5	/experiments/AOT/AOT_stimuli/rescaled_final/0630_fw.mp4	0.0	313.55313897132874	
69	294.41523790359497	pulse	1	t		67.0	2.5	/experiments/AOT/AOT_stimuli/rescaled_final/0630_fw.mp4	0.0	315.15361189842224	
69	294.93175292015076	fix_post	2		12	67.0	2.5	/experiments/AOT/AOT_stimuli/rescaled_final/0630_fw.mp4	0.0	315.670126914978	0.10004496574401855
70	295.0317978858948	fix_pre	0		119	68.0	2.5	/experiments/AOT/AOT_stimuli/rescaled_final/0327_rv.mp4	0.0	315.77017188072205	0.9916200637817383
70	296.01518988609314	pulse	0	t		68.0	2.5	/experiments/AOT/AOT_stimuli/rescaled_final/0327_rv.mp4	0.0	316.7535638809204	
70	296.0234179496765	movie	1		247	68.0	2.5	/experiments/AOT/AOT_stimuli/rescaled_final/0327_rv.mp4	0.0	316.7617919445038	2.5085549354553223
70	297.61494994163513	pulse	1	t		68.0	2.5	/experiments/AOT/AOT_stimuli/rescaled_final/0327_rv.mp4	0.0	318.3533239364624	
70	298.53197288513184	fix_post	2		12	68.0	2.5	/experiments/AOT/AOT_stimuli/rescaled_final/0327_rv.mp4	0.0	319.2703468799591	0.09977912902832031
71	298.63175201416016	fix_pre	0		120	69.0	2.5	/experiments/AOT/AOT_stimuli/rescaled_final/1503_fw.mp4	0.0	319.3701260089874	1.0000288486480713
71	299.2152168750763	pulse	0	t		69.0	2.5	/experiments/AOT/AOT_stimuli/rescaled_final/1503_fw.mp4	0.0	319.95359086990356	
71	299.6317808628082	movie	1		245	69.0	2.5	/experiments/AOT/AOT_stimuli/rescaled_final/1503_fw.mp4	0.0	320.3701548576355	2.499958038330078
71	300.81528782844543	pulse	1	t		69.0	2.5	/experiments/AOT/AOT_stimuli/rescaled_final/1503_fw.mp4	0.0	321.5536618232727	
71	302.1317389011383	fix_post	2		12	69.0	2.5	/experiments/AOT/AOT_stimuli/rescaled_final/1503_fw.mp4	0.0	322.8701128959656	0.10005497932434082
72	302.23179388046265	fix_pre	0		120	70.0	2.5	blank	1.0	322.9701678752899	0.9999649524688721
72	302.4152760505676	pulse	0	t		70.0	2.5	blank	1.0	323.1536500453949	
72	303.2317588329315	movie	1		300	70.0	2.5	blank	1.0	323.9701328277588	2.499990224838257
72	304.01520705223083	pulse	1	t		70.0	2.5	blank	1.0	324.7535810470581	
72	305.61525797843933	pulse	1	t		70.0	2.5	blank	1.0	326.3536319732666	
72	305.7317490577698	fix_post	2		12	70.0	2.5	blank	1.0	326.47012305259705	0.0999448299407959
73	305.83169388771057	fix_pre	0		120	71.0	2.5	/experiments/AOT/AOT_stimuli/rescaled_final/0510_rv.mp4	0.0	326.57006788253784	1.0000450611114502
73	306.831738948822	movie	1		244	71.0	2.5	/experiments/AOT/AOT_stimuli/rescaled_final/0510_rv.mp4	0.0	327.5701129436493	2.500011920928955
73	307.21524596214294	pulse	1	t		71.0	2.5	/experiments/AOT/AOT_stimuli/rescaled_final/0510_rv.mp4	0.0	327.9536199569702	
73	308.8152129650116	pulse	1	t		71.0	2.5	/experiments/AOT/AOT_stimuli/rescaled_final/0510_rv.mp4	0.0	329.55358695983887	
73	309.331750869751	fix_post	2		12	71.0	2.5	/experiments/AOT/AOT_stimuli/rescaled_final/0510_rv.mp4	0.0	330.07012486457825	0.0999290943145752
74	309.43167996406555	fix_pre	0		119	72.0	2.5	/experiments/AOT/AOT_stimuli/rescaled_final/0312_rv.mp4	0.0	330.1700539588928	0.9916210174560547
74	310.41523694992065	pulse	0	t		72.0	2.5	/experiments/AOT/AOT_stimuli/rescaled_final/0312_rv.mp4	0.0	331.1536109447479	
74	310.4233009815216	movie	1		245	72.0	2.5	/experiments/AOT/AOT_stimuli/rescaled_final/0312_rv.mp4	0.0	331.1616749763489	2.5085439682006836
74	312.01626086235046	pulse	1	t		72.0	2.5	/experiments/AOT/AOT_stimuli/rescaled_final/0312_rv.mp4	0.0	332.75463485717773	
74	312.9318449497223	fix_post	2		12	72.0	2.5	/experiments/AOT/AOT_stimuli/rescaled_final/0312_rv.mp4	0.0	333.67021894454956	0.0998220443725586
75	313.03166699409485	fix_pre	0		120	73.0	2.5	/experiments/AOT/AOT_stimuli/rescaled_final/0165_fw.mp4	0.0	333.7700409889221	1.0000429153442383
75	313.6151850223541	pulse	0	t		73.0	2.5	/experiments/AOT/AOT_stimuli/rescaled_final/0165_fw.mp4	0.0	334.3535590171814	
75	314.0317099094391	movie	1		244	73.0	2.5	/experiments/AOT/AOT_stimuli/rescaled_final/0165_fw.mp4	0.0	334.77008390426636	2.4999780654907227
75	315.2152919769287	pulse	1	t		73.0	2.5	/experiments/AOT/AOT_stimuli/rescaled_final/0165_fw.mp4	0.0	335.953665971756	
75	316.5316879749298	fix_post	2		12	73.0	2.5	/experiments/AOT/AOT_stimuli/rescaled_final/0165_fw.mp4	0.0	337.2700619697571	0.10000085830688477
76	316.6316888332367	fix_pre	0		120	74.0	2.5	/experiments/AOT/AOT_stimuli/rescaled_final/1314_fw.mp4	0.0	337.37006282806396	0.9995729923248291
76	316.8151478767395	pulse	0	t		74.0	2.5	/experiments/AOT/AOT_stimuli/rescaled_final/1314_fw.mp4	0.0	337.5535218715668	
76	317.6312618255615	movie	1		244	74.0	2.5	/experiments/AOT/AOT_stimuli/rescaled_final/1314_fw.mp4	0.0	338.3696358203888	2.5003890991210938
76	318.4152789115906	pulse	1	t		74.0	2.5	/experiments/AOT/AOT_stimuli/rescaled_final/1314_fw.mp4	0.0	339.15365290641785	
76	320.0134699344635	pulse	1	t		74.0	2.5	/experiments/AOT/AOT_stimuli/rescaled_final/1314_fw.mp4	0.0	340.75184392929077	
76	320.1316509246826	fix_post	2		12	74.0	2.5	/experiments/AOT/AOT_stimuli/rescaled_final/1314_fw.mp4	0.0	340.8700249195099	0.09965801239013672
77	320.23130893707275	fix_pre	0		120	75.0	2.5	/experiments/AOT/AOT_stimuli/rescaled_final/0279_rv.mp4	0.0	340.9696829319	1.000274896621704
77	321.23158383369446	movie	1		245	75.0	2.5	/experiments/AOT/AOT_stimuli/rescaled_final/0279_rv.mp4	0.0	341.96995782852173	2.4996421337127686
77	321.61626291275024	pulse	1	t		75.0	2.5	/experiments/AOT/AOT_stimuli/rescaled_final/0279_rv.mp4	0.0	342.3546369075775	
77	323.21516394615173	pulse	1	t		75.0	2.5	/experiments/AOT/AOT_stimuli/rescaled_final/0279_rv.mp4	0.0	343.953537940979	
77	323.7312259674072	fix_post	2		12	75.0	2.5	/experiments/AOT/AOT_stimuli/rescaled_final/0279_rv.mp4	0.0	344.4695999622345	0.1004478931427002
78	323.8316738605499	fix_pre	0		119	76.0	2.5	/experiments/AOT/AOT_stimuli/rescaled_final/1996_fw.mp4	0.0	344.5700478553772	0.9916000366210938
78	324.81518292427063	pulse	0	t		76.0	2.5	/experiments/AOT/AOT_stimuli/rescaled_final/1996_fw.mp4	0.0	345.5535569190979	
78	324.823273897171	movie	1		244	76.0	2.5	/experiments/AOT/AOT_stimuli/rescaled_final/1996_fw.mp4	0.0	345.5616478919983	2.508455991744995
78	326.41482186317444	pulse	1	t		76.0	2.5	/experiments/AOT/AOT_stimuli/rescaled_final/1996_fw.mp4	0.0	347.1531958580017	
78	327.331729888916	fix_post	2		12	76.0	2.5	/experiments/AOT/AOT_stimuli/rescaled_final/1996_fw.mp4	0.0	348.0701038837433	0.09950613975524902
79	327.43123602867126	fix_pre	0		120	77.0	2.5	blank	1.0	348.16961002349854	1.0004758834838867
79	328.0151479244232	pulse	0	t		77.0	2.5	blank	1.0	348.7535219192505	
79	328.43171191215515	movie	1		300	77.0	2.5	blank	1.0	349.1700859069824	2.499809980392456
79	329.615149974823	pulse	1	t		77.0	2.5	blank	1.0	350.35352396965027	
79	330.9315218925476	fix_post	2		12	77.0	2.5	blank	1.0	351.6698958873749	0.10006213188171387
80	331.0315840244293	fix_pre	0		120	78.0	2.5	/experiments/AOT/AOT_stimuli/rescaled_final/1501_rv.mp4	0.0	351.7699580192566	0.9996738433837891
80	331.21506786346436	pulse	0	t		78.0	2.5	/experiments/AOT/AOT_stimuli/rescaled_final/1501_rv.mp4	0.0	351.9534418582916	
80	332.0312578678131	movie	1		244	78.0	2.5	/experiments/AOT/AOT_stimuli/rescaled_final/1501_rv.mp4	0.0	352.7696318626404	2.4999351501464844
80	332.81518387794495	pulse	1	t		78.0	2.5	/experiments/AOT/AOT_stimuli/rescaled_final/1501_rv.mp4	0.0	353.5535578727722	
80	334.4152069091797	pulse	1	t		78.0	2.5	/experiments/AOT/AOT_stimuli/rescaled_final/1501_rv.mp4	0.0	355.15358090400696	
80	334.5311930179596	fix_post	2		12	78.0	2.5	/experiments/AOT/AOT_stimuli/rescaled_final/1501_rv.mp4	0.0	355.26956701278687	0.10084891319274902
81	334.63204193115234	fix_pre	0		120	79.0	2.5	/experiments/AOT/AOT_stimuli/rescaled_final/0544_rv.mp4	0.0	355.3704159259796	0.9995889663696289
81	335.631630897522	movie	1		245	79.0	2.5	/experiments/AOT/AOT_stimuli/rescaled_final/0544_rv.mp4	0.0	356.37000489234924	2.4995229244232178
81	336.0151789188385	pulse	1	t		79.0	2.5	/experiments/AOT/AOT_stimuli/rescaled_final/0544_rv.mp4	0.0	356.75355291366577	
81	337.6151249408722	pulse	1	t		79.0	2.5	/experiments/AOT/AOT_stimuli/rescaled_final/0544_rv.mp4	0.0	358.35349893569946	
81	338.1311538219452	fix_post	2		12	79.0	2.5	/experiments/AOT/AOT_stimuli/rescaled_final/0544_rv.mp4	0.0	358.86952781677246	0.10004115104675293
82	338.23119497299194	fix_pre	0		119	80.0	2.5	/experiments/AOT/AOT_stimuli/rescaled_final/2005_fw.mp4	0.0	358.9695689678192	0.9920430183410645
82	339.21514105796814	pulse	0	t		80.0	2.5	/experiments/AOT/AOT_stimuli/rescaled_final/2005_fw.mp4	0.0	359.9535150527954	
82	339.223237991333	movie	1		250	80.0	2.5	/experiments/AOT/AOT_stimuli/rescaled_final/2005_fw.mp4	0.0	359.9616119861603	2.5083940029144287
82	340.8145749568939	pulse	1	t		80.0	2.5	/experiments/AOT/AOT_stimuli/rescaled_final/2005_fw.mp4	0.0	361.5529489517212	
82	341.73163199424744	fix_post	2		12	80.0	2.5	/experiments/AOT/AOT_stimuli/rescaled_final/2005_fw.mp4	0.0	362.4700059890747	0.09992504119873047
83	341.83155703544617	fix_pre	0		120	81.0	2.5	/experiments/AOT/AOT_stimuli/rescaled_final/1153_rv.mp4	0.0	362.56993103027344	0.999629020690918
83	342.4151849746704	pulse	0	t		81.0	2.5	/experiments/AOT/AOT_stimuli/rescaled_final/1153_rv.mp4	0.0	363.1535589694977	
83	342.8311860561371	movie	1		248	81.0	2.5	/experiments/AOT/AOT_stimuli/rescaled_final/1153_rv.mp4	0.0	363.56956005096436	2.5000579357147217
83	344.0146338939667	pulse	1	t		81.0	2.5	/experiments/AOT/AOT_stimuli/rescaled_final/1153_rv.mp4	0.0	364.75300788879395	
83	345.3312439918518	fix_post	2		12	81.0	2.5	/experiments/AOT/AOT_stimuli/rescaled_final/1153_rv.mp4	0.0	366.0696179866791	0.10008096694946289
84	345.43132495880127	fix_pre	0		120	82.0	2.5	/experiments/AOT/AOT_stimuli/rescaled_final/1918_rv.mp4	0.0	366.16969895362854	1.0005409717559814
84	345.6148419380188	pulse	0	t		82.0	2.5	/experiments/AOT/AOT_stimuli/rescaled_final/1918_rv.mp4	0.0	366.35321593284607	
84	346.43186593055725	movie	1		243	82.0	2.5	/experiments/AOT/AOT_stimuli/rescaled_final/1918_rv.mp4	0.0	367.1702399253845	2.4992759227752686
84	347.21505188941956	pulse	1	t		82.0	2.5	/experiments/AOT/AOT_stimuli/rescaled_final/1918_rv.mp4	0.0	367.9534258842468	
84	348.813560962677	pulse	1	t		82.0	2.5	/experiments/AOT/AOT_stimuli/rescaled_final/1918_rv.mp4	0.0	369.5519349575043	
84	348.9311418533325	fix_post	2		12	82.0	2.5	/experiments/AOT/AOT_stimuli/rescaled_final/1918_rv.mp4	0.0	369.6695158481598	0.0999300479888916
85	349.0310719013214	fix_pre	0		120	83.0	2.5	blank	1.0	369.7694458961487	1.0004520416259766
85	350.0315239429474	movie	1		300	83.0	2.5	blank	1.0	370.76989793777466	2.4999771118164062
85	350.41499304771423	pulse	1	t		83.0	2.5	blank	1.0	371.1533670425415	
85	352.0148558616638	pulse	1	t		83.0	2.5	blank	1.0	372.7532298564911	
85	352.5315010547638	fix_post	2		12	83.0	2.5	blank	1.0	373.26987504959106	0.1000359058380127
87	352.6315369606018	stim	0		1716					373.3699109554291	14.299990892410278
87	353.6150288581848	pulse	0	t						374.3534028530121	
87	355.21491599082947	pulse	0	t						375.95328998565674	
87	356.8149468898773	pulse	0	t						377.5533208847046	
87	358.41500782966614	pulse	0	t						379.1533818244934	
87	360.01494693756104	pulse	0	t						380.7533209323883	
87	361.61495304107666	pulse	0	t						382.35332703590393	
87	363.21489095687866	pulse	0	t						383.95326495170593	
87	364.8149528503418	pulse	0	t						385.55332684516907	
87	366.41494703292847	pulse	0	t						387.15332102775574	
