trial_nr	onset	event_type	phase	response	nr_frames	movie_index	movie_duration	movie_file	blank	onset_abs	duration
0	0.1666090488433838	stim	0		1					17.35306453704834	0.008198261260986328
0	0.1679995059967041	response	0	space						17.35445499420166	
1	0.17480731010437012	stim	0		4664					17.361262798309326	38.88218545913696
1	39.047446966171265	pulse	0	t						56.23390245437622	
1	39.05699276924133	stim	1		1715					56.24344825744629	14.300870418548584
1	40.639450788497925	pulse	1	t						57.82590627670288	
1	42.239720821380615	pulse	1	t						59.42617630958557	
1	43.83990740776062	pulse	1	t						61.026362895965576	
1	45.4400908946991	pulse	1	t						62.62654638290405	
1	47.04037356376648	pulse	1	t						64.22682905197144	
1	48.64060735702515	pulse	1	t						65.8270628452301	
1	50.24080443382263	pulse	1	t						67.42725992202759	
1	51.8410062789917	pulse	1	t						69.02746176719666	
2	53.35786318778992	fix_pre	0		11	0.0	2.5	/experiments/knapen_AOT/AOT_stimuli/rescaled_final/1790_rv.mp4	0.0	70.54431867599487	0.11668229103088379
2	53.441306591033936	pulse	0	t		0.0	2.5	/experiments/knapen_AOT/AOT_stimuli/rescaled_final/1790_rv.mp4	0.0	70.62776207923889	
2	53.4745454788208	movie	1		259	0.0	2.5	/experiments/knapen_AOT/AOT_stimuli/rescaled_final/1790_rv.mp4	0.0	70.66100096702576	2.483638286590576
2	55.041929483413696	pulse	1	t		0.0	2.5	/experiments/knapen_AOT/AOT_stimuli/rescaled_final/1790_rv.mp4	0.0	72.22838497161865	
2	55.95818376541138	fix_post	2		12	0.0	2.5	/experiments/knapen_AOT/AOT_stimuli/rescaled_final/1790_rv.mp4	0.0	73.14463925361633	0.10003471374511719
3	56.058218479156494	fix_pre	0		120	1.0	2.5	/experiments/knapen_AOT/AOT_stimuli/rescaled_final/1106_fw.mp4	0.0	73.24467396736145	1.0084912776947021
3	56.64240288734436	pulse	0	t		1.0	2.5	/experiments/knapen_AOT/AOT_stimuli/rescaled_final/1106_fw.mp4	0.0	73.82885837554932	
3	57.066709756851196	movie	1		268	1.0	2.5	/experiments/knapen_AOT/AOT_stimuli/rescaled_final/1106_fw.mp4	0.0	74.25316524505615	2.4920244216918945
3	58.24050760269165	pulse	1	t		1.0	2.5	/experiments/knapen_AOT/AOT_stimuli/rescaled_final/1106_fw.mp4	0.0	75.4269630908966	
3	59.55873417854309	fix_post	2		12	1.0	2.5	/experiments/knapen_AOT/AOT_stimuli/rescaled_final/1106_fw.mp4	0.0	76.74518966674805	0.10001349449157715
4	59.65874767303467	fix_pre	0		120	2.0	2.5	/experiments/knapen_AOT/AOT_stimuli/rescaled_final/1277_fw.mp4	0.0	76.84520316123962	1.0085268020629883
4	59.84223413467407	pulse	0	t		2.0	2.5	/experiments/knapen_AOT/AOT_stimuli/rescaled_final/1277_fw.mp4	0.0	77.02868962287903	
4	60.667274475097656	movie	1		262	2.0	2.5	/experiments/knapen_AOT/AOT_stimuli/rescaled_final/1277_fw.mp4	0.0	77.85372996330261	2.491997003555298
4	61.44038438796997	pulse	1	t		2.0	2.5	/experiments/knapen_AOT/AOT_stimuli/rescaled_final/1277_fw.mp4	0.0	78.62683987617493	
4	63.044803619384766	pulse	1	t		2.0	2.5	/experiments/knapen_AOT/AOT_stimuli/rescaled_final/1277_fw.mp4	0.0	80.23125910758972	
4	63.159271478652954	fix_post	2		12	2.0	2.5	/experiments/knapen_AOT/AOT_stimuli/rescaled_final/1277_fw.mp4	0.0	80.34572696685791	0.09999680519104004
5	63.259268283843994	fix_pre	0		120	3.0	2.5	/experiments/knapen_AOT/AOT_stimuli/rescaled_final/0114_rv.mp4	0.0	80.44572377204895	1.0085175037384033
5	64.2677857875824	movie	1		273	3.0	2.5	/experiments/knapen_AOT/AOT_stimuli/rescaled_final/0114_rv.mp4	0.0	81.45424127578735	2.49202823638916
5	64.64305090904236	pulse	1	t		3.0	2.5	/experiments/knapen_AOT/AOT_stimuli/rescaled_final/0114_rv.mp4	0.0	81.82950639724731	
5	66.24120593070984	pulse	1	t		3.0	2.5	/experiments/knapen_AOT/AOT_stimuli/rescaled_final/0114_rv.mp4	0.0	83.4276614189148	
5	66.75981402397156	fix_post	2		12	3.0	2.5	/experiments/knapen_AOT/AOT_stimuli/rescaled_final/0114_rv.mp4	0.0	83.94626951217651	0.10003185272216797
6	66.85984587669373	fix_pre	0		119	4.0	2.5	/experiments/knapen_AOT/AOT_stimuli/rescaled_final/0663_fw.mp4	0.0	84.04630136489868	1.0001678466796875
6	67.84372639656067	pulse	0	t		4.0	2.5	/experiments/knapen_AOT/AOT_stimuli/rescaled_final/0663_fw.mp4	0.0	85.03018188476562	
6	67.86001372337341	movie	1		274	4.0	2.5	/experiments/knapen_AOT/AOT_stimuli/rescaled_final/0663_fw.mp4	0.0	85.04646921157837	2.500333070755005
6	69.44323635101318	pulse	1	t		4.0	2.5	/experiments/knapen_AOT/AOT_stimuli/rescaled_final/0663_fw.mp4	0.0	86.62969183921814	
6	70.36034679412842	fix_post	2		12	4.0	2.5	/experiments/knapen_AOT/AOT_stimuli/rescaled_final/0663_fw.mp4	0.0	87.54680228233337	0.10000109672546387
7	70.46034789085388	fix_pre	0		120	5.0	2.5	blank	1.0	87.64680337905884	1.0001466274261475
7	71.03862500190735	pulse	0	t		5.0	2.5	blank	1.0	88.2250804901123	
7	71.46049451828003	movie	1		300	5.0	2.5	blank	1.0	88.64695000648499	2.5004007816314697
7	72.63660478591919	pulse	1	t		5.0	2.5	blank	1.0	89.82306027412415	
7	73.9608952999115	fix_post	2		12	5.0	2.5	blank	1.0	91.14735078811646	0.10000061988830566
8	74.0608959197998	fix_pre	0		120	6.0	2.5	/experiments/knapen_AOT/AOT_stimuli/rescaled_final/1277_fw.mp4	0.0	91.24735140800476	1.008518934249878
8	74.23622107505798	pulse	0	t		6.0	2.5	/experiments/knapen_AOT/AOT_stimuli/rescaled_final/1277_fw.mp4	0.0	91.42267656326294	
8	75.06941485404968	movie	1		269	6.0	2.5	/experiments/knapen_AOT/AOT_stimuli/rescaled_final/1277_fw.mp4	0.0	92.25587034225464	2.4920122623443604
8	75.83640575408936	pulse	1	t		6.0	2.5	/experiments/knapen_AOT/AOT_stimuli/rescaled_final/1277_fw.mp4	0.0	93.02286124229431	
8	77.43693470954895	pulse	1	t		6.0	2.5	/experiments/knapen_AOT/AOT_stimuli/rescaled_final/1277_fw.mp4	0.0	94.6233901977539	
8	77.56142711639404	fix_post	2		12	6.0	2.5	/experiments/knapen_AOT/AOT_stimuli/rescaled_final/1277_fw.mp4	0.0	94.747882604599	0.10001730918884277
9	77.66144442558289	fix_pre	0		120	7.0	2.5	/experiments/knapen_AOT/AOT_stimuli/rescaled_final/1327_rv.mp4	0.0	94.84789991378784	1.0085952281951904
9	78.67003965377808	movie	1		270	7.0	2.5	/experiments/knapen_AOT/AOT_stimuli/rescaled_final/1327_rv.mp4	0.0	95.85649514198303	2.491947650909424
9	79.03682255744934	pulse	1	t		7.0	2.5	/experiments/knapen_AOT/AOT_stimuli/rescaled_final/1327_rv.mp4	0.0	96.2232780456543	
9	80.63729357719421	pulse	1	t		7.0	2.5	/experiments/knapen_AOT/AOT_stimuli/rescaled_final/1327_rv.mp4	0.0	97.82374906539917	
9	81.1619873046875	fix_post	2		12	7.0	2.5	/experiments/knapen_AOT/AOT_stimuli/rescaled_final/1327_rv.mp4	0.0	98.34844279289246	0.10006165504455566
10	81.26204895973206	fix_pre	0		118	8.0	2.5	/experiments/knapen_AOT/AOT_stimuli/rescaled_final/1767_rv.mp4	0.0	98.44850444793701	0.9917852878570557
10	82.23739671707153	pulse	0	t		8.0	2.5	/experiments/knapen_AOT/AOT_stimuli/rescaled_final/1767_rv.mp4	0.0	99.42385220527649	
10	82.25383424758911	movie	1		291	8.0	2.5	/experiments/knapen_AOT/AOT_stimuli/rescaled_final/1767_rv.mp4	0.0	99.44028973579407	2.500396490097046
10	83.83754420280457	pulse	1	t		8.0	2.5	/experiments/knapen_AOT/AOT_stimuli/rescaled_final/1767_rv.mp4	0.0	101.02399969100952	
10	84.75423073768616	fix_post	2		12	8.0	2.5	/experiments/knapen_AOT/AOT_stimuli/rescaled_final/1767_rv.mp4	0.0	101.94068622589111	0.09996747970581055
11	84.85419821739197	fix_pre	0		120	9.0	2.5	/experiments/knapen_AOT/AOT_stimuli/rescaled_final/0143_rv.mp4	0.0	102.04065370559692	1.0084843635559082
11	85.43799352645874	pulse	0	t		9.0	2.5	/experiments/knapen_AOT/AOT_stimuli/rescaled_final/0143_rv.mp4	0.0	102.6244490146637	
11	85.86268258094788	movie	1		272	9.0	2.5	/experiments/knapen_AOT/AOT_stimuli/rescaled_final/0143_rv.mp4	0.0	103.04913806915283	2.492030620574951
11	87.0364122390747	pulse	1	t		9.0	2.5	/experiments/knapen_AOT/AOT_stimuli/rescaled_final/0143_rv.mp4	0.0	104.22286772727966	
11	88.35471320152283	fix_post	2		12	9.0	2.5	/experiments/knapen_AOT/AOT_stimuli/rescaled_final/0143_rv.mp4	0.0	105.54116868972778	0.10001063346862793
12	88.45472383499146	fix_pre	0		120	10.0	2.5	/experiments/knapen_AOT/AOT_stimuli/rescaled_final/2141_rv.mp4	0.0	105.64117932319641	1.0084748268127441
12	88.63827276229858	pulse	0	t		10.0	2.5	/experiments/knapen_AOT/AOT_stimuli/rescaled_final/2141_rv.mp4	0.0	105.82472825050354	
12	89.4631986618042	movie	1		276	10.0	2.5	/experiments/knapen_AOT/AOT_stimuli/rescaled_final/2141_rv.mp4	0.0	106.64965415000916	2.4920666217803955
12	90.23691201210022	pulse	1	t		10.0	2.5	/experiments/knapen_AOT/AOT_stimuli/rescaled_final/2141_rv.mp4	0.0	107.42336750030518	
12	91.8367850780487	pulse	1	t		10.0	2.5	/experiments/knapen_AOT/AOT_stimuli/rescaled_final/2141_rv.mp4	0.0	109.02324056625366	
12	91.9552652835846	fix_post	2		12	10.0	2.5	/experiments/knapen_AOT/AOT_stimuli/rescaled_final/2141_rv.mp4	0.0	109.14172077178955	0.10002517700195312
13	92.05529046058655	fix_pre	0		120	11.0	2.5	/experiments/knapen_AOT/AOT_stimuli/rescaled_final/0993_fw.mp4	0.0	109.2417459487915	1.0085062980651855
13	93.06379675865173	movie	1		269	11.0	2.5	/experiments/knapen_AOT/AOT_stimuli/rescaled_final/0993_fw.mp4	0.0	110.25025224685669	2.492070198059082
13	93.43899750709534	pulse	1	t		11.0	2.5	/experiments/knapen_AOT/AOT_stimuli/rescaled_final/0993_fw.mp4	0.0	110.6254529953003	
13	95.04074263572693	pulse	1	t		11.0	2.5	/experiments/knapen_AOT/AOT_stimuli/rescaled_final/0993_fw.mp4	0.0	112.22719812393188	
13	95.55586695671082	fix_post	2		12	11.0	2.5	/experiments/knapen_AOT/AOT_stimuli/rescaled_final/0993_fw.mp4	0.0	112.74232244491577	0.09993934631347656
14	95.65580630302429	fix_pre	0		119	12.0	2.5	blank	1.0	112.84226179122925	0.9918045997619629
14	96.63940906524658	pulse	0	t		12.0	2.5	blank	1.0	113.82586455345154	
14	96.64761090278625	movie	1		301	12.0	2.5	blank	1.0	113.83406639099121	2.5087320804595947
14	98.23989701271057	pulse	1	t		12.0	2.5	blank	1.0	115.42635250091553	
14	99.15634298324585	fix_post	2		12	12.0	2.5	blank	1.0	116.3427984714508	0.10001850128173828
15	99.25636148452759	fix_pre	0		120	13.0	2.5	/experiments/knapen_AOT/AOT_stimuli/rescaled_final/1619_fw.mp4	0.0	116.44281697273254	1.0085384845733643
15	99.8399567604065	pulse	0	t		13.0	2.5	/experiments/knapen_AOT/AOT_stimuli/rescaled_final/1619_fw.mp4	0.0	117.02641224861145	
15	100.26489996910095	movie	1		285	13.0	2.5	/experiments/knapen_AOT/AOT_stimuli/rescaled_final/1619_fw.mp4	0.0	117.45135545730591	2.491962432861328
15	101.44028759002686	pulse	1	t		13.0	2.5	/experiments/knapen_AOT/AOT_stimuli/rescaled_final/1619_fw.mp4	0.0	118.62674307823181	
15	102.75686240196228	fix_post	2		12	13.0	2.5	/experiments/knapen_AOT/AOT_stimuli/rescaled_final/1619_fw.mp4	0.0	119.94331789016724	0.10003900527954102
16	102.85690140724182	fix_pre	0		120	14.0	2.5	/experiments/knapen_AOT/AOT_stimuli/rescaled_final/0867_fw.mp4	0.0	120.04335689544678	1.0084984302520752
16	103.04047155380249	pulse	0	t		14.0	2.5	/experiments/knapen_AOT/AOT_stimuli/rescaled_final/0867_fw.mp4	0.0	120.22692704200745	
16	103.8653998374939	movie	1		265	14.0	2.5	/experiments/knapen_AOT/AOT_stimuli/rescaled_final/0867_fw.mp4	0.0	121.05185532569885	2.500432014465332
16	104.6386046409607	pulse	1	t		14.0	2.5	/experiments/knapen_AOT/AOT_stimuli/rescaled_final/0867_fw.mp4	0.0	121.82506012916565	
16	106.24057745933533	pulse	1	t		14.0	2.5	/experiments/knapen_AOT/AOT_stimuli/rescaled_final/0867_fw.mp4	0.0	123.42703294754028	
16	106.36583185195923	fix_post	2		11	14.0	2.5	/experiments/knapen_AOT/AOT_stimuli/rescaled_final/0867_fw.mp4	0.0	123.55228734016418	0.09162449836730957
17	106.45745635032654	fix_pre	0		120	15.0	2.5	/experiments/knapen_AOT/AOT_stimuli/rescaled_final/1834_fw.mp4	0.0	123.6439118385315	1.008500337600708
17	107.46595668792725	movie	1		273	15.0	2.5	/experiments/knapen_AOT/AOT_stimuli/rescaled_final/1834_fw.mp4	0.0	124.6524121761322	2.492002010345459
17	107.83943462371826	pulse	1	t		15.0	2.5	/experiments/knapen_AOT/AOT_stimuli/rescaled_final/1834_fw.mp4	0.0	125.02589011192322	
17	109.4393982887268	pulse	1	t		15.0	2.5	/experiments/knapen_AOT/AOT_stimuli/rescaled_final/1834_fw.mp4	0.0	126.62585377693176	
17	109.9579586982727	fix_post	2		12	15.0	2.5	/experiments/knapen_AOT/AOT_stimuli/rescaled_final/1834_fw.mp4	0.0	127.14441418647766	0.10001921653747559
18	110.05797791481018	fix_pre	0		119	16.0	2.5	/experiments/knapen_AOT/AOT_stimuli/rescaled_final/1334_rv.mp4	0.0	127.24443340301514	1.0001616477966309
18	111.04165935516357	pulse	0	t		16.0	2.5	/experiments/knapen_AOT/AOT_stimuli/rescaled_final/1334_rv.mp4	0.0	128.22811484336853	
18	111.05813956260681	movie	1		271	16.0	2.5	/experiments/knapen_AOT/AOT_stimuli/rescaled_final/1334_rv.mp4	0.0	128.24459505081177	2.5004451274871826
18	112.64001989364624	pulse	1	t		16.0	2.5	/experiments/knapen_AOT/AOT_stimuli/rescaled_final/1334_rv.mp4	0.0	129.8264753818512	
18	113.558584690094	fix_post	2		12	16.0	2.5	/experiments/knapen_AOT/AOT_stimuli/rescaled_final/1334_rv.mp4	0.0	130.74504017829895	0.09993815422058105
19	113.65852284431458	fix_pre	0		120	17.0	2.5	/experiments/knapen_AOT/AOT_stimuli/rescaled_final/0304_rv.mp4	0.0	130.84497833251953	1.0084900856018066
19	114.24207401275635	pulse	0	t		17.0	2.5	/experiments/knapen_AOT/AOT_stimuli/rescaled_final/0304_rv.mp4	0.0	131.4285295009613	
19	114.66701292991638	movie	1		272	17.0	2.5	/experiments/knapen_AOT/AOT_stimuli/rescaled_final/0304_rv.mp4	0.0	131.85346841812134	2.4920361042022705
19	115.84125518798828	pulse	1	t		17.0	2.5	/experiments/knapen_AOT/AOT_stimuli/rescaled_final/0304_rv.mp4	0.0	133.02771067619324	
19	117.15904903411865	fix_post	2		12	17.0	2.5	/experiments/knapen_AOT/AOT_stimuli/rescaled_final/0304_rv.mp4	0.0	134.3455045223236	0.10005640983581543
20	117.25910544395447	fix_pre	0		120	18.0	2.5	/experiments/knapen_AOT/AOT_stimuli/rescaled_final/1134_rv.mp4	0.0	134.44556093215942	1.0084567070007324
20	117.44271993637085	pulse	0	t		18.0	2.5	/experiments/knapen_AOT/AOT_stimuli/rescaled_final/1134_rv.mp4	0.0	134.6291754245758	
20	118.2675621509552	movie	1		292	18.0	2.5	/experiments/knapen_AOT/AOT_stimuli/rescaled_final/1134_rv.mp4	0.0	135.45401763916016	2.49202299118042
20	119.04078269004822	pulse	1	t		18.0	2.5	/experiments/knapen_AOT/AOT_stimuli/rescaled_final/1134_rv.mp4	0.0	136.22723817825317	
20	120.64104580879211	pulse	1	t		18.0	2.5	/experiments/knapen_AOT/AOT_stimuli/rescaled_final/1134_rv.mp4	0.0	137.82750129699707	
20	120.75958514213562	fix_post	2		12	18.0	2.5	/experiments/knapen_AOT/AOT_stimuli/rescaled_final/1134_rv.mp4	0.0	137.94604063034058	0.1000516414642334
21	120.85963678359985	fix_pre	0		120	19.0	2.5	blank	1.0	138.0460922718048	1.000162124633789
21	121.85979890823364	movie	1		300	19.0	2.5	blank	1.0	139.0462543964386	2.500321388244629
21	122.2432930469513	pulse	1	t		19.0	2.5	blank	1.0	139.42974853515625	
21	123.8435447216034	pulse	1	t		19.0	2.5	blank	1.0	141.03000020980835	
21	124.36012029647827	fix_post	2		12	19.0	2.5	blank	1.0	141.54657578468323	0.10002875328063965
22	124.46014904975891	fix_pre	0		119	20.0	2.5	/experiments/knapen_AOT/AOT_stimuli/rescaled_final/1275_fw.mp4	0.0	141.64660453796387	1.000194787979126
22	125.4438316822052	pulse	0	t		20.0	2.5	/experiments/knapen_AOT/AOT_stimuli/rescaled_final/1275_fw.mp4	0.0	142.63028717041016	
22	125.46034383773804	movie	1		271	20.0	2.5	/experiments/knapen_AOT/AOT_stimuli/rescaled_final/1275_fw.mp4	0.0	142.646799325943	2.5003411769866943
22	127.04376411437988	pulse	1	t		20.0	2.5	/experiments/knapen_AOT/AOT_stimuli/rescaled_final/1275_fw.mp4	0.0	144.23021960258484	
22	127.96068501472473	fix_post	2		12	20.0	2.5	/experiments/knapen_AOT/AOT_stimuli/rescaled_final/1275_fw.mp4	0.0	145.1471405029297	0.1000204086303711
23	128.0607054233551	fix_pre	0		120	21.0	2.5	/experiments/knapen_AOT/AOT_stimuli/rescaled_final/0986_rv.mp4	0.0	145.24716091156006	1.0084681510925293
23	128.636638879776	pulse	0	t		21.0	2.5	/experiments/knapen_AOT/AOT_stimuli/rescaled_final/0986_rv.mp4	0.0	145.82309436798096	
23	129.06917357444763	movie	1		280	21.0	2.5	/experiments/knapen_AOT/AOT_stimuli/rescaled_final/0986_rv.mp4	0.0	146.2556290626526	2.4920451641082764
23	130.24304342269897	pulse	1	t		21.0	2.5	/experiments/knapen_AOT/AOT_stimuli/rescaled_final/0986_rv.mp4	0.0	147.42949891090393	
23	131.5612187385559	fix_post	2		12	21.0	2.5	/experiments/knapen_AOT/AOT_stimuli/rescaled_final/0986_rv.mp4	0.0	148.74767422676086	0.10002779960632324
24	131.66124653816223	fix_pre	0		120	22.0	2.5	/experiments/knapen_AOT/AOT_stimuli/rescaled_final/0741_rv.mp4	0.0	148.8477020263672	1.0084867477416992
24	131.8366401195526	pulse	0	t		22.0	2.5	/experiments/knapen_AOT/AOT_stimuli/rescaled_final/0741_rv.mp4	0.0	149.02309560775757	
24	132.66973328590393	movie	1		272	22.0	2.5	/experiments/knapen_AOT/AOT_stimuli/rescaled_final/0741_rv.mp4	0.0	149.8561887741089	2.4920339584350586
24	133.4366579055786	pulse	1	t		22.0	2.5	/experiments/knapen_AOT/AOT_stimuli/rescaled_final/0741_rv.mp4	0.0	150.62311339378357	
24	135.03695011138916	pulse	1	t		22.0	2.5	/experiments/knapen_AOT/AOT_stimuli/rescaled_final/0741_rv.mp4	0.0	152.22340559959412	
24	135.161767244339	fix_post	2		12	22.0	2.5	/experiments/knapen_AOT/AOT_stimuli/rescaled_final/0741_rv.mp4	0.0	152.34822273254395	0.10007309913635254
25	135.26184034347534	fix_pre	0		120	23.0	2.5	/experiments/knapen_AOT/AOT_stimuli/rescaled_final/0953_rv.mp4	0.0	152.4482958316803	1.0084075927734375
25	136.27024793624878	movie	1		275	23.0	2.5	/experiments/knapen_AOT/AOT_stimuli/rescaled_final/0953_rv.mp4	0.0	153.45670342445374	2.4920358657836914
25	136.63716101646423	pulse	1	t		23.0	2.5	/experiments/knapen_AOT/AOT_stimuli/rescaled_final/0953_rv.mp4	0.0	153.8236165046692	
25	138.2374460697174	pulse	1	t		23.0	2.5	/experiments/knapen_AOT/AOT_stimuli/rescaled_final/0953_rv.mp4	0.0	155.42390155792236	
25	138.76228380203247	fix_post	2		12	23.0	2.5	/experiments/knapen_AOT/AOT_stimuli/rescaled_final/0953_rv.mp4	0.0	155.94873929023743	0.10001993179321289
26	138.86230373382568	fix_pre	0		118	24.0	2.5	/experiments/knapen_AOT/AOT_stimuli/rescaled_final/0173_fw.mp4	0.0	156.04875922203064	0.9918196201324463
26	139.83760285377502	pulse	0	t		24.0	2.5	/experiments/knapen_AOT/AOT_stimuli/rescaled_final/0173_fw.mp4	0.0	157.02405834197998	
26	139.85412335395813	movie	1		269	24.0	2.5	/experiments/knapen_AOT/AOT_stimuli/rescaled_final/0173_fw.mp4	0.0	157.0405788421631	2.5003573894500732
26	141.43860960006714	pulse	1	t		24.0	2.5	/experiments/knapen_AOT/AOT_stimuli/rescaled_final/0173_fw.mp4	0.0	158.6250650882721	
26	142.3544807434082	fix_post	2		12	24.0	2.5	/experiments/knapen_AOT/AOT_stimuli/rescaled_final/0173_fw.mp4	0.0	159.54093623161316	0.10002684593200684
27	142.4545075893402	fix_pre	0		120	25.0	2.5	/experiments/knapen_AOT/AOT_stimuli/rescaled_final/1512_rv.mp4	0.0	159.64096307754517	1.0085077285766602
27	143.03806567192078	pulse	0	t		25.0	2.5	/experiments/knapen_AOT/AOT_stimuli/rescaled_final/1512_rv.mp4	0.0	160.22452116012573	
27	143.46301531791687	movie	1		279	25.0	2.5	/experiments/knapen_AOT/AOT_stimuli/rescaled_final/1512_rv.mp4	0.0	160.64947080612183	2.4920973777770996
27	144.63671231269836	pulse	1	t		25.0	2.5	/experiments/knapen_AOT/AOT_stimuli/rescaled_final/1512_rv.mp4	0.0	161.82316780090332	
27	145.95511269569397	fix_post	2		12	25.0	2.5	/experiments/knapen_AOT/AOT_stimuli/rescaled_final/1512_rv.mp4	0.0	163.14156818389893	0.1000056266784668
28	146.05511832237244	fix_pre	0		120	26.0	2.5	/experiments/knapen_AOT/AOT_stimuli/rescaled_final/1895_rv.mp4	0.0	163.2415738105774	1.0084283351898193
28	146.2387707233429	pulse	0	t		26.0	2.5	/experiments/knapen_AOT/AOT_stimuli/rescaled_final/1895_rv.mp4	0.0	163.42522621154785	
28	147.06354665756226	movie	1		277	26.0	2.5	/experiments/knapen_AOT/AOT_stimuli/rescaled_final/1895_rv.mp4	0.0	164.2500021457672	2.4920222759246826
28	147.8369016647339	pulse	1	t		26.0	2.5	/experiments/knapen_AOT/AOT_stimuli/rescaled_final/1895_rv.mp4	0.0	165.02335715293884	
28	149.43918442726135	pulse	1	t		26.0	2.5	/experiments/knapen_AOT/AOT_stimuli/rescaled_final/1895_rv.mp4	0.0	166.6256399154663	
28	149.55556893348694	fix_post	2		12	26.0	2.5	/experiments/knapen_AOT/AOT_stimuli/rescaled_final/1895_rv.mp4	0.0	166.7420244216919	0.10008072853088379
29	149.65564966201782	fix_pre	0		120	27.0	2.5	blank	1.0	166.84210515022278	1.0001051425933838
29	150.6557548046112	movie	1		300	27.0	2.5	blank	1.0	167.84221029281616	2.5004100799560547
29	151.03933835029602	pulse	1	t		27.0	2.5	blank	1.0	168.22579383850098	
29	152.63958597183228	pulse	1	t		27.0	2.5	blank	1.0	169.82604146003723	
29	153.15616488456726	fix_post	2		12	27.0	2.5	blank	1.0	170.34262037277222	0.09998226165771484
30	153.25614714622498	fix_pre	0		119	28.0	2.5	/experiments/knapen_AOT/AOT_stimuli/rescaled_final/0595_rv.mp4	0.0	170.44260263442993	1.0086309909820557
30	154.23980474472046	pulse	0	t		28.0	2.5	/experiments/knapen_AOT/AOT_stimuli/rescaled_final/0595_rv.mp4	0.0	171.42626023292542	
30	154.26477813720703	movie	1		275	28.0	2.5	/experiments/knapen_AOT/AOT_stimuli/rescaled_final/0595_rv.mp4	0.0	171.451233625412	2.4918925762176514
30	155.83814191818237	pulse	1	t		28.0	2.5	/experiments/knapen_AOT/AOT_stimuli/rescaled_final/0595_rv.mp4	0.0	173.02459740638733	
30	156.75667071342468	fix_post	2		12	28.0	2.5	/experiments/knapen_AOT/AOT_stimuli/rescaled_final/0595_rv.mp4	0.0	173.94312620162964	0.09999775886535645
31	156.85666847229004	fix_pre	0		120	29.0	2.5	/experiments/knapen_AOT/AOT_stimuli/rescaled_final/1310_fw.mp4	0.0	174.043123960495	1.0084848403930664
31	157.44028854370117	pulse	0	t		29.0	2.5	/experiments/knapen_AOT/AOT_stimuli/rescaled_final/1310_fw.mp4	0.0	174.62674403190613	
31	157.8651533126831	movie	1		288	29.0	2.5	/experiments/knapen_AOT/AOT_stimuli/rescaled_final/1310_fw.mp4	0.0	175.05160880088806	2.492041826248169
31	159.0386462211609	pulse	1	t		29.0	2.5	/experiments/knapen_AOT/AOT_stimuli/rescaled_final/1310_fw.mp4	0.0	176.22510170936584	
31	160.35719513893127	fix_post	2		12	29.0	2.5	/experiments/knapen_AOT/AOT_stimuli/rescaled_final/1310_fw.mp4	0.0	177.54365062713623	0.10001945495605469
32	160.45721459388733	fix_pre	0		120	30.0	2.5	/experiments/knapen_AOT/AOT_stimuli/rescaled_final/0755_rv.mp4	0.0	177.64367008209229	1.0085053443908691
32	160.64073181152344	pulse	0	t		30.0	2.5	/experiments/knapen_AOT/AOT_stimuli/rescaled_final/0755_rv.mp4	0.0	177.8271872997284	
32	161.4657199382782	movie	1		268	30.0	2.5	/experiments/knapen_AOT/AOT_stimuli/rescaled_final/0755_rv.mp4	0.0	178.65217542648315	2.4920215606689453
32	162.23920154571533	pulse	1	t		30.0	2.5	/experiments/knapen_AOT/AOT_stimuli/rescaled_final/0755_rv.mp4	0.0	179.4256570339203	
32	163.84076523780823	pulse	1	t		30.0	2.5	/experiments/knapen_AOT/AOT_stimuli/rescaled_final/0755_rv.mp4	0.0	181.02722072601318	
32	163.95774149894714	fix_post	2		12	30.0	2.5	/experiments/knapen_AOT/AOT_stimuli/rescaled_final/0755_rv.mp4	0.0	181.1441969871521	0.10003781318664551
33	164.0577793121338	fix_pre	0		120	31.0	2.5	/experiments/knapen_AOT/AOT_stimuli/rescaled_final/0830_fw.mp4	0.0	181.24423480033875	1.0084617137908936
33	165.06624102592468	movie	1		253	31.0	2.5	/experiments/knapen_AOT/AOT_stimuli/rescaled_final/0830_fw.mp4	0.0	182.25269651412964	2.492032289505005
33	165.44075775146484	pulse	1	t		31.0	2.5	/experiments/knapen_AOT/AOT_stimuli/rescaled_final/0830_fw.mp4	0.0	182.6272132396698	
33	167.04043984413147	pulse	1	t		31.0	2.5	/experiments/knapen_AOT/AOT_stimuli/rescaled_final/0830_fw.mp4	0.0	184.22689533233643	
33	167.5582733154297	fix_post	2		12	31.0	2.5	/experiments/knapen_AOT/AOT_stimuli/rescaled_final/0830_fw.mp4	0.0	184.74472880363464	0.10016655921936035
34	167.65843987464905	fix_pre	0		119	32.0	2.5	/experiments/knapen_AOT/AOT_stimuli/rescaled_final/1615_rv.mp4	0.0	184.844895362854	1.0000817775726318
34	168.64201068878174	pulse	0	t		32.0	2.5	/experiments/knapen_AOT/AOT_stimuli/rescaled_final/1615_rv.mp4	0.0	185.8284661769867	
34	168.65852165222168	movie	1		275	32.0	2.5	/experiments/knapen_AOT/AOT_stimuli/rescaled_final/1615_rv.mp4	0.0	185.84497714042664	2.500296115875244
34	170.24133253097534	pulse	1	t		32.0	2.5	/experiments/knapen_AOT/AOT_stimuli/rescaled_final/1615_rv.mp4	0.0	187.4277880191803	
34	171.15881776809692	fix_post	2		12	32.0	2.5	/experiments/knapen_AOT/AOT_stimuli/rescaled_final/1615_rv.mp4	0.0	188.34527325630188	0.10001659393310547
35	171.25883436203003	fix_pre	0		120	33.0	2.5	/experiments/knapen_AOT/AOT_stimuli/rescaled_final/1767_rv.mp4	0.0	188.44528985023499	1.0084960460662842
35	171.84241223335266	pulse	0	t		33.0	2.5	/experiments/knapen_AOT/AOT_stimuli/rescaled_final/1767_rv.mp4	0.0	189.02886772155762	
35	172.2673304080963	movie	1		269	33.0	2.5	/experiments/knapen_AOT/AOT_stimuli/rescaled_final/1767_rv.mp4	0.0	189.45378589630127	2.4920382499694824
35	173.4404857158661	pulse	1	t		33.0	2.5	/experiments/knapen_AOT/AOT_stimuli/rescaled_final/1767_rv.mp4	0.0	190.62694120407104	
35	174.7593686580658	fix_post	2		12	33.0	2.5	/experiments/knapen_AOT/AOT_stimuli/rescaled_final/1767_rv.mp4	0.0	191.94582414627075	0.1000058650970459
36	174.85937452316284	fix_pre	0		120	34.0	2.5	/experiments/knapen_AOT/AOT_stimuli/rescaled_final/0895_fw.mp4	0.0	192.0458300113678	1.0085570812225342
36	175.0429880619049	pulse	0	t		34.0	2.5	/experiments/knapen_AOT/AOT_stimuli/rescaled_final/0895_fw.mp4	0.0	192.22944355010986	
36	175.86793160438538	movie	1		273	34.0	2.5	/experiments/knapen_AOT/AOT_stimuli/rescaled_final/0895_fw.mp4	0.0	193.05438709259033	2.492136240005493
36	176.64096307754517	pulse	1	t		34.0	2.5	/experiments/knapen_AOT/AOT_stimuli/rescaled_final/0895_fw.mp4	0.0	193.82741856575012	
36	178.24120664596558	pulse	1	t		34.0	2.5	/experiments/knapen_AOT/AOT_stimuli/rescaled_final/0895_fw.mp4	0.0	195.42766213417053	
36	178.36006784439087	fix_post	2		12	34.0	2.5	/experiments/knapen_AOT/AOT_stimuli/rescaled_final/0895_fw.mp4	0.0	195.54652333259583	0.09989428520202637
37	178.4599621295929	fix_pre	0		120	35.0	2.5	blank	1.0	195.64641761779785	1.0001046657562256
37	179.46006679534912	movie	1		300	35.0	2.5	blank	1.0	196.64652228355408	2.5003840923309326
37	179.84381771087646	pulse	1	t		35.0	2.5	blank	1.0	197.03027319908142	
37	181.43688249588013	pulse	1	t		35.0	2.5	blank	1.0	198.62333798408508	
37	181.96045088768005	fix_post	2		12	35.0	2.5	blank	1.0	199.146906375885	0.10005474090576172
38	182.06050562858582	fix_pre	0		118	36.0	2.5	/experiments/knapen_AOT/AOT_stimuli/rescaled_final/1067_rv.mp4	0.0	199.24696111679077	0.991783857345581
38	183.03612661361694	pulse	0	t		36.0	2.5	/experiments/knapen_AOT/AOT_stimuli/rescaled_final/1067_rv.mp4	0.0	200.2225821018219	
38	183.0522894859314	movie	1		280	36.0	2.5	/experiments/knapen_AOT/AOT_stimuli/rescaled_final/1067_rv.mp4	0.0	200.23874497413635	2.500412702560425
38	184.6445415019989	pulse	1	t		36.0	2.5	/experiments/knapen_AOT/AOT_stimuli/rescaled_final/1067_rv.mp4	0.0	201.83099699020386	
38	185.55270218849182	fix_post	2		12	36.0	2.5	/experiments/knapen_AOT/AOT_stimuli/rescaled_final/1067_rv.mp4	0.0	202.73915767669678	0.09999752044677734
39	185.6526997089386	fix_pre	0		120	37.0	2.5	/experiments/knapen_AOT/AOT_stimuli/rescaled_final/0775_fw.mp4	0.0	202.83915519714355	1.0084517002105713
39	186.236389875412	pulse	0	t		37.0	2.5	/experiments/knapen_AOT/AOT_stimuli/rescaled_final/0775_fw.mp4	0.0	203.42284536361694	
39	186.66115140914917	movie	1		278	37.0	2.5	/experiments/knapen_AOT/AOT_stimuli/rescaled_final/0775_fw.mp4	0.0	203.84760689735413	2.492035150527954
39	187.83643579483032	pulse	1	t		37.0	2.5	/experiments/knapen_AOT/AOT_stimuli/rescaled_final/0775_fw.mp4	0.0	205.02289128303528	
39	189.15318655967712	fix_post	2		12	37.0	2.5	/experiments/knapen_AOT/AOT_stimuli/rescaled_final/0775_fw.mp4	0.0	206.33964204788208	0.10002565383911133
40	189.25321221351624	fix_pre	0		120	38.0	2.5	/experiments/knapen_AOT/AOT_stimuli/rescaled_final/1836_fw.mp4	0.0	206.4396677017212	1.008514165878296
40	189.43694472312927	pulse	0	t		38.0	2.5	/experiments/knapen_AOT/AOT_stimuli/rescaled_final/1836_fw.mp4	0.0	206.62340021133423	
40	190.26172637939453	movie	1		272	38.0	2.5	/experiments/knapen_AOT/AOT_stimuli/rescaled_final/1836_fw.mp4	0.0	207.4481818675995	2.4920876026153564
40	191.03701210021973	pulse	1	t		38.0	2.5	/experiments/knapen_AOT/AOT_stimuli/rescaled_final/1836_fw.mp4	0.0	208.22346758842468	
40	192.63718366622925	pulse	1	t		38.0	2.5	/experiments/knapen_AOT/AOT_stimuli/rescaled_final/1836_fw.mp4	0.0	209.8236391544342	
40	192.7538139820099	fix_post	2		12	38.0	2.5	/experiments/knapen_AOT/AOT_stimuli/rescaled_final/1836_fw.mp4	0.0	209.94026947021484	0.09994769096374512
41	192.85376167297363	fix_pre	0		120	39.0	2.5	/experiments/knapen_AOT/AOT_stimuli/rescaled_final/2084_fw.mp4	0.0	210.0402171611786	1.0084741115570068
41	193.86223578453064	movie	1		274	39.0	2.5	/experiments/knapen_AOT/AOT_stimuli/rescaled_final/2084_fw.mp4	0.0	211.0486912727356	2.492084503173828
41	194.23745489120483	pulse	1	t		39.0	2.5	/experiments/knapen_AOT/AOT_stimuli/rescaled_final/2084_fw.mp4	0.0	211.4239103794098	
41	195.8376944065094	pulse	1	t		39.0	2.5	/experiments/knapen_AOT/AOT_stimuli/rescaled_final/2084_fw.mp4	0.0	213.02414989471436	
41	196.35432028770447	fix_post	2		12	39.0	2.5	/experiments/knapen_AOT/AOT_stimuli/rescaled_final/2084_fw.mp4	0.0	213.54077577590942	0.10000848770141602
42	196.45432877540588	fix_pre	0		119	40.0	2.5	/experiments/knapen_AOT/AOT_stimuli/rescaled_final/0002_fw.mp4	0.0	213.64078426361084	1.0001170635223389
42	197.43799686431885	pulse	0	t		40.0	2.5	/experiments/knapen_AOT/AOT_stimuli/rescaled_final/0002_fw.mp4	0.0	214.6244523525238	
42	197.45444583892822	movie	1		285	40.0	2.5	/experiments/knapen_AOT/AOT_stimuli/rescaled_final/0002_fw.mp4	0.0	214.64090132713318	2.508707046508789
42	199.0369439125061	pulse	1	t		40.0	2.5	/experiments/knapen_AOT/AOT_stimuli/rescaled_final/0002_fw.mp4	0.0	216.22339940071106	
42	199.963152885437	fix_post	2		11	40.0	2.5	/experiments/knapen_AOT/AOT_stimuli/rescaled_final/0002_fw.mp4	0.0	217.14960837364197	0.09168338775634766
43	200.05483627319336	fix_pre	0		120	41.0	2.5	/experiments/knapen_AOT/AOT_stimuli/rescaled_final/1334_rv.mp4	0.0	217.24129176139832	1.0085031986236572
43	200.63855051994324	pulse	0	t		41.0	2.5	/experiments/knapen_AOT/AOT_stimuli/rescaled_final/1334_rv.mp4	0.0	217.8250060081482	
43	201.06333947181702	movie	1		265	41.0	2.5	/experiments/knapen_AOT/AOT_stimuli/rescaled_final/1334_rv.mp4	0.0	218.24979496002197	2.4920337200164795
43	202.23687553405762	pulse	1	t		41.0	2.5	/experiments/knapen_AOT/AOT_stimuli/rescaled_final/1334_rv.mp4	0.0	219.42333102226257	
43	203.5553731918335	fix_post	2		12	41.0	2.5	/experiments/knapen_AOT/AOT_stimuli/rescaled_final/1334_rv.mp4	0.0	220.74182868003845	0.09999585151672363
44	203.65536904335022	fix_pre	0		120	42.0	2.5	blank	1.0	220.84182453155518	1.0001578330993652
44	203.83896946907043	pulse	0	t		42.0	2.5	blank	1.0	221.0254249572754	
44	204.65552687644958	movie	1		300	42.0	2.5	blank	1.0	221.84198236465454	2.5003724098205566
44	205.43920612335205	pulse	1	t		42.0	2.5	blank	1.0	222.625661611557	
44	207.0393271446228	pulse	1	t		42.0	2.5	blank	1.0	224.22578263282776	
44	207.15589928627014	fix_post	2		12	42.0	2.5	blank	1.0	224.3423547744751	0.10002517700195312
45	207.2559244632721	fix_pre	0		120	43.0	2.5	/experiments/knapen_AOT/AOT_stimuli/rescaled_final/1925_rv.mp4	0.0	224.44237995147705	1.0085046291351318
45	208.26442909240723	movie	1		280	43.0	2.5	/experiments/knapen_AOT/AOT_stimuli/rescaled_final/1925_rv.mp4	0.0	225.45088458061218	2.4920239448547363
45	208.63832020759583	pulse	1	t		43.0	2.5	/experiments/knapen_AOT/AOT_stimuli/rescaled_final/1925_rv.mp4	0.0	225.82477569580078	
45	210.23757600784302	pulse	1	t		43.0	2.5	/experiments/knapen_AOT/AOT_stimuli/rescaled_final/1925_rv.mp4	0.0	227.42403149604797	
45	210.75645303726196	fix_post	2		12	43.0	2.5	/experiments/knapen_AOT/AOT_stimuli/rescaled_final/1925_rv.mp4	0.0	227.94290852546692	0.09995889663696289
46	210.85641193389893	fix_pre	0		119	44.0	2.5	/experiments/knapen_AOT/AOT_stimuli/rescaled_final/1510_fw.mp4	0.0	228.04286742210388	1.0002272129058838
46	211.84011435508728	pulse	0	t		44.0	2.5	/experiments/knapen_AOT/AOT_stimuli/rescaled_final/1510_fw.mp4	0.0	229.02656984329224	
46	211.8566391468048	movie	1		279	44.0	2.5	/experiments/knapen_AOT/AOT_stimuli/rescaled_final/1510_fw.mp4	0.0	229.04309463500977	2.500335454940796
46	213.4411392211914	pulse	1	t		44.0	2.5	/experiments/knapen_AOT/AOT_stimuli/rescaled_final/1510_fw.mp4	0.0	230.62759470939636	
46	214.3569746017456	fix_post	2		12	44.0	2.5	/experiments/knapen_AOT/AOT_stimuli/rescaled_final/1510_fw.mp4	0.0	231.54343008995056	0.10010313987731934
47	214.45707774162292	fix_pre	0		120	45.0	2.5	/experiments/knapen_AOT/AOT_stimuli/rescaled_final/0986_fw.mp4	0.0	231.64353322982788	1.008427619934082
47	215.0408148765564	pulse	0	t		45.0	2.5	/experiments/knapen_AOT/AOT_stimuli/rescaled_final/0986_fw.mp4	0.0	232.22727036476135	
47	215.465505361557	movie	1		276	45.0	2.5	/experiments/knapen_AOT/AOT_stimuli/rescaled_final/0986_fw.mp4	0.0	232.65196084976196	2.4920053482055664
47	216.6392753124237	pulse	1	t		45.0	2.5	/experiments/knapen_AOT/AOT_stimuli/rescaled_final/0986_fw.mp4	0.0	233.82573080062866	
47	217.95751070976257	fix_post	2		12	45.0	2.5	/experiments/knapen_AOT/AOT_stimuli/rescaled_final/0986_fw.mp4	0.0	235.14396619796753	0.1000356674194336
48	218.057546377182	fix_pre	0		120	46.0	2.5	/experiments/knapen_AOT/AOT_stimuli/rescaled_final/1158_rv.mp4	0.0	235.24400186538696	1.0084855556488037
48	218.24107837677002	pulse	0	t		46.0	2.5	/experiments/knapen_AOT/AOT_stimuli/rescaled_final/1158_rv.mp4	0.0	235.42753386497498	
48	219.0660319328308	movie	1		276	46.0	2.5	/experiments/knapen_AOT/AOT_stimuli/rescaled_final/1158_rv.mp4	0.0	236.25248742103577	2.4920217990875244
48	219.83917546272278	pulse	1	t		46.0	2.5	/experiments/knapen_AOT/AOT_stimuli/rescaled_final/1158_rv.mp4	0.0	237.02563095092773	
48	221.43983054161072	pulse	1	t		46.0	2.5	/experiments/knapen_AOT/AOT_stimuli/rescaled_final/1158_rv.mp4	0.0	238.62628602981567	
48	221.55805373191833	fix_post	2		12	46.0	2.5	/experiments/knapen_AOT/AOT_stimuli/rescaled_final/1158_rv.mp4	0.0	238.7445092201233	0.10013461112976074
49	221.6581883430481	fix_pre	0		104	47.0	2.5	blank	1.0	238.84464383125305	1.0000426769256592
49	222.65823101997375	movie	1		300	47.0	2.5	blank	1.0	239.8446865081787	2.5004098415374756
49	223.0418779850006	pulse	1	t		47.0	2.5	blank	1.0	240.22833347320557	
49	224.64214301109314	pulse	1	t		47.0	2.5	blank	1.0	241.8285984992981	
49	225.15864086151123	fix_post	2		12	47.0	2.5	blank	1.0	242.3450963497162	0.09998226165771484
50	225.25862312316895	fix_pre	0		119	48.0	2.5	/experiments/knapen_AOT/AOT_stimuli/rescaled_final/0700_rv.mp4	0.0	242.4450786113739	1.0001749992370605
50	226.24233150482178	pulse	0	t		48.0	2.5	/experiments/knapen_AOT/AOT_stimuli/rescaled_final/0700_rv.mp4	0.0	243.42878699302673	
50	226.258798122406	movie	1		267	48.0	2.5	/experiments/knapen_AOT/AOT_stimuli/rescaled_final/0700_rv.mp4	0.0	243.44525361061096	2.5003490447998047
50	227.84098434448242	pulse	1	t		48.0	2.5	/experiments/knapen_AOT/AOT_stimuli/rescaled_final/0700_rv.mp4	0.0	245.02743983268738	
50	228.7591471672058	fix_post	2		12	48.0	2.5	/experiments/knapen_AOT/AOT_stimuli/rescaled_final/0700_rv.mp4	0.0	245.94560265541077	0.10002994537353516
51	228.85917711257935	fix_pre	0		120	49.0	2.5	/experiments/knapen_AOT/AOT_stimuli/rescaled_final/0426_fw.mp4	0.0	246.0456326007843	1.0085067749023438
51	229.4429669380188	pulse	0	t		49.0	2.5	/experiments/knapen_AOT/AOT_stimuli/rescaled_final/0426_fw.mp4	0.0	246.62942242622375	
51	229.8676838874817	movie	1		281	49.0	2.5	/experiments/knapen_AOT/AOT_stimuli/rescaled_final/0426_fw.mp4	0.0	247.05413937568665	2.4920058250427246
51	231.04107522964478	pulse	1	t		49.0	2.5	/experiments/knapen_AOT/AOT_stimuli/rescaled_final/0426_fw.mp4	0.0	248.22753071784973	
51	232.3596897125244	fix_post	2		12	49.0	2.5	/experiments/knapen_AOT/AOT_stimuli/rescaled_final/0426_fw.mp4	0.0	249.54614520072937	0.10004591941833496
52	232.45973563194275	fix_pre	0		120	50.0	2.5	/experiments/knapen_AOT/AOT_stimuli/rescaled_final/2062_fw.mp4	0.0	249.6461911201477	1.008538007736206
52	232.64348340034485	pulse	0	t		50.0	2.5	/experiments/knapen_AOT/AOT_stimuli/rescaled_final/2062_fw.mp4	0.0	249.8299388885498	
52	233.46827363967896	movie	1		284	50.0	2.5	/experiments/knapen_AOT/AOT_stimuli/rescaled_final/2062_fw.mp4	0.0	250.6547291278839	2.491981267929077
52	234.24154901504517	pulse	1	t		50.0	2.5	/experiments/knapen_AOT/AOT_stimuli/rescaled_final/2062_fw.mp4	0.0	251.42800450325012	
52	235.84173107147217	pulse	1	t		50.0	2.5	/experiments/knapen_AOT/AOT_stimuli/rescaled_final/2062_fw.mp4	0.0	253.02818655967712	
52	235.96025490760803	fix_post	2		12	50.0	2.5	/experiments/knapen_AOT/AOT_stimuli/rescaled_final/2062_fw.mp4	0.0	253.146710395813	0.09999608993530273
53	236.06025099754333	fix_pre	0		120	51.0	2.5	/experiments/knapen_AOT/AOT_stimuli/rescaled_final/1244_rv.mp4	0.0	253.2467064857483	1.0085210800170898
53	237.06877207756042	movie	1		278	51.0	2.5	/experiments/knapen_AOT/AOT_stimuli/rescaled_final/1244_rv.mp4	0.0	254.25522756576538	2.4920825958251953
53	237.44215297698975	pulse	1	t		51.0	2.5	/experiments/knapen_AOT/AOT_stimuli/rescaled_final/1244_rv.mp4	0.0	254.6286084651947	
53	239.04196858406067	pulse	1	t		51.0	2.5	/experiments/knapen_AOT/AOT_stimuli/rescaled_final/1244_rv.mp4	0.0	256.2284240722656	
53	239.56085467338562	fix_post	2		12	51.0	2.5	/experiments/knapen_AOT/AOT_stimuli/rescaled_final/1244_rv.mp4	0.0	256.7473101615906	0.09997868537902832
54	239.66083335876465	fix_pre	0		118	52.0	2.5	/experiments/knapen_AOT/AOT_stimuli/rescaled_final/0830_rv.mp4	0.0	256.8472888469696	0.9918620586395264
54	240.6364779472351	pulse	0	t		52.0	2.5	/experiments/knapen_AOT/AOT_stimuli/rescaled_final/0830_rv.mp4	0.0	257.82293343544006	
54	240.65269541740417	movie	1		293	52.0	2.5	/experiments/knapen_AOT/AOT_stimuli/rescaled_final/0830_rv.mp4	0.0	257.83915090560913	2.5003178119659424
54	242.23670315742493	pulse	1	t		52.0	2.5	/experiments/knapen_AOT/AOT_stimuli/rescaled_final/0830_rv.mp4	0.0	259.4231586456299	
54	243.15301322937012	fix_post	2		12	52.0	2.5	/experiments/knapen_AOT/AOT_stimuli/rescaled_final/0830_rv.mp4	0.0	260.3394687175751	0.09999823570251465
55	243.25301146507263	fix_pre	0		120	53.0	2.5	/experiments/knapen_AOT/AOT_stimuli/rescaled_final/0424_fw.mp4	0.0	260.4394669532776	1.0084812641143799
55	243.83668565750122	pulse	0	t		53.0	2.5	/experiments/knapen_AOT/AOT_stimuli/rescaled_final/0424_fw.mp4	0.0	261.0231411457062	
55	244.261492729187	movie	1		283	53.0	2.5	/experiments/knapen_AOT/AOT_stimuli/rescaled_final/0424_fw.mp4	0.0	261.44794821739197	2.492014169692993
55	245.43690824508667	pulse	1	t		53.0	2.5	/experiments/knapen_AOT/AOT_stimuli/rescaled_final/0424_fw.mp4	0.0	262.6233637332916	
55	246.75350689888	fix_post	2		12	53.0	2.5	/experiments/knapen_AOT/AOT_stimuli/rescaled_final/0424_fw.mp4	0.0	263.93996238708496	0.10008049011230469
56	246.8535873889923	fix_pre	0		120	54.0	2.5	/experiments/knapen_AOT/AOT_stimuli/rescaled_final/0183_rv.mp4	0.0	264.04004287719727	1.0084445476531982
56	247.03712582588196	pulse	0	t		54.0	2.5	/experiments/knapen_AOT/AOT_stimuli/rescaled_final/0183_rv.mp4	0.0	264.2235813140869	
56	247.8620319366455	movie	1		275	54.0	2.5	/experiments/knapen_AOT/AOT_stimuli/rescaled_final/0183_rv.mp4	0.0	265.04848742485046	2.4920384883880615
56	248.63768124580383	pulse	1	t		54.0	2.5	/experiments/knapen_AOT/AOT_stimuli/rescaled_final/0183_rv.mp4	0.0	265.8241367340088	
56	250.2376048564911	pulse	1	t		54.0	2.5	/experiments/knapen_AOT/AOT_stimuli/rescaled_final/0183_rv.mp4	0.0	267.42406034469604	
56	250.35407042503357	fix_post	2		12	54.0	2.5	/experiments/knapen_AOT/AOT_stimuli/rescaled_final/0183_rv.mp4	0.0	267.5405259132385	0.09999966621398926
57	250.45407009124756	fix_pre	0		120	55.0	2.5	/experiments/knapen_AOT/AOT_stimuli/rescaled_final/1492_rv.mp4	0.0	267.6405255794525	1.0084989070892334
57	251.4625689983368	movie	1		269	55.0	2.5	/experiments/knapen_AOT/AOT_stimuli/rescaled_final/1492_rv.mp4	0.0	268.64902448654175	2.492030143737793
57	251.83783674240112	pulse	1	t		55.0	2.5	/experiments/knapen_AOT/AOT_stimuli/rescaled_final/1492_rv.mp4	0.0	269.0242922306061	
57	253.4381811618805	pulse	1	t		55.0	2.5	/experiments/knapen_AOT/AOT_stimuli/rescaled_final/1492_rv.mp4	0.0	270.62463665008545	
57	253.95459914207458	fix_post	2		12	55.0	2.5	/experiments/knapen_AOT/AOT_stimuli/rescaled_final/1492_rv.mp4	0.0	271.14105463027954	0.1000216007232666
58	254.05462074279785	fix_pre	0		119	56.0	2.5	blank	1.0	271.2410762310028	0.99180006980896
58	255.03831458091736	pulse	0	t		56.0	2.5	blank	1.0	272.2247700691223	
58	255.0464208126068	movie	1		301	56.0	2.5	blank	1.0	272.23287630081177	2.5087361335754395
58	256.63870668411255	pulse	1	t		56.0	2.5	blank	1.0	273.8251621723175	
58	257.55515694618225	fix_post	2		12	56.0	2.5	blank	1.0	274.7416124343872	0.10001349449157715
59	257.6551704406738	fix_pre	0		120	57.0	2.5	/experiments/knapen_AOT/AOT_stimuli/rescaled_final/1990_fw.mp4	0.0	274.8416259288788	1.008481740951538
59	258.2388770580292	pulse	0	t		57.0	2.5	/experiments/knapen_AOT/AOT_stimuli/rescaled_final/1990_fw.mp4	0.0	275.42533254623413	
59	258.66365218162537	movie	1		278	57.0	2.5	/experiments/knapen_AOT/AOT_stimuli/rescaled_final/1990_fw.mp4	0.0	275.8501076698303	2.492177724838257
59	259.8371388912201	pulse	1	t		57.0	2.5	/experiments/knapen_AOT/AOT_stimuli/rescaled_final/1990_fw.mp4	0.0	277.02359437942505	
59	261.1558299064636	fix_post	2		12	57.0	2.5	/experiments/knapen_AOT/AOT_stimuli/rescaled_final/1990_fw.mp4	0.0	278.3422853946686	0.09990525245666504
60	261.2557351589203	fix_pre	0		120	58.0	2.5	/experiments/knapen_AOT/AOT_stimuli/rescaled_final/0020_rv.mp4	0.0	278.44219064712524	1.008476972579956
60	261.4392695426941	pulse	0	t		58.0	2.5	/experiments/knapen_AOT/AOT_stimuli/rescaled_final/0020_rv.mp4	0.0	278.62572503089905	
60	262.26421213150024	movie	1		278	58.0	2.5	/experiments/knapen_AOT/AOT_stimuli/rescaled_final/0020_rv.mp4	0.0	279.4506676197052	2.492034912109375
60	263.0372064113617	pulse	1	t		58.0	2.5	/experiments/knapen_AOT/AOT_stimuli/rescaled_final/0020_rv.mp4	0.0	280.22366189956665	
60	264.6377146244049	pulse	1	t		58.0	2.5	/experiments/knapen_AOT/AOT_stimuli/rescaled_final/0020_rv.mp4	0.0	281.82417011260986	
60	264.7562470436096	fix_post	2		12	58.0	2.5	/experiments/knapen_AOT/AOT_stimuli/rescaled_final/0020_rv.mp4	0.0	281.9427025318146	0.10001063346862793
61	264.85625767707825	fix_pre	0		120	59.0	2.5	/experiments/knapen_AOT/AOT_stimuli/rescaled_final/0305_rv.mp4	0.0	282.0427131652832	1.0085399150848389
61	265.8647975921631	movie	1		280	59.0	2.5	/experiments/knapen_AOT/AOT_stimuli/rescaled_final/0305_rv.mp4	0.0	283.05125308036804	2.491974353790283
61	266.2380657196045	pulse	1	t		59.0	2.5	/experiments/knapen_AOT/AOT_stimuli/rescaled_final/0305_rv.mp4	0.0	283.42452120780945	
61	267.8382143974304	pulse	1	t		59.0	2.5	/experiments/knapen_AOT/AOT_stimuli/rescaled_final/0305_rv.mp4	0.0	285.0246698856354	
61	268.35677194595337	fix_post	2		12	59.0	2.5	/experiments/knapen_AOT/AOT_stimuli/rescaled_final/0305_rv.mp4	0.0	285.5432274341583	0.1000664234161377
62	268.4568383693695	fix_pre	0		119	60.0	2.5	/experiments/knapen_AOT/AOT_stimuli/rescaled_final/1422_rv.mp4	0.0	285.64329385757446	1.0000817775726318
62	269.44047570228577	pulse	0	t		60.0	2.5	/experiments/knapen_AOT/AOT_stimuli/rescaled_final/1422_rv.mp4	0.0	286.6269311904907	
62	269.45692014694214	movie	1		280	60.0	2.5	/experiments/knapen_AOT/AOT_stimuli/rescaled_final/1422_rv.mp4	0.0	286.6433756351471	2.500425338745117
62	271.0390901565552	pulse	1	t		60.0	2.5	/experiments/knapen_AOT/AOT_stimuli/rescaled_final/1422_rv.mp4	0.0	288.22554564476013	
62	271.95734548568726	fix_post	2		12	60.0	2.5	/experiments/knapen_AOT/AOT_stimuli/rescaled_final/1422_rv.mp4	0.0	289.1438009738922	0.0999903678894043
63	272.05733585357666	fix_pre	0		120	61.0	2.5	/experiments/knapen_AOT/AOT_stimuli/rescaled_final/1642_fw.mp4	0.0	289.2437913417816	1.0084898471832275
63	272.6409316062927	pulse	0	t		61.0	2.5	/experiments/knapen_AOT/AOT_stimuli/rescaled_final/1642_fw.mp4	0.0	289.8273870944977	
63	273.0658257007599	movie	1		278	61.0	2.5	/experiments/knapen_AOT/AOT_stimuli/rescaled_final/1642_fw.mp4	0.0	290.25228118896484	2.492016077041626
63	274.2392222881317	pulse	1	t		61.0	2.5	/experiments/knapen_AOT/AOT_stimuli/rescaled_final/1642_fw.mp4	0.0	291.42567777633667	
63	275.5578417778015	fix_post	2		12	61.0	2.5	/experiments/knapen_AOT/AOT_stimuli/rescaled_final/1642_fw.mp4	0.0	292.74429726600647	0.1000509262084961
64	275.65789270401	fix_pre	0		120	62.0	2.5	blank	1.0	292.84434819221497	1.0001142024993896
64	275.841459274292	pulse	0	t		62.0	2.5	blank	1.0	293.02791476249695	
64	276.6580069065094	movie	1		300	62.0	2.5	blank	1.0	293.84446239471436	2.5003697872161865
64	277.4416654109955	pulse	1	t		62.0	2.5	blank	1.0	294.62812089920044	
64	279.0419454574585	pulse	1	t		62.0	2.5	blank	1.0	296.22840094566345	
64	279.1583766937256	fix_post	2		12	62.0	2.5	blank	1.0	296.34483218193054	0.1000373363494873
65	279.2584140300751	fix_pre	0		120	63.0	2.5	/experiments/knapen_AOT/AOT_stimuli/rescaled_final/1268_fw.mp4	0.0	296.44486951828003	1.0084717273712158
65	280.2668857574463	movie	1		288	63.0	2.5	/experiments/knapen_AOT/AOT_stimuli/rescaled_final/1268_fw.mp4	0.0	297.45334124565125	2.492022752761841
65	280.64076948165894	pulse	1	t		63.0	2.5	/experiments/knapen_AOT/AOT_stimuli/rescaled_final/1268_fw.mp4	0.0	297.8272249698639	
65	282.2405619621277	pulse	1	t		63.0	2.5	/experiments/knapen_AOT/AOT_stimuli/rescaled_final/1268_fw.mp4	0.0	299.42701745033264	
65	282.75890851020813	fix_post	2		12	63.0	2.5	/experiments/knapen_AOT/AOT_stimuli/rescaled_final/1268_fw.mp4	0.0	299.9453639984131	0.10003447532653809
66	282.85894298553467	fix_pre	0		119	64.0	2.5	/experiments/knapen_AOT/AOT_stimuli/rescaled_final/1696_rv.mp4	0.0	300.0453984737396	1.0001637935638428
66	283.84268522262573	pulse	0	t		64.0	2.5	/experiments/knapen_AOT/AOT_stimuli/rescaled_final/1696_rv.mp4	0.0	301.0291407108307	
66	283.8591067790985	movie	1		281	64.0	2.5	/experiments/knapen_AOT/AOT_stimuli/rescaled_final/1696_rv.mp4	0.0	301.04556226730347	2.5003790855407715
66	285.44134759902954	pulse	1	t		64.0	2.5	/experiments/knapen_AOT/AOT_stimuli/rescaled_final/1696_rv.mp4	0.0	302.6278030872345	
66	286.3594858646393	fix_post	2		12	64.0	2.5	/experiments/knapen_AOT/AOT_stimuli/rescaled_final/1696_rv.mp4	0.0	303.54594135284424	0.10002684593200684
67	286.4595127105713	fix_pre	0		120	65.0	2.5	/experiments/knapen_AOT/AOT_stimuli/rescaled_final/0755_fw.mp4	0.0	303.64596819877625	1.0085313320159912
67	287.0431098937988	pulse	0	t		65.0	2.5	/experiments/knapen_AOT/AOT_stimuli/rescaled_final/0755_fw.mp4	0.0	304.2295653820038	
67	287.4680440425873	movie	1		275	65.0	2.5	/experiments/knapen_AOT/AOT_stimuli/rescaled_final/0755_fw.mp4	0.0	304.65449953079224	2.4919650554656982
67	288.6412501335144	pulse	1	t		65.0	2.5	/experiments/knapen_AOT/AOT_stimuli/rescaled_final/0755_fw.mp4	0.0	305.82770562171936	
67	289.960009098053	fix_post	2		12	65.0	2.5	/experiments/knapen_AOT/AOT_stimuli/rescaled_final/0755_fw.mp4	0.0	307.14646458625793	0.1000218391418457
68	290.0600309371948	fix_pre	0		120	66.0	2.5	/experiments/knapen_AOT/AOT_stimuli/rescaled_final/0317_rv.mp4	0.0	307.2464864253998	1.0085034370422363
68	290.243586063385	pulse	0	t		66.0	2.5	/experiments/knapen_AOT/AOT_stimuli/rescaled_final/0317_rv.mp4	0.0	307.43004155158997	
68	291.06853437423706	movie	1		264	66.0	2.5	/experiments/knapen_AOT/AOT_stimuli/rescaled_final/0317_rv.mp4	0.0	308.254989862442	2.4920105934143066
68	291.84183716773987	pulse	1	t		66.0	2.5	/experiments/knapen_AOT/AOT_stimuli/rescaled_final/0317_rv.mp4	0.0	309.0282926559448	
68	293.44194889068604	pulse	1	t		66.0	2.5	/experiments/knapen_AOT/AOT_stimuli/rescaled_final/0317_rv.mp4	0.0	310.628404378891	
68	293.56054496765137	fix_post	2		12	66.0	2.5	/experiments/knapen_AOT/AOT_stimuli/rescaled_final/0317_rv.mp4	0.0	310.7470004558563	0.10004281997680664
69	293.6605877876282	fix_pre	0		120	67.0	2.5	/experiments/knapen_AOT/AOT_stimuli/rescaled_final/1000_rv.mp4	0.0	310.84704327583313	1.0085535049438477
69	294.669141292572	movie	1		276	67.0	2.5	/experiments/knapen_AOT/AOT_stimuli/rescaled_final/1000_rv.mp4	0.0	311.855596780777	2.49194598197937
69	295.0440311431885	pulse	1	t		67.0	2.5	/experiments/knapen_AOT/AOT_stimuli/rescaled_final/1000_rv.mp4	0.0	312.23048663139343	
69	296.6428191661835	pulse	1	t		67.0	2.5	/experiments/knapen_AOT/AOT_stimuli/rescaled_final/1000_rv.mp4	0.0	313.8292746543884	
69	297.1610872745514	fix_post	2		12	67.0	2.5	/experiments/knapen_AOT/AOT_stimuli/rescaled_final/1000_rv.mp4	0.0	314.34754276275635	0.10001325607299805
70	297.2611005306244	fix_pre	0		119	68.0	2.5	blank	1.0	314.44755601882935	0.9918198585510254
70	298.23703813552856	pulse	0	t		68.0	2.5	blank	1.0	315.4234936237335	
70	298.2529203891754	movie	1		301	68.0	2.5	blank	1.0	315.43937587738037	2.5087051391601562
70	299.8369572162628	pulse	1	t		68.0	2.5	blank	1.0	317.0234127044678	
70	300.76162552833557	fix_post	2		12	68.0	2.5	blank	1.0	317.9480810165405	0.10004401206970215
71	300.8616695404053	fix_pre	0		120	69.0	2.5	/experiments/knapen_AOT/AOT_stimuli/rescaled_final/0578_fw.mp4	0.0	318.04812502861023	1.0084731578826904
71	301.43700885772705	pulse	0	t		69.0	2.5	/experiments/knapen_AOT/AOT_stimuli/rescaled_final/0578_fw.mp4	0.0	318.623464345932	
71	301.87014269828796	movie	1		277	69.0	2.5	/experiments/knapen_AOT/AOT_stimuli/rescaled_final/0578_fw.mp4	0.0	319.0565981864929	2.4920153617858887
71	303.04656887054443	pulse	1	t		69.0	2.5	/experiments/knapen_AOT/AOT_stimuli/rescaled_final/0578_fw.mp4	0.0	320.2330243587494	
71	304.36215806007385	fix_post	2		12	69.0	2.5	/experiments/knapen_AOT/AOT_stimuli/rescaled_final/0578_fw.mp4	0.0	321.5486135482788	0.10001683235168457
72	304.46217489242554	fix_pre	0		120	70.0	2.5	/experiments/knapen_AOT/AOT_stimuli/rescaled_final/2109_rv.mp4	0.0	321.6486303806305	1.0085334777832031
72	304.63741278648376	pulse	0	t		70.0	2.5	/experiments/knapen_AOT/AOT_stimuli/rescaled_final/2109_rv.mp4	0.0	321.8238682746887	
72	305.47070837020874	movie	1		285	70.0	2.5	/experiments/knapen_AOT/AOT_stimuli/rescaled_final/2109_rv.mp4	0.0	322.6571638584137	2.4920639991760254
72	306.23776388168335	pulse	1	t		70.0	2.5	/experiments/knapen_AOT/AOT_stimuli/rescaled_final/2109_rv.mp4	0.0	323.4242193698883	
72	307.837858915329	pulse	1	t		70.0	2.5	/experiments/knapen_AOT/AOT_stimuli/rescaled_final/2109_rv.mp4	0.0	325.02431440353394	
72	307.96277236938477	fix_post	2		12	70.0	2.5	/experiments/knapen_AOT/AOT_stimuli/rescaled_final/2109_rv.mp4	0.0	325.1492278575897	0.10002422332763672
73	308.0627965927124	fix_pre	0		120	71.0	2.5	/experiments/knapen_AOT/AOT_stimuli/rescaled_final/0184_rv.mp4	0.0	325.24925208091736	1.0084359645843506
73	309.07123255729675	movie	1		280	71.0	2.5	/experiments/knapen_AOT/AOT_stimuli/rescaled_final/0184_rv.mp4	0.0	326.2576880455017	2.492016553878784
73	309.4378900527954	pulse	1	t		71.0	2.5	/experiments/knapen_AOT/AOT_stimuli/rescaled_final/0184_rv.mp4	0.0	326.62434554100037	
73	311.03844237327576	pulse	1	t		71.0	2.5	/experiments/knapen_AOT/AOT_stimuli/rescaled_final/0184_rv.mp4	0.0	328.2248978614807	
73	311.56324911117554	fix_post	2		12	71.0	2.5	/experiments/knapen_AOT/AOT_stimuli/rescaled_final/0184_rv.mp4	0.0	328.7497045993805	0.10001158714294434
74	311.6632606983185	fix_pre	0		118	72.0	2.5	/experiments/knapen_AOT/AOT_stimuli/rescaled_final/1009_rv.mp4	0.0	328.84971618652344	0.9918699264526367
74	312.63872385025024	pulse	0	t		72.0	2.5	/experiments/knapen_AOT/AOT_stimuli/rescaled_final/1009_rv.mp4	0.0	329.8251793384552	
74	312.6551306247711	movie	1		280	72.0	2.5	/experiments/knapen_AOT/AOT_stimuli/rescaled_final/1009_rv.mp4	0.0	329.8415861129761	2.5003342628479004
74	314.23725867271423	pulse	1	t		72.0	2.5	/experiments/knapen_AOT/AOT_stimuli/rescaled_final/1009_rv.mp4	0.0	331.4237141609192	
74	315.155464887619	fix_post	2		12	72.0	2.5	/experiments/knapen_AOT/AOT_stimuli/rescaled_final/1009_rv.mp4	0.0	332.341920375824	0.10002613067626953
75	315.2554910182953	fix_pre	0		120	73.0	2.5	/experiments/knapen_AOT/AOT_stimuli/rescaled_final/1452_rv.mp4	0.0	332.44194650650024	1.0085225105285645
75	315.8391966819763	pulse	0	t		73.0	2.5	/experiments/knapen_AOT/AOT_stimuli/rescaled_final/1452_rv.mp4	0.0	333.0256521701813	
75	316.26401352882385	movie	1		279	73.0	2.5	/experiments/knapen_AOT/AOT_stimuli/rescaled_final/1452_rv.mp4	0.0	333.4504690170288	2.4920480251312256
75	317.4394075870514	pulse	1	t		73.0	2.5	/experiments/knapen_AOT/AOT_stimuli/rescaled_final/1452_rv.mp4	0.0	334.62586307525635	
75	318.7560615539551	fix_post	2		12	73.0	2.5	/experiments/knapen_AOT/AOT_stimuli/rescaled_final/1452_rv.mp4	0.0	335.94251704216003	0.09996366500854492
76	318.8560252189636	fix_pre	0		120	74.0	2.5	/experiments/knapen_AOT/AOT_stimuli/rescaled_final/0625_rv.mp4	0.0	336.0424807071686	1.008481502532959
76	319.0396144390106	pulse	0	t		74.0	2.5	/experiments/knapen_AOT/AOT_stimuli/rescaled_final/0625_rv.mp4	0.0	336.2260699272156	
76	319.8645067214966	movie	1		259	74.0	2.5	/experiments/knapen_AOT/AOT_stimuli/rescaled_final/0625_rv.mp4	0.0	337.05096220970154	2.492048978805542
76	320.63902950286865	pulse	1	t		74.0	2.5	/experiments/knapen_AOT/AOT_stimuli/rescaled_final/0625_rv.mp4	0.0	337.8254849910736	
76	322.23837399482727	pulse	1	t		74.0	2.5	/experiments/knapen_AOT/AOT_stimuli/rescaled_final/0625_rv.mp4	0.0	339.4248294830322	
76	322.3565557003021	fix_post	2		12	74.0	2.5	/experiments/knapen_AOT/AOT_stimuli/rescaled_final/0625_rv.mp4	0.0	339.5430111885071	0.09998893737792969
77	322.45654463768005	fix_pre	0		120	75.0	2.5	/experiments/knapen_AOT/AOT_stimuli/rescaled_final/0138_fw.mp4	0.0	339.643000125885	1.0085093975067139
77	323.46505403518677	movie	1		271	75.0	2.5	/experiments/knapen_AOT/AOT_stimuli/rescaled_final/0138_fw.mp4	0.0	340.6515095233917	2.492030143737793
77	323.8414635658264	pulse	1	t		75.0	2.5	/experiments/knapen_AOT/AOT_stimuli/rescaled_final/0138_fw.mp4	0.0	341.0279190540314	
77	325.4391210079193	pulse	1	t		75.0	2.5	/experiments/knapen_AOT/AOT_stimuli/rescaled_final/0138_fw.mp4	0.0	342.62557649612427	
77	325.95708417892456	fix_post	2		12	75.0	2.5	/experiments/knapen_AOT/AOT_stimuli/rescaled_final/0138_fw.mp4	0.0	343.1435396671295	0.10002946853637695
78	326.05711364746094	fix_pre	0		119	76.0	2.5	blank	1.0	343.2435691356659	0.9917974472045898
78	327.0407783985138	pulse	0	t		76.0	2.5	blank	1.0	344.22723388671875	
78	327.0489110946655	movie	1		301	76.0	2.5	blank	1.0	344.2353665828705	2.508707046508789
78	328.6410620212555	pulse	1	t		76.0	2.5	blank	1.0	345.82751750946045	
78	329.5576181411743	fix_post	2		12	76.0	2.5	blank	1.0	346.7440736293793	0.10001993179321289
79	329.65763807296753	fix_pre	0		120	77.0	2.5	/experiments/knapen_AOT/AOT_stimuli/rescaled_final/0180_rv.mp4	0.0	346.8440935611725	1.0085241794586182
79	330.24139308929443	pulse	0	t		77.0	2.5	/experiments/knapen_AOT/AOT_stimuli/rescaled_final/0180_rv.mp4	0.0	347.4278485774994	
79	330.66616225242615	movie	1		281	77.0	2.5	/experiments/knapen_AOT/AOT_stimuli/rescaled_final/0180_rv.mp4	0.0	347.8526177406311	2.4920008182525635
79	331.8396940231323	pulse	1	t		77.0	2.5	/experiments/knapen_AOT/AOT_stimuli/rescaled_final/0180_rv.mp4	0.0	349.0261495113373	
79	333.1581630706787	fix_post	2		12	77.0	2.5	/experiments/knapen_AOT/AOT_stimuli/rescaled_final/0180_rv.mp4	0.0	350.34461855888367	0.10001707077026367
80	333.258180141449	fix_pre	0		120	78.0	2.5	/experiments/knapen_AOT/AOT_stimuli/rescaled_final/0595_fw.mp4	0.0	350.44463562965393	1.0084574222564697
80	333.4417989253998	pulse	0	t		78.0	2.5	/experiments/knapen_AOT/AOT_stimuli/rescaled_final/0595_fw.mp4	0.0	350.62825441360474	
80	334.26663756370544	movie	1		275	78.0	2.5	/experiments/knapen_AOT/AOT_stimuli/rescaled_final/0595_fw.mp4	0.0	351.4530930519104	2.492069959640503
80	335.03995656967163	pulse	1	t		78.0	2.5	/experiments/knapen_AOT/AOT_stimuli/rescaled_final/0595_fw.mp4	0.0	352.2264120578766	
80	336.6403920650482	pulse	1	t		78.0	2.5	/experiments/knapen_AOT/AOT_stimuli/rescaled_final/0595_fw.mp4	0.0	353.8268475532532	
80	336.75870752334595	fix_post	2		12	78.0	2.5	/experiments/knapen_AOT/AOT_stimuli/rescaled_final/0595_fw.mp4	0.0	353.9451630115509	0.10002946853637695
81	336.8587369918823	fix_pre	0		120	79.0	2.5	/experiments/knapen_AOT/AOT_stimuli/rescaled_final/0200_rv.mp4	0.0	354.0451924800873	1.0084812641143799
81	337.8672182559967	movie	1		279	79.0	2.5	/experiments/knapen_AOT/AOT_stimuli/rescaled_final/0200_rv.mp4	0.0	355.05367374420166	2.492032289505005
81	338.24095463752747	pulse	1	t		79.0	2.5	/experiments/knapen_AOT/AOT_stimuli/rescaled_final/0200_rv.mp4	0.0	355.4274101257324	
81	339.84040117263794	pulse	1	t		79.0	2.5	/experiments/knapen_AOT/AOT_stimuli/rescaled_final/0200_rv.mp4	0.0	357.0268566608429	
81	340.3592505455017	fix_post	2		12	79.0	2.5	/experiments/knapen_AOT/AOT_stimuli/rescaled_final/0200_rv.mp4	0.0	357.54570603370667	0.09999895095825195
82	340.45924949645996	fix_pre	0		119	80.0	2.5	/experiments/knapen_AOT/AOT_stimuli/rescaled_final/1705_rv.mp4	0.0	357.6457049846649	1.0085928440093994
82	341.4430139064789	pulse	0	t		80.0	2.5	/experiments/knapen_AOT/AOT_stimuli/rescaled_final/1705_rv.mp4	0.0	358.62946939468384	
82	341.46784234046936	movie	1		284	80.0	2.5	/experiments/knapen_AOT/AOT_stimuli/rescaled_final/1705_rv.mp4	0.0	358.6542978286743	2.4919631481170654
82	343.0413978099823	pulse	1	t		80.0	2.5	/experiments/knapen_AOT/AOT_stimuli/rescaled_final/1705_rv.mp4	0.0	360.22785329818726	
82	343.9598054885864	fix_post	2		12	80.0	2.5	/experiments/knapen_AOT/AOT_stimuli/rescaled_final/1705_rv.mp4	0.0	361.1462609767914	0.10004234313964844
83	344.0598478317261	fix_pre	0		120	81.0	2.5	/experiments/knapen_AOT/AOT_stimuli/rescaled_final/1646_rv.mp4	0.0	361.24630331993103	1.0084877014160156
83	344.64359164237976	pulse	0	t		81.0	2.5	/experiments/knapen_AOT/AOT_stimuli/rescaled_final/1646_rv.mp4	0.0	361.8300471305847	
83	345.0683355331421	movie	1		283	81.0	2.5	/experiments/knapen_AOT/AOT_stimuli/rescaled_final/1646_rv.mp4	0.0	362.25479102134705	2.4920341968536377
83	346.24193596839905	pulse	1	t		81.0	2.5	/experiments/knapen_AOT/AOT_stimuli/rescaled_final/1646_rv.mp4	0.0	363.428391456604	
83	347.5603697299957	fix_post	2		12	81.0	2.5	/experiments/knapen_AOT/AOT_stimuli/rescaled_final/1646_rv.mp4	0.0	364.7468252182007	0.10002470016479492
84	347.6603944301605	fix_pre	0		120	82.0	2.5	blank	1.0	364.8468499183655	1.0000908374786377
84	347.84393978118896	pulse	0	t		82.0	2.5	blank	1.0	365.0303952693939	
84	348.66048526763916	movie	1		300	82.0	2.5	blank	1.0	365.8469407558441	2.5003929138183594
84	349.4442276954651	pulse	1	t		82.0	2.5	blank	1.0	366.63068318367004	
84	351.0364270210266	pulse	1	t		82.0	2.5	blank	1.0	368.22288250923157	
84	351.1608781814575	fix_post	2		12	82.0	2.5	blank	1.0	368.3473336696625	0.10000991821289062
85	351.2608880996704	fix_pre	0		120	83.0	2.5	/experiments/knapen_AOT/AOT_stimuli/rescaled_final/1569_rv.mp4	0.0	368.44734358787537	1.0084407329559326
85	352.26932883262634	movie	1		260	83.0	2.5	/experiments/knapen_AOT/AOT_stimuli/rescaled_final/1569_rv.mp4	0.0	369.4557843208313	2.4920859336853027
85	352.63655281066895	pulse	1	t		83.0	2.5	/experiments/knapen_AOT/AOT_stimuli/rescaled_final/1569_rv.mp4	0.0	369.8230082988739	
85	354.23652839660645	pulse	1	t		83.0	2.5	/experiments/knapen_AOT/AOT_stimuli/rescaled_final/1569_rv.mp4	0.0	371.4229838848114	
85	354.76141476631165	fix_post	2		12	83.0	2.5	/experiments/knapen_AOT/AOT_stimuli/rescaled_final/1569_rv.mp4	0.0	371.9478702545166	0.10001206398010254
87	354.86142683029175	stim	0		1716					372.0478823184967	14.30215334892273
87	355.836807012558	pulse	0	t						373.02326250076294	
87	357.43705439567566	pulse	0	t						374.6235098838806	
87	359.03730297088623	pulse	0	t						376.2237584590912	
87	360.63752484321594	pulse	0	t						377.8239803314209	
87	362.2377736568451	pulse	0	t						379.42422914505005	
87	363.8380274772644	pulse	0	t						381.02448296546936	
87	365.43820428848267	pulse	0	t						382.6246597766876	
87	367.0384223461151	pulse	0	t						384.22487783432007	
87	368.6387176513672	pulse	0	t						385.82517313957214	
