trial_nr	onset	event_type	phase	response	nr_frames	movie_index	movie_duration	movie_file	blank	onset_abs	duration
0	0.15814757347106934	stim	0		71					17.23054838180542	0.5915963649749756
0	0.7415468692779541	response	0	space						17.813947677612305	
1	0.7497439384460449	stim	0		4241					17.822144746780396	35.366708755493164
1	36.08660101890564	pulse	0	t						53.15900182723999	
1	36.11645269393921	stim	1		1715					53.18885350227356	14.29913592338562
1	37.68124198913574	pulse	1	t						54.75364279747009	
1	39.28097176551819	pulse	1	t						56.35337257385254	
1	40.88099551200867	pulse	1	t						57.95339632034302	
1	42.48127484321594	pulse	1	t						59.55367565155029	
1	44.08160710334778	pulse	1	t						61.15400791168213	
1	45.68173146247864	pulse	1	t						62.75413227081299	
1	47.28196740150452	pulse	1	t						64.35436820983887	
1	48.882219552993774	pulse	1	t						65.95462036132812	
2	50.41558861732483	fix_pre	0		9	0.0	2.5	/experiments/Knapen_AOT/AOT_stimuli/rescaled_final/0727_fw.mp4	0.0	67.48798942565918	0.09170985221862793
2	50.482545614242554	pulse	0	t		0.0	2.5	/experiments/Knapen_AOT/AOT_stimuli/rescaled_final/0727_fw.mp4	0.0	67.5549464225769	
2	50.50729846954346	movie	1		284	0.0	2.5	/experiments/Knapen_AOT/AOT_stimuli/rescaled_final/0727_fw.mp4	0.0	67.57969927787781	2.492006301879883
2	52.08099555969238	pulse	1	t		0.0	2.5	/experiments/Knapen_AOT/AOT_stimuli/rescaled_final/0727_fw.mp4	0.0	69.15339636802673	
2	52.99930477142334	fix_post	2		12	0.0	2.5	/experiments/Knapen_AOT/AOT_stimuli/rescaled_final/0727_fw.mp4	0.0	70.07170557975769	0.10001611709594727
3	53.09932088851929	fix_pre	0		120	1.0	2.5	/experiments/Knapen_AOT/AOT_stimuli/rescaled_final/1002_fw.mp4	0.0	70.17172169685364	1.0085086822509766
3	53.68318009376526	pulse	0	t		1.0	2.5	/experiments/Knapen_AOT/AOT_stimuli/rescaled_final/1002_fw.mp4	0.0	70.75558090209961	
3	54.107829570770264	movie	1		278	1.0	2.5	/experiments/Knapen_AOT/AOT_stimuli/rescaled_final/1002_fw.mp4	0.0	71.18023037910461	2.492016077041626
3	55.28204870223999	pulse	1	t		1.0	2.5	/experiments/Knapen_AOT/AOT_stimuli/rescaled_final/1002_fw.mp4	0.0	72.35444951057434	
3	56.59984564781189	fix_post	2		12	1.0	2.5	/experiments/Knapen_AOT/AOT_stimuli/rescaled_final/1002_fw.mp4	0.0	73.67224645614624	0.10010838508605957
4	56.69995403289795	fix_pre	0		120	2.0	2.5	/experiments/Knapen_AOT/AOT_stimuli/rescaled_final/0622_fw.mp4	0.0	73.7723548412323	1.0084669589996338
4	56.883434772491455	pulse	0	t		2.0	2.5	/experiments/Knapen_AOT/AOT_stimuli/rescaled_final/0622_fw.mp4	0.0	73.9558355808258	
4	57.70842099189758	movie	1		287	2.0	2.5	/experiments/Knapen_AOT/AOT_stimuli/rescaled_final/0622_fw.mp4	0.0	74.78082180023193	2.4919826984405518
4	58.48132085800171	pulse	1	t		2.0	2.5	/experiments/Knapen_AOT/AOT_stimuli/rescaled_final/0622_fw.mp4	0.0	75.55372166633606	
4	60.08195757865906	pulse	1	t		2.0	2.5	/experiments/Knapen_AOT/AOT_stimuli/rescaled_final/0622_fw.mp4	0.0	77.15435838699341	
4	60.200403690338135	fix_post	2		12	2.0	2.5	/experiments/Knapen_AOT/AOT_stimuli/rescaled_final/0622_fw.mp4	0.0	77.27280449867249	0.10001158714294434
5	60.30041527748108	fix_pre	0		120	3.0	2.5	/experiments/Knapen_AOT/AOT_stimuli/rescaled_final/1738_rv.mp4	0.0	77.37281608581543	1.0085031986236572
5	61.308918476104736	movie	1		277	3.0	2.5	/experiments/Knapen_AOT/AOT_stimuli/rescaled_final/1738_rv.mp4	0.0	78.38131928443909	2.492013454437256
5	61.682446241378784	pulse	1	t		3.0	2.5	/experiments/Knapen_AOT/AOT_stimuli/rescaled_final/1738_rv.mp4	0.0	78.75484704971313	
5	63.28238344192505	pulse	1	t		3.0	2.5	/experiments/Knapen_AOT/AOT_stimuli/rescaled_final/1738_rv.mp4	0.0	80.3547842502594	
5	63.80093193054199	fix_post	2		12	3.0	2.5	/experiments/Knapen_AOT/AOT_stimuli/rescaled_final/1738_rv.mp4	0.0	80.87333273887634	0.10005950927734375
6	63.900991439819336	fix_pre	0		119	4.0	2.5	/experiments/Knapen_AOT/AOT_stimuli/rescaled_final/1676_fw.mp4	0.0	80.97339224815369	1.000145435333252
6	64.88464498519897	pulse	0	t		4.0	2.5	/experiments/Knapen_AOT/AOT_stimuli/rescaled_final/1676_fw.mp4	0.0	81.95704579353333	
6	64.90113687515259	movie	1		284	4.0	2.5	/experiments/Knapen_AOT/AOT_stimuli/rescaled_final/1676_fw.mp4	0.0	81.97353768348694	2.5003552436828613
6	66.48459243774414	pulse	1	t		4.0	2.5	/experiments/Knapen_AOT/AOT_stimuli/rescaled_final/1676_fw.mp4	0.0	83.55699324607849	
6	67.40149211883545	fix_post	2		12	4.0	2.5	/experiments/Knapen_AOT/AOT_stimuli/rescaled_final/1676_fw.mp4	0.0	84.4738929271698	0.1000983715057373
7	67.50159049034119	fix_pre	0		120	5.0	2.5	blank	1.0	84.57399129867554	1.000061273574829
7	68.08518266677856	pulse	0	t		5.0	2.5	blank	1.0	85.15758347511292	
7	68.50165176391602	movie	1		300	5.0	2.5	blank	1.0	85.57405257225037	2.500369071960449
7	69.68544483184814	pulse	1	t		5.0	2.5	blank	1.0	86.7578456401825	
7	71.00202083587646	fix_post	2		12	5.0	2.5	blank	1.0	88.07442164421082	0.09999918937683105
8	71.1020200252533	fix_pre	0		120	6.0	2.5	/experiments/Knapen_AOT/AOT_stimuli/rescaled_final/1146_rv.mp4	0.0	88.17442083358765	1.0085113048553467
8	71.28564262390137	pulse	0	t		6.0	2.5	/experiments/Knapen_AOT/AOT_stimuli/rescaled_final/1146_rv.mp4	0.0	88.35804343223572	
8	72.11053133010864	movie	1		282	6.0	2.5	/experiments/Knapen_AOT/AOT_stimuli/rescaled_final/1146_rv.mp4	0.0	89.182932138443	2.492041826248169
8	72.88461399078369	pulse	1	t		6.0	2.5	/experiments/Knapen_AOT/AOT_stimuli/rescaled_final/1146_rv.mp4	0.0	89.95701479911804	
8	74.48404026031494	pulse	1	t		6.0	2.5	/experiments/Knapen_AOT/AOT_stimuli/rescaled_final/1146_rv.mp4	0.0	91.55644106864929	
8	74.60257315635681	fix_post	2		12	6.0	2.5	/experiments/Knapen_AOT/AOT_stimuli/rescaled_final/1146_rv.mp4	0.0	91.67497396469116	0.10001778602600098
9	74.70259094238281	fix_pre	0		120	7.0	2.5	/experiments/Knapen_AOT/AOT_stimuli/rescaled_final/0351_fw.mp4	0.0	91.77499175071716	1.0084917545318604
9	75.71108269691467	movie	1		284	7.0	2.5	/experiments/Knapen_AOT/AOT_stimuli/rescaled_final/0351_fw.mp4	0.0	92.78348350524902	2.492032289505005
9	76.08643245697021	pulse	1	t		7.0	2.5	/experiments/Knapen_AOT/AOT_stimuli/rescaled_final/0351_fw.mp4	0.0	93.15883326530457	
9	77.68470621109009	pulse	1	t		7.0	2.5	/experiments/Knapen_AOT/AOT_stimuli/rescaled_final/0351_fw.mp4	0.0	94.75710701942444	
9	78.20311498641968	fix_post	2		12	7.0	2.5	/experiments/Knapen_AOT/AOT_stimuli/rescaled_final/0351_fw.mp4	0.0	95.27551579475403	0.10002255439758301
10	78.30313754081726	fix_pre	0		119	8.0	2.5	/experiments/Knapen_AOT/AOT_stimuli/rescaled_final/1927_fw.mp4	0.0	95.37553834915161	1.0001118183135986
10	79.28680849075317	pulse	0	t		8.0	2.5	/experiments/Knapen_AOT/AOT_stimuli/rescaled_final/1927_fw.mp4	0.0	96.35920929908752	
10	79.30324935913086	movie	1		292	8.0	2.5	/experiments/Knapen_AOT/AOT_stimuli/rescaled_final/1927_fw.mp4	0.0	96.37565016746521	2.500399351119995
10	80.88581848144531	pulse	1	t		8.0	2.5	/experiments/Knapen_AOT/AOT_stimuli/rescaled_final/1927_fw.mp4	0.0	97.95821928977966	
10	81.80364871025085	fix_post	2		12	8.0	2.5	/experiments/Knapen_AOT/AOT_stimuli/rescaled_final/1927_fw.mp4	0.0	98.8760495185852	0.10005068778991699
11	81.90369939804077	fix_pre	0		120	9.0	2.5	/experiments/Knapen_AOT/AOT_stimuli/rescaled_final/0489_rv.mp4	0.0	98.97610020637512	1.0084595680236816
11	82.48769521713257	pulse	0	t		9.0	2.5	/experiments/Knapen_AOT/AOT_stimuli/rescaled_final/0489_rv.mp4	0.0	99.56009602546692	
11	82.91215896606445	movie	1		266	9.0	2.5	/experiments/Knapen_AOT/AOT_stimuli/rescaled_final/0489_rv.mp4	0.0	99.9845597743988	2.492021322250366
11	84.08908414840698	pulse	1	t		9.0	2.5	/experiments/Knapen_AOT/AOT_stimuli/rescaled_final/0489_rv.mp4	0.0	101.16148495674133	
11	85.40418028831482	fix_post	2		12	9.0	2.5	/experiments/Knapen_AOT/AOT_stimuli/rescaled_final/0489_rv.mp4	0.0	102.47658109664917	0.10001420974731445
12	85.50419449806213	fix_pre	0		120	10.0	2.5	/experiments/Knapen_AOT/AOT_stimuli/rescaled_final/1936_fw.mp4	0.0	102.57659530639648	1.0085318088531494
12	85.68064451217651	pulse	0	t		10.0	2.5	/experiments/Knapen_AOT/AOT_stimuli/rescaled_final/1936_fw.mp4	0.0	102.75304532051086	
12	86.51272630691528	movie	1		285	10.0	2.5	/experiments/Knapen_AOT/AOT_stimuli/rescaled_final/1936_fw.mp4	0.0	103.58512711524963	2.491997480392456
12	87.28606104850769	pulse	1	t		10.0	2.5	/experiments/Knapen_AOT/AOT_stimuli/rescaled_final/1936_fw.mp4	0.0	104.35846185684204	
12	88.88620448112488	pulse	1	t		10.0	2.5	/experiments/Knapen_AOT/AOT_stimuli/rescaled_final/1936_fw.mp4	0.0	105.95860528945923	
12	89.00472378730774	fix_post	2		12	10.0	2.5	/experiments/Knapen_AOT/AOT_stimuli/rescaled_final/1936_fw.mp4	0.0	106.07712459564209	0.10001873970031738
13	89.10474252700806	fix_pre	0		120	11.0	2.5	/experiments/Knapen_AOT/AOT_stimuli/rescaled_final/1570_fw.mp4	0.0	106.17714333534241	1.0085153579711914
13	90.11325788497925	movie	1		289	11.0	2.5	/experiments/Knapen_AOT/AOT_stimuli/rescaled_final/1570_fw.mp4	0.0	107.1856586933136	2.492023229598999
13	90.48031735420227	pulse	1	t		11.0	2.5	/experiments/Knapen_AOT/AOT_stimuli/rescaled_final/1570_fw.mp4	0.0	107.55271816253662	
13	92.0804488658905	pulse	1	t		11.0	2.5	/experiments/Knapen_AOT/AOT_stimuli/rescaled_final/1570_fw.mp4	0.0	109.15284967422485	
13	92.60528111457825	fix_post	2		12	11.0	2.5	/experiments/Knapen_AOT/AOT_stimuli/rescaled_final/1570_fw.mp4	0.0	109.6776819229126	0.10016584396362305
14	92.70544695854187	fix_pre	0		118	12.0	2.5	/experiments/Knapen_AOT/AOT_stimuli/rescaled_final/1310_fw.mp4	0.0	109.77784776687622	0.9916601181030273
14	93.6806492805481	pulse	0	t		12.0	2.5	/experiments/Knapen_AOT/AOT_stimuli/rescaled_final/1310_fw.mp4	0.0	110.75305008888245	
14	93.6971070766449	movie	1		294	12.0	2.5	/experiments/Knapen_AOT/AOT_stimuli/rescaled_final/1310_fw.mp4	0.0	110.76950788497925	2.500330686569214
14	95.28094053268433	pulse	1	t		12.0	2.5	/experiments/Knapen_AOT/AOT_stimuli/rescaled_final/1310_fw.mp4	0.0	112.35334134101868	
14	96.19743776321411	fix_post	2		12	12.0	2.5	/experiments/Knapen_AOT/AOT_stimuli/rescaled_final/1310_fw.mp4	0.0	113.26983857154846	0.10001277923583984
15	96.29745054244995	fix_pre	0		120	13.0	2.5	/experiments/Knapen_AOT/AOT_stimuli/rescaled_final/1418_fw.mp4	0.0	113.3698513507843	1.0001704692840576
15	96.88117527961731	pulse	0	t		13.0	2.5	/experiments/Knapen_AOT/AOT_stimuli/rescaled_final/1418_fw.mp4	0.0	113.95357608795166	
15	97.29762101173401	movie	1		294	13.0	2.5	/experiments/Knapen_AOT/AOT_stimuli/rescaled_final/1418_fw.mp4	0.0	114.37002182006836	2.5003645420074463
15	98.48134088516235	pulse	1	t		13.0	2.5	/experiments/Knapen_AOT/AOT_stimuli/rescaled_final/1418_fw.mp4	0.0	115.5537416934967	
15	99.79798555374146	fix_post	2		12	13.0	2.5	/experiments/Knapen_AOT/AOT_stimuli/rescaled_final/1418_fw.mp4	0.0	116.8703863620758	0.10001540184020996
16	99.89800095558167	fix_pre	0		120	14.0	2.5	blank	1.0	116.97040176391602	1.000133991241455
16	100.08154201507568	pulse	0	t		14.0	2.5	blank	1.0	117.15394282341003	
16	100.89813494682312	movie	1		300	14.0	2.5	blank	1.0	117.97053575515747	2.5004005432128906
16	101.68177938461304	pulse	1	t		14.0	2.5	blank	1.0	118.75418019294739	
16	103.28211855888367	pulse	1	t		14.0	2.5	blank	1.0	120.35451936721802	
16	103.39853549003601	fix_post	2		12	14.0	2.5	blank	1.0	120.47093629837036	0.10002684593200684
17	103.49856233596802	fix_pre	0		120	15.0	2.5	/experiments/Knapen_AOT/AOT_stimuli/rescaled_final/1343_fw.mp4	0.0	120.57096314430237	1.0085530281066895
17	104.5071153640747	movie	1		281	15.0	2.5	/experiments/Knapen_AOT/AOT_stimuli/rescaled_final/1343_fw.mp4	0.0	121.57951617240906	2.4919705390930176
17	104.88069081306458	pulse	1	t		15.0	2.5	/experiments/Knapen_AOT/AOT_stimuli/rescaled_final/1343_fw.mp4	0.0	121.95309162139893	
17	106.48067951202393	pulse	1	t		15.0	2.5	/experiments/Knapen_AOT/AOT_stimuli/rescaled_final/1343_fw.mp4	0.0	123.55308032035828	
17	106.99908590316772	fix_post	2		12	15.0	2.5	/experiments/Knapen_AOT/AOT_stimuli/rescaled_final/1343_fw.mp4	0.0	124.07148671150208	0.1000211238861084
18	107.09910702705383	fix_pre	0		119	16.0	2.5	/experiments/Knapen_AOT/AOT_stimuli/rescaled_final/0718_fw.mp4	0.0	124.17150783538818	1.0001652240753174
18	108.08281660079956	pulse	0	t		16.0	2.5	/experiments/Knapen_AOT/AOT_stimuli/rescaled_final/0718_fw.mp4	0.0	125.15521740913391	
18	108.09927225112915	movie	1		295	16.0	2.5	/experiments/Knapen_AOT/AOT_stimuli/rescaled_final/0718_fw.mp4	0.0	125.1716730594635	2.5003628730773926
18	109.68164086341858	pulse	1	t		16.0	2.5	/experiments/Knapen_AOT/AOT_stimuli/rescaled_final/0718_fw.mp4	0.0	126.75404167175293	
18	110.59963512420654	fix_post	2		12	16.0	2.5	/experiments/Knapen_AOT/AOT_stimuli/rescaled_final/0718_fw.mp4	0.0	127.6720359325409	0.10004734992980957
19	110.69968247413635	fix_pre	0		120	17.0	2.5	/experiments/Knapen_AOT/AOT_stimuli/rescaled_final/1841_fw.mp4	0.0	127.7720832824707	1.008493185043335
19	111.28333711624146	pulse	0	t		17.0	2.5	/experiments/Knapen_AOT/AOT_stimuli/rescaled_final/1841_fw.mp4	0.0	128.3557379245758	
19	111.70817565917969	movie	1		286	17.0	2.5	/experiments/Knapen_AOT/AOT_stimuli/rescaled_final/1841_fw.mp4	0.0	128.78057646751404	2.4920010566711426
19	112.88199424743652	pulse	1	t		17.0	2.5	/experiments/Knapen_AOT/AOT_stimuli/rescaled_final/1841_fw.mp4	0.0	129.95439505577087	
19	114.20017671585083	fix_post	2		12	17.0	2.5	/experiments/Knapen_AOT/AOT_stimuli/rescaled_final/1841_fw.mp4	0.0	131.27257752418518	0.10001516342163086
20	114.30019187927246	fix_pre	0		120	18.0	2.5	/experiments/Knapen_AOT/AOT_stimuli/rescaled_final/0659_fw.mp4	0.0	131.3725926876068	1.0085158348083496
20	114.4838194847107	pulse	0	t		18.0	2.5	/experiments/Knapen_AOT/AOT_stimuli/rescaled_final/0659_fw.mp4	0.0	131.55622029304504	
20	115.30870771408081	movie	1		281	18.0	2.5	/experiments/Knapen_AOT/AOT_stimuli/rescaled_final/0659_fw.mp4	0.0	132.38110852241516	2.4920589923858643
20	116.08201313018799	pulse	1	t		18.0	2.5	/experiments/Knapen_AOT/AOT_stimuli/rescaled_final/0659_fw.mp4	0.0	133.15441393852234	
20	117.68248105049133	pulse	1	t		18.0	2.5	/experiments/Knapen_AOT/AOT_stimuli/rescaled_final/0659_fw.mp4	0.0	134.75488185882568	
20	117.80076670646667	fix_post	2		12	18.0	2.5	/experiments/Knapen_AOT/AOT_stimuli/rescaled_final/0659_fw.mp4	0.0	134.87316751480103	0.09998679161071777
21	117.90075349807739	fix_pre	0		120	19.0	2.5	blank	1.0	134.97315430641174	1.0001952648162842
21	118.90094876289368	movie	1		300	19.0	2.5	blank	1.0	135.97334957122803	2.500309944152832
21	119.28453516960144	pulse	1	t		19.0	2.5	blank	1.0	136.3569359779358	
21	120.8846824169159	pulse	1	t		19.0	2.5	blank	1.0	137.95708322525024	
21	121.40125870704651	fix_post	2		12	19.0	2.5	blank	1.0	138.47365951538086	0.10004115104675293
22	121.50129985809326	fix_pre	0		119	20.0	2.5	/experiments/Knapen_AOT/AOT_stimuli/rescaled_final/1138_rv.mp4	0.0	138.5737006664276	1.0085203647613525
22	122.48498725891113	pulse	0	t		20.0	2.5	/experiments/Knapen_AOT/AOT_stimuli/rescaled_final/1138_rv.mp4	0.0	139.55738806724548	
22	122.50982022285461	movie	1		290	20.0	2.5	/experiments/Knapen_AOT/AOT_stimuli/rescaled_final/1138_rv.mp4	0.0	139.58222103118896	2.4919891357421875
22	124.08381152153015	pulse	1	t		20.0	2.5	/experiments/Knapen_AOT/AOT_stimuli/rescaled_final/1138_rv.mp4	0.0	141.1562123298645	
22	125.0018093585968	fix_post	2		12	20.0	2.5	/experiments/Knapen_AOT/AOT_stimuli/rescaled_final/1138_rv.mp4	0.0	142.07421016693115	0.10002350807189941
23	125.1018328666687	fix_pre	0		120	21.0	2.5	/experiments/Knapen_AOT/AOT_stimuli/rescaled_final/0238_fw.mp4	0.0	142.17423367500305	1.0084972381591797
23	125.68544673919678	pulse	0	t		21.0	2.5	/experiments/Knapen_AOT/AOT_stimuli/rescaled_final/0238_fw.mp4	0.0	142.75784754753113	
23	126.11033010482788	movie	1		285	21.0	2.5	/experiments/Knapen_AOT/AOT_stimuli/rescaled_final/0238_fw.mp4	0.0	143.18273091316223	2.492090940475464
23	127.28401851654053	pulse	1	t		21.0	2.5	/experiments/Knapen_AOT/AOT_stimuli/rescaled_final/0238_fw.mp4	0.0	144.35641932487488	
23	128.60242104530334	fix_post	2		12	21.0	2.5	/experiments/Knapen_AOT/AOT_stimuli/rescaled_final/0238_fw.mp4	0.0	145.6748218536377	0.09997987747192383
24	128.70240092277527	fix_pre	0		120	22.0	2.5	/experiments/Knapen_AOT/AOT_stimuli/rescaled_final/1029_fw.mp4	0.0	145.77480173110962	1.0084691047668457
24	128.8862590789795	pulse	0	t		22.0	2.5	/experiments/Knapen_AOT/AOT_stimuli/rescaled_final/1029_fw.mp4	0.0	145.95865988731384	
24	129.71087002754211	movie	1		273	22.0	2.5	/experiments/Knapen_AOT/AOT_stimuli/rescaled_final/1029_fw.mp4	0.0	146.78327083587646	2.49202299118042
24	130.48469996452332	pulse	1	t		22.0	2.5	/experiments/Knapen_AOT/AOT_stimuli/rescaled_final/1029_fw.mp4	0.0	147.55710077285767	
24	132.08439469337463	pulse	1	t		22.0	2.5	/experiments/Knapen_AOT/AOT_stimuli/rescaled_final/1029_fw.mp4	0.0	149.15679550170898	
24	132.20289301872253	fix_post	2		12	22.0	2.5	/experiments/Knapen_AOT/AOT_stimuli/rescaled_final/1029_fw.mp4	0.0	149.27529382705688	0.10004496574401855
25	132.30293798446655	fix_pre	0		120	23.0	2.5	/experiments/Knapen_AOT/AOT_stimuli/rescaled_final/1815_fw.mp4	0.0	149.3753387928009	1.0084784030914307
25	133.31141638755798	movie	1		284	23.0	2.5	/experiments/Knapen_AOT/AOT_stimuli/rescaled_final/1815_fw.mp4	0.0	150.38381719589233	2.4920315742492676
25	133.68501663208008	pulse	1	t		23.0	2.5	/experiments/Knapen_AOT/AOT_stimuli/rescaled_final/1815_fw.mp4	0.0	150.75741744041443	
25	135.28462886810303	pulse	1	t		23.0	2.5	/experiments/Knapen_AOT/AOT_stimuli/rescaled_final/1815_fw.mp4	0.0	152.35702967643738	
25	135.80344796180725	fix_post	2		12	23.0	2.5	/experiments/Knapen_AOT/AOT_stimuli/rescaled_final/1815_fw.mp4	0.0	152.8758487701416	0.10006189346313477
26	135.90350985527039	fix_pre	0		119	24.0	2.5	/experiments/Knapen_AOT/AOT_stimuli/rescaled_final/1072_fw.mp4	0.0	152.97591066360474	1.0085408687591553
26	136.88715243339539	pulse	0	t		24.0	2.5	/experiments/Knapen_AOT/AOT_stimuli/rescaled_final/1072_fw.mp4	0.0	153.95955324172974	
26	136.91205072402954	movie	1		283	24.0	2.5	/experiments/Knapen_AOT/AOT_stimuli/rescaled_final/1072_fw.mp4	0.0	153.9844515323639	2.491966485977173
26	138.48596715927124	pulse	1	t		24.0	2.5	/experiments/Knapen_AOT/AOT_stimuli/rescaled_final/1072_fw.mp4	0.0	155.5583679676056	
26	139.4040172100067	fix_post	2		12	24.0	2.5	/experiments/Knapen_AOT/AOT_stimuli/rescaled_final/1072_fw.mp4	0.0	156.47641801834106	0.1000370979309082
27	139.50405430793762	fix_pre	0		120	25.0	2.5	/experiments/Knapen_AOT/AOT_stimuli/rescaled_final/1793_rv.mp4	0.0	156.57645511627197	1.0084521770477295
27	140.08764624595642	pulse	0	t		25.0	2.5	/experiments/Knapen_AOT/AOT_stimuli/rescaled_final/1793_rv.mp4	0.0	157.16004705429077	
27	140.51250648498535	movie	1		285	25.0	2.5	/experiments/Knapen_AOT/AOT_stimuli/rescaled_final/1793_rv.mp4	0.0	157.5849072933197	2.4920127391815186
27	141.68591952323914	pulse	1	t		25.0	2.5	/experiments/Knapen_AOT/AOT_stimuli/rescaled_final/1793_rv.mp4	0.0	158.7583203315735	
27	143.00451922416687	fix_post	2		12	25.0	2.5	/experiments/Knapen_AOT/AOT_stimuli/rescaled_final/1793_rv.mp4	0.0	160.07692003250122	0.10001611709594727
28	143.10453534126282	fix_pre	0		120	26.0	2.5	/experiments/Knapen_AOT/AOT_stimuli/rescaled_final/1936_rv.mp4	0.0	160.17693614959717	1.0085220336914062
28	143.28114676475525	pulse	0	t		26.0	2.5	/experiments/Knapen_AOT/AOT_stimuli/rescaled_final/1936_rv.mp4	0.0	160.3535475730896	
28	144.11305737495422	movie	1		276	26.0	2.5	/experiments/Knapen_AOT/AOT_stimuli/rescaled_final/1936_rv.mp4	0.0	161.18545818328857	2.4920058250427246
28	144.88624119758606	pulse	1	t		26.0	2.5	/experiments/Knapen_AOT/AOT_stimuli/rescaled_final/1936_rv.mp4	0.0	161.9586420059204	
28	146.4866554737091	pulse	1	t		26.0	2.5	/experiments/Knapen_AOT/AOT_stimuli/rescaled_final/1936_rv.mp4	0.0	163.55905628204346	
28	146.60506319999695	fix_post	2		12	26.0	2.5	/experiments/Knapen_AOT/AOT_stimuli/rescaled_final/1936_rv.mp4	0.0	163.6774640083313	0.10007047653198242
29	146.70513367652893	fix_pre	0		120	27.0	2.5	blank	1.0	163.77753448486328	1.0001013278961182
29	147.70523500442505	movie	1		300	27.0	2.5	blank	1.0	164.7776358127594	2.500389337539673
29	148.08117270469666	pulse	1	t		27.0	2.5	blank	1.0	165.153573513031	
29	149.68094563484192	pulse	1	t		27.0	2.5	blank	1.0	166.75334644317627	
29	150.20562434196472	fix_post	2		12	27.0	2.5	blank	1.0	167.27802515029907	0.10017132759094238
30	150.30579566955566	fix_pre	0		118	28.0	2.5	/experiments/Knapen_AOT/AOT_stimuli/rescaled_final/2168_rv.mp4	0.0	167.37819647789001	0.9916799068450928
30	151.28096556663513	pulse	0	t		28.0	2.5	/experiments/Knapen_AOT/AOT_stimuli/rescaled_final/2168_rv.mp4	0.0	168.35336637496948	
30	151.29747557640076	movie	1		286	28.0	2.5	/experiments/Knapen_AOT/AOT_stimuli/rescaled_final/2168_rv.mp4	0.0	168.3698763847351	2.5003249645233154
30	152.8812985420227	pulse	1	t		28.0	2.5	/experiments/Knapen_AOT/AOT_stimuli/rescaled_final/2168_rv.mp4	0.0	169.95369935035706	
30	153.79780054092407	fix_post	2		12	28.0	2.5	/experiments/Knapen_AOT/AOT_stimuli/rescaled_final/2168_rv.mp4	0.0	170.87020134925842	0.10002470016479492
31	153.89782524108887	fix_pre	0		120	29.0	2.5	/experiments/Knapen_AOT/AOT_stimuli/rescaled_final/0295_fw.mp4	0.0	170.97022604942322	1.0084953308105469
31	154.48162579536438	pulse	0	t		29.0	2.5	/experiments/Knapen_AOT/AOT_stimuli/rescaled_final/0295_fw.mp4	0.0	171.55402660369873	
31	154.9063205718994	movie	1		287	29.0	2.5	/experiments/Knapen_AOT/AOT_stimuli/rescaled_final/0295_fw.mp4	0.0	171.97872138023376	2.492072105407715
31	156.08185124397278	pulse	1	t		29.0	2.5	/experiments/Knapen_AOT/AOT_stimuli/rescaled_final/0295_fw.mp4	0.0	173.15425205230713	
31	157.39839267730713	fix_post	2		12	29.0	2.5	/experiments/Knapen_AOT/AOT_stimuli/rescaled_final/0295_fw.mp4	0.0	174.47079348564148	0.10003113746643066
32	157.49842381477356	fix_pre	0		120	30.0	2.5	/experiments/Knapen_AOT/AOT_stimuli/rescaled_final/1581_fw.mp4	0.0	174.5708246231079	1.0084569454193115
32	157.6819770336151	pulse	0	t		30.0	2.5	/experiments/Knapen_AOT/AOT_stimuli/rescaled_final/1581_fw.mp4	0.0	174.75437784194946	
32	158.50688076019287	movie	1		283	30.0	2.5	/experiments/Knapen_AOT/AOT_stimuli/rescaled_final/1581_fw.mp4	0.0	175.57928156852722	2.4919872283935547
32	159.28233861923218	pulse	1	t		30.0	2.5	/experiments/Knapen_AOT/AOT_stimuli/rescaled_final/1581_fw.mp4	0.0	176.35473942756653	
32	160.88080525398254	pulse	1	t		30.0	2.5	/experiments/Knapen_AOT/AOT_stimuli/rescaled_final/1581_fw.mp4	0.0	177.9532060623169	
32	160.99886798858643	fix_post	2		12	30.0	2.5	/experiments/Knapen_AOT/AOT_stimuli/rescaled_final/1581_fw.mp4	0.0	178.07126879692078	0.10002946853637695
33	161.0988974571228	fix_pre	0		120	31.0	2.5	/experiments/Knapen_AOT/AOT_stimuli/rescaled_final/1581_rv.mp4	0.0	178.17129826545715	1.0085210800170898
33	162.1074185371399	movie	1		279	31.0	2.5	/experiments/Knapen_AOT/AOT_stimuli/rescaled_final/1581_rv.mp4	0.0	179.17981934547424	2.4920167922973633
33	162.48107957839966	pulse	1	t		31.0	2.5	/experiments/Knapen_AOT/AOT_stimuli/rescaled_final/1581_rv.mp4	0.0	179.553480386734	
33	164.08109974861145	pulse	1	t		31.0	2.5	/experiments/Knapen_AOT/AOT_stimuli/rescaled_final/1581_rv.mp4	0.0	181.1535005569458	
33	164.59943532943726	fix_post	2		12	31.0	2.5	/experiments/Knapen_AOT/AOT_stimuli/rescaled_final/1581_rv.mp4	0.0	181.6718361377716	0.10002994537353516
34	164.6994652748108	fix_pre	0		119	32.0	2.5	/experiments/Knapen_AOT/AOT_stimuli/rescaled_final/1272_rv.mp4	0.0	181.77186608314514	1.0001492500305176
34	165.6831841468811	pulse	0	t		32.0	2.5	/experiments/Knapen_AOT/AOT_stimuli/rescaled_final/1272_rv.mp4	0.0	182.75558495521545	
34	165.6996145248413	movie	1		287	32.0	2.5	/experiments/Knapen_AOT/AOT_stimuli/rescaled_final/1272_rv.mp4	0.0	182.77201533317566	2.5003623962402344
34	167.28209733963013	pulse	1	t		32.0	2.5	/experiments/Knapen_AOT/AOT_stimuli/rescaled_final/1272_rv.mp4	0.0	184.35449814796448	
34	168.19997692108154	fix_post	2		12	32.0	2.5	/experiments/Knapen_AOT/AOT_stimuli/rescaled_final/1272_rv.mp4	0.0	185.2723777294159	0.1000070571899414
35	168.29998397827148	fix_pre	0		120	33.0	2.5	/experiments/Knapen_AOT/AOT_stimuli/rescaled_final/1560_rv.mp4	0.0	185.37238478660583	1.0085830688476562
35	168.88369154930115	pulse	0	t		33.0	2.5	/experiments/Knapen_AOT/AOT_stimuli/rescaled_final/1560_rv.mp4	0.0	185.9560923576355	
35	169.30856704711914	movie	1		283	33.0	2.5	/experiments/Knapen_AOT/AOT_stimuli/rescaled_final/1560_rv.mp4	0.0	186.3809678554535	2.491966962814331
35	170.4822416305542	pulse	1	t		33.0	2.5	/experiments/Knapen_AOT/AOT_stimuli/rescaled_final/1560_rv.mp4	0.0	187.55464243888855	
35	171.80053400993347	fix_post	2		12	33.0	2.5	/experiments/Knapen_AOT/AOT_stimuli/rescaled_final/1560_rv.mp4	0.0	188.87293481826782	0.10012316703796387
36	171.90065717697144	fix_pre	0		120	34.0	2.5	blank	1.0	188.9730579853058	1.0000667572021484
36	172.08440923690796	pulse	0	t		34.0	2.5	blank	1.0	189.1568100452423	
36	172.90072393417358	movie	1		300	34.0	2.5	blank	1.0	189.97312474250793	2.500345468521118
36	173.68436694145203	pulse	1	t		34.0	2.5	blank	1.0	190.75676774978638	
36	175.28465843200684	pulse	1	t		34.0	2.5	blank	1.0	192.3570592403412	
36	175.4010694026947	fix_post	2		12	34.0	2.5	blank	1.0	192.47347021102905	0.1000208854675293
37	175.50109028816223	fix_pre	0		120	35.0	2.5	/experiments/Knapen_AOT/AOT_stimuli/rescaled_final/1044_fw.mp4	0.0	192.57349109649658	1.0084757804870605
37	176.5095660686493	movie	1		274	35.0	2.5	/experiments/Knapen_AOT/AOT_stimuli/rescaled_final/1044_fw.mp4	0.0	193.58196687698364	2.4920313358306885
37	176.88314366340637	pulse	1	t		35.0	2.5	/experiments/Knapen_AOT/AOT_stimuli/rescaled_final/1044_fw.mp4	0.0	193.95554447174072	
37	178.48328971862793	pulse	1	t		35.0	2.5	/experiments/Knapen_AOT/AOT_stimuli/rescaled_final/1044_fw.mp4	0.0	195.55569052696228	
37	179.00159740447998	fix_post	2		12	35.0	2.5	/experiments/Knapen_AOT/AOT_stimuli/rescaled_final/1044_fw.mp4	0.0	196.07399821281433	0.10010242462158203
38	179.10169982910156	fix_pre	0		119	36.0	2.5	/experiments/Knapen_AOT/AOT_stimuli/rescaled_final/0489_fw.mp4	0.0	196.1741006374359	1.0000710487365723
38	180.0853865146637	pulse	0	t		36.0	2.5	/experiments/Knapen_AOT/AOT_stimuli/rescaled_final/0489_fw.mp4	0.0	197.15778732299805	
38	180.10177087783813	movie	1		283	36.0	2.5	/experiments/Knapen_AOT/AOT_stimuli/rescaled_final/0489_fw.mp4	0.0	197.17417168617249	2.500412702560425
38	181.6839473247528	pulse	1	t		36.0	2.5	/experiments/Knapen_AOT/AOT_stimuli/rescaled_final/0489_fw.mp4	0.0	198.75634813308716	
38	182.60218358039856	fix_post	2		12	36.0	2.5	/experiments/Knapen_AOT/AOT_stimuli/rescaled_final/0489_fw.mp4	0.0	199.6745843887329	0.09999346733093262
39	182.7021770477295	fix_pre	0		120	37.0	2.5	/experiments/Knapen_AOT/AOT_stimuli/rescaled_final/1072_rv.mp4	0.0	199.77457785606384	1.0084829330444336
39	183.2857949733734	pulse	0	t		37.0	2.5	/experiments/Knapen_AOT/AOT_stimuli/rescaled_final/1072_rv.mp4	0.0	200.35819578170776	
39	183.71065998077393	movie	1		279	37.0	2.5	/experiments/Knapen_AOT/AOT_stimuli/rescaled_final/1072_rv.mp4	0.0	200.78306078910828	2.492142915725708
39	184.88613271713257	pulse	1	t		37.0	2.5	/experiments/Knapen_AOT/AOT_stimuli/rescaled_final/1072_rv.mp4	0.0	201.95853352546692	
39	186.20280289649963	fix_post	2		12	37.0	2.5	/experiments/Knapen_AOT/AOT_stimuli/rescaled_final/1072_rv.mp4	0.0	203.27520370483398	0.09995174407958984
40	186.30275464057922	fix_pre	0		120	38.0	2.5	/experiments/Knapen_AOT/AOT_stimuli/rescaled_final/0931_rv.mp4	0.0	203.37515544891357	1.0084712505340576
40	186.48626732826233	pulse	0	t		38.0	2.5	/experiments/Knapen_AOT/AOT_stimuli/rescaled_final/0931_rv.mp4	0.0	203.55866813659668	
40	187.31122589111328	movie	1		278	38.0	2.5	/experiments/Knapen_AOT/AOT_stimuli/rescaled_final/0931_rv.mp4	0.0	204.38362669944763	2.4920058250427246
40	188.08445477485657	pulse	1	t		38.0	2.5	/experiments/Knapen_AOT/AOT_stimuli/rescaled_final/0931_rv.mp4	0.0	205.15685558319092	
40	189.68572115898132	pulse	1	t		38.0	2.5	/experiments/Knapen_AOT/AOT_stimuli/rescaled_final/0931_rv.mp4	0.0	206.75812196731567	
40	189.803231716156	fix_post	2		12	38.0	2.5	/experiments/Knapen_AOT/AOT_stimuli/rescaled_final/0931_rv.mp4	0.0	206.87563252449036	0.10002350807189941
41	189.9032552242279	fix_pre	0		120	39.0	2.5	/experiments/Knapen_AOT/AOT_stimuli/rescaled_final/2139_rv.mp4	0.0	206.97565603256226	1.008467435836792
41	190.9117226600647	movie	1		273	39.0	2.5	/experiments/Knapen_AOT/AOT_stimuli/rescaled_final/2139_rv.mp4	0.0	207.98412346839905	2.4920716285705566
41	191.2859890460968	pulse	1	t		39.0	2.5	/experiments/Knapen_AOT/AOT_stimuli/rescaled_final/2139_rv.mp4	0.0	208.35838985443115	
41	192.88500499725342	pulse	1	t		39.0	2.5	/experiments/Knapen_AOT/AOT_stimuli/rescaled_final/2139_rv.mp4	0.0	209.95740580558777	
41	193.40379428863525	fix_post	2		12	39.0	2.5	/experiments/Knapen_AOT/AOT_stimuli/rescaled_final/2139_rv.mp4	0.0	210.4761950969696	0.10000944137573242
42	193.503803730011	fix_pre	0		119	40.0	2.5	/experiments/Knapen_AOT/AOT_stimuli/rescaled_final/0718_rv.mp4	0.0	210.57620453834534	1.0001497268676758
42	194.48763251304626	pulse	0	t		40.0	2.5	/experiments/Knapen_AOT/AOT_stimuli/rescaled_final/0718_rv.mp4	0.0	211.56003332138062	
42	194.50395345687866	movie	1		281	40.0	2.5	/experiments/Knapen_AOT/AOT_stimuli/rescaled_final/0718_rv.mp4	0.0	211.576354265213	2.5003511905670166
42	196.08751678466797	pulse	1	t		40.0	2.5	/experiments/Knapen_AOT/AOT_stimuli/rescaled_final/0718_rv.mp4	0.0	213.15991759300232	
42	197.00430464744568	fix_post	2		12	40.0	2.5	/experiments/Knapen_AOT/AOT_stimuli/rescaled_final/0718_rv.mp4	0.0	214.07670545578003	0.10004639625549316
43	197.10435104370117	fix_pre	0		120	41.0	2.5	/experiments/Knapen_AOT/AOT_stimuli/rescaled_final/0446_rv.mp4	0.0	214.17675185203552	1.0084664821624756
43	197.68821358680725	pulse	0	t		41.0	2.5	/experiments/Knapen_AOT/AOT_stimuli/rescaled_final/0446_rv.mp4	0.0	214.7606143951416	
43	198.11281752586365	movie	1		294	41.0	2.5	/experiments/Knapen_AOT/AOT_stimuli/rescaled_final/0446_rv.mp4	0.0	215.185218334198	2.4920010566711426
43	199.28631854057312	pulse	1	t		41.0	2.5	/experiments/Knapen_AOT/AOT_stimuli/rescaled_final/0446_rv.mp4	0.0	216.35871934890747	
43	200.6048185825348	fix_post	2		12	41.0	2.5	/experiments/Knapen_AOT/AOT_stimuli/rescaled_final/0446_rv.mp4	0.0	217.67721939086914	0.1000819206237793
44	200.70490050315857	fix_pre	0		120	42.0	2.5	blank	1.0	217.77730131149292	1.0001115798950195
44	200.8884460926056	pulse	0	t		42.0	2.5	blank	1.0	217.96084690093994	
44	201.7050120830536	movie	1		300	42.0	2.5	blank	1.0	218.77741289138794	2.5003573894500732
44	202.48861598968506	pulse	1	t		42.0	2.5	blank	1.0	219.5610167980194	
44	204.08930492401123	pulse	1	t		42.0	2.5	blank	1.0	221.16170573234558	
44	204.20536947250366	fix_post	2		12	42.0	2.5	blank	1.0	221.277770280838	0.10002803802490234
45	204.30539751052856	fix_pre	0		120	43.0	2.5	/experiments/Knapen_AOT/AOT_stimuli/rescaled_final/1914_rv.mp4	0.0	221.37779831886292	1.0001282691955566
45	205.30552577972412	movie	1		296	43.0	2.5	/experiments/Knapen_AOT/AOT_stimuli/rescaled_final/1914_rv.mp4	0.0	222.37792658805847	2.5004215240478516
45	205.6810004711151	pulse	1	t		43.0	2.5	/experiments/Knapen_AOT/AOT_stimuli/rescaled_final/1914_rv.mp4	0.0	222.75340127944946	
45	207.28103518486023	pulse	1	t		43.0	2.5	/experiments/Knapen_AOT/AOT_stimuli/rescaled_final/1914_rv.mp4	0.0	224.35343599319458	
45	207.80594730377197	fix_post	2		12	43.0	2.5	/experiments/Knapen_AOT/AOT_stimuli/rescaled_final/1914_rv.mp4	0.0	224.87834811210632	0.09998703002929688
46	207.90593433380127	fix_pre	0		118	44.0	2.5	/experiments/Knapen_AOT/AOT_stimuli/rescaled_final/1172_rv.mp4	0.0	224.97833514213562	0.9918386936187744
46	208.88129043579102	pulse	0	t		44.0	2.5	/experiments/Knapen_AOT/AOT_stimuli/rescaled_final/1172_rv.mp4	0.0	225.95369124412537	
46	208.89777302742004	movie	1		294	44.0	2.5	/experiments/Knapen_AOT/AOT_stimuli/rescaled_final/1172_rv.mp4	0.0	225.9701738357544	2.5003464221954346
46	210.48162460327148	pulse	1	t		44.0	2.5	/experiments/Knapen_AOT/AOT_stimuli/rescaled_final/1172_rv.mp4	0.0	227.55402541160583	
46	211.39811944961548	fix_post	2		12	44.0	2.5	/experiments/Knapen_AOT/AOT_stimuli/rescaled_final/1172_rv.mp4	0.0	228.47052025794983	0.10000872611999512
47	211.49812817573547	fix_pre	0		120	45.0	2.5	/experiments/Knapen_AOT/AOT_stimuli/rescaled_final/1061_rv.mp4	0.0	228.57052898406982	1.0001435279846191
47	212.08172035217285	pulse	0	t		45.0	2.5	/experiments/Knapen_AOT/AOT_stimuli/rescaled_final/1061_rv.mp4	0.0	229.1541211605072	
47	212.4982717037201	movie	1		297	45.0	2.5	/experiments/Knapen_AOT/AOT_stimuli/rescaled_final/1061_rv.mp4	0.0	229.57067251205444	2.500385284423828
47	213.68197226524353	pulse	1	t		45.0	2.5	/experiments/Knapen_AOT/AOT_stimuli/rescaled_final/1061_rv.mp4	0.0	230.75437307357788	
47	214.99865698814392	fix_post	2		12	45.0	2.5	/experiments/Knapen_AOT/AOT_stimuli/rescaled_final/1061_rv.mp4	0.0	232.07105779647827	0.10001158714294434
48	215.09866857528687	fix_pre	0		120	46.0	2.5	/experiments/Knapen_AOT/AOT_stimuli/rescaled_final/0005_rv.mp4	0.0	232.17106938362122	1.0001506805419922
48	215.28224325180054	pulse	0	t		46.0	2.5	/experiments/Knapen_AOT/AOT_stimuli/rescaled_final/0005_rv.mp4	0.0	232.3546440601349	
48	216.09881925582886	movie	1		278	46.0	2.5	/experiments/Knapen_AOT/AOT_stimuli/rescaled_final/0005_rv.mp4	0.0	233.1712200641632	2.5003883838653564
48	216.88248896598816	pulse	1	t		46.0	2.5	/experiments/Knapen_AOT/AOT_stimuli/rescaled_final/0005_rv.mp4	0.0	233.9548897743225	
48	218.48265480995178	pulse	1	t		46.0	2.5	/experiments/Knapen_AOT/AOT_stimuli/rescaled_final/0005_rv.mp4	0.0	235.55505561828613	
48	218.5992076396942	fix_post	2		12	46.0	2.5	/experiments/Knapen_AOT/AOT_stimuli/rescaled_final/0005_rv.mp4	0.0	235.67160844802856	0.10001921653747559
49	218.6992268562317	fix_pre	0		120	47.0	2.5	/experiments/Knapen_AOT/AOT_stimuli/rescaled_final/0737_fw.mp4	0.0	235.77162766456604	1.008544683456421
49	219.7077715396881	movie	1		296	47.0	2.5	/experiments/Knapen_AOT/AOT_stimuli/rescaled_final/0737_fw.mp4	0.0	236.78017234802246	2.491990089416504
49	220.08134484291077	pulse	1	t		47.0	2.5	/experiments/Knapen_AOT/AOT_stimuli/rescaled_final/0737_fw.mp4	0.0	237.15374565124512	
49	221.68325185775757	pulse	1	t		47.0	2.5	/experiments/Knapen_AOT/AOT_stimuli/rescaled_final/0737_fw.mp4	0.0	238.75565266609192	
49	222.19976162910461	fix_post	2		12	47.0	2.5	/experiments/Knapen_AOT/AOT_stimuli/rescaled_final/0737_fw.mp4	0.0	239.27216243743896	0.10000395774841309
50	222.29976558685303	fix_pre	0		119	48.0	2.5	blank	1.0	239.37216639518738	0.9918212890625
50	223.28353881835938	pulse	0	t		48.0	2.5	blank	1.0	240.35593962669373	
50	223.29158687591553	movie	1		301	48.0	2.5	blank	1.0	240.36398768424988	2.508713960647583
50	224.88372206687927	pulse	1	t		48.0	2.5	blank	1.0	241.95612287521362	
50	225.8003008365631	fix_post	2		12	48.0	2.5	blank	1.0	242.87270164489746	0.10004520416259766
51	225.9003460407257	fix_pre	0		120	49.0	2.5	/experiments/Knapen_AOT/AOT_stimuli/rescaled_final/1029_fw.mp4	0.0	242.97274684906006	1.00850510597229
51	226.4840693473816	pulse	0	t		49.0	2.5	/experiments/Knapen_AOT/AOT_stimuli/rescaled_final/1029_fw.mp4	0.0	243.55647015571594	
51	226.908851146698	movie	1		288	49.0	2.5	/experiments/Knapen_AOT/AOT_stimuli/rescaled_final/1029_fw.mp4	0.0	243.98125195503235	2.4920012950897217
51	228.08442091941833	pulse	1	t		49.0	2.5	/experiments/Knapen_AOT/AOT_stimuli/rescaled_final/1029_fw.mp4	0.0	245.15682172775269	
51	229.40085244178772	fix_post	2		12	49.0	2.5	/experiments/Knapen_AOT/AOT_stimuli/rescaled_final/1029_fw.mp4	0.0	246.47325325012207	0.10002851486206055
52	229.50088095664978	fix_pre	0		120	50.0	2.5	/experiments/Knapen_AOT/AOT_stimuli/rescaled_final/1828_rv.mp4	0.0	246.57328176498413	1.0085277557373047
52	229.68488430976868	pulse	0	t		50.0	2.5	/experiments/Knapen_AOT/AOT_stimuli/rescaled_final/1828_rv.mp4	0.0	246.75728511810303	
52	230.50940871238708	movie	1		282	50.0	2.5	/experiments/Knapen_AOT/AOT_stimuli/rescaled_final/1828_rv.mp4	0.0	247.58180952072144	2.492149829864502
52	231.28319382667542	pulse	1	t		50.0	2.5	/experiments/Knapen_AOT/AOT_stimuli/rescaled_final/1828_rv.mp4	0.0	248.35559463500977	
52	232.88312315940857	pulse	1	t		50.0	2.5	/experiments/Knapen_AOT/AOT_stimuli/rescaled_final/1828_rv.mp4	0.0	249.95552396774292	
52	233.0015585422516	fix_post	2		12	50.0	2.5	/experiments/Knapen_AOT/AOT_stimuli/rescaled_final/1828_rv.mp4	0.0	250.07395935058594	0.09988141059875488
53	233.10143995285034	fix_pre	0		120	51.0	2.5	/experiments/Knapen_AOT/AOT_stimuli/rescaled_final/1882_rv.mp4	0.0	250.1738407611847	1.008486032485962
53	234.1099259853363	movie	1		284	51.0	2.5	/experiments/Knapen_AOT/AOT_stimuli/rescaled_final/1882_rv.mp4	0.0	251.18232679367065	2.492149591445923
53	234.48336791992188	pulse	1	t		51.0	2.5	/experiments/Knapen_AOT/AOT_stimuli/rescaled_final/1882_rv.mp4	0.0	251.55576872825623	
53	236.0839548110962	pulse	1	t		51.0	2.5	/experiments/Knapen_AOT/AOT_stimuli/rescaled_final/1882_rv.mp4	0.0	253.15635561943054	
53	236.60207557678223	fix_post	2		12	51.0	2.5	/experiments/Knapen_AOT/AOT_stimuli/rescaled_final/1882_rv.mp4	0.0	253.67447638511658	0.09989070892333984
54	236.70196628570557	fix_pre	0		119	52.0	2.5	/experiments/Knapen_AOT/AOT_stimuli/rescaled_final/1126_rv.mp4	0.0	253.77436709403992	1.000154972076416
54	237.68574571609497	pulse	0	t		52.0	2.5	/experiments/Knapen_AOT/AOT_stimuli/rescaled_final/1126_rv.mp4	0.0	254.75814652442932	
54	237.70212125778198	movie	1		275	52.0	2.5	/experiments/Knapen_AOT/AOT_stimuli/rescaled_final/1126_rv.mp4	0.0	254.77452206611633	2.500370979309082
54	239.28565311431885	pulse	1	t		52.0	2.5	/experiments/Knapen_AOT/AOT_stimuli/rescaled_final/1126_rv.mp4	0.0	256.3580539226532	
54	240.20249223709106	fix_post	2		12	52.0	2.5	/experiments/Knapen_AOT/AOT_stimuli/rescaled_final/1126_rv.mp4	0.0	257.2748930454254	0.10000014305114746
55	240.3024923801422	fix_pre	0		120	53.0	2.5	/experiments/Knapen_AOT/AOT_stimuli/rescaled_final/1172_rv.mp4	0.0	257.37489318847656	1.0085039138793945
55	240.88612031936646	pulse	0	t		53.0	2.5	/experiments/Knapen_AOT/AOT_stimuli/rescaled_final/1172_rv.mp4	0.0	257.9585211277008	
55	241.3109962940216	movie	1		279	53.0	2.5	/experiments/Knapen_AOT/AOT_stimuli/rescaled_final/1172_rv.mp4	0.0	258.38339710235596	2.492053985595703
55	242.48528575897217	pulse	1	t		53.0	2.5	/experiments/Knapen_AOT/AOT_stimuli/rescaled_final/1172_rv.mp4	0.0	259.5576865673065	
55	243.8030502796173	fix_post	2		12	53.0	2.5	/experiments/Knapen_AOT/AOT_stimuli/rescaled_final/1172_rv.mp4	0.0	260.87545108795166	0.1000070571899414
56	243.90305733680725	fix_pre	0		120	54.0	2.5	blank	1.0	260.9754581451416	1.0001585483551025
56	244.0868377685547	pulse	0	t		54.0	2.5	blank	1.0	261.15923857688904	
56	244.90321588516235	movie	1		300	54.0	2.5	blank	1.0	261.9756166934967	2.5003926753997803
56	245.6868176460266	pulse	1	t		54.0	2.5	blank	1.0	262.75921845436096	
56	247.28714227676392	pulse	1	t		54.0	2.5	blank	1.0	264.35954308509827	
56	247.40360856056213	fix_post	2		12	54.0	2.5	blank	1.0	264.4760093688965	0.10002374649047852
57	247.5036323070526	fix_pre	0		120	55.0	2.5	/experiments/Knapen_AOT/AOT_stimuli/rescaled_final/2111_fw.mp4	0.0	264.57603311538696	1.0084681510925293
57	248.51210045814514	movie	1		283	55.0	2.5	/experiments/Knapen_AOT/AOT_stimuli/rescaled_final/2111_fw.mp4	0.0	265.5845012664795	2.4920284748077393
57	248.8856656551361	pulse	1	t		55.0	2.5	/experiments/Knapen_AOT/AOT_stimuli/rescaled_final/2111_fw.mp4	0.0	265.95806646347046	
57	250.4856677055359	pulse	1	t		55.0	2.5	/experiments/Knapen_AOT/AOT_stimuli/rescaled_final/2111_fw.mp4	0.0	267.55806851387024	
57	251.00412893295288	fix_post	2		12	55.0	2.5	/experiments/Knapen_AOT/AOT_stimuli/rescaled_final/2111_fw.mp4	0.0	268.07652974128723	0.10000824928283691
58	251.10413718223572	fix_pre	0		119	56.0	2.5	/experiments/Knapen_AOT/AOT_stimuli/rescaled_final/0758_fw.mp4	0.0	268.17653799057007	1.0002233982086182
58	252.08039903640747	pulse	0	t		56.0	2.5	/experiments/Knapen_AOT/AOT_stimuli/rescaled_final/0758_fw.mp4	0.0	269.1527998447418	
58	252.10436058044434	movie	1		282	56.0	2.5	/experiments/Knapen_AOT/AOT_stimuli/rescaled_final/0758_fw.mp4	0.0	269.1767613887787	2.5003013610839844
58	253.6867218017578	pulse	1	t		56.0	2.5	/experiments/Knapen_AOT/AOT_stimuli/rescaled_final/0758_fw.mp4	0.0	270.75912261009216	
58	254.60466194152832	fix_post	2		12	56.0	2.5	/experiments/Knapen_AOT/AOT_stimuli/rescaled_final/0758_fw.mp4	0.0	271.67706274986267	0.1000218391418457
59	254.70468378067017	fix_pre	0		120	57.0	2.5	/experiments/Knapen_AOT/AOT_stimuli/rescaled_final/1941_rv.mp4	0.0	271.7770845890045	1.0085093975067139
59	255.280743598938	pulse	0	t		57.0	2.5	/experiments/Knapen_AOT/AOT_stimuli/rescaled_final/1941_rv.mp4	0.0	272.35314440727234	
59	255.71319317817688	movie	1		278	57.0	2.5	/experiments/Knapen_AOT/AOT_stimuli/rescaled_final/1941_rv.mp4	0.0	272.78559398651123	2.492159366607666
59	256.88045716285706	pulse	1	t		57.0	2.5	/experiments/Knapen_AOT/AOT_stimuli/rescaled_final/1941_rv.mp4	0.0	273.9528579711914	
59	258.20535254478455	fix_post	2		12	57.0	2.5	/experiments/Knapen_AOT/AOT_stimuli/rescaled_final/1941_rv.mp4	0.0	275.2777533531189	0.09987545013427734
60	258.3052279949188	fix_pre	0		120	58.0	2.5	/experiments/Knapen_AOT/AOT_stimuli/rescaled_final/0127_rv.mp4	0.0	275.3776288032532	1.0084702968597412
60	258.480486869812	pulse	0	t		58.0	2.5	/experiments/Knapen_AOT/AOT_stimuli/rescaled_final/0127_rv.mp4	0.0	275.55288767814636	
60	259.31369829177856	movie	1		284	58.0	2.5	/experiments/Knapen_AOT/AOT_stimuli/rescaled_final/0127_rv.mp4	0.0	276.3860991001129	2.492049217224121
60	260.08071088790894	pulse	1	t		58.0	2.5	/experiments/Knapen_AOT/AOT_stimuli/rescaled_final/0127_rv.mp4	0.0	277.1531116962433	
60	261.68093609809875	pulse	1	t		58.0	2.5	/experiments/Knapen_AOT/AOT_stimuli/rescaled_final/0127_rv.mp4	0.0	278.7533369064331	
60	261.8057475090027	fix_post	2		12	58.0	2.5	/experiments/Knapen_AOT/AOT_stimuli/rescaled_final/0127_rv.mp4	0.0	278.87814831733704	0.10007929801940918
61	261.9058268070221	fix_pre	0		120	59.0	2.5	/experiments/Knapen_AOT/AOT_stimuli/rescaled_final/0295_rv.mp4	0.0	278.97822761535645	1.0084171295166016
61	262.9142439365387	movie	1		280	59.0	2.5	/experiments/Knapen_AOT/AOT_stimuli/rescaled_final/0295_rv.mp4	0.0	279.98664474487305	2.4920291900634766
61	263.2812912464142	pulse	1	t		59.0	2.5	/experiments/Knapen_AOT/AOT_stimuli/rescaled_final/0295_rv.mp4	0.0	280.35369205474854	
61	264.88141202926636	pulse	1	t		59.0	2.5	/experiments/Knapen_AOT/AOT_stimuli/rescaled_final/0295_rv.mp4	0.0	281.9538128376007	
61	265.4062731266022	fix_post	2		12	59.0	2.5	/experiments/Knapen_AOT/AOT_stimuli/rescaled_final/0295_rv.mp4	0.0	282.4786739349365	0.10003161430358887
62	265.50630474090576	fix_pre	0		118	60.0	2.5	/experiments/Knapen_AOT/AOT_stimuli/rescaled_final/2023_fw.mp4	0.0	282.5787055492401	0.992088794708252
62	266.4817178249359	pulse	0	t		60.0	2.5	/experiments/Knapen_AOT/AOT_stimuli/rescaled_final/2023_fw.mp4	0.0	283.55411863327026	
62	266.498393535614	movie	1		285	60.0	2.5	/experiments/Knapen_AOT/AOT_stimuli/rescaled_final/2023_fw.mp4	0.0	283.57079434394836	2.5001020431518555
62	268.0810992717743	pulse	1	t		60.0	2.5	/experiments/Knapen_AOT/AOT_stimuli/rescaled_final/2023_fw.mp4	0.0	285.15350008010864	
62	268.99849557876587	fix_post	2		12	60.0	2.5	/experiments/Knapen_AOT/AOT_stimuli/rescaled_final/2023_fw.mp4	0.0	286.0708963871002	0.1000068187713623
63	269.09850239753723	fix_pre	0		120	61.0	2.5	blank	1.0	286.1709032058716	1.0001990795135498
63	269.6821758747101	pulse	0	t		61.0	2.5	blank	1.0	286.75457668304443	
63	270.0987014770508	movie	1		300	61.0	2.5	blank	1.0	287.17110228538513	2.500319719314575
63	271.2824709415436	pulse	1	t		61.0	2.5	blank	1.0	288.35487174987793	
63	272.59902119636536	fix_post	2		12	61.0	2.5	blank	1.0	289.6714220046997	0.10004019737243652
64	272.6990613937378	fix_pre	0		120	62.0	2.5	/experiments/Knapen_AOT/AOT_stimuli/rescaled_final/0772_rv.mp4	0.0	289.77146220207214	1.0084476470947266
64	272.8826403617859	pulse	0	t		62.0	2.5	/experiments/Knapen_AOT/AOT_stimuli/rescaled_final/0772_rv.mp4	0.0	289.95504117012024	
64	273.7075090408325	movie	1		283	62.0	2.5	/experiments/Knapen_AOT/AOT_stimuli/rescaled_final/0772_rv.mp4	0.0	290.77990984916687	2.4920687675476074
64	274.4809489250183	pulse	1	t		62.0	2.5	/experiments/Knapen_AOT/AOT_stimuli/rescaled_final/0772_rv.mp4	0.0	291.55334973335266	
64	276.0813250541687	pulse	1	t		62.0	2.5	/experiments/Knapen_AOT/AOT_stimuli/rescaled_final/0772_rv.mp4	0.0	293.15372586250305	
64	276.1995778083801	fix_post	2		12	62.0	2.5	/experiments/Knapen_AOT/AOT_stimuli/rescaled_final/0772_rv.mp4	0.0	293.2719786167145	0.10000348091125488
65	276.2995812892914	fix_pre	0		120	63.0	2.5	/experiments/Knapen_AOT/AOT_stimuli/rescaled_final/0163_rv.mp4	0.0	293.37198209762573	1.0085813999176025
65	277.308162689209	movie	1		276	63.0	2.5	/experiments/Knapen_AOT/AOT_stimuli/rescaled_final/0163_rv.mp4	0.0	294.38056349754333	2.4919445514678955
65	277.68207120895386	pulse	1	t		63.0	2.5	/experiments/Knapen_AOT/AOT_stimuli/rescaled_final/0163_rv.mp4	0.0	294.7544720172882	
65	279.282030582428	pulse	1	t		63.0	2.5	/experiments/Knapen_AOT/AOT_stimuli/rescaled_final/0163_rv.mp4	0.0	296.35443139076233	
65	279.8001072406769	fix_post	2		12	63.0	2.5	/experiments/Knapen_AOT/AOT_stimuli/rescaled_final/0163_rv.mp4	0.0	296.87250804901123	0.10004639625549316
66	279.9001536369324	fix_pre	0		119	64.0	2.5	/experiments/Knapen_AOT/AOT_stimuli/rescaled_final/0310_fw.mp4	0.0	296.9725544452667	1.0001652240753174
66	280.88383960723877	pulse	0	t		64.0	2.5	/experiments/Knapen_AOT/AOT_stimuli/rescaled_final/0310_fw.mp4	0.0	297.9562404155731	
66	280.9003188610077	movie	1		277	64.0	2.5	/experiments/Knapen_AOT/AOT_stimuli/rescaled_final/0310_fw.mp4	0.0	297.97271966934204	2.5003414154052734
66	282.48309087753296	pulse	1	t		64.0	2.5	/experiments/Knapen_AOT/AOT_stimuli/rescaled_final/0310_fw.mp4	0.0	299.5554916858673	
66	283.40066027641296	fix_post	2		12	64.0	2.5	/experiments/Knapen_AOT/AOT_stimuli/rescaled_final/0310_fw.mp4	0.0	300.4730610847473	0.1000068187713623
67	283.5006670951843	fix_pre	0		120	65.0	2.5	/experiments/Knapen_AOT/AOT_stimuli/rescaled_final/1126_fw.mp4	0.0	300.5730679035187	1.008629322052002
67	284.08428931236267	pulse	0	t		65.0	2.5	/experiments/Knapen_AOT/AOT_stimuli/rescaled_final/1126_fw.mp4	0.0	301.156690120697	
67	284.5092964172363	movie	1		280	65.0	2.5	/experiments/Knapen_AOT/AOT_stimuli/rescaled_final/1126_fw.mp4	0.0	301.5816972255707	2.491915464401245
67	285.683128118515	pulse	1	t		65.0	2.5	/experiments/Knapen_AOT/AOT_stimuli/rescaled_final/1126_fw.mp4	0.0	302.75552892684937	
67	287.0012118816376	fix_post	2		12	65.0	2.5	/experiments/Knapen_AOT/AOT_stimuli/rescaled_final/1126_fw.mp4	0.0	304.0736126899719	0.1000070571899414
68	287.1012189388275	fix_pre	0		120	66.0	2.5	/experiments/Knapen_AOT/AOT_stimuli/rescaled_final/2113_fw.mp4	0.0	304.17361974716187	1.0085108280181885
68	287.28475856781006	pulse	0	t		66.0	2.5	/experiments/Knapen_AOT/AOT_stimuli/rescaled_final/2113_fw.mp4	0.0	304.3571593761444	
68	288.1097297668457	movie	1		277	66.0	2.5	/experiments/Knapen_AOT/AOT_stimuli/rescaled_final/2113_fw.mp4	0.0	305.18213057518005	2.492013454437256
68	288.88356280326843	pulse	1	t		66.0	2.5	/experiments/Knapen_AOT/AOT_stimuli/rescaled_final/2113_fw.mp4	0.0	305.9559636116028	
68	290.4834773540497	pulse	1	t		66.0	2.5	/experiments/Knapen_AOT/AOT_stimuli/rescaled_final/2113_fw.mp4	0.0	307.55587816238403	
68	290.60174322128296	fix_post	2		12	66.0	2.5	/experiments/Knapen_AOT/AOT_stimuli/rescaled_final/2113_fw.mp4	0.0	307.6741440296173	0.10003924369812012
69	290.7017824649811	fix_pre	0		120	67.0	2.5	/experiments/Knapen_AOT/AOT_stimuli/rescaled_final/1876_rv.mp4	0.0	307.77418327331543	1.008481502532959
69	291.71026396751404	movie	1		256	67.0	2.5	/experiments/Knapen_AOT/AOT_stimuli/rescaled_final/1876_rv.mp4	0.0	308.7826647758484	2.4920661449432373
69	292.0845637321472	pulse	1	t		67.0	2.5	/experiments/Knapen_AOT/AOT_stimuli/rescaled_final/1876_rv.mp4	0.0	309.15696454048157	
69	293.68380546569824	pulse	1	t		67.0	2.5	/experiments/Knapen_AOT/AOT_stimuli/rescaled_final/1876_rv.mp4	0.0	310.7562062740326	
69	294.2023301124573	fix_post	2		12	67.0	2.5	/experiments/Knapen_AOT/AOT_stimuli/rescaled_final/1876_rv.mp4	0.0	311.2747309207916	0.09997367858886719
70	294.30230379104614	fix_pre	0		119	68.0	2.5	/experiments/Knapen_AOT/AOT_stimuli/rescaled_final/1310_rv.mp4	0.0	311.3747045993805	1.0002319812774658
70	295.28615140914917	pulse	0	t		68.0	2.5	/experiments/Knapen_AOT/AOT_stimuli/rescaled_final/1310_rv.mp4	0.0	312.3585522174835	
70	295.3025357723236	movie	1		278	68.0	2.5	/experiments/Knapen_AOT/AOT_stimuli/rescaled_final/1310_rv.mp4	0.0	312.37493658065796	2.5003199577331543
70	296.8848822116852	pulse	1	t		68.0	2.5	/experiments/Knapen_AOT/AOT_stimuli/rescaled_final/1310_rv.mp4	0.0	313.95728302001953	
70	297.80285573005676	fix_post	2		12	68.0	2.5	/experiments/Knapen_AOT/AOT_stimuli/rescaled_final/1310_rv.mp4	0.0	314.8752565383911	0.1000206470489502
71	297.9028763771057	fix_pre	0		120	69.0	2.5	blank	1.0	314.97527718544006	1.0002350807189941
71	298.4865233898163	pulse	0	t		69.0	2.5	blank	1.0	315.55892419815063	
71	298.9031114578247	movie	1		300	69.0	2.5	blank	1.0	315.97551226615906	2.5002682209014893
71	300.08673310279846	pulse	1	t		69.0	2.5	blank	1.0	317.1591339111328	
71	301.4033796787262	fix_post	2		12	69.0	2.5	blank	1.0	318.47578048706055	0.1000368595123291
72	301.5034165382385	fix_pre	0		120	70.0	2.5	/experiments/Knapen_AOT/AOT_stimuli/rescaled_final/1370_rv.mp4	0.0	318.5758173465729	1.008493423461914
72	301.68695855140686	pulse	0	t		70.0	2.5	/experiments/Knapen_AOT/AOT_stimuli/rescaled_final/1370_rv.mp4	0.0	318.7593593597412	
72	302.51190996170044	movie	1		285	70.0	2.5	/experiments/Knapen_AOT/AOT_stimuli/rescaled_final/1370_rv.mp4	0.0	319.5843107700348	2.492004871368408
72	303.28528356552124	pulse	1	t		70.0	2.5	/experiments/Knapen_AOT/AOT_stimuli/rescaled_final/1370_rv.mp4	0.0	320.3576843738556	
72	304.8854594230652	pulse	1	t		70.0	2.5	/experiments/Knapen_AOT/AOT_stimuli/rescaled_final/1370_rv.mp4	0.0	321.95786023139954	
72	305.00391483306885	fix_post	2		12	70.0	2.5	/experiments/Knapen_AOT/AOT_stimuli/rescaled_final/1370_rv.mp4	0.0	322.0763156414032	0.10003495216369629
73	305.10394978523254	fix_pre	0		120	71.0	2.5	/experiments/Knapen_AOT/AOT_stimuli/rescaled_final/0005_rv.mp4	0.0	322.1763505935669	1.0085930824279785
73	306.1125428676605	movie	1		277	71.0	2.5	/experiments/Knapen_AOT/AOT_stimuli/rescaled_final/0005_rv.mp4	0.0	323.1849436759949	2.492180585861206
73	306.48601174354553	pulse	1	t		71.0	2.5	/experiments/Knapen_AOT/AOT_stimuli/rescaled_final/0005_rv.mp4	0.0	323.5584125518799	
73	308.0880174636841	pulse	1	t		71.0	2.5	/experiments/Knapen_AOT/AOT_stimuli/rescaled_final/0005_rv.mp4	0.0	325.16041827201843	
73	308.60472345352173	fix_post	2		12	71.0	2.5	/experiments/Knapen_AOT/AOT_stimuli/rescaled_final/0005_rv.mp4	0.0	325.6771242618561	0.09974455833435059
74	308.7044680118561	fix_pre	0		119	72.0	2.5	/experiments/Knapen_AOT/AOT_stimuli/rescaled_final/0425_rv.mp4	0.0	325.77686882019043	1.0001041889190674
74	309.68170523643494	pulse	0	t		72.0	2.5	/experiments/Knapen_AOT/AOT_stimuli/rescaled_final/0425_rv.mp4	0.0	326.7541060447693	
74	309.70457220077515	movie	1		275	72.0	2.5	/experiments/Knapen_AOT/AOT_stimuli/rescaled_final/0425_rv.mp4	0.0	326.7769730091095	2.5004305839538574
74	311.2871296405792	pulse	1	t		72.0	2.5	/experiments/Knapen_AOT/AOT_stimuli/rescaled_final/0425_rv.mp4	0.0	328.3595304489136	
74	312.205002784729	fix_post	2		12	72.0	2.5	/experiments/Knapen_AOT/AOT_stimuli/rescaled_final/0425_rv.mp4	0.0	329.27740359306335	0.1000356674194336
75	312.30503845214844	fix_pre	0		120	73.0	2.5	/experiments/Knapen_AOT/AOT_stimuli/rescaled_final/1397_fw.mp4	0.0	329.3774392604828	1.0084855556488037
75	312.88249683380127	pulse	0	t		73.0	2.5	/experiments/Knapen_AOT/AOT_stimuli/rescaled_final/1397_fw.mp4	0.0	329.9548976421356	
75	313.31352400779724	movie	1		270	73.0	2.5	/experiments/Knapen_AOT/AOT_stimuli/rescaled_final/1397_fw.mp4	0.0	330.3859248161316	2.4920156002044678
75	314.4809386730194	pulse	1	t		73.0	2.5	/experiments/Knapen_AOT/AOT_stimuli/rescaled_final/1397_fw.mp4	0.0	331.55333948135376	
75	315.8055396080017	fix_post	2		12	73.0	2.5	/experiments/Knapen_AOT/AOT_stimuli/rescaled_final/1397_fw.mp4	0.0	332.87794041633606	0.10002279281616211
76	315.90556240081787	fix_pre	0		120	74.0	2.5	/experiments/Knapen_AOT/AOT_stimuli/rescaled_final/0054_fw.mp4	0.0	332.9779632091522	1.008488655090332
76	316.08089780807495	pulse	0	t		74.0	2.5	/experiments/Knapen_AOT/AOT_stimuli/rescaled_final/0054_fw.mp4	0.0	333.1532986164093	
76	316.9140510559082	movie	1		273	74.0	2.5	/experiments/Knapen_AOT/AOT_stimuli/rescaled_final/0054_fw.mp4	0.0	333.98645186424255	2.492037773132324
76	317.68111276626587	pulse	1	t		74.0	2.5	/experiments/Knapen_AOT/AOT_stimuli/rescaled_final/0054_fw.mp4	0.0	334.7535135746002	
76	319.28127670288086	pulse	1	t		74.0	2.5	/experiments/Knapen_AOT/AOT_stimuli/rescaled_final/0054_fw.mp4	0.0	336.3536775112152	
76	319.4060888290405	fix_post	2		12	74.0	2.5	/experiments/Knapen_AOT/AOT_stimuli/rescaled_final/0054_fw.mp4	0.0	336.4784896373749	0.10004854202270508
77	319.50613737106323	fix_pre	0		120	75.0	2.5	/experiments/Knapen_AOT/AOT_stimuli/rescaled_final/0561_fw.mp4	0.0	336.5785381793976	1.0085234642028809
77	320.5146608352661	movie	1		267	75.0	2.5	/experiments/Knapen_AOT/AOT_stimuli/rescaled_final/0561_fw.mp4	0.0	337.58706164360046	2.4920074939727783
77	320.88178396224976	pulse	1	t		75.0	2.5	/experiments/Knapen_AOT/AOT_stimuli/rescaled_final/0561_fw.mp4	0.0	337.9541847705841	
77	322.4819176197052	pulse	1	t		75.0	2.5	/experiments/Knapen_AOT/AOT_stimuli/rescaled_final/0561_fw.mp4	0.0	339.55431842803955	
77	323.0066683292389	fix_post	2		12	75.0	2.5	/experiments/Knapen_AOT/AOT_stimuli/rescaled_final/0561_fw.mp4	0.0	340.07906913757324	0.0999758243560791
78	323.10664415359497	fix_pre	0		118	76.0	2.5	blank	1.0	340.1790449619293	0.9835062026977539
78	324.0825161933899	pulse	0	t		76.0	2.5	blank	1.0	341.15491700172424	
78	324.0901503562927	movie	1		301	76.0	2.5	blank	1.0	341.1625511646271	2.508699655532837
78	325.68260407447815	pulse	1	t		76.0	2.5	blank	1.0	342.7550048828125	
78	326.59885001182556	fix_post	2		12	76.0	2.5	blank	1.0	343.6712508201599	0.10000801086425781
79	326.6988580226898	fix_pre	0		120	77.0	2.5	/experiments/Knapen_AOT/AOT_stimuli/rescaled_final/2139_fw.mp4	0.0	343.77125883102417	1.008636713027954
79	327.2827157974243	pulse	0	t		77.0	2.5	/experiments/Knapen_AOT/AOT_stimuli/rescaled_final/2139_fw.mp4	0.0	344.35511660575867	
79	327.7074947357178	movie	1		272	77.0	2.5	/experiments/Knapen_AOT/AOT_stimuli/rescaled_final/2139_fw.mp4	0.0	344.7798955440521	2.4919307231903076
79	328.88136053085327	pulse	1	t		77.0	2.5	/experiments/Knapen_AOT/AOT_stimuli/rescaled_final/2139_fw.mp4	0.0	345.9537613391876	
79	330.1994254589081	fix_post	2		12	77.0	2.5	/experiments/Knapen_AOT/AOT_stimuli/rescaled_final/2139_fw.mp4	0.0	347.27182626724243	0.09997725486755371
80	330.29940271377563	fix_pre	0		120	78.0	2.5	/experiments/Knapen_AOT/AOT_stimuli/rescaled_final/0931_fw.mp4	0.0	347.37180352211	1.008479356765747
80	330.4830746650696	pulse	0	t		78.0	2.5	/experiments/Knapen_AOT/AOT_stimuli/rescaled_final/0931_fw.mp4	0.0	347.55547547340393	
80	331.3078820705414	movie	1		275	78.0	2.5	/experiments/Knapen_AOT/AOT_stimuli/rescaled_final/0931_fw.mp4	0.0	348.38028287887573	2.4920260906219482
80	332.08103919029236	pulse	1	t		78.0	2.5	/experiments/Knapen_AOT/AOT_stimuli/rescaled_final/0931_fw.mp4	0.0	349.1534399986267	
80	333.6815767288208	pulse	1	t		78.0	2.5	/experiments/Knapen_AOT/AOT_stimuli/rescaled_final/0931_fw.mp4	0.0	350.75397753715515	
80	333.79990816116333	fix_post	2		12	78.0	2.5	/experiments/Knapen_AOT/AOT_stimuli/rescaled_final/0931_fw.mp4	0.0	350.8723089694977	0.10001230239868164
81	333.899920463562	fix_pre	0		120	79.0	2.5	/experiments/Knapen_AOT/AOT_stimuli/rescaled_final/1560_fw.mp4	0.0	350.97232127189636	1.0085031986236572
81	334.90842366218567	movie	1		271	79.0	2.5	/experiments/Knapen_AOT/AOT_stimuli/rescaled_final/1560_fw.mp4	0.0	351.98082447052	2.4920318126678467
81	335.28222703933716	pulse	1	t		79.0	2.5	/experiments/Knapen_AOT/AOT_stimuli/rescaled_final/1560_fw.mp4	0.0	352.3546278476715	
81	336.88521909713745	pulse	1	t		79.0	2.5	/experiments/Knapen_AOT/AOT_stimuli/rescaled_final/1560_fw.mp4	0.0	353.9576199054718	
81	337.4004554748535	fix_post	2		12	79.0	2.5	/experiments/Knapen_AOT/AOT_stimuli/rescaled_final/1560_fw.mp4	0.0	354.47285628318787	0.10001254081726074
82	337.5004680156708	fix_pre	0		119	80.0	2.5	/experiments/Knapen_AOT/AOT_stimuli/rescaled_final/1443_rv.mp4	0.0	354.5728688240051	1.0005464553833008
82	338.4842312335968	pulse	0	t		80.0	2.5	/experiments/Knapen_AOT/AOT_stimuli/rescaled_final/1443_rv.mp4	0.0	355.55663204193115	
82	338.5010144710541	movie	1		278	80.0	2.5	/experiments/Knapen_AOT/AOT_stimuli/rescaled_final/1443_rv.mp4	0.0	355.5734152793884	2.4999899864196777
82	340.08312916755676	pulse	1	t		80.0	2.5	/experiments/Knapen_AOT/AOT_stimuli/rescaled_final/1443_rv.mp4	0.0	357.1555299758911	
82	341.00100445747375	fix_post	2		12	80.0	2.5	/experiments/Knapen_AOT/AOT_stimuli/rescaled_final/1443_rv.mp4	0.0	358.0734052658081	0.10001492500305176
83	341.1010193824768	fix_pre	0		120	81.0	2.5	/experiments/Knapen_AOT/AOT_stimuli/rescaled_final/0019_rv.mp4	0.0	358.17342019081116	1.008538007736206
83	341.68479013442993	pulse	0	t		81.0	2.5	/experiments/Knapen_AOT/AOT_stimuli/rescaled_final/0019_rv.mp4	0.0	358.7571909427643	
83	342.109557390213	movie	1		265	81.0	2.5	/experiments/Knapen_AOT/AOT_stimuli/rescaled_final/0019_rv.mp4	0.0	359.18195819854736	2.4919681549072266
83	343.28344917297363	pulse	1	t		81.0	2.5	/experiments/Knapen_AOT/AOT_stimuli/rescaled_final/0019_rv.mp4	0.0	360.355849981308	
83	344.60152554512024	fix_post	2		12	81.0	2.5	/experiments/Knapen_AOT/AOT_stimuli/rescaled_final/0019_rv.mp4	0.0	361.6739263534546	0.10011744499206543
84	344.7016429901123	fix_pre	0		120	82.0	2.5	blank	1.0	361.77404379844666	1.0000684261322021
84	344.88509726524353	pulse	0	t		82.0	2.5	blank	1.0	361.9574980735779	
84	345.7017114162445	movie	1		300	82.0	2.5	blank	1.0	362.77411222457886	2.500356435775757
84	346.48545122146606	pulse	1	t		82.0	2.5	blank	1.0	363.5578520298004	
84	348.0855896472931	pulse	1	t		82.0	2.5	blank	1.0	365.15799045562744	
84	348.20206785202026	fix_post	2		12	82.0	2.5	blank	1.0	365.2744686603546	0.1000821590423584
85	348.3021500110626	fix_pre	0		120	83.0	2.5	/experiments/Knapen_AOT/AOT_stimuli/rescaled_final/1696_rv.mp4	0.0	365.374550819397	1.0084469318389893
85	349.3105969429016	movie	1		267	83.0	2.5	/experiments/Knapen_AOT/AOT_stimuli/rescaled_final/1696_rv.mp4	0.0	366.38299775123596	2.4920296669006348
85	349.6857273578644	pulse	1	t		83.0	2.5	/experiments/Knapen_AOT/AOT_stimuli/rescaled_final/1696_rv.mp4	0.0	366.75812816619873	
85	351.2840406894684	pulse	1	t		83.0	2.5	/experiments/Knapen_AOT/AOT_stimuli/rescaled_final/1696_rv.mp4	0.0	368.35644149780273	
85	351.80262660980225	fix_post	2		12	83.0	2.5	/experiments/Knapen_AOT/AOT_stimuli/rescaled_final/1696_rv.mp4	0.0	368.8750274181366	0.10007953643798828
87	351.90270614624023	stim	0		1715					368.9751069545746	14.293761253356934
87	352.88638138771057	pulse	0	t						369.9587821960449	
87	354.4865252971649	pulse	0	t						371.55892610549927	
87	356.0867280960083	pulse	0	t						373.15912890434265	
87	357.6870012283325	pulse	0	t						374.75940203666687	
87	359.2872312068939	pulse	0	t						376.35963201522827	
87	360.8874547481537	pulse	0	t						377.95985555648804	
87	362.48769879341125	pulse	0	t						379.5600996017456	
87	364.0879969596863	pulse	0	t						381.16039776802063	
87	365.6814980506897	pulse	0	t						382.75389885902405	
